rt,responses,trial_type,time_elapsed,stimulus,button_pressed,key_press,name_trial,city_type,rating,probe,probe_accuracy,response,correct,accuracy,problems,smooth,distraction,strategies,familiar,memorable,unique,realistic,similar,comments
4848.099999904633,{worker_id:67168dec9c8bbf36f6db6cdd},id_enter,4850,,,,,,,,,,,,,,,,,,,,,
12978,,fullscreen,17831,fullscreen,0,,,,,,,,,,,,,,,,,,,
5606.60000038147,,intro_0,23440,instruct,,32,,,,,,,,,,,,,,,,,,
13864.099999904633,,intro_1,37305,instruct,,32,,,,,,,,,,,,,,,,,,
6742.200000286102,,intro_2,44048,instruct,,32,,,,,,,,,,,,,,,,,,
null,,instruct_dir_4,45554,instruct,,null,,,,,,,,,,,,,,,,,,
null,,thebreak,46068,break,,null,,,,,,,,,,,,,,,,,,
4612.800000190735,,familiar_rating,50682,East Ladera,,49,East Ladera,Fictional,1,,,,,,,,,,,,,,,
null,,confidence_buffer,50793,confidence_buffer,,null,,,,,,,,,,,,,,,,,,
3205.7999997138977,,unique_rating,54001,East Ladera,,53,,,5,,,,,,,,,,,,,,,
null,,confidence_buffer,54112,confidence_buffer,,null,,,,,,,,,,,,,,,,,,
1638.2000002861023,,memorable_rating,55751,East Ladera,,53,,,5,,,,,,,,,,,,,,,
null,,confidence_buffer,55860,confidence_buffer,,null,,,,,,,,,,,,,,,,,,
null,,thebreak,56376,break,,null,,,,,,,,,,,,,,,,,,
3576,,familiar_rating,59955,Sunmere,,49,Sunmere,Fictional,1,,,,,,,,,,,,,,,
null,,confidence_buffer,60063,confidence_buffer,,null,,,,,,,,,,,,,,,,,,
2498.7000002861023,,unique_rating,62564,Sunmere,,51,,,3,,,,,,,,,,,,,,,
null,,confidence_buffer,62671,confidence_buffer,,null,,,,,,,,,,,,,,,,,,
4507.39999961853,,probe_rating,67181,probe_rating,,52,,,,4,1,,,,,,,,,,,,,
null,,confidence_buffer,67289,confidence_buffer,,null,,,,,,,,,,,,,,,,,,
3121.0999999046326,,memorable_rating,70412,Sunmere,,52,,,4,,,,,,,,,,,,,,,
null,,confidence_buffer,70521,confidence_buffer,,null,,,,,,,,,,,,,,,,,,
null,,thebreak,71024,break,,null,,,,,,,,,,,,,,,,,,
5094.199999809265,,familiar_rating,76119,Crestwood,,50,Crestwood,Fictional,2,,,,,,,,,,,,,,,
null,,confidence_buffer,76223,confidence_buffer,,null,,,,,,,,,,,,,,,,,,
2741,,unique_rating,78966,Crestwood,,50,,,2,,,,,,,,,,,,,,,
null,,confidence_buffer,79074,confidence_buffer,,null,,,,,,,,,,,,,,,,,,
2870.0999999046326,,memorable_rating,81946,Crestwood,,51,,,3,,,,,,,,,,,,,,,
null,,confidence_buffer,82049,confidence_buffer,,null,,,,,,,,,,,,,,,,,,
null,,thebreak,82551,break,,null,,,,,,,,,,,,,,,,,,
2354.6000003814697,,familiar_rating,84907,Folly Beach,,49,Folly Beach,US,1,,,,,,,,,,,,,,,
null,,confidence_buffer,85010,confidence_buffer,,null,,,,,,,,,,,,,,,,,,
3335.5999999046326,,unique_rating,88347,Folly Beach,,52,,,4,,,,,,,,,,,,,,,
null,,confidence_buffer,88458,confidence_buffer,,null,,,,,,,,,,,,,,,,,,
1438.7999997138977,,memorable_rating,89898,Folly Beach,,51,,,3,,,,,,,,,,,,,,,
null,,confidence_buffer,90005,confidence_buffer,,null,,,,,,,,,,,,,,,,,,
null,,thebreak,90508,break,,null,,,,,,,,,,,,,,,,,,
3773.2999997138977,,familiar_rating,94283,Solara Glen,,49,Solara Glen,Fictional,1,,,,,,,,,,,,,,,
null,,confidence_buffer,94384,confidence_buffer,,null,,,,,,,,,,,,,,,,,,
2791.300000190735,,probe_rating,97178,probe_rating,,53,,,,5,1,,,,,,,,,,,,,
null,,confidence_buffer,97293,confidence_buffer,,null,,,,,,,,,,,,,,,,,,
4839.400000095367,,unique_rating,102135,Solara Glen,,53,,,5,,,,,,,,,,,,,,,
null,,confidence_buffer,102243,confidence_buffer,,null,,,,,,,,,,,,,,,,,,
1945.5,,memorable_rating,104190,Solara Glen,,52,,,4,,,,,,,,,,,,,,,
null,,confidence_buffer,104292,confidence_buffer,,null,,,,,,,,,,,,,,,,,,
null,,thebreak,104795,break,,null,,,,,,,,,,,,,,,,,,
2207.2000002861023,,familiar_rating,107005,Peoria,,49,Peoria,US,1,,,,,,,,,,,,,,,
null,,confidence_buffer,107111,confidence_buffer,,null,,,,,,,,,,,,,,,,,,
2629.9000000953674,,probe_rating,109742,probe_rating,,52,,,,4,1,,,,,,,,,,,,,
null,,confidence_buffer,109849,confidence_buffer,,null,,,,,,,,,,,,,,,,,,
4643.39999961853,,unique_rating,114493,Peoria,,53,,,5,,,,,,,,,,,,,,,
null,,confidence_buffer,114608,confidence_buffer,,null,,,,,,,,,,,,,,,,,,
802.8000001907349,,memorable_rating,115413,Peoria,,53,,,5,,,,,,,,,,,,,,,
null,,confidence_buffer,115523,confidence_buffer,,null,,,,,,,,,,,,,,,,,,
null,,thebreak,116025,break,,null,,,,,,,,,,,,,,,,,,
2788,,familiar_rating,118814,Stonebrook,,50,Stonebrook,Fictional,2,,,,,,,,,,,,,,,
null,,confidence_buffer,118916,confidence_buffer,,null,,,,,,,,,,,,,,,,,,
1627.7000002861023,,unique_rating,120546,Stonebrook,,50,,,2,,,,,,,,,,,,,,,
null,,confidence_buffer,120652,confidence_buffer,,null,,,,,,,,,,,,,,,,,,
1336.8000001907349,,probe_rating,121989,probe_rating,,50,,,,2,1,,,,,,,,,,,,,
null,,confidence_buffer,122101,confidence_buffer,,null,,,,,,,,,,,,,,,,,,
2962.0999999046326,,memorable_rating,125065,Stonebrook,,50,,,2,,,,,,,,,,,,,,,
null,,confidence_buffer,125174,confidence_buffer,,null,,,,,,,,,,,,,,,,,,
null,,thebreak,125691,break,,null,,,,,,,,,,,,,,,,,,
2456,,familiar_rating,128149,Lakehaven,,50,Lakehaven,Fictional,2,,,,,,,,,,,,,,,
null,,confidence_buffer,128253,confidence_buffer,,null,,,,,,,,,,,,,,,,,,
2305.9000000953674,,unique_rating,130560,Lakehaven,,51,,,3,,,,,,,,,,,,,,,
null,,confidence_buffer,130669,confidence_buffer,,null,,,,,,,,,,,,,,,,,,
1841.0999999046326,,memorable_rating,132511,Lakehaven,,50,,,2,,,,,,,,,,,,,,,
null,,confidence_buffer,132612,confidence_buffer,,null,,,,,,,,,,,,,,,,,,
2194.2000002861023,,probe_rating,134807,probe_rating,,51,,,,3,1,,,,,,,,,,,,,
null,,confidence_buffer,134913,confidence_buffer,,null,,,,,,,,,,,,,,,,,,
null,,thebreak,135423,break,,null,,,,,,,,,,,,,,,,,,
3115,,familiar_rating,138540,Redgrove,,49,Redgrove,Fictional,1,,,,,,,,,,,,,,,
null,,confidence_buffer,138655,confidence_buffer,,null,,,,,,,,,,,,,,,,,,
3237.699999809265,,unique_rating,141895,Redgrove,,49,,,1,,,,,,,,,,,,,,,
null,,confidence_buffer,141997,confidence_buffer,,null,,,,,,,,,,,,,,,,,,
1093.8999996185303,,memorable_rating,143093,Redgrove,,49,,,1,,,,,,,,,,,,,,,
null,,confidence_buffer,143195,confidence_buffer,,null,,,,,,,,,,,,,,,,,,
null,,thebreak,143700,break,,null,,,,,,,,,,,,,,,,,,
4819,,familiar_rating,148520,Gloucester,,49,Gloucester,US,1,,,,,,,,,,,,,,,
null,,confidence_buffer,148622,confidence_buffer,,null,,,,,,,,,,,,,,,,,,
1663.7000002861023,,unique_rating,150288,Gloucester,,50,,,2,,,,,,,,,,,,,,,
null,,confidence_buffer,150398,confidence_buffer,,null,,,,,,,,,,,,,,,,,,
2596.300000190735,,memorable_rating,152995,Gloucester,,51,,,3,,,,,,,,,,,,,,,
null,,confidence_buffer,153101,confidence_buffer,,null,,,,,,,,,,,,,,,,,,
null,,thebreak,153617,break,,null,,,,,,,,,,,,,,,,,,
3014.199999809265,,familiar_rating,156633,Bayshore Haven,,49,Bayshore Haven,Fictional,1,,,,,,,,,,,,,,,
null,,confidence_buffer,156742,confidence_buffer,,null,,,,,,,,,,,,,,,,,,
2324.300000190735,,unique_rating,159067,Bayshore Haven,,52,,,4,,,,,,,,,,,,,,,
null,,confidence_buffer,159169,confidence_buffer,,null,,,,,,,,,,,,,,,,,,
1497,,memorable_rating,160668,Bayshore Haven,,52,,,4,,,,,,,,,,,,,,,
null,,confidence_buffer,160772,confidence_buffer,,null,,,,,,,,,,,,,,,,,,
null,,thebreak,161288,break,,null,,,,,,,,,,,,,,,,,,
3063,,familiar_rating,164353,New Hope,,50,New Hope,US,2,,,,,,,,,,,,,,,
null,,confidence_buffer,164457,confidence_buffer,,null,,,,,,,,,,,,,,,,,,
2570.199999809265,,unique_rating,167029,New Hope,,51,,,3,,,,,,,,,,,,,,,
null,,confidence_buffer,167131,confidence_buffer,,null,,,,,,,,,,,,,,,,,,
2214.0999999046326,,memorable_rating,169346,New Hope,,51,,,3,,,,,,,,,,,,,,,
null,,confidence_buffer,169459,confidence_buffer,,null,,,,,,,,,,,,,,,,,,
null,,thebreak,169974,break,,null,,,,,,,,,,,,,,,,,,
2838.5999999046326,,familiar_rating,172815,Medora,,49,Medora,US,1,,,,,,,,,,,,,,,
null,,confidence_buffer,172923,confidence_buffer,,null,,,,,,,,,,,,,,,,,,
2129.5,,unique_rating,175054,Medora,,51,,,3,,,,,,,,,,,,,,,
null,,confidence_buffer,175163,confidence_buffer,,null,,,,,,,,,,,,,,,,,,
4160.89999961853,,memorable_rating,179326,Medora,,51,,,3,,,,,,,,,,,,,,,
null,,confidence_buffer,179435,confidence_buffer,,null,,,,,,,,,,,,,,,,,,
1567,,probe_rating,181003,probe_rating,,51,,,,3,1,,,,,,,,,,,,,
null,,confidence_buffer,181107,confidence_buffer,,null,,,,,,,,,,,,,,,,,,
null,,thebreak,181610,break,,null,,,,,,,,,,,,,,,,,,
2475.0999999046326,,familiar_rating,184087,Rosehollow,,49,Rosehollow,Fictional,1,,,,,,,,,,,,,,,
null,,confidence_buffer,184195,confidence_buffer,,null,,,,,,,,,,,,,,,,,,
1728.4000000953674,,unique_rating,185924,Rosehollow,,52,,,4,,,,,,,,,,,,,,,
null,,confidence_buffer,186032,confidence_buffer,,null,,,,,,,,,,,,,,,,,,
738,,memorable_rating,186772,Rosehollow,,52,,,4,,,,,,,,,,,,,,,
null,,confidence_buffer,186874,confidence_buffer,,null,,,,,,,,,,,,,,,,,,
null,,thebreak,187380,break,,null,,,,,,,,,,,,,,,,,,
6706.200000286102,,familiar_rating,194088,Gatlinburg,,49,Gatlinburg,US,1,,,,,,,,,,,,,,,
null,,confidence_buffer,194190,confidence_buffer,,null,,,,,,,,,,,,,,,,,,
3224.199999809265,,unique_rating,197415,Gatlinburg,,52,,,4,,,,,,,,,,,,,,,
null,,confidence_buffer,197526,confidence_buffer,,null,,,,,,,,,,,,,,,,,,
2135.9000000953674,,memorable_rating,199663,Gatlinburg,,51,,,3,,,,,,,,,,,,,,,
null,,confidence_buffer,199770,confidence_buffer,,null,,,,,,,,,,,,,,,,,,
null,,thebreak,200278,break,,null,,,,,,,,,,,,,,,,,,
3019.800000190735,,familiar_rating,203300,Berkeley Springs,,49,Berkeley Springs,US,1,,,,,,,,,,,,,,,
null,,confidence_buffer,203402,confidence_buffer,,null,,,,,,,,,,,,,,,,,,
2391.800000190735,,unique_rating,205795,Berkeley Springs,,50,,,2,,,,,,,,,,,,,,,
null,,confidence_buffer,205896,confidence_buffer,,null,,,,,,,,,,,,,,,,,,
2389.5999999046326,,memorable_rating,208287,Berkeley Springs,,50,,,2,,,,,,,,,,,,,,,
null,,confidence_buffer,208390,confidence_buffer,,null,,,,,,,,,,,,,,,,,,
2000.1999998092651,,probe_rating,210391,probe_rating,,49,,,,1,1,,,,,,,,,,,,,
null,,confidence_buffer,210496,confidence_buffer,,null,,,,,,,,,,,,,,,,,,
null,,thebreak,211001,break,,null,,,,,,,,,,,,,,,,,,
4615.400000095367,,familiar_rating,215617,Granton Ridge,,49,Granton Ridge,Fictional,1,,,,,,,,,,,,,,,
null,,confidence_buffer,215724,confidence_buffer,,null,,,,,,,,,,,,,,,,,,
1093.5999999046326,,unique_rating,216819,Granton Ridge,,50,,,2,,,,,,,,,,,,,,,
null,,confidence_buffer,216924,confidence_buffer,,null,,,,,,,,,,,,,,,,,,
1263.1999998092651,,memorable_rating,218188,Granton Ridge,,50,,,2,,,,,,,,,,,,,,,
null,,confidence_buffer,218291,confidence_buffer,,null,,,,,,,,,,,,,,,,,,
1512.3000001907349,,probe_rating,219805,probe_rating,,51,,,,3,1,,,,,,,,,,,,,
null,,confidence_buffer,219911,confidence_buffer,,null,,,,,,,,,,,,,,,,,,
null,,thebreak,220415,break,,null,,,,,,,,,,,,,,,,,,
2134.2000002861023,,familiar_rating,222551,Alliance,,49,Alliance,US,1,,,,,,,,,,,,,,,
null,,confidence_buffer,222654,confidence_buffer,,null,,,,,,,,,,,,,,,,,,
3473.4000000953674,,unique_rating,226129,Alliance,,49,,,1,,,,,,,,,,,,,,,
null,,confidence_buffer,226231,confidence_buffer,,null,,,,,,,,,,,,,,,,,,
3024.699999809265,,memorable_rating,229257,Alliance,,52,,,4,,,,,,,,,,,,,,,
null,,confidence_buffer,229363,confidence_buffer,,null,,,,,,,,,,,,,,,,,,
null,,thebreak,229869,break,,null,,,,,,,,,,,,,,,,,,
2324.2999997138977,,familiar_rating,232196,Duck,,49,Duck,US,1,,,,,,,,,,,,,,,
null,,confidence_buffer,232299,confidence_buffer,,null,,,,,,,,,,,,,,,,,,
6277.299999713898,,unique_rating,238578,Duck,,53,,,5,,,,,,,,,,,,,,,
null,,confidence_buffer,238686,confidence_buffer,,null,,,,,,,,,,,,,,,,,,
904.5,,memorable_rating,239592,Duck,,53,,,5,,,,,,,,,,,,,,,
null,,confidence_buffer,239696,confidence_buffer,,null,,,,,,,,,,,,,,,,,,
null,,thebreak,240200,break,,null,,,,,,,,,,,,,,,,,,
8169.799999713898,,familiar_rating,248370,Pine Hollow,,49,Pine Hollow,Fictional,1,,,,,,,,,,,,,,,
null,,confidence_buffer,248480,confidence_buffer,,null,,,,,,,,,,,,,,,,,,
1718.2999997138977,,unique_rating,250200,Pine Hollow,,50,,,2,,,,,,,,,,,,,,,
null,,confidence_buffer,250315,confidence_buffer,,null,,,,,,,,,,,,,,,,,,
1871,,memorable_rating,252187,Pine Hollow,,51,,,3,,,,,,,,,,,,,,,
null,,confidence_buffer,252292,confidence_buffer,,null,,,,,,,,,,,,,,,,,,
null,,thebreak,252807,break,,null,,,,,,,,,,,,,,,,,,
2578.800000190735,,familiar_rating,255387,Hawthorne Bluffs,,49,Hawthorne Bluffs,Fictional,1,,,,,,,,,,,,,,,
null,,confidence_buffer,255500,confidence_buffer,,null,,,,,,,,,,,,,,,,,,
4286.099999904633,,unique_rating,259787,Hawthorne Bluffs,,51,,,3,,,,,,,,,,,,,,,
null,,confidence_buffer,259893,confidence_buffer,,null,,,,,,,,,,,,,,,,,,
3193.6000003814697,,memorable_rating,263089,Hawthorne Bluffs,,52,,,4,,,,,,,,,,,,,,,
null,,confidence_buffer,263196,confidence_buffer,,null,,,,,,,,,,,,,,,,,,
null,,thebreak,263712,break,,null,,,,,,,,,,,,,,,,,,
4097.800000190735,,familiar_rating,267811,Juniper Creek,,49,Juniper Creek,Fictional,1,,,,,,,,,,,,,,,
null,,confidence_buffer,267915,confidence_buffer,,null,,,,,,,,,,,,,,,,,,
1943,,unique_rating,269860,Juniper Creek,,50,,,2,,,,,,,,,,,,,,,
null,,confidence_buffer,269970,confidence_buffer,,null,,,,,,,,,,,,,,,,,,
1450.6999998092651,,memorable_rating,271422,Juniper Creek,,51,,,3,,,,,,,,,,,,,,,
null,,confidence_buffer,271540,confidence_buffer,,null,,,,,,,,,,,,,,,,,,
null,,thebreak,272043,break,,null,,,,,,,,,,,,,,,,,,
2374.800000190735,,familiar_rating,274420,Sitka,,49,Sitka,US,1,,,,,,,,,,,,,,,
null,,confidence_buffer,274530,confidence_buffer,,null,,,,,,,,,,,,,,,,,,
6995.300000190735,,unique_rating,281527,Sitka,,52,,,4,,,,,,,,,,,,,,,
null,,confidence_buffer,281633,confidence_buffer,,null,,,,,,,,,,,,,,,,,,
5622.300000190735,,memorable_rating,287257,Sitka,,51,,,3,,,,,,,,,,,,,,,
null,,confidence_buffer,287366,confidence_buffer,,null,,,,,,,,,,,,,,,,,,
null,,thebreak,287876,break,,null,,,,,,,,,,,,,,,,,,
1946,,familiar_rating,289824,Driftwood Bay,,49,Driftwood Bay,Fictional,1,,,,,,,,,,,,,,,
null,,confidence_buffer,289939,confidence_buffer,,null,,,,,,,,,,,,,,,,,,
2441.5,,probe_rating,292382,probe_rating,,50,,,,2,1,,,,,,,,,,,,,
null,,confidence_buffer,292488,confidence_buffer,,null,,,,,,,,,,,,,,,,,,
6713.10000038147,,unique_rating,299203,Driftwood Bay,,51,,,3,,,,,,,,,,,,,,,
null,,confidence_buffer,299319,confidence_buffer,,null,,,,,,,,,,,,,,,,,,
1550.3000001907349,,memorable_rating,300871,Driftwood Bay,,50,,,2,,,,,,,,,,,,,,,
null,,confidence_buffer,300972,confidence_buffer,,null,,,,,,,,,,,,,,,,,,
null,,thebreak,301487,break,,null,,,,,,,,,,,,,,,,,,
2884.9000000953674,,familiar_rating,304373,Highvale,,49,Highvale,Fictional,1,,,,,,,,,,,,,,,
null,,confidence_buffer,304481,confidence_buffer,,null,,,,,,,,,,,,,,,,,,
2168.7000002861023,,unique_rating,306651,Highvale,,52,,,4,,,,,,,,,,,,,,,
null,,confidence_buffer,306760,confidence_buffer,,null,,,,,,,,,,,,,,,,,,
2196.300000190735,,memorable_rating,308957,Highvale,,52,,,4,,,,,,,,,,,,,,,
null,,confidence_buffer,309060,confidence_buffer,,null,,,,,,,,,,,,,,,,,,
null,,thebreak,309565,break,,null,,,,,,,,,,,,,,,,,,
3449.199999809265,,familiar_rating,313016,Huntsville,,49,Huntsville,US,1,,,,,,,,,,,,,,,
null,,confidence_buffer,313118,confidence_buffer,,null,,,,,,,,,,,,,,,,,,
4249.299999713898,,unique_rating,317369,Huntsville,,50,,,2,,,,,,,,,,,,,,,
null,,confidence_buffer,317480,confidence_buffer,,null,,,,,,,,,,,,,,,,,,
3625.2999997138977,,memorable_rating,321106,Huntsville,,51,,,3,,,,,,,,,,,,,,,
null,,confidence_buffer,321214,confidence_buffer,,null,,,,,,,,,,,,,,,,,,
1704.5,,probe_rating,322920,probe_rating,,51,,,,3,1,,,,,,,,,,,,,
null,,confidence_buffer,323029,confidence_buffer,,null,,,,,,,,,,,,,,,,,,
null,,thebreak,323535,break,,null,,,,,,,,,,,,,,,,,,
1953.6999998092651,,familiar_rating,325490,Cornwall,,49,Cornwall,US,1,,,,,,,,,,,,,,,
null,,confidence_buffer,325598,confidence_buffer,,null,,,,,,,,,,,,,,,,,,
3522.2000002861023,,unique_rating,329122,Cornwall,,51,,,3,,,,,,,,,,,,,,,
null,,confidence_buffer,329231,confidence_buffer,,null,,,,,,,,,,,,,,,,,,
1204,,memorable_rating,330436,Cornwall,,50,,,2,,,,,,,,,,,,,,,
null,,confidence_buffer,330538,confidence_buffer,,null,,,,,,,,,,,,,,,,,,
null,,thebreak,331044,break,,null,,,,,,,,,,,,,,,,,,
2308.699999809265,,familiar_rating,333354,Park City,,49,Park City,US,1,,,,,,,,,,,,,,,
null,,confidence_buffer,333456,confidence_buffer,,null,,,,,,,,,,,,,,,,,,
1711.0999999046326,,unique_rating,335169,Park City,,49,,,1,,,,,,,,,,,,,,,
null,,confidence_buffer,335279,confidence_buffer,,null,,,,,,,,,,,,,,,,,,
2031.4000000953674,,memorable_rating,337312,Park City,,50,,,2,,,,,,,,,,,,,,,
null,,confidence_buffer,337413,confidence_buffer,,null,,,,,,,,,,,,,,,,,,
null,,thebreak,337919,break,,null,,,,,,,,,,,,,,,,,,
6467.400000095367,,familiar_rating,344388,Athens,,52,Athens,US,4,,,,,,,,,,,,,,,
null,,confidence_buffer,344498,confidence_buffer,,null,,,,,,,,,,,,,,,,,,
3342.300000190735,,unique_rating,347841,Athens,,53,,,5,,,,,,,,,,,,,,,
null,,confidence_buffer,347950,confidence_buffer,,null,,,,,,,,,,,,,,,,,,
953.1999998092651,,memorable_rating,348904,Athens,,53,,,5,,,,,,,,,,,,,,,
null,,confidence_buffer,349013,confidence_buffer,,null,,,,,,,,,,,,,,,,,,
null,,thebreak,349523,break,,null,,,,,,,,,,,,,,,,,,
2239.5999999046326,,familiar_rating,351764,West Palm Beach,,50,West Palm Beach,US,2,,,,,,,,,,,,,,,
null,,confidence_buffer,351873,confidence_buffer,,null,,,,,,,,,,,,,,,,,,
2636.4000000953674,,unique_rating,354511,West Palm Beach,,51,,,3,,,,,,,,,,,,,,,
null,,confidence_buffer,354613,confidence_buffer,,null,,,,,,,,,,,,,,,,,,
1678.9000000953674,,memorable_rating,356293,West Palm Beach,,50,,,2,,,,,,,,,,,,,,,
null,,confidence_buffer,356395,confidence_buffer,,null,,,,,,,,,,,,,,,,,,
null,,thebreak,356899,break,,null,,,,,,,,,,,,,,,,,,
4223.5,,intro_0,361123,instruct,,32,,,,,,,,,,,,,,,,,,
6708,,intro_1,367832,instruct,,32,,,,,,,,,,,,,,,,,,
11608.699999809265,,intro_2,379442,instruct,,32,,,,,,,,,,,,,,,,,,
null,,instruct_dir_4,380951,instruct,,null,,,,,,,,,,,,,,,,,,
6937.299999713898,,realistic_rating,387889,Sammamish,,53,Sammamish,US,5,,,,,,,,,,,,,,,
null,,confidence_buffer,387996,confidence_buffer,,null,,,,,,,,,,,,,,,,,,
1996.7000002861023,,pt2_unique_rating,389993,Sammamish,,53,,,5,,,,,,,,,,,,,,,
null,,confidence_buffer,390097,confidence_buffer,,null,,,,,,,,,,,,,,,,,,
1867.1000003814697,,pt2_memorable_rating,391966,Sammamish,,53,,,5,,,,,,,,,,,,,,,
null,,confidence_buffer,392073,confidence_buffer,,null,,,,,,,,,,,,,,,,,,
2671.5999999046326,,recognition_phase,394746,Sammamish,,49,,,,,,old,0,0,,,,,,,,,,
null,,confidence_buffer,394855,confidence_buffer,,null,,,,,,,,,,,,,,,,,,
null,,thebreak,395364,break,,null,,,,,,,,,,,,,,,,,,
3417.4000000953674,,realistic_rating,398782,Lakehaven,,53,Lakehaven,Fictional,5,,,,,,,,,,,,,,,
null,,confidence_buffer,398885,confidence_buffer,,null,,,,,,,,,,,,,,,,,,
2978.5999999046326,,pt2_unique_rating,401865,Lakehaven,,51,,,3,,,,,,,,,,,,,,,
null,,confidence_buffer,401974,confidence_buffer,,null,,,,,,,,,,,,,,,,,,
3138.4000000953674,,probe_rating,405115,probe_rating,,52,,,,4,1,,,,,,,,,,,,,
null,,confidence_buffer,405222,confidence_buffer,,null,,,,,,,,,,,,,,,,,,
2814.1000003814697,,pt2_memorable_rating,408037,Lakehaven,,51,,,3,,,,,,,,,,,,,,,
null,,confidence_buffer,408147,confidence_buffer,,null,,,,,,,,,,,,,,,,,,
4116.300000190735,,recognition_phase,412264,Lakehaven,,49,,,,,,old,1,0.5,,,,,,,,,,
null,,confidence_buffer,412380,confidence_buffer,,null,,,,,,,,,,,,,,,,,,
null,,thebreak,412888,break,,null,,,,,,,,,,,,,,,,,,
2763.0999999046326,,realistic_rating,415652,Yukon,,53,Yukon,US,5,,,,,,,,,,,,,,,
null,,confidence_buffer,415761,confidence_buffer,,null,,,,,,,,,,,,,,,,,,
2386,,pt2_unique_rating,418147,Yukon,,53,,,5,,,,,,,,,,,,,,,
null,,confidence_buffer,418251,confidence_buffer,,null,,,,,,,,,,,,,,,,,,
884.5999999046326,,pt2_memorable_rating,419136,Yukon,,53,,,5,,,,,,,,,,,,,,,
null,,confidence_buffer,419250,confidence_buffer,,null,,,,,,,,,,,,,,,,,,
4412.599999904633,,recognition_phase,423664,Yukon,,52,,,,,,new,1,0.6666666666666666,,,,,,,,,,
null,,confidence_buffer,423771,confidence_buffer,,null,,,,,,,,,,,,,,,,,,
null,,thebreak,424273,break,,null,,,,,,,,,,,,,,,,,,
3225.199999809265,,realistic_rating,427500,San Antonio,,53,San Antonio,US,5,,,,,,,,,,,,,,,
null,,confidence_buffer,427603,confidence_buffer,,null,,,,,,,,,,,,,,,,,,
1940.6000003814697,,pt2_unique_rating,429547,San Antonio,,53,,,5,,,,,,,,,,,,,,,
null,,confidence_buffer,429655,confidence_buffer,,null,,,,,,,,,,,,,,,,,,
1817.1999998092651,,pt2_memorable_rating,431473,San Antonio,,53,,,5,,,,,,,,,,,,,,,
null,,confidence_buffer,431575,confidence_buffer,,null,,,,,,,,,,,,,,,,,,
3241.0999999046326,,recognition_phase,434817,San Antonio,,52,,,,,,new,1,0.75,,,,,,,,,,
null,,confidence_buffer,434927,confidence_buffer,,null,,,,,,,,,,,,,,,,,,
null,,thebreak,435433,break,,null,,,,,,,,,,,,,,,,,,
2813.199999809265,,realistic_rating,438248,Orr,,49,Orr,US,1,,,,,,,,,,,,,,,
null,,confidence_buffer,438357,confidence_buffer,,null,,,,,,,,,,,,,,,,,,
5464.800000190735,,pt2_unique_rating,443824,Orr,,52,,,4,,,,,,,,,,,,,,,
null,,confidence_buffer,443936,confidence_buffer,,null,,,,,,,,,,,,,,,,,,
1874.7999997138977,,probe_rating,445812,probe_rating,,49,,,,1,1,,,,,,,,,,,,,
null,,confidence_buffer,445927,confidence_buffer,,null,,,,,,,,,,,,,,,,,,
5520.5,,pt2_memorable_rating,451449,Orr,,50,,,2,,,,,,,,,,,,,,,
null,,confidence_buffer,451554,confidence_buffer,,null,,,,,,,,,,,,,,,,,,
2617.2999997138977,,recognition_phase,454173,Orr,,52,,,,,,new,1,0.8,,,,,,,,,,
null,,confidence_buffer,454281,confidence_buffer,,null,,,,,,,,,,,,,,,,,,
null,,thebreak,454783,break,,null,,,,,,,,,,,,,,,,,,
3250.5,,realistic_rating,458035,Sitka,,52,Sitka,US,4,,,,,,,,,,,,,,,
null,,confidence_buffer,458143,confidence_buffer,,null,,,,,,,,,,,,,,,,,,
2379.9000000953674,,pt2_unique_rating,460524,Sitka,,53,,,5,,,,,,,,,,,,,,,
null,,confidence_buffer,460633,confidence_buffer,,null,,,,,,,,,,,,,,,,,,
1712.8000001907349,,probe_rating,462347,probe_rating,,53,,,,5,1,,,,,,,,,,,,,
null,,confidence_buffer,462457,confidence_buffer,,null,,,,,,,,,,,,,,,,,,
1593.4000000953674,,pt2_memorable_rating,464052,Sitka,,53,,,5,,,,,,,,,,,,,,,
null,,confidence_buffer,464160,confidence_buffer,,null,,,,,,,,,,,,,,,,,,
2254.9000000953674,,recognition_phase,466417,Sitka,,49,,,,,,old,1,0.8333333333333334,,,,,,,,,,
null,,confidence_buffer,466520,confidence_buffer,,null,,,,,,,,,,,,,,,,,,
null,,thebreak,467022,break,,null,,,,,,,,,,,,,,,,,,
4441.5,,realistic_rating,471466,Gardnerville,,51,Gardnerville,US,3,,,,,,,,,,,,,,,
null,,confidence_buffer,471570,confidence_buffer,,null,,,,,,,,,,,,,,,,,,
3333.9000000953674,,pt2_unique_rating,474906,Gardnerville,,51,,,3,,,,,,,,,,,,,,,
null,,confidence_buffer,475013,confidence_buffer,,null,,,,,,,,,,,,,,,,,,
1988.9000000953674,,pt2_memorable_rating,477003,Gardnerville,,52,,,4,,,,,,,,,,,,,,,
null,,confidence_buffer,477111,confidence_buffer,,null,,,,,,,,,,,,,,,,,,
3389.5,,recognition_phase,480502,Gardnerville,,52,,,,,,new,1,0.8571428571428571,,,,,,,,,,
null,,confidence_buffer,480614,confidence_buffer,,null,,,,,,,,,,,,,,,,,,
null,,thebreak,481117,break,,null,,,,,,,,,,,,,,,,,,
4748.199999809265,,realistic_rating,485868,Orchard Bend,,52,Orchard Bend,Fictional,4,,,,,,,,,,,,,,,
null,,confidence_buffer,485978,confidence_buffer,,null,,,,,,,,,,,,,,,,,,
2956.2999997138977,,pt2_unique_rating,488935,Orchard Bend,,52,,,4,,,,,,,,,,,,,,,
null,,confidence_buffer,489037,confidence_buffer,,null,,,,,,,,,,,,,,,,,,
1913.8000001907349,,pt2_memorable_rating,490953,Orchard Bend,,51,,,3,,,,,,,,,,,,,,,
null,,confidence_buffer,491061,confidence_buffer,,null,,,,,,,,,,,,,,,,,,
3603.9000000953674,,recognition_phase,494667,Orchard Bend,,52,,,,,,new,1,0.875,,,,,,,,,,
null,,confidence_buffer,494783,confidence_buffer,,null,,,,,,,,,,,,,,,,,,
null,,thebreak,495297,break,,null,,,,,,,,,,,,,,,,,,
4444.300000190735,,realistic_rating,499742,Park City,,52,Park City,US,4,,,,,,,,,,,,,,,
null,,confidence_buffer,499845,confidence_buffer,,null,,,,,,,,,,,,,,,,,,
2953.5,,pt2_unique_rating,502800,Park City,,50,,,2,,,,,,,,,,,,,,,
null,,confidence_buffer,502908,confidence_buffer,,null,,,,,,,,,,,,,,,,,,
2823,,pt2_memorable_rating,505732,Park City,,51,,,3,,,,,,,,,,,,,,,
null,,confidence_buffer,505835,confidence_buffer,,null,,,,,,,,,,,,,,,,,,
2512.4000000953674,,recognition_phase,508349,Park City,,49,,,,,,old,1,0.8888888888888888,,,,,,,,,,
null,,confidence_buffer,508453,confidence_buffer,,null,,,,,,,,,,,,,,,,,,
null,,thebreak,508967,break,,null,,,,,,,,,,,,,,,,,,
2984.5,,realistic_rating,511953,Peoria,,49,Peoria,US,1,,,,,,,,,,,,,,,
null,,confidence_buffer,512062,confidence_buffer,,null,,,,,,,,,,,,,,,,,,
5719.799999713898,,pt2_unique_rating,517783,Peoria,,53,,,5,,,,,,,,,,,,,,,
null,,confidence_buffer,517889,confidence_buffer,,null,,,,,,,,,,,,,,,,,,
1925.3000001907349,,pt2_memorable_rating,519816,Peoria,,53,,,5,,,,,,,,,,,,,,,
null,,confidence_buffer,519924,confidence_buffer,,null,,,,,,,,,,,,,,,,,,
2089.7000002861023,,recognition_phase,522015,Peoria,,49,,,,,,old,1,0.9,,,,,,,,,,
null,,confidence_buffer,522125,confidence_buffer,,null,,,,,,,,,,,,,,,,,,
null,,thebreak,522629,break,,null,,,,,,,,,,,,,,,,,,
7650.699999809265,,realistic_rating,530281,Briarfield,,51,Briarfield,Fictional,3,,,,,,,,,,,,,,,
null,,confidence_buffer,530390,confidence_buffer,,null,,,,,,,,,,,,,,,,,,
3063.300000190735,,pt2_unique_rating,533455,Briarfield,,50,,,2,,,,,,,,,,,,,,,
null,,confidence_buffer,533562,confidence_buffer,,null,,,,,,,,,,,,,,,,,,
1746.5,,pt2_memorable_rating,535309,Briarfield,,50,,,2,,,,,,,,,,,,,,,
null,,confidence_buffer,535426,confidence_buffer,,null,,,,,,,,,,,,,,,,,,
3092.5,,recognition_phase,538520,Briarfield,,51,,,,,,new,1,0.9090909090909091,,,,,,,,,,
null,,confidence_buffer,538623,confidence_buffer,,null,,,,,,,,,,,,,,,,,,
null,,thebreak,539131,break,,null,,,,,,,,,,,,,,,,,,
3756.5999999046326,,realistic_rating,542891,Shreveport,,49,Shreveport,US,1,,,,,,,,,,,,,,,
null,,confidence_buffer,543007,confidence_buffer,,null,,,,,,,,,,,,,,,,,,
2766.9000000953674,,pt2_unique_rating,545775,Shreveport,,53,,,5,,,,,,,,,,,,,,,
null,,confidence_buffer,545880,confidence_buffer,,null,,,,,,,,,,,,,,,,,,
2980.4000000953674,,pt2_memorable_rating,548862,Shreveport,,52,,,4,,,,,,,,,,,,,,,
null,,confidence_buffer,548971,confidence_buffer,,null,,,,,,,,,,,,,,,,,,
1418,,probe_rating,550390,probe_rating,,51,,,,3,1,,,,,,,,,,,,,
null,,confidence_buffer,550507,confidence_buffer,,null,,,,,,,,,,,,,,,,,,
2803.800000190735,,recognition_phase,553312,Shreveport,,52,,,,,,new,1,0.9166666666666666,,,,,,,,,,
null,,confidence_buffer,553416,confidence_buffer,,null,,,,,,,,,,,,,,,,,,
null,,thebreak,553926,break,,null,,,,,,,,,,,,,,,,,,
2732.6000003814697,,realistic_rating,556660,Pine Hollow,,53,Pine Hollow,Fictional,5,,,,,,,,,,,,,,,
null,,confidence_buffer,556763,confidence_buffer,,null,,,,,,,,,,,,,,,,,,
5059.5,,pt2_unique_rating,561824,Pine Hollow,,50,,,2,,,,,,,,,,,,,,,
null,,confidence_buffer,561937,confidence_buffer,,null,,,,,,,,,,,,,,,,,,
2301,,pt2_memorable_rating,564240,Pine Hollow,,51,,,3,,,,,,,,,,,,,,,
null,,confidence_buffer,564345,confidence_buffer,,null,,,,,,,,,,,,,,,,,,
2567,,recognition_phase,566914,Pine Hollow,,49,,,,,,old,1,0.9230769230769231,,,,,,,,,,
null,,confidence_buffer,567018,confidence_buffer,,null,,,,,,,,,,,,,,,,,,
null,,thebreak,567521,break,,null,,,,,,,,,,,,,,,,,,
5815.200000286102,,realistic_rating,573339,Solara Glen,,50,Solara Glen,Fictional,2,,,,,,,,,,,,,,,
null,,confidence_buffer,573448,confidence_buffer,,null,,,,,,,,,,,,,,,,,,
3063.2000002861023,,pt2_unique_rating,576512,Solara Glen,,52,,,4,,,,,,,,,,,,,,,
null,,confidence_buffer,576616,confidence_buffer,,null,,,,,,,,,,,,,,,,,,
1369.3000001907349,,pt2_memorable_rating,577986,Solara Glen,,52,,,4,,,,,,,,,,,,,,,
null,,confidence_buffer,578088,confidence_buffer,,null,,,,,,,,,,,,,,,,,,
2545.8999996185303,,recognition_phase,580635,Solara Glen,,50,,,,,,old,1,0.9285714285714286,,,,,,,,,,
null,,confidence_buffer,580737,confidence_buffer,,null,,,,,,,,,,,,,,,,,,
null,,thebreak,581240,break,,null,,,,,,,,,,,,,,,,,,
4086.5999999046326,,realistic_rating,585327,Elmsbury,,52,Elmsbury,Fictional,4,,,,,,,,,,,,,,,
null,,confidence_buffer,585434,confidence_buffer,,null,,,,,,,,,,,,,,,,,,
5725.199999809265,,pt2_unique_rating,591161,Elmsbury,,51,,,3,,,,,,,,,,,,,,,
null,,confidence_buffer,591263,confidence_buffer,,null,,,,,,,,,,,,,,,,,,
1773.5,,pt2_memorable_rating,593038,Elmsbury,,52,,,4,,,,,,,,,,,,,,,
null,,confidence_buffer,593147,confidence_buffer,,null,,,,,,,,,,,,,,,,,,
1416.5,,probe_rating,594565,probe_rating,,51,,,,3,1,,,,,,,,,,,,,
null,,confidence_buffer,594668,confidence_buffer,,null,,,,,,,,,,,,,,,,,,
7172.5,,recognition_phase,601842,Elmsbury,,51,,,,,,new,1,0.9333333333333333,,,,,,,,,,
null,,confidence_buffer,601947,confidence_buffer,,null,,,,,,,,,,,,,,,,,,
null,,thebreak,602457,break,,null,,,,,,,,,,,,,,,,,,
4629.5,,realistic_rating,607088,Watkins Glen,,51,Watkins Glen,US,3,,,,,,,,,,,,,,,
null,,confidence_buffer,607203,confidence_buffer,,null,,,,,,,,,,,,,,,,,,
3770.5999999046326,,pt2_unique_rating,610975,Watkins Glen,,51,,,3,,,,,,,,,,,,,,,
null,,confidence_buffer,611082,confidence_buffer,,null,,,,,,,,,,,,,,,,,,
5293.099999904633,,pt2_memorable_rating,616376,Watkins Glen,,51,,,3,,,,,,,,,,,,,,,
null,,confidence_buffer,616483,confidence_buffer,,null,,,,,,,,,,,,,,,,,,
3615.7000002861023,,recognition_phase,620100,Watkins Glen,,51,,,,,,new,1,0.9375,,,,,,,,,,
null,,confidence_buffer,620205,confidence_buffer,,null,,,,,,,,,,,,,,,,,,
null,,thebreak,620712,break,,null,,,,,,,,,,,,,,,,,,
6552.200000286102,,realistic_rating,627265,Abilene,,52,Abilene,US,4,,,,,,,,,,,,,,,
null,,confidence_buffer,627371,confidence_buffer,,null,,,,,,,,,,,,,,,,,,
1618.7999997138977,,probe_rating,628992,probe_rating,,52,,,,4,1,,,,,,,,,,,,,
null,,confidence_buffer,629099,confidence_buffer,,null,,,,,,,,,,,,,,,,,,
2354.0999999046326,,pt2_unique_rating,631455,Abilene,,51,,,3,,,,,,,,,,,,,,,
null,,confidence_buffer,631563,confidence_buffer,,null,,,,,,,,,,,,,,,,,,
2019.7999997138977,,pt2_memorable_rating,633585,Abilene,,50,,,2,,,,,,,,,,,,,,,
null,,confidence_buffer,633694,confidence_buffer,,null,,,,,,,,,,,,,,,,,,
3458.699999809265,,recognition_phase,637154,Abilene,,51,,,,,,new,1,0.9411764705882353,,,,,,,,,,
null,,confidence_buffer,637264,confidence_buffer,,null,,,,,,,,,,,,,,,,,,
null,,thebreak,637778,break,,null,,,,,,,,,,,,,,,,,,
3396.199999809265,,realistic_rating,641176,Huntsville,,50,Huntsville,US,2,,,,,,,,,,,,,,,
null,,confidence_buffer,641287,confidence_buffer,,null,,,,,,,,,,,,,,,,,,
4399.199999809265,,pt2_unique_rating,645688,Huntsville,,51,,,3,,,,,,,,,,,,,,,
null,,confidence_buffer,645791,confidence_buffer,,null,,,,,,,,,,,,,,,,,,
2043.6999998092651,,probe_rating,647837,probe_rating,,52,,,,4,1,,,,,,,,,,,,,
null,,confidence_buffer,647944,confidence_buffer,,null,,,,,,,,,,,,,,,,,,
2482.0999999046326,,pt2_memorable_rating,650427,Huntsville,,52,,,4,,,,,,,,,,,,,,,
null,,confidence_buffer,650532,confidence_buffer,,null,,,,,,,,,,,,,,,,,,
2329.300000190735,,recognition_phase,652863,Huntsville,,49,,,,,,old,1,0.9444444444444444,,,,,,,,,,
null,,confidence_buffer,652967,confidence_buffer,,null,,,,,,,,,,,,,,,,,,
null,,thebreak,653470,break,,null,,,,,,,,,,,,,,,,,,
2193.699999809265,,realistic_rating,655666,East Ladera,,49,East Ladera,Fictional,1,,,,,,,,,,,,,,,
null,,confidence_buffer,655776,confidence_buffer,,null,,,,,,,,,,,,,,,,,,
2423.7000002861023,,pt2_unique_rating,658201,East Ladera,,53,,,5,,,,,,,,,,,,,,,
null,,confidence_buffer,658317,confidence_buffer,,null,,,,,,,,,,,,,,,,,,
1991.9000000953674,,pt2_memorable_rating,660310,East Ladera,,53,,,5,,,,,,,,,,,,,,,
null,,confidence_buffer,660420,confidence_buffer,,null,,,,,,,,,,,,,,,,,,
3245.5999999046326,,recognition_phase,663667,East Ladera,,50,,,,,,old,1,0.9473684210526315,,,,,,,,,,
null,,confidence_buffer,663768,confidence_buffer,,null,,,,,,,,,,,,,,,,,,
null,,thebreak,664279,break,,null,,,,,,,,,,,,,,,,,,
3828.6000003814697,,realistic_rating,668110,Tamarisk Hills,,50,Tamarisk Hills,Fictional,2,,,,,,,,,,,,,,,
null,,confidence_buffer,668219,confidence_buffer,,null,,,,,,,,,,,,,,,,,,
5611.10000038147,,pt2_unique_rating,673832,Tamarisk Hills,,53,,,5,,,,,,,,,,,,,,,
null,,confidence_buffer,673942,confidence_buffer,,null,,,,,,,,,,,,,,,,,,
1143.6999998092651,,pt2_memorable_rating,675086,Tamarisk Hills,,52,,,4,,,,,,,,,,,,,,,
null,,confidence_buffer,675192,confidence_buffer,,null,,,,,,,,,,,,,,,,,,
6178.89999961853,,recognition_phase,681372,Tamarisk Hills,,52,,,,,,new,1,0.95,,,,,,,,,,
null,,confidence_buffer,681482,confidence_buffer,,null,,,,,,,,,,,,,,,,,,
null,,thebreak,681983,break,,null,,,,,,,,,,,,,,,,,,
4340.699999809265,,realistic_rating,686327,Lake of the Ozarks,,50,Lake of the Ozarks,US,2,,,,,,,,,,,,,,,
null,,confidence_buffer,686432,confidence_buffer,,null,,,,,,,,,,,,,,,,,,
2363.5999999046326,,pt2_unique_rating,688796,Lake of the Ozarks,,52,,,4,,,,,,,,,,,,,,,
null,,confidence_buffer,688908,confidence_buffer,,null,,,,,,,,,,,,,,,,,,
2465.2999997138977,,pt2_memorable_rating,691374,Lake of the Ozarks,,53,,,5,,,,,,,,,,,,,,,
null,,confidence_buffer,691486,confidence_buffer,,null,,,,,,,,,,,,,,,,,,
5235,,recognition_phase,696722,Lake of the Ozarks,,52,,,,,,new,1,0.9523809523809523,,,,,,,,,,
null,,confidence_buffer,696832,confidence_buffer,,null,,,,,,,,,,,,,,,,,,
null,,thebreak,697341,break,,null,,,,,,,,,,,,,,,,,,
4112.800000190735,,realistic_rating,701457,West Talora,,50,West Talora,Fictional,2,,,,,,,,,,,,,,,
null,,confidence_buffer,701570,confidence_buffer,,null,,,,,,,,,,,,,,,,,,
3157.699999809265,,probe_rating,704729,probe_rating,,49,,,,1,1,,,,,,,,,,,,,
null,,confidence_buffer,704839,confidence_buffer,,null,,,,,,,,,,,,,,,,,,
7038.199999809265,,pt2_unique_rating,711879,West Talora,,52,,,4,,,,,,,,,,,,,,,
null,,confidence_buffer,711985,confidence_buffer,,null,,,,,,,,,,,,,,,,,,
2007.9000000953674,,pt2_memorable_rating,713994,West Talora,,51,,,3,,,,,,,,,,,,,,,
null,,confidence_buffer,714102,confidence_buffer,,null,,,,,,,,,,,,,,,,,,
4102.099999904633,,recognition_phase,718206,West Talora,,51,,,,,,new,1,0.9545454545454546,,,,,,,,,,
null,,confidence_buffer,718312,confidence_buffer,,null,,,,,,,,,,,,,,,,,,
null,,thebreak,718815,break,,null,,,,,,,,,,,,,,,,,,
5066.5,,realistic_rating,723884,Juniper Creek,,51,Juniper Creek,Fictional,3,,,,,,,,,,,,,,,
null,,confidence_buffer,723990,confidence_buffer,,null,,,,,,,,,,,,,,,,,,
2727,,pt2_unique_rating,726719,Juniper Creek,,50,,,2,,,,,,,,,,,,,,,
null,,confidence_buffer,726824,confidence_buffer,,null,,,,,,,,,,,,,,,,,,
1171.0999999046326,,pt2_memorable_rating,727996,Juniper Creek,,51,,,3,,,,,,,,,,,,,,,
null,,confidence_buffer,728101,confidence_buffer,,null,,,,,,,,,,,,,,,,,,
2199.0999999046326,,recognition_phase,730302,Juniper Creek,,49,,,,,,old,1,0.9565217391304348,,,,,,,,,,
null,,confidence_buffer,730407,confidence_buffer,,null,,,,,,,,,,,,,,,,,,
null,,thebreak,730918,break,,null,,,,,,,,,,,,,,,,,,
4152.5,,realistic_rating,735071,Linden Trace,,50,Linden Trace,Fictional,2,,,,,,,,,,,,,,,
null,,confidence_buffer,735176,confidence_buffer,,null,,,,,,,,,,,,,,,,,,
2624.6000003814697,,pt2_unique_rating,737801,Linden Trace,,52,,,4,,,,,,,,,,,,,,,
null,,confidence_buffer,737903,confidence_buffer,,null,,,,,,,,,,,,,,,,,,
1284.3000001907349,,pt2_memorable_rating,739189,Linden Trace,,52,,,4,,,,,,,,,,,,,,,
null,,confidence_buffer,739293,confidence_buffer,,null,,,,,,,,,,,,,,,,,,
3932,,recognition_phase,743226,Linden Trace,,51,,,,,,new,1,0.9583333333333334,,,,,,,,,,
null,,confidence_buffer,743339,confidence_buffer,,null,,,,,,,,,,,,,,,,,,
null,,thebreak,743850,break,,null,,,,,,,,,,,,,,,,,,
3906.2999997138977,,realistic_rating,747758,Driftwood Bay,,52,Driftwood Bay,Fictional,4,,,,,,,,,,,,,,,
null,,confidence_buffer,747863,confidence_buffer,,null,,,,,,,,,,,,,,,,,,
2660,,pt2_unique_rating,750525,Driftwood Bay,,51,,,3,,,,,,,,,,,,,,,
null,,confidence_buffer,750632,confidence_buffer,,null,,,,,,,,,,,,,,,,,,
897.9000000953674,,pt2_memorable_rating,751531,Driftwood Bay,,51,,,3,,,,,,,,,,,,,,,
null,,confidence_buffer,751640,confidence_buffer,,null,,,,,,,,,,,,,,,,,,
2101.5,,recognition_phase,753744,Driftwood Bay,,49,,,,,,old,1,0.96,,,,,,,,,,
null,,confidence_buffer,753853,confidence_buffer,,null,,,,,,,,,,,,,,,,,,
null,,thebreak,754360,break,,null,,,,,,,,,,,,,,,,,,
4939.700000286102,,realistic_rating,759302,Folly Beach,,51,Folly Beach,US,3,,,,,,,,,,,,,,,
null,,confidence_buffer,759411,confidence_buffer,,null,,,,,,,,,,,,,,,,,,
2478.5999999046326,,pt2_unique_rating,761892,Folly Beach,,51,,,3,,,,,,,,,,,,,,,
null,,confidence_buffer,762000,confidence_buffer,,null,,,,,,,,,,,,,,,,,,
1148.5,,pt2_memorable_rating,763150,Folly Beach,,52,,,4,,,,,,,,,,,,,,,
null,,confidence_buffer,763259,confidence_buffer,,null,,,,,,,,,,,,,,,,,,
1415.6999998092651,,recognition_phase,764676,Folly Beach,,49,,,,,,old,1,0.9615384615384616,,,,,,,,,,
null,,confidence_buffer,764779,confidence_buffer,,null,,,,,,,,,,,,,,,,,,
null,,thebreak,765295,break,,null,,,,,,,,,,,,,,,,,,
3356.6000003814697,,realistic_rating,768654,Falconridge,,51,Falconridge,Fictional,3,,,,,,,,,,,,,,,
null,,confidence_buffer,768764,confidence_buffer,,null,,,,,,,,,,,,,,,,,,
2237.4000000953674,,pt2_unique_rating,771002,Falconridge,,52,,,4,,,,,,,,,,,,,,,
null,,confidence_buffer,771114,confidence_buffer,,null,,,,,,,,,,,,,,,,,,
1288.5999999046326,,pt2_memorable_rating,772404,Falconridge,,53,,,5,,,,,,,,,,,,,,,
null,,confidence_buffer,772511,confidence_buffer,,null,,,,,,,,,,,,,,,,,,
3248.0999999046326,,recognition_phase,775761,Falconridge,,52,,,,,,new,1,0.9629629629629629,,,,,,,,,,
null,,confidence_buffer,775869,confidence_buffer,,null,,,,,,,,,,,,,,,,,,
null,,thebreak,776370,break,,null,,,,,,,,,,,,,,,,,,
8313.099999904633,,realistic_rating,784685,Medora,,49,Medora,US,1,,,,,,,,,,,,,,,
null,,confidence_buffer,784794,confidence_buffer,,null,,,,,,,,,,,,,,,,,,
2560.9000000953674,,pt2_unique_rating,787355,Medora,,53,,,5,,,,,,,,,,,,,,,
null,,confidence_buffer,787465,confidence_buffer,,null,,,,,,,,,,,,,,,,,,
1120.5999999046326,,pt2_memorable_rating,788586,Medora,,53,,,5,,,,,,,,,,,,,,,
null,,confidence_buffer,788695,confidence_buffer,,null,,,,,,,,,,,,,,,,,,
3255.800000190735,,recognition_phase,791953,Medora,,50,,,,,,old,1,0.9642857142857143,,,,,,,,,,
null,,confidence_buffer,792055,confidence_buffer,,null,,,,,,,,,,,,,,,,,,
null,,thebreak,792559,break,,null,,,,,,,,,,,,,,,,,,
3941.5999999046326,,realistic_rating,796503,Leesburg,,50,Leesburg,US,2,,,,,,,,,,,,,,,
null,,confidence_buffer,796616,confidence_buffer,,null,,,,,,,,,,,,,,,,,,
5439.099999904633,,pt2_unique_rating,802057,Leesburg,,51,,,3,,,,,,,,,,,,,,,
null,,confidence_buffer,802163,confidence_buffer,,null,,,,,,,,,,,,,,,,,,
3088.6000003814697,,pt2_memorable_rating,805253,Leesburg,,51,,,3,,,,,,,,,,,,,,,
null,,confidence_buffer,805363,confidence_buffer,,null,,,,,,,,,,,,,,,,,,
4695.800000190735,,recognition_phase,810061,Leesburg,,52,,,,,,new,1,0.9655172413793104,,,,,,,,,,
null,,confidence_buffer,810163,confidence_buffer,,null,,,,,,,,,,,,,,,,,,
null,,thebreak,810670,break,,null,,,,,,,,,,,,,,,,,,
3671.800000190735,,realistic_rating,814344,Cornwall,,50,Cornwall,US,2,,,,,,,,,,,,,,,
null,,confidence_buffer,814446,confidence_buffer,,null,,,,,,,,,,,,,,,,,,
2375.300000190735,,pt2_unique_rating,816822,Cornwall,,51,,,3,,,,,,,,,,,,,,,
null,,confidence_buffer,816941,confidence_buffer,,null,,,,,,,,,,,,,,,,,,
2082.6000003814697,,pt2_memorable_rating,819025,Cornwall,,52,,,4,,,,,,,,,,,,,,,
null,,confidence_buffer,819126,confidence_buffer,,null,,,,,,,,,,,,,,,,,,
2726.199999809265,,recognition_phase,821854,Cornwall,,49,,,,,,old,1,0.9666666666666667,,,,,,,,,,
null,,confidence_buffer,821967,confidence_buffer,,null,,,,,,,,,,,,,,,,,,
null,,thebreak,822481,break,,null,,,,,,,,,,,,,,,,,,
4796.400000095367,,realistic_rating,827279,Rosehollow,,51,Rosehollow,Fictional,3,,,,,,,,,,,,,,,
null,,confidence_buffer,827388,confidence_buffer,,null,,,,,,,,,,,,,,,,,,
2459.4000000953674,,pt2_unique_rating,829849,Rosehollow,,51,,,3,,,,,,,,,,,,,,,
null,,confidence_buffer,829959,confidence_buffer,,null,,,,,,,,,,,,,,,,,,
1217.6999998092651,,pt2_memorable_rating,831178,Rosehollow,,51,,,3,,,,,,,,,,,,,,,
null,,confidence_buffer,831288,confidence_buffer,,null,,,,,,,,,,,,,,,,,,
2900.5,,recognition_phase,834191,Rosehollow,,50,,,,,,old,1,0.967741935483871,,,,,,,,,,
null,,confidence_buffer,834294,confidence_buffer,,null,,,,,,,,,,,,,,,,,,
null,,thebreak,834799,break,,null,,,,,,,,,,,,,,,,,,
10584.200000286102,,realistic_rating,845384,Stonebrook,,51,Stonebrook,Fictional,3,,,,,,,,,,,,,,,
null,,confidence_buffer,845492,confidence_buffer,,null,,,,,,,,,,,,,,,,,,
2317.8999996185303,,pt2_unique_rating,847811,Stonebrook,,50,,,2,,,,,,,,,,,,,,,
null,,confidence_buffer,847922,confidence_buffer,,null,,,,,,,,,,,,,,,,,,
1717.4000000953674,,pt2_memorable_rating,849641,Stonebrook,,50,,,2,,,,,,,,,,,,,,,
null,,confidence_buffer,849753,confidence_buffer,,null,,,,,,,,,,,,,,,,,,
2536.5,,recognition_phase,852291,Stonebrook,,49,,,,,,old,1,0.96875,,,,,,,,,,
null,,confidence_buffer,852397,confidence_buffer,,null,,,,,,,,,,,,,,,,,,
null,,thebreak,852903,break,,null,,,,,,,,,,,,,,,,,,
5567.800000190735,,realistic_rating,858472,Sunmere,,49,Sunmere,Fictional,1,,,,,,,,,,,,,,,
null,,confidence_buffer,858588,confidence_buffer,,null,,,,,,,,,,,,,,,,,,
2646.300000190735,,pt2_unique_rating,861236,Sunmere,,52,,,4,,,,,,,,,,,,,,,
null,,confidence_buffer,861339,confidence_buffer,,null,,,,,,,,,,,,,,,,,,
1600.2999997138977,,pt2_memorable_rating,862941,Sunmere,,51,,,3,,,,,,,,,,,,,,,
null,,confidence_buffer,863043,confidence_buffer,,null,,,,,,,,,,,,,,,,,,
1916.3000001907349,,recognition_phase,864962,Sunmere,,49,,,,,,old,1,0.9696969696969697,,,,,,,,,,
null,,confidence_buffer,865070,confidence_buffer,,null,,,,,,,,,,,,,,,,,,
null,,thebreak,865572,break,,null,,,,,,,,,,,,,,,,,,
1880.1999998092651,,realistic_rating,867454,Carmel,,49,Carmel,US,1,,,,,,,,,,,,,,,
null,,confidence_buffer,867559,confidence_buffer,,null,,,,,,,,,,,,,,,,,,
4639,,pt2_unique_rating,872200,Carmel,,50,,,2,,,,,,,,,,,,,,,
null,,confidence_buffer,872302,confidence_buffer,,null,,,,,,,,,,,,,,,,,,
1856.5999999046326,,pt2_memorable_rating,874160,Carmel,,51,,,3,,,,,,,,,,,,,,,
null,,confidence_buffer,874264,confidence_buffer,,null,,,,,,,,,,,,,,,,,,
7186.700000286102,,recognition_phase,881453,Carmel,,52,,,,,,new,1,0.9705882352941176,,,,,,,,,,
null,,confidence_buffer,881558,confidence_buffer,,null,,,,,,,,,,,,,,,,,,
null,,thebreak,882060,break,,null,,,,,,,,,,,,,,,,,,
3037.5999999046326,,realistic_rating,885100,Riverlyn,,50,Riverlyn,Fictional,2,,,,,,,,,,,,,,,
null,,confidence_buffer,885204,confidence_buffer,,null,,,,,,,,,,,,,,,,,,
3646.699999809265,,pt2_unique_rating,888851,Riverlyn,,52,,,4,,,,,,,,,,,,,,,
null,,confidence_buffer,888953,confidence_buffer,,null,,,,,,,,,,,,,,,,,,
1767.9000000953674,,probe_rating,890723,probe_rating,,53,,,,5,1,,,,,,,,,,,,,
null,,confidence_buffer,890828,confidence_buffer,,null,,,,,,,,,,,,,,,,,,
4145.200000286102,,pt2_memorable_rating,894975,Riverlyn,,52,,,4,,,,,,,,,,,,,,,
null,,confidence_buffer,895088,confidence_buffer,,null,,,,,,,,,,,,,,,,,,
3854.5999999046326,,recognition_phase,898944,Riverlyn,,51,,,,,,new,1,0.9714285714285714,,,,,,,,,,
null,,confidence_buffer,899050,confidence_buffer,,null,,,,,,,,,,,,,,,,,,
null,,thebreak,899556,break,,null,,,,,,,,,,,,,,,,,,
6991.400000095367,,realistic_rating,906548,Maravilla Springs,,51,Maravilla Springs,Fictional,3,,,,,,,,,,,,,,,
null,,confidence_buffer,906650,confidence_buffer,,null,,,,,,,,,,,,,,,,,,
3725.2000002861023,,pt2_unique_rating,910376,Maravilla Springs,,52,,,4,,,,,,,,,,,,,,,
null,,confidence_buffer,910487,confidence_buffer,,null,,,,,,,,,,,,,,,,,,
2288.7000002861023,,pt2_memorable_rating,912778,Maravilla Springs,,51,,,3,,,,,,,,,,,,,,,
null,,confidence_buffer,912884,confidence_buffer,,null,,,,,,,,,,,,,,,,,,
4616,,recognition_phase,917502,Maravilla Springs,,51,,,,,,new,1,0.9722222222222222,,,,,,,,,,
null,,confidence_buffer,917606,confidence_buffer,,null,,,,,,,,,,,,,,,,,,
null,,thebreak,918116,break,,null,,,,,,,,,,,,,,,,,,
3053.9000000953674,,realistic_rating,921171,Highvale,,49,Highvale,Fictional,1,,,,,,,,,,,,,,,
null,,confidence_buffer,921278,confidence_buffer,,null,,,,,,,,,,,,,,,,,,
2719.699999809265,,pt2_unique_rating,923999,Highvale,,50,,,2,,,,,,,,,,,,,,,
null,,confidence_buffer,924101,confidence_buffer,,null,,,,,,,,,,,,,,,,,,
1556.8000001907349,,pt2_memorable_rating,925658,Highvale,,50,,,2,,,,,,,,,,,,,,,
null,,confidence_buffer,925760,confidence_buffer,,null,,,,,,,,,,,,,,,,,,
3275.9000000953674,,recognition_phase,929038,Highvale,,52,,,,,,new,0,0.9459459459459459,,,,,,,,,,
null,,confidence_buffer,929144,confidence_buffer,,null,,,,,,,,,,,,,,,,,,
null,,thebreak,929652,break,,null,,,,,,,,,,,,,,,,,,
8216.699999809265,,realistic_rating,937871,Brookmere,,51,Brookmere,Fictional,3,,,,,,,,,,,,,,,
null,,confidence_buffer,937977,confidence_buffer,,null,,,,,,,,,,,,,,,,,,
1429.1000003814697,,pt2_unique_rating,939407,Brookmere,,50,,,2,,,,,,,,,,,,,,,
null,,confidence_buffer,939517,confidence_buffer,,null,,,,,,,,,,,,,,,,,,
1690.2999997138977,,pt2_memorable_rating,941209,Brookmere,,50,,,2,,,,,,,,,,,,,,,
null,,confidence_buffer,941325,confidence_buffer,,null,,,,,,,,,,,,,,,,,,
1675.5999999046326,,probe_rating,943002,probe_rating,,50,,,,2,1,,,,,,,,,,,,,
null,,confidence_buffer,943111,confidence_buffer,,null,,,,,,,,,,,,,,,,,,
4123.700000286102,,recognition_phase,947235,Brookmere,,50,,,,,,old,0,0.9210526315789473,,,,,,,,,,
null,,confidence_buffer,947338,confidence_buffer,,null,,,,,,,,,,,,,,,,,,
null,,thebreak,947840,break,,null,,,,,,,,,,,,,,,,,,
3974.699999809265,,realistic_rating,951816,Alliance,,50,Alliance,US,2,,,,,,,,,,,,,,,
null,,confidence_buffer,951921,confidence_buffer,,null,,,,,,,,,,,,,,,,,,
1709.9000000953674,,probe_rating,953633,probe_rating,,49,,,,1,1,,,,,,,,,,,,,
null,,confidence_buffer,953738,confidence_buffer,,null,,,,,,,,,,,,,,,,,,
2238.9000000953674,,pt2_unique_rating,955978,Alliance,,52,,,4,,,,,,,,,,,,,,,
null,,confidence_buffer,956082,confidence_buffer,,null,,,,,,,,,,,,,,,,,,
2132.199999809265,,pt2_memorable_rating,958215,Alliance,,52,,,4,,,,,,,,,,,,,,,
null,,confidence_buffer,958319,confidence_buffer,,null,,,,,,,,,,,,,,,,,,
2212.4000000953674,,recognition_phase,960534,Alliance,,49,,,,,,old,1,0.9230769230769231,,,,,,,,,,
null,,confidence_buffer,960636,confidence_buffer,,null,,,,,,,,,,,,,,,,,,
null,,thebreak,961148,break,,null,,,,,,,,,,,,,,,,,,
3231.699999809265,,realistic_rating,964381,Crestwood,,52,Crestwood,Fictional,4,,,,,,,,,,,,,,,
null,,confidence_buffer,964491,confidence_buffer,,null,,,,,,,,,,,,,,,,,,
1510.1999998092651,,pt2_unique_rating,966002,Crestwood,,50,,,2,,,,,,,,,,,,,,,
null,,confidence_buffer,966113,confidence_buffer,,null,,,,,,,,,,,,,,,,,,
1724.8000001907349,,probe_rating,967840,probe_rating,,52,,,,4,1,,,,,,,,,,,,,
null,,confidence_buffer,967948,confidence_buffer,,null,,,,,,,,,,,,,,,,,,
1674.0999999046326,,pt2_memorable_rating,969624,Crestwood,,51,,,3,,,,,,,,,,,,,,,
null,,confidence_buffer,969725,confidence_buffer,,null,,,,,,,,,,,,,,,,,,
2028.4000000953674,,recognition_phase,971755,Crestwood,,49,,,,,,old,1,0.925,,,,,,,,,,
null,,confidence_buffer,971861,confidence_buffer,,null,,,,,,,,,,,,,,,,,,
null,,thebreak,972362,break,,null,,,,,,,,,,,,,,,,,,
4073.5999999046326,,realistic_rating,976438,Berkeley Springs,,50,Berkeley Springs,US,2,,,,,,,,,,,,,,,
null,,confidence_buffer,976546,confidence_buffer,,null,,,,,,,,,,,,,,,,,,
1745,,pt2_unique_rating,978293,Berkeley Springs,,51,,,3,,,,,,,,,,,,,,,
null,,confidence_buffer,978407,confidence_buffer,,null,,,,,,,,,,,,,,,,,,
1343.0999999046326,,pt2_memorable_rating,979752,Berkeley Springs,,51,,,3,,,,,,,,,,,,,,,
null,,confidence_buffer,979855,confidence_buffer,,null,,,,,,,,,,,,,,,,,,
2843.800000190735,,recognition_phase,982701,Berkeley Springs,,50,,,,,,old,1,0.926829268292683,,,,,,,,,,
null,,confidence_buffer,982805,confidence_buffer,,null,,,,,,,,,,,,,,,,,,
null,,thebreak,983309,break,,null,,,,,,,,,,,,,,,,,,
2903.9000000953674,,realistic_rating,986216,Redgrove,,50,Redgrove,Fictional,2,,,,,,,,,,,,,,,
null,,confidence_buffer,986323,confidence_buffer,,null,,,,,,,,,,,,,,,,,,
3933.5,,pt2_unique_rating,990258,Redgrove,,51,,,3,,,,,,,,,,,,,,,
null,,confidence_buffer,990363,confidence_buffer,,null,,,,,,,,,,,,,,,,,,
1320.5,,pt2_memorable_rating,991686,Redgrove,,50,,,2,,,,,,,,,,,,,,,
null,,confidence_buffer,991790,confidence_buffer,,null,,,,,,,,,,,,,,,,,,
1640.3999996185303,,probe_rating,993432,probe_rating,,52,,,,4,1,,,,,,,,,,,,,
null,,confidence_buffer,993536,confidence_buffer,,null,,,,,,,,,,,,,,,,,,
4278.400000095367,,recognition_phase,997816,Redgrove,,49,,,,,,old,1,0.9285714285714286,,,,,,,,,,
null,,confidence_buffer,997921,confidence_buffer,,null,,,,,,,,,,,,,,,,,,
null,,thebreak,998422,break,,null,,,,,,,,,,,,,,,,,,
3742.5,,realistic_rating,1002165,Westridge,,51,Westridge,Fictional,3,,,,,,,,,,,,,,,
null,,confidence_buffer,1002281,confidence_buffer,,null,,,,,,,,,,,,,,,,,,
2004.7999997138977,,pt2_unique_rating,1004287,Westridge,,50,,,2,,,,,,,,,,,,,,,
null,,confidence_buffer,1004393,confidence_buffer,,null,,,,,,,,,,,,,,,,,,
997.5,,pt2_memorable_rating,1005392,Westridge,,50,,,2,,,,,,,,,,,,,,,
null,,confidence_buffer,1005500,confidence_buffer,,null,,,,,,,,,,,,,,,,,,
2865.5999999046326,,recognition_phase,1008366,Westridge,,50,,,,,,old,0,0.9069767441860465,,,,,,,,,,
null,,confidence_buffer,1008470,confidence_buffer,,null,,,,,,,,,,,,,,,,,,
null,,thebreak,1008982,break,,null,,,,,,,,,,,,,,,,,,
2932,,realistic_rating,1011916,New Hope,,50,New Hope,US,2,,,,,,,,,,,,,,,
null,,confidence_buffer,1012026,confidence_buffer,,null,,,,,,,,,,,,,,,,,,
2317.5,,pt2_unique_rating,1014345,New Hope,,49,,,1,,,,,,,,,,,,,,,
null,,confidence_buffer,1014452,confidence_buffer,,null,,,,,,,,,,,,,,,,,,
2400.0999999046326,,pt2_memorable_rating,1016854,New Hope,,50,,,2,,,,,,,,,,,,,,,
null,,confidence_buffer,1016968,confidence_buffer,,null,,,,,,,,,,,,,,,,,,
2929.0999999046326,,recognition_phase,1019898,New Hope,,50,,,,,,old,1,0.9090909090909091,,,,,,,,,,
null,,confidence_buffer,1020000,confidence_buffer,,null,,,,,,,,,,,,,,,,,,
null,,thebreak,1020505,break,,null,,,,,,,,,,,,,,,,,,
8661.39999961853,,realistic_rating,1029168,Meadowspire,,49,Meadowspire,Fictional,1,,,,,,,,,,,,,,,
null,,confidence_buffer,1029278,confidence_buffer,,null,,,,,,,,,,,,,,,,,,
4619.5,,pt2_unique_rating,1033899,Meadowspire,,52,,,4,,,,,,,,,,,,,,,
null,,confidence_buffer,1034009,confidence_buffer,,null,,,,,,,,,,,,,,,,,,
3225.2000002861023,,pt2_memorable_rating,1037236,Meadowspire,,52,,,4,,,,,,,,,,,,,,,
null,,confidence_buffer,1037343,confidence_buffer,,null,,,,,,,,,,,,,,,,,,
3863,,recognition_phase,1041208,Meadowspire,,51,,,,,,new,1,0.9111111111111111,,,,,,,,,,
null,,confidence_buffer,1041313,confidence_buffer,,null,,,,,,,,,,,,,,,,,,
null,,thebreak,1041819,break,,null,,,,,,,,,,,,,,,,,,
3750.8999996185303,,realistic_rating,1045571,Coralridge,,49,Coralridge,Fictional,1,,,,,,,,,,,,,,,
null,,confidence_buffer,1045680,confidence_buffer,,null,,,,,,,,,,,,,,,,,,
3005.4000000953674,,pt2_unique_rating,1048686,Coralridge,,52,,,4,,,,,,,,,,,,,,,
null,,confidence_buffer,1048793,confidence_buffer,,null,,,,,,,,,,,,,,,,,,
2384.800000190735,,pt2_memorable_rating,1051179,Coralridge,,51,,,3,,,,,,,,,,,,,,,
null,,confidence_buffer,1051290,confidence_buffer,,null,,,,,,,,,,,,,,,,,,
3679,,recognition_phase,1054970,Coralridge,,52,,,,,,new,1,0.9130434782608695,,,,,,,,,,
null,,confidence_buffer,1055073,confidence_buffer,,null,,,,,,,,,,,,,,,,,,
null,,thebreak,1055577,break,,null,,,,,,,,,,,,,,,,,,
3213.9000000953674,,realistic_rating,1058793,Gatlinburg,,49,Gatlinburg,US,1,,,,,,,,,,,,,,,
null,,confidence_buffer,1058899,confidence_buffer,,null,,,,,,,,,,,,,,,,,,
2091.800000190735,,probe_rating,1060993,probe_rating,,52,,,,4,1,,,,,,,,,,,,,
null,,confidence_buffer,1061105,confidence_buffer,,null,,,,,,,,,,,,,,,,,,
2476.699999809265,,pt2_unique_rating,1063583,Gatlinburg,,52,,,4,,,,,,,,,,,,,,,
null,,confidence_buffer,1063691,confidence_buffer,,null,,,,,,,,,,,,,,,,,,
4234.400000095367,,pt2_memorable_rating,1067928,Gatlinburg,,50,,,2,,,,,,,,,,,,,,,
null,,confidence_buffer,1068030,confidence_buffer,,null,,,,,,,,,,,,,,,,,,
2218.5,,recognition_phase,1070250,Gatlinburg,,50,,,,,,old,1,0.9148936170212766,,,,,,,,,,
null,,confidence_buffer,1070357,confidence_buffer,,null,,,,,,,,,,,,,,,,,,
null,,thebreak,1070862,break,,null,,,,,,,,,,,,,,,,,,
9459.199999809265,,realistic_rating,1080322,Granton Ridge,,49,Granton Ridge,Fictional,1,,,,,,,,,,,,,,,
null,,confidence_buffer,1080437,confidence_buffer,,null,,,,,,,,,,,,,,,,,,
2168.1000003814697,,pt2_unique_rating,1082606,Granton Ridge,,51,,,3,,,,,,,,,,,,,,,
null,,confidence_buffer,1082708,confidence_buffer,,null,,,,,,,,,,,,,,,,,,
1233.1999998092651,,pt2_memorable_rating,1083943,Granton Ridge,,50,,,2,,,,,,,,,,,,,,,
null,,confidence_buffer,1084052,confidence_buffer,,null,,,,,,,,,,,,,,,,,,
3335.5999999046326,,recognition_phase,1087389,Granton Ridge,,51,,,,,,new,0,0.8958333333333334,,,,,,,,,,
null,,confidence_buffer,1087500,confidence_buffer,,null,,,,,,,,,,,,,,,,,,
null,,thebreak,1088004,break,,null,,,,,,,,,,,,,,,,,,
1995.5,,realistic_rating,1090001,Duck,,49,Duck,US,1,,,,,,,,,,,,,,,
null,,confidence_buffer,1090108,confidence_buffer,,null,,,,,,,,,,,,,,,,,,
2598.5999999046326,,pt2_unique_rating,1092708,Duck,,53,,,5,,,,,,,,,,,,,,,
null,,confidence_buffer,1092823,confidence_buffer,,null,,,,,,,,,,,,,,,,,,
781.5999999046326,,pt2_memorable_rating,1093606,Duck,,53,,,5,,,,,,,,,,,,,,,
null,,confidence_buffer,1093711,confidence_buffer,,null,,,,,,,,,,,,,,,,,,
2469.300000190735,,recognition_phase,1096182,Duck,,49,,,,,,old,1,0.8979591836734694,,,,,,,,,,
null,,confidence_buffer,1096289,confidence_buffer,,null,,,,,,,,,,,,,,,,,,
null,,thebreak,1096792,break,,null,,,,,,,,,,,,,,,,,,
3374.9000000953674,,realistic_rating,1100168,Gloucester,,49,Gloucester,US,1,,,,,,,,,,,,,,,
null,,confidence_buffer,1100273,confidence_buffer,,null,,,,,,,,,,,,,,,,,,
2777.699999809265,,pt2_unique_rating,1103053,Gloucester,,53,,,5,,,,,,,,,,,,,,,
null,,confidence_buffer,1103155,confidence_buffer,,null,,,,,,,,,,,,,,,,,,
1954.0999999046326,,probe_rating,1105110,probe_rating,,53,,,,5,1,,,,,,,,,,,,,
null,,confidence_buffer,1105214,confidence_buffer,,null,,,,,,,,,,,,,,,,,,
2114.4000000953674,,pt2_memorable_rating,1107330,Gloucester,,52,,,4,,,,,,,,,,,,,,,
null,,confidence_buffer,1107439,confidence_buffer,,null,,,,,,,,,,,,,,,,,,
2701.5999999046326,,recognition_phase,1110141,Gloucester,,50,,,,,,old,1,0.9,,,,,,,,,,
null,,confidence_buffer,1110242,confidence_buffer,,null,,,,,,,,,,,,,,,,,,
null,,thebreak,1110744,break,,null,,,,,,,,,,,,,,,,,,
1827.4000000953674,,realistic_rating,1112574,Hilo,,49,Hilo,US,1,,,,,,,,,,,,,,,
null,,confidence_buffer,1112678,confidence_buffer,,null,,,,,,,,,,,,,,,,,,
1486.2999997138977,,probe_rating,1114166,probe_rating,,51,,,,3,1,,,,,,,,,,,,,
null,,confidence_buffer,1114274,confidence_buffer,,null,,,,,,,,,,,,,,,,,,
1334,,pt2_unique_rating,1115609,Hilo,,53,,,5,,,,,,,,,,,,,,,
null,,confidence_buffer,1115719,confidence_buffer,,null,,,,,,,,,,,,,,,,,,
817.2000002861023,,pt2_memorable_rating,1116539,Hilo,,53,,,5,,,,,,,,,,,,,,,
null,,confidence_buffer,1116651,confidence_buffer,,null,,,,,,,,,,,,,,,,,,
3254.0999999046326,,recognition_phase,1119907,Hilo,,52,,,,,,new,1,0.9019607843137255,,,,,,,,,,
null,,confidence_buffer,1120011,confidence_buffer,,null,,,,,,,,,,,,,,,,,,
null,,thebreak,1120526,break,,null,,,,,,,,,,,,,,,,,,
3498.7999997138977,,realistic_rating,1124027,Delaware City,,53,Delaware City,US,5,,,,,,,,,,,,,,,
null,,confidence_buffer,1124134,confidence_buffer,,null,,,,,,,,,,,,,,,,,,
4311.400000095367,,pt2_unique_rating,1128448,Delaware City,,51,,,3,,,,,,,,,,,,,,,
null,,confidence_buffer,1128549,confidence_buffer,,null,,,,,,,,,,,,,,,,,,
2434.199999809265,,pt2_memorable_rating,1130985,Delaware City,,51,,,3,,,,,,,,,,,,,,,
null,,confidence_buffer,1131088,confidence_buffer,,null,,,,,,,,,,,,,,,,,,
2838.9000000953674,,recognition_phase,1133928,Delaware City,,52,,,,,,new,1,0.9038461538461539,,,,,,,,,,
null,,confidence_buffer,1134033,confidence_buffer,,null,,,,,,,,,,,,,,,,,,
null,,thebreak,1134539,break,,null,,,,,,,,,,,,,,,,,,
2212.0999999046326,,realistic_rating,1136753,Cape May,,50,Cape May,US,2,,,,,,,,,,,,,,,
null,,confidence_buffer,1136870,confidence_buffer,,null,,,,,,,,,,,,,,,,,,
3088,,pt2_unique_rating,1139960,Cape May,,50,,,2,,,,,,,,,,,,,,,
null,,confidence_buffer,1140067,confidence_buffer,,null,,,,,,,,,,,,,,,,,,
1089.9000000953674,,pt2_memorable_rating,1141158,Cape May,,50,,,2,,,,,,,,,,,,,,,
null,,confidence_buffer,1141268,confidence_buffer,,null,,,,,,,,,,,,,,,,,,
1302.2999997138977,,probe_rating,1142572,probe_rating,,52,,,,4,1,,,,,,,,,,,,,
null,,confidence_buffer,1142677,confidence_buffer,,null,,,,,,,,,,,,,,,,,,
4911.300000190735,,recognition_phase,1147590,Cape May,,52,,,,,,new,1,0.9056603773584906,,,,,,,,,,
null,,confidence_buffer,1147697,confidence_buffer,,null,,,,,,,,,,,,,,,,,,
null,,thebreak,1148201,break,,null,,,,,,,,,,,,,,,,,,
4134.799999713898,,realistic_rating,1152337,Okoboji,,49,Okoboji,US,1,,,,,,,,,,,,,,,
null,,confidence_buffer,1152440,confidence_buffer,,null,,,,,,,,,,,,,,,,,,
3521.9000000953674,,pt2_unique_rating,1155963,Okoboji,,53,,,5,,,,,,,,,,,,,,,
null,,confidence_buffer,1156072,confidence_buffer,,null,,,,,,,,,,,,,,,,,,
1149,,pt2_memorable_rating,1157222,Okoboji,,53,,,5,,,,,,,,,,,,,,,
null,,confidence_buffer,1157330,confidence_buffer,,null,,,,,,,,,,,,,,,,,,
2073.5,,recognition_phase,1159405,Okoboji,,52,,,,,,new,1,0.9074074074074074,,,,,,,,,,
null,,confidence_buffer,1159515,confidence_buffer,,null,,,,,,,,,,,,,,,,,,
null,,thebreak,1160025,break,,null,,,,,,,,,,,,,,,,,,
2423.7999997138977,,realistic_rating,1162449,New Verdan,,51,New Verdan,Fictional,3,,,,,,,,,,,,,,,
null,,confidence_buffer,1162560,confidence_buffer,,null,,,,,,,,,,,,,,,,,,
1591,,probe_rating,1164152,probe_rating,,50,,,,2,1,,,,,,,,,,,,,
null,,confidence_buffer,1164255,confidence_buffer,,null,,,,,,,,,,,,,,,,,,
3176.0999999046326,,pt2_unique_rating,1167432,New Verdan,,52,,,4,,,,,,,,,,,,,,,
null,,confidence_buffer,1167540,confidence_buffer,,null,,,,,,,,,,,,,,,,,,
3010.5999999046326,,pt2_memorable_rating,1170551,New Verdan,,52,,,4,,,,,,,,,,,,,,,
null,,confidence_buffer,1170661,confidence_buffer,,null,,,,,,,,,,,,,,,,,,
1769.9000000953674,,recognition_phase,1172433,New Verdan,,52,,,,,,new,1,0.9090909090909091,,,,,,,,,,
null,,confidence_buffer,1172540,confidence_buffer,,null,,,,,,,,,,,,,,,,,,
null,,thebreak,1173042,break,,null,,,,,,,,,,,,,,,,,,
7474.099999904633,,realistic_rating,1180519,Bayshore Haven,,51,Bayshore Haven,Fictional,3,,,,,,,,,,,,,,,
null,,confidence_buffer,1180630,confidence_buffer,,null,,,,,,,,,,,,,,,,,,
2732,,pt2_unique_rating,1183363,Bayshore Haven,,52,,,4,,,,,,,,,,,,,,,
null,,confidence_buffer,1183473,confidence_buffer,,null,,,,,,,,,,,,,,,,,,
3744.2000002861023,,pt2_memorable_rating,1187219,Bayshore Haven,,51,,,3,,,,,,,,,,,,,,,
null,,confidence_buffer,1187331,confidence_buffer,,null,,,,,,,,,,,,,,,,,,
3157.699999809265,,recognition_phase,1190490,Bayshore Haven,,49,,,,,,old,1,0.9107142857142857,,,,,,,,,,
null,,confidence_buffer,1190597,confidence_buffer,,null,,,,,,,,,,,,,,,,,,
null,,thebreak,1191104,break,,null,,,,,,,,,,,,,,,,,,
2236.300000190735,,realistic_rating,1193343,West Palm Beach,,53,West Palm Beach,US,5,,,,,,,,,,,,,,,
null,,confidence_buffer,1193456,confidence_buffer,,null,,,,,,,,,,,,,,,,,,
3521.4000000953674,,pt2_unique_rating,1196979,West Palm Beach,,50,,,2,,,,,,,,,,,,,,,
null,,confidence_buffer,1197090,confidence_buffer,,null,,,,,,,,,,,,,,,,,,
1638,,pt2_memorable_rating,1198730,West Palm Beach,,51,,,3,,,,,,,,,,,,,,,
null,,confidence_buffer,1198836,confidence_buffer,,null,,,,,,,,,,,,,,,,,,
2623.0999999046326,,recognition_phase,1201459,West Palm Beach,,50,,,,,,old,1,0.9122807017543859,,,,,,,,,,
null,,confidence_buffer,1201570,confidence_buffer,,null,,,,,,,,,,,,,,,,,,
null,,thebreak,1202076,break,,null,,,,,,,,,,,,,,,,,,
3837.300000190735,,realistic_rating,1205915,Hawthorne Bluffs,,52,Hawthorne Bluffs,Fictional,4,,,,,,,,,,,,,,,
null,,confidence_buffer,1206029,confidence_buffer,,null,,,,,,,,,,,,,,,,,,
1903.8999996185303,,pt2_unique_rating,1207935,Hawthorne Bluffs,,51,,,3,,,,,,,,,,,,,,,
null,,confidence_buffer,1208044,confidence_buffer,,null,,,,,,,,,,,,,,,,,,
1687,,pt2_memorable_rating,1209732,Hawthorne Bluffs,,51,,,3,,,,,,,,,,,,,,,
null,,confidence_buffer,1209840,confidence_buffer,,null,,,,,,,,,,,,,,,,,,
1119.8000001907349,,probe_rating,1210962,probe_rating,,50,,,,2,1,,,,,,,,,,,,,
null,,confidence_buffer,1211070,confidence_buffer,,null,,,,,,,,,,,,,,,,,,
1875.7999997138977,,recognition_phase,1212948,Hawthorne Bluffs,,49,,,,,,old,1,0.9137931034482759,,,,,,,,,,
null,,confidence_buffer,1213054,confidence_buffer,,null,,,,,,,,,,,,,,,,,,
null,,thebreak,1213568,break,,null,,,,,,,,,,,,,,,,,,
3798.9000000953674,,realistic_rating,1217367,Ravenport,,51,Ravenport,Fictional,3,,,,,,,,,,,,,,,
null,,confidence_buffer,1217470,confidence_buffer,,null,,,,,,,,,,,,,,,,,,
1778.1000003814697,,pt2_unique_rating,1219250,Ravenport,,53,,,5,,,,,,,,,,,,,,,
null,,confidence_buffer,1219352,confidence_buffer,,null,,,,,,,,,,,,,,,,,,
1151.4000000953674,,pt2_memorable_rating,1220506,Ravenport,,53,,,5,,,,,,,,,,,,,,,
null,,confidence_buffer,1220609,confidence_buffer,,null,,,,,,,,,,,,,,,,,,
4953.200000286102,,recognition_phase,1225564,Ravenport,,50,,,,,,old,0,0.8983050847457628,,,,,,,,,,
null,,confidence_buffer,1225672,confidence_buffer,,null,,,,,,,,,,,,,,,,,,
null,,thebreak,1226176,break,,null,,,,,,,,,,,,,,,,,,
2515.7000002861023,,realistic_rating,1228694,Athens,,53,Athens,US,5,,,,,,,,,,,,,,,
null,,confidence_buffer,1228804,confidence_buffer,,null,,,,,,,,,,,,,,,,,,
1506.8000001907349,,pt2_unique_rating,1230313,Athens,,53,,,5,,,,,,,,,,,,,,,
null,,confidence_buffer,1230419,confidence_buffer,,null,,,,,,,,,,,,,,,,,,
2426.5,,pt2_memorable_rating,1232847,Athens,,53,,,5,,,,,,,,,,,,,,,
null,,confidence_buffer,1232957,confidence_buffer,,null,,,,,,,,,,,,,,,,,,
1957.6000003814697,,recognition_phase,1234915,Athens,,49,,,,,,old,1,0.9,,,,,,,,,,
null,,confidence_buffer,1235022,confidence_buffer,,null,,,,,,,,,,,,,,,,,,
null,,thebreak,1235525,break,,null,,,,,,,,,,,,,,,,,,
,,survey,1390814,survey-questions,,,,,,,,,,,none,high,I was not,I just read it once. No strategy. ,If I felt I might have heard of it before,If I felt I would remember it,If it was unusual,If I could actually see a city in the US with these names,N/A,
