rt,responses,trial_type,time_elapsed,stimulus,button_pressed,key_press,name_trial,city_type,rating,probe,probe_accuracy,response,correct,accuracy,problems,smooth,distraction,strategies,familiar,memorable,unique,realistic,similar,comments
18228.5,{worker_id:67ddd5ed0c68ca2f9c5ce73b},id_enter,18237,,,,,,,,,,,,,,,,,,,,,
31888.20000000298,,fullscreen,50145,fullscreen,0,,,,,,,,,,,,,,,,,,,
18491.19999998808,,intro_0,68651,instruct,,32,,,,,,,,,,,,,,,,,,
40206,,intro_1,108868,instruct,,32,,,,,,,,,,,,,,,,,,
14236.79999999702,,intro_2,123108,instruct,,32,,,,,,,,,,,,,,,,,,
null,,instruct_dir_4,124612,instruct,,null,,,,,,,,,,,,,,,,,,
null,,thebreak,125128,break,,null,,,,,,,,,,,,,,,,,,
37229,,familiar_rating,162359,Millstone,,49,Millstone,Fictional,1,,,,,,,,,,,,,,,
null,,confidence_buffer,162481,confidence_buffer,,null,,,,,,,,,,,,,,,,,,
5048.100000008941,,unique_rating,167532,Millstone,,49,,,1,,,,,,,,,,,,,,,
null,,confidence_buffer,167639,confidence_buffer,,null,,,,,,,,,,,,,,,,,,
5600.5,,memorable_rating,173247,Millstone,,49,,,1,,,,,,,,,,,,,,,
null,,confidence_buffer,173365,confidence_buffer,,null,,,,,,,,,,,,,,,,,,
null,,thebreak,173876,break,,null,,,,,,,,,,,,,,,,,,
4168.29999999702,,familiar_rating,178048,Fairhaven,,51,Fairhaven,Fictional,3,,,,,,,,,,,,,,,
null,,confidence_buffer,178155,confidence_buffer,,null,,,,,,,,,,,,,,,,,,
8918.5,,unique_rating,187076,Fairhaven,,51,,,3,,,,,,,,,,,,,,,
null,,confidence_buffer,187183,confidence_buffer,,null,,,,,,,,,,,,,,,,,,
2500.7000000029802,,memorable_rating,189685,Fairhaven,,51,,,3,,,,,,,,,,,,,,,
null,,confidence_buffer,189795,confidence_buffer,,null,,,,,,,,,,,,,,,,,,
null,,thebreak,190310,break,,null,,,,,,,,,,,,,,,,,,
7228.5,,familiar_rating,197542,Sisters,,49,Sisters,US,1,,,,,,,,,,,,,,,
null,,confidence_buffer,197651,confidence_buffer,,null,,,,,,,,,,,,,,,,,,
1118.7999999970198,,unique_rating,198772,Sisters,,49,,,1,,,,,,,,,,,,,,,
null,,confidence_buffer,198883,confidence_buffer,,null,,,,,,,,,,,,,,,,,,
8400.70000000298,,probe_rating,207285,probe_rating,,50,,,,2,1,,,,,,,,,,,,,
null,,confidence_buffer,207407,confidence_buffer,,null,,,,,,,,,,,,,,,,,,
9441.79999999702,,memorable_rating,216851,Sisters,,49,,,1,,,,,,,,,,,,,,,
null,,confidence_buffer,216961,confidence_buffer,,null,,,,,,,,,,,,,,,,,,
null,,thebreak,217464,break,,null,,,,,,,,,,,,,,,,,,
5400,,familiar_rating,222867,Leesburg,,52,Leesburg,US,4,,,,,,,,,,,,,,,
null,,confidence_buffer,222978,confidence_buffer,,null,,,,,,,,,,,,,,,,,,
2081.9000000059605,,unique_rating,225063,Leesburg,,52,,,4,,,,,,,,,,,,,,,
null,,confidence_buffer,225170,confidence_buffer,,null,,,,,,,,,,,,,,,,,,
3108.4000000059605,,memorable_rating,228280,Leesburg,,53,,,5,,,,,,,,,,,,,,,
null,,confidence_buffer,228384,confidence_buffer,,null,,,,,,,,,,,,,,,,,,
null,,thebreak,228886,break,,null,,,,,,,,,,,,,,,,,,
4241.100000008941,,familiar_rating,233130,Orr,,50,Orr,US,2,,,,,,,,,,,,,,,
null,,confidence_buffer,233238,confidence_buffer,,null,,,,,,,,,,,,,,,,,,
2156.7999999970198,,unique_rating,235403,Orr,,50,,,2,,,,,,,,,,,,,,,
null,,confidence_buffer,235507,confidence_buffer,,null,,,,,,,,,,,,,,,,,,
2311.300000011921,,memorable_rating,237821,Orr,,51,,,3,,,,,,,,,,,,,,,
null,,confidence_buffer,237931,confidence_buffer,,null,,,,,,,,,,,,,,,,,,
null,,thebreak,238442,break,,null,,,,,,,,,,,,,,,,,,
5186.5,,familiar_rating,243631,Maravilla Springs,,53,Maravilla Springs,Fictional,5,,,,,,,,,,,,,,,
null,,confidence_buffer,243742,confidence_buffer,,null,,,,,,,,,,,,,,,,,,
1740.6000000089407,,unique_rating,245485,Maravilla Springs,,52,,,4,,,,,,,,,,,,,,,
null,,confidence_buffer,245595,confidence_buffer,,null,,,,,,,,,,,,,,,,,,
1110.7000000029802,,memorable_rating,246709,Maravilla Springs,,53,,,5,,,,,,,,,,,,,,,
null,,confidence_buffer,246817,confidence_buffer,,null,,,,,,,,,,,,,,,,,,
null,,thebreak,247328,break,,null,,,,,,,,,,,,,,,,,,
2966.4000000059605,,familiar_rating,250297,Watkins Glen,,49,Watkins Glen,US,1,,,,,,,,,,,,,,,
null,,confidence_buffer,250405,confidence_buffer,,null,,,,,,,,,,,,,,,,,,
1281.2999999970198,,unique_rating,251689,Watkins Glen,,49,,,1,,,,,,,,,,,,,,,
null,,confidence_buffer,251799,confidence_buffer,,null,,,,,,,,,,,,,,,,,,
1385,,memorable_rating,253187,Watkins Glen,,50,,,2,,,,,,,,,,,,,,,
null,,confidence_buffer,253299,confidence_buffer,,null,,,,,,,,,,,,,,,,,,
null,,thebreak,253804,break,,null,,,,,,,,,,,,,,,,,,
4496.29999999702,,familiar_rating,258303,Redgrove,,52,Redgrove,Fictional,4,,,,,,,,,,,,,,,
null,,confidence_buffer,258414,confidence_buffer,,null,,,,,,,,,,,,,,,,,,
2647.5,,unique_rating,261064,Redgrove,,51,,,3,,,,,,,,,,,,,,,
null,,confidence_buffer,261167,confidence_buffer,,null,,,,,,,,,,,,,,,,,,
943.7000000029802,,memorable_rating,262113,Redgrove,,52,,,4,,,,,,,,,,,,,,,
null,,confidence_buffer,262220,confidence_buffer,,null,,,,,,,,,,,,,,,,,,
null,,thebreak,262723,break,,null,,,,,,,,,,,,,,,,,,
3044.5999999940395,,familiar_rating,265771,Delaware City,,53,Delaware City,US,5,,,,,,,,,,,,,,,
null,,confidence_buffer,265880,confidence_buffer,,null,,,,,,,,,,,,,,,,,,
725.5,,unique_rating,266608,Delaware City,,53,,,5,,,,,,,,,,,,,,,
null,,confidence_buffer,266713,confidence_buffer,,null,,,,,,,,,,,,,,,,,,
708.6000000089407,,memorable_rating,267425,Delaware City,,53,,,5,,,,,,,,,,,,,,,
null,,confidence_buffer,267530,confidence_buffer,,null,,,,,,,,,,,,,,,,,,
null,,thebreak,268036,break,,null,,,,,,,,,,,,,,,,,,
4088,,familiar_rating,272126,Baymarsh,,51,Baymarsh,Fictional,3,,,,,,,,,,,,,,,
null,,confidence_buffer,272233,confidence_buffer,,null,,,,,,,,,,,,,,,,,,
1189,,unique_rating,273425,Baymarsh,,51,,,3,,,,,,,,,,,,,,,
null,,confidence_buffer,273529,confidence_buffer,,null,,,,,,,,,,,,,,,,,,
834.4000000059605,,memorable_rating,274367,Baymarsh,,50,,,2,,,,,,,,,,,,,,,
null,,confidence_buffer,274484,confidence_buffer,,null,,,,,,,,,,,,,,,,,,
null,,thebreak,274988,break,,null,,,,,,,,,,,,,,,,,,
3123.8999999910593,,familiar_rating,278115,Meadowspire,,53,Meadowspire,Fictional,5,,,,,,,,,,,,,,,
null,,confidence_buffer,278222,confidence_buffer,,null,,,,,,,,,,,,,,,,,,
2275.800000011921,,unique_rating,280501,Meadowspire,,52,,,4,,,,,,,,,,,,,,,
null,,confidence_buffer,280609,confidence_buffer,,null,,,,,,,,,,,,,,,,,,
1549.5,,memorable_rating,282161,Meadowspire,,53,,,5,,,,,,,,,,,,,,,
null,,confidence_buffer,282275,confidence_buffer,,null,,,,,,,,,,,,,,,,,,
3414.7999999970198,,probe_rating,285693,probe_rating,,50,,,,2,1,,,,,,,,,,,,,
null,,confidence_buffer,285801,confidence_buffer,,null,,,,,,,,,,,,,,,,,,
null,,thebreak,286311,break,,null,,,,,,,,,,,,,,,,,,
3366,,familiar_rating,289680,Ashford Hills,,52,Ashford Hills,Fictional,4,,,,,,,,,,,,,,,
null,,confidence_buffer,289791,confidence_buffer,,null,,,,,,,,,,,,,,,,,,
2243.0999999940395,,unique_rating,292036,Ashford Hills,,53,,,5,,,,,,,,,,,,,,,
null,,confidence_buffer,292145,confidence_buffer,,null,,,,,,,,,,,,,,,,,,
4195.79999999702,,memorable_rating,296349,Ashford Hills,,50,,,2,,,,,,,,,,,,,,,
null,,confidence_buffer,296458,confidence_buffer,,null,,,,,,,,,,,,,,,,,,
null,,thebreak,296963,break,,null,,,,,,,,,,,,,,,,,,
2972.6000000089407,,familiar_rating,299938,Willowford,,53,Willowford,Fictional,5,,,,,,,,,,,,,,,
null,,confidence_buffer,300058,confidence_buffer,,null,,,,,,,,,,,,,,,,,,
1815.7999999970198,,unique_rating,301876,Willowford,,51,,,3,,,,,,,,,,,,,,,
null,,confidence_buffer,301990,confidence_buffer,,null,,,,,,,,,,,,,,,,,,
3225,,probe_rating,305218,probe_rating,,49,,,,1,1,,,,,,,,,,,,,
null,,confidence_buffer,305330,confidence_buffer,,null,,,,,,,,,,,,,,,,,,
1894.2000000029802,,memorable_rating,307227,Willowford,,51,,,3,,,,,,,,,,,,,,,
null,,confidence_buffer,307338,confidence_buffer,,null,,,,,,,,,,,,,,,,,,
null,,thebreak,307844,break,,null,,,,,,,,,,,,,,,,,,
2278.6000000089407,,familiar_rating,310125,Park City,,53,Park City,US,5,,,,,,,,,,,,,,,
null,,confidence_buffer,310233,confidence_buffer,,null,,,,,,,,,,,,,,,,,,
1313,,unique_rating,311549,Park City,,51,,,3,,,,,,,,,,,,,,,
null,,confidence_buffer,311655,confidence_buffer,,null,,,,,,,,,,,,,,,,,,
1140.2000000029802,,memorable_rating,312798,Park City,,50,,,2,,,,,,,,,,,,,,,
null,,confidence_buffer,312906,confidence_buffer,,null,,,,,,,,,,,,,,,,,,
null,,thebreak,313424,break,,null,,,,,,,,,,,,,,,,,,
2063.5,,familiar_rating,315490,Racine,,52,Racine,US,4,,,,,,,,,,,,,,,
null,,confidence_buffer,315600,confidence_buffer,,null,,,,,,,,,,,,,,,,,,
3301.6000000089407,,unique_rating,318904,Racine,,51,,,3,,,,,,,,,,,,,,,
null,,confidence_buffer,319010,confidence_buffer,,null,,,,,,,,,,,,,,,,,,
2381.8999999910593,,probe_rating,321394,probe_rating,,53,,,,5,1,,,,,,,,,,,,,
null,,confidence_buffer,321500,confidence_buffer,,null,,,,,,,,,,,,,,,,,,
1766.2999999970198,,memorable_rating,323268,Racine,,51,,,3,,,,,,,,,,,,,,,
null,,confidence_buffer,323381,confidence_buffer,,null,,,,,,,,,,,,,,,,,,
null,,thebreak,323890,break,,null,,,,,,,,,,,,,,,,,,
2155.199999988079,,familiar_rating,326048,New Hope,,53,New Hope,US,5,,,,,,,,,,,,,,,
null,,confidence_buffer,326161,confidence_buffer,,null,,,,,,,,,,,,,,,,,,
2048.4000000059605,,unique_rating,328212,New Hope,,51,,,3,,,,,,,,,,,,,,,
null,,confidence_buffer,328330,confidence_buffer,,null,,,,,,,,,,,,,,,,,,
916.6000000089407,,memorable_rating,329250,New Hope,,50,,,2,,,,,,,,,,,,,,,
null,,confidence_buffer,329358,confidence_buffer,,null,,,,,,,,,,,,,,,,,,
null,,thebreak,329862,break,,null,,,,,,,,,,,,,,,,,,
3807.0999999940395,,familiar_rating,333672,Carmel,,49,Carmel,US,1,,,,,,,,,,,,,,,
null,,confidence_buffer,333779,confidence_buffer,,null,,,,,,,,,,,,,,,,,,
1393,,unique_rating,335174,Carmel,,50,,,2,,,,,,,,,,,,,,,
null,,confidence_buffer,335278,confidence_buffer,,null,,,,,,,,,,,,,,,,,,
1463.0999999940395,,memorable_rating,336744,Carmel,,49,,,1,,,,,,,,,,,,,,,
null,,confidence_buffer,336849,confidence_buffer,,null,,,,,,,,,,,,,,,,,,
null,,thebreak,337356,break,,null,,,,,,,,,,,,,,,,,,
5183.20000000298,,familiar_rating,342542,Silverpine,,53,Silverpine,Fictional,5,,,,,,,,,,,,,,,
null,,confidence_buffer,342648,confidence_buffer,,null,,,,,,,,,,,,,,,,,,
1722.5,,unique_rating,344373,Silverpine,,53,,,5,,,,,,,,,,,,,,,
null,,confidence_buffer,344479,confidence_buffer,,null,,,,,,,,,,,,,,,,,,
1514.2000000029802,,memorable_rating,345997,Silverpine,,53,,,5,,,,,,,,,,,,,,,
null,,confidence_buffer,346109,confidence_buffer,,null,,,,,,,,,,,,,,,,,,
null,,thebreak,346619,break,,null,,,,,,,,,,,,,,,,,,
2507.2000000029802,,familiar_rating,349129,Shreveport,,51,Shreveport,US,3,,,,,,,,,,,,,,,
null,,confidence_buffer,349241,confidence_buffer,,null,,,,,,,,,,,,,,,,,,
2025.3999999910593,,unique_rating,351270,Shreveport,,50,,,2,,,,,,,,,,,,,,,
null,,confidence_buffer,351375,confidence_buffer,,null,,,,,,,,,,,,,,,,,,
4364.79999999702,,memorable_rating,355743,Shreveport,,49,,,1,,,,,,,,,,,,,,,
null,,confidence_buffer,355853,confidence_buffer,,null,,,,,,,,,,,,,,,,,,
null,,thebreak,356364,break,,null,,,,,,,,,,,,,,,,,,
4965.9000000059605,,familiar_rating,361333,New Verdan,,52,New Verdan,Fictional,4,,,,,,,,,,,,,,,
null,,confidence_buffer,361438,confidence_buffer,,null,,,,,,,,,,,,,,,,,,
1589.1000000089407,,unique_rating,363030,New Verdan,,53,,,5,,,,,,,,,,,,,,,
null,,confidence_buffer,363139,confidence_buffer,,null,,,,,,,,,,,,,,,,,,
938.6000000089407,,memorable_rating,364080,New Verdan,,52,,,4,,,,,,,,,,,,,,,
null,,confidence_buffer,364187,confidence_buffer,,null,,,,,,,,,,,,,,,,,,
null,,thebreak,364694,break,,null,,,,,,,,,,,,,,,,,,
3983.0999999940395,,familiar_rating,368680,Abilene,,51,Abilene,US,3,,,,,,,,,,,,,,,
null,,confidence_buffer,368791,confidence_buffer,,null,,,,,,,,,,,,,,,,,,
1952.4000000059605,,unique_rating,370746,Abilene,,52,,,4,,,,,,,,,,,,,,,
null,,confidence_buffer,370864,confidence_buffer,,null,,,,,,,,,,,,,,,,,,
933.5999999940395,,memorable_rating,371801,Abilene,,51,,,3,,,,,,,,,,,,,,,
null,,confidence_buffer,371910,confidence_buffer,,null,,,,,,,,,,,,,,,,,,
null,,thebreak,372418,break,,null,,,,,,,,,,,,,,,,,,
3569.5,,familiar_rating,375990,Coeur d'Alene,,50,Coeur d'Alene,US,2,,,,,,,,,,,,,,,
null,,confidence_buffer,376095,confidence_buffer,,null,,,,,,,,,,,,,,,,,,
2611.2999999970198,,unique_rating,378709,Coeur d'Alene,,49,,,1,,,,,,,,,,,,,,,
null,,confidence_buffer,378815,confidence_buffer,,null,,,,,,,,,,,,,,,,,,
1517.5,,memorable_rating,380336,Coeur d'Alene,,50,,,2,,,,,,,,,,,,,,,
null,,confidence_buffer,380440,confidence_buffer,,null,,,,,,,,,,,,,,,,,,
null,,thebreak,380944,break,,null,,,,,,,,,,,,,,,,,,
3501.7999999970198,,familiar_rating,384448,Coralridge,,53,Coralridge,Fictional,5,,,,,,,,,,,,,,,
null,,confidence_buffer,384554,confidence_buffer,,null,,,,,,,,,,,,,,,,,,
1376.2999999970198,,unique_rating,385933,Coralridge,,52,,,4,,,,,,,,,,,,,,,
null,,confidence_buffer,386040,confidence_buffer,,null,,,,,,,,,,,,,,,,,,
2644,,memorable_rating,388687,Coralridge,,53,,,5,,,,,,,,,,,,,,,
null,,confidence_buffer,388792,confidence_buffer,,null,,,,,,,,,,,,,,,,,,
null,,thebreak,389295,break,,null,,,,,,,,,,,,,,,,,,
2325.2000000029802,,familiar_rating,391624,North Arroya,,53,North Arroya,Fictional,5,,,,,,,,,,,,,,,
null,,confidence_buffer,391733,confidence_buffer,,null,,,,,,,,,,,,,,,,,,
1696.199999988079,,unique_rating,393432,North Arroya,,52,,,4,,,,,,,,,,,,,,,
null,,confidence_buffer,393540,confidence_buffer,,null,,,,,,,,,,,,,,,,,,
3066.9000000059605,,memorable_rating,396610,North Arroya,,51,,,3,,,,,,,,,,,,,,,
null,,confidence_buffer,396715,confidence_buffer,,null,,,,,,,,,,,,,,,,,,
null,,thebreak,397221,break,,null,,,,,,,,,,,,,,,,,,
3150,,familiar_rating,400374,Ravenport,,53,Ravenport,Fictional,5,,,,,,,,,,,,,,,
null,,confidence_buffer,400479,confidence_buffer,,null,,,,,,,,,,,,,,,,,,
1724.7999999970198,,unique_rating,402208,Ravenport,,52,,,4,,,,,,,,,,,,,,,
null,,confidence_buffer,402315,confidence_buffer,,null,,,,,,,,,,,,,,,,,,
1728.2000000029802,,memorable_rating,404046,Ravenport,,51,,,3,,,,,,,,,,,,,,,
null,,confidence_buffer,404149,confidence_buffer,,null,,,,,,,,,,,,,,,,,,
null,,thebreak,404658,break,,null,,,,,,,,,,,,,,,,,,
3081.2999999970198,,familiar_rating,407743,Gardnerville,,52,Gardnerville,US,4,,,,,,,,,,,,,,,
null,,confidence_buffer,407848,confidence_buffer,,null,,,,,,,,,,,,,,,,,,
2643.8999999910593,,unique_rating,410495,Gardnerville,,50,,,2,,,,,,,,,,,,,,,
null,,confidence_buffer,410604,confidence_buffer,,null,,,,,,,,,,,,,,,,,,
2180.4000000059605,,memorable_rating,412787,Gardnerville,,51,,,3,,,,,,,,,,,,,,,
null,,confidence_buffer,412898,confidence_buffer,,null,,,,,,,,,,,,,,,,,,
null,,thebreak,413405,break,,null,,,,,,,,,,,,,,,,,,
3651.2999999970198,,familiar_rating,417065,Brookmere,,53,Brookmere,Fictional,5,,,,,,,,,,,,,,,
null,,confidence_buffer,417174,confidence_buffer,,null,,,,,,,,,,,,,,,,,,
2050,,unique_rating,419226,Brookmere,,49,,,1,,,,,,,,,,,,,,,
null,,confidence_buffer,419337,confidence_buffer,,null,,,,,,,,,,,,,,,,,,
1576.5,,memorable_rating,420917,Brookmere,,50,,,2,,,,,,,,,,,,,,,
null,,confidence_buffer,421027,confidence_buffer,,null,,,,,,,,,,,,,,,,,,
null,,thebreak,421540,break,,null,,,,,,,,,,,,,,,,,,
3046.1000000089407,,familiar_rating,424589,Barnard,,50,Barnard,US,2,,,,,,,,,,,,,,,
null,,confidence_buffer,424699,confidence_buffer,,null,,,,,,,,,,,,,,,,,,
1479.5,,unique_rating,426181,Barnard,,50,,,2,,,,,,,,,,,,,,,
null,,confidence_buffer,426288,confidence_buffer,,null,,,,,,,,,,,,,,,,,,
1288.7999999970198,,memorable_rating,427578,Barnard,,49,,,1,,,,,,,,,,,,,,,
null,,confidence_buffer,427690,confidence_buffer,,null,,,,,,,,,,,,,,,,,,
null,,thebreak,428194,break,,null,,,,,,,,,,,,,,,,,,
3707.2999999970198,,familiar_rating,431904,Boulder,,49,Boulder,US,1,,,,,,,,,,,,,,,
null,,confidence_buffer,432016,confidence_buffer,,null,,,,,,,,,,,,,,,,,,
1340,,unique_rating,433358,Boulder,,50,,,2,,,,,,,,,,,,,,,
null,,confidence_buffer,433464,confidence_buffer,,null,,,,,,,,,,,,,,,,,,
1227.9000000059605,,memorable_rating,434695,Boulder,,50,,,2,,,,,,,,,,,,,,,
null,,confidence_buffer,434803,confidence_buffer,,null,,,,,,,,,,,,,,,,,,
null,,thebreak,435312,break,,null,,,,,,,,,,,,,,,,,,
3873.9000000059605,,familiar_rating,439189,Falconridge,,53,Falconridge,Fictional,5,,,,,,,,,,,,,,,
null,,confidence_buffer,439298,confidence_buffer,,null,,,,,,,,,,,,,,,,,,
1163.0999999940395,,unique_rating,440463,Falconridge,,53,,,5,,,,,,,,,,,,,,,
null,,confidence_buffer,440578,confidence_buffer,,null,,,,,,,,,,,,,,,,,,
857.2999999970198,,memorable_rating,441437,Falconridge,,52,,,4,,,,,,,,,,,,,,,
null,,confidence_buffer,441542,confidence_buffer,,null,,,,,,,,,,,,,,,,,,
null,,thebreak,442046,break,,null,,,,,,,,,,,,,,,,,,
10305.5,,intro_0,452354,instruct,,32,,,,,,,,,,,,,,,,,,
14861.09999999404,,intro_1,467218,instruct,,32,,,,,,,,,,,,,,,,,,
24465.59999999404,,intro_2,491691,instruct,,32,,,,,,,,,,,,,,,,,,
null,,instruct_dir_4,493202,instruct,,null,,,,,,,,,,,,,,,,,,
17862.5,,realistic_rating,511067,Crestwood,,52,Crestwood,Fictional,4,,,,,,,,,,,,,,,
null,,confidence_buffer,511172,confidence_buffer,,null,,,,,,,,,,,,,,,,,,
3367.0999999940395,,pt2_unique_rating,514541,Crestwood,,53,,,5,,,,,,,,,,,,,,,
null,,confidence_buffer,514647,confidence_buffer,,null,,,,,,,,,,,,,,,,,,
3124.5,,pt2_memorable_rating,517774,Crestwood,,51,,,3,,,,,,,,,,,,,,,
null,,confidence_buffer,517880,confidence_buffer,,null,,,,,,,,,,,,,,,,,,
4097.5999999940395,,recognition_phase,521981,Crestwood,,51,,,,,,new,1,1,,,,,,,,,,
null,,confidence_buffer,522092,confidence_buffer,,null,,,,,,,,,,,,,,,,,,
null,,thebreak,522598,break,,null,,,,,,,,,,,,,,,,,,
5264.300000011921,,realistic_rating,527865,Lakehaven,,50,Lakehaven,Fictional,2,,,,,,,,,,,,,,,
null,,confidence_buffer,527975,confidence_buffer,,null,,,,,,,,,,,,,,,,,,
823.4000000059605,,pt2_unique_rating,528801,Lakehaven,,51,,,3,,,,,,,,,,,,,,,
null,,confidence_buffer,528908,confidence_buffer,,null,,,,,,,,,,,,,,,,,,
2424.2000000029802,,probe_rating,531335,probe_rating,,50,,,,2,1,,,,,,,,,,,,,
null,,confidence_buffer,531446,confidence_buffer,,null,,,,,,,,,,,,,,,,,,
1999.2000000029802,,pt2_memorable_rating,533448,Lakehaven,,49,,,1,,,,,,,,,,,,,,,
null,,confidence_buffer,533553,confidence_buffer,,null,,,,,,,,,,,,,,,,,,
6175.79999999702,,recognition_phase,539734,Lakehaven,,50,,,,,,old,0,0.5,,,,,,,,,,
null,,confidence_buffer,539845,confidence_buffer,,null,,,,,,,,,,,,,,,,,,
null,,thebreak,540352,break,,null,,,,,,,,,,,,,,,,,,
4371.100000008941,,realistic_rating,544731,Racine,,51,Racine,US,3,,,,,,,,,,,,,,,
null,,confidence_buffer,544837,confidence_buffer,,null,,,,,,,,,,,,,,,,,,
1000.3999999910593,,pt2_unique_rating,545841,Racine,,52,,,4,,,,,,,,,,,,,,,
null,,confidence_buffer,545945,confidence_buffer,,null,,,,,,,,,,,,,,,,,,
728.2000000029802,,pt2_memorable_rating,546676,Racine,,53,,,5,,,,,,,,,,,,,,,
null,,confidence_buffer,546787,confidence_buffer,,null,,,,,,,,,,,,,,,,,,
5365.4000000059605,,recognition_phase,552155,Racine,,52,,,,,,new,0,0.3333333333333333,,,,,,,,,,
null,,confidence_buffer,552260,confidence_buffer,,null,,,,,,,,,,,,,,,,,,
null,,thebreak,552772,break,,null,,,,,,,,,,,,,,,,,,
2906.9000000059605,,realistic_rating,555681,Bayshore Haven,,51,Bayshore Haven,Fictional,3,,,,,,,,,,,,,,,
null,,confidence_buffer,555793,confidence_buffer,,null,,,,,,,,,,,,,,,,,,
2234.5999999940395,,pt2_unique_rating,558031,Bayshore Haven,,50,,,2,,,,,,,,,,,,,,,
null,,confidence_buffer,558136,confidence_buffer,,null,,,,,,,,,,,,,,,,,,
1998.7999999970198,,probe_rating,560137,probe_rating,,50,,,,2,1,,,,,,,,,,,,,
null,,confidence_buffer,560258,confidence_buffer,,null,,,,,,,,,,,,,,,,,,
1711.2999999970198,,pt2_memorable_rating,561972,Bayshore Haven,,51,,,3,,,,,,,,,,,,,,,
null,,confidence_buffer,562082,confidence_buffer,,null,,,,,,,,,,,,,,,,,,
1434.2999999970198,,recognition_phase,563519,Bayshore Haven,,52,,,,,,new,1,0.5,,,,,,,,,,
null,,confidence_buffer,563626,confidence_buffer,,null,,,,,,,,,,,,,,,,,,
null,,thebreak,564130,break,,null,,,,,,,,,,,,,,,,,,
8710,,realistic_rating,572842,Huntsville,,50,Huntsville,US,2,,,,,,,,,,,,,,,
null,,confidence_buffer,572947,confidence_buffer,,null,,,,,,,,,,,,,,,,,,
856.2999999970198,,pt2_unique_rating,573806,Huntsville,,51,,,3,,,,,,,,,,,,,,,
null,,confidence_buffer,573918,confidence_buffer,,null,,,,,,,,,,,,,,,,,,
656.3000000119209,,pt2_memorable_rating,574577,Huntsville,,50,,,2,,,,,,,,,,,,,,,
null,,confidence_buffer,574683,confidence_buffer,,null,,,,,,,,,,,,,,,,,,
4938.4000000059605,,recognition_phase,579625,Huntsville,,52,,,,,,new,1,0.6,,,,,,,,,,
null,,confidence_buffer,579733,confidence_buffer,,null,,,,,,,,,,,,,,,,,,
null,,thebreak,580242,break,,null,,,,,,,,,,,,,,,,,,
4241.70000000298,,realistic_rating,584487,Silverpine,,51,Silverpine,Fictional,3,,,,,,,,,,,,,,,
null,,confidence_buffer,584591,confidence_buffer,,null,,,,,,,,,,,,,,,,,,
990.5999999940395,,pt2_unique_rating,585585,Silverpine,,50,,,2,,,,,,,,,,,,,,,
null,,confidence_buffer,585690,confidence_buffer,,null,,,,,,,,,,,,,,,,,,
722,,pt2_memorable_rating,586415,Silverpine,,51,,,3,,,,,,,,,,,,,,,
null,,confidence_buffer,586525,confidence_buffer,,null,,,,,,,,,,,,,,,,,,
2407.800000011921,,recognition_phase,588935,Silverpine,,51,,,,,,new,0,0.5,,,,,,,,,,
null,,confidence_buffer,589039,confidence_buffer,,null,,,,,,,,,,,,,,,,,,
null,,thebreak,589547,break,,null,,,,,,,,,,,,,,,,,,
3019.2000000029802,,realistic_rating,592569,Meadowspire,,52,Meadowspire,Fictional,4,,,,,,,,,,,,,,,
null,,confidence_buffer,592676,confidence_buffer,,null,,,,,,,,,,,,,,,,,,
974.5,,pt2_unique_rating,593654,Meadowspire,,51,,,3,,,,,,,,,,,,,,,
null,,confidence_buffer,593759,confidence_buffer,,null,,,,,,,,,,,,,,,,,,
741.7000000029802,,pt2_memorable_rating,594504,Meadowspire,,50,,,2,,,,,,,,,,,,,,,
null,,confidence_buffer,594612,confidence_buffer,,null,,,,,,,,,,,,,,,,,,
3855.5,,recognition_phase,598471,Meadowspire,,52,,,,,,new,0,0.42857142857142855,,,,,,,,,,
null,,confidence_buffer,598579,confidence_buffer,,null,,,,,,,,,,,,,,,,,,
null,,thebreak,599083,break,,null,,,,,,,,,,,,,,,,,,
3769.7999999970198,,realistic_rating,602856,Shreveport,,51,Shreveport,US,3,,,,,,,,,,,,,,,
null,,confidence_buffer,602967,confidence_buffer,,null,,,,,,,,,,,,,,,,,,
581.5,,pt2_unique_rating,603551,Shreveport,,50,,,2,,,,,,,,,,,,,,,
null,,confidence_buffer,603656,confidence_buffer,,null,,,,,,,,,,,,,,,,,,
1668.300000011921,,pt2_memorable_rating,605332,Shreveport,,51,,,3,,,,,,,,,,,,,,,
null,,confidence_buffer,605440,confidence_buffer,,null,,,,,,,,,,,,,,,,,,
6069.600000008941,,recognition_phase,611513,Shreveport,,49,,,,,,old,1,0.5,,,,,,,,,,
null,,confidence_buffer,611626,confidence_buffer,,null,,,,,,,,,,,,,,,,,,
null,,thebreak,612129,break,,null,,,,,,,,,,,,,,,,,,
2819.4000000059605,,realistic_rating,614952,Lake of the Ozarks,,50,Lake of the Ozarks,US,2,,,,,,,,,,,,,,,
null,,confidence_buffer,615058,confidence_buffer,,null,,,,,,,,,,,,,,,,,,
692.1999999880791,,pt2_unique_rating,615753,Lake of the Ozarks,,51,,,3,,,,,,,,,,,,,,,
null,,confidence_buffer,615866,confidence_buffer,,null,,,,,,,,,,,,,,,,,,
939.9000000059605,,pt2_memorable_rating,616809,Lake of the Ozarks,,52,,,4,,,,,,,,,,,,,,,
null,,confidence_buffer,616918,confidence_buffer,,null,,,,,,,,,,,,,,,,,,
2280.7999999970198,,recognition_phase,619201,Lake of the Ozarks,,52,,,,,,new,1,0.5555555555555556,,,,,,,,,,
null,,confidence_buffer,619321,confidence_buffer,,null,,,,,,,,,,,,,,,,,,
null,,thebreak,619831,break,,null,,,,,,,,,,,,,,,,,,
3061.5,,realistic_rating,622895,North Arroya,,51,North Arroya,Fictional,3,,,,,,,,,,,,,,,
null,,confidence_buffer,623001,confidence_buffer,,null,,,,,,,,,,,,,,,,,,
1382.4000000059605,,pt2_unique_rating,624386,North Arroya,,50,,,2,,,,,,,,,,,,,,,
null,,confidence_buffer,624494,confidence_buffer,,null,,,,,,,,,,,,,,,,,,
1451.8999999910593,,pt2_memorable_rating,625948,North Arroya,,49,,,1,,,,,,,,,,,,,,,
null,,confidence_buffer,626060,confidence_buffer,,null,,,,,,,,,,,,,,,,,,
1586.5999999940395,,recognition_phase,627649,North Arroya,,50,,,,,,old,1,0.6,,,,,,,,,,
null,,confidence_buffer,627763,confidence_buffer,,null,,,,,,,,,,,,,,,,,,
null,,thebreak,628271,break,,null,,,,,,,,,,,,,,,,,,
2560.3999999910593,,realistic_rating,630835,Bisbee,,50,Bisbee,US,2,,,,,,,,,,,,,,,
null,,confidence_buffer,630946,confidence_buffer,,null,,,,,,,,,,,,,,,,,,
2011.5,,pt2_unique_rating,632961,Bisbee,,49,,,1,,,,,,,,,,,,,,,
null,,confidence_buffer,633065,confidence_buffer,,null,,,,,,,,,,,,,,,,,,
942.6000000089407,,pt2_memorable_rating,634010,Bisbee,,50,,,2,,,,,,,,,,,,,,,
null,,confidence_buffer,634121,confidence_buffer,,null,,,,,,,,,,,,,,,,,,
3025.0999999940395,,probe_rating,637149,probe_rating,,52,,,,4,1,,,,,,,,,,,,,
null,,confidence_buffer,637255,confidence_buffer,,null,,,,,,,,,,,,,,,,,,
3062.9000000059605,,recognition_phase,640321,Bisbee,,52,,,,,,new,1,0.6363636363636364,,,,,,,,,,
null,,confidence_buffer,640425,confidence_buffer,,null,,,,,,,,,,,,,,,,,,
null,,thebreak,640928,break,,null,,,,,,,,,,,,,,,,,,
2602.5999999940395,,realistic_rating,643533,Cleveland,,51,Cleveland,US,3,,,,,,,,,,,,,,,
null,,confidence_buffer,643642,confidence_buffer,,null,,,,,,,,,,,,,,,,,,
2207.0999999940395,,pt2_unique_rating,645852,Cleveland,,52,,,4,,,,,,,,,,,,,,,
null,,confidence_buffer,645960,confidence_buffer,,null,,,,,,,,,,,,,,,,,,
4925.20000000298,,probe_rating,650888,probe_rating,,49,,,,1,1,,,,,,,,,,,,,
null,,confidence_buffer,650994,confidence_buffer,,null,,,,,,,,,,,,,,,,,,
1959.9000000059605,,pt2_memorable_rating,652957,Cleveland,,53,,,5,,,,,,,,,,,,,,,
null,,confidence_buffer,653065,confidence_buffer,,null,,,,,,,,,,,,,,,,,,
3163.7000000029802,,recognition_phase,656231,Cleveland,,52,,,,,,new,1,0.6666666666666666,,,,,,,,,,
null,,confidence_buffer,656336,confidence_buffer,,null,,,,,,,,,,,,,,,,,,
null,,thebreak,656842,break,,null,,,,,,,,,,,,,,,,,,
3699.6000000089407,,realistic_rating,660544,Duck,,51,Duck,US,3,,,,,,,,,,,,,,,
null,,confidence_buffer,660657,confidence_buffer,,null,,,,,,,,,,,,,,,,,,
1162.3999999910593,,pt2_unique_rating,661822,Duck,,50,,,2,,,,,,,,,,,,,,,
null,,confidence_buffer,661930,confidence_buffer,,null,,,,,,,,,,,,,,,,,,
997,,pt2_memorable_rating,662930,Duck,,51,,,3,,,,,,,,,,,,,,,
null,,confidence_buffer,663041,confidence_buffer,,null,,,,,,,,,,,,,,,,,,
2454.5999999940395,,recognition_phase,665504,Duck,,52,,,,,,new,1,0.6923076923076923,,,,,,,,,,
null,,confidence_buffer,665613,confidence_buffer,,null,,,,,,,,,,,,,,,,,,
null,,thebreak,666124,break,,null,,,,,,,,,,,,,,,,,,
5767.70000000298,,realistic_rating,671895,Willowford,,50,Willowford,Fictional,2,,,,,,,,,,,,,,,
null,,confidence_buffer,672005,confidence_buffer,,null,,,,,,,,,,,,,,,,,,
1199.5999999940395,,pt2_unique_rating,673207,Willowford,,51,,,3,,,,,,,,,,,,,,,
null,,confidence_buffer,673324,confidence_buffer,,null,,,,,,,,,,,,,,,,,,
1159.4000000059605,,pt2_memorable_rating,674486,Willowford,,52,,,4,,,,,,,,,,,,,,,
null,,confidence_buffer,674591,confidence_buffer,,null,,,,,,,,,,,,,,,,,,
3319.9000000059605,,recognition_phase,677914,Willowford,,51,,,,,,new,0,0.6428571428571429,,,,,,,,,,
null,,confidence_buffer,678032,confidence_buffer,,null,,,,,,,,,,,,,,,,,,
null,,thebreak,678536,break,,null,,,,,,,,,,,,,,,,,,
1736.9000000059605,,realistic_rating,680275,Falconridge,,52,Falconridge,Fictional,4,,,,,,,,,,,,,,,
null,,confidence_buffer,680385,confidence_buffer,,null,,,,,,,,,,,,,,,,,,
1378.8999999910593,,pt2_unique_rating,681765,Falconridge,,51,,,3,,,,,,,,,,,,,,,
null,,confidence_buffer,681873,confidence_buffer,,null,,,,,,,,,,,,,,,,,,
741.7000000029802,,pt2_memorable_rating,682618,Falconridge,,52,,,4,,,,,,,,,,,,,,,
null,,confidence_buffer,682724,confidence_buffer,,null,,,,,,,,,,,,,,,,,,
2756.9000000059605,,recognition_phase,685484,Falconridge,,52,,,,,,new,0,0.6,,,,,,,,,,
null,,confidence_buffer,685595,confidence_buffer,,null,,,,,,,,,,,,,,,,,,
null,,thebreak,686099,break,,null,,,,,,,,,,,,,,,,,,
2137.699999988079,,realistic_rating,688239,Barnard,,51,Barnard,US,3,,,,,,,,,,,,,,,
null,,confidence_buffer,688344,confidence_buffer,,null,,,,,,,,,,,,,,,,,,
1178.4000000059605,,pt2_unique_rating,689525,Barnard,,50,,,2,,,,,,,,,,,,,,,
null,,confidence_buffer,689630,confidence_buffer,,null,,,,,,,,,,,,,,,,,,
1169.2000000029802,,pt2_memorable_rating,690801,Barnard,,49,,,1,,,,,,,,,,,,,,,
null,,confidence_buffer,690906,confidence_buffer,,null,,,,,,,,,,,,,,,,,,
4921.79999999702,,recognition_phase,695831,Barnard,,52,,,,,,new,0,0.5625,,,,,,,,,,
null,,confidence_buffer,695940,confidence_buffer,,null,,,,,,,,,,,,,,,,,,
null,,thebreak,696448,break,,null,,,,,,,,,,,,,,,,,,
1092.8999999910593,,realistic_rating,697544,Livingston,,51,Livingston,US,3,,,,,,,,,,,,,,,
null,,confidence_buffer,697654,confidence_buffer,,null,,,,,,,,,,,,,,,,,,
2178.699999988079,,probe_rating,699835,probe_rating,,50,,,,2,1,,,,,,,,,,,,,
null,,confidence_buffer,699942,confidence_buffer,,null,,,,,,,,,,,,,,,,,,
894.2000000029802,,pt2_unique_rating,700839,Livingston,,51,,,3,,,,,,,,,,,,,,,
null,,confidence_buffer,700949,confidence_buffer,,null,,,,,,,,,,,,,,,,,,
997.9000000059605,,pt2_memorable_rating,701950,Livingston,,50,,,2,,,,,,,,,,,,,,,
null,,confidence_buffer,702062,confidence_buffer,,null,,,,,,,,,,,,,,,,,,
4775.0999999940395,,recognition_phase,706840,Livingston,,50,,,,,,old,0,0.5294117647058824,,,,,,,,,,
null,,confidence_buffer,706947,confidence_buffer,,null,,,,,,,,,,,,,,,,,,
null,,thebreak,707457,break,,null,,,,,,,,,,,,,,,,,,
4410.70000000298,,realistic_rating,711870,Delaware City,,51,Delaware City,US,3,,,,,,,,,,,,,,,
null,,confidence_buffer,711983,confidence_buffer,,null,,,,,,,,,,,,,,,,,,
1399.5999999940395,,pt2_unique_rating,713385,Delaware City,,52,,,4,,,,,,,,,,,,,,,
null,,confidence_buffer,713495,confidence_buffer,,null,,,,,,,,,,,,,,,,,,
622.7999999970198,,pt2_memorable_rating,714121,Delaware City,,52,,,4,,,,,,,,,,,,,,,
null,,confidence_buffer,714240,confidence_buffer,,null,,,,,,,,,,,,,,,,,,
2808.8999999910593,,recognition_phase,717053,Delaware City,,52,,,,,,new,0,0.5,,,,,,,,,,
null,,confidence_buffer,717160,confidence_buffer,,null,,,,,,,,,,,,,,,,,,
null,,thebreak,717664,break,,null,,,,,,,,,,,,,,,,,,
1835.4000000059605,,realistic_rating,719502,Redgrove,,51,Redgrove,Fictional,3,,,,,,,,,,,,,,,
null,,confidence_buffer,719608,confidence_buffer,,null,,,,,,,,,,,,,,,,,,
476.30000001192093,,pt2_unique_rating,720087,Redgrove,,52,,,4,,,,,,,,,,,,,,,
null,,confidence_buffer,720195,confidence_buffer,,null,,,,,,,,,,,,,,,,,,
3968.0999999940395,,pt2_memorable_rating,724166,Redgrove,,50,,,2,,,,,,,,,,,,,,,
null,,confidence_buffer,724272,confidence_buffer,,null,,,,,,,,,,,,,,,,,,
5628.79999999702,,recognition_phase,729910,Redgrove,,51,,,,,,new,0,0.47368421052631576,,,,,,,,,,
null,,confidence_buffer,730015,confidence_buffer,,null,,,,,,,,,,,,,,,,,,
null,,thebreak,730525,break,,null,,,,,,,,,,,,,,,,,,
2174.6000000089407,,realistic_rating,732702,New Hope,,50,New Hope,US,2,,,,,,,,,,,,,,,
null,,confidence_buffer,732809,confidence_buffer,,null,,,,,,,,,,,,,,,,,,
964.4000000059605,,pt2_unique_rating,733776,New Hope,,50,,,2,,,,,,,,,,,,,,,
null,,confidence_buffer,733895,confidence_buffer,,null,,,,,,,,,,,,,,,,,,
1086.7000000029802,,pt2_memorable_rating,734985,New Hope,,51,,,3,,,,,,,,,,,,,,,
null,,confidence_buffer,735090,confidence_buffer,,null,,,,,,,,,,,,,,,,,,
9214.800000011921,,recognition_phase,744308,New Hope,,52,,,,,,new,0,0.45,,,,,,,,,,
null,,confidence_buffer,744428,confidence_buffer,,null,,,,,,,,,,,,,,,,,,
null,,thebreak,744933,break,,null,,,,,,,,,,,,,,,,,,
2865.2000000029802,,realistic_rating,747801,Gardnerville,,50,Gardnerville,US,2,,,,,,,,,,,,,,,
null,,confidence_buffer,747906,confidence_buffer,,null,,,,,,,,,,,,,,,,,,
2552,,pt2_unique_rating,750462,Gardnerville,,52,,,4,,,,,,,,,,,,,,,
null,,confidence_buffer,750573,confidence_buffer,,null,,,,,,,,,,,,,,,,,,
1077,,pt2_memorable_rating,751653,Gardnerville,,51,,,3,,,,,,,,,,,,,,,
null,,confidence_buffer,751760,confidence_buffer,,null,,,,,,,,,,,,,,,,,,
6550.5,,recognition_phase,758314,Gardnerville,,49,,,,,,old,1,0.47619047619047616,,,,,,,,,,
null,,confidence_buffer,758428,confidence_buffer,,null,,,,,,,,,,,,,,,,,,
null,,thebreak,758939,break,,null,,,,,,,,,,,,,,,,,,
25226.70000000298,,realistic_rating,784169,Fairhaven,,52,Fairhaven,Fictional,4,,,,,,,,,,,,,,,
null,,confidence_buffer,784279,confidence_buffer,,null,,,,,,,,,,,,,,,,,,
1523.4000000059605,,pt2_unique_rating,785805,Fairhaven,,51,,,3,,,,,,,,,,,,,,,
null,,confidence_buffer,785913,confidence_buffer,,null,,,,,,,,,,,,,,,,,,
575.7999999970198,,pt2_memorable_rating,786491,Fairhaven,,52,,,4,,,,,,,,,,,,,,,
null,,confidence_buffer,786601,confidence_buffer,,null,,,,,,,,,,,,,,,,,,
2825.2000000029802,,recognition_phase,789429,Fairhaven,,49,,,,,,old,1,0.5,,,,,,,,,,
null,,confidence_buffer,789548,confidence_buffer,,null,,,,,,,,,,,,,,,,,,
null,,thebreak,790063,break,,null,,,,,,,,,,,,,,,,,,
2277.1000000089407,,realistic_rating,792343,Albuquerque,,51,Albuquerque,US,3,,,,,,,,,,,,,,,
null,,confidence_buffer,792449,confidence_buffer,,null,,,,,,,,,,,,,,,,,,
913.6999999880791,,pt2_unique_rating,793366,Albuquerque,,52,,,4,,,,,,,,,,,,,,,
null,,confidence_buffer,793475,confidence_buffer,,null,,,,,,,,,,,,,,,,,,
966,,pt2_memorable_rating,794444,Albuquerque,,51,,,3,,,,,,,,,,,,,,,
null,,confidence_buffer,794563,confidence_buffer,,null,,,,,,,,,,,,,,,,,,
2547.199999988079,,recognition_phase,797114,Albuquerque,,52,,,,,,new,1,0.5217391304347826,,,,,,,,,,
null,,confidence_buffer,797219,confidence_buffer,,null,,,,,,,,,,,,,,,,,,
null,,thebreak,797726,break,,null,,,,,,,,,,,,,,,,,,
6118.899999991059,,realistic_rating,803848,Orr,,50,Orr,US,2,,,,,,,,,,,,,,,
null,,confidence_buffer,803953,confidence_buffer,,null,,,,,,,,,,,,,,,,,,
1200.5,,pt2_unique_rating,805156,Orr,,50,,,2,,,,,,,,,,,,,,,
null,,confidence_buffer,805268,confidence_buffer,,null,,,,,,,,,,,,,,,,,,
902.4000000059605,,pt2_memorable_rating,806173,Orr,,50,,,2,,,,,,,,,,,,,,,
null,,confidence_buffer,806280,confidence_buffer,,null,,,,,,,,,,,,,,,,,,
3034.2000000029802,,recognition_phase,809318,Orr,,49,,,,,,old,1,0.5416666666666666,,,,,,,,,,
null,,confidence_buffer,809435,confidence_buffer,,null,,,,,,,,,,,,,,,,,,
null,,thebreak,809948,break,,null,,,,,,,,,,,,,,,,,,
3273.9000000059605,,realistic_rating,813225,Maravilla Springs,,52,Maravilla Springs,Fictional,4,,,,,,,,,,,,,,,
null,,confidence_buffer,813330,confidence_buffer,,null,,,,,,,,,,,,,,,,,,
949.2999999970198,,pt2_unique_rating,814283,Maravilla Springs,,53,,,5,,,,,,,,,,,,,,,
null,,confidence_buffer,814392,confidence_buffer,,null,,,,,,,,,,,,,,,,,,
2759.2999999970198,,pt2_memorable_rating,817155,Maravilla Springs,,51,,,3,,,,,,,,,,,,,,,
null,,confidence_buffer,817264,confidence_buffer,,null,,,,,,,,,,,,,,,,,,
3741.7000000029802,,recognition_phase,821009,Maravilla Springs,,49,,,,,,old,1,0.56,,,,,,,,,,
null,,confidence_buffer,821117,confidence_buffer,,null,,,,,,,,,,,,,,,,,,
null,,thebreak,821621,break,,null,,,,,,,,,,,,,,,,,,
2715.300000011921,,realistic_rating,824339,San Antonio,,52,San Antonio,US,4,,,,,,,,,,,,,,,
null,,confidence_buffer,824446,confidence_buffer,,null,,,,,,,,,,,,,,,,,,
1841.5,,pt2_unique_rating,826290,San Antonio,,53,,,5,,,,,,,,,,,,,,,
null,,confidence_buffer,826401,confidence_buffer,,null,,,,,,,,,,,,,,,,,,
704.5,,pt2_memorable_rating,827108,San Antonio,,51,,,3,,,,,,,,,,,,,,,
null,,confidence_buffer,827218,confidence_buffer,,null,,,,,,,,,,,,,,,,,,
3964,,recognition_phase,831185,San Antonio,,52,,,,,,new,1,0.5769230769230769,,,,,,,,,,
null,,confidence_buffer,831299,confidence_buffer,,null,,,,,,,,,,,,,,,,,,
null,,thebreak,831809,break,,null,,,,,,,,,,,,,,,,,,
2513.2999999970198,,realistic_rating,834325,Elmsbury,,51,Elmsbury,Fictional,3,,,,,,,,,,,,,,,
null,,confidence_buffer,834434,confidence_buffer,,null,,,,,,,,,,,,,,,,,,
3612.199999988079,,probe_rating,838050,probe_rating,,51,,,,3,1,,,,,,,,,,,,,
null,,confidence_buffer,838155,confidence_buffer,,null,,,,,,,,,,,,,,,,,,
2949.7000000029802,,pt2_unique_rating,841108,Elmsbury,,52,,,4,,,,,,,,,,,,,,,
null,,confidence_buffer,841215,confidence_buffer,,null,,,,,,,,,,,,,,,,,,
1252.4000000059605,,pt2_memorable_rating,842470,Elmsbury,,51,,,3,,,,,,,,,,,,,,,
null,,confidence_buffer,842580,confidence_buffer,,null,,,,,,,,,,,,,,,,,,
3403.2000000029802,,recognition_phase,845986,Elmsbury,,52,,,,,,new,1,0.5925925925925926,,,,,,,,,,
null,,confidence_buffer,846094,confidence_buffer,,null,,,,,,,,,,,,,,,,,,
null,,thebreak,846602,break,,null,,,,,,,,,,,,,,,,,,
6243.20000000298,,realistic_rating,852853,Rosehollow,,53,Rosehollow,Fictional,5,,,,,,,,,,,,,,,
null,,confidence_buffer,852969,confidence_buffer,,null,,,,,,,,,,,,,,,,,,
1862.199999988079,,pt2_unique_rating,854833,Rosehollow,,53,,,5,,,,,,,,,,,,,,,
null,,confidence_buffer,854945,confidence_buffer,,null,,,,,,,,,,,,,,,,,,
660.2000000029802,,pt2_memorable_rating,855608,Rosehollow,,53,,,5,,,,,,,,,,,,,,,
null,,confidence_buffer,855717,confidence_buffer,,null,,,,,,,,,,,,,,,,,,
3442,,recognition_phase,859162,Rosehollow,,52,,,,,,new,1,0.6071428571428571,,,,,,,,,,
null,,confidence_buffer,859272,confidence_buffer,,null,,,,,,,,,,,,,,,,,,
null,,thebreak,859783,break,,null,,,,,,,,,,,,,,,,,,
2166.7000000029802,,realistic_rating,861952,Hilo,,51,Hilo,US,3,,,,,,,,,,,,,,,
null,,confidence_buffer,862064,confidence_buffer,,null,,,,,,,,,,,,,,,,,,
883.4000000059605,,pt2_unique_rating,862950,Hilo,,51,,,3,,,,,,,,,,,,,,,
null,,confidence_buffer,863057,confidence_buffer,,null,,,,,,,,,,,,,,,,,,
846.2000000029802,,pt2_memorable_rating,863907,Hilo,,51,,,3,,,,,,,,,,,,,,,
null,,confidence_buffer,864012,confidence_buffer,,null,,,,,,,,,,,,,,,,,,
2813,,recognition_phase,866828,Hilo,,52,,,,,,new,1,0.6206896551724138,,,,,,,,,,
null,,confidence_buffer,866939,confidence_buffer,,null,,,,,,,,,,,,,,,,,,
null,,thebreak,867446,break,,null,,,,,,,,,,,,,,,,,,
2116.7000000029802,,realistic_rating,869566,Highvale,,50,Highvale,Fictional,2,,,,,,,,,,,,,,,
null,,confidence_buffer,869678,confidence_buffer,,null,,,,,,,,,,,,,,,,,,
1363.1000000089407,,pt2_unique_rating,871044,Highvale,,51,,,3,,,,,,,,,,,,,,,
null,,confidence_buffer,871155,confidence_buffer,,null,,,,,,,,,,,,,,,,,,
604.7999999970198,,pt2_memorable_rating,871763,Highvale,,52,,,4,,,,,,,,,,,,,,,
null,,confidence_buffer,871872,confidence_buffer,,null,,,,,,,,,,,,,,,,,,
2057.7999999970198,,recognition_phase,873932,Highvale,,52,,,,,,new,1,0.6333333333333333,,,,,,,,,,
null,,confidence_buffer,874044,confidence_buffer,,null,,,,,,,,,,,,,,,,,,
null,,thebreak,874547,break,,null,,,,,,,,,,,,,,,,,,
3900.2000000029802,,realistic_rating,878450,Abilene,,51,Abilene,US,3,,,,,,,,,,,,,,,
null,,confidence_buffer,878554,confidence_buffer,,null,,,,,,,,,,,,,,,,,,
1120.1000000089407,,pt2_unique_rating,879677,Abilene,,51,,,3,,,,,,,,,,,,,,,
null,,confidence_buffer,879788,confidence_buffer,,null,,,,,,,,,,,,,,,,,,
1173.2000000029802,,pt2_memorable_rating,880964,Abilene,,50,,,2,,,,,,,,,,,,,,,
null,,confidence_buffer,881070,confidence_buffer,,null,,,,,,,,,,,,,,,,,,
1759.5,,recognition_phase,882833,Abilene,,52,,,,,,new,0,0.6129032258064516,,,,,,,,,,
null,,confidence_buffer,882941,confidence_buffer,,null,,,,,,,,,,,,,,,,,,
null,,thebreak,883450,break,,null,,,,,,,,,,,,,,,,,,
1975.7999999970198,,realistic_rating,885428,Montelake,,51,Montelake,Fictional,3,,,,,,,,,,,,,,,
null,,confidence_buffer,885533,confidence_buffer,,null,,,,,,,,,,,,,,,,,,
1176.2999999970198,,pt2_unique_rating,886712,Montelake,,52,,,4,,,,,,,,,,,,,,,
null,,confidence_buffer,886818,confidence_buffer,,null,,,,,,,,,,,,,,,,,,
544.5,,pt2_memorable_rating,887365,Montelake,,51,,,3,,,,,,,,,,,,,,,
null,,confidence_buffer,887476,confidence_buffer,,null,,,,,,,,,,,,,,,,,,
1632.1000000089407,,recognition_phase,889111,Montelake,,52,,,,,,new,1,0.625,,,,,,,,,,
null,,confidence_buffer,889227,confidence_buffer,,null,,,,,,,,,,,,,,,,,,
null,,thebreak,889733,break,,null,,,,,,,,,,,,,,,,,,
1141.2999999970198,,realistic_rating,890878,Coeur d'Alene,,51,Coeur d'Alene,US,3,,,,,,,,,,,,,,,
null,,confidence_buffer,890989,confidence_buffer,,null,,,,,,,,,,,,,,,,,,
515.7999999970198,,pt2_unique_rating,891508,Coeur d'Alene,,50,,,2,,,,,,,,,,,,,,,
null,,confidence_buffer,891627,confidence_buffer,,null,,,,,,,,,,,,,,,,,,
642.7000000029802,,pt2_memorable_rating,892272,Coeur d'Alene,,50,,,2,,,,,,,,,,,,,,,
null,,confidence_buffer,892379,confidence_buffer,,null,,,,,,,,,,,,,,,,,,
581.4000000059605,,recognition_phase,892963,Coeur d'Alene,,51,,,,,,new,0,0.6060606060606061,,,,,,,,,,
null,,confidence_buffer,893078,confidence_buffer,,null,,,,,,,,,,,,,,,,,,
null,,thebreak,893586,break,,null,,,,,,,,,,,,,,,,,,
2119.3999999910593,,realistic_rating,895708,Gloucester,,51,Gloucester,US,3,,,,,,,,,,,,,,,
null,,confidence_buffer,895813,confidence_buffer,,null,,,,,,,,,,,,,,,,,,
1054.4000000059605,,pt2_unique_rating,896870,Gloucester,,50,,,2,,,,,,,,,,,,,,,
null,,confidence_buffer,896983,confidence_buffer,,null,,,,,,,,,,,,,,,,,,
546.2999999970198,,pt2_memorable_rating,897532,Gloucester,,51,,,3,,,,,,,,,,,,,,,
null,,confidence_buffer,897639,confidence_buffer,,null,,,,,,,,,,,,,,,,,,
2450,,recognition_phase,900093,Gloucester,,52,,,,,,new,1,0.6176470588235294,,,,,,,,,,
null,,confidence_buffer,900202,confidence_buffer,,null,,,,,,,,,,,,,,,,,,
null,,thebreak,900712,break,,null,,,,,,,,,,,,,,,,,,
1871.1000000089407,,realistic_rating,902586,New Verdan,,51,New Verdan,Fictional,3,,,,,,,,,,,,,,,
null,,confidence_buffer,902707,confidence_buffer,,null,,,,,,,,,,,,,,,,,,
3439.2999999970198,,pt2_unique_rating,906148,New Verdan,,52,,,4,,,,,,,,,,,,,,,
null,,confidence_buffer,906258,confidence_buffer,,null,,,,,,,,,,,,,,,,,,
604.8000000119209,,pt2_memorable_rating,906866,New Verdan,,52,,,4,,,,,,,,,,,,,,,
null,,confidence_buffer,906972,confidence_buffer,,null,,,,,,,,,,,,,,,,,,
1763.3999999910593,,recognition_phase,908738,New Verdan,,50,,,,,,old,1,0.6285714285714286,,,,,,,,,,
null,,confidence_buffer,908842,confidence_buffer,,null,,,,,,,,,,,,,,,,,,
null,,thebreak,909346,break,,null,,,,,,,,,,,,,,,,,,
903.0999999940395,,realistic_rating,910251,Boulder,,51,Boulder,US,3,,,,,,,,,,,,,,,
null,,confidence_buffer,910364,confidence_buffer,,null,,,,,,,,,,,,,,,,,,
775.9000000059605,,pt2_unique_rating,911143,Boulder,,52,,,4,,,,,,,,,,,,,,,
null,,confidence_buffer,911258,confidence_buffer,,null,,,,,,,,,,,,,,,,,,
630.7999999970198,,pt2_memorable_rating,911892,Boulder,,52,,,4,,,,,,,,,,,,,,,
null,,confidence_buffer,912000,confidence_buffer,,null,,,,,,,,,,,,,,,,,,
1579.2000000029802,,probe_rating,913587,probe_rating,,49,,,,1,1,,,,,,,,,,,,,
null,,confidence_buffer,913693,confidence_buffer,,null,,,,,,,,,,,,,,,,,,
6031.600000008941,,recognition_phase,919727,Boulder,,51,,,,,,new,0,0.6111111111111112,,,,,,,,,,
null,,confidence_buffer,919834,confidence_buffer,,null,,,,,,,,,,,,,,,,,,
null,,thebreak,920337,break,,null,,,,,,,,,,,,,,,,,,
3501,,realistic_rating,923840,Alliance,,52,Alliance,US,4,,,,,,,,,,,,,,,
null,,confidence_buffer,923953,confidence_buffer,,null,,,,,,,,,,,,,,,,,,
7048.600000008941,,pt2_unique_rating,931005,Alliance,,52,,,4,,,,,,,,,,,,,,,
null,,confidence_buffer,931117,confidence_buffer,,null,,,,,,,,,,,,,,,,,,
1367.7999999970198,,pt2_memorable_rating,932488,Alliance,,52,,,4,,,,,,,,,,,,,,,
null,,confidence_buffer,932595,confidence_buffer,,null,,,,,,,,,,,,,,,,,,
3734.9000000059605,,recognition_phase,936332,Alliance,,51,,,,,,new,1,0.6216216216216216,,,,,,,,,,
null,,confidence_buffer,936442,confidence_buffer,,null,,,,,,,,,,,,,,,,,,
null,,thebreak,936946,break,,null,,,,,,,,,,,,,,,,,,
6033,,realistic_rating,942982,Park City,,53,Park City,US,5,,,,,,,,,,,,,,,
null,,confidence_buffer,943093,confidence_buffer,,null,,,,,,,,,,,,,,,,,,
981.8000000119209,,pt2_unique_rating,944077,Park City,,53,,,5,,,,,,,,,,,,,,,
null,,confidence_buffer,944187,confidence_buffer,,null,,,,,,,,,,,,,,,,,,
1794.3999999910593,,probe_rating,945985,probe_rating,,52,,,,4,1,,,,,,,,,,,,,
null,,confidence_buffer,946095,confidence_buffer,,null,,,,,,,,,,,,,,,,,,
3151.4000000059605,,pt2_memorable_rating,949248,Park City,,53,,,5,,,,,,,,,,,,,,,
null,,confidence_buffer,949356,confidence_buffer,,null,,,,,,,,,,,,,,,,,,
4965.100000008941,,recognition_phase,954325,Park City,,50,,,,,,old,1,0.631578947368421,,,,,,,,,,
null,,confidence_buffer,954433,confidence_buffer,,null,,,,,,,,,,,,,,,,,,
null,,thebreak,954937,break,,null,,,,,,,,,,,,,,,,,,
2796.699999988079,,realistic_rating,957737,Ravenport,,51,Ravenport,Fictional,3,,,,,,,,,,,,,,,
null,,confidence_buffer,957843,confidence_buffer,,null,,,,,,,,,,,,,,,,,,
4484.9000000059605,,pt2_unique_rating,962331,Ravenport,,52,,,4,,,,,,,,,,,,,,,
null,,confidence_buffer,962441,confidence_buffer,,null,,,,,,,,,,,,,,,,,,
1202,,pt2_memorable_rating,963645,Ravenport,,52,,,4,,,,,,,,,,,,,,,
null,,confidence_buffer,963757,confidence_buffer,,null,,,,,,,,,,,,,,,,,,
8313.60000000894,,recognition_phase,972074,Ravenport,,52,,,,,,new,0,0.6153846153846154,,,,,,,,,,
null,,confidence_buffer,972180,confidence_buffer,,null,,,,,,,,,,,,,,,,,,
null,,thebreak,972688,break,,null,,,,,,,,,,,,,,,,,,
5784.5,,realistic_rating,978481,Sisters,,50,Sisters,US,2,,,,,,,,,,,,,,,
null,,confidence_buffer,978588,confidence_buffer,,null,,,,,,,,,,,,,,,,,,
1231.2000000029802,,pt2_unique_rating,979822,Sisters,,50,,,2,,,,,,,,,,,,,,,
null,,confidence_buffer,979934,confidence_buffer,,null,,,,,,,,,,,,,,,,,,
864.1999999880791,,pt2_memorable_rating,980801,Sisters,,50,,,2,,,,,,,,,,,,,,,
null,,confidence_buffer,980909,confidence_buffer,,null,,,,,,,,,,,,,,,,,,
3644,,recognition_phase,984556,Sisters,,49,,,,,,old,1,0.625,,,,,,,,,,
null,,confidence_buffer,984661,confidence_buffer,,null,,,,,,,,,,,,,,,,,,
null,,thebreak,985179,break,,null,,,,,,,,,,,,,,,,,,
2680.7000000029802,,realistic_rating,987863,East Ladera,,51,East Ladera,Fictional,3,,,,,,,,,,,,,,,
null,,confidence_buffer,987968,confidence_buffer,,null,,,,,,,,,,,,,,,,,,
1485.1000000089407,,pt2_unique_rating,989456,East Ladera,,52,,,4,,,,,,,,,,,,,,,
null,,confidence_buffer,989562,confidence_buffer,,null,,,,,,,,,,,,,,,,,,
495.20000000298023,,pt2_memorable_rating,990061,East Ladera,,51,,,3,,,,,,,,,,,,,,,
null,,confidence_buffer,990172,confidence_buffer,,null,,,,,,,,,,,,,,,,,,
5346.699999988079,,recognition_phase,995522,East Ladera,,52,,,,,,new,1,0.6341463414634146,,,,,,,,,,
null,,confidence_buffer,995633,confidence_buffer,,null,,,,,,,,,,,,,,,,,,
null,,thebreak,996144,break,,null,,,,,,,,,,,,,,,,,,
4688.0999999940395,,realistic_rating,1000835,West Palm Beach,,51,West Palm Beach,US,3,,,,,,,,,,,,,,,
null,,confidence_buffer,1000947,confidence_buffer,,null,,,,,,,,,,,,,,,,,,
903.7000000029802,,pt2_unique_rating,1001854,West Palm Beach,,52,,,4,,,,,,,,,,,,,,,
null,,confidence_buffer,1001961,confidence_buffer,,null,,,,,,,,,,,,,,,,,,
5185.0999999940395,,pt2_memorable_rating,1007149,West Palm Beach,,52,,,4,,,,,,,,,,,,,,,
null,,confidence_buffer,1007254,confidence_buffer,,null,,,,,,,,,,,,,,,,,,
2579.5,,recognition_phase,1009836,West Palm Beach,,52,,,,,,new,1,0.6428571428571429,,,,,,,,,,
null,,confidence_buffer,1009941,confidence_buffer,,null,,,,,,,,,,,,,,,,,,
null,,thebreak,1010452,break,,null,,,,,,,,,,,,,,,,,,
5982,,realistic_rating,1016437,Ironwood Heights,,53,Ironwood Heights,Fictional,5,,,,,,,,,,,,,,,
null,,confidence_buffer,1016558,confidence_buffer,,null,,,,,,,,,,,,,,,,,,
1025.2000000029802,,pt2_unique_rating,1017586,Ironwood Heights,,52,,,4,,,,,,,,,,,,,,,
null,,confidence_buffer,1017695,confidence_buffer,,null,,,,,,,,,,,,,,,,,,
677.9000000059605,,pt2_memorable_rating,1018375,Ironwood Heights,,53,,,5,,,,,,,,,,,,,,,
null,,confidence_buffer,1018478,confidence_buffer,,null,,,,,,,,,,,,,,,,,,
6694.4000000059605,,recognition_phase,1025176,Ironwood Heights,,51,,,,,,new,1,0.6511627906976745,,,,,,,,,,
null,,confidence_buffer,1025285,confidence_buffer,,null,,,,,,,,,,,,,,,,,,
null,,thebreak,1025791,break,,null,,,,,,,,,,,,,,,,,,
8410,,realistic_rating,1034205,Briarfield,,50,Briarfield,Fictional,2,,,,,,,,,,,,,,,
null,,confidence_buffer,1034314,confidence_buffer,,null,,,,,,,,,,,,,,,,,,
1021.0999999940395,,pt2_unique_rating,1035338,Briarfield,,49,,,1,,,,,,,,,,,,,,,
null,,confidence_buffer,1035441,confidence_buffer,,null,,,,,,,,,,,,,,,,,,
813.0999999940395,,pt2_memorable_rating,1036257,Briarfield,,50,,,2,,,,,,,,,,,,,,,
null,,confidence_buffer,1036372,confidence_buffer,,null,,,,,,,,,,,,,,,,,,
4146.79999999702,,recognition_phase,1040527,Briarfield,,50,,,,,,old,0,0.6363636363636364,,,,,,,,,,
null,,confidence_buffer,1040644,confidence_buffer,,null,,,,,,,,,,,,,,,,,,
null,,thebreak,1041148,break,,null,,,,,,,,,,,,,,,,,,
1928.5,,realistic_rating,1043080,Sunmere,,51,Sunmere,Fictional,3,,,,,,,,,,,,,,,
null,,confidence_buffer,1043190,confidence_buffer,,null,,,,,,,,,,,,,,,,,,
1002.5999999940395,,pt2_unique_rating,1044196,Sunmere,,52,,,4,,,,,,,,,,,,,,,
null,,confidence_buffer,1044302,confidence_buffer,,null,,,,,,,,,,,,,,,,,,
2164.5,,pt2_memorable_rating,1046470,Sunmere,,53,,,5,,,,,,,,,,,,,,,
null,,confidence_buffer,1046575,confidence_buffer,,null,,,,,,,,,,,,,,,,,,
2692.7999999970198,,recognition_phase,1049271,Sunmere,,52,,,,,,new,1,0.6444444444444445,,,,,,,,,,
null,,confidence_buffer,1049382,confidence_buffer,,null,,,,,,,,,,,,,,,,,,
null,,thebreak,1049889,break,,null,,,,,,,,,,,,,,,,,,
1463.6000000089407,,realistic_rating,1051355,Gatlinburg,,51,Gatlinburg,US,3,,,,,,,,,,,,,,,
null,,confidence_buffer,1051461,confidence_buffer,,null,,,,,,,,,,,,,,,,,,
1088.2000000029802,,pt2_unique_rating,1052552,Gatlinburg,,52,,,4,,,,,,,,,,,,,,,
null,,confidence_buffer,1052662,confidence_buffer,,null,,,,,,,,,,,,,,,,,,
8310,,pt2_memorable_rating,1060975,Gatlinburg,,52,,,4,,,,,,,,,,,,,,,
null,,confidence_buffer,1061082,confidence_buffer,,null,,,,,,,,,,,,,,,,,,
3084.3999999910593,,probe_rating,1064170,probe_rating,,53,,,,5,1,,,,,,,,,,,,,
null,,confidence_buffer,1064277,confidence_buffer,,null,,,,,,,,,,,,,,,,,,
4762.9000000059605,,recognition_phase,1069043,Gatlinburg,,51,,,,,,new,1,0.6521739130434783,,,,,,,,,,
null,,confidence_buffer,1069150,confidence_buffer,,null,,,,,,,,,,,,,,,,,,
null,,thebreak,1069660,break,,null,,,,,,,,,,,,,,,,,,
2148,,realistic_rating,1071810,Leesburg,,52,Leesburg,US,4,,,,,,,,,,,,,,,
null,,confidence_buffer,1071923,confidence_buffer,,null,,,,,,,,,,,,,,,,,,
1065.4000000059605,,pt2_unique_rating,1072990,Leesburg,,51,,,3,,,,,,,,,,,,,,,
null,,confidence_buffer,1073100,confidence_buffer,,null,,,,,,,,,,,,,,,,,,
13672.90000000596,,pt2_memorable_rating,1086777,Leesburg,,53,,,5,,,,,,,,,,,,,,,
null,,confidence_buffer,1086884,confidence_buffer,,null,,,,,,,,,,,,,,,,,,
32875.20000000298,,recognition_phase,1119767,Leesburg,,52,,,,,,new,0,0.6382978723404256,,,,,,,,,,
null,,confidence_buffer,1119873,confidence_buffer,,null,,,,,,,,,,,,,,,,,,
null,,thebreak,1120392,break,,null,,,,,,,,,,,,,,,,,,
3506.699999988079,,realistic_rating,1123902,Clearbrook,,53,Clearbrook,Fictional,5,,,,,,,,,,,,,,,
null,,confidence_buffer,1124011,confidence_buffer,,null,,,,,,,,,,,,,,,,,,
1027.8999999910593,,pt2_unique_rating,1125041,Clearbrook,,52,,,4,,,,,,,,,,,,,,,
null,,confidence_buffer,1125160,confidence_buffer,,null,,,,,,,,,,,,,,,,,,
878.1000000089407,,pt2_memorable_rating,1126041,Clearbrook,,53,,,5,,,,,,,,,,,,,,,
null,,confidence_buffer,1126159,confidence_buffer,,null,,,,,,,,,,,,,,,,,,
3432.1000000089407,,recognition_phase,1129594,Clearbrook,,50,,,,,,old,0,0.625,,,,,,,,,,
null,,confidence_buffer,1129704,confidence_buffer,,null,,,,,,,,,,,,,,,,,,
null,,thebreak,1130206,break,,null,,,,,,,,,,,,,,,,,,
3085.5999999940395,,realistic_rating,1133294,Oakridge,,52,Oakridge,Fictional,4,,,,,,,,,,,,,,,
null,,confidence_buffer,1133404,confidence_buffer,,null,,,,,,,,,,,,,,,,,,
547.4000000059605,,pt2_unique_rating,1133954,Oakridge,,53,,,5,,,,,,,,,,,,,,,
null,,confidence_buffer,1134071,confidence_buffer,,null,,,,,,,,,,,,,,,,,,
366.90000000596046,,pt2_memorable_rating,1134441,Oakridge,,52,,,4,,,,,,,,,,,,,,,
null,,confidence_buffer,1134551,confidence_buffer,,null,,,,,,,,,,,,,,,,,,
3927.5999999940395,,recognition_phase,1138481,Oakridge,,50,,,,,,old,0,0.6122448979591837,,,,,,,,,,
null,,confidence_buffer,1138587,confidence_buffer,,null,,,,,,,,,,,,,,,,,,
null,,thebreak,1139091,break,,null,,,,,,,,,,,,,,,,,,
1074.699999988079,,realistic_rating,1140169,Cedarwyn,,52,Cedarwyn,Fictional,4,,,,,,,,,,,,,,,
null,,confidence_buffer,1140278,confidence_buffer,,null,,,,,,,,,,,,,,,,,,
499.59999999403954,,pt2_unique_rating,1140780,Cedarwyn,,53,,,5,,,,,,,,,,,,,,,
null,,confidence_buffer,1140888,confidence_buffer,,null,,,,,,,,,,,,,,,,,,
1517.7000000029802,,pt2_memorable_rating,1142409,Cedarwyn,,52,,,4,,,,,,,,,,,,,,,
null,,confidence_buffer,1142514,confidence_buffer,,null,,,,,,,,,,,,,,,,,,
271.20000000298023,,recognition_phase,1142788,Cedarwyn,,51,,,,,,new,1,0.62,,,,,,,,,,
null,,confidence_buffer,1142896,confidence_buffer,,null,,,,,,,,,,,,,,,,,,
null,,thebreak,1143407,break,,null,,,,,,,,,,,,,,,,,,
3135.5,,realistic_rating,1146545,Claywater,,49,Claywater,Fictional,1,,,,,,,,,,,,,,,
null,,confidence_buffer,1146656,confidence_buffer,,null,,,,,,,,,,,,,,,,,,
898,,pt2_unique_rating,1147557,Claywater,,49,,,1,,,,,,,,,,,,,,,
null,,confidence_buffer,1147664,confidence_buffer,,null,,,,,,,,,,,,,,,,,,
922.2000000029802,,pt2_memorable_rating,1148590,Claywater,,49,,,1,,,,,,,,,,,,,,,
null,,confidence_buffer,1148701,confidence_buffer,,null,,,,,,,,,,,,,,,,,,
3974.2999999970198,,recognition_phase,1152679,Claywater,,52,,,,,,new,1,0.6274509803921569,,,,,,,,,,
null,,confidence_buffer,1152800,confidence_buffer,,null,,,,,,,,,,,,,,,,,,
null,,thebreak,1153304,break,,null,,,,,,,,,,,,,,,,,,
4995.79999999702,,realistic_rating,1158303,Coralridge,,51,Coralridge,Fictional,3,,,,,,,,,,,,,,,
null,,confidence_buffer,1158411,confidence_buffer,,null,,,,,,,,,,,,,,,,,,
601.6000000089407,,pt2_unique_rating,1159015,Coralridge,,51,,,3,,,,,,,,,,,,,,,
null,,confidence_buffer,1159124,confidence_buffer,,null,,,,,,,,,,,,,,,,,,
1647.9000000059605,,pt2_memorable_rating,1160775,Coralridge,,52,,,4,,,,,,,,,,,,,,,
null,,confidence_buffer,1160879,confidence_buffer,,null,,,,,,,,,,,,,,,,,,
7696.5999999940395,,recognition_phase,1168579,Coralridge,,51,,,,,,new,0,0.6153846153846154,,,,,,,,,,
null,,confidence_buffer,1168689,confidence_buffer,,null,,,,,,,,,,,,,,,,,,
null,,thebreak,1169192,break,,null,,,,,,,,,,,,,,,,,,
2894.300000011921,,realistic_rating,1172089,Baymarsh,,51,Baymarsh,Fictional,3,,,,,,,,,,,,,,,
null,,confidence_buffer,1172202,confidence_buffer,,null,,,,,,,,,,,,,,,,,,
1692.2000000029802,,pt2_unique_rating,1173897,Baymarsh,,52,,,4,,,,,,,,,,,,,,,
null,,confidence_buffer,1174001,confidence_buffer,,null,,,,,,,,,,,,,,,,,,
680.7000000029802,,pt2_memorable_rating,1174685,Baymarsh,,53,,,5,,,,,,,,,,,,,,,
null,,confidence_buffer,1174794,confidence_buffer,,null,,,,,,,,,,,,,,,,,,
4051.9000000059605,,recognition_phase,1178849,Baymarsh,,51,,,,,,new,0,0.6037735849056604,,,,,,,,,,
null,,confidence_buffer,1178964,confidence_buffer,,null,,,,,,,,,,,,,,,,,,
null,,thebreak,1179469,break,,null,,,,,,,,,,,,,,,,,,
13708.59999999404,,realistic_rating,1193186,Millstone,,51,Millstone,Fictional,3,,,,,,,,,,,,,,,
null,,confidence_buffer,1193292,confidence_buffer,,null,,,,,,,,,,,,,,,,,,
679.9000000059605,,pt2_unique_rating,1193974,Millstone,,51,,,3,,,,,,,,,,,,,,,
null,,confidence_buffer,1194083,confidence_buffer,,null,,,,,,,,,,,,,,,,,,
1934.5,,probe_rating,1196021,probe_rating,,53,,,,5,1,,,,,,,,,,,,,
null,,confidence_buffer,1196133,confidence_buffer,,null,,,,,,,,,,,,,,,,,,
2705.2000000029802,,pt2_memorable_rating,1198841,Millstone,,51,,,3,,,,,,,,,,,,,,,
null,,confidence_buffer,1198947,confidence_buffer,,null,,,,,,,,,,,,,,,,,,
918.3999999910593,,recognition_phase,1199868,Millstone,,51,,,,,,new,0,0.5925925925925926,,,,,,,,,,
null,,confidence_buffer,1199976,confidence_buffer,,null,,,,,,,,,,,,,,,,,,
null,,thebreak,1200483,break,,null,,,,,,,,,,,,,,,,,,
3802.7000000029802,,realistic_rating,1204289,Watkins Glen,,53,Watkins Glen,US,5,,,,,,,,,,,,,,,
null,,confidence_buffer,1204396,confidence_buffer,,null,,,,,,,,,,,,,,,,,,
980.0999999940395,,pt2_unique_rating,1205379,Watkins Glen,,53,,,5,,,,,,,,,,,,,,,
null,,confidence_buffer,1205491,confidence_buffer,,null,,,,,,,,,,,,,,,,,,
2216.9000000059605,,pt2_memorable_rating,1207711,Watkins Glen,,52,,,4,,,,,,,,,,,,,,,
null,,confidence_buffer,1207818,confidence_buffer,,null,,,,,,,,,,,,,,,,,,
3174.5,,recognition_phase,1210995,Watkins Glen,,52,,,,,,new,0,0.5818181818181818,,,,,,,,,,
null,,confidence_buffer,1211102,confidence_buffer,,null,,,,,,,,,,,,,,,,,,
null,,thebreak,1211609,break,,null,,,,,,,,,,,,,,,,,,
1568.5,,realistic_rating,1213181,Ashford Hills,,51,Ashford Hills,Fictional,3,,,,,,,,,,,,,,,
null,,confidence_buffer,1213290,confidence_buffer,,null,,,,,,,,,,,,,,,,,,
761.3999999910593,,pt2_unique_rating,1214054,Ashford Hills,,52,,,4,,,,,,,,,,,,,,,
null,,confidence_buffer,1214165,confidence_buffer,,null,,,,,,,,,,,,,,,,,,
688.9000000059605,,pt2_memorable_rating,1214856,Ashford Hills,,50,,,2,,,,,,,,,,,,,,,
null,,confidence_buffer,1214962,confidence_buffer,,null,,,,,,,,,,,,,,,,,,
14085.60000000894,,recognition_phase,1229051,Ashford Hills,,49,,,,,,old,1,0.5892857142857143,,,,,,,,,,
null,,confidence_buffer,1229161,confidence_buffer,,null,,,,,,,,,,,,,,,,,,
null,,thebreak,1229673,break,,null,,,,,,,,,,,,,,,,,,
1823.300000011921,,realistic_rating,1231499,Brookmere,,50,Brookmere,Fictional,2,,,,,,,,,,,,,,,
null,,confidence_buffer,1231612,confidence_buffer,,null,,,,,,,,,,,,,,,,,,
19630.40000000596,,pt2_unique_rating,1251245,Brookmere,,52,,,4,,,,,,,,,,,,,,,
null,,confidence_buffer,1251351,confidence_buffer,,null,,,,,,,,,,,,,,,,,,
1437.2000000029802,,pt2_memorable_rating,1252791,Brookmere,,53,,,5,,,,,,,,,,,,,,,
null,,confidence_buffer,1252896,confidence_buffer,,null,,,,,,,,,,,,,,,,,,
3811.2000000029802,,recognition_phase,1256715,Brookmere,,50,,,,,,old,1,0.5964912280701754,,,,,,,,,,
null,,confidence_buffer,1256827,confidence_buffer,,null,,,,,,,,,,,,,,,,,,
null,,thebreak,1257346,break,,null,,,,,,,,,,,,,,,,,,
1495.5,,realistic_rating,1258845,Natchez,,51,Natchez,US,3,,,,,,,,,,,,,,,
null,,confidence_buffer,1258954,confidence_buffer,,null,,,,,,,,,,,,,,,,,,
1154.0999999940395,,pt2_unique_rating,1260111,Natchez,,51,,,3,,,,,,,,,,,,,,,
null,,confidence_buffer,1260220,confidence_buffer,,null,,,,,,,,,,,,,,,,,,
681.7999999970198,,pt2_memorable_rating,1260904,Natchez,,51,,,3,,,,,,,,,,,,,,,
null,,confidence_buffer,1261011,confidence_buffer,,null,,,,,,,,,,,,,,,,,,
3679.7999999970198,,recognition_phase,1264694,Natchez,,52,,,,,,new,1,0.603448275862069,,,,,,,,,,
null,,confidence_buffer,1264799,confidence_buffer,,null,,,,,,,,,,,,,,,,,,
null,,thebreak,1265302,break,,null,,,,,,,,,,,,,,,,,,
3302.5,,realistic_rating,1268607,Carmel,,51,Carmel,US,3,,,,,,,,,,,,,,,
null,,confidence_buffer,1268715,confidence_buffer,,null,,,,,,,,,,,,,,,,,,
931.7999999970198,,pt2_unique_rating,1269648,Carmel,,50,,,2,,,,,,,,,,,,,,,
null,,confidence_buffer,1269758,confidence_buffer,,null,,,,,,,,,,,,,,,,,,
5453.70000000298,,pt2_memorable_rating,1275214,Carmel,,52,,,4,,,,,,,,,,,,,,,
null,,confidence_buffer,1275323,confidence_buffer,,null,,,,,,,,,,,,,,,,,,
13705.90000000596,,recognition_phase,1289032,Carmel,,51,,,,,,new,0,0.5932203389830508,,,,,,,,,,
null,,confidence_buffer,1289143,confidence_buffer,,null,,,,,,,,,,,,,,,,,,
null,,thebreak,1289646,break,,null,,,,,,,,,,,,,,,,,,
2289.4000000059605,,realistic_rating,1291938,Medora,,50,Medora,US,2,,,,,,,,,,,,,,,
null,,confidence_buffer,1292057,confidence_buffer,,null,,,,,,,,,,,,,,,,,,
19233.79999999702,,pt2_unique_rating,1311294,Medora,,52,,,4,,,,,,,,,,,,,,,
null,,confidence_buffer,1311407,confidence_buffer,,null,,,,,,,,,,,,,,,,,,
1770.2999999970198,,pt2_memorable_rating,1313181,Medora,,53,,,5,,,,,,,,,,,,,,,
null,,confidence_buffer,1313287,confidence_buffer,,null,,,,,,,,,,,,,,,,,,
27936.20000000298,,recognition_phase,1341230,Medora,,51,,,,,,new,1,0.6,,,,,,,,,,
null,,confidence_buffer,1341335,confidence_buffer,,null,,,,,,,,,,,,,,,,,,
null,,thebreak,1341850,break,,null,,,,,,,,,,,,,,,,,,
,,survey,1779873,survey-questions,,,,,,,,,,,none,high,No,Memorizing and recalling,How much I know the city,How much it excites me,How authentic it is,Whether it exists,No,None
