rt,responses,trial_type,time_elapsed,stimulus,button_pressed,key_press,name_trial,city_type,rating,probe,probe_accuracy,response,correct,accuracy
22838.800000071526,{worker_id:5c5198da659655000168955d},id_enter,22842,,,,,,,,,,,
1463.7999999523163,,fullscreen,24307,fullscreen,0,,,,,,,,,
1294.3999999761581,,intro_0,25603,instruct,,32,,,,,,,,
3423.3000000715256,,intro_1,29027,instruct,,32,,,,,,,,
1982.7999999523163,,intro_2,31011,instruct,,32,,,,,,,,
null,,instruct_dir_4,32522,instruct,,null,,,,,,,,
null,,thebreak,33033,break,,null,,,,,,,,
2681.2000000476837,,familiar_rating,35715,Hanover,,53,Hanover,US,5,,,,,
null,,confidence_buffer,35824,confidence_buffer,,null,,,,,,,,
2130.399999976158,,unique_rating,37955,Hanover,,52,,,4,,,,,
null,,confidence_buffer,38066,confidence_buffer,,null,,,,,,,,
800.1999999284744,,memorable_rating,38867,Hanover,,53,,,5,,,,,
null,,confidence_buffer,38970,confidence_buffer,,null,,,,,,,,
null,,thebreak,39479,break,,null,,,,,,,,
3298.7999999523163,,familiar_rating,42779,Juniper Creek,,51,Juniper Creek,Fictional,3,,,,,
null,,confidence_buffer,42889,confidence_buffer,,null,,,,,,,,
2785.5,,unique_rating,45675,Juniper Creek,,53,,,5,,,,,
null,,confidence_buffer,45777,confidence_buffer,,null,,,,,,,,
1096.5999999046326,,memorable_rating,46875,Juniper Creek,,52,,,4,,,,,
null,,confidence_buffer,46976,confidence_buffer,,null,,,,,,,,
null,,thebreak,47489,break,,null,,,,,,,,
1976.7999999523163,,familiar_rating,49467,Riverlyn,,49,Riverlyn,Fictional,1,,,,,
null,,confidence_buffer,49575,confidence_buffer,,null,,,,,,,,
2819.2999999523163,,unique_rating,52395,Riverlyn,,52,,,4,,,,,
null,,confidence_buffer,52510,confidence_buffer,,null,,,,,,,,
1268,,memorable_rating,53779,Riverlyn,,51,,,3,,,,,
null,,confidence_buffer,53894,confidence_buffer,,null,,,,,,,,
null,,thebreak,54408,break,,null,,,,,,,,
2185.9000000953674,,familiar_rating,56595,Coeur d'Alene,,49,Coeur d'Alene,US,1,,,,,
null,,confidence_buffer,56706,confidence_buffer,,null,,,,,,,,
4567.900000095367,,probe_rating,61275,probe_rating,,49,,,,1,1,,,
null,,confidence_buffer,61379,confidence_buffer,,null,,,,,,,,
3295.2999999523163,,unique_rating,64675,Coeur d'Alene,,53,,,5,,,,,
null,,confidence_buffer,64786,confidence_buffer,,null,,,,,,,,
1760.0999999046326,,memorable_rating,66547,Coeur d'Alene,,50,,,2,,,,,
null,,confidence_buffer,66656,confidence_buffer,,null,,,,,,,,
null,,thebreak,67170,break,,null,,,,,,,,
2247.399999976158,,familiar_rating,69419,Abilene,,52,Abilene,US,4,,,,,
null,,confidence_buffer,69531,confidence_buffer,,null,,,,,,,,
2486.5,,unique_rating,72019,Abilene,,51,,,3,,,,,
null,,confidence_buffer,72129,confidence_buffer,,null,,,,,,,,
1856.2000000476837,,memorable_rating,73986,Abilene,,51,,,3,,,,,
null,,confidence_buffer,74088,confidence_buffer,,null,,,,,,,,
null,,thebreak,74600,break,,null,,,,,,,,
3938,,familiar_rating,78539,Maplehurst,,49,Maplehurst,Fictional,1,,,,,
null,,confidence_buffer,78655,confidence_buffer,,null,,,,,,,,
3363.100000023842,,unique_rating,82019,Maplehurst,,53,,,5,,,,,
null,,confidence_buffer,82126,confidence_buffer,,null,,,,,,,,
3155.5,,memorable_rating,85282,Maplehurst,,53,,,5,,,,,
null,,confidence_buffer,85389,confidence_buffer,,null,,,,,,,,
null,,thebreak,85900,break,,null,,,,,,,,
2141.100000023842,,familiar_rating,88042,Healdsburg,,49,Healdsburg,US,1,,,,,
null,,confidence_buffer,88147,confidence_buffer,,null,,,,,,,,
2022.4000000953674,,unique_rating,90171,Healdsburg,,53,,,5,,,,,
null,,confidence_buffer,90284,confidence_buffer,,null,,,,,,,,
1637.2999999523163,,memorable_rating,91922,Healdsburg,,51,,,3,,,,,
null,,confidence_buffer,92028,confidence_buffer,,null,,,,,,,,
null,,thebreak,92540,break,,null,,,,,,,,
2173.2000000476837,,familiar_rating,94714,Brookmere,,49,Brookmere,Fictional,1,,,,,
null,,confidence_buffer,94827,confidence_buffer,,null,,,,,,,,
1470.2999999523163,,unique_rating,96298,Brookmere,,50,,,2,,,,,
null,,confidence_buffer,96401,confidence_buffer,,null,,,,,,,,
1456.1999999284744,,memorable_rating,97858,Brookmere,,51,,,3,,,,,
null,,confidence_buffer,97970,confidence_buffer,,null,,,,,,,,
null,,thebreak,98484,break,,null,,,,,,,,
2181.7999999523163,,familiar_rating,100666,Linden Trace,,49,Linden Trace,Fictional,1,,,,,
null,,confidence_buffer,100770,confidence_buffer,,null,,,,,,,,
3559.2999999523163,,unique_rating,104330,Linden Trace,,52,,,4,,,,,
null,,confidence_buffer,104441,confidence_buffer,,null,,,,,,,,
1784.8999999761581,,memorable_rating,106226,Linden Trace,,53,,,5,,,,,
null,,confidence_buffer,106341,confidence_buffer,,null,,,,,,,,
null,,thebreak,106855,break,,null,,,,,,,,
2426.5,,familiar_rating,109282,Montelake,,49,Montelake,Fictional,1,,,,,
null,,confidence_buffer,109393,confidence_buffer,,null,,,,,,,,
2336,,unique_rating,111730,Montelake,,52,,,4,,,,,
null,,confidence_buffer,111835,confidence_buffer,,null,,,,,,,,
1254.8000000715256,,memorable_rating,113090,Montelake,,51,,,3,,,,,
null,,confidence_buffer,113204,confidence_buffer,,null,,,,,,,,
null,,thebreak,113717,break,,null,,,,,,,,
2227.7999999523163,,familiar_rating,115946,Crestwood,,51,Crestwood,Fictional,3,,,,,
null,,confidence_buffer,116053,confidence_buffer,,null,,,,,,,,
1580.3000000715256,,unique_rating,117634,Crestwood,,51,,,3,,,,,
null,,confidence_buffer,117747,confidence_buffer,,null,,,,,,,,
1118.7000000476837,,memorable_rating,118866,Crestwood,,52,,,4,,,,,
null,,confidence_buffer,118977,confidence_buffer,,null,,,,,,,,
null,,thebreak,119489,break,,null,,,,,,,,
2928.7999999523163,,familiar_rating,122418,Huntsville,,53,Huntsville,US,5,,,,,
null,,confidence_buffer,122521,confidence_buffer,,null,,,,,,,,
2184.2000000476837,,unique_rating,124706,Huntsville,,50,,,2,,,,,
null,,confidence_buffer,124822,confidence_buffer,,null,,,,,,,,
955.1999999284744,,memorable_rating,125778,Huntsville,,53,,,5,,,,,
null,,confidence_buffer,125880,confidence_buffer,,null,,,,,,,,
null,,thebreak,126394,break,,null,,,,,,,,
6039.100000023842,,familiar_rating,132434,Millstone,,50,Millstone,Fictional,2,,,,,
null,,confidence_buffer,132545,confidence_buffer,,null,,,,,,,,
1416.6000000238419,,unique_rating,133962,Millstone,,50,,,2,,,,,
null,,confidence_buffer,134070,confidence_buffer,,null,,,,,,,,
1011.6000000238419,,memorable_rating,135082,Millstone,,52,,,4,,,,,
null,,confidence_buffer,135190,confidence_buffer,,null,,,,,,,,
null,,thebreak,135703,break,,null,,,,,,,,
3426.2999999523163,,familiar_rating,139130,Silverpine,,51,Silverpine,Fictional,3,,,,,
null,,confidence_buffer,139246,confidence_buffer,,null,,,,,,,,
2195.2999999523163,,unique_rating,141442,Silverpine,,52,,,4,,,,,
null,,confidence_buffer,141553,confidence_buffer,,null,,,,,,,,
1215.8999999761581,,memorable_rating,142770,Silverpine,,53,,,5,,,,,
null,,confidence_buffer,142876,confidence_buffer,,null,,,,,,,,
null,,thebreak,143391,break,,null,,,,,,,,
3961.899999976158,,familiar_rating,147354,Carmel,,53,Carmel,US,5,,,,,
null,,confidence_buffer,147465,confidence_buffer,,null,,,,,,,,
1695.7999999523163,,unique_rating,149162,Carmel,,51,,,3,,,,,
null,,confidence_buffer,149271,confidence_buffer,,null,,,,,,,,
1594.3999999761581,,memorable_rating,150866,Carmel,,53,,,5,,,,,
null,,confidence_buffer,150982,confidence_buffer,,null,,,,,,,,
4986.700000047684,,probe_rating,155970,probe_rating,,50,,,,2,1,,,
null,,confidence_buffer,156079,confidence_buffer,,null,,,,,,,,
null,,thebreak,156591,break,,null,,,,,,,,
2841.899999976158,,familiar_rating,159434,Yukon,,53,Yukon,US,5,,,,,
null,,confidence_buffer,159550,confidence_buffer,,null,,,,,,,,
851.2999999523163,,unique_rating,160402,Yukon,,53,,,5,,,,,
null,,confidence_buffer,160514,confidence_buffer,,null,,,,,,,,
2870.600000023842,,probe_rating,163386,probe_rating,,50,,,,2,1,,,
null,,confidence_buffer,163487,confidence_buffer,,null,,,,,,,,
1466,,memorable_rating,164953,Yukon,,53,,,5,,,,,
null,,confidence_buffer,165055,confidence_buffer,,null,,,,,,,,
null,,thebreak,165570,break,,null,,,,,,,,
3486.7999999523163,,familiar_rating,169057,Sierra Hollow,,49,Sierra Hollow,Fictional,1,,,,,
null,,confidence_buffer,169160,confidence_buffer,,null,,,,,,,,
1832.3000000715256,,unique_rating,170994,Sierra Hollow,,53,,,5,,,,,
null,,confidence_buffer,171105,confidence_buffer,,null,,,,,,,,
1615.8000000715256,,memorable_rating,172722,Sierra Hollow,,53,,,5,,,,,
null,,confidence_buffer,172832,confidence_buffer,,null,,,,,,,,
null,,thebreak,173345,break,,null,,,,,,,,
2232,,familiar_rating,175578,Delaware City,,52,Delaware City,US,4,,,,,
null,,confidence_buffer,175693,confidence_buffer,,null,,,,,,,,
2267.7000000476837,,unique_rating,177962,Delaware City,,49,,,1,,,,,
null,,confidence_buffer,178075,confidence_buffer,,null,,,,,,,,
1893.5,,probe_rating,179969,probe_rating,,50,,,,2,1,,,
null,,confidence_buffer,180072,confidence_buffer,,null,,,,,,,,
2961.100000023842,,memorable_rating,183034,Delaware City,,53,,,5,,,,,
null,,confidence_buffer,183135,confidence_buffer,,null,,,,,,,,
null,,thebreak,183647,break,,null,,,,,,,,
2393.399999976158,,familiar_rating,186041,Assateague Island,,49,Assateague Island,US,1,,,,,
null,,confidence_buffer,186151,confidence_buffer,,null,,,,,,,,
2481.5,,unique_rating,188633,Assateague Island,,53,,,5,,,,,
null,,confidence_buffer,188735,confidence_buffer,,null,,,,,,,,
2121.9000000953674,,memorable_rating,190858,Assateague Island,,50,,,2,,,,,
null,,confidence_buffer,190963,confidence_buffer,,null,,,,,,,,
null,,thebreak,191475,break,,null,,,,,,,,
2693.899999976158,,familiar_rating,194169,Sisters,,49,Sisters,US,1,,,,,
null,,confidence_buffer,194272,confidence_buffer,,null,,,,,,,,
3568.2999999523163,,probe_rating,197842,probe_rating,,53,,,,5,1,,,
null,,confidence_buffer,197957,confidence_buffer,,null,,,,,,,,
2156,,unique_rating,200113,Sisters,,53,,,5,,,,,
null,,confidence_buffer,200228,confidence_buffer,,null,,,,,,,,
1212.1999999284744,,memorable_rating,201441,Sisters,,53,,,5,,,,,
null,,confidence_buffer,201550,confidence_buffer,,null,,,,,,,,
null,,thebreak,202067,break,,null,,,,,,,,
2261.2000000476837,,familiar_rating,204329,Redgrove,,51,Redgrove,Fictional,3,,,,,
null,,confidence_buffer,204443,confidence_buffer,,null,,,,,,,,
3005.1999999284744,,unique_rating,207449,Redgrove,,50,,,2,,,,,
null,,confidence_buffer,207560,confidence_buffer,,null,,,,,,,,
2039.7999999523163,,memorable_rating,209601,Redgrove,,53,,,5,,,,,
null,,confidence_buffer,209705,confidence_buffer,,null,,,,,,,,
null,,thebreak,210220,break,,null,,,,,,,,
2972.7000000476837,,familiar_rating,213194,Ravenport,,52,Ravenport,Fictional,4,,,,,
null,,confidence_buffer,213300,confidence_buffer,,null,,,,,,,,
1916.8999999761581,,unique_rating,215217,Ravenport,,53,,,5,,,,,
null,,confidence_buffer,215321,confidence_buffer,,null,,,,,,,,
1734.7999999523163,,memorable_rating,217057,Ravenport,,53,,,5,,,,,
null,,confidence_buffer,217174,confidence_buffer,,null,,,,,,,,
null,,thebreak,217688,break,,null,,,,,,,,
3016.5,,familiar_rating,220705,Westridge,,49,Westridge,Fictional,1,,,,,
null,,confidence_buffer,220814,confidence_buffer,,null,,,,,,,,
1738.1999999284744,,unique_rating,222553,Westridge,,49,,,1,,,,,
null,,confidence_buffer,222666,confidence_buffer,,null,,,,,,,,
2558.899999976158,,memorable_rating,225225,Westridge,,53,,,5,,,,,
null,,confidence_buffer,225342,confidence_buffer,,null,,,,,,,,
null,,thebreak,225853,break,,null,,,,,,,,
188281.5,,familiar_rating,414136,Bar Harbor,,51,Bar Harbor,US,3,,,,,
null,,confidence_buffer,414242,confidence_buffer,,null,,,,,,,,
2660.2999999523163,,unique_rating,416903,Bar Harbor,,51,,,3,,,,,
null,,confidence_buffer,417012,confidence_buffer,,null,,,,,,,,
1706.6999999284744,,memorable_rating,418719,Bar Harbor,,53,,,5,,,,,
null,,confidence_buffer,418832,confidence_buffer,,null,,,,,,,,
null,,thebreak,419347,break,,null,,,,,,,,
2363.600000023842,,familiar_rating,421711,Cody,,51,Cody,US,3,,,,,
null,,confidence_buffer,421813,confidence_buffer,,null,,,,,,,,
2177,,unique_rating,423991,Cody,,52,,,4,,,,,
null,,confidence_buffer,424101,confidence_buffer,,null,,,,,,,,
1665.5,,memorable_rating,425767,Cody,,53,,,5,,,,,
null,,confidence_buffer,425874,confidence_buffer,,null,,,,,,,,
null,,thebreak,426385,break,,null,,,,,,,,
2340.899999976158,,familiar_rating,428727,Medora,,50,Medora,US,2,,,,,
null,,confidence_buffer,428830,confidence_buffer,,null,,,,,,,,
1488.2000000476837,,unique_rating,430319,Medora,,51,,,3,,,,,
null,,confidence_buffer,430433,confidence_buffer,,null,,,,,,,,
1765.8000000715256,,memorable_rating,432199,Medora,,51,,,3,,,,,
null,,confidence_buffer,432314,confidence_buffer,,null,,,,,,,,
null,,thebreak,432824,break,,null,,,,,,,,
6886,,familiar_rating,439711,Lake of the Ozarks,,51,Lake of the Ozarks,US,3,,,,,
null,,confidence_buffer,439827,confidence_buffer,,null,,,,,,,,
1970.7999999523163,,unique_rating,441799,Lake of the Ozarks,,53,,,5,,,,,
null,,confidence_buffer,441908,confidence_buffer,,null,,,,,,,,
1033.7999999523163,,memorable_rating,442943,Lake of the Ozarks,,53,,,5,,,,,
null,,confidence_buffer,443047,confidence_buffer,,null,,,,,,,,
null,,thebreak,443557,break,,null,,,,,,,,
2576.600000023842,,familiar_rating,446135,Barnard,,50,Barnard,US,2,,,,,
null,,confidence_buffer,446248,confidence_buffer,,null,,,,,,,,
3374,,unique_rating,449623,Barnard,,50,,,2,,,,,
null,,confidence_buffer,449727,confidence_buffer,,null,,,,,,,,
1295.3999999761581,,memorable_rating,451023,Barnard,,51,,,3,,,,,
null,,confidence_buffer,451125,confidence_buffer,,null,,,,,,,,
null,,thebreak,451636,break,,null,,,,,,,,
2521.399999976158,,familiar_rating,454158,Baymarsh,,49,Baymarsh,Fictional,1,,,,,
null,,confidence_buffer,454267,confidence_buffer,,null,,,,,,,,
1291,,unique_rating,455559,Baymarsh,,52,,,4,,,,,
null,,confidence_buffer,455667,confidence_buffer,,null,,,,,,,,
2011.2999999523163,,memorable_rating,457679,Baymarsh,,51,,,3,,,,,
null,,confidence_buffer,457781,confidence_buffer,,null,,,,,,,,
null,,thebreak,458295,break,,null,,,,,,,,
3559.3000000715256,,familiar_rating,461855,Coralridge,,51,Coralridge,Fictional,3,,,,,
null,,confidence_buffer,461964,confidence_buffer,,null,,,,,,,,
2890.5,,unique_rating,464855,Coralridge,,52,,,4,,,,,
null,,confidence_buffer,464969,confidence_buffer,,null,,,,,,,,
3125.100000023842,,memorable_rating,468095,Coralridge,,52,,,4,,,,,
null,,confidence_buffer,468206,confidence_buffer,,null,,,,,,,,
null,,thebreak,468719,break,,null,,,,,,,,
299331.89999997616,,intro_0,768052,instruct,,32,,,,,,,,
4447,,intro_1,772500,instruct,,32,,,,,,,,
5031.400000095367,,intro_2,777532,instruct,,32,,,,,,,,
null,,instruct_dir_4,779037,instruct,,null,,,,,,,,
7077.899999976158,,realistic_rating,786116,Bar Harbor,,53,Bar Harbor,US,5,,,,,
null,,confidence_buffer,786224,confidence_buffer,,null,,,,,,,,
3170.2999999523163,,pt2_unique_rating,789395,Bar Harbor,,51,,,3,,,,,
null,,confidence_buffer,789499,confidence_buffer,,null,,,,,,,,
2695.5,,probe_rating,792196,probe_rating,,50,,,,2,1,,,
null,,confidence_buffer,792303,confidence_buffer,,null,,,,,,,,
2307.600000023842,,pt2_memorable_rating,794612,Bar Harbor,,52,,,4,,,,,
null,,confidence_buffer,794726,confidence_buffer,,null,,,,,,,,
2612.9000000953674,,recognition_phase,797340,Bar Harbor,,49,,,,,,old,1,1
null,,confidence_buffer,797457,confidence_buffer,,null,,,,,,,,
null,,thebreak,797968,break,,null,,,,,,,,
3890.5,,realistic_rating,801859,Westridge,,53,Westridge,Fictional,5,,,,,
null,,confidence_buffer,801972,confidence_buffer,,null,,,,,,,,
1895,,probe_rating,803868,probe_rating,,51,,,,3,1,,,
null,,confidence_buffer,803974,confidence_buffer,,null,,,,,,,,
4180.699999928474,,pt2_unique_rating,808155,Westridge,,49,,,1,,,,,
null,,confidence_buffer,808263,confidence_buffer,,null,,,,,,,,
2947.6999999284744,,pt2_memorable_rating,811211,Westridge,,51,,,3,,,,,
null,,confidence_buffer,811315,confidence_buffer,,null,,,,,,,,
2439.7000000476837,,recognition_phase,813756,Westridge,,50,,,,,,old,1,1
null,,confidence_buffer,813859,confidence_buffer,,null,,,,,,,,
null,,thebreak,814370,break,,null,,,,,,,,
4960.5,,realistic_rating,819331,Riverlyn,,50,Riverlyn,Fictional,2,,,,,
null,,confidence_buffer,819441,confidence_buffer,,null,,,,,,,,
2289,,pt2_unique_rating,821731,Riverlyn,,51,,,3,,,,,
null,,confidence_buffer,821837,confidence_buffer,,null,,,,,,,,
2533.899999976158,,pt2_memorable_rating,824371,Riverlyn,,50,,,2,,,,,
null,,confidence_buffer,824480,confidence_buffer,,null,,,,,,,,
2426.100000023842,,recognition_phase,826907,Riverlyn,,51,,,,,,new,0,0.6666666666666666
null,,confidence_buffer,827013,confidence_buffer,,null,,,,,,,,
null,,thebreak,827525,break,,null,,,,,,,,
4965.5,,realistic_rating,832492,Sisters,,53,Sisters,US,5,,,,,
null,,confidence_buffer,832594,confidence_buffer,,null,,,,,,,,
992.3999999761581,,pt2_unique_rating,833587,Sisters,,53,,,5,,,,,
null,,confidence_buffer,833697,confidence_buffer,,null,,,,,,,,
1009.3999999761581,,pt2_memorable_rating,834707,Sisters,,53,,,5,,,,,
null,,confidence_buffer,834817,confidence_buffer,,null,,,,,,,,
2697.4000000953674,,recognition_phase,837515,Sisters,,49,,,,,,old,1,0.75
null,,confidence_buffer,837626,confidence_buffer,,null,,,,,,,,
null,,thebreak,838139,break,,null,,,,,,,,
3431.100000023842,,realistic_rating,841571,Hanover,,53,Hanover,US,5,,,,,
null,,confidence_buffer,841674,confidence_buffer,,null,,,,,,,,
1800.2999999523163,,probe_rating,843475,probe_rating,,52,,,,4,1,,,
null,,confidence_buffer,843584,confidence_buffer,,null,,,,,,,,
2841.7000000476837,,pt2_unique_rating,846427,Hanover,,51,,,3,,,,,
null,,confidence_buffer,846529,confidence_buffer,,null,,,,,,,,
3065.100000023842,,pt2_memorable_rating,849595,Hanover,,51,,,3,,,,,
null,,confidence_buffer,849698,confidence_buffer,,null,,,,,,,,
1385.1999999284744,,recognition_phase,851084,Hanover,,49,,,,,,old,1,0.8
null,,confidence_buffer,851193,confidence_buffer,,null,,,,,,,,
null,,thebreak,851709,break,,null,,,,,,,,
3005,,realistic_rating,854715,Ravenport,,53,Ravenport,Fictional,5,,,,,
null,,confidence_buffer,854830,confidence_buffer,,null,,,,,,,,
1427.8999999761581,,pt2_unique_rating,856259,Ravenport,,53,,,5,,,,,
null,,confidence_buffer,856372,confidence_buffer,,null,,,,,,,,
2070.600000023842,,pt2_memorable_rating,858443,Ravenport,,53,,,5,,,,,
null,,confidence_buffer,858549,confidence_buffer,,null,,,,,,,,
1437,,recognition_phase,859987,Ravenport,,49,,,,,,old,1,0.8333333333333334
null,,confidence_buffer,860089,confidence_buffer,,null,,,,,,,,
null,,thebreak,860602,break,,null,,,,,,,,
2903.7999999523163,,realistic_rating,863507,Sitka,,51,Sitka,US,3,,,,,
null,,confidence_buffer,863611,confidence_buffer,,null,,,,,,,,
1943.1999999284744,,pt2_unique_rating,865555,Sitka,,52,,,4,,,,,
null,,confidence_buffer,865671,confidence_buffer,,null,,,,,,,,
2883.1999999284744,,pt2_memorable_rating,868555,Sitka,,52,,,4,,,,,
null,,confidence_buffer,868666,confidence_buffer,,null,,,,,,,,
2839.899999976158,,recognition_phase,871507,Sitka,,52,,,,,,new,1,0.8571428571428571
null,,confidence_buffer,871621,confidence_buffer,,null,,,,,,,,
null,,thebreak,872122,break,,null,,,,,,,,
4663.600000023842,,realistic_rating,876787,Maravilla Springs,,50,Maravilla Springs,Fictional,2,,,,,
null,,confidence_buffer,876900,confidence_buffer,,null,,,,,,,,
2870,,pt2_unique_rating,879771,Maravilla Springs,,52,,,4,,,,,
null,,confidence_buffer,879879,confidence_buffer,,null,,,,,,,,
2491.399999976158,,pt2_memorable_rating,882371,Maravilla Springs,,50,,,2,,,,,
null,,confidence_buffer,882476,confidence_buffer,,null,,,,,,,,
1613.8999999761581,,recognition_phase,884091,Maravilla Springs,,52,,,,,,new,1,0.875
null,,confidence_buffer,884200,confidence_buffer,,null,,,,,,,,
null,,thebreak,884712,break,,null,,,,,,,,
2401.7000000476837,,realistic_rating,887115,Stonebrook,,53,Stonebrook,Fictional,5,,,,,
null,,confidence_buffer,887222,confidence_buffer,,null,,,,,,,,
3131.600000023842,,pt2_unique_rating,890355,Stonebrook,,51,,,3,,,,,
null,,confidence_buffer,890470,confidence_buffer,,null,,,,,,,,
2747.7999999523163,,pt2_memorable_rating,893218,Stonebrook,,51,,,3,,,,,
null,,confidence_buffer,893323,confidence_buffer,,null,,,,,,,,
1775.1000000238419,,probe_rating,895099,probe_rating,,50,,,,2,1,,,
null,,confidence_buffer,895214,confidence_buffer,,null,,,,,,,,
2003.5999999046326,,recognition_phase,897219,Stonebrook,,51,,,,,,new,1,0.8888888888888888
null,,confidence_buffer,897334,confidence_buffer,,null,,,,,,,,
null,,thebreak,897845,break,,null,,,,,,,,
5820.399999976158,,realistic_rating,903667,Coeur d'Alene,,51,Coeur d'Alene,US,3,,,,,
null,,confidence_buffer,903777,confidence_buffer,,null,,,,,,,,
1512.7999999523163,,pt2_unique_rating,905291,Coeur d'Alene,,51,,,3,,,,,
null,,confidence_buffer,905398,confidence_buffer,,null,,,,,,,,
1891.8000000715256,,pt2_memorable_rating,907291,Coeur d'Alene,,50,,,2,,,,,
null,,confidence_buffer,907392,confidence_buffer,,null,,,,,,,,
2153.2999999523163,,recognition_phase,909546,Coeur d'Alene,,52,,,,,,new,0,0.8
null,,confidence_buffer,909662,confidence_buffer,,null,,,,,,,,
null,,thebreak,910175,break,,null,,,,,,,,
2627,,realistic_rating,912802,Park City,,53,Park City,US,5,,,,,
null,,confidence_buffer,912906,confidence_buffer,,null,,,,,,,,
1279.3999999761581,,pt2_unique_rating,914186,Park City,,49,,,1,,,,,
null,,confidence_buffer,914290,confidence_buffer,,null,,,,,,,,
2031.3000000715256,,pt2_memorable_rating,916322,Park City,,50,,,2,,,,,
null,,confidence_buffer,916435,confidence_buffer,,null,,,,,,,,
2878.2999999523163,,recognition_phase,919315,Park City,,52,,,,,,new,1,0.8181818181818182
null,,confidence_buffer,919421,confidence_buffer,,null,,,,,,,,
null,,thebreak,919927,break,,null,,,,,,,,
3234.7999999523163,,realistic_rating,923162,Brookmere,,52,Brookmere,Fictional,4,,,,,
null,,confidence_buffer,923267,confidence_buffer,,null,,,,,,,,
2190.0999999046326,,pt2_unique_rating,925459,Brookmere,,50,,,2,,,,,
null,,confidence_buffer,925567,confidence_buffer,,null,,,,,,,,
1090.2999999523163,,pt2_memorable_rating,926659,Brookmere,,49,,,1,,,,,
null,,confidence_buffer,926762,confidence_buffer,,null,,,,,,,,
2071.8000000715256,,probe_rating,928834,probe_rating,,50,,,,2,1,,,
null,,confidence_buffer,928947,confidence_buffer,,null,,,,,,,,
1798.8999999761581,,recognition_phase,930746,Brookmere,,51,,,,,,new,0,0.75
null,,confidence_buffer,930856,confidence_buffer,,null,,,,,,,,
null,,thebreak,931371,break,,null,,,,,,,,
4022.2000000476837,,realistic_rating,935394,New Hope,,53,New Hope,US,5,,,,,
null,,confidence_buffer,935506,confidence_buffer,,null,,,,,,,,
2583.5,,pt2_unique_rating,938090,New Hope,,52,,,4,,,,,
null,,confidence_buffer,938205,confidence_buffer,,null,,,,,,,,
2227.899999976158,,pt2_memorable_rating,940434,New Hope,,52,,,4,,,,,
null,,confidence_buffer,940548,confidence_buffer,,null,,,,,,,,
1973.3999999761581,,recognition_phase,942523,New Hope,,52,,,,,,new,1,0.7692307692307693
null,,confidence_buffer,942630,confidence_buffer,,null,,,,,,,,
null,,thebreak,943144,break,,null,,,,,,,,
2480.7999999523163,,realistic_rating,945626,Orchard Bend,,53,Orchard Bend,Fictional,5,,,,,
null,,confidence_buffer,945731,confidence_buffer,,null,,,,,,,,
1485.5,,pt2_unique_rating,947218,Orchard Bend,,51,,,3,,,,,
null,,confidence_buffer,947329,confidence_buffer,,null,,,,,,,,
1288.2999999523163,,pt2_memorable_rating,948618,Orchard Bend,,52,,,4,,,,,
null,,confidence_buffer,948730,confidence_buffer,,null,,,,,,,,
1455.3000000715256,,recognition_phase,950186,Orchard Bend,,51,,,,,,new,1,0.7857142857142857
null,,confidence_buffer,950301,confidence_buffer,,null,,,,,,,,
null,,thebreak,950816,break,,null,,,,,,,,
3209.5,,realistic_rating,954026,Millstone,,52,Millstone,Fictional,4,,,,,
null,,confidence_buffer,954137,confidence_buffer,,null,,,,,,,,
1104.3000000715256,,pt2_unique_rating,955242,Millstone,,49,,,1,,,,,
null,,confidence_buffer,955349,confidence_buffer,,null,,,,,,,,
1676,,probe_rating,957026,probe_rating,,49,,,,1,1,,,
null,,confidence_buffer,957136,confidence_buffer,,null,,,,,,,,
2385,,pt2_memorable_rating,959522,Millstone,,50,,,2,,,,,
null,,confidence_buffer,959629,confidence_buffer,,null,,,,,,,,
3484.2999999523163,,recognition_phase,963114,Millstone,,51,,,,,,new,0,0.7333333333333333
null,,confidence_buffer,963227,confidence_buffer,,null,,,,,,,,
null,,thebreak,963741,break,,null,,,,,,,,
2292.2000000476837,,realistic_rating,966034,Boulder,,53,Boulder,US,5,,,,,
null,,confidence_buffer,966149,confidence_buffer,,null,,,,,,,,
2260.2999999523163,,pt2_unique_rating,968410,Boulder,,51,,,3,,,,,
null,,confidence_buffer,968512,confidence_buffer,,null,,,,,,,,
1393,,pt2_memorable_rating,969906,Boulder,,53,,,5,,,,,
null,,confidence_buffer,970022,confidence_buffer,,null,,,,,,,,
1530.7999999523163,,probe_rating,971554,probe_rating,,52,,,,4,1,,,
null,,confidence_buffer,971668,confidence_buffer,,null,,,,,,,,
2325,,recognition_phase,973994,Boulder,,52,,,,,,new,1,0.75
null,,confidence_buffer,974106,confidence_buffer,,null,,,,,,,,
null,,thebreak,974620,break,,null,,,,,,,,
5333.300000071526,,realistic_rating,979954,Rosehollow,,49,Rosehollow,Fictional,1,,,,,
null,,confidence_buffer,980069,confidence_buffer,,null,,,,,,,,
1995.3999999761581,,pt2_unique_rating,982065,Rosehollow,,52,,,4,,,,,
null,,confidence_buffer,982173,confidence_buffer,,null,,,,,,,,
3099.6999999284744,,pt2_memorable_rating,985274,Rosehollow,,53,,,5,,,,,
null,,confidence_buffer,985377,confidence_buffer,,null,,,,,,,,
1823.6000000238419,,recognition_phase,987202,Rosehollow,,52,,,,,,new,1,0.7647058823529411
null,,confidence_buffer,987307,confidence_buffer,,null,,,,,,,,
null,,thebreak,987819,break,,null,,,,,,,,
2614.600000023842,,realistic_rating,990434,Alliance,,51,Alliance,US,3,,,,,
null,,confidence_buffer,990540,confidence_buffer,,null,,,,,,,,
2460.5,,pt2_unique_rating,993001,Alliance,,52,,,4,,,,,
null,,confidence_buffer,993104,confidence_buffer,,null,,,,,,,,
1008.3000000715256,,pt2_memorable_rating,994114,Alliance,,51,,,3,,,,,
null,,confidence_buffer,994223,confidence_buffer,,null,,,,,,,,
2129.899999976158,,recognition_phase,996354,Alliance,,52,,,,,,new,1,0.7777777777777778
null,,confidence_buffer,996463,confidence_buffer,,null,,,,,,,,
null,,thebreak,996976,break,,null,,,,,,,,
2560.3000000715256,,realistic_rating,999538,Albuquerque,,53,Albuquerque,US,5,,,,,
null,,confidence_buffer,999653,confidence_buffer,,null,,,,,,,,
2043.6000000238419,,pt2_unique_rating,1001698,Albuquerque,,53,,,5,,,,,
null,,confidence_buffer,1001799,confidence_buffer,,null,,,,,,,,
985.2999999523163,,pt2_memorable_rating,1002786,Albuquerque,,53,,,5,,,,,
null,,confidence_buffer,1002888,confidence_buffer,,null,,,,,,,,
1697,,probe_rating,1004586,probe_rating,,51,,,,3,1,,,
null,,confidence_buffer,1004691,confidence_buffer,,null,,,,,,,,
2349.7000000476837,,recognition_phase,1007042,Albuquerque,,52,,,,,,new,1,0.7894736842105263
null,,confidence_buffer,1007148,confidence_buffer,,null,,,,,,,,
null,,thebreak,1007663,break,,null,,,,,,,,
3090,,realistic_rating,1010753,Livingston,,53,Livingston,US,5,,,,,
null,,confidence_buffer,1010868,confidence_buffer,,null,,,,,,,,
1692.7000000476837,,pt2_unique_rating,1012562,Livingston,,52,,,4,,,,,
null,,confidence_buffer,1012677,confidence_buffer,,null,,,,,,,,
2163.399999976158,,pt2_memorable_rating,1014842,Livingston,,52,,,4,,,,,
null,,confidence_buffer,1014946,confidence_buffer,,null,,,,,,,,
1519,,recognition_phase,1016465,Livingston,,52,,,,,,new,1,0.8
null,,confidence_buffer,1016569,confidence_buffer,,null,,,,,,,,
null,,thebreak,1017074,break,,null,,,,,,,,
5958.200000047684,,realistic_rating,1023033,Huntsville,,53,Huntsville,US,5,,,,,
null,,confidence_buffer,1023139,confidence_buffer,,null,,,,,,,,
1101.3000000715256,,pt2_unique_rating,1024241,Huntsville,,51,,,3,,,,,
null,,confidence_buffer,1024348,confidence_buffer,,null,,,,,,,,
1812.5,,pt2_memorable_rating,1026161,Huntsville,,53,,,5,,,,,
null,,confidence_buffer,1026276,confidence_buffer,,null,,,,,,,,
3316.5999999046326,,recognition_phase,1029593,Huntsville,,51,,,,,,new,0,0.7619047619047619
null,,confidence_buffer,1029700,confidence_buffer,,null,,,,,,,,
null,,thebreak,1030214,break,,null,,,,,,,,
2850.399999976158,,realistic_rating,1033066,Sierra Hollow,,51,Sierra Hollow,Fictional,3,,,,,
null,,confidence_buffer,1033169,confidence_buffer,,null,,,,,,,,
1495,,pt2_unique_rating,1034665,Sierra Hollow,,53,,,5,,,,,
null,,confidence_buffer,1034768,confidence_buffer,,null,,,,,,,,
1248.2000000476837,,pt2_memorable_rating,1036017,Sierra Hollow,,52,,,4,,,,,
null,,confidence_buffer,1036132,confidence_buffer,,null,,,,,,,,
2900.7000000476837,,recognition_phase,1039033,Sierra Hollow,,49,,,,,,old,1,0.7727272727272727
null,,confidence_buffer,1039146,confidence_buffer,,null,,,,,,,,
null,,thebreak,1039659,break,,null,,,,,,,,
2629.2999999523163,,realistic_rating,1042289,Oakridge,,53,Oakridge,Fictional,5,,,,,
null,,confidence_buffer,1042394,confidence_buffer,,null,,,,,,,,
1350,,pt2_unique_rating,1043745,Oakridge,,50,,,2,,,,,
null,,confidence_buffer,1043849,confidence_buffer,,null,,,,,,,,
1511.6000000238419,,pt2_memorable_rating,1045361,Oakridge,,51,,,3,,,,,
null,,confidence_buffer,1045477,confidence_buffer,,null,,,,,,,,
1746.8000000715256,,probe_rating,1047225,probe_rating,,51,,,,3,1,,,
null,,confidence_buffer,1047327,confidence_buffer,,null,,,,,,,,
4464.800000071526,,recognition_phase,1051793,Oakridge,,50,,,,,,old,0,0.7391304347826086
null,,confidence_buffer,1051903,confidence_buffer,,null,,,,,,,,
null,,thebreak,1052417,break,,null,,,,,,,,
5470.899999976158,,realistic_rating,1057889,Maplehurst,,50,Maplehurst,Fictional,2,,,,,
null,,confidence_buffer,1057993,confidence_buffer,,null,,,,,,,,
1374.8999999761581,,pt2_unique_rating,1059369,Maplehurst,,51,,,3,,,,,
null,,confidence_buffer,1059471,confidence_buffer,,null,,,,,,,,
1849.5,,pt2_memorable_rating,1061321,Maplehurst,,50,,,2,,,,,
null,,confidence_buffer,1061433,confidence_buffer,,null,,,,,,,,
2239.399999976158,,recognition_phase,1063673,Maplehurst,,51,,,,,,new,0,0.7083333333333334
null,,confidence_buffer,1063781,confidence_buffer,,null,,,,,,,,
null,,thebreak,1064295,break,,null,,,,,,,,
3328.899999976158,,realistic_rating,1067625,Northbridge,,53,Northbridge,Fictional,5,,,,,
null,,confidence_buffer,1067730,confidence_buffer,,null,,,,,,,,
1245.8999999761581,,pt2_unique_rating,1068977,Northbridge,,49,,,1,,,,,
null,,confidence_buffer,1069084,confidence_buffer,,null,,,,,,,,
1708.3999999761581,,pt2_memorable_rating,1070793,Northbridge,,51,,,3,,,,,
null,,confidence_buffer,1070903,confidence_buffer,,null,,,,,,,,
1736.5,,recognition_phase,1072641,Northbridge,,51,,,,,,new,1,0.72
null,,confidence_buffer,1072756,confidence_buffer,,null,,,,,,,,
null,,thebreak,1073269,break,,null,,,,,,,,
3186.7999999523163,,realistic_rating,1076457,Leesburg,,52,Leesburg,US,4,,,,,
null,,confidence_buffer,1076563,confidence_buffer,,null,,,,,,,,
2012.5,,pt2_unique_rating,1078577,Leesburg,,49,,,1,,,,,
null,,confidence_buffer,1078679,confidence_buffer,,null,,,,,,,,
1417.1000000238419,,pt2_memorable_rating,1080097,Leesburg,,51,,,3,,,,,
null,,confidence_buffer,1080205,confidence_buffer,,null,,,,,,,,
1715,,recognition_phase,1081921,Leesburg,,51,,,,,,new,1,0.7307692307692307
null,,confidence_buffer,1082038,confidence_buffer,,null,,,,,,,,
null,,thebreak,1082551,break,,null,,,,,,,,
3537.1999999284744,,realistic_rating,1086089,Coralridge,,53,Coralridge,Fictional,5,,,,,
null,,confidence_buffer,1086194,confidence_buffer,,null,,,,,,,,
1509.7999999523163,,pt2_unique_rating,1087705,Coralridge,,51,,,3,,,,,
null,,confidence_buffer,1087812,confidence_buffer,,null,,,,,,,,
1179.6000000238419,,pt2_memorable_rating,1088993,Coralridge,,52,,,4,,,,,
null,,confidence_buffer,1089103,confidence_buffer,,null,,,,,,,,
2368.5,,recognition_phase,1091473,Coralridge,,52,,,,,,new,0,0.7037037037037037
null,,confidence_buffer,1091586,confidence_buffer,,null,,,,,,,,
null,,thebreak,1092098,break,,null,,,,,,,,
3630.100000023842,,realistic_rating,1095729,Barnard,,52,Barnard,US,4,,,,,
null,,confidence_buffer,1095832,confidence_buffer,,null,,,,,,,,
1328.2000000476837,,pt2_unique_rating,1097161,Barnard,,51,,,3,,,,,
null,,confidence_buffer,1097263,confidence_buffer,,null,,,,,,,,
888.9000000953674,,pt2_memorable_rating,1098153,Barnard,,51,,,3,,,,,
null,,confidence_buffer,1098260,confidence_buffer,,null,,,,,,,,
1731.3999999761581,,recognition_phase,1099993,Barnard,,50,,,,,,old,1,0.7142857142857143
null,,confidence_buffer,1100094,confidence_buffer,,null,,,,,,,,
null,,thebreak,1100605,break,,null,,,,,,,,
2658.5,,realistic_rating,1103265,Newport,,53,Newport,US,5,,,,,
null,,confidence_buffer,1103369,confidence_buffer,,null,,,,,,,,
2191.2000000476837,,pt2_unique_rating,1105561,Newport,,50,,,2,,,,,
null,,confidence_buffer,1105667,confidence_buffer,,null,,,,,,,,
1116.7000000476837,,pt2_memorable_rating,1106785,Newport,,53,,,5,,,,,
null,,confidence_buffer,1106897,confidence_buffer,,null,,,,,,,,
3758,,recognition_phase,1110656,Newport,,51,,,,,,new,1,0.7241379310344828
null,,confidence_buffer,1110766,confidence_buffer,,null,,,,,,,,
null,,thebreak,1111278,break,,null,,,,,,,,
2305.2999999523163,,realistic_rating,1113585,Clearbrook,,53,Clearbrook,Fictional,5,,,,,
null,,confidence_buffer,1113690,confidence_buffer,,null,,,,,,,,
2382,,pt2_unique_rating,1116072,Clearbrook,,52,,,4,,,,,
null,,confidence_buffer,1116181,confidence_buffer,,null,,,,,,,,
1234.8999999761581,,pt2_memorable_rating,1117416,Clearbrook,,53,,,5,,,,,
null,,confidence_buffer,1117518,confidence_buffer,,null,,,,,,,,
3873.1999999284744,,recognition_phase,1121392,Clearbrook,,50,,,,,,old,0,0.7
null,,confidence_buffer,1121501,confidence_buffer,,null,,,,,,,,
null,,thebreak,1122013,break,,null,,,,,,,,
2922.5,,realistic_rating,1124937,Redgrove,,53,Redgrove,Fictional,5,,,,,
null,,confidence_buffer,1125049,confidence_buffer,,null,,,,,,,,
559,,pt2_unique_rating,1125608,Redgrove,,50,,,2,,,,,
null,,confidence_buffer,1125718,confidence_buffer,,null,,,,,,,,
4905.200000047684,,pt2_memorable_rating,1130624,Redgrove,,51,,,3,,,,,
null,,confidence_buffer,1130727,confidence_buffer,,null,,,,,,,,
4071.9000000953674,,recognition_phase,1134800,Redgrove,,51,,,,,,new,0,0.6774193548387096
null,,confidence_buffer,1134905,confidence_buffer,,null,,,,,,,,
null,,thebreak,1135417,break,,null,,,,,,,,
3318.6999999284744,,realistic_rating,1138736,Medora,,53,Medora,US,5,,,,,
null,,confidence_buffer,1138838,confidence_buffer,,null,,,,,,,,
1905.1999999284744,,pt2_unique_rating,1140744,Medora,,52,,,4,,,,,
null,,confidence_buffer,1140848,confidence_buffer,,null,,,,,,,,
2399.399999976158,,pt2_memorable_rating,1143248,Medora,,51,,,3,,,,,
null,,confidence_buffer,1143363,confidence_buffer,,null,,,,,,,,
1700.6000000238419,,recognition_phase,1145064,Medora,,51,,,,,,new,0,0.65625
null,,confidence_buffer,1145180,confidence_buffer,,null,,,,,,,,
null,,thebreak,1145691,break,,null,,,,,,,,
2084.4000000953674,,realistic_rating,1147776,Crestwood,,53,Crestwood,Fictional,5,,,,,
null,,confidence_buffer,1147884,confidence_buffer,,null,,,,,,,,
2563.600000023842,,pt2_unique_rating,1150448,Crestwood,,51,,,3,,,,,
null,,confidence_buffer,1150564,confidence_buffer,,null,,,,,,,,
2891.600000023842,,pt2_memorable_rating,1153456,Crestwood,,51,,,3,,,,,
null,,confidence_buffer,1153569,confidence_buffer,,null,,,,,,,,
1702.2000000476837,,recognition_phase,1155272,Crestwood,,51,,,,,,new,0,0.6363636363636364
null,,confidence_buffer,1155381,confidence_buffer,,null,,,,,,,,
null,,thebreak,1155892,break,,null,,,,,,,,
2930.600000023842,,realistic_rating,1158824,New Verdan,,49,New Verdan,Fictional,1,,,,,
null,,confidence_buffer,1158926,confidence_buffer,,null,,,,,,,,
2088.7999999523163,,pt2_unique_rating,1161016,New Verdan,,52,,,4,,,,,
null,,confidence_buffer,1161131,confidence_buffer,,null,,,,,,,,
1540.5,,pt2_memorable_rating,1162672,New Verdan,,49,,,1,,,,,
null,,confidence_buffer,1162780,confidence_buffer,,null,,,,,,,,
1491,,recognition_phase,1164272,New Verdan,,52,,,,,,new,1,0.6470588235294118
null,,confidence_buffer,1164378,confidence_buffer,,null,,,,,,,,
null,,thebreak,1164891,break,,null,,,,,,,,
2499.899999976158,,realistic_rating,1167392,Hawthorne Bluffs,,52,Hawthorne Bluffs,Fictional,4,,,,,
null,,confidence_buffer,1167504,confidence_buffer,,null,,,,,,,,
1830.6000000238419,,probe_rating,1169336,probe_rating,,50,,,,2,1,,,
null,,confidence_buffer,1169446,confidence_buffer,,null,,,,,,,,
5873.200000047684,,pt2_unique_rating,1175320,Hawthorne Bluffs,,52,,,4,,,,,
null,,confidence_buffer,1175422,confidence_buffer,,null,,,,,,,,
2608.6999999284744,,pt2_memorable_rating,1178032,Hawthorne Bluffs,,52,,,4,,,,,
null,,confidence_buffer,1178145,confidence_buffer,,null,,,,,,,,
2757.5,,recognition_phase,1180904,Hawthorne Bluffs,,52,,,,,,new,1,0.6571428571428571
null,,confidence_buffer,1181009,confidence_buffer,,null,,,,,,,,
null,,thebreak,1181522,break,,null,,,,,,,,
4028.7999999523163,,realistic_rating,1185552,Golden Trace,,52,Golden Trace,Fictional,4,,,,,
null,,confidence_buffer,1185654,confidence_buffer,,null,,,,,,,,
1721.1999999284744,,pt2_unique_rating,1187376,Golden Trace,,53,,,5,,,,,
null,,confidence_buffer,1187490,confidence_buffer,,null,,,,,,,,
2900.5999999046326,,pt2_memorable_rating,1190392,Golden Trace,,52,,,4,,,,,
null,,confidence_buffer,1190499,confidence_buffer,,null,,,,,,,,
1523.5,,recognition_phase,1192024,Golden Trace,,52,,,,,,new,1,0.6666666666666666
null,,confidence_buffer,1192137,confidence_buffer,,null,,,,,,,,
null,,thebreak,1192648,break,,null,,,,,,,,
2558.8000000715256,,realistic_rating,1195208,Berkeley Springs,,53,Berkeley Springs,US,5,,,,,
null,,confidence_buffer,1195320,confidence_buffer,,null,,,,,,,,
1735.6000000238419,,pt2_unique_rating,1197056,Berkeley Springs,,49,,,1,,,,,
null,,confidence_buffer,1197170,confidence_buffer,,null,,,,,,,,
2068.2999999523163,,pt2_memorable_rating,1199240,Berkeley Springs,,51,,,3,,,,,
null,,confidence_buffer,1199342,confidence_buffer,,null,,,,,,,,
1880.7999999523163,,recognition_phase,1201224,Berkeley Springs,,51,,,,,,new,1,0.6756756756756757
null,,confidence_buffer,1201331,confidence_buffer,,null,,,,,,,,
null,,thebreak,1201843,break,,null,,,,,,,,
4011.7000000476837,,realistic_rating,1205856,Assateague Island,,51,Assateague Island,US,3,,,,,
null,,confidence_buffer,1205970,confidence_buffer,,null,,,,,,,,
1596.7000000476837,,pt2_unique_rating,1207568,Assateague Island,,53,,,5,,,,,
null,,confidence_buffer,1207680,confidence_buffer,,null,,,,,,,,
2758.2999999523163,,pt2_memorable_rating,1210440,Assateague Island,,53,,,5,,,,,
null,,confidence_buffer,1210544,confidence_buffer,,null,,,,,,,,
1278.8000000715256,,recognition_phase,1211824,Assateague Island,,52,,,,,,new,0,0.6578947368421053
null,,confidence_buffer,1211927,confidence_buffer,,null,,,,,,,,
null,,thebreak,1212440,break,,null,,,,,,,,
3310,,realistic_rating,1215751,Solara Glen,,50,Solara Glen,Fictional,2,,,,,
null,,confidence_buffer,1215859,confidence_buffer,,null,,,,,,,,
2827.600000023842,,pt2_unique_rating,1218688,Solara Glen,,52,,,4,,,,,
null,,confidence_buffer,1218800,confidence_buffer,,null,,,,,,,,
3038.7999999523163,,pt2_memorable_rating,1221839,Solara Glen,,52,,,4,,,,,
null,,confidence_buffer,1221953,confidence_buffer,,null,,,,,,,,
1332.8999999761581,,recognition_phase,1223287,Solara Glen,,52,,,,,,new,1,0.6666666666666666
null,,confidence_buffer,1223399,confidence_buffer,,null,,,,,,,,
null,,thebreak,1223909,break,,null,,,,,,,,
3345.100000023842,,realistic_rating,1227256,Delaro Park,,53,Delaro Park,Fictional,5,,,,,
null,,confidence_buffer,1227358,confidence_buffer,,null,,,,,,,,
1985,,pt2_unique_rating,1229344,Delaro Park,,52,,,4,,,,,
null,,confidence_buffer,1229457,confidence_buffer,,null,,,,,,,,
1333.8000000715256,,pt2_memorable_rating,1230791,Delaro Park,,51,,,3,,,,,
null,,confidence_buffer,1230902,confidence_buffer,,null,,,,,,,,
1416.6999999284744,,recognition_phase,1232319,Delaro Park,,52,,,,,,new,1,0.675
null,,confidence_buffer,1232428,confidence_buffer,,null,,,,,,,,
null,,thebreak,1232942,break,,null,,,,,,,,
3072.100000023842,,realistic_rating,1236014,Cornwall,,53,Cornwall,US,5,,,,,
null,,confidence_buffer,1236120,confidence_buffer,,null,,,,,,,,
1534.8999999761581,,pt2_unique_rating,1237655,Cornwall,,51,,,3,,,,,
null,,confidence_buffer,1237765,confidence_buffer,,null,,,,,,,,
1113,,pt2_memorable_rating,1238879,Cornwall,,53,,,5,,,,,
null,,confidence_buffer,1238995,confidence_buffer,,null,,,,,,,,
1387.7000000476837,,recognition_phase,1240384,Cornwall,,50,,,,,,old,0,0.6585365853658537
null,,confidence_buffer,1240488,confidence_buffer,,null,,,,,,,,
null,,thebreak,1240998,break,,null,,,,,,,,
5687.900000095367,,realistic_rating,1246687,Baymarsh,,51,Baymarsh,Fictional,3,,,,,
null,,confidence_buffer,1246799,confidence_buffer,,null,,,,,,,,
1847.6000000238419,,pt2_unique_rating,1248647,Baymarsh,,50,,,2,,,,,
null,,confidence_buffer,1248761,confidence_buffer,,null,,,,,,,,
2813.7999999523163,,pt2_memorable_rating,1251575,Baymarsh,,51,,,3,,,,,
null,,confidence_buffer,1251686,confidence_buffer,,null,,,,,,,,
1408.5,,recognition_phase,1253095,Baymarsh,,50,,,,,,old,1,0.6666666666666666
null,,confidence_buffer,1253209,confidence_buffer,,null,,,,,,,,
null,,thebreak,1253723,break,,null,,,,,,,,
3115.399999976158,,realistic_rating,1256839,Montelake,,52,Montelake,Fictional,4,,,,,
null,,confidence_buffer,1256951,confidence_buffer,,null,,,,,,,,
1471.2999999523163,,pt2_unique_rating,1258423,Montelake,,50,,,2,,,,,
null,,confidence_buffer,1258536,confidence_buffer,,null,,,,,,,,
1254.4000000953674,,pt2_memorable_rating,1259791,Montelake,,50,,,2,,,,,
null,,confidence_buffer,1259903,confidence_buffer,,null,,,,,,,,
3631.5999999046326,,recognition_phase,1263535,Montelake,,51,,,,,,new,0,0.6511627906976745
null,,confidence_buffer,1263647,confidence_buffer,,null,,,,,,,,
null,,thebreak,1264157,break,,null,,,,,,,,
3337.100000023842,,realistic_rating,1267495,Abilene,,53,Abilene,US,5,,,,,
null,,confidence_buffer,1267598,confidence_buffer,,null,,,,,,,,
1319.6999999284744,,pt2_unique_rating,1268919,Abilene,,53,,,5,,,,,
null,,confidence_buffer,1269031,confidence_buffer,,null,,,,,,,,
982.8000000715256,,pt2_memorable_rating,1270015,Abilene,,53,,,5,,,,,
null,,confidence_buffer,1270117,confidence_buffer,,null,,,,,,,,
1241.3000000715256,,recognition_phase,1271359,Abilene,,52,,,,,,new,0,0.6363636363636364
null,,confidence_buffer,1271466,confidence_buffer,,null,,,,,,,,
null,,thebreak,1271981,break,,null,,,,,,,,
4280.800000071526,,realistic_rating,1276263,Linden Trace,,52,Linden Trace,Fictional,4,,,,,
null,,confidence_buffer,1276364,confidence_buffer,,null,,,,,,,,
1249.6999999284744,,pt2_unique_rating,1277615,Linden Trace,,50,,,2,,,,,
null,,confidence_buffer,1277719,confidence_buffer,,null,,,,,,,,
2143.100000023842,,pt2_memorable_rating,1279863,Linden Trace,,51,,,3,,,,,
null,,confidence_buffer,1279975,confidence_buffer,,null,,,,,,,,
1414.8999999761581,,recognition_phase,1281391,Linden Trace,,50,,,,,,old,1,0.6444444444444445
null,,confidence_buffer,1281502,confidence_buffer,,null,,,,,,,,
null,,thebreak,1282014,break,,null,,,,,,,,
3815.7999999523163,,realistic_rating,1285831,Duck,,51,Duck,US,3,,,,,
null,,confidence_buffer,1285945,confidence_buffer,,null,,,,,,,,
2613.5,,pt2_unique_rating,1288559,Duck,,53,,,5,,,,,
null,,confidence_buffer,1288670,confidence_buffer,,null,,,,,,,,
728.3000000715256,,pt2_memorable_rating,1289399,Duck,,53,,,5,,,,,
null,,confidence_buffer,1289512,confidence_buffer,,null,,,,,,,,
1862.0999999046326,,recognition_phase,1291375,Duck,,52,,,,,,new,1,0.6521739130434783
null,,confidence_buffer,1291487,confidence_buffer,,null,,,,,,,,
null,,thebreak,1292002,break,,null,,,,,,,,
2563.3000000715256,,realistic_rating,1294567,Gardnerville,,52,Gardnerville,US,4,,,,,
null,,confidence_buffer,1294679,confidence_buffer,,null,,,,,,,,
1646.8000000715256,,pt2_unique_rating,1296327,Gardnerville,,52,,,4,,,,,
null,,confidence_buffer,1296431,confidence_buffer,,null,,,,,,,,
1510.7999999523163,,pt2_memorable_rating,1297942,Gardnerville,,51,,,3,,,,,
null,,confidence_buffer,1298047,confidence_buffer,,null,,,,,,,,
1407.5,,recognition_phase,1299455,Gardnerville,,51,,,,,,new,1,0.6595744680851063
null,,confidence_buffer,1299556,confidence_buffer,,null,,,,,,,,
null,,thebreak,1300070,break,,null,,,,,,,,
2696.100000023842,,realistic_rating,1302767,Delaware City,,53,Delaware City,US,5,,,,,
null,,confidence_buffer,1302871,confidence_buffer,,null,,,,,,,,
2726.7000000476837,,pt2_unique_rating,1305599,Delaware City,,49,,,1,,,,,
null,,confidence_buffer,1305712,confidence_buffer,,null,,,,,,,,
1813.8000000715256,,probe_rating,1307527,probe_rating,,49,,,,1,1,,,
null,,confidence_buffer,1307630,confidence_buffer,,null,,,,,,,,
2775.5,,pt2_memorable_rating,1310407,Delaware City,,53,,,5,,,,,
null,,confidence_buffer,1310510,confidence_buffer,,null,,,,,,,,
1327.2000000476837,,recognition_phase,1311838,Delaware City,,49,,,,,,old,1,0.6666666666666666
null,,confidence_buffer,1311952,confidence_buffer,,null,,,,,,,,
null,,thebreak,1312466,break,,null,,,,,,,,
2403.2999999523163,,realistic_rating,1314870,Lakehaven,,52,Lakehaven,Fictional,4,,,,,
null,,confidence_buffer,1314983,confidence_buffer,,null,,,,,,,,
1334.0999999046326,,pt2_unique_rating,1316318,Lakehaven,,50,,,2,,,,,
null,,confidence_buffer,1316431,confidence_buffer,,null,,,,,,,,
1415,,pt2_memorable_rating,1317846,Lakehaven,,52,,,4,,,,,
null,,confidence_buffer,1317955,confidence_buffer,,null,,,,,,,,
2258.7999999523163,,recognition_phase,1320214,Lakehaven,,50,,,,,,old,0,0.6530612244897959
null,,confidence_buffer,1320319,confidence_buffer,,null,,,,,,,,
null,,thebreak,1320832,break,,null,,,,,,,,
3509.600000023842,,realistic_rating,1324343,Custer,,53,Custer,US,5,,,,,
null,,confidence_buffer,1324445,confidence_buffer,,null,,,,,,,,
1784.1999999284744,,pt2_unique_rating,1326230,Custer,,51,,,3,,,,,
null,,confidence_buffer,1326344,confidence_buffer,,null,,,,,,,,
1693.5,,pt2_memorable_rating,1328038,Custer,,52,,,4,,,,,
null,,confidence_buffer,1328148,confidence_buffer,,null,,,,,,,,
1769.8999999761581,,recognition_phase,1329918,Custer,,52,,,,,,new,1,0.66
null,,confidence_buffer,1330028,confidence_buffer,,null,,,,,,,,
null,,thebreak,1330540,break,,null,,,,,,,,
2457.4000000953674,,realistic_rating,1332998,Juniper Creek,,53,Juniper Creek,Fictional,5,,,,,
null,,confidence_buffer,1333108,confidence_buffer,,null,,,,,,,,
1873.7999999523163,,pt2_unique_rating,1334982,Juniper Creek,,51,,,3,,,,,
null,,confidence_buffer,1335096,confidence_buffer,,null,,,,,,,,
1141.6999999284744,,pt2_memorable_rating,1336238,Juniper Creek,,53,,,5,,,,,
null,,confidence_buffer,1336353,confidence_buffer,,null,,,,,,,,
1828.5,,recognition_phase,1338182,Juniper Creek,,50,,,,,,old,1,0.6666666666666666
null,,confidence_buffer,1338295,confidence_buffer,,null,,,,,,,,
null,,thebreak,1338808,break,,null,,,,,,,,
5380.700000047684,,realistic_rating,1344190,North Arroya,,49,North Arroya,Fictional,1,,,,,
null,,confidence_buffer,1344293,confidence_buffer,,null,,,,,,,,
1783.8000000715256,,pt2_unique_rating,1346078,North Arroya,,52,,,4,,,,,
null,,confidence_buffer,1346182,confidence_buffer,,null,,,,,,,,
2039.7000000476837,,pt2_memorable_rating,1348222,North Arroya,,52,,,4,,,,,
null,,confidence_buffer,1348330,confidence_buffer,,null,,,,,,,,
1443,,recognition_phase,1349774,North Arroya,,52,,,,,,new,1,0.6730769230769231
null,,confidence_buffer,1349881,confidence_buffer,,null,,,,,,,,
null,,thebreak,1350395,break,,null,,,,,,,,
3034.600000023842,,realistic_rating,1353430,Sunmere,,49,Sunmere,Fictional,1,,,,,
null,,confidence_buffer,1353540,confidence_buffer,,null,,,,,,,,
1832.8000000715256,,pt2_unique_rating,1355374,Sunmere,,50,,,2,,,,,
null,,confidence_buffer,1355485,confidence_buffer,,null,,,,,,,,
1848.2999999523163,,pt2_memorable_rating,1357334,Sunmere,,50,,,2,,,,,
null,,confidence_buffer,1357447,confidence_buffer,,null,,,,,,,,
2726.399999976158,,recognition_phase,1360174,Sunmere,,52,,,,,,new,1,0.6792452830188679
null,,confidence_buffer,1360283,confidence_buffer,,null,,,,,,,,
null,,thebreak,1360794,break,,null,,,,,,,,
1866.8999999761581,,realistic_rating,1362662,Carmel,,53,Carmel,US,5,,,,,
null,,confidence_buffer,1362770,confidence_buffer,,null,,,,,,,,
1283,,pt2_unique_rating,1364054,Carmel,,53,,,5,,,,,
null,,confidence_buffer,1364169,confidence_buffer,,null,,,,,,,,
803.3000000715256,,pt2_memorable_rating,1364974,Carmel,,53,,,5,,,,,
null,,confidence_buffer,1365088,confidence_buffer,,null,,,,,,,,
1597.6000000238419,,recognition_phase,1366686,Carmel,,49,,,,,,old,1,0.6851851851851852
null,,confidence_buffer,1366795,confidence_buffer,,null,,,,,,,,
null,,thebreak,1367307,break,,null,,,,,,,,
4489.899999976158,,realistic_rating,1371798,Healdsburg,,49,Healdsburg,US,1,,,,,
null,,confidence_buffer,1371914,confidence_buffer,,null,,,,,,,,
2755.600000023842,,pt2_unique_rating,1374670,Healdsburg,,50,,,2,,,,,
null,,confidence_buffer,1374783,confidence_buffer,,null,,,,,,,,
1869.6999999284744,,pt2_memorable_rating,1376654,Healdsburg,,50,,,2,,,,,
null,,confidence_buffer,1376759,confidence_buffer,,null,,,,,,,,
1573.7999999523163,,recognition_phase,1378334,Healdsburg,,52,,,,,,new,0,0.6727272727272727
null,,confidence_buffer,1378435,confidence_buffer,,null,,,,,,,,
null,,thebreak,1378940,break,,null,,,,,,,,
1865.2000000476837,,realistic_rating,1380806,Yukon,,53,Yukon,US,5,,,,,
null,,confidence_buffer,1380918,confidence_buffer,,null,,,,,,,,
1159.1000000238419,,pt2_unique_rating,1382078,Yukon,,52,,,4,,,,,
null,,confidence_buffer,1382194,confidence_buffer,,null,,,,,,,,
1010.8000000715256,,pt2_memorable_rating,1383206,Yukon,,53,,,5,,,,,
null,,confidence_buffer,1383316,confidence_buffer,,null,,,,,,,,
1608.5999999046326,,recognition_phase,1384926,Yukon,,49,,,,,,old,1,0.6785714285714286
null,,confidence_buffer,1385042,confidence_buffer,,null,,,,,,,,
null,,thebreak,1385554,break,,null,,,,,,,,
4778.700000047684,,realistic_rating,1390334,Sammamish,,50,Sammamish,US,2,,,,,
null,,confidence_buffer,1390441,confidence_buffer,,null,,,,,,,,
1555.3000000715256,,pt2_unique_rating,1391998,Sammamish,,53,,,5,,,,,
null,,confidence_buffer,1392110,confidence_buffer,,null,,,,,,,,
2335.100000023842,,pt2_memorable_rating,1394446,Sammamish,,52,,,4,,,,,
null,,confidence_buffer,1394549,confidence_buffer,,null,,,,,,,,
1663.7999999523163,,recognition_phase,1396214,Sammamish,,52,,,,,,new,1,0.6842105263157895
null,,confidence_buffer,1396321,confidence_buffer,,null,,,,,,,,
null,,thebreak,1396833,break,,null,,,,,,,,
15211.899999976158,,realistic_rating,1412045,Cody,,53,Cody,US,5,,,,,
null,,confidence_buffer,1412158,confidence_buffer,,null,,,,,,,,
1566.2999999523163,,pt2_unique_rating,1413726,Cody,,52,,,4,,,,,
null,,confidence_buffer,1413838,confidence_buffer,,null,,,,,,,,
2903.100000023842,,pt2_memorable_rating,1416742,Cody,,53,,,5,,,,,
null,,confidence_buffer,1416848,confidence_buffer,,null,,,,,,,,
1823.8999999761581,,recognition_phase,1418672,Cody,,49,,,,,,old,1,0.6896551724137931
null,,confidence_buffer,1418788,confidence_buffer,,null,,,,,,,,
null,,thebreak,1419303,break,,null,,,,,,,,
2997.7000000476837,,realistic_rating,1422302,Lake of the Ozarks,,53,Lake of the Ozarks,US,5,,,,,
null,,confidence_buffer,1422405,confidence_buffer,,null,,,,,,,,
983.5,,pt2_unique_rating,1423390,Lake of the Ozarks,,53,,,5,,,,,
null,,confidence_buffer,1423496,confidence_buffer,,null,,,,,,,,
1876.7999999523163,,probe_rating,1425374,probe_rating,,49,,,,1,1,,,
null,,confidence_buffer,1425483,confidence_buffer,,null,,,,,,,,
2441.399999976158,,pt2_memorable_rating,1427925,Lake of the Ozarks,,53,,,5,,,,,
null,,confidence_buffer,1428029,confidence_buffer,,null,,,,,,,,
1527.1000000238419,,recognition_phase,1429557,Lake of the Ozarks,,49,,,,,,old,1,0.6949152542372882
null,,confidence_buffer,1429666,confidence_buffer,,null,,,,,,,,
null,,thebreak,1430180,break,,null,,,,,,,,
2400.600000023842,,realistic_rating,1432581,Silverpine,,53,Silverpine,Fictional,5,,,,,
null,,confidence_buffer,1432697,confidence_buffer,,null,,,,,,,,
1715,,pt2_unique_rating,1434413,Silverpine,,51,,,3,,,,,
null,,confidence_buffer,1434529,confidence_buffer,,null,,,,,,,,
1171.6999999284744,,pt2_memorable_rating,1435701,Silverpine,,53,,,5,,,,,
null,,confidence_buffer,1435805,confidence_buffer,,null,,,,,,,,
1062.8000000715256,,recognition_phase,1436869,Silverpine,,49,,,,,,old,1,0.7
null,,confidence_buffer,1436973,confidence_buffer,,null,,,,,,,,
null,,thebreak,1437487,break,,null,,,,,,,,
