rt,responses,trial_type,time_elapsed,stimulus,button_pressed,key_press,name_trial,city_type,rating,probe,probe_accuracy,response,correct,accuracy
16362.299999982119,{worker_id:6547bc8b96f7aaaa7fb9f7fd},id_enter,16368,,,,,,,,,,,
19047.399999976158,,fullscreen,35416,fullscreen,0,,,,,,,,,
8291.699999988079,,intro_0,43709,instruct,,32,,,,,,,,
10036.799999982119,,intro_1,53748,instruct,,32,,,,,,,,
7146.699999988079,,intro_2,60895,instruct,,32,,,,,,,,
null,,instruct_dir_4,62397,instruct,,null,,,,,,,,
null,,thebreak,62899,break,,null,,,,,,,,
13022.59999999404,,familiar_rating,75924,Stonebrook,,50,Stonebrook,Fictional,2,,,,,
null,,confidence_buffer,76026,confidence_buffer,,null,,,,,,,,
5912.4000000059605,,unique_rating,81940,Stonebrook,,50,,,2,,,,,
null,,confidence_buffer,82042,confidence_buffer,,null,,,,,,,,
9829.09999999404,,memorable_rating,91871,Stonebrook,,52,,,4,,,,,
null,,confidence_buffer,91972,confidence_buffer,,null,,,,,,,,
null,,thebreak,92473,break,,null,,,,,,,,
3792.4000000059605,,familiar_rating,96267,Elmsbury,,50,Elmsbury,Fictional,2,,,,,
null,,confidence_buffer,96369,confidence_buffer,,null,,,,,,,,
6471.0999999940395,,unique_rating,102841,Elmsbury,,52,,,4,,,,,
null,,confidence_buffer,102943,confidence_buffer,,null,,,,,,,,
4347.200000017881,,memorable_rating,107291,Elmsbury,,51,,,3,,,,,
null,,confidence_buffer,107393,confidence_buffer,,null,,,,,,,,
null,,thebreak,107895,break,,null,,,,,,,,
4986.0999999940395,,familiar_rating,112883,Healdsburg,,49,Healdsburg,US,1,,,,,
null,,confidence_buffer,112985,confidence_buffer,,null,,,,,,,,
3320.2999999821186,,unique_rating,116307,Healdsburg,,53,,,5,,,,,
null,,confidence_buffer,116409,confidence_buffer,,null,,,,,,,,
2313.0999999940395,,memorable_rating,118723,Healdsburg,,50,,,2,,,,,
null,,confidence_buffer,118826,confidence_buffer,,null,,,,,,,,
null,,thebreak,119328,break,,null,,,,,,,,
6839.0999999940395,,familiar_rating,126168,Livingston,,52,Livingston,US,4,,,,,
null,,confidence_buffer,126269,confidence_buffer,,null,,,,,,,,
6061.199999988079,,unique_rating,132331,Livingston,,53,,,5,,,,,
null,,confidence_buffer,132433,confidence_buffer,,null,,,,,,,,
3301.4000000059605,,memorable_rating,135735,Livingston,,53,,,5,,,,,
null,,confidence_buffer,135836,confidence_buffer,,null,,,,,,,,
null,,thebreak,136338,break,,null,,,,,,,,
8123.9000000059605,,familiar_rating,144463,Northbridge,,53,Northbridge,Fictional,5,,,,,
null,,confidence_buffer,144565,confidence_buffer,,null,,,,,,,,
3873.399999976158,,unique_rating,148438,Northbridge,,51,,,3,,,,,
null,,confidence_buffer,148539,confidence_buffer,,null,,,,,,,,
3019.5,,memorable_rating,151560,Northbridge,,53,,,5,,,,,
null,,confidence_buffer,151661,confidence_buffer,,null,,,,,,,,
null,,thebreak,152164,break,,null,,,,,,,,
4524.700000017881,,familiar_rating,156690,Delaware City,,51,Delaware City,US,3,,,,,
null,,confidence_buffer,156792,confidence_buffer,,null,,,,,,,,
4749.4000000059605,,unique_rating,161542,Delaware City,,49,,,1,,,,,
null,,confidence_buffer,161650,confidence_buffer,,null,,,,,,,,
5151.800000011921,,memorable_rating,166802,Delaware City,,51,,,3,,,,,
null,,confidence_buffer,166904,confidence_buffer,,null,,,,,,,,
null,,thebreak,167406,break,,null,,,,,,,,
3891.5999999940395,,familiar_rating,171298,Ironwood Heights,,49,Ironwood Heights,Fictional,1,,,,,
null,,confidence_buffer,171400,confidence_buffer,,null,,,,,,,,
2640.4000000059605,,unique_rating,174042,Ironwood Heights,,53,,,5,,,,,
null,,confidence_buffer,174144,confidence_buffer,,null,,,,,,,,
5385.300000011921,,probe_rating,179531,probe_rating,,50,,,,2,1,,,
null,,confidence_buffer,179633,confidence_buffer,,null,,,,,,,,
8015.799999982119,,memorable_rating,187650,Ironwood Heights,,51,,,3,,,,,
null,,confidence_buffer,187752,confidence_buffer,,null,,,,,,,,
null,,thebreak,188253,break,,null,,,,,,,,
4036.2999999821186,,familiar_rating,192291,Bowling Green,,53,Bowling Green,US,5,,,,,
null,,confidence_buffer,192393,confidence_buffer,,null,,,,,,,,
1707.7000000178814,,unique_rating,194102,Bowling Green,,53,,,5,,,,,
null,,confidence_buffer,194204,confidence_buffer,,null,,,,,,,,
2258,,probe_rating,196462,probe_rating,,49,,,,1,1,,,
null,,confidence_buffer,196564,confidence_buffer,,null,,,,,,,,
6370.4000000059605,,memorable_rating,202934,Bowling Green,,52,,,4,,,,,
null,,confidence_buffer,203037,confidence_buffer,,null,,,,,,,,
null,,thebreak,203539,break,,null,,,,,,,,
4826.800000011921,,familiar_rating,208366,Golden Trace,,49,Golden Trace,Fictional,1,,,,,
null,,confidence_buffer,208467,confidence_buffer,,null,,,,,,,,
2622.2000000178814,,unique_rating,211089,Golden Trace,,53,,,5,,,,,
null,,confidence_buffer,211192,confidence_buffer,,null,,,,,,,,
5361.0999999940395,,memorable_rating,216554,Golden Trace,,52,,,4,,,,,
null,,confidence_buffer,216656,confidence_buffer,,null,,,,,,,,
null,,thebreak,217158,break,,null,,,,,,,,
3242.0999999940395,,familiar_rating,220401,Claywater,,49,Claywater,Fictional,1,,,,,
null,,confidence_buffer,220503,confidence_buffer,,null,,,,,,,,
2712.899999976158,,unique_rating,223217,Claywater,,53,,,5,,,,,
null,,confidence_buffer,223319,confidence_buffer,,null,,,,,,,,
1777,,probe_rating,225098,probe_rating,,50,,,,2,1,,,
null,,confidence_buffer,225200,confidence_buffer,,null,,,,,,,,
9093.5,,memorable_rating,234294,Claywater,,52,,,4,,,,,
null,,confidence_buffer,234396,confidence_buffer,,null,,,,,,,,
null,,thebreak,234898,break,,null,,,,,,,,
8135.200000017881,,familiar_rating,243034,Summershade,,49,Summershade,Fictional,1,,,,,
null,,confidence_buffer,243137,confidence_buffer,,null,,,,,,,,
16367.199999988079,,unique_rating,259505,Summershade,,53,,,5,,,,,
null,,confidence_buffer,259607,confidence_buffer,,null,,,,,,,,
4031.0999999940395,,memorable_rating,263639,Summershade,,53,,,5,,,,,
null,,confidence_buffer,263740,confidence_buffer,,null,,,,,,,,
null,,thebreak,264242,break,,null,,,,,,,,
3326.5999999940395,,familiar_rating,267570,Riverlyn,,49,Riverlyn,Fictional,1,,,,,
null,,confidence_buffer,267672,confidence_buffer,,null,,,,,,,,
1592.2999999821186,,unique_rating,269265,Riverlyn,,53,,,5,,,,,
null,,confidence_buffer,269367,confidence_buffer,,null,,,,,,,,
3569.5,,memorable_rating,272938,Riverlyn,,51,,,3,,,,,
null,,confidence_buffer,273039,confidence_buffer,,null,,,,,,,,
null,,thebreak,273540,break,,null,,,,,,,,
3492.300000011921,,familiar_rating,277034,North Arroya,,49,North Arroya,Fictional,1,,,,,
null,,confidence_buffer,277136,confidence_buffer,,null,,,,,,,,
4639.9000000059605,,unique_rating,281777,North Arroya,,53,,,5,,,,,
null,,confidence_buffer,281879,confidence_buffer,,null,,,,,,,,
2796.9000000059605,,memorable_rating,284677,North Arroya,,50,,,2,,,,,
null,,confidence_buffer,284779,confidence_buffer,,null,,,,,,,,
null,,thebreak,285280,break,,null,,,,,,,,
3064.2999999821186,,familiar_rating,288345,Highvale,,49,Highvale,Fictional,1,,,,,
null,,confidence_buffer,288447,confidence_buffer,,null,,,,,,,,
5360.9000000059605,,unique_rating,293809,Highvale,,51,,,3,,,,,
null,,confidence_buffer,293911,confidence_buffer,,null,,,,,,,,
1953.3999999761581,,probe_rating,295865,probe_rating,,50,,,,2,1,,,
null,,confidence_buffer,295968,confidence_buffer,,null,,,,,,,,
7072.0999999940395,,memorable_rating,303041,Highvale,,50,,,2,,,,,
null,,confidence_buffer,303143,confidence_buffer,,null,,,,,,,,
null,,thebreak,303644,break,,null,,,,,,,,
3544.0999999940395,,familiar_rating,307189,Athens,,53,Athens,US,5,,,,,
null,,confidence_buffer,307290,confidence_buffer,,null,,,,,,,,
5085.4000000059605,,unique_rating,312377,Athens,,51,,,3,,,,,
null,,confidence_buffer,312479,confidence_buffer,,null,,,,,,,,
2372.9000000059605,,memorable_rating,314853,Athens,,53,,,5,,,,,
null,,confidence_buffer,314955,confidence_buffer,,null,,,,,,,,
null,,thebreak,315456,break,,null,,,,,,,,
9032.300000011921,,familiar_rating,324489,Crestwood,,51,Crestwood,Fictional,3,,,,,
null,,confidence_buffer,324591,confidence_buffer,,null,,,,,,,,
3343.300000011921,,unique_rating,327935,Crestwood,,52,,,4,,,,,
null,,confidence_buffer,328038,confidence_buffer,,null,,,,,,,,
1794,,probe_rating,329833,probe_rating,,50,,,,2,1,,,
null,,confidence_buffer,329935,confidence_buffer,,null,,,,,,,,
3199.800000011921,,memorable_rating,333137,Crestwood,,53,,,5,,,,,
null,,confidence_buffer,333238,confidence_buffer,,null,,,,,,,,
null,,thebreak,333740,break,,null,,,,,,,,
4980,,familiar_rating,338721,Driftwood Bay,,50,Driftwood Bay,Fictional,2,,,,,
null,,confidence_buffer,338823,confidence_buffer,,null,,,,,,,,
2863.899999976158,,probe_rating,341689,probe_rating,,49,,,,1,1,,,
null,,confidence_buffer,341791,confidence_buffer,,null,,,,,,,,
4328.699999988079,,unique_rating,346121,Driftwood Bay,,53,,,5,,,,,
null,,confidence_buffer,346223,confidence_buffer,,null,,,,,,,,
2936.5,,memorable_rating,349161,Driftwood Bay,,52,,,4,,,,,
null,,confidence_buffer,349263,confidence_buffer,,null,,,,,,,,
null,,thebreak,349764,break,,null,,,,,,,,
3796.5,,familiar_rating,353561,Linden Trace,,49,Linden Trace,Fictional,1,,,,,
null,,confidence_buffer,353664,confidence_buffer,,null,,,,,,,,
6739.799999982119,,unique_rating,360405,Linden Trace,,51,,,3,,,,,
null,,confidence_buffer,360506,confidence_buffer,,null,,,,,,,,
2686.0999999940395,,memorable_rating,363193,Linden Trace,,50,,,2,,,,,
null,,confidence_buffer,363294,confidence_buffer,,null,,,,,,,,
null,,thebreak,363796,break,,null,,,,,,,,
3992.100000023842,,familiar_rating,367789,Park City,,53,Park City,US,5,,,,,
null,,confidence_buffer,367891,confidence_buffer,,null,,,,,,,,
5152.5999999940395,,unique_rating,373045,Park City,,50,,,2,,,,,
null,,confidence_buffer,373146,confidence_buffer,,null,,,,,,,,
3411.600000023842,,memorable_rating,376558,Park City,,53,,,5,,,,,
null,,confidence_buffer,376664,confidence_buffer,,null,,,,,,,,
null,,thebreak,377166,break,,null,,,,,,,,
3969.4000000059605,,familiar_rating,381137,Barnard,,49,Barnard,US,1,,,,,
null,,confidence_buffer,381239,confidence_buffer,,null,,,,,,,,
3952.5999999940395,,unique_rating,385193,Barnard,,49,,,1,,,,,
null,,confidence_buffer,385295,confidence_buffer,,null,,,,,,,,
2856.9000000059605,,memorable_rating,388153,Barnard,,50,,,2,,,,,
null,,confidence_buffer,388254,confidence_buffer,,null,,,,,,,,
null,,thebreak,388755,break,,null,,,,,,,,
3063.199999988079,,familiar_rating,391819,Orr,,49,Orr,US,1,,,,,
null,,confidence_buffer,391921,confidence_buffer,,null,,,,,,,,
2861.699999988079,,unique_rating,394784,Orr,,49,,,1,,,,,
null,,confidence_buffer,394886,confidence_buffer,,null,,,,,,,,
8265.5,,memorable_rating,403153,Orr,,51,,,3,,,,,
null,,confidence_buffer,403254,confidence_buffer,,null,,,,,,,,
null,,thebreak,403755,break,,null,,,,,,,,
5723.5,,familiar_rating,409480,Hilo,,51,Hilo,US,3,,,,,
null,,confidence_buffer,409582,confidence_buffer,,null,,,,,,,,
2800.800000011921,,unique_rating,412384,Hilo,,53,,,5,,,,,
null,,confidence_buffer,412487,confidence_buffer,,null,,,,,,,,
2636.300000011921,,memorable_rating,415124,Hilo,,53,,,5,,,,,
null,,confidence_buffer,415225,confidence_buffer,,null,,,,,,,,
null,,thebreak,415739,break,,null,,,,,,,,
5171.5,,familiar_rating,420912,Westridge,,51,Westridge,Fictional,3,,,,,
null,,confidence_buffer,421014,confidence_buffer,,null,,,,,,,,
3013.0999999940395,,unique_rating,424028,Westridge,,50,,,2,,,,,
null,,confidence_buffer,424129,confidence_buffer,,null,,,,,,,,
4966,,memorable_rating,429097,Westridge,,51,,,3,,,,,
null,,confidence_buffer,429199,confidence_buffer,,null,,,,,,,,
null,,thebreak,429702,break,,null,,,,,,,,
5517.199999988079,,familiar_rating,435220,Pine Hollow,,51,Pine Hollow,Fictional,3,,,,,
null,,confidence_buffer,435321,confidence_buffer,,null,,,,,,,,
4614.0999999940395,,unique_rating,439936,Pine Hollow,,52,,,4,,,,,
null,,confidence_buffer,440038,confidence_buffer,,null,,,,,,,,
3489.5999999940395,,memorable_rating,443529,Pine Hollow,,52,,,4,,,,,
null,,confidence_buffer,443634,confidence_buffer,,null,,,,,,,,
null,,thebreak,444136,break,,null,,,,,,,,
3438.9000000059605,,familiar_rating,447576,Boulder,,53,Boulder,US,5,,,,,
null,,confidence_buffer,447678,confidence_buffer,,null,,,,,,,,
5984.5999999940395,,unique_rating,453664,Boulder,,52,,,4,,,,,
null,,confidence_buffer,453766,confidence_buffer,,null,,,,,,,,
2800,,memorable_rating,456568,Boulder,,53,,,5,,,,,
null,,confidence_buffer,456669,confidence_buffer,,null,,,,,,,,
null,,thebreak,457172,break,,null,,,,,,,,
2930.100000023842,,familiar_rating,460103,Gardnerville,,49,Gardnerville,US,1,,,,,
null,,confidence_buffer,460205,confidence_buffer,,null,,,,,,,,
5917.399999976158,,unique_rating,466124,Gardnerville,,51,,,3,,,,,
null,,confidence_buffer,466226,confidence_buffer,,null,,,,,,,,
2795.699999988079,,probe_rating,469023,probe_rating,,53,,,,5,1,,,
null,,confidence_buffer,469125,confidence_buffer,,null,,,,,,,,
3122,,memorable_rating,472248,Gardnerville,,51,,,3,,,,,
null,,confidence_buffer,472350,confidence_buffer,,null,,,,,,,,
null,,thebreak,472852,break,,null,,,,,,,,
4878.5,,familiar_rating,477731,Cape May,,51,Cape May,US,3,,,,,
null,,confidence_buffer,477832,confidence_buffer,,null,,,,,,,,
4690.600000023842,,unique_rating,482523,Cape May,,50,,,2,,,,,
null,,confidence_buffer,482625,confidence_buffer,,null,,,,,,,,
5006.300000011921,,memorable_rating,487632,Cape May,,52,,,4,,,,,
null,,confidence_buffer,487734,confidence_buffer,,null,,,,,,,,
null,,thebreak,488235,break,,null,,,,,,,,
3588.100000023842,,familiar_rating,491824,Racine,,49,Racine,US,1,,,,,
null,,confidence_buffer,491926,confidence_buffer,,null,,,,,,,,
2055.800000011921,,unique_rating,493983,Racine,,53,,,5,,,,,
null,,confidence_buffer,494085,confidence_buffer,,null,,,,,,,,
2416.5999999940395,,probe_rating,496503,probe_rating,,49,,,,1,1,,,
null,,confidence_buffer,496605,confidence_buffer,,null,,,,,,,,
3713.4000000059605,,memorable_rating,500319,Racine,,52,,,4,,,,,
null,,confidence_buffer,500422,confidence_buffer,,null,,,,,,,,
null,,thebreak,500925,break,,null,,,,,,,,
3257.300000011921,,familiar_rating,504184,Gloucester,,53,Gloucester,US,5,,,,,
null,,confidence_buffer,504286,confidence_buffer,,null,,,,,,,,
5544.399999976158,,unique_rating,509831,Gloucester,,51,,,3,,,,,
null,,confidence_buffer,509933,confidence_buffer,,null,,,,,,,,
2944.7000000178814,,memorable_rating,512879,Gloucester,,51,,,3,,,,,
null,,confidence_buffer,512980,confidence_buffer,,null,,,,,,,,
3201.199999988079,,probe_rating,516183,probe_rating,,52,,,,4,1,,,
null,,confidence_buffer,516286,confidence_buffer,,null,,,,,,,,
null,,thebreak,516786,break,,null,,,,,,,,
6991.200000017881,,familiar_rating,523779,West Palm Beach,,53,West Palm Beach,US,5,,,,,
null,,confidence_buffer,523884,confidence_buffer,,null,,,,,,,,
3429,,probe_rating,527315,probe_rating,,49,,,,1,1,,,
null,,confidence_buffer,527416,confidence_buffer,,null,,,,,,,,
6414.5999999940395,,unique_rating,533831,West Palm Beach,,51,,,3,,,,,
null,,confidence_buffer,533933,confidence_buffer,,null,,,,,,,,
3981.300000011921,,memorable_rating,537916,West Palm Beach,,53,,,5,,,,,
null,,confidence_buffer,538017,confidence_buffer,,null,,,,,,,,
null,,thebreak,538519,break,,null,,,,,,,,
6014.799999982119,,intro_0,544535,instruct,,32,,,,,,,,
11181.799999982119,,intro_1,555718,instruct,,32,,,,,,,,
41097.5,,intro_2,596815,instruct,,32,,,,,,,,
null,,instruct_dir_4,598317,instruct,,null,,,,,,,,
9753.40000000596,,realistic_rating,608071,Maplehurst,,51,Maplehurst,Fictional,3,,,,,
null,,confidence_buffer,608173,confidence_buffer,,null,,,,,,,,
6431.4000000059605,,pt2_unique_rating,614606,Maplehurst,,51,,,3,,,,,
null,,confidence_buffer,614709,confidence_buffer,,null,,,,,,,,
4192.600000023842,,pt2_memorable_rating,618903,Maplehurst,,51,,,3,,,,,
null,,confidence_buffer,619005,confidence_buffer,,null,,,,,,,,
9239.100000023842,,recognition_phase,628246,Maplehurst,,52,,,,,,new,1,1
null,,confidence_buffer,628348,confidence_buffer,,null,,,,,,,,
null,,thebreak,628850,break,,null,,,,,,,,
8067.4000000059605,,realistic_rating,636918,Pine Hollow,,53,Pine Hollow,Fictional,5,,,,,
null,,confidence_buffer,637020,confidence_buffer,,null,,,,,,,,
5440.4000000059605,,pt2_unique_rating,642462,Pine Hollow,,53,,,5,,,,,
null,,confidence_buffer,642565,confidence_buffer,,null,,,,,,,,
3288.0999999940395,,pt2_memorable_rating,645854,Pine Hollow,,52,,,4,,,,,
null,,confidence_buffer,645955,confidence_buffer,,null,,,,,,,,
3806,,recognition_phase,649763,Pine Hollow,,49,,,,,,old,1,1
null,,confidence_buffer,649864,confidence_buffer,,null,,,,,,,,
null,,thebreak,650365,break,,null,,,,,,,,
15891.799999982119,,realistic_rating,666258,Duck,,49,Duck,US,1,,,,,
null,,confidence_buffer,666365,confidence_buffer,,null,,,,,,,,
2592,,pt2_unique_rating,668957,Duck,,53,,,5,,,,,
null,,confidence_buffer,669073,confidence_buffer,,null,,,,,,,,
3715.0999999940395,,pt2_memorable_rating,672790,Duck,,53,,,5,,,,,
null,,confidence_buffer,672891,confidence_buffer,,null,,,,,,,,
2864.800000011921,,probe_rating,675758,probe_rating,,53,,,,5,1,,,
null,,confidence_buffer,675860,confidence_buffer,,null,,,,,,,,
3560.699999988079,,recognition_phase,679422,Duck,,52,,,,,,new,1,1
null,,confidence_buffer,679525,confidence_buffer,,null,,,,,,,,
null,,thebreak,680027,break,,null,,,,,,,,
7416.9000000059605,,realistic_rating,687446,Sisters,,50,Sisters,US,2,,,,,
null,,confidence_buffer,687549,confidence_buffer,,null,,,,,,,,
2439.9000000059605,,pt2_unique_rating,689989,Sisters,,53,,,5,,,,,
null,,confidence_buffer,690091,confidence_buffer,,null,,,,,,,,
3744.800000011921,,pt2_memorable_rating,693837,Sisters,,53,,,5,,,,,
null,,confidence_buffer,693939,confidence_buffer,,null,,,,,,,,
3664.4000000059605,,recognition_phase,697605,Sisters,,52,,,,,,new,1,1
null,,confidence_buffer,697711,confidence_buffer,,null,,,,,,,,
null,,thebreak,698212,break,,null,,,,,,,,
8804.699999988079,,realistic_rating,707017,Ironwood Heights,,51,Ironwood Heights,Fictional,3,,,,,
null,,confidence_buffer,707134,confidence_buffer,,null,,,,,,,,
5086.700000017881,,pt2_unique_rating,712221,Ironwood Heights,,52,,,4,,,,,
null,,confidence_buffer,712324,confidence_buffer,,null,,,,,,,,
3020,,pt2_memorable_rating,715345,Ironwood Heights,,52,,,4,,,,,
null,,confidence_buffer,715446,confidence_buffer,,null,,,,,,,,
3166.5999999940395,,recognition_phase,718614,Ironwood Heights,,50,,,,,,old,1,1
null,,confidence_buffer,718715,confidence_buffer,,null,,,,,,,,
null,,thebreak,719216,break,,null,,,,,,,,
8860.5,,realistic_rating,728078,Albuquerque,,53,Albuquerque,US,5,,,,,
null,,confidence_buffer,728180,confidence_buffer,,null,,,,,,,,
2976.5,,pt2_unique_rating,731158,Albuquerque,,53,,,5,,,,,
null,,confidence_buffer,731259,confidence_buffer,,null,,,,,,,,
3120.600000023842,,pt2_memorable_rating,734381,Albuquerque,,52,,,4,,,,,
null,,confidence_buffer,734484,confidence_buffer,,null,,,,,,,,
2783.399999976158,,recognition_phase,737269,Albuquerque,,52,,,,,,new,1,1
null,,confidence_buffer,737371,confidence_buffer,,null,,,,,,,,
null,,thebreak,737873,break,,null,,,,,,,,
5595.700000017881,,realistic_rating,743469,Carmel,,53,Carmel,US,5,,,,,
null,,confidence_buffer,743574,confidence_buffer,,null,,,,,,,,
4310,,pt2_unique_rating,747885,Carmel,,53,,,5,,,,,
null,,confidence_buffer,747987,confidence_buffer,,null,,,,,,,,
1992.9000000059605,,pt2_memorable_rating,749981,Carmel,,53,,,5,,,,,
null,,confidence_buffer,750082,confidence_buffer,,null,,,,,,,,
2229,,recognition_phase,752313,Carmel,,52,,,,,,new,1,1
null,,confidence_buffer,752414,confidence_buffer,,null,,,,,,,,
null,,thebreak,752915,break,,null,,,,,,,,
6399.199999988079,,realistic_rating,759315,Golden Trace,,51,Golden Trace,Fictional,3,,,,,
null,,confidence_buffer,759416,confidence_buffer,,null,,,,,,,,
4011.399999976158,,pt2_unique_rating,763429,Golden Trace,,52,,,4,,,,,
null,,confidence_buffer,763531,confidence_buffer,,null,,,,,,,,
2110.7000000178814,,pt2_memorable_rating,765642,Golden Trace,,52,,,4,,,,,
null,,confidence_buffer,765743,confidence_buffer,,null,,,,,,,,
3267.800000011921,,recognition_phase,769013,Golden Trace,,49,,,,,,old,1,1
null,,confidence_buffer,769115,confidence_buffer,,null,,,,,,,,
null,,thebreak,769617,break,,null,,,,,,,,
5539,,realistic_rating,775157,Huntsville,,53,Huntsville,US,5,,,,,
null,,confidence_buffer,775259,confidence_buffer,,null,,,,,,,,
3000.5999999940395,,pt2_unique_rating,778260,Huntsville,,52,,,4,,,,,
null,,confidence_buffer,778363,confidence_buffer,,null,,,,,,,,
3984.300000011921,,pt2_memorable_rating,782349,Huntsville,,52,,,4,,,,,
null,,confidence_buffer,782451,confidence_buffer,,null,,,,,,,,
3168.2999999821186,,recognition_phase,785621,Huntsville,,52,,,,,,new,1,1
null,,confidence_buffer,785723,confidence_buffer,,null,,,,,,,,
null,,thebreak,786224,break,,null,,,,,,,,
7778.799999982119,,realistic_rating,794005,Assateague Island,,50,Assateague Island,US,2,,,,,
null,,confidence_buffer,794107,confidence_buffer,,null,,,,,,,,
2256.600000023842,,pt2_unique_rating,796365,Assateague Island,,53,,,5,,,,,
null,,confidence_buffer,796467,confidence_buffer,,null,,,,,,,,
4696.0999999940395,,pt2_memorable_rating,801164,Assateague Island,,51,,,3,,,,,
null,,confidence_buffer,801266,confidence_buffer,,null,,,,,,,,
3425.699999988079,,recognition_phase,804693,Assateague Island,,52,,,,,,new,1,1
null,,confidence_buffer,804795,confidence_buffer,,null,,,,,,,,
null,,thebreak,805297,break,,null,,,,,,,,
3806.899999976158,,realistic_rating,809105,Cape May,,53,Cape May,US,5,,,,,
null,,confidence_buffer,809205,confidence_buffer,,null,,,,,,,,
3902.300000011921,,pt2_unique_rating,813108,Cape May,,52,,,4,,,,,
null,,confidence_buffer,813210,confidence_buffer,,null,,,,,,,,
2472.399999976158,,probe_rating,815684,probe_rating,,52,,,,4,1,,,
null,,confidence_buffer,815786,confidence_buffer,,null,,,,,,,,
2656.800000011921,,pt2_memorable_rating,818444,Cape May,,53,,,5,,,,,
null,,confidence_buffer,818555,confidence_buffer,,null,,,,,,,,
3335.699999988079,,recognition_phase,821892,Cape May,,49,,,,,,old,1,1
null,,confidence_buffer,821995,confidence_buffer,,null,,,,,,,,
null,,thebreak,822496,break,,null,,,,,,,,
4610.0999999940395,,realistic_rating,827108,Tamarisk Hills,,50,Tamarisk Hills,Fictional,2,,,,,
null,,confidence_buffer,827212,confidence_buffer,,null,,,,,,,,
2479.100000023842,,pt2_unique_rating,829692,Tamarisk Hills,,53,,,5,,,,,
null,,confidence_buffer,829794,confidence_buffer,,null,,,,,,,,
3582.7000000178814,,pt2_memorable_rating,833377,Tamarisk Hills,,52,,,4,,,,,
null,,confidence_buffer,833479,confidence_buffer,,null,,,,,,,,
3324,,recognition_phase,836804,Tamarisk Hills,,52,,,,,,new,1,1
null,,confidence_buffer,836906,confidence_buffer,,null,,,,,,,,
null,,thebreak,837409,break,,null,,,,,,,,
6818.299999982119,,realistic_rating,844228,Hollendale,,50,Hollendale,Fictional,2,,,,,
null,,confidence_buffer,844331,confidence_buffer,,null,,,,,,,,
8951.699999988079,,pt2_unique_rating,853284,Hollendale,,52,,,4,,,,,
null,,confidence_buffer,853386,confidence_buffer,,null,,,,,,,,
2481.199999988079,,pt2_memorable_rating,855868,Hollendale,,51,,,3,,,,,
null,,confidence_buffer,855971,confidence_buffer,,null,,,,,,,,
2415.800000011921,,recognition_phase,858388,Hollendale,,52,,,,,,new,1,1
null,,confidence_buffer,858491,confidence_buffer,,null,,,,,,,,
null,,thebreak,858993,break,,null,,,,,,,,
7458.799999982119,,realistic_rating,866452,Alliance,,51,Alliance,US,3,,,,,
null,,confidence_buffer,866554,confidence_buffer,,null,,,,,,,,
2494.300000011921,,pt2_unique_rating,869050,Alliance,,53,,,5,,,,,
null,,confidence_buffer,869152,confidence_buffer,,null,,,,,,,,
1145.199999988079,,pt2_memorable_rating,870298,Alliance,,53,,,5,,,,,
null,,confidence_buffer,870399,confidence_buffer,,null,,,,,,,,
2522.7000000178814,,recognition_phase,872923,Alliance,,52,,,,,,new,1,1
null,,confidence_buffer,873033,confidence_buffer,,null,,,,,,,,
null,,thebreak,873535,break,,null,,,,,,,,
7811.4000000059605,,realistic_rating,881348,Highvale,,51,Highvale,Fictional,3,,,,,
null,,confidence_buffer,881450,confidence_buffer,,null,,,,,,,,
3284.0999999940395,,pt2_unique_rating,884735,Highvale,,52,,,4,,,,,
null,,confidence_buffer,884838,confidence_buffer,,null,,,,,,,,
2620,,pt2_memorable_rating,887459,Highvale,,51,,,3,,,,,
null,,confidence_buffer,887561,confidence_buffer,,null,,,,,,,,
3929.2000000178814,,recognition_phase,891492,Highvale,,52,,,,,,new,0,0.9333333333333333
null,,confidence_buffer,891595,confidence_buffer,,null,,,,,,,,
null,,thebreak,892097,break,,null,,,,,,,,
3265,,realistic_rating,895363,Athens,,53,Athens,US,5,,,,,
null,,confidence_buffer,895466,confidence_buffer,,null,,,,,,,,
1175.7000000178814,,pt2_unique_rating,896643,Athens,,53,,,5,,,,,
null,,confidence_buffer,896744,confidence_buffer,,null,,,,,,,,
1183.199999988079,,pt2_memorable_rating,897928,Athens,,53,,,5,,,,,
null,,confidence_buffer,898030,confidence_buffer,,null,,,,,,,,
2336.100000023842,,recognition_phase,900367,Athens,,49,,,,,,old,1,0.9375
null,,confidence_buffer,900469,confidence_buffer,,null,,,,,,,,
null,,thebreak,900970,break,,null,,,,,,,,
7440.4000000059605,,realistic_rating,908412,Westridge,,52,Westridge,Fictional,4,,,,,
null,,confidence_buffer,908514,confidence_buffer,,null,,,,,,,,
4208.5,,pt2_unique_rating,912723,Westridge,,51,,,3,,,,,
null,,confidence_buffer,912825,confidence_buffer,,null,,,,,,,,
1512.699999988079,,pt2_memorable_rating,914340,Westridge,,52,,,4,,,,,
null,,confidence_buffer,914442,confidence_buffer,,null,,,,,,,,
7175.800000011921,,recognition_phase,921619,Westridge,,51,,,,,,new,0,0.8823529411764706
null,,confidence_buffer,921721,confidence_buffer,,null,,,,,,,,
null,,thebreak,922223,break,,null,,,,,,,,
7371.700000017881,,realistic_rating,929596,Briarfield,,51,Briarfield,Fictional,3,,,,,
null,,confidence_buffer,929698,confidence_buffer,,null,,,,,,,,
3079.9000000059605,,pt2_unique_rating,932779,Briarfield,,52,,,4,,,,,
null,,confidence_buffer,932881,confidence_buffer,,null,,,,,,,,
4824.0999999940395,,pt2_memorable_rating,937707,Briarfield,,52,,,4,,,,,
null,,confidence_buffer,937809,confidence_buffer,,null,,,,,,,,
2551.9000000059605,,recognition_phase,940363,Briarfield,,52,,,,,,new,1,0.8888888888888888
null,,confidence_buffer,940465,confidence_buffer,,null,,,,,,,,
null,,thebreak,940967,break,,null,,,,,,,,
7594.9000000059605,,realistic_rating,948563,Abilene,,53,Abilene,US,5,,,,,
null,,confidence_buffer,948666,confidence_buffer,,null,,,,,,,,
2356.100000023842,,pt2_unique_rating,951023,Abilene,,53,,,5,,,,,
null,,confidence_buffer,951124,confidence_buffer,,null,,,,,,,,
1189.5,,pt2_memorable_rating,952315,Abilene,,53,,,5,,,,,
null,,confidence_buffer,952417,confidence_buffer,,null,,,,,,,,
13616.199999988079,,recognition_phase,966035,Abilene,,51,,,,,,new,1,0.8947368421052632
null,,confidence_buffer,966138,confidence_buffer,,null,,,,,,,,
null,,thebreak,966639,break,,null,,,,,,,,
3506.199999988079,,realistic_rating,970147,Bowling Green,,53,Bowling Green,US,5,,,,,
null,,confidence_buffer,970249,confidence_buffer,,null,,,,,,,,
2256.7000000178814,,pt2_unique_rating,972507,Bowling Green,,53,,,5,,,,,
null,,confidence_buffer,972609,confidence_buffer,,null,,,,,,,,
1809.5,,pt2_memorable_rating,974419,Bowling Green,,53,,,5,,,,,
null,,confidence_buffer,974522,confidence_buffer,,null,,,,,,,,
2915.600000023842,,recognition_phase,977439,Bowling Green,,49,,,,,,old,1,0.9
null,,confidence_buffer,977540,confidence_buffer,,null,,,,,,,,
null,,thebreak,978041,break,,null,,,,,,,,
7464.799999982119,,realistic_rating,985507,Summershade,,52,Summershade,Fictional,4,,,,,
null,,confidence_buffer,985610,confidence_buffer,,null,,,,,,,,
2032.2999999821186,,pt2_unique_rating,987643,Summershade,,53,,,5,,,,,
null,,confidence_buffer,987745,confidence_buffer,,null,,,,,,,,
3175.5,,pt2_memorable_rating,990922,Summershade,,53,,,5,,,,,
null,,confidence_buffer,991024,confidence_buffer,,null,,,,,,,,
2376.699999988079,,recognition_phase,993402,Summershade,,49,,,,,,old,1,0.9047619047619048
null,,confidence_buffer,993504,confidence_buffer,,null,,,,,,,,
null,,thebreak,994006,break,,null,,,,,,,,
5227.800000011921,,realistic_rating,999235,Stonebrook,,52,Stonebrook,Fictional,4,,,,,
null,,confidence_buffer,999336,confidence_buffer,,null,,,,,,,,
3824.7000000178814,,pt2_unique_rating,1003162,Stonebrook,,52,,,4,,,,,
null,,confidence_buffer,1003264,confidence_buffer,,null,,,,,,,,
2774.7000000178814,,pt2_memorable_rating,1006040,Stonebrook,,53,,,5,,,,,
null,,confidence_buffer,1006142,confidence_buffer,,null,,,,,,,,
2803.0999999940395,,recognition_phase,1008947,Stonebrook,,49,,,,,,old,1,0.9090909090909091
null,,confidence_buffer,1009048,confidence_buffer,,null,,,,,,,,
null,,thebreak,1009551,break,,null,,,,,,,,
4631.5999999940395,,realistic_rating,1014183,Yukon,,53,Yukon,US,5,,,,,
null,,confidence_buffer,1014284,confidence_buffer,,null,,,,,,,,
2321.899999976158,,pt2_unique_rating,1016606,Yukon,,53,,,5,,,,,
null,,confidence_buffer,1016707,confidence_buffer,,null,,,,,,,,
2582.2000000178814,,pt2_memorable_rating,1019290,Yukon,,52,,,4,,,,,
null,,confidence_buffer,1019393,confidence_buffer,,null,,,,,,,,
2516,,recognition_phase,1021910,Yukon,,52,,,,,,new,1,0.9130434782608695
null,,confidence_buffer,1022012,confidence_buffer,,null,,,,,,,,
null,,thebreak,1022520,break,,null,,,,,,,,
4409.700000017881,,realistic_rating,1026931,Cedarwyn,,50,Cedarwyn,Fictional,2,,,,,
null,,confidence_buffer,1027033,confidence_buffer,,null,,,,,,,,
2191.800000011921,,pt2_unique_rating,1029226,Cedarwyn,,53,,,5,,,,,
null,,confidence_buffer,1029329,confidence_buffer,,null,,,,,,,,
3344.5,,pt2_memorable_rating,1032674,Cedarwyn,,51,,,3,,,,,
null,,confidence_buffer,1032776,confidence_buffer,,null,,,,,,,,
3241.300000011921,,recognition_phase,1036019,Cedarwyn,,52,,,,,,new,1,0.9166666666666666
null,,confidence_buffer,1036120,confidence_buffer,,null,,,,,,,,
null,,thebreak,1036622,break,,null,,,,,,,,
6290.9000000059605,,realistic_rating,1042915,Orr,,49,Orr,US,1,,,,,
null,,confidence_buffer,1043017,confidence_buffer,,null,,,,,,,,
2108.600000023842,,pt2_unique_rating,1045126,Orr,,53,,,5,,,,,
null,,confidence_buffer,1045228,confidence_buffer,,null,,,,,,,,
2748.4000000059605,,pt2_memorable_rating,1047978,Orr,,52,,,4,,,,,
null,,confidence_buffer,1048080,confidence_buffer,,null,,,,,,,,
2856.699999988079,,recognition_phase,1050938,Orr,,49,,,,,,old,1,0.92
null,,confidence_buffer,1051040,confidence_buffer,,null,,,,,,,,
null,,thebreak,1051543,break,,null,,,,,,,,
5298.200000017881,,realistic_rating,1056842,Maravilla Springs,,52,Maravilla Springs,Fictional,4,,,,,
null,,confidence_buffer,1056945,confidence_buffer,,null,,,,,,,,
1887.7000000178814,,pt2_unique_rating,1058834,Maravilla Springs,,53,,,5,,,,,
null,,confidence_buffer,1058936,confidence_buffer,,null,,,,,,,,
2960.7999999821186,,pt2_memorable_rating,1061898,Maravilla Springs,,53,,,5,,,,,
null,,confidence_buffer,1062000,confidence_buffer,,null,,,,,,,,
2056,,recognition_phase,1064058,Maravilla Springs,,52,,,,,,new,1,0.9230769230769231
null,,confidence_buffer,1064161,confidence_buffer,,null,,,,,,,,
null,,thebreak,1064671,break,,null,,,,,,,,
4185.4000000059605,,realistic_rating,1068858,Driftwood Bay,,52,Driftwood Bay,Fictional,4,,,,,
null,,confidence_buffer,1068961,confidence_buffer,,null,,,,,,,,
3055.300000011921,,pt2_unique_rating,1072018,Driftwood Bay,,52,,,4,,,,,
null,,confidence_buffer,1072120,confidence_buffer,,null,,,,,,,,
4056.300000011921,,pt2_memorable_rating,1076178,Driftwood Bay,,53,,,5,,,,,
null,,confidence_buffer,1076279,confidence_buffer,,null,,,,,,,,
2152.800000011921,,recognition_phase,1078434,Driftwood Bay,,49,,,,,,old,1,0.9259259259259259
null,,confidence_buffer,1078535,confidence_buffer,,null,,,,,,,,
null,,thebreak,1079037,break,,null,,,,,,,,
6035.799999982119,,realistic_rating,1085074,East Ladera,,51,East Ladera,Fictional,3,,,,,
null,,confidence_buffer,1085175,confidence_buffer,,null,,,,,,,,
2008.800000011921,,pt2_unique_rating,1087186,East Ladera,,53,,,5,,,,,
null,,confidence_buffer,1087287,confidence_buffer,,null,,,,,,,,
2537,,pt2_memorable_rating,1089826,East Ladera,,52,,,4,,,,,
null,,confidence_buffer,1089928,confidence_buffer,,null,,,,,,,,
1896,,recognition_phase,1091826,East Ladera,,52,,,,,,new,1,0.9285714285714286
null,,confidence_buffer,1091934,confidence_buffer,,null,,,,,,,,
null,,thebreak,1092437,break,,null,,,,,,,,
3787.699999988079,,realistic_rating,1096226,Sierra Hollow,,50,Sierra Hollow,Fictional,2,,,,,
null,,confidence_buffer,1096329,confidence_buffer,,null,,,,,,,,
1887.4000000059605,,pt2_unique_rating,1098217,Sierra Hollow,,53,,,5,,,,,
null,,confidence_buffer,1098319,confidence_buffer,,null,,,,,,,,
2393.399999976158,,pt2_memorable_rating,1100713,Sierra Hollow,,51,,,3,,,,,
null,,confidence_buffer,1100816,confidence_buffer,,null,,,,,,,,
2576.0999999940395,,recognition_phase,1103394,Sierra Hollow,,52,,,,,,new,1,0.9310344827586207
null,,confidence_buffer,1103496,confidence_buffer,,null,,,,,,,,
null,,thebreak,1103998,break,,null,,,,,,,,
4180.0999999940395,,realistic_rating,1108179,Northbridge,,52,Northbridge,Fictional,4,,,,,
null,,confidence_buffer,1108281,confidence_buffer,,null,,,,,,,,
1855.699999988079,,probe_rating,1110138,probe_rating,,52,,,,4,1,,,
null,,confidence_buffer,1110240,confidence_buffer,,null,,,,,,,,
6280.199999988079,,pt2_unique_rating,1116521,Northbridge,,51,,,3,,,,,
null,,confidence_buffer,1116623,confidence_buffer,,null,,,,,,,,
4721,,pt2_memorable_rating,1121346,Northbridge,,52,,,4,,,,,
null,,confidence_buffer,1121447,confidence_buffer,,null,,,,,,,,
2048.2000000178814,,recognition_phase,1123497,Northbridge,,49,,,,,,old,1,0.9333333333333333
null,,confidence_buffer,1123599,confidence_buffer,,null,,,,,,,,
null,,thebreak,1124101,break,,null,,,,,,,,
6954.800000011921,,realistic_rating,1131057,Riverlyn,,51,Riverlyn,Fictional,3,,,,,
null,,confidence_buffer,1131160,confidence_buffer,,null,,,,,,,,
2272.4000000059605,,pt2_unique_rating,1133433,Riverlyn,,53,,,5,,,,,
null,,confidence_buffer,1133536,confidence_buffer,,null,,,,,,,,
2821.9000000059605,,pt2_memorable_rating,1136359,Riverlyn,,52,,,4,,,,,
null,,confidence_buffer,1136467,confidence_buffer,,null,,,,,,,,
2453.5,,recognition_phase,1138921,Riverlyn,,49,,,,,,old,1,0.9354838709677419
null,,confidence_buffer,1139023,confidence_buffer,,null,,,,,,,,
null,,thebreak,1139525,break,,null,,,,,,,,
3515.5999999940395,,realistic_rating,1143041,Crestwood,,53,Crestwood,Fictional,5,,,,,
null,,confidence_buffer,1143144,confidence_buffer,,null,,,,,,,,
1765.2999999821186,,pt2_unique_rating,1144910,Crestwood,,53,,,5,,,,,
null,,confidence_buffer,1145012,confidence_buffer,,null,,,,,,,,
4795.699999988079,,pt2_memorable_rating,1149809,Crestwood,,53,,,5,,,,,
null,,confidence_buffer,1149911,confidence_buffer,,null,,,,,,,,
3108.0999999940395,,recognition_phase,1153021,Crestwood,,52,,,,,,new,0,0.90625
null,,confidence_buffer,1153123,confidence_buffer,,null,,,,,,,,
null,,thebreak,1153625,break,,null,,,,,,,,
3535.5,,realistic_rating,1157162,Clearbrook,,52,Clearbrook,Fictional,4,,,,,
null,,confidence_buffer,1157272,confidence_buffer,,null,,,,,,,,
1999.9000000059605,,pt2_unique_rating,1159273,Clearbrook,,52,,,4,,,,,
null,,confidence_buffer,1159375,confidence_buffer,,null,,,,,,,,
1392.5999999940395,,pt2_memorable_rating,1160769,Clearbrook,,53,,,5,,,,,
null,,confidence_buffer,1160871,confidence_buffer,,null,,,,,,,,
5456.200000017881,,recognition_phase,1166329,Clearbrook,,52,,,,,,new,1,0.9090909090909091
null,,confidence_buffer,1166431,confidence_buffer,,null,,,,,,,,
null,,thebreak,1166932,break,,null,,,,,,,,
3732.2000000178814,,realistic_rating,1170666,Delaware City,,50,Delaware City,US,2,,,,,
null,,confidence_buffer,1170768,confidence_buffer,,null,,,,,,,,
3355.199999988079,,pt2_unique_rating,1174125,Delaware City,,51,,,3,,,,,
null,,confidence_buffer,1174226,confidence_buffer,,null,,,,,,,,
1910.300000011921,,probe_rating,1176137,probe_rating,,49,,,,1,1,,,
null,,confidence_buffer,1176241,confidence_buffer,,null,,,,,,,,
3038.199999988079,,pt2_memorable_rating,1179281,Delaware City,,51,,,3,,,,,
null,,confidence_buffer,1179383,confidence_buffer,,null,,,,,,,,
2112.199999988079,,recognition_phase,1181497,Delaware City,,49,,,,,,old,1,0.9117647058823529
null,,confidence_buffer,1181599,confidence_buffer,,null,,,,,,,,
null,,thebreak,1182100,break,,null,,,,,,,,
3322.7999999821186,,realistic_rating,1185425,West Palm Beach,,53,West Palm Beach,US,5,,,,,
null,,confidence_buffer,1185526,confidence_buffer,,null,,,,,,,,
2617.300000011921,,pt2_unique_rating,1188145,West Palm Beach,,52,,,4,,,,,
null,,confidence_buffer,1188247,confidence_buffer,,null,,,,,,,,
1304.2000000178814,,pt2_memorable_rating,1189553,West Palm Beach,,53,,,5,,,,,
null,,confidence_buffer,1189655,confidence_buffer,,null,,,,,,,,
1831.9000000059605,,recognition_phase,1191489,West Palm Beach,,49,,,,,,old,1,0.9142857142857143
null,,confidence_buffer,1191591,confidence_buffer,,null,,,,,,,,
null,,thebreak,1192092,break,,null,,,,,,,,
4211.0999999940395,,realistic_rating,1196305,Bisbee,,51,Bisbee,US,3,,,,,
null,,confidence_buffer,1196408,confidence_buffer,,null,,,,,,,,
1695.6000000238419,,pt2_unique_rating,1198105,Bisbee,,53,,,5,,,,,
null,,confidence_buffer,1198206,confidence_buffer,,null,,,,,,,,
1552.300000011921,,pt2_memorable_rating,1199760,Bisbee,,52,,,4,,,,,
null,,confidence_buffer,1199862,confidence_buffer,,null,,,,,,,,
1973.4000000059605,,recognition_phase,1201837,Bisbee,,52,,,,,,new,1,0.9166666666666666
null,,confidence_buffer,1201939,confidence_buffer,,null,,,,,,,,
null,,thebreak,1202440,break,,null,,,,,,,,
3751.0999999940395,,realistic_rating,1206192,Gloucester,,53,Gloucester,US,5,,,,,
null,,confidence_buffer,1206294,confidence_buffer,,null,,,,,,,,
2423.0999999940395,,pt2_unique_rating,1208719,Gloucester,,52,,,4,,,,,
null,,confidence_buffer,1208821,confidence_buffer,,null,,,,,,,,
3019.199999988079,,pt2_memorable_rating,1211841,Gloucester,,52,,,4,,,,,
null,,confidence_buffer,1211943,confidence_buffer,,null,,,,,,,,
2095.5999999940395,,recognition_phase,1214041,Gloucester,,49,,,,,,old,1,0.918918918918919
null,,confidence_buffer,1214142,confidence_buffer,,null,,,,,,,,
null,,thebreak,1214644,break,,null,,,,,,,,
4939.699999988079,,realistic_rating,1219585,Livingston,,52,Livingston,US,4,,,,,
null,,confidence_buffer,1219687,confidence_buffer,,null,,,,,,,,
3608.699999988079,,pt2_unique_rating,1223297,Livingston,,52,,,4,,,,,
null,,confidence_buffer,1223400,confidence_buffer,,null,,,,,,,,
1747.5,,pt2_memorable_rating,1225149,Livingston,,53,,,5,,,,,
null,,confidence_buffer,1225250,confidence_buffer,,null,,,,,,,,
1893.5999999940395,,recognition_phase,1227145,Livingston,,49,,,,,,old,1,0.9210526315789473
null,,confidence_buffer,1227246,confidence_buffer,,null,,,,,,,,
null,,thebreak,1227748,break,,null,,,,,,,,
6091.9000000059605,,realistic_rating,1233840,Healdsburg,,51,Healdsburg,US,3,,,,,
null,,confidence_buffer,1233942,confidence_buffer,,null,,,,,,,,
2533.9000000059605,,pt2_unique_rating,1236477,Healdsburg,,52,,,4,,,,,
null,,confidence_buffer,1236578,confidence_buffer,,null,,,,,,,,
2980.5999999940395,,pt2_memorable_rating,1239560,Healdsburg,,50,,,2,,,,,
null,,confidence_buffer,1239663,confidence_buffer,,null,,,,,,,,
2135.4000000059605,,recognition_phase,1241800,Healdsburg,,49,,,,,,old,1,0.9230769230769231
null,,confidence_buffer,1241902,confidence_buffer,,null,,,,,,,,
null,,thebreak,1242404,break,,null,,,,,,,,
5578.9000000059605,,realistic_rating,1247984,Park City,,53,Park City,US,5,,,,,
null,,confidence_buffer,1248087,confidence_buffer,,null,,,,,,,,
2734.9000000059605,,pt2_unique_rating,1250823,Park City,,51,,,3,,,,,
null,,confidence_buffer,1250927,confidence_buffer,,null,,,,,,,,
1792.0999999940395,,pt2_memorable_rating,1252720,Park City,,53,,,5,,,,,
null,,confidence_buffer,1252822,confidence_buffer,,null,,,,,,,,
1464.699999988079,,recognition_phase,1254288,Park City,,49,,,,,,old,1,0.925
null,,confidence_buffer,1254391,confidence_buffer,,null,,,,,,,,
null,,thebreak,1254892,break,,null,,,,,,,,
3531.2999999821186,,realistic_rating,1258424,North Arroya,,50,North Arroya,Fictional,2,,,,,
null,,confidence_buffer,1258527,confidence_buffer,,null,,,,,,,,
3015.5999999940395,,pt2_unique_rating,1261544,North Arroya,,53,,,5,,,,,
null,,confidence_buffer,1261645,confidence_buffer,,null,,,,,,,,
1529.4000000059605,,pt2_memorable_rating,1263176,North Arroya,,51,,,3,,,,,
null,,confidence_buffer,1263279,confidence_buffer,,null,,,,,,,,
1447.5,,recognition_phase,1264728,North Arroya,,49,,,,,,old,1,0.926829268292683
null,,confidence_buffer,1264830,confidence_buffer,,null,,,,,,,,
null,,thebreak,1265332,break,,null,,,,,,,,
4252,,realistic_rating,1269584,Gardnerville,,51,Gardnerville,US,3,,,,,
null,,confidence_buffer,1269687,confidence_buffer,,null,,,,,,,,
5795.800000011921,,pt2_unique_rating,1275484,Gardnerville,,52,,,4,,,,,
null,,confidence_buffer,1275585,confidence_buffer,,null,,,,,,,,
1620.2999999821186,,pt2_memorable_rating,1277206,Gardnerville,,51,,,3,,,,,
null,,confidence_buffer,1277308,confidence_buffer,,null,,,,,,,,
1410.5,,recognition_phase,1278720,Gardnerville,,49,,,,,,old,1,0.9285714285714286
null,,confidence_buffer,1278821,confidence_buffer,,null,,,,,,,,
null,,thebreak,1279324,break,,null,,,,,,,,
3121.0999999940395,,realistic_rating,1282446,Boulder,,53,Boulder,US,5,,,,,
null,,confidence_buffer,1282548,confidence_buffer,,null,,,,,,,,
8227.700000017881,,pt2_unique_rating,1290777,Boulder,,53,,,5,,,,,
null,,confidence_buffer,1290879,confidence_buffer,,null,,,,,,,,
1871.9000000059605,,pt2_memorable_rating,1292752,Boulder,,53,,,5,,,,,
null,,confidence_buffer,1292853,confidence_buffer,,null,,,,,,,,
1753.2999999821186,,recognition_phase,1294608,Boulder,,49,,,,,,old,1,0.9302325581395349
null,,confidence_buffer,1294710,confidence_buffer,,null,,,,,,,,
null,,thebreak,1295212,break,,null,,,,,,,,
6282,,realistic_rating,1301495,Sitka,,53,Sitka,US,5,,,,,
null,,confidence_buffer,1301598,confidence_buffer,,null,,,,,,,,
2256.800000011921,,probe_rating,1303856,probe_rating,,52,,,,4,1,,,
null,,confidence_buffer,1303959,confidence_buffer,,null,,,,,,,,
2455.5,,pt2_unique_rating,1306416,Sitka,,53,,,5,,,,,
null,,confidence_buffer,1306517,confidence_buffer,,null,,,,,,,,
1593,,pt2_memorable_rating,1308112,Sitka,,53,,,5,,,,,
null,,confidence_buffer,1308214,confidence_buffer,,null,,,,,,,,
3447.300000011921,,recognition_phase,1311664,Sitka,,52,,,,,,new,1,0.9318181818181818
null,,confidence_buffer,1311766,confidence_buffer,,null,,,,,,,,
null,,thebreak,1312269,break,,null,,,,,,,,
2957.699999988079,,realistic_rating,1315228,Claywater,,51,Claywater,Fictional,3,,,,,
null,,confidence_buffer,1315330,confidence_buffer,,null,,,,,,,,
2124.5,,pt2_unique_rating,1317456,Claywater,,52,,,4,,,,,
null,,confidence_buffer,1317558,confidence_buffer,,null,,,,,,,,
2110.2000000178814,,pt2_memorable_rating,1319670,Claywater,,52,,,4,,,,,
null,,confidence_buffer,1319772,confidence_buffer,,null,,,,,,,,
2178.2000000178814,,probe_rating,1321952,probe_rating,,50,,,,2,1,,,
null,,confidence_buffer,1322054,confidence_buffer,,null,,,,,,,,
2319.4000000059605,,recognition_phase,1324375,Claywater,,49,,,,,,old,1,0.9333333333333333
null,,confidence_buffer,1324477,confidence_buffer,,null,,,,,,,,
null,,thebreak,1324979,break,,null,,,,,,,,
6187,,realistic_rating,1331168,Falconridge,,52,Falconridge,Fictional,4,,,,,
null,,confidence_buffer,1331270,confidence_buffer,,null,,,,,,,,
2376.5,,pt2_unique_rating,1333648,Falconridge,,52,,,4,,,,,
null,,confidence_buffer,1333749,confidence_buffer,,null,,,,,,,,
1501.5999999940395,,pt2_memorable_rating,1335252,Falconridge,,53,,,5,,,,,
null,,confidence_buffer,1335368,confidence_buffer,,null,,,,,,,,
2022.5,,recognition_phase,1337392,Falconridge,,52,,,,,,new,1,0.9347826086956522
null,,confidence_buffer,1337494,confidence_buffer,,null,,,,,,,,
null,,thebreak,1337996,break,,null,,,,,,,,
4419.0999999940395,,realistic_rating,1342416,Medora,,50,Medora,US,2,,,,,
null,,confidence_buffer,1342518,confidence_buffer,,null,,,,,,,,
1884.0999999940395,,pt2_unique_rating,1344404,Medora,,53,,,5,,,,,
null,,confidence_buffer,1344506,confidence_buffer,,null,,,,,,,,
2445.199999988079,,pt2_memorable_rating,1346951,Medora,,51,,,3,,,,,
null,,confidence_buffer,1347054,confidence_buffer,,null,,,,,,,,
2423.800000011921,,recognition_phase,1349479,Medora,,52,,,,,,new,1,0.9361702127659575
null,,confidence_buffer,1349581,confidence_buffer,,null,,,,,,,,
null,,thebreak,1350083,break,,null,,,,,,,,
2780.5,,realistic_rating,1352863,Hilo,,53,Hilo,US,5,,,,,
null,,confidence_buffer,1352966,confidence_buffer,,null,,,,,,,,
1791.4000000059605,,probe_rating,1354759,probe_rating,,49,,,,1,1,,,
null,,confidence_buffer,1354872,confidence_buffer,,null,,,,,,,,
1899.9000000059605,,pt2_unique_rating,1356774,Hilo,,53,,,5,,,,,
null,,confidence_buffer,1356875,confidence_buffer,,null,,,,,,,,
1530,,pt2_memorable_rating,1358407,Hilo,,53,,,5,,,,,
null,,confidence_buffer,1358509,confidence_buffer,,null,,,,,,,,
2233.2999999821186,,recognition_phase,1360743,Hilo,,49,,,,,,old,1,0.9375
null,,confidence_buffer,1360845,confidence_buffer,,null,,,,,,,,
null,,thebreak,1361347,break,,null,,,,,,,,
3747.300000011921,,realistic_rating,1365095,Silverpine,,52,Silverpine,Fictional,4,,,,,
null,,confidence_buffer,1365197,confidence_buffer,,null,,,,,,,,
2680.5,,pt2_unique_rating,1367879,Silverpine,,53,,,5,,,,,
null,,confidence_buffer,1367981,confidence_buffer,,null,,,,,,,,
4288.4000000059605,,pt2_memorable_rating,1372271,Silverpine,,53,,,5,,,,,
null,,confidence_buffer,1372373,confidence_buffer,,null,,,,,,,,
1951.8999999761581,,recognition_phase,1374327,Silverpine,,52,,,,,,new,1,0.9387755102040817
null,,confidence_buffer,1374429,confidence_buffer,,null,,,,,,,,
null,,thebreak,1374931,break,,null,,,,,,,,
3954.7000000178814,,realistic_rating,1378887,Juniper Creek,,52,Juniper Creek,Fictional,4,,,,,
null,,confidence_buffer,1378990,confidence_buffer,,null,,,,,,,,
2375.0999999940395,,probe_rating,1381367,probe_rating,,49,,,,1,1,,,
null,,confidence_buffer,1381469,confidence_buffer,,null,,,,,,,,
3608.4000000059605,,pt2_unique_rating,1385079,Juniper Creek,,53,,,5,,,,,
null,,confidence_buffer,1385181,confidence_buffer,,null,,,,,,,,
1286.1000000238419,,pt2_memorable_rating,1386468,Juniper Creek,,53,,,5,,,,,
null,,confidence_buffer,1386569,confidence_buffer,,null,,,,,,,,
2820,,recognition_phase,1389391,Juniper Creek,,52,,,,,,new,1,0.94
null,,confidence_buffer,1389494,confidence_buffer,,null,,,,,,,,
null,,thebreak,1389997,break,,null,,,,,,,,
3001.0999999940395,,realistic_rating,1392999,Racine,,51,Racine,US,3,,,,,
null,,confidence_buffer,1393100,confidence_buffer,,null,,,,,,,,
2173.100000023842,,pt2_unique_rating,1395275,Racine,,53,,,5,,,,,
null,,confidence_buffer,1395377,confidence_buffer,,null,,,,,,,,
2277.300000011921,,pt2_memorable_rating,1397655,Racine,,52,,,4,,,,,
null,,confidence_buffer,1397758,confidence_buffer,,null,,,,,,,,
1671.5,,recognition_phase,1399431,Racine,,49,,,,,,old,1,0.9411764705882353
null,,confidence_buffer,1399533,confidence_buffer,,null,,,,,,,,
null,,thebreak,1400035,break,,null,,,,,,,,
3002.0999999940395,,realistic_rating,1403039,Peoria,,53,Peoria,US,5,,,,,
null,,confidence_buffer,1403141,confidence_buffer,,null,,,,,,,,
1140.9000000059605,,pt2_unique_rating,1404283,Peoria,,53,,,5,,,,,
null,,confidence_buffer,1404385,confidence_buffer,,null,,,,,,,,
1194.9000000059605,,pt2_memorable_rating,1405581,Peoria,,53,,,5,,,,,
null,,confidence_buffer,1405692,confidence_buffer,,null,,,,,,,,
1961.7999999821186,,recognition_phase,1407655,Peoria,,52,,,,,,new,1,0.9423076923076923
null,,confidence_buffer,1407757,confidence_buffer,,null,,,,,,,,
null,,thebreak,1408259,break,,null,,,,,,,,
3770.600000023842,,realistic_rating,1412031,Elmsbury,,50,Elmsbury,Fictional,2,,,,,
null,,confidence_buffer,1412143,confidence_buffer,,null,,,,,,,,
2709.5,,probe_rating,1414854,probe_rating,,53,,,,5,1,,,
null,,confidence_buffer,1414956,confidence_buffer,,null,,,,,,,,
3240.300000011921,,pt2_unique_rating,1418198,Elmsbury,,52,,,4,,,,,
null,,confidence_buffer,1418301,confidence_buffer,,null,,,,,,,,
1816.199999988079,,pt2_memorable_rating,1420118,Elmsbury,,51,,,3,,,,,
null,,confidence_buffer,1420221,confidence_buffer,,null,,,,,,,,
2520.0999999940395,,recognition_phase,1422743,Elmsbury,,49,,,,,,old,1,0.9433962264150944
null,,confidence_buffer,1422845,confidence_buffer,,null,,,,,,,,
null,,thebreak,1423346,break,,null,,,,,,,,
3339,,realistic_rating,1426686,Fairhaven,,52,Fairhaven,Fictional,4,,,,,
null,,confidence_buffer,1426789,confidence_buffer,,null,,,,,,,,
1976.5,,pt2_unique_rating,1428767,Fairhaven,,52,,,4,,,,,
null,,confidence_buffer,1428869,confidence_buffer,,null,,,,,,,,
2312.300000011921,,pt2_memorable_rating,1431182,Fairhaven,,53,,,5,,,,,
null,,confidence_buffer,1431284,confidence_buffer,,null,,,,,,,,
1997.4000000059605,,recognition_phase,1433282,Fairhaven,,52,,,,,,new,1,0.9444444444444444
null,,confidence_buffer,1433383,confidence_buffer,,null,,,,,,,,
null,,thebreak,1433885,break,,null,,,,,,,,
3092.7999999821186,,realistic_rating,1436978,Montelake,,50,Montelake,Fictional,2,,,,,
null,,confidence_buffer,1437079,confidence_buffer,,null,,,,,,,,
2134.300000011921,,pt2_unique_rating,1439214,Montelake,,53,,,5,,,,,
null,,confidence_buffer,1439317,confidence_buffer,,null,,,,,,,,
1832.199999988079,,pt2_memorable_rating,1441151,Montelake,,50,,,2,,,,,
null,,confidence_buffer,1441253,confidence_buffer,,null,,,,,,,,
1790.0999999940395,,probe_rating,1443044,probe_rating,,52,,,,4,1,,,
null,,confidence_buffer,1443147,confidence_buffer,,null,,,,,,,,
2234.2999999821186,,recognition_phase,1445383,Montelake,,52,,,,,,new,1,0.9454545454545454
null,,confidence_buffer,1445485,confidence_buffer,,null,,,,,,,,
null,,thebreak,1445988,break,,null,,,,,,,,
3557.5,,realistic_rating,1449546,Lake of the Ozarks,,53,Lake of the Ozarks,US,5,,,,,
null,,confidence_buffer,1449647,confidence_buffer,,null,,,,,,,,
5986.4000000059605,,pt2_unique_rating,1455634,Lake of the Ozarks,,53,,,5,,,,,
null,,confidence_buffer,1455735,confidence_buffer,,null,,,,,,,,
1978.5,,pt2_memorable_rating,1457714,Lake of the Ozarks,,53,,,5,,,,,
null,,confidence_buffer,1457816,confidence_buffer,,null,,,,,,,,
2301.0999999940395,,recognition_phase,1460118,Lake of the Ozarks,,52,,,,,,new,1,0.9464285714285714
null,,confidence_buffer,1460220,confidence_buffer,,null,,,,,,,,
null,,thebreak,1460721,break,,null,,,,,,,,
3644.300000011921,,realistic_rating,1464366,Ashford Hills,,51,Ashford Hills,Fictional,3,,,,,
null,,confidence_buffer,1464469,confidence_buffer,,null,,,,,,,,
2256.7999999821186,,pt2_unique_rating,1466727,Ashford Hills,,51,,,3,,,,,
null,,confidence_buffer,1466830,confidence_buffer,,null,,,,,,,,
2373.9000000059605,,pt2_memorable_rating,1469206,Ashford Hills,,52,,,4,,,,,
null,,confidence_buffer,1469308,confidence_buffer,,null,,,,,,,,
2320.4000000059605,,recognition_phase,1471630,Ashford Hills,,52,,,,,,new,1,0.9473684210526315
null,,confidence_buffer,1471731,confidence_buffer,,null,,,,,,,,
null,,thebreak,1472234,break,,null,,,,,,,,
2435.5,,realistic_rating,1474670,Manistee,,50,Manistee,US,2,,,,,
null,,confidence_buffer,1474772,confidence_buffer,,null,,,,,,,,
4549.699999988079,,pt2_unique_rating,1479323,Manistee,,52,,,4,,,,,
null,,confidence_buffer,1479425,confidence_buffer,,null,,,,,,,,
1371.0999999940395,,pt2_memorable_rating,1480798,Manistee,,51,,,3,,,,,
null,,confidence_buffer,1480900,confidence_buffer,,null,,,,,,,,
2069.300000011921,,recognition_phase,1482971,Manistee,,52,,,,,,new,1,0.9482758620689655
null,,confidence_buffer,1483073,confidence_buffer,,null,,,,,,,,
null,,thebreak,1483575,break,,null,,,,,,,,
3453.5,,realistic_rating,1487030,Barnard,,51,Barnard,US,3,,,,,
null,,confidence_buffer,1487133,confidence_buffer,,null,,,,,,,,
1766.5999999940395,,probe_rating,1488902,probe_rating,,52,,,,4,1,,,
null,,confidence_buffer,1489004,confidence_buffer,,null,,,,,,,,
3401,,pt2_unique_rating,1492406,Barnard,,52,,,4,,,,,
null,,confidence_buffer,1492508,confidence_buffer,,null,,,,,,,,
2492.800000011921,,pt2_memorable_rating,1495002,Barnard,,51,,,3,,,,,
null,,confidence_buffer,1495103,confidence_buffer,,null,,,,,,,,
3862.5,,recognition_phase,1498966,Barnard,,52,,,,,,new,0,0.9322033898305084
null,,confidence_buffer,1499068,confidence_buffer,,null,,,,,,,,
null,,thebreak,1499570,break,,null,,,,,,,,
3183.5,,realistic_rating,1502755,Linden Trace,,51,Linden Trace,Fictional,3,,,,,
null,,confidence_buffer,1502855,confidence_buffer,,null,,,,,,,,
2181.5,,pt2_unique_rating,1505038,Linden Trace,,51,,,3,,,,,
null,,confidence_buffer,1505140,confidence_buffer,,null,,,,,,,,
2400.4000000059605,,pt2_memorable_rating,1507542,Linden Trace,,52,,,4,,,,,
null,,confidence_buffer,1507644,confidence_buffer,,null,,,,,,,,
2055.199999988079,,recognition_phase,1509701,Linden Trace,,49,,,,,,old,1,0.9333333333333333
null,,confidence_buffer,1509804,confidence_buffer,,null,,,,,,,,
null,,thebreak,1510305,break,,null,,,,,,,,
