rt,responses,trial_type,time_elapsed,stimulus,button_pressed,key_press,name_trial,city_type,rating,probe,probe_accuracy,response,correct,accuracy
16478.899999976158,{worker_id:663d19e59cd1e42ebc5df4db},id_enter,16479,,,,,,,,,,,
10958.600000023842,,fullscreen,27439,fullscreen,0,,,,,,,,,
12640.199999928474,,intro_0,40080,instruct,,32,,,,,,,,
9474.100000023842,,intro_1,49555,instruct,,32,,,,,,,,
4245.700000047684,,intro_2,53801,instruct,,32,,,,,,,,
null,,instruct_dir_4,55302,instruct,,null,,,,,,,,
null,,thebreak,55803,break,,null,,,,,,,,
8167.700000047684,,familiar_rating,63971,Willowford,,49,Willowford,Fictional,1,,,,,
null,,confidence_buffer,64072,confidence_buffer,,null,,,,,,,,
3796.3000000715256,,unique_rating,67869,Willowford,,51,,,3,,,,,
null,,confidence_buffer,67970,confidence_buffer,,null,,,,,,,,
4839.399999976158,,memorable_rating,72810,Willowford,,51,,,3,,,,,
null,,confidence_buffer,72911,confidence_buffer,,null,,,,,,,,
null,,thebreak,73412,break,,null,,,,,,,,
3816.399999976158,,familiar_rating,77229,Carmel,,52,Carmel,US,4,,,,,
null,,confidence_buffer,77330,confidence_buffer,,null,,,,,,,,
3712.899999976158,,unique_rating,81043,Carmel,,50,,,2,,,,,
null,,confidence_buffer,81144,confidence_buffer,,null,,,,,,,,
2138.7000000476837,,memorable_rating,83283,Carmel,,52,,,4,,,,,
null,,confidence_buffer,83384,confidence_buffer,,null,,,,,,,,
null,,thebreak,83885,break,,null,,,,,,,,
2227.5,,familiar_rating,86113,Delaware City,,53,Delaware City,US,5,,,,,
null,,confidence_buffer,86214,confidence_buffer,,null,,,,,,,,
2819.8000000715256,,unique_rating,89034,Delaware City,,49,,,1,,,,,
null,,confidence_buffer,89135,confidence_buffer,,null,,,,,,,,
3758.5,,memorable_rating,92894,Delaware City,,51,,,3,,,,,
null,,confidence_buffer,92994,confidence_buffer,,null,,,,,,,,
null,,thebreak,93496,break,,null,,,,,,,,
5170.399999976158,,familiar_rating,98667,Cape May,,50,Cape May,US,2,,,,,
null,,confidence_buffer,98768,confidence_buffer,,null,,,,,,,,
2418.7000000476837,,unique_rating,101187,Cape May,,49,,,1,,,,,
null,,confidence_buffer,101289,confidence_buffer,,null,,,,,,,,
1070.7999999523163,,memorable_rating,102360,Cape May,,49,,,1,,,,,
null,,confidence_buffer,102461,confidence_buffer,,null,,,,,,,,
null,,thebreak,102962,break,,null,,,,,,,,
5368.399999976158,,familiar_rating,108331,Berkeley Springs,,49,Berkeley Springs,US,1,,,,,
null,,confidence_buffer,108431,confidence_buffer,,null,,,,,,,,
2389.2999999523163,,unique_rating,110821,Berkeley Springs,,49,,,1,,,,,
null,,confidence_buffer,110922,confidence_buffer,,null,,,,,,,,
1116.7000000476837,,memorable_rating,112039,Berkeley Springs,,49,,,1,,,,,
null,,confidence_buffer,112140,confidence_buffer,,null,,,,,,,,
null,,thebreak,112640,break,,null,,,,,,,,
3689,,familiar_rating,116330,Sisters,,49,Sisters,US,1,,,,,
null,,confidence_buffer,116431,confidence_buffer,,null,,,,,,,,
1563.7999999523163,,unique_rating,117995,Sisters,,49,,,1,,,,,
null,,confidence_buffer,118096,confidence_buffer,,null,,,,,,,,
1707.3999999761581,,memorable_rating,119804,Sisters,,50,,,2,,,,,
null,,confidence_buffer,119904,confidence_buffer,,null,,,,,,,,
null,,thebreak,120406,break,,null,,,,,,,,
3446.600000023842,,familiar_rating,123853,West Talora,,49,West Talora,Fictional,1,,,,,
null,,confidence_buffer,123954,confidence_buffer,,null,,,,,,,,
2948.2999999523163,,unique_rating,126903,West Talora,,51,,,3,,,,,
null,,confidence_buffer,127004,confidence_buffer,,null,,,,,,,,
3546.5,,memorable_rating,130551,West Talora,,51,,,3,,,,,
null,,confidence_buffer,130653,confidence_buffer,,null,,,,,,,,
null,,thebreak,131153,break,,null,,,,,,,,
6064.100000023842,,familiar_rating,137218,Sierra Hollow,,51,Sierra Hollow,Fictional,3,,,,,
null,,confidence_buffer,137330,confidence_buffer,,null,,,,,,,,
3913.7000000476837,,unique_rating,141244,Sierra Hollow,,50,,,2,,,,,
null,,confidence_buffer,141345,confidence_buffer,,null,,,,,,,,
1714.7000000476837,,memorable_rating,143060,Sierra Hollow,,51,,,3,,,,,
null,,confidence_buffer,143160,confidence_buffer,,null,,,,,,,,
null,,thebreak,143661,break,,null,,,,,,,,
2697.5,,familiar_rating,146359,Elmsbury,,51,Elmsbury,Fictional,3,,,,,
null,,confidence_buffer,146475,confidence_buffer,,null,,,,,,,,
1094.6000000238419,,unique_rating,147570,Elmsbury,,51,,,3,,,,,
null,,confidence_buffer,147670,confidence_buffer,,null,,,,,,,,
4084.2999999523163,,probe_rating,151755,probe_rating,,50,,,,2,1,,,
null,,confidence_buffer,151857,confidence_buffer,,null,,,,,,,,
4119.700000047684,,memorable_rating,155977,Elmsbury,,51,,,3,,,,,
null,,confidence_buffer,156085,confidence_buffer,,null,,,,,,,,
null,,thebreak,156586,break,,null,,,,,,,,
2971,,familiar_rating,159558,Pine Hollow,,52,Pine Hollow,Fictional,4,,,,,
null,,confidence_buffer,159662,confidence_buffer,,null,,,,,,,,
1634.6000000238419,,unique_rating,161297,Pine Hollow,,51,,,3,,,,,
null,,confidence_buffer,161398,confidence_buffer,,null,,,,,,,,
2546.899999976158,,memorable_rating,163946,Pine Hollow,,52,,,4,,,,,
null,,confidence_buffer,164046,confidence_buffer,,null,,,,,,,,
null,,thebreak,164548,break,,null,,,,,,,,
2756.600000023842,,familiar_rating,167305,Brookmere,,49,Brookmere,Fictional,1,,,,,
null,,confidence_buffer,167406,confidence_buffer,,null,,,,,,,,
3409.8000000715256,,unique_rating,170816,Brookmere,,52,,,4,,,,,
null,,confidence_buffer,170917,confidence_buffer,,null,,,,,,,,
1880.6000000238419,,memorable_rating,172798,Brookmere,,51,,,3,,,,,
null,,confidence_buffer,172900,confidence_buffer,,null,,,,,,,,
null,,thebreak,173402,break,,null,,,,,,,,
4602.700000047684,,familiar_rating,178005,Lakehaven,,49,Lakehaven,Fictional,1,,,,,
null,,confidence_buffer,178105,confidence_buffer,,null,,,,,,,,
1714.8999999761581,,unique_rating,179821,Lakehaven,,50,,,2,,,,,
null,,confidence_buffer,179921,confidence_buffer,,null,,,,,,,,
852.4000000953674,,memorable_rating,180774,Lakehaven,,50,,,2,,,,,
null,,confidence_buffer,180875,confidence_buffer,,null,,,,,,,,
null,,thebreak,181375,break,,null,,,,,,,,
6913.199999928474,,familiar_rating,188289,Folly Beach,,50,Folly Beach,US,2,,,,,
null,,confidence_buffer,188390,confidence_buffer,,null,,,,,,,,
1502.3999999761581,,unique_rating,189893,Folly Beach,,51,,,3,,,,,
null,,confidence_buffer,189994,confidence_buffer,,null,,,,,,,,
2252.7000000476837,,memorable_rating,192247,Folly Beach,,50,,,2,,,,,
null,,confidence_buffer,192355,confidence_buffer,,null,,,,,,,,
null,,thebreak,192856,break,,null,,,,,,,,
3922.600000023842,,familiar_rating,196779,Cody,,49,Cody,US,1,,,,,
null,,confidence_buffer,196880,confidence_buffer,,null,,,,,,,,
1919.8999999761581,,unique_rating,198800,Cody,,50,,,2,,,,,
null,,confidence_buffer,198901,confidence_buffer,,null,,,,,,,,
2017.5,,memorable_rating,200919,Cody,,50,,,2,,,,,
null,,confidence_buffer,201020,confidence_buffer,,null,,,,,,,,
null,,thebreak,201521,break,,null,,,,,,,,
3528.600000023842,,familiar_rating,205050,Coralridge,,49,Coralridge,Fictional,1,,,,,
null,,confidence_buffer,205151,confidence_buffer,,null,,,,,,,,
1904.7000000476837,,unique_rating,207056,Coralridge,,50,,,2,,,,,
null,,confidence_buffer,207158,confidence_buffer,,null,,,,,,,,
1153.8000000715256,,memorable_rating,208312,Coralridge,,50,,,2,,,,,
null,,confidence_buffer,208413,confidence_buffer,,null,,,,,,,,
null,,thebreak,208914,break,,null,,,,,,,,
1803.7000000476837,,familiar_rating,210718,Natchez,,49,Natchez,US,1,,,,,
null,,confidence_buffer,210819,confidence_buffer,,null,,,,,,,,
2418.5,,unique_rating,213238,Natchez,,53,,,5,,,,,
null,,confidence_buffer,213346,confidence_buffer,,null,,,,,,,,
4718.300000071526,,memorable_rating,218065,Natchez,,51,,,3,,,,,
null,,confidence_buffer,218167,confidence_buffer,,null,,,,,,,,
null,,thebreak,218669,break,,null,,,,,,,,
4820.300000071526,,familiar_rating,223490,Riverlyn,,51,Riverlyn,Fictional,3,,,,,
null,,confidence_buffer,223591,confidence_buffer,,null,,,,,,,,
2766.2999999523163,,unique_rating,226358,Riverlyn,,51,,,3,,,,,
null,,confidence_buffer,226466,confidence_buffer,,null,,,,,,,,
3667.5,,memorable_rating,230134,Riverlyn,,51,,,3,,,,,
null,,confidence_buffer,230235,confidence_buffer,,null,,,,,,,,
null,,thebreak,230735,break,,null,,,,,,,,
4846.5,,familiar_rating,235582,Livingston,,51,Livingston,US,3,,,,,
null,,confidence_buffer,235683,confidence_buffer,,null,,,,,,,,
1964.2000000476837,,unique_rating,237648,Livingston,,50,,,2,,,,,
null,,confidence_buffer,237750,confidence_buffer,,null,,,,,,,,
2197.5,,memorable_rating,239948,Livingston,,49,,,1,,,,,
null,,confidence_buffer,240048,confidence_buffer,,null,,,,,,,,
null,,thebreak,240550,break,,null,,,,,,,,
5488.700000047684,,familiar_rating,246039,Baymarsh,,49,Baymarsh,Fictional,1,,,,,
null,,confidence_buffer,246141,confidence_buffer,,null,,,,,,,,
4225.800000071526,,probe_rating,250367,probe_rating,,50,,,,2,0,,,
null,,confidence_buffer,250469,confidence_buffer,,null,,,,,,,,
5421.699999928474,,unique_rating,255891,Baymarsh,,50,,,2,,,,,
null,,confidence_buffer,255992,confidence_buffer,,null,,,,,,,,
2516.5999999046326,,memorable_rating,258509,Baymarsh,,51,,,3,,,,,
null,,confidence_buffer,258610,confidence_buffer,,null,,,,,,,,
null,,thebreak,259111,break,,null,,,,,,,,
6738.600000023842,,familiar_rating,265850,Juniper Creek,,52,Juniper Creek,Fictional,4,,,,,
null,,confidence_buffer,265951,confidence_buffer,,null,,,,,,,,
2402.5,,unique_rating,268354,Juniper Creek,,52,,,4,,,,,
null,,confidence_buffer,268456,confidence_buffer,,null,,,,,,,,
1161.9000000953674,,memorable_rating,269618,Juniper Creek,,52,,,4,,,,,
null,,confidence_buffer,269719,confidence_buffer,,null,,,,,,,,
2288.600000023842,,probe_rating,272008,probe_rating,,50,,,,2,1,,,
null,,confidence_buffer,272123,confidence_buffer,,null,,,,,,,,
null,,thebreak,272624,break,,null,,,,,,,,
3240.899999976158,,familiar_rating,275866,North Arroya,,49,North Arroya,Fictional,1,,,,,
null,,confidence_buffer,275968,confidence_buffer,,null,,,,,,,,
1918.6000000238419,,unique_rating,277887,North Arroya,,52,,,4,,,,,
null,,confidence_buffer,277997,confidence_buffer,,null,,,,,,,,
2030.7000000476837,,memorable_rating,280028,North Arroya,,51,,,3,,,,,
null,,confidence_buffer,280129,confidence_buffer,,null,,,,,,,,
null,,thebreak,280630,break,,null,,,,,,,,
1871.6000000238419,,familiar_rating,282502,Cleveland,,53,Cleveland,US,5,,,,,
null,,confidence_buffer,282603,confidence_buffer,,null,,,,,,,,
2901.3000000715256,,unique_rating,285505,Cleveland,,52,,,4,,,,,
null,,confidence_buffer,285606,confidence_buffer,,null,,,,,,,,
1146.5,,memorable_rating,286753,Cleveland,,53,,,5,,,,,
null,,confidence_buffer,286853,confidence_buffer,,null,,,,,,,,
3380.2999999523163,,probe_rating,290234,probe_rating,,50,,,,2,1,,,
null,,confidence_buffer,290335,confidence_buffer,,null,,,,,,,,
null,,thebreak,290836,break,,null,,,,,,,,
2324.7999999523163,,familiar_rating,293161,Orr,,49,Orr,US,1,,,,,
null,,confidence_buffer,293262,confidence_buffer,,null,,,,,,,,
3598.5,,probe_rating,296861,probe_rating,,49,,,,1,1,,,
null,,confidence_buffer,296962,confidence_buffer,,null,,,,,,,,
4308.800000071526,,unique_rating,301271,Orr,,53,,,5,,,,,
null,,confidence_buffer,301372,confidence_buffer,,null,,,,,,,,
3688.5,,memorable_rating,305061,Orr,,52,,,4,,,,,
null,,confidence_buffer,305163,confidence_buffer,,null,,,,,,,,
null,,thebreak,305664,break,,null,,,,,,,,
5078.700000047684,,familiar_rating,310743,Watkins Glen,,51,Watkins Glen,US,3,,,,,
null,,confidence_buffer,310844,confidence_buffer,,null,,,,,,,,
2545.7000000476837,,unique_rating,313390,Watkins Glen,,50,,,2,,,,,
null,,confidence_buffer,313491,confidence_buffer,,null,,,,,,,,
1654.5999999046326,,memorable_rating,315146,Watkins Glen,,50,,,2,,,,,
null,,confidence_buffer,315248,confidence_buffer,,null,,,,,,,,
null,,thebreak,315749,break,,null,,,,,,,,
8535.799999952316,,familiar_rating,324285,Bayshore Haven,,50,Bayshore Haven,Fictional,2,,,,,
null,,confidence_buffer,324386,confidence_buffer,,null,,,,,,,,
4529.300000071526,,unique_rating,328916,Bayshore Haven,,50,,,2,,,,,
null,,confidence_buffer,329018,confidence_buffer,,null,,,,,,,,
1380.8999999761581,,memorable_rating,330399,Bayshore Haven,,50,,,2,,,,,
null,,confidence_buffer,330500,confidence_buffer,,null,,,,,,,,
null,,thebreak,331002,break,,null,,,,,,,,
4866.899999976158,,familiar_rating,335869,Racine,,49,Racine,US,1,,,,,
null,,confidence_buffer,335971,confidence_buffer,,null,,,,,,,,
2076.8000000715256,,unique_rating,338048,Racine,,52,,,4,,,,,
null,,confidence_buffer,338149,confidence_buffer,,null,,,,,,,,
2123.2000000476837,,memorable_rating,340273,Racine,,50,,,2,,,,,
null,,confidence_buffer,340374,confidence_buffer,,null,,,,,,,,
null,,thebreak,340875,break,,null,,,,,,,,
1357.1999999284744,,familiar_rating,342233,Leesburg,,49,Leesburg,US,1,,,,,
null,,confidence_buffer,342334,confidence_buffer,,null,,,,,,,,
5112.799999952316,,unique_rating,347447,Leesburg,,50,,,2,,,,,
null,,confidence_buffer,347549,confidence_buffer,,null,,,,,,,,
1955.7999999523163,,memorable_rating,349505,Leesburg,,49,,,1,,,,,
null,,confidence_buffer,349606,confidence_buffer,,null,,,,,,,,
2062.5,,probe_rating,351669,probe_rating,,49,,,,1,1,,,
null,,confidence_buffer,351770,confidence_buffer,,null,,,,,,,,
null,,thebreak,352270,break,,null,,,,,,,,
2342.3000000715256,,familiar_rating,354613,Highvale,,49,Highvale,Fictional,1,,,,,
null,,confidence_buffer,354714,confidence_buffer,,null,,,,,,,,
2122.6999999284744,,unique_rating,356837,Highvale,,52,,,4,,,,,
null,,confidence_buffer,356942,confidence_buffer,,null,,,,,,,,
3390.2999999523163,,memorable_rating,360333,Highvale,,51,,,3,,,,,
null,,confidence_buffer,360434,confidence_buffer,,null,,,,,,,,
null,,thebreak,360935,break,,null,,,,,,,,
3272.600000023842,,familiar_rating,364208,Oakridge,,53,Oakridge,Fictional,5,,,,,
null,,confidence_buffer,364311,confidence_buffer,,null,,,,,,,,
3710,,unique_rating,368021,Oakridge,,50,,,2,,,,,
null,,confidence_buffer,368122,confidence_buffer,,null,,,,,,,,
2252.7000000476837,,memorable_rating,370375,Oakridge,,52,,,4,,,,,
null,,confidence_buffer,370476,confidence_buffer,,null,,,,,,,,
2349.5,,probe_rating,372826,probe_rating,,50,,,,2,1,,,
null,,confidence_buffer,372926,confidence_buffer,,null,,,,,,,,
null,,thebreak,373439,break,,null,,,,,,,,
2307.5,,familiar_rating,375747,Newport,,53,Newport,US,5,,,,,
null,,confidence_buffer,375847,confidence_buffer,,null,,,,,,,,
2169.2999999523163,,unique_rating,378017,Newport,,50,,,2,,,,,
null,,confidence_buffer,378119,confidence_buffer,,null,,,,,,,,
2077.8000000715256,,memorable_rating,380197,Newport,,53,,,5,,,,,
null,,confidence_buffer,380298,confidence_buffer,,null,,,,,,,,
null,,thebreak,380799,break,,null,,,,,,,,
5398.800000071526,,intro_0,386198,instruct,,32,,,,,,,,
15193.899999976158,,intro_1,401392,instruct,,32,,,,,,,,
40005,,intro_2,441397,instruct,,32,,,,,,,,
null,,instruct_dir_4,442899,instruct,,null,,,,,,,,
6827.199999928474,,realistic_rating,449727,Highvale,,51,Highvale,Fictional,3,,,,,
null,,confidence_buffer,449830,confidence_buffer,,null,,,,,,,,
6449.099999904633,,pt2_unique_rating,456280,Highvale,,51,,,3,,,,,
null,,confidence_buffer,456381,confidence_buffer,,null,,,,,,,,
2682.6999999284744,,pt2_memorable_rating,459064,Highvale,,51,,,3,,,,,
null,,confidence_buffer,459165,confidence_buffer,,null,,,,,,,,
2721.100000023842,,recognition_phase,461887,Highvale,,49,,,,,,old,1,1
null,,confidence_buffer,461989,confidence_buffer,,null,,,,,,,,
null,,thebreak,462490,break,,null,,,,,,,,
3209.5,,realistic_rating,465700,Peoria,,53,Peoria,US,5,,,,,
null,,confidence_buffer,465801,confidence_buffer,,null,,,,,,,,
2085.5,,pt2_unique_rating,467887,Peoria,,51,,,3,,,,,
null,,confidence_buffer,467988,confidence_buffer,,null,,,,,,,,
2561.399999976158,,pt2_memorable_rating,470550,Peoria,,53,,,5,,,,,
null,,confidence_buffer,470652,confidence_buffer,,null,,,,,,,,
3877.6999999284744,,recognition_phase,474530,Peoria,,52,,,,,,new,1,1
null,,confidence_buffer,474631,confidence_buffer,,null,,,,,,,,
null,,thebreak,475133,break,,null,,,,,,,,
6214.599999904633,,realistic_rating,481348,Willowford,,52,Willowford,Fictional,4,,,,,
null,,confidence_buffer,481449,confidence_buffer,,null,,,,,,,,
2365.7999999523163,,pt2_unique_rating,483815,Willowford,,51,,,3,,,,,
null,,confidence_buffer,483916,confidence_buffer,,null,,,,,,,,
1911.5999999046326,,pt2_memorable_rating,485828,Willowford,,52,,,4,,,,,
null,,confidence_buffer,485933,confidence_buffer,,null,,,,,,,,
2619.3000000715256,,recognition_phase,488553,Willowford,,49,,,,,,old,1,1
null,,confidence_buffer,488654,confidence_buffer,,null,,,,,,,,
null,,thebreak,489155,break,,null,,,,,,,,
3581.7999999523163,,realistic_rating,492737,Orr,,50,Orr,US,2,,,,,
null,,confidence_buffer,492838,confidence_buffer,,null,,,,,,,,
2418.4000000953674,,probe_rating,495257,probe_rating,,50,,,,2,1,,,
null,,confidence_buffer,495359,confidence_buffer,,null,,,,,,,,
7919.399999976158,,pt2_unique_rating,503279,Orr,,53,,,5,,,,,
null,,confidence_buffer,503380,confidence_buffer,,null,,,,,,,,
2221.7000000476837,,pt2_memorable_rating,505602,Orr,,53,,,5,,,,,
null,,confidence_buffer,505703,confidence_buffer,,null,,,,,,,,
1873.6000000238419,,recognition_phase,507577,Orr,,49,,,,,,old,1,1
null,,confidence_buffer,507679,confidence_buffer,,null,,,,,,,,
null,,thebreak,508180,break,,null,,,,,,,,
4996.5,,realistic_rating,513177,Hawthorne Bluffs,,52,Hawthorne Bluffs,Fictional,4,,,,,
null,,confidence_buffer,513278,confidence_buffer,,null,,,,,,,,
1911.7999999523163,,pt2_unique_rating,515190,Hawthorne Bluffs,,51,,,3,,,,,
null,,confidence_buffer,515291,confidence_buffer,,null,,,,,,,,
1964.8999999761581,,pt2_memorable_rating,517256,Hawthorne Bluffs,,50,,,2,,,,,
null,,confidence_buffer,517357,confidence_buffer,,null,,,,,,,,
4090.1999999284744,,recognition_phase,521448,Hawthorne Bluffs,,51,,,,,,new,1,1
null,,confidence_buffer,521550,confidence_buffer,,null,,,,,,,,
null,,thebreak,522051,break,,null,,,,,,,,
4035.8000000715256,,realistic_rating,526087,Bisbee,,49,Bisbee,US,1,,,,,
null,,confidence_buffer,526198,confidence_buffer,,null,,,,,,,,
2203.5999999046326,,pt2_unique_rating,528402,Bisbee,,52,,,4,,,,,
null,,confidence_buffer,528503,confidence_buffer,,null,,,,,,,,
2319.5999999046326,,pt2_memorable_rating,530823,Bisbee,,52,,,4,,,,,
null,,confidence_buffer,530924,confidence_buffer,,null,,,,,,,,
2925.2999999523163,,recognition_phase,533850,Bisbee,,51,,,,,,new,1,1
null,,confidence_buffer,533951,confidence_buffer,,null,,,,,,,,
null,,thebreak,534451,break,,null,,,,,,,,
3212.600000023842,,realistic_rating,537664,Delaro Park,,50,Delaro Park,Fictional,2,,,,,
null,,confidence_buffer,537765,confidence_buffer,,null,,,,,,,,
2214.2999999523163,,pt2_unique_rating,539980,Delaro Park,,51,,,3,,,,,
null,,confidence_buffer,540081,confidence_buffer,,null,,,,,,,,
8169.5,,pt2_memorable_rating,548251,Delaro Park,,51,,,3,,,,,
null,,confidence_buffer,548353,confidence_buffer,,null,,,,,,,,
1993.8999999761581,,recognition_phase,550347,Delaro Park,,52,,,,,,new,1,1
null,,confidence_buffer,550449,confidence_buffer,,null,,,,,,,,
null,,thebreak,550949,break,,null,,,,,,,,
6570.399999976158,,realistic_rating,557520,Coeur d'Alene,,50,Coeur d'Alene,US,2,,,,,
null,,confidence_buffer,557621,confidence_buffer,,null,,,,,,,,
3228.600000023842,,probe_rating,560850,probe_rating,,53,,,,5,1,,,
null,,confidence_buffer,560951,confidence_buffer,,null,,,,,,,,
3129.2999999523163,,pt2_unique_rating,564081,Coeur d'Alene,,50,,,2,,,,,
null,,confidence_buffer,564182,confidence_buffer,,null,,,,,,,,
2932.2999999523163,,pt2_memorable_rating,567115,Coeur d'Alene,,52,,,4,,,,,
null,,confidence_buffer,567215,confidence_buffer,,null,,,,,,,,
1276.2999999523163,,recognition_phase,568492,Coeur d'Alene,,52,,,,,,new,1,1
null,,confidence_buffer,568593,confidence_buffer,,null,,,,,,,,
null,,thebreak,569094,break,,null,,,,,,,,
2280.7000000476837,,realistic_rating,571375,Delaware City,,53,Delaware City,US,5,,,,,
null,,confidence_buffer,571476,confidence_buffer,,null,,,,,,,,
1812.3999999761581,,pt2_unique_rating,573289,Delaware City,,51,,,3,,,,,
null,,confidence_buffer,573398,confidence_buffer,,null,,,,,,,,
669.5,,pt2_memorable_rating,574068,Delaware City,,53,,,5,,,,,
null,,confidence_buffer,574169,confidence_buffer,,null,,,,,,,,
2009.1999999284744,,probe_rating,576179,probe_rating,,50,,,,2,1,,,
null,,confidence_buffer,576280,confidence_buffer,,null,,,,,,,,
1592.6000000238419,,recognition_phase,577873,Delaware City,,49,,,,,,old,1,1
null,,confidence_buffer,577974,confidence_buffer,,null,,,,,,,,
null,,thebreak,578475,break,,null,,,,,,,,
3816.8000000715256,,realistic_rating,582292,Cape May,,51,Cape May,US,3,,,,,
null,,confidence_buffer,582393,confidence_buffer,,null,,,,,,,,
1540.7999999523163,,pt2_unique_rating,583934,Cape May,,50,,,2,,,,,
null,,confidence_buffer,584034,confidence_buffer,,null,,,,,,,,
2759.2999999523163,,pt2_memorable_rating,586794,Cape May,,50,,,2,,,,,
null,,confidence_buffer,586895,confidence_buffer,,null,,,,,,,,
1751.6000000238419,,recognition_phase,588647,Cape May,,49,,,,,,old,1,1
null,,confidence_buffer,588749,confidence_buffer,,null,,,,,,,,
null,,thebreak,589251,break,,null,,,,,,,,
3232.2000000476837,,realistic_rating,592483,Elmsbury,,52,Elmsbury,Fictional,4,,,,,
null,,confidence_buffer,592585,confidence_buffer,,null,,,,,,,,
1168.6000000238419,,pt2_unique_rating,593754,Elmsbury,,52,,,4,,,,,
null,,confidence_buffer,593855,confidence_buffer,,null,,,,,,,,
2069.5,,pt2_memorable_rating,595925,Elmsbury,,52,,,4,,,,,
null,,confidence_buffer,596026,confidence_buffer,,null,,,,,,,,
897.1999999284744,,recognition_phase,596924,Elmsbury,,49,,,,,,old,1,1
null,,confidence_buffer,597026,confidence_buffer,,null,,,,,,,,
null,,thebreak,597528,break,,null,,,,,,,,
3617.5,,realistic_rating,601146,Coralridge,,51,Coralridge,Fictional,3,,,,,
null,,confidence_buffer,601261,confidence_buffer,,null,,,,,,,,
1185.3999999761581,,pt2_unique_rating,602447,Coralridge,,51,,,3,,,,,
null,,confidence_buffer,602556,confidence_buffer,,null,,,,,,,,
1344.5,,pt2_memorable_rating,603900,Coralridge,,50,,,2,,,,,
null,,confidence_buffer,604002,confidence_buffer,,null,,,,,,,,
1062.7000000476837,,recognition_phase,605065,Coralridge,,49,,,,,,old,1,1
null,,confidence_buffer,605166,confidence_buffer,,null,,,,,,,,
null,,thebreak,605667,break,,null,,,,,,,,
3905.6999999284744,,realistic_rating,609573,Lakehaven,,52,Lakehaven,Fictional,4,,,,,
null,,confidence_buffer,609674,confidence_buffer,,null,,,,,,,,
3901.100000023842,,probe_rating,613575,probe_rating,,53,,,,5,1,,,
null,,confidence_buffer,613677,confidence_buffer,,null,,,,,,,,
3090.600000023842,,pt2_unique_rating,616768,Lakehaven,,50,,,2,,,,,
null,,confidence_buffer,616882,confidence_buffer,,null,,,,,,,,
2767.1999999284744,,pt2_memorable_rating,619650,Lakehaven,,50,,,2,,,,,
null,,confidence_buffer,619751,confidence_buffer,,null,,,,,,,,
1835.6000000238419,,recognition_phase,621587,Lakehaven,,49,,,,,,old,1,1
null,,confidence_buffer,621688,confidence_buffer,,null,,,,,,,,
null,,thebreak,622190,break,,null,,,,,,,,
4639.600000023842,,realistic_rating,626830,Baymarsh,,51,Baymarsh,Fictional,3,,,,,
null,,confidence_buffer,626931,confidence_buffer,,null,,,,,,,,
1434.6000000238419,,pt2_unique_rating,628366,Baymarsh,,50,,,2,,,,,
null,,confidence_buffer,628471,confidence_buffer,,null,,,,,,,,
1861.6000000238419,,probe_rating,630333,probe_rating,,50,,,,2,1,,,
null,,confidence_buffer,630434,confidence_buffer,,null,,,,,,,,
5640.399999976158,,pt2_memorable_rating,636075,Baymarsh,,51,,,3,,,,,
null,,confidence_buffer,636176,confidence_buffer,,null,,,,,,,,
2985.600000023842,,recognition_phase,639162,Baymarsh,,51,,,,,,new,0,0.9285714285714286
null,,confidence_buffer,639263,confidence_buffer,,null,,,,,,,,
null,,thebreak,639764,break,,null,,,,,,,,
3936.5,,realistic_rating,643701,Riverlyn,,50,Riverlyn,Fictional,2,,,,,
null,,confidence_buffer,643802,confidence_buffer,,null,,,,,,,,
1154.1999999284744,,pt2_unique_rating,644957,Riverlyn,,50,,,2,,,,,
null,,confidence_buffer,645068,confidence_buffer,,null,,,,,,,,
1356.1999999284744,,pt2_memorable_rating,646425,Riverlyn,,50,,,2,,,,,
null,,confidence_buffer,646526,confidence_buffer,,null,,,,,,,,
3439.399999976158,,recognition_phase,649966,Riverlyn,,49,,,,,,old,1,0.9333333333333333
null,,confidence_buffer,650068,confidence_buffer,,null,,,,,,,,
null,,thebreak,650568,break,,null,,,,,,,,
3512.399999976158,,realistic_rating,654081,Natchez,,50,Natchez,US,2,,,,,
null,,confidence_buffer,654181,confidence_buffer,,null,,,,,,,,
2714.2999999523163,,pt2_unique_rating,656896,Natchez,,52,,,4,,,,,
null,,confidence_buffer,656998,confidence_buffer,,null,,,,,,,,
986.8999999761581,,pt2_memorable_rating,657985,Natchez,,52,,,4,,,,,
null,,confidence_buffer,658086,confidence_buffer,,null,,,,,,,,
1155.1000000238419,,recognition_phase,659241,Natchez,,49,,,,,,old,1,0.9375
null,,confidence_buffer,659342,confidence_buffer,,null,,,,,,,,
null,,thebreak,659843,break,,null,,,,,,,,
2295.399999976158,,realistic_rating,662139,Carmel,,53,Carmel,US,5,,,,,
null,,confidence_buffer,662240,confidence_buffer,,null,,,,,,,,
1594.5999999046326,,pt2_unique_rating,663834,Carmel,,50,,,2,,,,,
null,,confidence_buffer,663935,confidence_buffer,,null,,,,,,,,
3431.5,,pt2_memorable_rating,667367,Carmel,,51,,,3,,,,,
null,,confidence_buffer,667473,confidence_buffer,,null,,,,,,,,
1399.5,,recognition_phase,668873,Carmel,,49,,,,,,old,1,0.9411764705882353
null,,confidence_buffer,668974,confidence_buffer,,null,,,,,,,,
null,,thebreak,669474,break,,null,,,,,,,,
3211.5,,realistic_rating,672686,Duck,,50,Duck,US,2,,,,,
null,,confidence_buffer,672788,confidence_buffer,,null,,,,,,,,
1100.5,,pt2_unique_rating,673889,Duck,,49,,,1,,,,,
null,,confidence_buffer,673990,confidence_buffer,,null,,,,,,,,
2577.0999999046326,,pt2_memorable_rating,676567,Duck,,49,,,1,,,,,
null,,confidence_buffer,676668,confidence_buffer,,null,,,,,,,,
1963.3999999761581,,recognition_phase,678632,Duck,,52,,,,,,new,1,0.9444444444444444
null,,confidence_buffer,678733,confidence_buffer,,null,,,,,,,,
null,,thebreak,679235,break,,null,,,,,,,,
9398.600000023842,,realistic_rating,688634,Pine Hollow,,52,Pine Hollow,Fictional,4,,,,,
null,,confidence_buffer,688736,confidence_buffer,,null,,,,,,,,
1918.2999999523163,,pt2_unique_rating,690654,Pine Hollow,,50,,,2,,,,,
null,,confidence_buffer,690756,confidence_buffer,,null,,,,,,,,
2198.399999976158,,pt2_memorable_rating,692954,Pine Hollow,,50,,,2,,,,,
null,,confidence_buffer,693056,confidence_buffer,,null,,,,,,,,
835.2999999523163,,recognition_phase,693892,Pine Hollow,,49,,,,,,old,1,0.9473684210526315
null,,confidence_buffer,693994,confidence_buffer,,null,,,,,,,,
null,,thebreak,694494,break,,null,,,,,,,,
4376.600000023842,,realistic_rating,698871,Racine,,50,Racine,US,2,,,,,
null,,confidence_buffer,698972,confidence_buffer,,null,,,,,,,,
1964.3999999761581,,pt2_unique_rating,700937,Racine,,52,,,4,,,,,
null,,confidence_buffer,701044,confidence_buffer,,null,,,,,,,,
3366.100000023842,,pt2_memorable_rating,704410,Racine,,51,,,3,,,,,
null,,confidence_buffer,704511,confidence_buffer,,null,,,,,,,,
3802.399999976158,,recognition_phase,708314,Racine,,50,,,,,,old,1,0.95
null,,confidence_buffer,708415,confidence_buffer,,null,,,,,,,,
null,,thebreak,708915,break,,null,,,,,,,,
3243.100000023842,,realistic_rating,712158,East Ladera,,51,East Ladera,Fictional,3,,,,,
null,,confidence_buffer,712274,confidence_buffer,,null,,,,,,,,
913.2999999523163,,pt2_unique_rating,713187,East Ladera,,51,,,3,,,,,
null,,confidence_buffer,713288,confidence_buffer,,null,,,,,,,,
1790.3999999761581,,probe_rating,715079,probe_rating,,50,,,,2,1,,,
null,,confidence_buffer,715180,confidence_buffer,,null,,,,,,,,
2773.399999976158,,pt2_memorable_rating,717954,East Ladera,,51,,,3,,,,,
null,,confidence_buffer,718056,confidence_buffer,,null,,,,,,,,
2153,,recognition_phase,720209,East Ladera,,51,,,,,,new,1,0.9523809523809523
null,,confidence_buffer,720310,confidence_buffer,,null,,,,,,,,
null,,thebreak,720812,break,,null,,,,,,,,
4111,,realistic_rating,724923,Juniper Creek,,53,Juniper Creek,Fictional,5,,,,,
null,,confidence_buffer,725024,confidence_buffer,,null,,,,,,,,
1760.8000000715256,,pt2_unique_rating,726785,Juniper Creek,,51,,,3,,,,,
null,,confidence_buffer,726886,confidence_buffer,,null,,,,,,,,
1245.6000000238419,,pt2_memorable_rating,728132,Juniper Creek,,51,,,3,,,,,
null,,confidence_buffer,728233,confidence_buffer,,null,,,,,,,,
1388.3999999761581,,recognition_phase,729622,Juniper Creek,,49,,,,,,old,1,0.9545454545454546
null,,confidence_buffer,729724,confidence_buffer,,null,,,,,,,,
null,,thebreak,730226,break,,null,,,,,,,,
3217.4000000953674,,realistic_rating,733443,Custer,,50,Custer,US,2,,,,,
null,,confidence_buffer,733545,confidence_buffer,,null,,,,,,,,
1585.7000000476837,,pt2_unique_rating,735131,Custer,,50,,,2,,,,,
null,,confidence_buffer,735233,confidence_buffer,,null,,,,,,,,
2349,,probe_rating,737582,probe_rating,,49,,,,1,1,,,
null,,confidence_buffer,737684,confidence_buffer,,null,,,,,,,,
5088.399999976158,,pt2_memorable_rating,742773,Custer,,49,,,1,,,,,
null,,confidence_buffer,742874,confidence_buffer,,null,,,,,,,,
3592.4000000953674,,recognition_phase,746466,Custer,,52,,,,,,new,1,0.9565217391304348
null,,confidence_buffer,746567,confidence_buffer,,null,,,,,,,,
null,,thebreak,747069,break,,null,,,,,,,,
2340.3000000715256,,realistic_rating,749409,Sammamish,,49,Sammamish,US,1,,,,,
null,,confidence_buffer,749511,confidence_buffer,,null,,,,,,,,
1548.2000000476837,,probe_rating,751059,probe_rating,,49,,,,1,1,,,
null,,confidence_buffer,751160,confidence_buffer,,null,,,,,,,,
3991.399999976158,,pt2_unique_rating,755152,Sammamish,,51,,,3,,,,,
null,,confidence_buffer,755253,confidence_buffer,,null,,,,,,,,
1315,,pt2_memorable_rating,756568,Sammamish,,50,,,2,,,,,
null,,confidence_buffer,756676,confidence_buffer,,null,,,,,,,,
1829,,recognition_phase,758505,Sammamish,,52,,,,,,new,1,0.9583333333333334
null,,confidence_buffer,758605,confidence_buffer,,null,,,,,,,,
null,,thebreak,759107,break,,null,,,,,,,,
4786.300000071526,,realistic_rating,763893,Shreveport,,53,Shreveport,US,5,,,,,
null,,confidence_buffer,763994,confidence_buffer,,null,,,,,,,,
2804,,pt2_unique_rating,766798,Shreveport,,51,,,3,,,,,
null,,confidence_buffer,766900,confidence_buffer,,null,,,,,,,,
2176.2000000476837,,pt2_memorable_rating,769076,Shreveport,,50,,,2,,,,,
null,,confidence_buffer,769177,confidence_buffer,,null,,,,,,,,
2427.2000000476837,,recognition_phase,771604,Shreveport,,51,,,,,,new,1,0.96
null,,confidence_buffer,771706,confidence_buffer,,null,,,,,,,,
null,,thebreak,772206,break,,null,,,,,,,,
3604.5,,realistic_rating,775811,Alliance,,53,Alliance,US,5,,,,,
null,,confidence_buffer,775913,confidence_buffer,,null,,,,,,,,
2100.399999976158,,pt2_unique_rating,778013,Alliance,,51,,,3,,,,,
null,,confidence_buffer,778114,confidence_buffer,,null,,,,,,,,
1927,,pt2_memorable_rating,780041,Alliance,,51,,,3,,,,,
null,,confidence_buffer,780142,confidence_buffer,,null,,,,,,,,
3614.3000000715256,,recognition_phase,783756,Alliance,,51,,,,,,new,1,0.9615384615384616
null,,confidence_buffer,783857,confidence_buffer,,null,,,,,,,,
null,,thebreak,784358,break,,null,,,,,,,,
2879,,realistic_rating,787237,Sisters,,51,Sisters,US,3,,,,,
null,,confidence_buffer,787338,confidence_buffer,,null,,,,,,,,
2145.6999999284744,,pt2_unique_rating,789484,Sisters,,49,,,1,,,,,
null,,confidence_buffer,789586,confidence_buffer,,null,,,,,,,,
2902.100000023842,,pt2_memorable_rating,792488,Sisters,,51,,,3,,,,,
null,,confidence_buffer,792590,confidence_buffer,,null,,,,,,,,
1797.3999999761581,,recognition_phase,794387,Sisters,,49,,,,,,old,1,0.9629629629629629
null,,confidence_buffer,794490,confidence_buffer,,null,,,,,,,,
null,,thebreak,794991,break,,null,,,,,,,,
3210.399999976158,,realistic_rating,798201,Cody,,50,Cody,US,2,,,,,
null,,confidence_buffer,798303,confidence_buffer,,null,,,,,,,,
1366.3999999761581,,pt2_unique_rating,799669,Cody,,49,,,1,,,,,
null,,confidence_buffer,799770,confidence_buffer,,null,,,,,,,,
1252.7999999523163,,pt2_memorable_rating,801023,Cody,,49,,,1,,,,,
null,,confidence_buffer,801124,confidence_buffer,,null,,,,,,,,
3494.2000000476837,,recognition_phase,804618,Cody,,50,,,,,,old,1,0.9642857142857143
null,,confidence_buffer,804720,confidence_buffer,,null,,,,,,,,
null,,thebreak,805221,break,,null,,,,,,,,
9165.400000095367,,realistic_rating,814386,Folly Beach,,51,Folly Beach,US,3,,,,,
null,,confidence_buffer,814487,confidence_buffer,,null,,,,,,,,
2200.2000000476837,,probe_rating,816687,probe_rating,,49,,,,1,1,,,
null,,confidence_buffer,816794,confidence_buffer,,null,,,,,,,,
4093.100000023842,,pt2_unique_rating,820887,Folly Beach,,51,,,3,,,,,
null,,confidence_buffer,820992,confidence_buffer,,null,,,,,,,,
8786.200000047684,,pt2_memorable_rating,829778,Folly Beach,,51,,,3,,,,,
null,,confidence_buffer,829892,confidence_buffer,,null,,,,,,,,
2224.6999999284744,,recognition_phase,832117,Folly Beach,,51,,,,,,new,0,0.9310344827586207
null,,confidence_buffer,832219,confidence_buffer,,null,,,,,,,,
null,,thebreak,832720,break,,null,,,,,,,,
2583.100000023842,,realistic_rating,835303,Leesburg,,51,Leesburg,US,3,,,,,
null,,confidence_buffer,835406,confidence_buffer,,null,,,,,,,,
2258.3000000715256,,pt2_unique_rating,837664,Leesburg,,50,,,2,,,,,
null,,confidence_buffer,837765,confidence_buffer,,null,,,,,,,,
1790.7000000476837,,probe_rating,839556,probe_rating,,50,,,,2,1,,,
null,,confidence_buffer,839657,confidence_buffer,,null,,,,,,,,
2101.2000000476837,,pt2_memorable_rating,841758,Leesburg,,51,,,3,,,,,
null,,confidence_buffer,841868,confidence_buffer,,null,,,,,,,,
1334.8000000715256,,recognition_phase,843203,Leesburg,,49,,,,,,old,1,0.9333333333333333
null,,confidence_buffer,843304,confidence_buffer,,null,,,,,,,,
null,,thebreak,843805,break,,null,,,,,,,,
2827.3000000715256,,realistic_rating,846632,Oakridge,,53,Oakridge,Fictional,5,,,,,
null,,confidence_buffer,846733,confidence_buffer,,null,,,,,,,,
2857.2000000476837,,pt2_unique_rating,849590,Oakridge,,50,,,2,,,,,
null,,confidence_buffer,849692,confidence_buffer,,null,,,,,,,,
1903.1000000238419,,pt2_memorable_rating,851595,Oakridge,,51,,,3,,,,,
null,,confidence_buffer,851696,confidence_buffer,,null,,,,,,,,
1579.5,,recognition_phase,853275,Oakridge,,49,,,,,,old,1,0.9354838709677419
null,,confidence_buffer,853377,confidence_buffer,,null,,,,,,,,
null,,thebreak,853879,break,,null,,,,,,,,
3512.2000000476837,,realistic_rating,857391,Maravilla Springs,,51,Maravilla Springs,Fictional,3,,,,,
null,,confidence_buffer,857493,confidence_buffer,,null,,,,,,,,
3129.100000023842,,pt2_unique_rating,860622,Maravilla Springs,,51,,,3,,,,,
null,,confidence_buffer,860723,confidence_buffer,,null,,,,,,,,
2986.1999999284744,,pt2_memorable_rating,863709,Maravilla Springs,,50,,,2,,,,,
null,,confidence_buffer,863811,confidence_buffer,,null,,,,,,,,
4090.100000023842,,recognition_phase,867901,Maravilla Springs,,52,,,,,,new,1,0.9375
null,,confidence_buffer,868002,confidence_buffer,,null,,,,,,,,
null,,thebreak,868503,break,,null,,,,,,,,
3634.1999999284744,,realistic_rating,872137,Orchard Bend,,52,Orchard Bend,Fictional,4,,,,,
null,,confidence_buffer,872240,confidence_buffer,,null,,,,,,,,
3166.100000023842,,pt2_unique_rating,875406,Orchard Bend,,50,,,2,,,,,
null,,confidence_buffer,875508,confidence_buffer,,null,,,,,,,,
4082.100000023842,,pt2_memorable_rating,879590,Orchard Bend,,50,,,2,,,,,
null,,confidence_buffer,879691,confidence_buffer,,null,,,,,,,,
2274.7999999523163,,recognition_phase,881966,Orchard Bend,,52,,,,,,new,1,0.9393939393939394
null,,confidence_buffer,882068,confidence_buffer,,null,,,,,,,,
null,,thebreak,882569,break,,null,,,,,,,,
3383.6999999284744,,realistic_rating,885953,Livingston,,53,Livingston,US,5,,,,,
null,,confidence_buffer,886055,confidence_buffer,,null,,,,,,,,
3266.2000000476837,,pt2_unique_rating,889321,Livingston,,50,,,2,,,,,
null,,confidence_buffer,889423,confidence_buffer,,null,,,,,,,,
2864.100000023842,,pt2_memorable_rating,892287,Livingston,,49,,,1,,,,,
null,,confidence_buffer,892396,confidence_buffer,,null,,,,,,,,
1797.5,,recognition_phase,894194,Livingston,,49,,,,,,old,1,0.9411764705882353
null,,confidence_buffer,894295,confidence_buffer,,null,,,,,,,,
null,,thebreak,894795,break,,null,,,,,,,,
4619.899999976158,,realistic_rating,899415,Hilo,,50,Hilo,US,2,,,,,
null,,confidence_buffer,899516,confidence_buffer,,null,,,,,,,,
3023.7000000476837,,pt2_unique_rating,902540,Hilo,,52,,,4,,,,,
null,,confidence_buffer,902642,confidence_buffer,,null,,,,,,,,
1858.3000000715256,,probe_rating,904500,probe_rating,,52,,,,4,1,,,
null,,confidence_buffer,904601,confidence_buffer,,null,,,,,,,,
3266.2000000476837,,pt2_memorable_rating,907867,Hilo,,52,,,4,,,,,
null,,confidence_buffer,907976,confidence_buffer,,null,,,,,,,,
2457.5,,recognition_phase,910434,Hilo,,52,,,,,,new,1,0.9428571428571428
null,,confidence_buffer,910535,confidence_buffer,,null,,,,,,,,
null,,thebreak,911036,break,,null,,,,,,,,
2952.899999976158,,realistic_rating,913989,North Arroya,,51,North Arroya,Fictional,3,,,,,
null,,confidence_buffer,914090,confidence_buffer,,null,,,,,,,,
3077.399999976158,,pt2_unique_rating,917168,North Arroya,,52,,,4,,,,,
null,,confidence_buffer,917268,confidence_buffer,,null,,,,,,,,
1905.2999999523163,,pt2_memorable_rating,919173,North Arroya,,51,,,3,,,,,
null,,confidence_buffer,919275,confidence_buffer,,null,,,,,,,,
1638.1000000238419,,recognition_phase,920913,North Arroya,,51,,,,,,new,0,0.9166666666666666
null,,confidence_buffer,921014,confidence_buffer,,null,,,,,,,,
null,,thebreak,921515,break,,null,,,,,,,,
14864.099999904633,,realistic_rating,936379,Driftwood Bay,,52,Driftwood Bay,Fictional,4,,,,,
null,,confidence_buffer,936481,confidence_buffer,,null,,,,,,,,
1804.8999999761581,,pt2_unique_rating,938286,Driftwood Bay,,51,,,3,,,,,
null,,confidence_buffer,938387,confidence_buffer,,null,,,,,,,,
3379,,pt2_memorable_rating,941766,Driftwood Bay,,51,,,3,,,,,
null,,confidence_buffer,941868,confidence_buffer,,null,,,,,,,,
3810.2999999523163,,recognition_phase,945678,Driftwood Bay,,50,,,,,,old,0,0.8918918918918919
null,,confidence_buffer,945779,confidence_buffer,,null,,,,,,,,
null,,thebreak,946286,break,,null,,,,,,,,
3228.2000000476837,,realistic_rating,949515,Cleveland,,53,Cleveland,US,5,,,,,
null,,confidence_buffer,949616,confidence_buffer,,null,,,,,,,,
3287.5,,pt2_unique_rating,952904,Cleveland,,51,,,3,,,,,
null,,confidence_buffer,953005,confidence_buffer,,null,,,,,,,,
2638.4000000953674,,pt2_memorable_rating,955643,Cleveland,,52,,,4,,,,,
null,,confidence_buffer,955745,confidence_buffer,,null,,,,,,,,
1887.9000000953674,,recognition_phase,957633,Cleveland,,49,,,,,,old,1,0.8947368421052632
null,,confidence_buffer,957734,confidence_buffer,,null,,,,,,,,
null,,thebreak,958236,break,,null,,,,,,,,
3225,,realistic_rating,961461,Boulder,,53,Boulder,US,5,,,,,
null,,confidence_buffer,961562,confidence_buffer,,null,,,,,,,,
3266.9000000953674,,pt2_unique_rating,964829,Boulder,,49,,,1,,,,,
null,,confidence_buffer,964931,confidence_buffer,,null,,,,,,,,
2349.100000023842,,pt2_memorable_rating,967280,Boulder,,50,,,2,,,,,
null,,confidence_buffer,967381,confidence_buffer,,null,,,,,,,,
1973,,recognition_phase,969354,Boulder,,52,,,,,,new,1,0.8974358974358975
null,,confidence_buffer,969455,confidence_buffer,,null,,,,,,,,
null,,thebreak,969956,break,,null,,,,,,,,
3726.0999999046326,,realistic_rating,973682,Northbridge,,50,Northbridge,Fictional,2,,,,,
null,,confidence_buffer,973784,confidence_buffer,,null,,,,,,,,
4408,,pt2_unique_rating,978192,Northbridge,,50,,,2,,,,,
null,,confidence_buffer,978293,confidence_buffer,,null,,,,,,,,
2736.3000000715256,,pt2_memorable_rating,981029,Northbridge,,49,,,1,,,,,
null,,confidence_buffer,981130,confidence_buffer,,null,,,,,,,,
2722.2999999523163,,recognition_phase,983853,Northbridge,,51,,,,,,new,1,0.9
null,,confidence_buffer,983954,confidence_buffer,,null,,,,,,,,
null,,thebreak,984455,break,,null,,,,,,,,
3566.100000023842,,realistic_rating,988021,Bayshore Haven,,51,Bayshore Haven,Fictional,3,,,,,
null,,confidence_buffer,988122,confidence_buffer,,null,,,,,,,,
2418.9000000953674,,pt2_unique_rating,990541,Bayshore Haven,,50,,,2,,,,,
null,,confidence_buffer,990642,confidence_buffer,,null,,,,,,,,
6973.899999976158,,pt2_memorable_rating,997617,Bayshore Haven,,52,,,4,,,,,
null,,confidence_buffer,997726,confidence_buffer,,null,,,,,,,,
1721,,recognition_phase,999447,Bayshore Haven,,49,,,,,,old,1,0.9024390243902439
null,,confidence_buffer,999549,confidence_buffer,,null,,,,,,,,
null,,thebreak,1000050,break,,null,,,,,,,,
9052.099999904633,,realistic_rating,1009103,Falconridge,,50,Falconridge,Fictional,2,,,,,
null,,confidence_buffer,1009204,confidence_buffer,,null,,,,,,,,
2486,,pt2_unique_rating,1011690,Falconridge,,51,,,3,,,,,
null,,confidence_buffer,1011791,confidence_buffer,,null,,,,,,,,
2607.9000000953674,,pt2_memorable_rating,1014399,Falconridge,,51,,,3,,,,,
null,,confidence_buffer,1014501,confidence_buffer,,null,,,,,,,,
1480.0999999046326,,recognition_phase,1015981,Falconridge,,51,,,,,,new,1,0.9047619047619048
null,,confidence_buffer,1016083,confidence_buffer,,null,,,,,,,,
null,,thebreak,1016583,break,,null,,,,,,,,
5086.899999976158,,realistic_rating,1021670,Brookmere,,52,Brookmere,Fictional,4,,,,,
null,,confidence_buffer,1021771,confidence_buffer,,null,,,,,,,,
3107.899999976158,,pt2_unique_rating,1024880,Brookmere,,50,,,2,,,,,
null,,confidence_buffer,1024980,confidence_buffer,,null,,,,,,,,
3742,,pt2_memorable_rating,1028722,Brookmere,,52,,,4,,,,,
null,,confidence_buffer,1028823,confidence_buffer,,null,,,,,,,,
2403.9000000953674,,recognition_phase,1031227,Brookmere,,52,,,,,,new,0,0.8837209302325582
null,,confidence_buffer,1031328,confidence_buffer,,null,,,,,,,,
null,,thebreak,1031829,break,,null,,,,,,,,
2826.100000023842,,realistic_rating,1034656,Westridge,,53,Westridge,Fictional,5,,,,,
null,,confidence_buffer,1034757,confidence_buffer,,null,,,,,,,,
2584.2999999523163,,pt2_unique_rating,1037341,Westridge,,50,,,2,,,,,
null,,confidence_buffer,1037443,confidence_buffer,,null,,,,,,,,
2259.2999999523163,,pt2_memorable_rating,1039703,Westridge,,50,,,2,,,,,
null,,confidence_buffer,1039803,confidence_buffer,,null,,,,,,,,
2782.0999999046326,,recognition_phase,1042585,Westridge,,51,,,,,,new,1,0.8863636363636364
null,,confidence_buffer,1042686,confidence_buffer,,null,,,,,,,,
null,,thebreak,1043187,break,,null,,,,,,,,
3498.899999976158,,realistic_rating,1046687,West Talora,,52,West Talora,Fictional,4,,,,,
null,,confidence_buffer,1046787,confidence_buffer,,null,,,,,,,,
2147.100000023842,,pt2_unique_rating,1048935,West Talora,,50,,,2,,,,,
null,,confidence_buffer,1049035,confidence_buffer,,null,,,,,,,,
3704.600000023842,,pt2_memorable_rating,1052740,West Talora,,49,,,1,,,,,
null,,confidence_buffer,1052841,confidence_buffer,,null,,,,,,,,
2169.100000023842,,recognition_phase,1055011,West Talora,,52,,,,,,new,0,0.8666666666666667
null,,confidence_buffer,1055111,confidence_buffer,,null,,,,,,,,
null,,thebreak,1055613,break,,null,,,,,,,,
3801.5,,realistic_rating,1059415,Hot Springs,,53,Hot Springs,US,5,,,,,
null,,confidence_buffer,1059515,confidence_buffer,,null,,,,,,,,
1063.7999999523163,,pt2_unique_rating,1060579,Hot Springs,,49,,,1,,,,,
null,,confidence_buffer,1060681,confidence_buffer,,null,,,,,,,,
2281.0999999046326,,pt2_memorable_rating,1062962,Hot Springs,,53,,,5,,,,,
null,,confidence_buffer,1063063,confidence_buffer,,null,,,,,,,,
5754.899999976158,,recognition_phase,1068818,Hot Springs,,52,,,,,,new,1,0.8695652173913043
null,,confidence_buffer,1068919,confidence_buffer,,null,,,,,,,,
null,,thebreak,1069421,break,,null,,,,,,,,
2869.7999999523163,,realistic_rating,1072292,Huntsville,,53,Huntsville,US,5,,,,,
null,,confidence_buffer,1072392,confidence_buffer,,null,,,,,,,,
3273.899999976158,,pt2_unique_rating,1075667,Huntsville,,50,,,2,,,,,
null,,confidence_buffer,1075767,confidence_buffer,,null,,,,,,,,
2471.8000000715256,,pt2_memorable_rating,1078239,Huntsville,,49,,,1,,,,,
null,,confidence_buffer,1078340,confidence_buffer,,null,,,,,,,,
1759.7000000476837,,recognition_phase,1080100,Huntsville,,51,,,,,,new,1,0.8723404255319149
null,,confidence_buffer,1080201,confidence_buffer,,null,,,,,,,,
null,,thebreak,1080702,break,,null,,,,,,,,
2440,,realistic_rating,1083143,Lake of the Ozarks,,53,Lake of the Ozarks,US,5,,,,,
null,,confidence_buffer,1083243,confidence_buffer,,null,,,,,,,,
4400.799999952316,,pt2_unique_rating,1087645,Lake of the Ozarks,,51,,,3,,,,,
null,,confidence_buffer,1087745,confidence_buffer,,null,,,,,,,,
1617,,pt2_memorable_rating,1089362,Lake of the Ozarks,,52,,,4,,,,,
null,,confidence_buffer,1089463,confidence_buffer,,null,,,,,,,,
3749.899999976158,,recognition_phase,1093214,Lake of the Ozarks,,52,,,,,,new,1,0.875
null,,confidence_buffer,1093314,confidence_buffer,,null,,,,,,,,
null,,thebreak,1093815,break,,null,,,,,,,,
5639.799999952316,,realistic_rating,1099456,Watkins Glen,,51,Watkins Glen,US,3,,,,,
null,,confidence_buffer,1099557,confidence_buffer,,null,,,,,,,,
5323.5,,pt2_unique_rating,1104881,Watkins Glen,,50,,,2,,,,,
null,,confidence_buffer,1104981,confidence_buffer,,null,,,,,,,,
2887.899999976158,,pt2_memorable_rating,1107870,Watkins Glen,,49,,,1,,,,,
null,,confidence_buffer,1107970,confidence_buffer,,null,,,,,,,,
1700,,recognition_phase,1109671,Watkins Glen,,50,,,,,,old,1,0.8775510204081632
null,,confidence_buffer,1109771,confidence_buffer,,null,,,,,,,,
null,,thebreak,1110287,break,,null,,,,,,,,
3953.0999999046326,,realistic_rating,1114240,Berkeley Springs,,52,Berkeley Springs,US,4,,,,,
null,,confidence_buffer,1114341,confidence_buffer,,null,,,,,,,,
1791.2999999523163,,pt2_unique_rating,1116133,Berkeley Springs,,50,,,2,,,,,
null,,confidence_buffer,1116233,confidence_buffer,,null,,,,,,,,
2524.7999999523163,,pt2_memorable_rating,1118759,Berkeley Springs,,50,,,2,,,,,
null,,confidence_buffer,1118859,confidence_buffer,,null,,,,,,,,
1865.7999999523163,,recognition_phase,1120726,Berkeley Springs,,49,,,,,,old,1,0.88
null,,confidence_buffer,1120826,confidence_buffer,,null,,,,,,,,
null,,thebreak,1121327,break,,null,,,,,,,,
3233.6999999284744,,realistic_rating,1124561,Redgrove,,53,Redgrove,Fictional,5,,,,,
null,,confidence_buffer,1124662,confidence_buffer,,null,,,,,,,,
1662.3999999761581,,pt2_unique_rating,1126325,Redgrove,,49,,,1,,,,,
null,,confidence_buffer,1126425,confidence_buffer,,null,,,,,,,,
1162.8999999761581,,pt2_memorable_rating,1127589,Redgrove,,49,,,1,,,,,
null,,confidence_buffer,1127689,confidence_buffer,,null,,,,,,,,
2252.100000023842,,recognition_phase,1129942,Redgrove,,51,,,,,,new,1,0.8823529411764706
null,,confidence_buffer,1130043,confidence_buffer,,null,,,,,,,,
null,,thebreak,1130544,break,,null,,,,,,,,
9497.799999952316,,realistic_rating,1140043,Maplehurst,,50,Maplehurst,Fictional,2,,,,,
null,,confidence_buffer,1140144,confidence_buffer,,null,,,,,,,,
1691,,pt2_unique_rating,1141835,Maplehurst,,51,,,3,,,,,
null,,confidence_buffer,1141936,confidence_buffer,,null,,,,,,,,
3902,,pt2_memorable_rating,1145839,Maplehurst,,50,,,2,,,,,
null,,confidence_buffer,1145940,confidence_buffer,,null,,,,,,,,
1615.7999999523163,,recognition_phase,1147556,Maplehurst,,50,,,,,,old,0,0.8653846153846154
null,,confidence_buffer,1147658,confidence_buffer,,null,,,,,,,,
null,,thebreak,1148158,break,,null,,,,,,,,
3725.7999999523163,,realistic_rating,1151885,Sierra Hollow,,52,Sierra Hollow,Fictional,4,,,,,
null,,confidence_buffer,1151987,confidence_buffer,,null,,,,,,,,
2091.6999999284744,,pt2_unique_rating,1154078,Sierra Hollow,,51,,,3,,,,,
null,,confidence_buffer,1154184,confidence_buffer,,null,,,,,,,,
1445.1000000238419,,pt2_memorable_rating,1155630,Sierra Hollow,,52,,,4,,,,,
null,,confidence_buffer,1155731,confidence_buffer,,null,,,,,,,,
1525.1999999284744,,recognition_phase,1157257,Sierra Hollow,,49,,,,,,old,1,0.8679245283018868
null,,confidence_buffer,1157358,confidence_buffer,,null,,,,,,,,
null,,thebreak,1157859,break,,null,,,,,,,,
2665.100000023842,,realistic_rating,1160525,Gloucester,,53,Gloucester,US,5,,,,,
null,,confidence_buffer,1160626,confidence_buffer,,null,,,,,,,,
1563.8999999761581,,pt2_unique_rating,1162190,Gloucester,,52,,,4,,,,,
null,,confidence_buffer,1162291,confidence_buffer,,null,,,,,,,,
1440.8999999761581,,pt2_memorable_rating,1163732,Gloucester,,52,,,4,,,,,
null,,confidence_buffer,1163834,confidence_buffer,,null,,,,,,,,
1533.6999999284744,,recognition_phase,1165368,Gloucester,,52,,,,,,new,1,0.8703703703703703
null,,confidence_buffer,1165468,confidence_buffer,,null,,,,,,,,
null,,thebreak,1165969,break,,null,,,,,,,,
2121.899999976158,,realistic_rating,1168092,Newport,,53,Newport,US,5,,,,,
null,,confidence_buffer,1168193,confidence_buffer,,null,,,,,,,,
4151.399999976158,,pt2_unique_rating,1172345,Newport,,50,,,2,,,,,
null,,confidence_buffer,1172446,confidence_buffer,,null,,,,,,,,
2335.399999976158,,pt2_memorable_rating,1174782,Newport,,53,,,5,,,,,
null,,confidence_buffer,1174882,confidence_buffer,,null,,,,,,,,
1495.1999999284744,,recognition_phase,1176378,Newport,,49,,,,,,old,1,0.8727272727272727
null,,confidence_buffer,1176478,confidence_buffer,,null,,,,,,,,
null,,thebreak,1176980,break,,null,,,,,,,,
2628.899999976158,,realistic_rating,1179610,Cedarwyn,,50,Cedarwyn,Fictional,2,,,,,
null,,confidence_buffer,1179710,confidence_buffer,,null,,,,,,,,
3864.2000000476837,,pt2_unique_rating,1183575,Cedarwyn,,52,,,4,,,,,
null,,confidence_buffer,1183675,confidence_buffer,,null,,,,,,,,
2206.899999976158,,pt2_memorable_rating,1185883,Cedarwyn,,50,,,2,,,,,
null,,confidence_buffer,1185984,confidence_buffer,,null,,,,,,,,
3009.5,,recognition_phase,1188994,Cedarwyn,,52,,,,,,new,1,0.875
null,,confidence_buffer,1189094,confidence_buffer,,null,,,,,,,,
null,,thebreak,1189595,break,,null,,,,,,,,
2697.600000023842,,realistic_rating,1192293,Golden Trace,,52,Golden Trace,Fictional,4,,,,,
null,,confidence_buffer,1192394,confidence_buffer,,null,,,,,,,,
3780.899999976158,,pt2_unique_rating,1196175,Golden Trace,,50,,,2,,,,,
null,,confidence_buffer,1196276,confidence_buffer,,null,,,,,,,,
988.3999999761581,,pt2_memorable_rating,1197265,Golden Trace,,50,,,2,,,,,
null,,confidence_buffer,1197365,confidence_buffer,,null,,,,,,,,
2767,,recognition_phase,1200133,Golden Trace,,51,,,,,,new,1,0.8771929824561403
null,,confidence_buffer,1200234,confidence_buffer,,null,,,,,,,,
null,,thebreak,1200736,break,,null,,,,,,,,
2990.6999999284744,,realistic_rating,1203728,Albuquerque,,53,Albuquerque,US,5,,,,,
null,,confidence_buffer,1203829,confidence_buffer,,null,,,,,,,,
2395.399999976158,,pt2_unique_rating,1206225,Albuquerque,,52,,,4,,,,,
null,,confidence_buffer,1206325,confidence_buffer,,null,,,,,,,,
2539.899999976158,,pt2_memorable_rating,1208866,Albuquerque,,53,,,5,,,,,
null,,confidence_buffer,1208967,confidence_buffer,,null,,,,,,,,
5528.399999976158,,recognition_phase,1214496,Albuquerque,,52,,,,,,new,1,0.8793103448275862
null,,confidence_buffer,1214597,confidence_buffer,,null,,,,,,,,
null,,thebreak,1215098,break,,null,,,,,,,,
5875.700000047684,,realistic_rating,1220974,Solara Glen,,51,Solara Glen,Fictional,3,,,,,
null,,confidence_buffer,1221074,confidence_buffer,,null,,,,,,,,
3190.899999976158,,pt2_unique_rating,1224266,Solara Glen,,51,,,3,,,,,
null,,confidence_buffer,1224366,confidence_buffer,,null,,,,,,,,
1216,,pt2_memorable_rating,1225583,Solara Glen,,49,,,1,,,,,
null,,confidence_buffer,1225684,confidence_buffer,,null,,,,,,,,
2001.7999999523163,,recognition_phase,1227686,Solara Glen,,50,,,,,,old,0,0.864406779661017
null,,confidence_buffer,1227787,confidence_buffer,,null,,,,,,,,
null,,thebreak,1228288,break,,null,,,,,,,,
2387.600000023842,,realistic_rating,1230676,Montelake,,52,Montelake,Fictional,4,,,,,
null,,confidence_buffer,1230776,confidence_buffer,,null,,,,,,,,
1337.2999999523163,,pt2_unique_rating,1232114,Montelake,,51,,,3,,,,,
null,,confidence_buffer,1232215,confidence_buffer,,null,,,,,,,,
2963.1999999284744,,pt2_memorable_rating,1235179,Montelake,,50,,,2,,,,,
null,,confidence_buffer,1235279,confidence_buffer,,null,,,,,,,,
1881.7999999523163,,probe_rating,1237162,probe_rating,,49,,,,1,1,,,
null,,confidence_buffer,1237263,confidence_buffer,,null,,,,,,,,
3660.0999999046326,,recognition_phase,1240923,Montelake,,51,,,,,,new,1,0.8666666666666667
null,,confidence_buffer,1241024,confidence_buffer,,null,,,,,,,,
null,,thebreak,1241525,break,,null,,,,,,,,
