rt,responses,trial_type,time_elapsed,stimulus,button_pressed,key_press,name_trial,city_type,rating,probe,probe_accuracy,response,correct,accuracy
30574,{worker_id:67c5f7da64afd036b5ef1301},id_enter,30581,,,,,,,,,,,
52842.20000000298,,fullscreen,83432,fullscreen,0,,,,,,,,,
16801.80000000447,,intro_0,100240,instruct,,32,,,,,,,,
23802.60000000149,,intro_1,124045,instruct,,32,,,,,,,,
19336,,intro_2,143383,instruct,,32,,,,,,,,
null,,instruct_dir_4,144888,instruct,,null,,,,,,,,
null,,thebreak,145396,break,,null,,,,,,,,
20621.39999999851,,familiar_rating,166021,Riverlyn,,51,Riverlyn,Fictional,3,,,,,
null,,confidence_buffer,166128,confidence_buffer,,null,,,,,,,,
11374,,unique_rating,177505,Riverlyn,,52,,,4,,,,,
null,,confidence_buffer,177616,confidence_buffer,,null,,,,,,,,
5253.69999999553,,memorable_rating,182872,Riverlyn,,52,,,4,,,,,
null,,confidence_buffer,182979,confidence_buffer,,null,,,,,,,,
null,,thebreak,183489,break,,null,,,,,,,,
7570.20000000298,,familiar_rating,191062,Summershade,,50,Summershade,Fictional,2,,,,,
null,,confidence_buffer,191169,confidence_buffer,,null,,,,,,,,
3328.2000000029802,,unique_rating,194499,Summershade,,51,,,3,,,,,
null,,confidence_buffer,194605,confidence_buffer,,null,,,,,,,,
5347.5,,memorable_rating,199955,Summershade,,51,,,3,,,,,
null,,confidence_buffer,200070,confidence_buffer,,null,,,,,,,,
null,,thebreak,200585,break,,null,,,,,,,,
3919.7999999970198,,familiar_rating,204507,Bayshore Haven,,51,Bayshore Haven,Fictional,3,,,,,
null,,confidence_buffer,204613,confidence_buffer,,null,,,,,,,,
3623.5,,unique_rating,208238,Bayshore Haven,,52,,,4,,,,,
null,,confidence_buffer,208350,confidence_buffer,,null,,,,,,,,
3981.2999999970198,,memorable_rating,212334,Bayshore Haven,,51,,,3,,,,,
null,,confidence_buffer,212444,confidence_buffer,,null,,,,,,,,
null,,thebreak,212947,break,,null,,,,,,,,
5013.60000000149,,familiar_rating,217963,Solara Glen,,51,Solara Glen,Fictional,3,,,,,
null,,confidence_buffer,218066,confidence_buffer,,null,,,,,,,,
3329,,unique_rating,221396,Solara Glen,,50,,,2,,,,,
null,,confidence_buffer,221506,confidence_buffer,,null,,,,,,,,
1812.7999999970198,,memorable_rating,223322,Solara Glen,,52,,,4,,,,,
null,,confidence_buffer,223430,confidence_buffer,,null,,,,,,,,
null,,thebreak,223939,break,,null,,,,,,,,
11653.5,,familiar_rating,235595,Cornwall,,52,Cornwall,US,4,,,,,
null,,confidence_buffer,235705,confidence_buffer,,null,,,,,,,,
10801.89999999851,,unique_rating,246509,Cornwall,,51,,,3,,,,,
null,,confidence_buffer,246620,confidence_buffer,,null,,,,,,,,
5670.9000000059605,,probe_rating,252293,probe_rating,,52,,,,4,1,,,
null,,confidence_buffer,252413,confidence_buffer,,null,,,,,,,,
13658.09999999404,,memorable_rating,266073,Cornwall,,52,,,4,,,,,
null,,confidence_buffer,266183,confidence_buffer,,null,,,,,,,,
null,,thebreak,266696,break,,null,,,,,,,,
6118.5,,familiar_rating,272817,Meadowspire,,50,Meadowspire,Fictional,2,,,,,
null,,confidence_buffer,272925,confidence_buffer,,null,,,,,,,,
2871,,unique_rating,275798,Meadowspire,,52,,,4,,,,,
null,,confidence_buffer,275905,confidence_buffer,,null,,,,,,,,
6983.60000000149,,memorable_rating,282891,Meadowspire,,53,,,5,,,,,
null,,confidence_buffer,283002,confidence_buffer,,null,,,,,,,,
null,,thebreak,283515,break,,null,,,,,,,,
2003.2999999970198,,familiar_rating,285521,Maplehurst,,52,Maplehurst,Fictional,4,,,,,
null,,confidence_buffer,285641,confidence_buffer,,null,,,,,,,,
2929.7999999970198,,unique_rating,288572,Maplehurst,,51,,,3,,,,,
null,,confidence_buffer,288680,confidence_buffer,,null,,,,,,,,
4402,,memorable_rating,293085,Maplehurst,,52,,,4,,,,,
null,,confidence_buffer,293198,confidence_buffer,,null,,,,,,,,
null,,thebreak,293703,break,,null,,,,,,,,
3284.39999999851,,familiar_rating,296990,Racine,,53,Racine,US,5,,,,,
null,,confidence_buffer,297103,confidence_buffer,,null,,,,,,,,
4151.30000000447,,probe_rating,301257,probe_rating,,53,,,,5,1,,,
null,,confidence_buffer,301376,confidence_buffer,,null,,,,,,,,
8924,,unique_rating,310303,Racine,,51,,,3,,,,,
null,,confidence_buffer,310406,confidence_buffer,,null,,,,,,,,
2988.8000000044703,,memorable_rating,313397,Racine,,50,,,2,,,,,
null,,confidence_buffer,313517,confidence_buffer,,null,,,,,,,,
null,,thebreak,314029,break,,null,,,,,,,,
4602,,familiar_rating,318633,Westridge,,53,Westridge,Fictional,5,,,,,
null,,confidence_buffer,318736,confidence_buffer,,null,,,,,,,,
5364.89999999851,,unique_rating,324104,Westridge,,52,,,4,,,,,
null,,confidence_buffer,324206,confidence_buffer,,null,,,,,,,,
4572.39999999851,,probe_rating,328781,probe_rating,,51,,,,3,1,,,
null,,confidence_buffer,328890,confidence_buffer,,null,,,,,,,,
8237.5,,memorable_rating,337130,Westridge,,52,,,4,,,,,
null,,confidence_buffer,337244,confidence_buffer,,null,,,,,,,,
null,,thebreak,337758,break,,null,,,,,,,,
3525.3000000044703,,familiar_rating,341286,Newport,,51,Newport,US,3,,,,,
null,,confidence_buffer,341398,confidence_buffer,,null,,,,,,,,
3311.0999999940395,,unique_rating,344711,Newport,,50,,,2,,,,,
null,,confidence_buffer,344823,confidence_buffer,,null,,,,,,,,
2116.6999999955297,,memorable_rating,346942,Newport,,52,,,4,,,,,
null,,confidence_buffer,347053,confidence_buffer,,null,,,,,,,,
null,,thebreak,347570,break,,null,,,,,,,,
9658.60000000149,,familiar_rating,357231,Carmel,,52,Carmel,US,4,,,,,
null,,confidence_buffer,357336,confidence_buffer,,null,,,,,,,,
12810.70000000298,,probe_rating,370150,probe_rating,,53,,,,5,1,,,
null,,confidence_buffer,370254,confidence_buffer,,null,,,,,,,,
2831.39999999851,,unique_rating,373088,Carmel,,52,,,4,,,,,
null,,confidence_buffer,373200,confidence_buffer,,null,,,,,,,,
3350.7000000029802,,memorable_rating,376552,Carmel,,51,,,3,,,,,
null,,confidence_buffer,376663,confidence_buffer,,null,,,,,,,,
null,,thebreak,377168,break,,null,,,,,,,,
3297.2000000029802,,familiar_rating,380467,Fairhaven,,53,Fairhaven,Fictional,5,,,,,
null,,confidence_buffer,380578,confidence_buffer,,null,,,,,,,,
3875,,unique_rating,384456,Fairhaven,,51,,,3,,,,,
null,,confidence_buffer,384560,confidence_buffer,,null,,,,,,,,
4108.9000000059605,,memorable_rating,388671,Fairhaven,,52,,,4,,,,,
null,,confidence_buffer,388775,confidence_buffer,,null,,,,,,,,
null,,thebreak,389278,break,,null,,,,,,,,
8155.60000000149,,familiar_rating,397436,Albuquerque,,51,Albuquerque,US,3,,,,,
null,,confidence_buffer,397545,confidence_buffer,,null,,,,,,,,
2265,,probe_rating,399812,probe_rating,,50,,,,2,1,,,
null,,confidence_buffer,399924,confidence_buffer,,null,,,,,,,,
13363.69999999553,,unique_rating,413290,Albuquerque,,52,,,4,,,,,
null,,confidence_buffer,413405,confidence_buffer,,null,,,,,,,,
3970.7999999970198,,memorable_rating,417378,Albuquerque,,51,,,3,,,,,
null,,confidence_buffer,417491,confidence_buffer,,null,,,,,,,,
null,,thebreak,418008,break,,null,,,,,,,,
6782.70000000298,,familiar_rating,424793,Ironwood Heights,,53,Ironwood Heights,Fictional,5,,,,,
null,,confidence_buffer,424899,confidence_buffer,,null,,,,,,,,
4502.60000000149,,unique_rating,429403,Ironwood Heights,,52,,,4,,,,,
null,,confidence_buffer,429512,confidence_buffer,,null,,,,,,,,
5653.70000000298,,memorable_rating,435168,Ironwood Heights,,53,,,5,,,,,
null,,confidence_buffer,435278,confidence_buffer,,null,,,,,,,,
null,,thebreak,435788,break,,null,,,,,,,,
3322.2000000029802,,familiar_rating,439113,Oakridge,,52,Oakridge,Fictional,4,,,,,
null,,confidence_buffer,439224,confidence_buffer,,null,,,,,,,,
4536,,unique_rating,443762,Oakridge,,53,,,5,,,,,
null,,confidence_buffer,443879,confidence_buffer,,null,,,,,,,,
2203.5,,memorable_rating,446084,Oakridge,,52,,,4,,,,,
null,,confidence_buffer,446188,confidence_buffer,,null,,,,,,,,
null,,thebreak,446705,break,,null,,,,,,,,
4632.70000000298,,familiar_rating,451340,Clearbrook,,50,Clearbrook,Fictional,2,,,,,
null,,confidence_buffer,451453,confidence_buffer,,null,,,,,,,,
2609.60000000149,,unique_rating,454065,Clearbrook,,50,,,2,,,,,
null,,confidence_buffer,454178,confidence_buffer,,null,,,,,,,,
4627.20000000298,,memorable_rating,458807,Clearbrook,,52,,,4,,,,,
null,,confidence_buffer,458914,confidence_buffer,,null,,,,,,,,
2224.10000000149,,probe_rating,461141,probe_rating,,50,,,,2,1,,,
null,,confidence_buffer,461249,confidence_buffer,,null,,,,,,,,
null,,thebreak,461764,break,,null,,,,,,,,
5168.89999999851,,familiar_rating,466935,Orr,,53,Orr,US,5,,,,,
null,,confidence_buffer,467047,confidence_buffer,,null,,,,,,,,
3101.7000000029802,,unique_rating,470151,Orr,,52,,,4,,,,,
null,,confidence_buffer,470264,confidence_buffer,,null,,,,,,,,
5777.30000000447,,memorable_rating,476043,Orr,,52,,,4,,,,,
null,,confidence_buffer,476150,confidence_buffer,,null,,,,,,,,
null,,thebreak,476663,break,,null,,,,,,,,
1721.2999999970198,,familiar_rating,478387,Sitka,,51,Sitka,US,3,,,,,
null,,confidence_buffer,478503,confidence_buffer,,null,,,,,,,,
2564.8000000044703,,unique_rating,481071,Sitka,,52,,,4,,,,,
null,,confidence_buffer,481174,confidence_buffer,,null,,,,,,,,
3957,,memorable_rating,485134,Sitka,,52,,,4,,,,,
null,,confidence_buffer,485246,confidence_buffer,,null,,,,,,,,
2783.89999999851,,probe_rating,488033,probe_rating,,52,,,,4,1,,,
null,,confidence_buffer,488143,confidence_buffer,,null,,,,,,,,
null,,thebreak,488659,break,,null,,,,,,,,
2483.2000000029802,,familiar_rating,491145,Barnard,,53,Barnard,US,5,,,,,
null,,confidence_buffer,491262,confidence_buffer,,null,,,,,,,,
2112.8000000044703,,unique_rating,493378,Barnard,,52,,,4,,,,,
null,,confidence_buffer,493489,confidence_buffer,,null,,,,,,,,
4117.29999999702,,memorable_rating,497609,Barnard,,53,,,5,,,,,
null,,confidence_buffer,497718,confidence_buffer,,null,,,,,,,,
null,,thebreak,498228,break,,null,,,,,,,,
1621.2999999970198,,familiar_rating,499851,Falconridge,,52,Falconridge,Fictional,4,,,,,
null,,confidence_buffer,499958,confidence_buffer,,null,,,,,,,,
2739.7999999970198,,unique_rating,502700,Falconridge,,52,,,4,,,,,
null,,confidence_buffer,502804,confidence_buffer,,null,,,,,,,,
3105.7999999970198,,memorable_rating,505912,Falconridge,,51,,,3,,,,,
null,,confidence_buffer,506022,confidence_buffer,,null,,,,,,,,
3522.60000000149,,probe_rating,509547,probe_rating,,52,,,,4,1,,,
null,,confidence_buffer,509661,confidence_buffer,,null,,,,,,,,
null,,thebreak,510174,break,,null,,,,,,,,
2830.2999999970198,,familiar_rating,513007,Cleveland,,53,Cleveland,US,5,,,,,
null,,confidence_buffer,513119,confidence_buffer,,null,,,,,,,,
1746.6999999955297,,unique_rating,514868,Cleveland,,52,,,4,,,,,
null,,confidence_buffer,514973,confidence_buffer,,null,,,,,,,,
3988.2999999970198,,memorable_rating,518964,Cleveland,,51,,,3,,,,,
null,,confidence_buffer,519073,confidence_buffer,,null,,,,,,,,
null,,thebreak,519578,break,,null,,,,,,,,
2893.2000000029802,,familiar_rating,522474,Silverpine,,51,Silverpine,Fictional,3,,,,,
null,,confidence_buffer,522578,confidence_buffer,,null,,,,,,,,
1593.5,,unique_rating,524174,Silverpine,,50,,,2,,,,,
null,,confidence_buffer,524294,confidence_buffer,,null,,,,,,,,
2170.8000000044703,,memorable_rating,526467,Silverpine,,52,,,4,,,,,
null,,confidence_buffer,526577,confidence_buffer,,null,,,,,,,,
null,,thebreak,527088,break,,null,,,,,,,,
4421.5,,familiar_rating,531511,Shreveport,,52,Shreveport,US,4,,,,,
null,,confidence_buffer,531622,confidence_buffer,,null,,,,,,,,
5115.10000000149,,unique_rating,536740,Shreveport,,53,,,5,,,,,
null,,confidence_buffer,536848,confidence_buffer,,null,,,,,,,,
2710.8000000044703,,memorable_rating,539562,Shreveport,,51,,,3,,,,,
null,,confidence_buffer,539678,confidence_buffer,,null,,,,,,,,
null,,thebreak,540190,break,,null,,,,,,,,
3123.39999999851,,familiar_rating,543316,Park City,,53,Park City,US,5,,,,,
null,,confidence_buffer,543436,confidence_buffer,,null,,,,,,,,
1449.7999999970198,,unique_rating,544889,Park City,,52,,,4,,,,,
null,,confidence_buffer,545003,confidence_buffer,,null,,,,,,,,
8291.20000000298,,memorable_rating,553297,Park City,,51,,,3,,,,,
null,,confidence_buffer,553414,confidence_buffer,,null,,,,,,,,
null,,thebreak,553920,break,,null,,,,,,,,
2586.89999999851,,familiar_rating,556510,Yukon,,53,Yukon,US,5,,,,,
null,,confidence_buffer,556623,confidence_buffer,,null,,,,,,,,
3891.2000000029802,,unique_rating,560517,Yukon,,52,,,4,,,,,
null,,confidence_buffer,560627,confidence_buffer,,null,,,,,,,,
2951.7999999970198,,memorable_rating,563581,Yukon,,52,,,4,,,,,
null,,confidence_buffer,563693,confidence_buffer,,null,,,,,,,,
null,,thebreak,564203,break,,null,,,,,,,,
2161,,familiar_rating,566367,Duck,,51,Duck,US,3,,,,,
null,,confidence_buffer,566480,confidence_buffer,,null,,,,,,,,
3628,,unique_rating,570111,Duck,,52,,,4,,,,,
null,,confidence_buffer,570219,confidence_buffer,,null,,,,,,,,
1857.2999999970198,,memorable_rating,572079,Duck,,51,,,3,,,,,
null,,confidence_buffer,572190,confidence_buffer,,null,,,,,,,,
null,,thebreak,572704,break,,null,,,,,,,,
7684,,familiar_rating,580391,West Palm Beach,,52,West Palm Beach,US,4,,,,,
null,,confidence_buffer,580497,confidence_buffer,,null,,,,,,,,
2686.39999999851,,unique_rating,583186,West Palm Beach,,51,,,3,,,,,
null,,confidence_buffer,583299,confidence_buffer,,null,,,,,,,,
4120.29999999702,,memorable_rating,587421,West Palm Beach,,53,,,5,,,,,
null,,confidence_buffer,587533,confidence_buffer,,null,,,,,,,,
null,,thebreak,588045,break,,null,,,,,,,,
3704.7000000029802,,familiar_rating,591752,Granton Ridge,,52,Granton Ridge,Fictional,4,,,,,
null,,confidence_buffer,591863,confidence_buffer,,null,,,,,,,,
2228.7000000029802,,probe_rating,594094,probe_rating,,49,,,,1,1,,,
null,,confidence_buffer,594213,confidence_buffer,,null,,,,,,,,
4062.5,,unique_rating,598278,Granton Ridge,,52,,,4,,,,,
null,,confidence_buffer,598397,confidence_buffer,,null,,,,,,,,
2724.39999999851,,memorable_rating,601124,Granton Ridge,,51,,,3,,,,,
null,,confidence_buffer,601238,confidence_buffer,,null,,,,,,,,
null,,thebreak,601754,break,,null,,,,,,,,
4493.5,,familiar_rating,606249,Juniper Creek,,52,Juniper Creek,Fictional,4,,,,,
null,,confidence_buffer,606359,confidence_buffer,,null,,,,,,,,
2140.6999999955297,,unique_rating,608503,Juniper Creek,,51,,,3,,,,,
null,,confidence_buffer,608608,confidence_buffer,,null,,,,,,,,
3154.1999999955297,,memorable_rating,611766,Juniper Creek,,53,,,5,,,,,
null,,confidence_buffer,611877,confidence_buffer,,null,,,,,,,,
null,,thebreak,612387,break,,null,,,,,,,,
2782.4000000059605,,familiar_rating,615172,Gatlinburg,,52,Gatlinburg,US,4,,,,,
null,,confidence_buffer,615293,confidence_buffer,,null,,,,,,,,
4391,,unique_rating,619687,Gatlinburg,,52,,,4,,,,,
null,,confidence_buffer,619794,confidence_buffer,,null,,,,,,,,
4543.39999999851,,memorable_rating,624340,Gatlinburg,,51,,,3,,,,,
null,,confidence_buffer,624449,confidence_buffer,,null,,,,,,,,
null,,thebreak,624959,break,,null,,,,,,,,
9370.29999999702,,intro_0,634331,instruct,,32,,,,,,,,
15529.5,,intro_1,649863,instruct,,32,,,,,,,,
24801.39999999851,,intro_2,674667,instruct,,32,,,,,,,,
null,,instruct_dir_4,676176,instruct,,null,,,,,,,,
5306.19999999553,,realistic_rating,681485,Park City,,52,Park City,US,4,,,,,
null,,confidence_buffer,681598,confidence_buffer,,null,,,,,,,,
5792.0999999940395,,pt2_unique_rating,687392,Park City,,53,,,5,,,,,
null,,confidence_buffer,687513,confidence_buffer,,null,,,,,,,,
4022.3000000044703,,pt2_memorable_rating,691538,Park City,,51,,,3,,,,,
null,,confidence_buffer,691646,confidence_buffer,,null,,,,,,,,
4190.79999999702,,recognition_phase,695840,Park City,,49,,,,,,old,1,1
null,,confidence_buffer,695945,confidence_buffer,,null,,,,,,,,
null,,thebreak,696458,break,,null,,,,,,,,
5199.80000000447,,realistic_rating,701661,Livingston,,52,Livingston,US,4,,,,,
null,,confidence_buffer,701779,confidence_buffer,,null,,,,,,,,
2174.7000000029802,,pt2_unique_rating,703956,Livingston,,53,,,5,,,,,
null,,confidence_buffer,704066,confidence_buffer,,null,,,,,,,,
3452.2999999970198,,probe_rating,707522,probe_rating,,50,,,,2,1,,,
null,,confidence_buffer,707633,confidence_buffer,,null,,,,,,,,
3274.2999999970198,,pt2_memorable_rating,710910,Livingston,,53,,,5,,,,,
null,,confidence_buffer,711017,confidence_buffer,,null,,,,,,,,
3479.2999999970198,,recognition_phase,714503,Livingston,,51,,,,,,new,1,1
null,,confidence_buffer,714612,confidence_buffer,,null,,,,,,,,
null,,thebreak,715121,break,,null,,,,,,,,
8503,,realistic_rating,723627,Lake of the Ozarks,,52,Lake of the Ozarks,US,4,,,,,
null,,confidence_buffer,723740,confidence_buffer,,null,,,,,,,,
2675.1999999955297,,pt2_unique_rating,726418,Lake of the Ozarks,,51,,,3,,,,,
null,,confidence_buffer,726532,confidence_buffer,,null,,,,,,,,
2502.2999999970198,,probe_rating,729038,probe_rating,,52,,,,4,1,,,
null,,confidence_buffer,729149,confidence_buffer,,null,,,,,,,,
3981.8000000044703,,pt2_memorable_rating,733134,Lake of the Ozarks,,52,,,4,,,,,
null,,confidence_buffer,733253,confidence_buffer,,null,,,,,,,,
2635.2000000029802,,recognition_phase,735891,Lake of the Ozarks,,51,,,,,,new,1,1
null,,confidence_buffer,735996,confidence_buffer,,null,,,,,,,,
null,,thebreak,736505,break,,null,,,,,,,,
8080.89999999851,,realistic_rating,744589,Bayshore Haven,,53,Bayshore Haven,Fictional,5,,,,,
null,,confidence_buffer,744693,confidence_buffer,,null,,,,,,,,
2410.6999999955297,,pt2_unique_rating,747106,Bayshore Haven,,52,,,4,,,,,
null,,confidence_buffer,747220,confidence_buffer,,null,,,,,,,,
4439.39999999851,,pt2_memorable_rating,751662,Bayshore Haven,,51,,,3,,,,,
null,,confidence_buffer,751769,confidence_buffer,,null,,,,,,,,
2350.5999999940395,,probe_rating,754123,probe_rating,,50,,,,2,1,,,
null,,confidence_buffer,754244,confidence_buffer,,null,,,,,,,,
3948.2999999970198,,recognition_phase,758196,Bayshore Haven,,50,,,,,,old,1,1
null,,confidence_buffer,758310,confidence_buffer,,null,,,,,,,,
null,,thebreak,758820,break,,null,,,,,,,,
5256,,realistic_rating,764079,Stonebrook,,52,Stonebrook,Fictional,4,,,,,
null,,confidence_buffer,764200,confidence_buffer,,null,,,,,,,,
2222.89999999851,,pt2_unique_rating,766426,Stonebrook,,51,,,3,,,,,
null,,confidence_buffer,766545,confidence_buffer,,null,,,,,,,,
4843.5999999940395,,pt2_memorable_rating,771391,Stonebrook,,51,,,3,,,,,
null,,confidence_buffer,771495,confidence_buffer,,null,,,,,,,,
2431.0999999940395,,recognition_phase,773929,Stonebrook,,51,,,,,,new,1,1
null,,confidence_buffer,774049,confidence_buffer,,null,,,,,,,,
null,,thebreak,774553,break,,null,,,,,,,,
3670.5,,realistic_rating,778227,Briarfield,,52,Briarfield,Fictional,4,,,,,
null,,confidence_buffer,778335,confidence_buffer,,null,,,,,,,,
6274.10000000149,,pt2_unique_rating,784612,Briarfield,,53,,,5,,,,,
null,,confidence_buffer,784724,confidence_buffer,,null,,,,,,,,
2287.2000000029802,,pt2_memorable_rating,787014,Briarfield,,52,,,4,,,,,
null,,confidence_buffer,787120,confidence_buffer,,null,,,,,,,,
2878,,probe_rating,790001,probe_rating,,52,,,,4,1,,,
null,,confidence_buffer,790114,confidence_buffer,,null,,,,,,,,
2951.60000000149,,recognition_phase,793068,Briarfield,,51,,,,,,new,1,1
null,,confidence_buffer,793179,confidence_buffer,,null,,,,,,,,
null,,thebreak,793687,break,,null,,,,,,,,
3269.5,,realistic_rating,796960,Albuquerque,,52,Albuquerque,US,4,,,,,
null,,confidence_buffer,797077,confidence_buffer,,null,,,,,,,,
2014.3999999985099,,pt2_unique_rating,799094,Albuquerque,,51,,,3,,,,,
null,,confidence_buffer,799206,confidence_buffer,,null,,,,,,,,
2481.89999999851,,pt2_memorable_rating,801690,Albuquerque,,50,,,2,,,,,
null,,confidence_buffer,801799,confidence_buffer,,null,,,,,,,,
2316.4000000059605,,recognition_phase,804118,Albuquerque,,52,,,,,,new,0,0.8571428571428571
null,,confidence_buffer,804227,confidence_buffer,,null,,,,,,,,
null,,thebreak,804737,break,,null,,,,,,,,
8519.10000000149,,realistic_rating,813259,Juniper Creek,,52,Juniper Creek,Fictional,4,,,,,
null,,confidence_buffer,813376,confidence_buffer,,null,,,,,,,,
1581.7999999970198,,pt2_unique_rating,814961,Juniper Creek,,53,,,5,,,,,
null,,confidence_buffer,815069,confidence_buffer,,null,,,,,,,,
1471.1999999955297,,pt2_memorable_rating,816543,Juniper Creek,,51,,,3,,,,,
null,,confidence_buffer,816649,confidence_buffer,,null,,,,,,,,
3111,,recognition_phase,819763,Juniper Creek,,51,,,,,,new,0,0.75
null,,confidence_buffer,819876,confidence_buffer,,null,,,,,,,,
null,,thebreak,820387,break,,null,,,,,,,,
4990.29999999702,,realistic_rating,825380,Meadowspire,,52,Meadowspire,Fictional,4,,,,,
null,,confidence_buffer,825494,confidence_buffer,,null,,,,,,,,
1650,,pt2_unique_rating,827147,Meadowspire,,51,,,3,,,,,
null,,confidence_buffer,827266,confidence_buffer,,null,,,,,,,,
1508.6999999955297,,pt2_memorable_rating,828778,Meadowspire,,52,,,4,,,,,
null,,confidence_buffer,828884,confidence_buffer,,null,,,,,,,,
3524.60000000149,,recognition_phase,832412,Meadowspire,,52,,,,,,new,0,0.6666666666666666
null,,confidence_buffer,832516,confidence_buffer,,null,,,,,,,,
null,,thebreak,833027,break,,null,,,,,,,,
8036.10000000149,,realistic_rating,841067,Medora,,52,Medora,US,4,,,,,
null,,confidence_buffer,841178,confidence_buffer,,null,,,,,,,,
2377.10000000149,,pt2_unique_rating,843558,Medora,,53,,,5,,,,,
null,,confidence_buffer,843678,confidence_buffer,,null,,,,,,,,
2314.2000000029802,,pt2_memorable_rating,845995,Medora,,51,,,3,,,,,
null,,confidence_buffer,846114,confidence_buffer,,null,,,,,,,,
2380.2000000029802,,recognition_phase,848497,Medora,,51,,,,,,new,1,0.7
null,,confidence_buffer,848605,confidence_buffer,,null,,,,,,,,
null,,thebreak,849123,break,,null,,,,,,,,
3831.9000000059605,,realistic_rating,852958,New Hope,,52,New Hope,US,4,,,,,
null,,confidence_buffer,853076,confidence_buffer,,null,,,,,,,,
2011.3000000044703,,pt2_unique_rating,855091,New Hope,,53,,,5,,,,,
null,,confidence_buffer,855197,confidence_buffer,,null,,,,,,,,
1130.8000000044703,,pt2_memorable_rating,856331,New Hope,,51,,,3,,,,,
null,,confidence_buffer,856446,confidence_buffer,,null,,,,,,,,
2638.5,,recognition_phase,859088,New Hope,,50,,,,,,old,0,0.6363636363636364
null,,confidence_buffer,859198,confidence_buffer,,null,,,,,,,,
null,,thebreak,859703,break,,null,,,,,,,,
2489.2999999970198,,realistic_rating,862195,Watkins Glen,,52,Watkins Glen,US,4,,,,,
null,,confidence_buffer,862314,confidence_buffer,,null,,,,,,,,
1878.9000000059605,,pt2_unique_rating,864195,Watkins Glen,,53,,,5,,,,,
null,,confidence_buffer,864300,confidence_buffer,,null,,,,,,,,
1673.7000000029802,,pt2_memorable_rating,865977,Watkins Glen,,51,,,3,,,,,
null,,confidence_buffer,866089,confidence_buffer,,null,,,,,,,,
2560,,recognition_phase,868652,Watkins Glen,,51,,,,,,new,1,0.6666666666666666
null,,confidence_buffer,868763,confidence_buffer,,null,,,,,,,,
null,,thebreak,869275,break,,null,,,,,,,,
2407.1999999955297,,realistic_rating,871685,Willowford,,53,Willowford,Fictional,5,,,,,
null,,confidence_buffer,871804,confidence_buffer,,null,,,,,,,,
1786,,pt2_unique_rating,873594,Willowford,,51,,,3,,,,,
null,,confidence_buffer,873703,confidence_buffer,,null,,,,,,,,
2367,,pt2_memorable_rating,876073,Willowford,,52,,,4,,,,,
null,,confidence_buffer,876178,confidence_buffer,,null,,,,,,,,
3540.10000000149,,recognition_phase,879721,Willowford,,51,,,,,,new,1,0.6923076923076923
null,,confidence_buffer,879835,confidence_buffer,,null,,,,,,,,
null,,thebreak,880353,break,,null,,,,,,,,
2737.7999999970198,,realistic_rating,883094,Hawthorne Bluffs,,53,Hawthorne Bluffs,Fictional,5,,,,,
null,,confidence_buffer,883205,confidence_buffer,,null,,,,,,,,
1716.7000000029802,,pt2_unique_rating,884925,Hawthorne Bluffs,,51,,,3,,,,,
null,,confidence_buffer,885035,confidence_buffer,,null,,,,,,,,
1647.6000000014901,,pt2_memorable_rating,886686,Hawthorne Bluffs,,52,,,4,,,,,
null,,confidence_buffer,886804,confidence_buffer,,null,,,,,,,,
2555,,recognition_phase,889362,Hawthorne Bluffs,,51,,,,,,new,1,0.7142857142857143
null,,confidence_buffer,889474,confidence_buffer,,null,,,,,,,,
null,,thebreak,889983,break,,null,,,,,,,,
3381.10000000149,,realistic_rating,893367,Cleveland,,52,Cleveland,US,4,,,,,
null,,confidence_buffer,893473,confidence_buffer,,null,,,,,,,,
2738.39999999851,,probe_rating,896215,probe_rating,,53,,,,5,1,,,
null,,confidence_buffer,896330,confidence_buffer,,null,,,,,,,,
2610.7999999970198,,pt2_unique_rating,898944,Cleveland,,52,,,4,,,,,
null,,confidence_buffer,899058,confidence_buffer,,null,,,,,,,,
2032.8000000044703,,pt2_memorable_rating,901094,Cleveland,,51,,,3,,,,,
null,,confidence_buffer,901213,confidence_buffer,,null,,,,,,,,
1654.6000000014901,,recognition_phase,902871,Cleveland,,50,,,,,,old,1,0.7333333333333333
null,,confidence_buffer,902978,confidence_buffer,,null,,,,,,,,
null,,thebreak,903484,break,,null,,,,,,,,
2287.2000000029802,,realistic_rating,905773,Boulder,,52,Boulder,US,4,,,,,
null,,confidence_buffer,905879,confidence_buffer,,null,,,,,,,,
1643.4000000059605,,pt2_unique_rating,907525,Boulder,,53,,,5,,,,,
null,,confidence_buffer,907634,confidence_buffer,,null,,,,,,,,
1454.7999999970198,,pt2_memorable_rating,909092,Boulder,,51,,,3,,,,,
null,,confidence_buffer,909204,confidence_buffer,,null,,,,,,,,
3289.10000000149,,recognition_phase,912497,Boulder,,51,,,,,,new,1,0.75
null,,confidence_buffer,912618,confidence_buffer,,null,,,,,,,,
null,,thebreak,913130,break,,null,,,,,,,,
6673.89999999851,,realistic_rating,919807,Silverpine,,52,Silverpine,Fictional,4,,,,,
null,,confidence_buffer,919926,confidence_buffer,,null,,,,,,,,
1856.2000000029802,,pt2_unique_rating,921786,Silverpine,,51,,,3,,,,,
null,,confidence_buffer,921890,confidence_buffer,,null,,,,,,,,
3512,,pt2_memorable_rating,925406,Silverpine,,53,,,5,,,,,
null,,confidence_buffer,925521,confidence_buffer,,null,,,,,,,,
3389.7999999970198,,recognition_phase,928914,Silverpine,,50,,,,,,old,1,0.7647058823529411
null,,confidence_buffer,929020,confidence_buffer,,null,,,,,,,,
null,,thebreak,929529,break,,null,,,,,,,,
2628.89999999851,,realistic_rating,932162,Maplehurst,,52,Maplehurst,Fictional,4,,,,,
null,,confidence_buffer,932270,confidence_buffer,,null,,,,,,,,
2405.2000000029802,,probe_rating,934679,probe_rating,,52,,,,4,1,,,
null,,confidence_buffer,934796,confidence_buffer,,null,,,,,,,,
2801.60000000149,,pt2_unique_rating,937601,Maplehurst,,52,,,4,,,,,
null,,confidence_buffer,937713,confidence_buffer,,null,,,,,,,,
2415,,pt2_memorable_rating,940132,Maplehurst,,51,,,3,,,,,
null,,confidence_buffer,940249,confidence_buffer,,null,,,,,,,,
3598.39999999851,,recognition_phase,943851,Maplehurst,,50,,,,,,old,1,0.7777777777777778
null,,confidence_buffer,943959,confidence_buffer,,null,,,,,,,,
null,,thebreak,944461,break,,null,,,,,,,,
2146.5,,realistic_rating,946611,Sierra Hollow,,53,Sierra Hollow,Fictional,5,,,,,
null,,confidence_buffer,946717,confidence_buffer,,null,,,,,,,,
2452.7000000029802,,probe_rating,949173,probe_rating,,53,,,,5,1,,,
null,,confidence_buffer,949284,confidence_buffer,,null,,,,,,,,
1621.3999999985099,,pt2_unique_rating,950909,Sierra Hollow,,52,,,4,,,,,
null,,confidence_buffer,951028,confidence_buffer,,null,,,,,,,,
2865.5,,pt2_memorable_rating,953896,Sierra Hollow,,53,,,5,,,,,
null,,confidence_buffer,954006,confidence_buffer,,null,,,,,,,,
3818.7999999970198,,recognition_phase,957828,Sierra Hollow,,50,,,,,,old,0,0.7368421052631579
null,,confidence_buffer,957938,confidence_buffer,,null,,,,,,,,
null,,thebreak,958449,break,,null,,,,,,,,
4038.1999999955297,,realistic_rating,962490,Athens,,52,Athens,US,4,,,,,
null,,confidence_buffer,962606,confidence_buffer,,null,,,,,,,,
1116.8999999985099,,pt2_unique_rating,963727,Athens,,53,,,5,,,,,
null,,confidence_buffer,963839,confidence_buffer,,null,,,,,,,,
2033.8999999985099,,pt2_memorable_rating,965876,Athens,,51,,,3,,,,,
null,,confidence_buffer,965987,confidence_buffer,,null,,,,,,,,
3634.7999999970198,,recognition_phase,969625,Athens,,51,,,,,,new,1,0.75
null,,confidence_buffer,969737,confidence_buffer,,null,,,,,,,,
null,,thebreak,970240,break,,null,,,,,,,,
2792,,realistic_rating,973035,Oakridge,,53,Oakridge,Fictional,5,,,,,
null,,confidence_buffer,973154,confidence_buffer,,null,,,,,,,,
1259.6000000014901,,pt2_unique_rating,974417,Oakridge,,52,,,4,,,,,
null,,confidence_buffer,974533,confidence_buffer,,null,,,,,,,,
4001.3000000044703,,pt2_memorable_rating,978538,Oakridge,,51,,,3,,,,,
null,,confidence_buffer,978650,confidence_buffer,,null,,,,,,,,
2915.60000000149,,recognition_phase,981569,Oakridge,,49,,,,,,old,1,0.7619047619047619
null,,confidence_buffer,981681,confidence_buffer,,null,,,,,,,,
null,,thebreak,982189,break,,null,,,,,,,,
7522,,realistic_rating,989714,Sammamish,,52,Sammamish,US,4,,,,,
null,,confidence_buffer,989825,confidence_buffer,,null,,,,,,,,
3971.60000000149,,pt2_unique_rating,993800,Sammamish,,53,,,5,,,,,
null,,confidence_buffer,993907,confidence_buffer,,null,,,,,,,,
2418.10000000149,,pt2_memorable_rating,996329,Sammamish,,51,,,3,,,,,
null,,confidence_buffer,996445,confidence_buffer,,null,,,,,,,,
2833.6999999955297,,recognition_phase,999282,Sammamish,,49,,,,,,old,0,0.7272727272727273
null,,confidence_buffer,999390,confidence_buffer,,null,,,,,,,,
null,,thebreak,999903,break,,null,,,,,,,,
2955.5,,realistic_rating,1002862,Carmel,,53,Carmel,US,5,,,,,
null,,confidence_buffer,1002975,confidence_buffer,,null,,,,,,,,
2030.8999999985099,,pt2_unique_rating,1005009,Carmel,,51,,,3,,,,,
null,,confidence_buffer,1005116,confidence_buffer,,null,,,,,,,,
3237,,pt2_memorable_rating,1008357,Carmel,,52,,,4,,,,,
null,,confidence_buffer,1008466,confidence_buffer,,null,,,,,,,,
3494.10000000149,,recognition_phase,1011962,Carmel,,50,,,,,,old,1,0.7391304347826086
null,,confidence_buffer,1012075,confidence_buffer,,null,,,,,,,,
null,,thebreak,1012583,break,,null,,,,,,,,
2522.89999999851,,realistic_rating,1015109,New Verdan,,52,New Verdan,Fictional,4,,,,,
null,,confidence_buffer,1015228,confidence_buffer,,null,,,,,,,,
1994.5,,pt2_unique_rating,1017226,New Verdan,,53,,,5,,,,,
null,,confidence_buffer,1017336,confidence_buffer,,null,,,,,,,,
2051.3000000044703,,pt2_memorable_rating,1019391,New Verdan,,52,,,4,,,,,
null,,confidence_buffer,1019512,confidence_buffer,,null,,,,,,,,
3760.10000000149,,recognition_phase,1023276,New Verdan,,49,,,,,,old,0,0.7083333333333334
null,,confidence_buffer,1023383,confidence_buffer,,null,,,,,,,,
null,,thebreak,1023890,break,,null,,,,,,,,
5516.30000000447,,realistic_rating,1029410,Alliance,,52,Alliance,US,4,,,,,
null,,confidence_buffer,1029530,confidence_buffer,,null,,,,,,,,
2448.2000000029802,,pt2_unique_rating,1031982,Alliance,,53,,,5,,,,,
null,,confidence_buffer,1032087,confidence_buffer,,null,,,,,,,,
1674.7999999970198,,pt2_memorable_rating,1033765,Alliance,,51,,,3,,,,,
null,,confidence_buffer,1033871,confidence_buffer,,null,,,,,,,,
6607.60000000149,,recognition_phase,1040481,Alliance,,51,,,,,,new,1,0.72
null,,confidence_buffer,1040601,confidence_buffer,,null,,,,,,,,
null,,thebreak,1041116,break,,null,,,,,,,,
2756.10000000149,,realistic_rating,1043876,Summershade,,52,Summershade,Fictional,4,,,,,
null,,confidence_buffer,1043997,confidence_buffer,,null,,,,,,,,
2289,,pt2_unique_rating,1046289,Summershade,,51,,,3,,,,,
null,,confidence_buffer,1046398,confidence_buffer,,null,,,,,,,,
2680.89999999851,,pt2_memorable_rating,1049082,Summershade,,53,,,5,,,,,
null,,confidence_buffer,1049200,confidence_buffer,,null,,,,,,,,
1806.6000000014901,,recognition_phase,1051010,Summershade,,50,,,,,,old,1,0.7307692307692307
null,,confidence_buffer,1051114,confidence_buffer,,null,,,,,,,,
null,,thebreak,1051619,break,,null,,,,,,,,
4235.10000000149,,realistic_rating,1055857,Falconridge,,52,Falconridge,Fictional,4,,,,,
null,,confidence_buffer,1055970,confidence_buffer,,null,,,,,,,,
2407.2999999970198,,pt2_unique_rating,1058381,Falconridge,,53,,,5,,,,,
null,,confidence_buffer,1058494,confidence_buffer,,null,,,,,,,,
1652,,pt2_memorable_rating,1060149,Falconridge,,51,,,3,,,,,
null,,confidence_buffer,1060257,confidence_buffer,,null,,,,,,,,
6759.5,,recognition_phase,1067020,Falconridge,,49,,,,,,old,1,0.7407407407407407
null,,confidence_buffer,1067130,confidence_buffer,,null,,,,,,,,
null,,thebreak,1067638,break,,null,,,,,,,,
4065.60000000149,,realistic_rating,1071708,West Palm Beach,,52,West Palm Beach,US,4,,,,,
null,,confidence_buffer,1071830,confidence_buffer,,null,,,,,,,,
2540.5,,pt2_unique_rating,1074373,West Palm Beach,,51,,,3,,,,,
null,,confidence_buffer,1074477,confidence_buffer,,null,,,,,,,,
3204.3000000044703,,pt2_memorable_rating,1077685,West Palm Beach,,52,,,4,,,,,
null,,confidence_buffer,1077792,confidence_buffer,,null,,,,,,,,
1962.8999999985099,,recognition_phase,1079758,West Palm Beach,,49,,,,,,old,1,0.75
null,,confidence_buffer,1079870,confidence_buffer,,null,,,,,,,,
null,,thebreak,1080383,break,,null,,,,,,,,
2740.6999999955297,,realistic_rating,1083127,San Antonio,,52,San Antonio,US,4,,,,,
null,,confidence_buffer,1083237,confidence_buffer,,null,,,,,,,,
2804.60000000149,,pt2_unique_rating,1086045,San Antonio,,53,,,5,,,,,
null,,confidence_buffer,1086166,confidence_buffer,,null,,,,,,,,
1142,,pt2_memorable_rating,1087311,San Antonio,,51,,,3,,,,,
null,,confidence_buffer,1087416,confidence_buffer,,null,,,,,,,,
3783.89999999851,,recognition_phase,1091204,San Antonio,,50,,,,,,old,0,0.7241379310344828
null,,confidence_buffer,1091309,confidence_buffer,,null,,,,,,,,
null,,thebreak,1091816,break,,null,,,,,,,,
4815.69999999553,,realistic_rating,1096635,Cornwall,,53,Cornwall,US,5,,,,,
null,,confidence_buffer,1096744,confidence_buffer,,null,,,,,,,,
2761.3000000044703,,pt2_unique_rating,1099509,Cornwall,,51,,,3,,,,,
null,,confidence_buffer,1099618,confidence_buffer,,null,,,,,,,,
1203,,pt2_memorable_rating,1100824,Cornwall,,52,,,4,,,,,
null,,confidence_buffer,1100938,confidence_buffer,,null,,,,,,,,
2286.9000000059605,,recognition_phase,1103229,Cornwall,,49,,,,,,old,1,0.7333333333333333
null,,confidence_buffer,1103336,confidence_buffer,,null,,,,,,,,
null,,thebreak,1103845,break,,null,,,,,,,,
1887.8000000044703,,realistic_rating,1105736,North Arroya,,52,North Arroya,Fictional,4,,,,,
null,,confidence_buffer,1105849,confidence_buffer,,null,,,,,,,,
1217.5,,pt2_unique_rating,1107070,North Arroya,,51,,,3,,,,,
null,,confidence_buffer,1107179,confidence_buffer,,null,,,,,,,,
2352.5,,pt2_memorable_rating,1109535,North Arroya,,53,,,5,,,,,
null,,confidence_buffer,1109640,confidence_buffer,,null,,,,,,,,
4521.10000000149,,recognition_phase,1114165,North Arroya,,50,,,,,,old,0,0.7096774193548387
null,,confidence_buffer,1114279,confidence_buffer,,null,,,,,,,,
null,,thebreak,1114789,break,,null,,,,,,,,
3159.2999999970198,,realistic_rating,1117952,Ironwood Heights,,53,Ironwood Heights,Fictional,5,,,,,
null,,confidence_buffer,1118067,confidence_buffer,,null,,,,,,,,
1076.7000000029802,,pt2_unique_rating,1119148,Ironwood Heights,,52,,,4,,,,,
null,,confidence_buffer,1119257,confidence_buffer,,null,,,,,,,,
1575.3999999985099,,pt2_memorable_rating,1120836,Ironwood Heights,,51,,,3,,,,,
null,,confidence_buffer,1120952,confidence_buffer,,null,,,,,,,,
2439.8000000044703,,probe_rating,1123396,probe_rating,,50,,,,2,1,,,
null,,confidence_buffer,1123513,confidence_buffer,,null,,,,,,,,
5054.79999999702,,recognition_phase,1128572,Ironwood Heights,,51,,,,,,new,0,0.6875
null,,confidence_buffer,1128680,confidence_buffer,,null,,,,,,,,
null,,thebreak,1129199,break,,null,,,,,,,,
2687.2999999970198,,realistic_rating,1131889,Orr,,53,Orr,US,5,,,,,
null,,confidence_buffer,1132007,confidence_buffer,,null,,,,,,,,
1740.2000000029802,,pt2_unique_rating,1133751,Orr,,51,,,3,,,,,
null,,confidence_buffer,1133860,confidence_buffer,,null,,,,,,,,
1108.7000000029802,,pt2_memorable_rating,1134972,Orr,,52,,,4,,,,,
null,,confidence_buffer,1135078,confidence_buffer,,null,,,,,,,,
1968.5,,recognition_phase,1137050,Orr,,49,,,,,,old,1,0.696969696969697
null,,confidence_buffer,1137159,confidence_buffer,,null,,,,,,,,
null,,thebreak,1137678,break,,null,,,,,,,,
2316.1999999955297,,realistic_rating,1139998,Fairhaven,,52,Fairhaven,Fictional,4,,,,,
null,,confidence_buffer,1140110,confidence_buffer,,null,,,,,,,,
2248.6999999955297,,pt2_unique_rating,1142362,Fairhaven,,53,,,5,,,,,
null,,confidence_buffer,1142469,confidence_buffer,,null,,,,,,,,
1424.2000000029802,,pt2_memorable_rating,1143897,Fairhaven,,50,,,2,,,,,
null,,confidence_buffer,1144003,confidence_buffer,,null,,,,,,,,
1987.7000000029802,,recognition_phase,1145994,Fairhaven,,49,,,,,,old,1,0.7058823529411765
null,,confidence_buffer,1146104,confidence_buffer,,null,,,,,,,,
null,,thebreak,1146620,break,,null,,,,,,,,
2594.7000000029802,,realistic_rating,1149219,West Talora,,52,West Talora,Fictional,4,,,,,
null,,confidence_buffer,1149339,confidence_buffer,,null,,,,,,,,
2805.60000000149,,pt2_unique_rating,1152148,West Talora,,50,,,2,,,,,
null,,confidence_buffer,1152264,confidence_buffer,,null,,,,,,,,
1437.8999999985099,,pt2_memorable_rating,1153705,West Talora,,52,,,4,,,,,
null,,confidence_buffer,1153824,confidence_buffer,,null,,,,,,,,
4773.60000000149,,recognition_phase,1158601,West Talora,,50,,,,,,old,0,0.6857142857142857
null,,confidence_buffer,1158718,confidence_buffer,,null,,,,,,,,
null,,thebreak,1159225,break,,null,,,,,,,,
3356,,realistic_rating,1162584,Solara Glen,,53,Solara Glen,Fictional,5,,,,,
null,,confidence_buffer,1162693,confidence_buffer,,null,,,,,,,,
1172.1999999955297,,pt2_unique_rating,1163868,Solara Glen,,52,,,4,,,,,
null,,confidence_buffer,1163989,confidence_buffer,,null,,,,,,,,
1682.5,,pt2_memorable_rating,1165675,Solara Glen,,51,,,3,,,,,
null,,confidence_buffer,1165791,confidence_buffer,,null,,,,,,,,
3194.39999999851,,recognition_phase,1168989,Solara Glen,,49,,,,,,old,1,0.6944444444444444
null,,confidence_buffer,1169098,confidence_buffer,,null,,,,,,,,
null,,thebreak,1169617,break,,null,,,,,,,,
2263,,realistic_rating,1171883,Crestwood,,52,Crestwood,Fictional,4,,,,,
null,,confidence_buffer,1172001,confidence_buffer,,null,,,,,,,,
1345.6000000014901,,pt2_unique_rating,1173350,Crestwood,,53,,,5,,,,,
null,,confidence_buffer,1173459,confidence_buffer,,null,,,,,,,,
1684.1000000014901,,pt2_memorable_rating,1175147,Crestwood,,51,,,3,,,,,
null,,confidence_buffer,1175259,confidence_buffer,,null,,,,,,,,
1442.7999999970198,,recognition_phase,1176706,Crestwood,,49,,,,,,old,0,0.6756756756756757
null,,confidence_buffer,1176817,confidence_buffer,,null,,,,,,,,
null,,thebreak,1177327,break,,null,,,,,,,,
2148.6999999955297,,realistic_rating,1179480,Duck,,52,Duck,US,4,,,,,
null,,confidence_buffer,1179600,confidence_buffer,,null,,,,,,,,
1212.8999999985099,,pt2_unique_rating,1180816,Duck,,51,,,3,,,,,
null,,confidence_buffer,1180920,confidence_buffer,,null,,,,,,,,
1248.1000000014901,,pt2_memorable_rating,1182172,Duck,,53,,,5,,,,,
null,,confidence_buffer,1182279,confidence_buffer,,null,,,,,,,,
1682.8999999985099,,recognition_phase,1183966,Duck,,49,,,,,,old,1,0.6842105263157895
null,,confidence_buffer,1184079,confidence_buffer,,null,,,,,,,,
null,,thebreak,1184588,break,,null,,,,,,,,
3458,,realistic_rating,1188050,Golden Trace,,52,Golden Trace,Fictional,4,,,,,
null,,confidence_buffer,1188170,confidence_buffer,,null,,,,,,,,
3462.6999999955297,,pt2_unique_rating,1191636,Golden Trace,,52,,,4,,,,,
null,,confidence_buffer,1191749,confidence_buffer,,null,,,,,,,,
1465.7999999970198,,pt2_memorable_rating,1193218,Golden Trace,,51,,,3,,,,,
null,,confidence_buffer,1193330,confidence_buffer,,null,,,,,,,,
4666.20000000298,,recognition_phase,1198000,Golden Trace,,50,,,,,,old,0,0.6666666666666666
null,,confidence_buffer,1198105,confidence_buffer,,null,,,,,,,,
null,,thebreak,1198617,break,,null,,,,,,,,
2532.2000000029802,,realistic_rating,1201153,Orchard Bend,,53,Orchard Bend,Fictional,5,,,,,
null,,confidence_buffer,1201261,confidence_buffer,,null,,,,,,,,
1284.1999999955297,,pt2_unique_rating,1202549,Orchard Bend,,52,,,4,,,,,
null,,confidence_buffer,1202663,confidence_buffer,,null,,,,,,,,
1929.5,,probe_rating,1204596,probe_rating,,50,,,,2,1,,,
null,,confidence_buffer,1204706,confidence_buffer,,null,,,,,,,,
2779.1999999955297,,pt2_memorable_rating,1207489,Orchard Bend,,51,,,3,,,,,
null,,confidence_buffer,1207599,confidence_buffer,,null,,,,,,,,
1390.7999999970198,,recognition_phase,1208993,Orchard Bend,,49,,,,,,old,0,0.65
null,,confidence_buffer,1209104,confidence_buffer,,null,,,,,,,,
null,,thebreak,1209620,break,,null,,,,,,,,
2148.7999999970198,,realistic_rating,1211773,Barnard,,52,Barnard,US,4,,,,,
null,,confidence_buffer,1211880,confidence_buffer,,null,,,,,,,,
2832.5,,pt2_unique_rating,1214716,Barnard,,53,,,5,,,,,
null,,confidence_buffer,1214830,confidence_buffer,,null,,,,,,,,
2160.5999999940395,,pt2_memorable_rating,1216994,Barnard,,52,,,4,,,,,
null,,confidence_buffer,1217106,confidence_buffer,,null,,,,,,,,
2365.6999999955297,,recognition_phase,1219475,Barnard,,50,,,,,,old,1,0.6585365853658537
null,,confidence_buffer,1219595,confidence_buffer,,null,,,,,,,,
null,,thebreak,1220102,break,,null,,,,,,,,
2076.3000000044703,,realistic_rating,1222182,Brookmere,,52,Brookmere,Fictional,4,,,,,
null,,confidence_buffer,1222300,confidence_buffer,,null,,,,,,,,
1545.1000000014901,,pt2_unique_rating,1223849,Brookmere,,50,,,2,,,,,
null,,confidence_buffer,1223959,confidence_buffer,,null,,,,,,,,
1596.1999999955297,,pt2_memorable_rating,1225558,Brookmere,,51,,,3,,,,,
null,,confidence_buffer,1225672,confidence_buffer,,null,,,,,,,,
2732.8000000044703,,recognition_phase,1228409,Brookmere,,50,,,,,,old,0,0.6428571428571429
null,,confidence_buffer,1228526,confidence_buffer,,null,,,,,,,,
null,,thebreak,1229034,break,,null,,,,,,,,
2838,,realistic_rating,1231875,Peoria,,53,Peoria,US,5,,,,,
null,,confidence_buffer,1231986,confidence_buffer,,null,,,,,,,,
2726.2999999970198,,pt2_unique_rating,1234716,Peoria,,52,,,4,,,,,
null,,confidence_buffer,1234828,confidence_buffer,,null,,,,,,,,
1879.3999999985099,,pt2_memorable_rating,1236711,Peoria,,51,,,3,,,,,
null,,confidence_buffer,1236830,confidence_buffer,,null,,,,,,,,
2553,,recognition_phase,1239387,Peoria,,51,,,,,,new,1,0.6511627906976745
null,,confidence_buffer,1239496,confidence_buffer,,null,,,,,,,,
null,,thebreak,1240010,break,,null,,,,,,,,
2251.60000000149,,realistic_rating,1242265,Bisbee,,52,Bisbee,US,4,,,,,
null,,confidence_buffer,1242374,confidence_buffer,,null,,,,,,,,
1689.1999999955297,,probe_rating,1244067,probe_rating,,50,,,,2,1,,,
null,,confidence_buffer,1244187,confidence_buffer,,null,,,,,,,,
4493.10000000149,,pt2_unique_rating,1248684,Bisbee,,51,,,3,,,,,
null,,confidence_buffer,1248789,confidence_buffer,,null,,,,,,,,
5248.5,,pt2_memorable_rating,1254041,Bisbee,,52,,,4,,,,,
null,,confidence_buffer,1254157,confidence_buffer,,null,,,,,,,,
1565.8999999985099,,recognition_phase,1255727,Bisbee,,49,,,,,,old,0,0.6363636363636364
null,,confidence_buffer,1255847,confidence_buffer,,null,,,,,,,,
null,,thebreak,1256354,break,,null,,,,,,,,
2533,,realistic_rating,1258891,Clearbrook,,52,Clearbrook,Fictional,4,,,,,
null,,confidence_buffer,1259008,confidence_buffer,,null,,,,,,,,
1196.5,,pt2_unique_rating,1260208,Clearbrook,,51,,,3,,,,,
null,,confidence_buffer,1260325,confidence_buffer,,null,,,,,,,,
2409.5,,probe_rating,1262738,probe_rating,,52,,,,4,1,,,
null,,confidence_buffer,1262857,confidence_buffer,,null,,,,,,,,
2847,,pt2_memorable_rating,1265707,Clearbrook,,53,,,5,,,,,
null,,confidence_buffer,1265817,confidence_buffer,,null,,,,,,,,
3236.89999999851,,recognition_phase,1269058,Clearbrook,,49,,,,,,old,1,0.6444444444444445
null,,confidence_buffer,1269165,confidence_buffer,,null,,,,,,,,
null,,thebreak,1269677,break,,null,,,,,,,,
1530.8999999985099,,realistic_rating,1271212,Bar Harbor,,52,Bar Harbor,US,4,,,,,
null,,confidence_buffer,1271331,confidence_buffer,,null,,,,,,,,
2485.5,,probe_rating,1273820,probe_rating,,52,,,,4,1,,,
null,,confidence_buffer,1273937,confidence_buffer,,null,,,,,,,,
3127.3000000044703,,pt2_unique_rating,1277068,Bar Harbor,,53,,,5,,,,,
null,,confidence_buffer,1277186,confidence_buffer,,null,,,,,,,,
3797.2000000029802,,pt2_memorable_rating,1280987,Bar Harbor,,51,,,3,,,,,
null,,confidence_buffer,1281108,confidence_buffer,,null,,,,,,,,
11050.79999999702,,recognition_phase,1292163,Bar Harbor,,50,,,,,,old,0,0.6304347826086957
null,,confidence_buffer,1292277,confidence_buffer,,null,,,,,,,,
null,,thebreak,1292790,break,,null,,,,,,,,
4788,,realistic_rating,1297582,Gardnerville,,53,Gardnerville,US,5,,,,,
null,,confidence_buffer,1297691,confidence_buffer,,null,,,,,,,,
1586.7999999970198,,pt2_unique_rating,1299281,Gardnerville,,51,,,3,,,,,
null,,confidence_buffer,1299387,confidence_buffer,,null,,,,,,,,
4548.10000000149,,pt2_memorable_rating,1303939,Gardnerville,,52,,,4,,,,,
null,,confidence_buffer,1304060,confidence_buffer,,null,,,,,,,,
1437.6000000014901,,recognition_phase,1305502,Gardnerville,,49,,,,,,old,0,0.6170212765957447
null,,confidence_buffer,1305610,confidence_buffer,,null,,,,,,,,
null,,thebreak,1306124,break,,null,,,,,,,,
2929.60000000149,,realistic_rating,1309057,Yukon,,52,Yukon,US,4,,,,,
null,,confidence_buffer,1309169,confidence_buffer,,null,,,,,,,,
2027.2999999970198,,pt2_unique_rating,1311200,Yukon,,51,,,3,,,,,
null,,confidence_buffer,1311314,confidence_buffer,,null,,,,,,,,
2781.6999999955297,,pt2_memorable_rating,1314100,Yukon,,50,,,2,,,,,
null,,confidence_buffer,1314219,confidence_buffer,,null,,,,,,,,
2707.2000000029802,,probe_rating,1316930,probe_rating,,53,,,,5,1,,,
null,,confidence_buffer,1317044,confidence_buffer,,null,,,,,,,,
4254.80000000447,,recognition_phase,1321303,Yukon,,50,,,,,,old,1,0.625
null,,confidence_buffer,1321414,confidence_buffer,,null,,,,,,,,
null,,thebreak,1321919,break,,null,,,,,,,,
3195.1999999955297,,realistic_rating,1325118,Shreveport,,52,Shreveport,US,4,,,,,
null,,confidence_buffer,1325240,confidence_buffer,,null,,,,,,,,
1450.6000000014901,,pt2_unique_rating,1326694,Shreveport,,53,,,5,,,,,
null,,confidence_buffer,1326799,confidence_buffer,,null,,,,,,,,
1233.5999999940395,,pt2_memorable_rating,1328036,Shreveport,,50,,,2,,,,,
null,,confidence_buffer,1328150,confidence_buffer,,null,,,,,,,,
2027.8000000044703,,recognition_phase,1330182,Shreveport,,49,,,,,,old,1,0.6326530612244898
null,,confidence_buffer,1330287,confidence_buffer,,null,,,,,,,,
null,,thebreak,1330794,break,,null,,,,,,,,
2693.10000000149,,realistic_rating,1333491,Sitka,,52,Sitka,US,4,,,,,
null,,confidence_buffer,1333608,confidence_buffer,,null,,,,,,,,
1429.8999999985099,,pt2_unique_rating,1335040,Sitka,,50,,,2,,,,,
null,,confidence_buffer,1335154,confidence_buffer,,null,,,,,,,,
2310.5999999940395,,probe_rating,1337468,probe_rating,,53,,,,5,1,,,
null,,confidence_buffer,1337576,confidence_buffer,,null,,,,,,,,
2192.89999999851,,pt2_memorable_rating,1339772,Sitka,,53,,,5,,,,,
null,,confidence_buffer,1339880,confidence_buffer,,null,,,,,,,,
1419.4000000059605,,recognition_phase,1341303,Sitka,,49,,,,,,old,1,0.64
null,,confidence_buffer,1341409,confidence_buffer,,null,,,,,,,,
null,,thebreak,1341923,break,,null,,,,,,,,
4054.60000000149,,realistic_rating,1345982,Riverlyn,,53,Riverlyn,Fictional,5,,,,,
null,,confidence_buffer,1346093,confidence_buffer,,null,,,,,,,,
2007.3999999985099,,pt2_unique_rating,1348104,Riverlyn,,52,,,4,,,,,
null,,confidence_buffer,1348219,confidence_buffer,,null,,,,,,,,
1722.8999999985099,,pt2_memorable_rating,1349946,Riverlyn,,52,,,4,,,,,
null,,confidence_buffer,1350057,confidence_buffer,,null,,,,,,,,
1043.5,,recognition_phase,1351105,Riverlyn,,49,,,,,,old,1,0.6470588235294118
null,,confidence_buffer,1351219,confidence_buffer,,null,,,,,,,,
null,,thebreak,1351732,break,,null,,,,,,,,
2855.7999999970198,,realistic_rating,1354592,Westridge,,53,Westridge,Fictional,5,,,,,
null,,confidence_buffer,1354703,confidence_buffer,,null,,,,,,,,
1645.5,,pt2_unique_rating,1356353,Westridge,,52,,,4,,,,,
null,,confidence_buffer,1356465,confidence_buffer,,null,,,,,,,,
3869,,pt2_memorable_rating,1360338,Westridge,,52,,,4,,,,,
null,,confidence_buffer,1360445,confidence_buffer,,null,,,,,,,,
1578.1999999955297,,recognition_phase,1362027,Westridge,,49,,,,,,old,1,0.6538461538461539
null,,confidence_buffer,1362140,confidence_buffer,,null,,,,,,,,
null,,thebreak,1362653,break,,null,,,,,,,,
2237.6999999955297,,realistic_rating,1364895,Lakehaven,,52,Lakehaven,Fictional,4,,,,,
null,,confidence_buffer,1365009,confidence_buffer,,null,,,,,,,,
1505.7999999970198,,pt2_unique_rating,1366518,Lakehaven,,50,,,2,,,,,
null,,confidence_buffer,1366637,confidence_buffer,,null,,,,,,,,
1720,,probe_rating,1368362,probe_rating,,53,,,,5,1,,,
null,,confidence_buffer,1368470,confidence_buffer,,null,,,,,,,,
2831.5999999940395,,pt2_memorable_rating,1371306,Lakehaven,,51,,,3,,,,,
null,,confidence_buffer,1371415,confidence_buffer,,null,,,,,,,,
1166.8999999985099,,recognition_phase,1372586,Lakehaven,,49,,,,,,old,0,0.6415094339622641
null,,confidence_buffer,1372696,confidence_buffer,,null,,,,,,,,
null,,thebreak,1373209,break,,null,,,,,,,,
1667.3000000044703,,realistic_rating,1374880,Baymarsh,,52,Baymarsh,Fictional,4,,,,,
null,,confidence_buffer,1374987,confidence_buffer,,null,,,,,,,,
1423.7000000029802,,pt2_unique_rating,1376414,Baymarsh,,53,,,5,,,,,
null,,confidence_buffer,1376520,confidence_buffer,,null,,,,,,,,
1237.5,,pt2_memorable_rating,1377761,Baymarsh,,51,,,3,,,,,
null,,confidence_buffer,1377874,confidence_buffer,,null,,,,,,,,
1465.5,,recognition_phase,1379343,Baymarsh,,50,,,,,,old,0,0.6296296296296297
null,,confidence_buffer,1379456,confidence_buffer,,null,,,,,,,,
null,,thebreak,1379969,break,,null,,,,,,,,
2230.5,,realistic_rating,1382203,Linden Trace,,51,Linden Trace,Fictional,3,,,,,
null,,confidence_buffer,1382310,confidence_buffer,,null,,,,,,,,
2729.2999999970198,,pt2_unique_rating,1385043,Linden Trace,,53,,,5,,,,,
null,,confidence_buffer,1385156,confidence_buffer,,null,,,,,,,,
902.6000000014901,,pt2_memorable_rating,1386062,Linden Trace,,52,,,4,,,,,
null,,confidence_buffer,1386169,confidence_buffer,,null,,,,,,,,
2058.1999999955297,,recognition_phase,1388231,Linden Trace,,51,,,,,,new,1,0.6363636363636364
null,,confidence_buffer,1388344,confidence_buffer,,null,,,,,,,,
null,,thebreak,1388858,break,,null,,,,,,,,
2173.39999999851,,realistic_rating,1391035,Hanover,,53,Hanover,US,5,,,,,
null,,confidence_buffer,1391148,confidence_buffer,,null,,,,,,,,
2082.2000000029802,,pt2_unique_rating,1393234,Hanover,,51,,,3,,,,,
null,,confidence_buffer,1393340,confidence_buffer,,null,,,,,,,,
1700,,pt2_memorable_rating,1395043,Hanover,,52,,,4,,,,,
null,,confidence_buffer,1395151,confidence_buffer,,null,,,,,,,,
3135.39999999851,,recognition_phase,1398290,Hanover,,49,,,,,,old,0,0.625
null,,confidence_buffer,1398403,confidence_buffer,,null,,,,,,,,
null,,thebreak,1398918,break,,null,,,,,,,,
2836.5,,realistic_rating,1401759,Granton Ridge,,52,Granton Ridge,Fictional,4,,,,,
null,,confidence_buffer,1401881,confidence_buffer,,null,,,,,,,,
1303.2999999970198,,pt2_unique_rating,1403188,Granton Ridge,,53,,,5,,,,,
null,,confidence_buffer,1403308,confidence_buffer,,null,,,,,,,,
1712.5,,pt2_memorable_rating,1405025,Granton Ridge,,51,,,3,,,,,
null,,confidence_buffer,1405133,confidence_buffer,,null,,,,,,,,
1526.3000000044703,,recognition_phase,1406664,Granton Ridge,,49,,,,,,old,1,0.631578947368421
null,,confidence_buffer,1406776,confidence_buffer,,null,,,,,,,,
null,,thebreak,1407286,break,,null,,,,,,,,
3516.6999999955297,,realistic_rating,1410806,Gatlinburg,,53,Gatlinburg,US,5,,,,,
null,,confidence_buffer,1410919,confidence_buffer,,null,,,,,,,,
1518.7999999970198,,pt2_unique_rating,1412442,Gatlinburg,,52,,,4,,,,,
null,,confidence_buffer,1412563,confidence_buffer,,null,,,,,,,,
2348.10000000149,,pt2_memorable_rating,1414915,Gatlinburg,,50,,,2,,,,,
null,,confidence_buffer,1415030,confidence_buffer,,null,,,,,,,,
1946.3999999985099,,probe_rating,1416981,probe_rating,,51,,,,3,1,,,
null,,confidence_buffer,1417095,confidence_buffer,,null,,,,,,,,
3914.2000000029802,,recognition_phase,1421013,Gatlinburg,,49,,,,,,old,1,0.6379310344827587
null,,confidence_buffer,1421125,confidence_buffer,,null,,,,,,,,
null,,thebreak,1421630,break,,null,,,,,,,,
2255.39999999851,,realistic_rating,1423890,Racine,,52,Racine,US,4,,,,,
null,,confidence_buffer,1424004,confidence_buffer,,null,,,,,,,,
1639.5,,pt2_unique_rating,1425647,Racine,,51,,,3,,,,,
null,,confidence_buffer,1425757,confidence_buffer,,null,,,,,,,,
1621.6000000014901,,pt2_memorable_rating,1427382,Racine,,52,,,4,,,,,
null,,confidence_buffer,1427489,confidence_buffer,,null,,,,,,,,
2090.7000000029802,,recognition_phase,1429584,Racine,,51,,,,,,new,0,0.6271186440677966
null,,confidence_buffer,1429691,confidence_buffer,,null,,,,,,,,
null,,thebreak,1430197,break,,null,,,,,,,,
2877.10000000149,,realistic_rating,1433078,Newport,,52,Newport,US,4,,,,,
null,,confidence_buffer,1433187,confidence_buffer,,null,,,,,,,,
1213.8999999985099,,pt2_unique_rating,1434405,Newport,,51,,,3,,,,,
null,,confidence_buffer,1434514,confidence_buffer,,null,,,,,,,,
1672.6999999955297,,probe_rating,1436191,probe_rating,,50,,,,2,1,,,
null,,confidence_buffer,1436311,confidence_buffer,,null,,,,,,,,
2778.6999999955297,,pt2_memorable_rating,1439094,Newport,,53,,,5,,,,,
null,,confidence_buffer,1439213,confidence_buffer,,null,,,,,,,,
1321.7000000029802,,recognition_phase,1440539,Newport,,49,,,,,,old,1,0.6333333333333333
null,,confidence_buffer,1440653,confidence_buffer,,null,,,,,,,,
null,,thebreak,1441168,break,,null,,,,,,,,
