rt,responses,trial_type,time_elapsed,stimulus,button_pressed,key_press,name_trial,city_type,rating,probe,probe_accuracy,response,correct,accuracy
12953.799999998882,{worker_id:67d35d2c2eff9287d28e04e8},id_enter,12974,,,,,,,,,,,
21128.400000000373,,fullscreen,34143,fullscreen,0,,,,,,,,,
13055.099999999627,,intro_0,47216,instruct,,32,,,,,,,,
56470.40000000037,,intro_1,103691,instruct,,32,,,,,,,,
14030.599999999627,,intro_2,117723,instruct,,32,,,,,,,,
null,,instruct_dir_4,119225,instruct,,null,,,,,,,,
null,,thebreak,119727,break,,null,,,,,,,,
19714.300000000745,,familiar_rating,139443,Folly Beach,,50,Folly Beach,US,2,,,,,
null,,confidence_buffer,139545,confidence_buffer,,null,,,,,,,,
9119.89999999851,,unique_rating,148667,Folly Beach,,50,,,2,,,,,
null,,confidence_buffer,148769,confidence_buffer,,null,,,,,,,,
10008.799999998882,,memorable_rating,158779,Folly Beach,,51,,,3,,,,,
null,,confidence_buffer,158882,confidence_buffer,,null,,,,,,,,
null,,thebreak,159383,break,,null,,,,,,,,
8257.5,,familiar_rating,167642,Peoria,,49,Peoria,US,1,,,,,
null,,confidence_buffer,167744,confidence_buffer,,null,,,,,,,,
5048.699999999255,,unique_rating,172794,Peoria,,50,,,2,,,,,
null,,confidence_buffer,172897,confidence_buffer,,null,,,,,,,,
7984,,memorable_rating,180882,Peoria,,51,,,3,,,,,
null,,confidence_buffer,180984,confidence_buffer,,null,,,,,,,,
null,,thebreak,181486,break,,null,,,,,,,,
5771,,familiar_rating,187258,Granton Ridge,,51,Granton Ridge,Fictional,3,,,,,
null,,confidence_buffer,187361,confidence_buffer,,null,,,,,,,,
6207.5999999996275,,unique_rating,193570,Granton Ridge,,52,,,4,,,,,
null,,confidence_buffer,193672,confidence_buffer,,null,,,,,,,,
5728.799999998882,,memorable_rating,199402,Granton Ridge,,52,,,4,,,,,
null,,confidence_buffer,199504,confidence_buffer,,null,,,,,,,,
null,,thebreak,200005,break,,null,,,,,,,,
3266.5999999996275,,familiar_rating,203274,Abilene,,49,Abilene,US,1,,,,,
null,,confidence_buffer,203376,confidence_buffer,,null,,,,,,,,
3223.9000000003725,,unique_rating,206602,Abilene,,50,,,2,,,,,
null,,confidence_buffer,206703,confidence_buffer,,null,,,,,,,,
2417,,memorable_rating,209122,Abilene,,51,,,3,,,,,
null,,confidence_buffer,209223,confidence_buffer,,null,,,,,,,,
8433.099999999627,,probe_rating,217658,probe_rating,,49,,,,1,1,,,
null,,confidence_buffer,217761,confidence_buffer,,null,,,,,,,,
null,,thebreak,218262,break,,null,,,,,,,,
5409.799999998882,,familiar_rating,223673,Bar Harbor,,52,Bar Harbor,US,4,,,,,
null,,confidence_buffer,223775,confidence_buffer,,null,,,,,,,,
4289.10000000149,,unique_rating,228066,Bar Harbor,,52,,,4,,,,,
null,,confidence_buffer,228168,confidence_buffer,,null,,,,,,,,
3271.800000000745,,memorable_rating,231441,Bar Harbor,,51,,,3,,,,,
null,,confidence_buffer,231543,confidence_buffer,,null,,,,,,,,
null,,thebreak,232045,break,,null,,,,,,,,
7979,,familiar_rating,240025,Willowford,,50,Willowford,Fictional,2,,,,,
null,,confidence_buffer,240128,confidence_buffer,,null,,,,,,,,
6191.5999999996275,,unique_rating,246320,Willowford,,51,,,3,,,,,
null,,confidence_buffer,246423,confidence_buffer,,null,,,,,,,,
3441.300000000745,,memorable_rating,249865,Willowford,,50,,,2,,,,,
null,,confidence_buffer,249967,confidence_buffer,,null,,,,,,,,
null,,thebreak,250469,break,,null,,,,,,,,
3307.199999999255,,familiar_rating,253777,Clearbrook,,49,Clearbrook,Fictional,1,,,,,
null,,confidence_buffer,253880,confidence_buffer,,null,,,,,,,,
5375.5999999996275,,probe_rating,259257,probe_rating,,50,,,,2,1,,,
null,,confidence_buffer,259358,confidence_buffer,,null,,,,,,,,
5425.300000000745,,unique_rating,264785,Clearbrook,,50,,,2,,,,,
null,,confidence_buffer,264887,confidence_buffer,,null,,,,,,,,
6008.0999999996275,,memorable_rating,270897,Clearbrook,,51,,,3,,,,,
null,,confidence_buffer,270999,confidence_buffer,,null,,,,,,,,
null,,thebreak,271500,break,,null,,,,,,,,
6011.199999999255,,familiar_rating,277513,Stonebrook,,52,Stonebrook,Fictional,4,,,,,
null,,confidence_buffer,277615,confidence_buffer,,null,,,,,,,,
4032.5,,unique_rating,281649,Stonebrook,,51,,,3,,,,,
null,,confidence_buffer,281751,confidence_buffer,,null,,,,,,,,
4472.0999999996275,,memorable_rating,286224,Stonebrook,,51,,,3,,,,,
null,,confidence_buffer,286326,confidence_buffer,,null,,,,,,,,
null,,thebreak,286827,break,,null,,,,,,,,
4971.9000000003725,,familiar_rating,291801,Healdsburg,,49,Healdsburg,US,1,,,,,
null,,confidence_buffer,291903,confidence_buffer,,null,,,,,,,,
6503.9000000003725,,unique_rating,298409,Healdsburg,,50,,,2,,,,,
null,,confidence_buffer,298511,confidence_buffer,,null,,,,,,,,
2095.699999999255,,memorable_rating,300608,Healdsburg,,50,,,2,,,,,
null,,confidence_buffer,300711,confidence_buffer,,null,,,,,,,,
null,,thebreak,301213,break,,null,,,,,,,,
6842.199999999255,,familiar_rating,308057,Carmel,,51,Carmel,US,3,,,,,
null,,confidence_buffer,308159,confidence_buffer,,null,,,,,,,,
5048.199999999255,,unique_rating,313208,Carmel,,51,,,3,,,,,
null,,confidence_buffer,313310,confidence_buffer,,null,,,,,,,,
2441.2000000011176,,memorable_rating,315752,Carmel,,51,,,3,,,,,
null,,confidence_buffer,315854,confidence_buffer,,null,,,,,,,,
null,,thebreak,316360,break,,null,,,,,,,,
5806.5999999996275,,familiar_rating,322168,Crestwood,,50,Crestwood,Fictional,2,,,,,
null,,confidence_buffer,322271,confidence_buffer,,null,,,,,,,,
3687.199999999255,,unique_rating,325960,Crestwood,,51,,,3,,,,,
null,,confidence_buffer,326062,confidence_buffer,,null,,,,,,,,
4040.800000000745,,memorable_rating,330104,Crestwood,,49,,,1,,,,,
null,,confidence_buffer,330206,confidence_buffer,,null,,,,,,,,
null,,thebreak,330707,break,,null,,,,,,,,
6299.300000000745,,familiar_rating,337008,Sunmere,,50,Sunmere,Fictional,2,,,,,
null,,confidence_buffer,337111,confidence_buffer,,null,,,,,,,,
4103.199999999255,,unique_rating,341216,Sunmere,,51,,,3,,,,,
null,,confidence_buffer,341318,confidence_buffer,,null,,,,,,,,
6072.39999999851,,memorable_rating,347392,Sunmere,,52,,,4,,,,,
null,,confidence_buffer,347495,confidence_buffer,,null,,,,,,,,
null,,thebreak,347996,break,,null,,,,,,,,
3249.800000000745,,familiar_rating,351248,Hilo,,49,Hilo,US,1,,,,,
null,,confidence_buffer,351350,confidence_buffer,,null,,,,,,,,
2984.7999999988824,,unique_rating,354336,Hilo,,49,,,1,,,,,
null,,confidence_buffer,354437,confidence_buffer,,null,,,,,,,,
5217.199999999255,,memorable_rating,359656,Hilo,,50,,,2,,,,,
null,,confidence_buffer,359757,confidence_buffer,,null,,,,,,,,
null,,thebreak,360259,break,,null,,,,,,,,
3762.9000000003725,,familiar_rating,364023,Riverlyn,,51,Riverlyn,Fictional,3,,,,,
null,,confidence_buffer,364126,confidence_buffer,,null,,,,,,,,
5144.5,,unique_rating,369271,Riverlyn,,51,,,3,,,,,
null,,confidence_buffer,369373,confidence_buffer,,null,,,,,,,,
5576.800000000745,,memorable_rating,374952,Riverlyn,,52,,,4,,,,,
null,,confidence_buffer,375054,confidence_buffer,,null,,,,,,,,
null,,thebreak,375555,break,,null,,,,,,,,
2434.7999999988824,,familiar_rating,377991,Pine Hollow,,51,Pine Hollow,Fictional,3,,,,,
null,,confidence_buffer,378093,confidence_buffer,,null,,,,,,,,
2208.5,,unique_rating,380303,Pine Hollow,,50,,,2,,,,,
null,,confidence_buffer,380404,confidence_buffer,,null,,,,,,,,
1257.300000000745,,memorable_rating,381663,Pine Hollow,,49,,,1,,,,,
null,,confidence_buffer,381764,confidence_buffer,,null,,,,,,,,
null,,thebreak,382265,break,,null,,,,,,,,
5020.60000000149,,familiar_rating,387287,Athens,,52,Athens,US,4,,,,,
null,,confidence_buffer,387389,confidence_buffer,,null,,,,,,,,
3601.199999999255,,unique_rating,390991,Athens,,52,,,4,,,,,
null,,confidence_buffer,391093,confidence_buffer,,null,,,,,,,,
5040.5999999996275,,memorable_rating,396135,Athens,,51,,,3,,,,,
null,,confidence_buffer,396240,confidence_buffer,,null,,,,,,,,
null,,thebreak,396742,break,,null,,,,,,,,
4327.9000000003725,,familiar_rating,401071,San Antonio,,52,San Antonio,US,4,,,,,
null,,confidence_buffer,401174,confidence_buffer,,null,,,,,,,,
2912,,unique_rating,404087,San Antonio,,51,,,3,,,,,
null,,confidence_buffer,404188,confidence_buffer,,null,,,,,,,,
6217.39999999851,,memorable_rating,410407,San Antonio,,50,,,2,,,,,
null,,confidence_buffer,410508,confidence_buffer,,null,,,,,,,,
null,,thebreak,411009,break,,null,,,,,,,,
3796.300000000745,,familiar_rating,414807,Ashford Hills,,51,Ashford Hills,Fictional,3,,,,,
null,,confidence_buffer,414909,confidence_buffer,,null,,,,,,,,
4176.799999998882,,unique_rating,419087,Ashford Hills,,50,,,2,,,,,
null,,confidence_buffer,419189,confidence_buffer,,null,,,,,,,,
3952.9000000003725,,memorable_rating,423143,Ashford Hills,,50,,,2,,,,,
null,,confidence_buffer,423245,confidence_buffer,,null,,,,,,,,
null,,thebreak,423746,break,,null,,,,,,,,
4267.300000000745,,familiar_rating,428015,Briarfield,,50,Briarfield,Fictional,2,,,,,
null,,confidence_buffer,428117,confidence_buffer,,null,,,,,,,,
3488.4000000003725,,unique_rating,431607,Briarfield,,51,,,3,,,,,
null,,confidence_buffer,431708,confidence_buffer,,null,,,,,,,,
4193.10000000149,,memorable_rating,435903,Briarfield,,51,,,3,,,,,
null,,confidence_buffer,436004,confidence_buffer,,null,,,,,,,,
null,,thebreak,436505,break,,null,,,,,,,,
4884.199999999255,,familiar_rating,441391,Duck,,49,Duck,US,1,,,,,
null,,confidence_buffer,441492,confidence_buffer,,null,,,,,,,,
2177,,unique_rating,443671,Duck,,49,,,1,,,,,
null,,confidence_buffer,443773,confidence_buffer,,null,,,,,,,,
4328,,memorable_rating,448102,Duck,,49,,,1,,,,,
null,,confidence_buffer,448203,confidence_buffer,,null,,,,,,,,
4354.200000001118,,probe_rating,452559,probe_rating,,51,,,,3,1,,,
null,,confidence_buffer,452661,confidence_buffer,,null,,,,,,,,
null,,thebreak,453162,break,,null,,,,,,,,
4114.799999998882,,familiar_rating,457278,Racine,,49,Racine,US,1,,,,,
null,,confidence_buffer,457381,confidence_buffer,,null,,,,,,,,
2496.300000000745,,unique_rating,459878,Racine,,49,,,1,,,,,
null,,confidence_buffer,459981,confidence_buffer,,null,,,,,,,,
2072,,memorable_rating,462054,Racine,,49,,,1,,,,,
null,,confidence_buffer,462157,confidence_buffer,,null,,,,,,,,
null,,thebreak,462659,break,,null,,,,,,,,
5522.199999999255,,familiar_rating,468182,Gatlinburg,,51,Gatlinburg,US,3,,,,,
null,,confidence_buffer,468285,confidence_buffer,,null,,,,,,,,
6288.0999999996275,,probe_rating,474574,probe_rating,,53,,,,5,1,,,
null,,confidence_buffer,474676,confidence_buffer,,null,,,,,,,,
3488.5999999996275,,unique_rating,478166,Gatlinburg,,51,,,3,,,,,
null,,confidence_buffer,478268,confidence_buffer,,null,,,,,,,,
3192.800000000745,,memorable_rating,481462,Gatlinburg,,50,,,2,,,,,
null,,confidence_buffer,481563,confidence_buffer,,null,,,,,,,,
null,,thebreak,482065,break,,null,,,,,,,,
3907.2999999988824,,familiar_rating,485974,Hawthorne Bluffs,,52,Hawthorne Bluffs,Fictional,4,,,,,
null,,confidence_buffer,486076,confidence_buffer,,null,,,,,,,,
2512.89999999851,,unique_rating,488590,Hawthorne Bluffs,,50,,,2,,,,,
null,,confidence_buffer,488691,confidence_buffer,,null,,,,,,,,
1529.300000000745,,memorable_rating,490222,Hawthorne Bluffs,,51,,,3,,,,,
null,,confidence_buffer,490323,confidence_buffer,,null,,,,,,,,
null,,thebreak,490825,break,,null,,,,,,,,
7595.199999999255,,familiar_rating,498422,Hot Springs,,53,Hot Springs,US,5,,,,,
null,,confidence_buffer,498523,confidence_buffer,,null,,,,,,,,
3520.9000000003725,,unique_rating,502046,Hot Springs,,52,,,4,,,,,
null,,confidence_buffer,502148,confidence_buffer,,null,,,,,,,,
3272.5999999996275,,memorable_rating,505422,Hot Springs,,52,,,4,,,,,
null,,confidence_buffer,505523,confidence_buffer,,null,,,,,,,,
null,,thebreak,506024,break,,null,,,,,,,,
4003.7999999988824,,familiar_rating,510030,Bowling Green,,52,Bowling Green,US,4,,,,,
null,,confidence_buffer,510132,confidence_buffer,,null,,,,,,,,
2384.4000000003725,,unique_rating,512517,Bowling Green,,51,,,3,,,,,
null,,confidence_buffer,512619,confidence_buffer,,null,,,,,,,,
1633,,memorable_rating,514253,Bowling Green,,50,,,2,,,,,
null,,confidence_buffer,514355,confidence_buffer,,null,,,,,,,,
null,,thebreak,514857,break,,null,,,,,,,,
6138.9000000003725,,familiar_rating,520998,Leesburg,,52,Leesburg,US,4,,,,,
null,,confidence_buffer,521100,confidence_buffer,,null,,,,,,,,
1840.2999999988824,,unique_rating,522941,Leesburg,,51,,,3,,,,,
null,,confidence_buffer,523044,confidence_buffer,,null,,,,,,,,
2408.5999999996275,,memorable_rating,525453,Leesburg,,50,,,2,,,,,
null,,confidence_buffer,525555,confidence_buffer,,null,,,,,,,,
null,,thebreak,526057,break,,null,,,,,,,,
5355,,familiar_rating,531413,Montelake,,50,Montelake,Fictional,2,,,,,
null,,confidence_buffer,531516,confidence_buffer,,null,,,,,,,,
2848.5999999996275,,unique_rating,534365,Montelake,,50,,,2,,,,,
null,,confidence_buffer,534467,confidence_buffer,,null,,,,,,,,
2856.5999999996275,,memorable_rating,537325,Montelake,,50,,,2,,,,,
null,,confidence_buffer,537427,confidence_buffer,,null,,,,,,,,
null,,thebreak,537928,break,,null,,,,,,,,
2340.0999999996275,,familiar_rating,540269,Golden Trace,,52,Golden Trace,Fictional,4,,,,,
null,,confidence_buffer,540371,confidence_buffer,,null,,,,,,,,
1984.699999999255,,unique_rating,542357,Golden Trace,,51,,,3,,,,,
null,,confidence_buffer,542459,confidence_buffer,,null,,,,,,,,
1592.800000000745,,memorable_rating,544053,Golden Trace,,50,,,2,,,,,
null,,confidence_buffer,544155,confidence_buffer,,null,,,,,,,,
1904.5999999996275,,probe_rating,546061,probe_rating,,52,,,,4,1,,,
null,,confidence_buffer,546163,confidence_buffer,,null,,,,,,,,
null,,thebreak,546665,break,,null,,,,,,,,
5018.89999999851,,familiar_rating,551685,Silverpine,,52,Silverpine,Fictional,4,,,,,
null,,confidence_buffer,551787,confidence_buffer,,null,,,,,,,,
4249.4000000003725,,unique_rating,556037,Silverpine,,51,,,3,,,,,
null,,confidence_buffer,556139,confidence_buffer,,null,,,,,,,,
3209,,memorable_rating,559349,Silverpine,,51,,,3,,,,,
null,,confidence_buffer,559452,confidence_buffer,,null,,,,,,,,
null,,thebreak,559953,break,,null,,,,,,,,
3986.5,,familiar_rating,563941,Tamarisk Hills,,52,Tamarisk Hills,Fictional,4,,,,,
null,,confidence_buffer,564043,confidence_buffer,,null,,,,,,,,
3768.4000000003725,,probe_rating,567813,probe_rating,,50,,,,2,1,,,
null,,confidence_buffer,567915,confidence_buffer,,null,,,,,,,,
4776.700000001118,,unique_rating,572693,Tamarisk Hills,,51,,,3,,,,,
null,,confidence_buffer,572794,confidence_buffer,,null,,,,,,,,
3457.4000000003725,,memorable_rating,576253,Tamarisk Hills,,50,,,2,,,,,
null,,confidence_buffer,576355,confidence_buffer,,null,,,,,,,,
null,,thebreak,576856,break,,null,,,,,,,,
11842.900000000373,,intro_0,588700,instruct,,32,,,,,,,,
17966.5,,intro_1,606668,instruct,,32,,,,,,,,
53413.89999999851,,intro_2,660083,instruct,,32,,,,,,,,
null,,instruct_dir_4,661585,instruct,,null,,,,,,,,
16848.900000000373,,realistic_rating,678436,Watkins Glen,,49,Watkins Glen,US,1,,,,,
null,,confidence_buffer,678538,confidence_buffer,,null,,,,,,,,
3839.5,,probe_rating,682379,probe_rating,,52,,,,4,1,,,
null,,confidence_buffer,682482,confidence_buffer,,null,,,,,,,,
10024.400000000373,,pt2_unique_rating,692507,Watkins Glen,,49,,,1,,,,,
null,,confidence_buffer,692609,confidence_buffer,,null,,,,,,,,
4464.5999999996275,,pt2_memorable_rating,697075,Watkins Glen,,49,,,1,,,,,
null,,confidence_buffer,697177,confidence_buffer,,null,,,,,,,,
11776.700000001118,,recognition_phase,708955,Watkins Glen,,51,,,,,,new,1,1
null,,confidence_buffer,709057,confidence_buffer,,null,,,,,,,,
null,,thebreak,709559,break,,null,,,,,,,,
11522.39999999851,,realistic_rating,721083,Ashford Hills,,50,Ashford Hills,Fictional,2,,,,,
null,,confidence_buffer,721186,confidence_buffer,,null,,,,,,,,
5863.0999999996275,,pt2_unique_rating,727051,Ashford Hills,,50,,,2,,,,,
null,,confidence_buffer,727152,confidence_buffer,,null,,,,,,,,
3113,,pt2_memorable_rating,730267,Ashford Hills,,51,,,3,,,,,
null,,confidence_buffer,730369,confidence_buffer,,null,,,,,,,,
5432.5999999996275,,recognition_phase,735803,Ashford Hills,,49,,,,,,old,1,1
null,,confidence_buffer,735905,confidence_buffer,,null,,,,,,,,
null,,thebreak,736406,break,,null,,,,,,,,
6442.9000000003725,,realistic_rating,742851,Delaro Park,,50,Delaro Park,Fictional,2,,,,,
null,,confidence_buffer,742953,confidence_buffer,,null,,,,,,,,
2552.0999999996275,,pt2_unique_rating,745506,Delaro Park,,50,,,2,,,,,
null,,confidence_buffer,745608,confidence_buffer,,null,,,,,,,,
3969.4000000003725,,pt2_memorable_rating,749579,Delaro Park,,49,,,1,,,,,
null,,confidence_buffer,749681,confidence_buffer,,null,,,,,,,,
5063.799999998882,,recognition_phase,754746,Delaro Park,,52,,,,,,new,1,1
null,,confidence_buffer,754848,confidence_buffer,,null,,,,,,,,
null,,thebreak,755351,break,,null,,,,,,,,
3553.9000000003725,,realistic_rating,758906,Medora,,50,Medora,US,2,,,,,
null,,confidence_buffer,759008,confidence_buffer,,null,,,,,,,,
2161.199999999255,,pt2_unique_rating,761170,Medora,,50,,,2,,,,,
null,,confidence_buffer,761272,confidence_buffer,,null,,,,,,,,
2288.300000000745,,pt2_memorable_rating,763562,Medora,,50,,,2,,,,,
null,,confidence_buffer,763665,confidence_buffer,,null,,,,,,,,
4152.199999999255,,recognition_phase,767818,Medora,,52,,,,,,new,1,1
null,,confidence_buffer,767920,confidence_buffer,,null,,,,,,,,
null,,thebreak,768422,break,,null,,,,,,,,
5194.4000000003725,,realistic_rating,773618,Bayshore Haven,,49,Bayshore Haven,Fictional,1,,,,,
null,,confidence_buffer,773721,confidence_buffer,,null,,,,,,,,
4223.700000001118,,pt2_unique_rating,777946,Bayshore Haven,,49,,,1,,,,,
null,,confidence_buffer,778048,confidence_buffer,,null,,,,,,,,
2344.699999999255,,pt2_memorable_rating,780394,Bayshore Haven,,49,,,1,,,,,
null,,confidence_buffer,780495,confidence_buffer,,null,,,,,,,,
6041.300000000745,,recognition_phase,786538,Bayshore Haven,,52,,,,,,new,1,1
null,,confidence_buffer,786640,confidence_buffer,,null,,,,,,,,
null,,thebreak,787142,break,,null,,,,,,,,
2690.5,,realistic_rating,789834,Montelake,,50,Montelake,Fictional,2,,,,,
null,,confidence_buffer,789937,confidence_buffer,,null,,,,,,,,
2440.0999999996275,,pt2_unique_rating,792378,Montelake,,49,,,1,,,,,
null,,confidence_buffer,792479,confidence_buffer,,null,,,,,,,,
2497.0999999996275,,pt2_memorable_rating,794978,Montelake,,49,,,1,,,,,
null,,confidence_buffer,795080,confidence_buffer,,null,,,,,,,,
7912.9000000003725,,recognition_phase,802994,Montelake,,52,,,,,,new,0,0.8333333333333334
null,,confidence_buffer,803096,confidence_buffer,,null,,,,,,,,
null,,thebreak,803597,break,,null,,,,,,,,
4306.9000000003725,,realistic_rating,807905,Shreveport,,51,Shreveport,US,3,,,,,
null,,confidence_buffer,808008,confidence_buffer,,null,,,,,,,,
2328.7000000011176,,probe_rating,810338,probe_rating,,50,,,,2,1,,,
null,,confidence_buffer,810439,confidence_buffer,,null,,,,,,,,
3001,,pt2_unique_rating,813442,Shreveport,,50,,,2,,,,,
null,,confidence_buffer,813544,confidence_buffer,,null,,,,,,,,
2712.5,,pt2_memorable_rating,816257,Shreveport,,51,,,3,,,,,
null,,confidence_buffer,816360,confidence_buffer,,null,,,,,,,,
2919.89999999851,,recognition_phase,819281,Shreveport,,52,,,,,,new,1,0.8571428571428571
null,,confidence_buffer,819382,confidence_buffer,,null,,,,,,,,
null,,thebreak,819884,break,,null,,,,,,,,
3596.300000000745,,realistic_rating,823482,Duck,,50,Duck,US,2,,,,,
null,,confidence_buffer,823583,confidence_buffer,,null,,,,,,,,
1496.9000000003725,,pt2_unique_rating,825081,Duck,,50,,,2,,,,,
null,,confidence_buffer,825183,confidence_buffer,,null,,,,,,,,
1441,,pt2_memorable_rating,826625,Duck,,50,,,2,,,,,
null,,confidence_buffer,826727,confidence_buffer,,null,,,,,,,,
2281,,probe_rating,829009,probe_rating,,51,,,,3,1,,,
null,,confidence_buffer,829112,confidence_buffer,,null,,,,,,,,
3640.39999999851,,recognition_phase,832753,Duck,,51,,,,,,new,0,0.75
null,,confidence_buffer,832855,confidence_buffer,,null,,,,,,,,
null,,thebreak,833357,break,,null,,,,,,,,
4563.0999999996275,,realistic_rating,837921,Gatlinburg,,51,Gatlinburg,US,3,,,,,
null,,confidence_buffer,838024,confidence_buffer,,null,,,,,,,,
3920.2000000011176,,pt2_unique_rating,841945,Gatlinburg,,51,,,3,,,,,
null,,confidence_buffer,842047,confidence_buffer,,null,,,,,,,,
2521.2000000011176,,pt2_memorable_rating,844569,Gatlinburg,,51,,,3,,,,,
null,,confidence_buffer,844671,confidence_buffer,,null,,,,,,,,
4600.5,,recognition_phase,849273,Gatlinburg,,49,,,,,,old,1,0.7777777777777778
null,,confidence_buffer,849375,confidence_buffer,,null,,,,,,,,
null,,thebreak,849877,break,,null,,,,,,,,
4090.699999999255,,realistic_rating,853969,Briarfield,,50,Briarfield,Fictional,2,,,,,
null,,confidence_buffer,854071,confidence_buffer,,null,,,,,,,,
1360.8999999985099,,pt2_unique_rating,855433,Briarfield,,50,,,2,,,,,
null,,confidence_buffer,855535,confidence_buffer,,null,,,,,,,,
1328.5,,pt2_memorable_rating,856865,Briarfield,,50,,,2,,,,,
null,,confidence_buffer,856968,confidence_buffer,,null,,,,,,,,
4151.800000000745,,recognition_phase,861121,Briarfield,,51,,,,,,new,0,0.7
null,,confidence_buffer,861223,confidence_buffer,,null,,,,,,,,
null,,thebreak,861725,break,,null,,,,,,,,
3178.7999999988824,,realistic_rating,864905,Racine,,50,Racine,US,2,,,,,
null,,confidence_buffer,865006,confidence_buffer,,null,,,,,,,,
1249,,pt2_unique_rating,866257,Racine,,49,,,1,,,,,
null,,confidence_buffer,866358,confidence_buffer,,null,,,,,,,,
2449.4000000003725,,pt2_memorable_rating,868809,Racine,,50,,,2,,,,,
null,,confidence_buffer,868911,confidence_buffer,,null,,,,,,,,
2921.10000000149,,recognition_phase,871833,Racine,,52,,,,,,new,0,0.6363636363636364
null,,confidence_buffer,871935,confidence_buffer,,null,,,,,,,,
null,,thebreak,872438,break,,null,,,,,,,,
2273.5,,realistic_rating,874713,Peoria,,49,Peoria,US,1,,,,,
null,,confidence_buffer,874815,confidence_buffer,,null,,,,,,,,
1672.5999999996275,,pt2_unique_rating,876489,Peoria,,49,,,1,,,,,
null,,confidence_buffer,876591,confidence_buffer,,null,,,,,,,,
2328.800000000745,,pt2_memorable_rating,878921,Peoria,,50,,,2,,,,,
null,,confidence_buffer,879022,confidence_buffer,,null,,,,,,,,
2568.9000000003725,,recognition_phase,881593,Peoria,,52,,,,,,new,0,0.5833333333333334
null,,confidence_buffer,881695,confidence_buffer,,null,,,,,,,,
null,,thebreak,882197,break,,null,,,,,,,,
4282,,realistic_rating,886481,Bowling Green,,50,Bowling Green,US,2,,,,,
null,,confidence_buffer,886583,confidence_buffer,,null,,,,,,,,
888.1000000014901,,pt2_unique_rating,887472,Bowling Green,,49,,,1,,,,,
null,,confidence_buffer,887574,confidence_buffer,,null,,,,,,,,
1336.699999999255,,pt2_memorable_rating,888912,Bowling Green,,50,,,2,,,,,
null,,confidence_buffer,889014,confidence_buffer,,null,,,,,,,,
3072.699999999255,,recognition_phase,892088,Bowling Green,,50,,,,,,old,1,0.6153846153846154
null,,confidence_buffer,892191,confidence_buffer,,null,,,,,,,,
null,,thebreak,892692,break,,null,,,,,,,,
3002.5999999996275,,realistic_rating,895696,Maravilla Springs,,50,Maravilla Springs,Fictional,2,,,,,
null,,confidence_buffer,895798,confidence_buffer,,null,,,,,,,,
1353.0999999996275,,pt2_unique_rating,897152,Maravilla Springs,,50,,,2,,,,,
null,,confidence_buffer,897254,confidence_buffer,,null,,,,,,,,
2640.7999999988824,,pt2_memorable_rating,899896,Maravilla Springs,,50,,,2,,,,,
null,,confidence_buffer,899998,confidence_buffer,,null,,,,,,,,
2040.699999999255,,recognition_phase,902040,Maravilla Springs,,50,,,,,,old,0,0.5714285714285714
null,,confidence_buffer,902143,confidence_buffer,,null,,,,,,,,
null,,thebreak,902644,break,,null,,,,,,,,
2586.4000000003725,,realistic_rating,905232,Delaware City,,49,Delaware City,US,1,,,,,
null,,confidence_buffer,905334,confidence_buffer,,null,,,,,,,,
1840.7000000011176,,pt2_unique_rating,907176,Delaware City,,50,,,2,,,,,
null,,confidence_buffer,907277,confidence_buffer,,null,,,,,,,,
1217.699999999255,,pt2_memorable_rating,908496,Delaware City,,50,,,2,,,,,
null,,confidence_buffer,908598,confidence_buffer,,null,,,,,,,,
2752.699999999255,,recognition_phase,911352,Delaware City,,51,,,,,,new,1,0.6
null,,confidence_buffer,911453,confidence_buffer,,null,,,,,,,,
null,,thebreak,911955,break,,null,,,,,,,,
2819.7000000011176,,realistic_rating,914776,Sunmere,,50,Sunmere,Fictional,2,,,,,
null,,confidence_buffer,914879,confidence_buffer,,null,,,,,,,,
1720.0999999996275,,pt2_unique_rating,916600,Sunmere,,50,,,2,,,,,
null,,confidence_buffer,916702,confidence_buffer,,null,,,,,,,,
2560.699999999255,,pt2_memorable_rating,919264,Sunmere,,50,,,2,,,,,
null,,confidence_buffer,919366,confidence_buffer,,null,,,,,,,,
2928.10000000149,,recognition_phase,922296,Sunmere,,51,,,,,,new,0,0.5625
null,,confidence_buffer,922398,confidence_buffer,,null,,,,,,,,
null,,thebreak,922899,break,,null,,,,,,,,
2315.7000000011176,,realistic_rating,925216,Abilene,,49,Abilene,US,1,,,,,
null,,confidence_buffer,925318,confidence_buffer,,null,,,,,,,,
1072.5,,pt2_unique_rating,926392,Abilene,,49,,,1,,,,,
null,,confidence_buffer,926494,confidence_buffer,,null,,,,,,,,
1120.6000000014901,,pt2_memorable_rating,927616,Abilene,,49,,,1,,,,,
null,,confidence_buffer,927718,confidence_buffer,,null,,,,,,,,
3184.5999999996275,,recognition_phase,930904,Abilene,,52,,,,,,new,0,0.5294117647058824
null,,confidence_buffer,931006,confidence_buffer,,null,,,,,,,,
null,,thebreak,931508,break,,null,,,,,,,,
1986.699999999255,,realistic_rating,933496,Juniper Creek,,50,Juniper Creek,Fictional,2,,,,,
null,,confidence_buffer,933598,confidence_buffer,,null,,,,,,,,
960.5,,pt2_unique_rating,934560,Juniper Creek,,50,,,2,,,,,
null,,confidence_buffer,934662,confidence_buffer,,null,,,,,,,,
648.6999999992549,,pt2_memorable_rating,935312,Juniper Creek,,49,,,1,,,,,
null,,confidence_buffer,935413,confidence_buffer,,null,,,,,,,,
5393.199999999255,,recognition_phase,940808,Juniper Creek,,51,,,,,,new,1,0.5555555555555556
null,,confidence_buffer,940909,confidence_buffer,,null,,,,,,,,
null,,thebreak,941411,break,,null,,,,,,,,
2275.800000000745,,realistic_rating,943688,Highvale,,50,Highvale,Fictional,2,,,,,
null,,confidence_buffer,943791,confidence_buffer,,null,,,,,,,,
2615.4000000003725,,pt2_unique_rating,946408,Highvale,,49,,,1,,,,,
null,,confidence_buffer,946509,confidence_buffer,,null,,,,,,,,
1448.800000000745,,pt2_memorable_rating,947960,Highvale,,49,,,1,,,,,
null,,confidence_buffer,948062,confidence_buffer,,null,,,,,,,,
4952.800000000745,,recognition_phase,953016,Highvale,,51,,,,,,new,1,0.5789473684210527
null,,confidence_buffer,953118,confidence_buffer,,null,,,,,,,,
null,,thebreak,953620,break,,null,,,,,,,,
1730.5,,realistic_rating,955352,Hollendale,,50,Hollendale,Fictional,2,,,,,
null,,confidence_buffer,955454,confidence_buffer,,null,,,,,,,,
1208.4000000003725,,pt2_unique_rating,956663,Hollendale,,50,,,2,,,,,
null,,confidence_buffer,956767,confidence_buffer,,null,,,,,,,,
1703.6000000014901,,pt2_memorable_rating,958471,Hollendale,,49,,,1,,,,,
null,,confidence_buffer,958574,confidence_buffer,,null,,,,,,,,
1944.1000000014901,,recognition_phase,960520,Hollendale,,51,,,,,,new,1,0.6
null,,confidence_buffer,960622,confidence_buffer,,null,,,,,,,,
null,,thebreak,961123,break,,null,,,,,,,,
3475.10000000149,,realistic_rating,964600,Solara Glen,,49,Solara Glen,Fictional,1,,,,,
null,,confidence_buffer,964702,confidence_buffer,,null,,,,,,,,
1352.7000000011176,,pt2_unique_rating,966056,Solara Glen,,50,,,2,,,,,
null,,confidence_buffer,966157,confidence_buffer,,null,,,,,,,,
1361,,pt2_memorable_rating,967519,Solara Glen,,50,,,2,,,,,
null,,confidence_buffer,967622,confidence_buffer,,null,,,,,,,,
3344.4000000003725,,recognition_phase,970967,Solara Glen,,51,,,,,,new,1,0.6190476190476191
null,,confidence_buffer,971070,confidence_buffer,,null,,,,,,,,
null,,thebreak,971572,break,,null,,,,,,,,
4666.200000001118,,realistic_rating,976240,Lake of the Ozarks,,50,Lake of the Ozarks,US,2,,,,,
null,,confidence_buffer,976347,confidence_buffer,,null,,,,,,,,
4090.9000000003725,,pt2_unique_rating,980439,Lake of the Ozarks,,50,,,2,,,,,
null,,confidence_buffer,980541,confidence_buffer,,null,,,,,,,,
736.5999999996275,,pt2_memorable_rating,981279,Lake of the Ozarks,,50,,,2,,,,,
null,,confidence_buffer,981381,confidence_buffer,,null,,,,,,,,
1872.5999999996275,,recognition_phase,983255,Lake of the Ozarks,,52,,,,,,new,1,0.6363636363636364
null,,confidence_buffer,983357,confidence_buffer,,null,,,,,,,,
null,,thebreak,983858,break,,null,,,,,,,,
2659.5999999996275,,realistic_rating,986519,Riverlyn,,49,Riverlyn,Fictional,1,,,,,
null,,confidence_buffer,986623,confidence_buffer,,null,,,,,,,,
1423.0999999996275,,pt2_unique_rating,988047,Riverlyn,,50,,,2,,,,,
null,,confidence_buffer,988149,confidence_buffer,,null,,,,,,,,
800.7000000011176,,pt2_memorable_rating,988951,Riverlyn,,49,,,1,,,,,
null,,confidence_buffer,989053,confidence_buffer,,null,,,,,,,,
2952.800000000745,,recognition_phase,992007,Riverlyn,,51,,,,,,new,0,0.6086956521739131
null,,confidence_buffer,992109,confidence_buffer,,null,,,,,,,,
null,,thebreak,992611,break,,null,,,,,,,,
2594.10000000149,,realistic_rating,995207,Willowford,,50,Willowford,Fictional,2,,,,,
null,,confidence_buffer,995309,confidence_buffer,,null,,,,,,,,
1680.699999999255,,pt2_unique_rating,996991,Willowford,,50,,,2,,,,,
null,,confidence_buffer,997093,confidence_buffer,,null,,,,,,,,
1952.699999999255,,pt2_memorable_rating,999047,Willowford,,50,,,2,,,,,
null,,confidence_buffer,999148,confidence_buffer,,null,,,,,,,,
5177,,recognition_phase,1004327,Willowford,,51,,,,,,new,0,0.5833333333333334
null,,confidence_buffer,1004428,confidence_buffer,,null,,,,,,,,
null,,thebreak,1004931,break,,null,,,,,,,,
11923.099999999627,,realistic_rating,1016855,East Ladera,,49,East Ladera,Fictional,1,,,,,
null,,confidence_buffer,1016957,confidence_buffer,,null,,,,,,,,
1839.9000000003725,,pt2_unique_rating,1018798,East Ladera,,49,,,1,,,,,
null,,confidence_buffer,1018899,confidence_buffer,,null,,,,,,,,
1218.199999999255,,pt2_memorable_rating,1020119,East Ladera,,49,,,1,,,,,
null,,confidence_buffer,1020221,confidence_buffer,,null,,,,,,,,
3360.300000000745,,recognition_phase,1023583,East Ladera,,52,,,,,,new,1,0.6
null,,confidence_buffer,1023685,confidence_buffer,,null,,,,,,,,
null,,thebreak,1024186,break,,null,,,,,,,,
2322.800000000745,,realistic_rating,1026511,Leesburg,,50,Leesburg,US,2,,,,,
null,,confidence_buffer,1026613,confidence_buffer,,null,,,,,,,,
1672,,pt2_unique_rating,1028286,Leesburg,,49,,,1,,,,,
null,,confidence_buffer,1028388,confidence_buffer,,null,,,,,,,,
2297.5999999996275,,pt2_memorable_rating,1030687,Leesburg,,49,,,1,,,,,
null,,confidence_buffer,1030789,confidence_buffer,,null,,,,,,,,
2288.10000000149,,recognition_phase,1033078,Leesburg,,51,,,,,,new,0,0.5769230769230769
null,,confidence_buffer,1033182,confidence_buffer,,null,,,,,,,,
null,,thebreak,1033683,break,,null,,,,,,,,
3682.10000000149,,realistic_rating,1037367,San Antonio,,51,San Antonio,US,3,,,,,
null,,confidence_buffer,1037469,confidence_buffer,,null,,,,,,,,
1616.5,,pt2_unique_rating,1039087,San Antonio,,51,,,3,,,,,
null,,confidence_buffer,1039189,confidence_buffer,,null,,,,,,,,
2016.300000000745,,pt2_memorable_rating,1041206,San Antonio,,51,,,3,,,,,
null,,confidence_buffer,1041308,confidence_buffer,,null,,,,,,,,
2584.89999999851,,recognition_phase,1043894,San Antonio,,49,,,,,,old,1,0.5925925925925926
null,,confidence_buffer,1043996,confidence_buffer,,null,,,,,,,,
null,,thebreak,1044497,break,,null,,,,,,,,
2227.4000000003725,,realistic_rating,1046726,Hanover,,50,Hanover,US,2,,,,,
null,,confidence_buffer,1046829,confidence_buffer,,null,,,,,,,,
4112.5999999996275,,pt2_unique_rating,1050943,Hanover,,51,,,3,,,,,
null,,confidence_buffer,1051045,confidence_buffer,,null,,,,,,,,
2400.4000000003725,,probe_rating,1053446,probe_rating,,49,,,,1,1,,,
null,,confidence_buffer,1053549,confidence_buffer,,null,,,,,,,,
3663.5,,pt2_memorable_rating,1057214,Hanover,,50,,,2,,,,,
null,,confidence_buffer,1057316,confidence_buffer,,null,,,,,,,,
3328.9000000003725,,recognition_phase,1060646,Hanover,,52,,,,,,new,1,0.6071428571428571
null,,confidence_buffer,1060749,confidence_buffer,,null,,,,,,,,
null,,thebreak,1061250,break,,null,,,,,,,,
2795.199999999255,,realistic_rating,1064047,Silverpine,,49,Silverpine,Fictional,1,,,,,
null,,confidence_buffer,1064149,confidence_buffer,,null,,,,,,,,
1368,,pt2_unique_rating,1065518,Silverpine,,49,,,1,,,,,
null,,confidence_buffer,1065621,confidence_buffer,,null,,,,,,,,
4847.800000000745,,pt2_memorable_rating,1070470,Silverpine,,49,,,1,,,,,
null,,confidence_buffer,1070572,confidence_buffer,,null,,,,,,,,
1696.7999999988824,,probe_rating,1072270,probe_rating,,50,,,,2,1,,,
null,,confidence_buffer,1072372,confidence_buffer,,null,,,,,,,,
3416.300000000745,,recognition_phase,1075790,Silverpine,,51,,,,,,new,0,0.5862068965517241
null,,confidence_buffer,1075892,confidence_buffer,,null,,,,,,,,
null,,thebreak,1076393,break,,null,,,,,,,,
2539.5,,realistic_rating,1078934,Huntsville,,50,Huntsville,US,2,,,,,
null,,confidence_buffer,1079036,confidence_buffer,,null,,,,,,,,
1656.699999999255,,pt2_unique_rating,1080694,Huntsville,,50,,,2,,,,,
null,,confidence_buffer,1080796,confidence_buffer,,null,,,,,,,,
1456.9000000003725,,pt2_memorable_rating,1082254,Huntsville,,49,,,1,,,,,
null,,confidence_buffer,1082356,confidence_buffer,,null,,,,,,,,
3271.9000000003725,,recognition_phase,1085630,Huntsville,,51,,,,,,new,1,0.6
null,,confidence_buffer,1085732,confidence_buffer,,null,,,,,,,,
null,,thebreak,1086234,break,,null,,,,,,,,
2242.5,,realistic_rating,1088478,Newport,,50,Newport,US,2,,,,,
null,,confidence_buffer,1088581,confidence_buffer,,null,,,,,,,,
2983.699999999255,,pt2_unique_rating,1091566,Newport,,50,,,2,,,,,
null,,confidence_buffer,1091668,confidence_buffer,,null,,,,,,,,
2896.4000000003725,,pt2_memorable_rating,1094565,Newport,,49,,,1,,,,,
null,,confidence_buffer,1094668,confidence_buffer,,null,,,,,,,,
7352.5999999996275,,recognition_phase,1102022,Newport,,51,,,,,,new,1,0.6129032258064516
null,,confidence_buffer,1102123,confidence_buffer,,null,,,,,,,,
null,,thebreak,1102625,break,,null,,,,,,,,
3242.800000000745,,realistic_rating,1105870,Coeur d'Alene,,50,Coeur d'Alene,US,2,,,,,
null,,confidence_buffer,1105972,confidence_buffer,,null,,,,,,,,
2304.199999999255,,pt2_unique_rating,1108277,Coeur d'Alene,,50,,,2,,,,,
null,,confidence_buffer,1108379,confidence_buffer,,null,,,,,,,,
1377.1000000014901,,pt2_memorable_rating,1109758,Coeur d'Alene,,49,,,1,,,,,
null,,confidence_buffer,1109859,confidence_buffer,,null,,,,,,,,
2753.5,,recognition_phase,1112614,Coeur d'Alene,,52,,,,,,new,1,0.625
null,,confidence_buffer,1112715,confidence_buffer,,null,,,,,,,,
null,,thebreak,1113217,break,,null,,,,,,,,
3642.5,,realistic_rating,1116861,Hot Springs,,50,Hot Springs,US,2,,,,,
null,,confidence_buffer,1116963,confidence_buffer,,null,,,,,,,,
2672.699999999255,,pt2_unique_rating,1119637,Hot Springs,,51,,,3,,,,,
null,,confidence_buffer,1119739,confidence_buffer,,null,,,,,,,,
2360.7999999988824,,pt2_memorable_rating,1122101,Hot Springs,,51,,,3,,,,,
null,,confidence_buffer,1122203,confidence_buffer,,null,,,,,,,,
2465.0999999996275,,recognition_phase,1124670,Hot Springs,,50,,,,,,old,1,0.6363636363636364
null,,confidence_buffer,1124772,confidence_buffer,,null,,,,,,,,
null,,thebreak,1125274,break,,null,,,,,,,,
4401.9000000003725,,realistic_rating,1129677,Ironwood Heights,,49,Ironwood Heights,Fictional,1,,,,,
null,,confidence_buffer,1129780,confidence_buffer,,null,,,,,,,,
2896.2999999988824,,pt2_unique_rating,1132677,Ironwood Heights,,49,,,1,,,,,
null,,confidence_buffer,1132779,confidence_buffer,,null,,,,,,,,
1240.0999999996275,,pt2_memorable_rating,1134021,Ironwood Heights,,50,,,2,,,,,
null,,confidence_buffer,1134123,confidence_buffer,,null,,,,,,,,
3537.5,,recognition_phase,1137661,Ironwood Heights,,51,,,,,,new,1,0.6470588235294118
null,,confidence_buffer,1137763,confidence_buffer,,null,,,,,,,,
null,,thebreak,1138264,break,,null,,,,,,,,
2323.699999999255,,realistic_rating,1140589,Healdsburg,,50,Healdsburg,US,2,,,,,
null,,confidence_buffer,1140691,confidence_buffer,,null,,,,,,,,
1216.9000000003725,,pt2_unique_rating,1141909,Healdsburg,,49,,,1,,,,,
null,,confidence_buffer,1142011,confidence_buffer,,null,,,,,,,,
2168.0999999996275,,pt2_memorable_rating,1144181,Healdsburg,,50,,,2,,,,,
null,,confidence_buffer,1144282,confidence_buffer,,null,,,,,,,,
2433.199999999255,,recognition_phase,1146717,Healdsburg,,51,,,,,,new,0,0.6285714285714286
null,,confidence_buffer,1146819,confidence_buffer,,null,,,,,,,,
null,,thebreak,1147320,break,,null,,,,,,,,
3923.9000000003725,,realistic_rating,1151245,Tamarisk Hills,,51,Tamarisk Hills,Fictional,3,,,,,
null,,confidence_buffer,1151356,confidence_buffer,,null,,,,,,,,
2063.89999999851,,pt2_unique_rating,1153421,Tamarisk Hills,,50,,,2,,,,,
null,,confidence_buffer,1153522,confidence_buffer,,null,,,,,,,,
2753.0999999996275,,pt2_memorable_rating,1156277,Tamarisk Hills,,50,,,2,,,,,
null,,confidence_buffer,1156379,confidence_buffer,,null,,,,,,,,
1544.8999999985099,,recognition_phase,1157925,Tamarisk Hills,,51,,,,,,new,0,0.6111111111111112
null,,confidence_buffer,1158027,confidence_buffer,,null,,,,,,,,
null,,thebreak,1158528,break,,null,,,,,,,,
2418.9000000003725,,realistic_rating,1160949,Baymarsh,,49,Baymarsh,Fictional,1,,,,,
null,,confidence_buffer,1161051,confidence_buffer,,null,,,,,,,,
1672.9000000003725,,pt2_unique_rating,1162725,Baymarsh,,50,,,2,,,,,
null,,confidence_buffer,1162827,confidence_buffer,,null,,,,,,,,
2016.5999999996275,,pt2_memorable_rating,1164845,Baymarsh,,50,,,2,,,,,
null,,confidence_buffer,1164947,confidence_buffer,,null,,,,,,,,
1720.5999999996275,,recognition_phase,1166669,Baymarsh,,51,,,,,,new,1,0.6216216216216216
null,,confidence_buffer,1166771,confidence_buffer,,null,,,,,,,,
null,,thebreak,1167273,break,,null,,,,,,,,
2026.0999999996275,,realistic_rating,1169301,Crestwood,,50,Crestwood,Fictional,2,,,,,
null,,confidence_buffer,1169403,confidence_buffer,,null,,,,,,,,
2304.9000000003725,,pt2_unique_rating,1171709,Crestwood,,51,,,3,,,,,
null,,confidence_buffer,1171811,confidence_buffer,,null,,,,,,,,
1408,,pt2_memorable_rating,1173221,Crestwood,,50,,,2,,,,,
null,,confidence_buffer,1173323,confidence_buffer,,null,,,,,,,,
2720.2000000011176,,recognition_phase,1176045,Crestwood,,51,,,,,,new,0,0.6052631578947368
null,,confidence_buffer,1176146,confidence_buffer,,null,,,,,,,,
null,,thebreak,1176648,break,,null,,,,,,,,
2403,,realistic_rating,1179053,Elmsbury,,49,Elmsbury,Fictional,1,,,,,
null,,confidence_buffer,1179154,confidence_buffer,,null,,,,,,,,
3088.7000000011176,,pt2_unique_rating,1182245,Elmsbury,,49,,,1,,,,,
null,,confidence_buffer,1182346,confidence_buffer,,null,,,,,,,,
2769.300000000745,,pt2_memorable_rating,1185117,Elmsbury,,49,,,1,,,,,
null,,confidence_buffer,1185218,confidence_buffer,,null,,,,,,,,
2496.9000000003725,,recognition_phase,1187716,Elmsbury,,51,,,,,,new,1,0.6153846153846154
null,,confidence_buffer,1187819,confidence_buffer,,null,,,,,,,,
null,,thebreak,1188320,break,,null,,,,,,,,
2458.89999999851,,realistic_rating,1190780,Bar Harbor,,50,Bar Harbor,US,2,,,,,
null,,confidence_buffer,1190883,confidence_buffer,,null,,,,,,,,
1320.5,,pt2_unique_rating,1192204,Bar Harbor,,49,,,1,,,,,
null,,confidence_buffer,1192306,confidence_buffer,,null,,,,,,,,
1345,,pt2_memorable_rating,1193652,Bar Harbor,,49,,,1,,,,,
null,,confidence_buffer,1193754,confidence_buffer,,null,,,,,,,,
2608.7000000011176,,recognition_phase,1196365,Bar Harbor,,52,,,,,,new,0,0.6
null,,confidence_buffer,1196466,confidence_buffer,,null,,,,,,,,
null,,thebreak,1196967,break,,null,,,,,,,,
3939.300000000745,,realistic_rating,1200908,Berkeley Springs,,50,Berkeley Springs,US,2,,,,,
null,,confidence_buffer,1201011,confidence_buffer,,null,,,,,,,,
1728.2999999988824,,pt2_unique_rating,1202740,Berkeley Springs,,50,,,2,,,,,
null,,confidence_buffer,1202842,confidence_buffer,,null,,,,,,,,
1641.0999999996275,,pt2_memorable_rating,1204484,Berkeley Springs,,50,,,2,,,,,
null,,confidence_buffer,1204586,confidence_buffer,,null,,,,,,,,
1833.199999999255,,recognition_phase,1206420,Berkeley Springs,,51,,,,,,new,1,0.6097560975609756
null,,confidence_buffer,1206522,confidence_buffer,,null,,,,,,,,
null,,thebreak,1207024,break,,null,,,,,,,,
8178.700000001118,,realistic_rating,1215204,Carmel,,51,Carmel,US,3,,,,,
null,,confidence_buffer,1215307,confidence_buffer,,null,,,,,,,,
1743.5999999996275,,pt2_unique_rating,1217052,Carmel,,50,,,2,,,,,
null,,confidence_buffer,1217155,confidence_buffer,,null,,,,,,,,
1655.7000000011176,,pt2_memorable_rating,1218812,Carmel,,49,,,1,,,,,
null,,confidence_buffer,1218914,confidence_buffer,,null,,,,,,,,
2688.300000000745,,recognition_phase,1221604,Carmel,,52,,,,,,new,0,0.5952380952380952
null,,confidence_buffer,1221706,confidence_buffer,,null,,,,,,,,
null,,thebreak,1222208,break,,null,,,,,,,,
2579,,realistic_rating,1224788,Golden Trace,,49,Golden Trace,Fictional,1,,,,,
null,,confidence_buffer,1224891,confidence_buffer,,null,,,,,,,,
1567.7999999988824,,pt2_unique_rating,1226460,Golden Trace,,50,,,2,,,,,
null,,confidence_buffer,1226562,confidence_buffer,,null,,,,,,,,
2152.800000000745,,probe_rating,1228716,probe_rating,,52,,,,4,1,,,
null,,confidence_buffer,1228819,confidence_buffer,,null,,,,,,,,
2800,,pt2_memorable_rating,1231620,Golden Trace,,49,,,1,,,,,
null,,confidence_buffer,1231722,confidence_buffer,,null,,,,,,,,
2064.5999999996275,,recognition_phase,1233788,Golden Trace,,51,,,,,,new,0,0.5813953488372093
null,,confidence_buffer,1233891,confidence_buffer,,null,,,,,,,,
null,,thebreak,1234392,break,,null,,,,,,,,
4298.699999999255,,realistic_rating,1238692,Pine Hollow,,49,Pine Hollow,Fictional,1,,,,,
null,,confidence_buffer,1238794,confidence_buffer,,null,,,,,,,,
2512.4000000003725,,pt2_unique_rating,1241308,Pine Hollow,,50,,,2,,,,,
null,,confidence_buffer,1241409,confidence_buffer,,null,,,,,,,,
2520.9000000003725,,pt2_memorable_rating,1243932,Pine Hollow,,49,,,1,,,,,
null,,confidence_buffer,1244034,confidence_buffer,,null,,,,,,,,
3272.4000000003725,,recognition_phase,1247308,Pine Hollow,,52,,,,,,new,0,0.5681818181818182
null,,confidence_buffer,1247409,confidence_buffer,,null,,,,,,,,
null,,thebreak,1247911,break,,null,,,,,,,,
2643.0999999996275,,realistic_rating,1250556,Barnard,,49,Barnard,US,1,,,,,
null,,confidence_buffer,1250658,confidence_buffer,,null,,,,,,,,
1464.5,,pt2_unique_rating,1252124,Barnard,,49,,,1,,,,,
null,,confidence_buffer,1252226,confidence_buffer,,null,,,,,,,,
2296.199999999255,,pt2_memorable_rating,1254524,Barnard,,49,,,1,,,,,
null,,confidence_buffer,1254626,confidence_buffer,,null,,,,,,,,
2400.599999997765,,recognition_phase,1257028,Barnard,,52,,,,,,new,1,0.5777777777777777
null,,confidence_buffer,1257130,confidence_buffer,,null,,,,,,,,
null,,thebreak,1257632,break,,null,,,,,,,,
2762.5,,realistic_rating,1260395,Alliance,,49,Alliance,US,1,,,,,
null,,confidence_buffer,1260498,confidence_buffer,,null,,,,,,,,
1176.199999999255,,pt2_unique_rating,1261676,Alliance,,49,,,1,,,,,
null,,confidence_buffer,1261777,confidence_buffer,,null,,,,,,,,
1632.8999999985099,,pt2_memorable_rating,1263412,Alliance,,49,,,1,,,,,
null,,confidence_buffer,1263514,confidence_buffer,,null,,,,,,,,
2768.300000000745,,recognition_phase,1266284,Alliance,,51,,,,,,new,1,0.5869565217391305
null,,confidence_buffer,1266385,confidence_buffer,,null,,,,,,,,
null,,thebreak,1266886,break,,null,,,,,,,,
3075.599999997765,,realistic_rating,1269963,Maplehurst,,50,Maplehurst,Fictional,2,,,,,
null,,confidence_buffer,1270065,confidence_buffer,,null,,,,,,,,
2224.7000000029802,,pt2_unique_rating,1272291,Maplehurst,,50,,,2,,,,,
null,,confidence_buffer,1272393,confidence_buffer,,null,,,,,,,,
3441,,pt2_memorable_rating,1275836,Maplehurst,,49,,,1,,,,,
null,,confidence_buffer,1275938,confidence_buffer,,null,,,,,,,,
2008,,recognition_phase,1277947,Maplehurst,,51,,,,,,new,1,0.5957446808510638
null,,confidence_buffer,1278049,confidence_buffer,,null,,,,,,,,
null,,thebreak,1278550,break,,null,,,,,,,,
3115.800000000745,,realistic_rating,1281667,Hawthorne Bluffs,,50,Hawthorne Bluffs,Fictional,2,,,,,
null,,confidence_buffer,1281770,confidence_buffer,,null,,,,,,,,
2352.300000000745,,pt2_unique_rating,1284123,Hawthorne Bluffs,,50,,,2,,,,,
null,,confidence_buffer,1284225,confidence_buffer,,null,,,,,,,,
2089.199999999255,,pt2_memorable_rating,1286315,Hawthorne Bluffs,,49,,,1,,,,,
null,,confidence_buffer,1286418,confidence_buffer,,null,,,,,,,,
1784.1000000014901,,recognition_phase,1288203,Hawthorne Bluffs,,51,,,,,,new,0,0.5833333333333334
null,,confidence_buffer,1288305,confidence_buffer,,null,,,,,,,,
null,,thebreak,1288807,break,,null,,,,,,,,
3323.199999999255,,realistic_rating,1292131,Millstone,,51,Millstone,Fictional,3,,,,,
null,,confidence_buffer,1292233,confidence_buffer,,null,,,,,,,,
1393,,pt2_unique_rating,1293627,Millstone,,50,,,2,,,,,
null,,confidence_buffer,1293728,confidence_buffer,,null,,,,,,,,
1857.4000000022352,,pt2_memorable_rating,1295587,Millstone,,49,,,1,,,,,
null,,confidence_buffer,1295689,confidence_buffer,,null,,,,,,,,
1929.199999999255,,recognition_phase,1297619,Millstone,,51,,,,,,new,1,0.5918367346938775
null,,confidence_buffer,1297722,confidence_buffer,,null,,,,,,,,
null,,thebreak,1298223,break,,null,,,,,,,,
6242.800000000745,,realistic_rating,1304467,Athens,,52,Athens,US,4,,,,,
null,,confidence_buffer,1304569,confidence_buffer,,null,,,,,,,,
3392.5,,pt2_unique_rating,1307963,Athens,,52,,,4,,,,,
null,,confidence_buffer,1308065,confidence_buffer,,null,,,,,,,,
3144.599999997765,,pt2_memorable_rating,1311211,Athens,,51,,,3,,,,,
null,,confidence_buffer,1311313,confidence_buffer,,null,,,,,,,,
4072.699999999255,,recognition_phase,1315387,Athens,,49,,,,,,old,1,0.6
null,,confidence_buffer,1315489,confidence_buffer,,null,,,,,,,,
null,,thebreak,1315991,break,,null,,,,,,,,
2601.89999999851,,realistic_rating,1318594,Clearbrook,,49,Clearbrook,Fictional,1,,,,,
null,,confidence_buffer,1318706,confidence_buffer,,null,,,,,,,,
1719.800000000745,,pt2_unique_rating,1320427,Clearbrook,,50,,,2,,,,,
null,,confidence_buffer,1320529,confidence_buffer,,null,,,,,,,,
1544.199999999255,,pt2_memorable_rating,1322075,Clearbrook,,49,,,1,,,,,
null,,confidence_buffer,1322177,confidence_buffer,,null,,,,,,,,
2256.39999999851,,recognition_phase,1324435,Clearbrook,,51,,,,,,new,0,0.5882352941176471
null,,confidence_buffer,1324536,confidence_buffer,,null,,,,,,,,
null,,thebreak,1325038,break,,null,,,,,,,,
2715.2000000029802,,realistic_rating,1327755,New Hope,,50,New Hope,US,2,,,,,
null,,confidence_buffer,1327858,confidence_buffer,,null,,,,,,,,
1023.6000000014901,,pt2_unique_rating,1328883,New Hope,,49,,,1,,,,,
null,,confidence_buffer,1328985,confidence_buffer,,null,,,,,,,,
1032.199999999255,,pt2_memorable_rating,1330018,New Hope,,49,,,1,,,,,
null,,confidence_buffer,1330121,confidence_buffer,,null,,,,,,,,
1936.4000000022352,,recognition_phase,1332059,New Hope,,51,,,,,,new,1,0.5961538461538461
null,,confidence_buffer,1332161,confidence_buffer,,null,,,,,,,,
null,,thebreak,1332663,break,,null,,,,,,,,
2482.599999997765,,realistic_rating,1335147,Folly Beach,,49,Folly Beach,US,1,,,,,
null,,confidence_buffer,1335248,confidence_buffer,,null,,,,,,,,
1728.5999999977648,,probe_rating,1336978,probe_rating,,51,,,,3,1,,,
null,,confidence_buffer,1337081,confidence_buffer,,null,,,,,,,,
2208.800000000745,,pt2_unique_rating,1339291,Folly Beach,,50,,,2,,,,,
null,,confidence_buffer,1339393,confidence_buffer,,null,,,,,,,,
2552,,pt2_memorable_rating,1341947,Folly Beach,,49,,,1,,,,,
null,,confidence_buffer,1342049,confidence_buffer,,null,,,,,,,,
1320.0999999977648,,recognition_phase,1343371,Folly Beach,,51,,,,,,new,0,0.5849056603773585
null,,confidence_buffer,1343472,confidence_buffer,,null,,,,,,,,
null,,thebreak,1343974,break,,null,,,,,,,,
4099.10000000149,,realistic_rating,1348074,Cape May,,49,Cape May,US,1,,,,,
null,,confidence_buffer,1348176,confidence_buffer,,null,,,,,,,,
1649,,pt2_unique_rating,1349826,Cape May,,49,,,1,,,,,
null,,confidence_buffer,1349928,confidence_buffer,,null,,,,,,,,
2288.699999999255,,probe_rating,1352218,probe_rating,,49,,,,1,1,,,
null,,confidence_buffer,1352320,confidence_buffer,,null,,,,,,,,
1864.699999999255,,pt2_memorable_rating,1354186,Cape May,,49,,,1,,,,,
null,,confidence_buffer,1354289,confidence_buffer,,null,,,,,,,,
2488.10000000149,,recognition_phase,1356778,Cape May,,51,,,,,,new,1,0.5925925925925926
null,,confidence_buffer,1356881,confidence_buffer,,null,,,,,,,,
null,,thebreak,1357383,break,,null,,,,,,,,
2345.699999999255,,realistic_rating,1359730,Granton Ridge,,50,Granton Ridge,Fictional,2,,,,,
null,,confidence_buffer,1359833,confidence_buffer,,null,,,,,,,,
1111.699999999255,,pt2_unique_rating,1360946,Granton Ridge,,49,,,1,,,,,
null,,confidence_buffer,1361048,confidence_buffer,,null,,,,,,,,
1544.699999999255,,pt2_memorable_rating,1362594,Granton Ridge,,50,,,2,,,,,
null,,confidence_buffer,1362696,confidence_buffer,,null,,,,,,,,
3544.599999997765,,recognition_phase,1366242,Granton Ridge,,51,,,,,,new,0,0.5818181818181818
null,,confidence_buffer,1366344,confidence_buffer,,null,,,,,,,,
null,,thebreak,1366846,break,,null,,,,,,,,
1890.3999999985099,,realistic_rating,1368737,Stonebrook,,49,Stonebrook,Fictional,1,,,,,
null,,confidence_buffer,1368840,confidence_buffer,,null,,,,,,,,
3616.699999999255,,pt2_unique_rating,1372458,Stonebrook,,49,,,1,,,,,
null,,confidence_buffer,1372560,confidence_buffer,,null,,,,,,,,
1680.5,,pt2_memorable_rating,1374242,Stonebrook,,49,,,1,,,,,
null,,confidence_buffer,1374344,confidence_buffer,,null,,,,,,,,
2544.5,,recognition_phase,1376890,Stonebrook,,51,,,,,,new,0,0.5714285714285714
null,,confidence_buffer,1376992,confidence_buffer,,null,,,,,,,,
null,,thebreak,1377494,break,,null,,,,,,,,
2346.300000000745,,realistic_rating,1379842,Hilo,,49,Hilo,US,1,,,,,
null,,confidence_buffer,1379944,confidence_buffer,,null,,,,,,,,
1368.2999999970198,,pt2_unique_rating,1381313,Hilo,,49,,,1,,,,,
null,,confidence_buffer,1381416,confidence_buffer,,null,,,,,,,,
1272.9000000022352,,pt2_memorable_rating,1382690,Hilo,,49,,,1,,,,,
null,,confidence_buffer,1382792,confidence_buffer,,null,,,,,,,,
1832.699999999255,,recognition_phase,1384626,Hilo,,52,,,,,,new,0,0.5614035087719298
null,,confidence_buffer,1384728,confidence_buffer,,null,,,,,,,,
null,,thebreak,1385230,break,,null,,,,,,,,
4466.800000000745,,realistic_rating,1389698,Meadowspire,,50,Meadowspire,Fictional,2,,,,,
null,,confidence_buffer,1389800,confidence_buffer,,null,,,,,,,,
1088.1000000014901,,pt2_unique_rating,1390889,Meadowspire,,50,,,2,,,,,
null,,confidence_buffer,1390991,confidence_buffer,,null,,,,,,,,
1881.4000000022352,,probe_rating,1392874,probe_rating,,50,,,,2,1,,,
null,,confidence_buffer,1392976,confidence_buffer,,null,,,,,,,,
2680.300000000745,,pt2_memorable_rating,1395658,Meadowspire,,50,,,2,,,,,
null,,confidence_buffer,1395759,confidence_buffer,,null,,,,,,,,
2752.89999999851,,recognition_phase,1398514,Meadowspire,,52,,,,,,new,1,0.5689655172413793
null,,confidence_buffer,1398616,confidence_buffer,,null,,,,,,,,
null,,thebreak,1399117,break,,null,,,,,,,,
6315.20000000298,,realistic_rating,1405434,Westridge,,49,Westridge,Fictional,1,,,,,
null,,confidence_buffer,1405536,confidence_buffer,,null,,,,,,,,
2368.2999999970198,,pt2_unique_rating,1407906,Westridge,,49,,,1,,,,,
null,,confidence_buffer,1408008,confidence_buffer,,null,,,,,,,,
1896.5,,pt2_memorable_rating,1409905,Westridge,,49,,,1,,,,,
null,,confidence_buffer,1410007,confidence_buffer,,null,,,,,,,,
2353,,recognition_phase,1412361,Westridge,,51,,,,,,new,1,0.576271186440678
null,,confidence_buffer,1412464,confidence_buffer,,null,,,,,,,,
null,,thebreak,1412965,break,,null,,,,,,,,
10546.5,,realistic_rating,1423513,Cornwall,,49,Cornwall,US,1,,,,,
null,,confidence_buffer,1423615,confidence_buffer,,null,,,,,,,,
1536.699999999255,,pt2_unique_rating,1425153,Cornwall,,49,,,1,,,,,
null,,confidence_buffer,1425255,confidence_buffer,,null,,,,,,,,
1617,,pt2_memorable_rating,1426873,Cornwall,,49,,,1,,,,,
null,,confidence_buffer,1426975,confidence_buffer,,null,,,,,,,,
3080.7999999970198,,recognition_phase,1430057,Cornwall,,51,,,,,,new,1,0.5833333333333334
null,,confidence_buffer,1430159,confidence_buffer,,null,,,,,,,,
null,,thebreak,1430662,break,,null,,,,,,,,
