rt,responses,trial_type,time_elapsed,stimulus,button_pressed,key_press,name_trial,rating,probe,probe_accuracy,response,correct,accuracy,problems,smooth,distraction,strategies,familiar,memorable,unique,realistic,similar,comments,detectfocus,warning
9240.5,{worker_id:626966a12d29060d48439d01},id_enter,9241,,,,,,,,,,,,,,,,,,,,,,
9371,,fullscreen,18615,fullscreen,0,,,,,,,,,,,,,,,,,,,,
5392.60000000149,,intro_0,24009,instruct,,32,,,,,,,,,,,,,,,,,,,
7800.89999999851,,intro_1,31811,instruct,,32,,,,,,,,,,,,,,,,,,,
5748.20000000298,,intro_2,37559,instruct,,32,,,,,,,,,,,,,,,,,,,
null,,instruct_dir_4,39061,instruct,,null,,,,,,,,,,,,,,,,,,,
null,,thebreak,39562,break,,null,,,,,,,,,,,,,,,,,,,
9112.5,,familiar_rating,48675,Berkeley,,49,Berkeley,1,,,,,,,,,,,,,,,,,
null,,confidence_buffer,48777,confidence_buffer,,null,,,,,,,,,,,,,,,,,,,
4602.30000000447,,unique_rating,53380,Berkeley,,50,,2,,,,,,,,,,,,,,,,,
null,,confidence_buffer,53482,confidence_buffer,,null,,,,,,,,,,,,,,,,,,,
4846.89999999851,,memorable_rating,58329,Berkeley,,52,,4,,,,,,,,,,,,,,,,,
null,,confidence_buffer,58431,confidence_buffer,,null,,,,,,,,,,,,,,,,,,,
null,,thebreak,58932,break,,null,,,,,,,,,,,,,,,,,,,
4976.39999999851,,familiar_rating,63909,Marquette,,51,Marquette,3,,,,,,,,,,,,,,,,,
null,,confidence_buffer,64015,confidence_buffer,,null,,,,,,,,,,,,,,,,,,,
2195.1999999955297,,unique_rating,66211,Marquette,,52,,4,,,,,,,,,,,,,,,,,
null,,confidence_buffer,66312,confidence_buffer,,null,,,,,,,,,,,,,,,,,,,
2063.4000000059605,,memorable_rating,68376,Marquette,,52,,4,,,,,,,,,,,,,,,,,
null,,confidence_buffer,68477,confidence_buffer,,null,,,,,,,,,,,,,,,,,,,
null,,thebreak,68978,break,,null,,,,,,,,,,,,,,,,,,,
21282.89999999851,,familiar_rating,90262,Carson City,,49,Carson City,1,,,,,,,,,,,,,,,,,
null,,confidence_buffer,90363,confidence_buffer,,null,,,,,,,,,,,,,,,,,,,
3300.89999999851,,unique_rating,93665,Carson City,,49,,1,,,,,,,,,,,,,,,,,
null,,confidence_buffer,93766,confidence_buffer,,null,,,,,,,,,,,,,,,,,,,
1469.3000000044703,,memorable_rating,95236,Carson City,,49,,1,,,,,,,,,,,,,,,,,
null,,confidence_buffer,95337,confidence_buffer,,null,,,,,,,,,,,,,,,,,,,
null,,thebreak,95839,break,,null,,,,,,,,,,,,,,,,,,,
11929.29999999702,,familiar_rating,107769,Concord,,53,Concord,5,,,,,,,,,,,,,,,,,
null,,confidence_buffer,107870,confidence_buffer,,null,,,,,,,,,,,,,,,,,,,
2220.2999999970198,,unique_rating,110091,Concord,,51,,3,,,,,,,,,,,,,,,,,
null,,confidence_buffer,110193,confidence_buffer,,null,,,,,,,,,,,,,,,,,,,
1847.9000000059605,,memorable_rating,112041,Concord,,51,,3,,,,,,,,,,,,,,,,,
null,,confidence_buffer,112143,confidence_buffer,,null,,,,,,,,,,,,,,,,,,,
null,,thebreak,112644,break,,null,,,,,,,,,,,,,,,,,,,
7161.79999999702,,familiar_rating,119806,Boulder,,52,Boulder,4,,,,,,,,,,,,,,,,,
null,,confidence_buffer,119907,confidence_buffer,,null,,,,,,,,,,,,,,,,,,,
2982.60000000149,,probe_rating,122890,probe_rating,,49,,,1,1,,,,,,,,,,,,,,,
null,,confidence_buffer,122992,confidence_buffer,,null,,,,,,,,,,,,,,,,,,,
3129.7000000029802,,unique_rating,126123,Boulder,,50,,2,,,,,,,,,,,,,,,,,
null,,confidence_buffer,126224,confidence_buffer,,null,,,,,,,,,,,,,,,,,,,
2789.1999999955297,,memorable_rating,129014,Boulder,,50,,2,,,,,,,,,,,,,,,,,
null,,confidence_buffer,129115,confidence_buffer,,null,,,,,,,,,,,,,,,,,,,
null,,thebreak,129618,break,,null,,,,,,,,,,,,,,,,,,,
11404.79999999702,,familiar_rating,141023,Montpelier,,49,Montpelier,1,,,,,,,,,,,,,,,,,
null,,confidence_buffer,141124,confidence_buffer,,null,,,,,,,,,,,,,,,,,,,
1663.1000000014901,,unique_rating,142788,Montpelier,,53,,5,,,,,,,,,,,,,,,,,
null,,confidence_buffer,142892,confidence_buffer,,null,,,,,,,,,,,,,,,,,,,
4780.5,,memorable_rating,147673,Montpelier,,53,,5,,,,,,,,,,,,,,,,,
null,,confidence_buffer,147774,confidence_buffer,,null,,,,,,,,,,,,,,,,,,,
null,,thebreak,148275,break,,null,,,,,,,,,,,,,,,,,,,
6916.10000000149,,familiar_rating,155192,Norfolk,,53,Norfolk,5,,,,,,,,,,,,,,,,,
null,,confidence_buffer,155293,confidence_buffer,,null,,,,,,,,,,,,,,,,,,,
2351,,unique_rating,157644,Norfolk,,51,,3,,,,,,,,,,,,,,,,,
null,,confidence_buffer,157746,confidence_buffer,,null,,,,,,,,,,,,,,,,,,,
1262.6000000014901,,memorable_rating,159009,Norfolk,,52,,4,,,,,,,,,,,,,,,,,
null,,confidence_buffer,159110,confidence_buffer,,null,,,,,,,,,,,,,,,,,,,
1705.7000000029802,,probe_rating,160817,probe_rating,,52,,,4,1,,,,,,,,,,,,,,,
null,,confidence_buffer,160918,confidence_buffer,,null,,,,,,,,,,,,,,,,,,,
null,,thebreak,161420,break,,null,,,,,,,,,,,,,,,,,,,
6207.5999999940395,,familiar_rating,167628,Helena,,49,Helena,1,,,,,,,,,,,,,,,,,
null,,confidence_buffer,167730,confidence_buffer,,null,,,,,,,,,,,,,,,,,,,
3771.9000000059605,,unique_rating,171502,Helena,,52,,4,,,,,,,,,,,,,,,,,
null,,confidence_buffer,171604,confidence_buffer,,null,,,,,,,,,,,,,,,,,,,
1961.5,,memorable_rating,173566,Helena,,52,,4,,,,,,,,,,,,,,,,,
null,,confidence_buffer,173667,confidence_buffer,,null,,,,,,,,,,,,,,,,,,,
null,,thebreak,174169,break,,null,,,,,,,,,,,,,,,,,,,
6456.60000000149,,familiar_rating,180626,New Haven,,51,New Haven,3,,,,,,,,,,,,,,,,,
null,,confidence_buffer,180727,confidence_buffer,,null,,,,,,,,,,,,,,,,,,,
3358.39999999851,,unique_rating,184086,New Haven,,50,,2,,,,,,,,,,,,,,,,,
null,,confidence_buffer,184189,confidence_buffer,,null,,,,,,,,,,,,,,,,,,,
2033.4000000059605,,memorable_rating,186223,New Haven,,50,,2,,,,,,,,,,,,,,,,,
null,,confidence_buffer,186324,confidence_buffer,,null,,,,,,,,,,,,,,,,,,,
null,,thebreak,186825,break,,null,,,,,,,,,,,,,,,,,,,
6687.89999999851,,familiar_rating,193513,Muncie,,49,Muncie,1,,,,,,,,,,,,,,,,,
null,,confidence_buffer,193615,confidence_buffer,,null,,,,,,,,,,,,,,,,,,,
2035.7000000029802,,unique_rating,195652,Muncie,,53,,5,,,,,,,,,,,,,,,,,
null,,confidence_buffer,195752,confidence_buffer,,null,,,,,,,,,,,,,,,,,,,
1438.8000000044703,,memorable_rating,197192,Muncie,,53,,5,,,,,,,,,,,,,,,,,
null,,confidence_buffer,197293,confidence_buffer,,null,,,,,,,,,,,,,,,,,,,
null,,thebreak,197794,break,,null,,,,,,,,,,,,,,,,,,,
5251.69999999553,,familiar_rating,203046,Pasadena,,53,Pasadena,5,,,,,,,,,,,,,,,,,
null,,confidence_buffer,203148,confidence_buffer,,null,,,,,,,,,,,,,,,,,,,
2514.5,,unique_rating,205663,Pasadena,,53,,5,,,,,,,,,,,,,,,,,
null,,confidence_buffer,205764,confidence_buffer,,null,,,,,,,,,,,,,,,,,,,
2021,,memorable_rating,207786,Pasadena,,53,,5,,,,,,,,,,,,,,,,,
null,,confidence_buffer,207887,confidence_buffer,,null,,,,,,,,,,,,,,,,,,,
null,,thebreak,208388,break,,null,,,,,,,,,,,,,,,,,,,
6694,,familiar_rating,215083,Fort Collins,,49,Fort Collins,1,,,,,,,,,,,,,,,,,
null,,confidence_buffer,215185,confidence_buffer,,null,,,,,,,,,,,,,,,,,,,
1094.1999999955297,,unique_rating,216279,Fort Collins,,49,,1,,,,,,,,,,,,,,,,,
null,,confidence_buffer,216382,confidence_buffer,,null,,,,,,,,,,,,,,,,,,,
1916.2000000029802,,memorable_rating,218299,Fort Collins,,50,,2,,,,,,,,,,,,,,,,,
null,,confidence_buffer,218400,confidence_buffer,,null,,,,,,,,,,,,,,,,,,,
null,,thebreak,218901,break,,null,,,,,,,,,,,,,,,,,,,
7935.20000000298,,familiar_rating,226837,Dothan,,49,Dothan,1,,,,,,,,,,,,,,,,,
null,,confidence_buffer,226939,confidence_buffer,,null,,,,,,,,,,,,,,,,,,,
3053.10000000149,,unique_rating,229993,Dothan,,53,,5,,,,,,,,,,,,,,,,,
null,,confidence_buffer,230094,confidence_buffer,,null,,,,,,,,,,,,,,,,,,,
2881.3000000044703,,memorable_rating,232976,Dothan,,51,,3,,,,,,,,,,,,,,,,,
null,,confidence_buffer,233077,confidence_buffer,,null,,,,,,,,,,,,,,,,,,,
null,,thebreak,233578,break,,null,,,,,,,,,,,,,,,,,,,
13412.60000000149,,familiar_rating,246991,Santa Monica,,53,Santa Monica,5,,,,,,,,,,,,,,,,,
null,,confidence_buffer,247092,confidence_buffer,,null,,,,,,,,,,,,,,,,,,,
3128.10000000149,,unique_rating,250221,Santa Monica,,52,,4,,,,,,,,,,,,,,,,,
null,,confidence_buffer,250323,confidence_buffer,,null,,,,,,,,,,,,,,,,,,,
2182.6999999955297,,memorable_rating,252506,Santa Monica,,51,,3,,,,,,,,,,,,,,,,,
null,,confidence_buffer,252607,confidence_buffer,,null,,,,,,,,,,,,,,,,,,,
null,,thebreak,253110,break,,null,,,,,,,,,,,,,,,,,,,
7219.79999999702,,familiar_rating,260330,Palo Alto,,51,Palo Alto,3,,,,,,,,,,,,,,,,,
null,,confidence_buffer,260431,confidence_buffer,,null,,,,,,,,,,,,,,,,,,,
4605,,unique_rating,265037,Palo Alto,,52,,4,,,,,,,,,,,,,,,,,
null,,confidence_buffer,265138,confidence_buffer,,null,,,,,,,,,,,,,,,,,,,
1889.1999999955297,,memorable_rating,267028,Palo Alto,,52,,4,,,,,,,,,,,,,,,,,
null,,confidence_buffer,267129,confidence_buffer,,null,,,,,,,,,,,,,,,,,,,
null,,thebreak,267631,break,,null,,,,,,,,,,,,,,,,,,,
6606.10000000149,,familiar_rating,274238,Abilene,,49,Abilene,1,,,,,,,,,,,,,,,,,
null,,confidence_buffer,274339,confidence_buffer,,null,,,,,,,,,,,,,,,,,,,
1646.7000000029802,,unique_rating,275986,Abilene,,53,,5,,,,,,,,,,,,,,,,,
null,,confidence_buffer,276087,confidence_buffer,,null,,,,,,,,,,,,,,,,,,,
3066.0999999940395,,memorable_rating,279153,Abilene,,52,,4,,,,,,,,,,,,,,,,,
null,,confidence_buffer,279255,confidence_buffer,,null,,,,,,,,,,,,,,,,,,,
null,,thebreak,279759,break,,null,,,,,,,,,,,,,,,,,,,
7116.19999999553,,familiar_rating,286876,Peoria,,49,Peoria,1,,,,,,,,,,,,,,,,,
null,,confidence_buffer,286978,confidence_buffer,,null,,,,,,,,,,,,,,,,,,,
1848.7000000029802,,unique_rating,288827,Peoria,,53,,5,,,,,,,,,,,,,,,,,
null,,confidence_buffer,288932,confidence_buffer,,null,,,,,,,,,,,,,,,,,,,
3317.89999999851,,memorable_rating,292250,Peoria,,49,,1,,,,,,,,,,,,,,,,,
null,,confidence_buffer,292352,confidence_buffer,,null,,,,,,,,,,,,,,,,,,,
null,,thebreak,292853,break,,null,,,,,,,,,,,,,,,,,,,
8218.60000000149,,familiar_rating,301072,McKinney,,49,McKinney,1,,,,,,,,,,,,,,,,,
null,,confidence_buffer,301173,confidence_buffer,,null,,,,,,,,,,,,,,,,,,,
1676.8999999985099,,unique_rating,302851,McKinney,,49,,1,,,,,,,,,,,,,,,,,
null,,confidence_buffer,302952,confidence_buffer,,null,,,,,,,,,,,,,,,,,,,
2301,,memorable_rating,305254,McKinney,,49,,1,,,,,,,,,,,,,,,,,
null,,confidence_buffer,305355,confidence_buffer,,null,,,,,,,,,,,,,,,,,,,
null,,thebreak,305857,break,,null,,,,,,,,,,,,,,,,,,,
7400.10000000149,,familiar_rating,313257,Cheyenne,,50,Cheyenne,2,,,,,,,,,,,,,,,,,
null,,confidence_buffer,313360,confidence_buffer,,null,,,,,,,,,,,,,,,,,,,
2030.8999999985099,,unique_rating,315392,Cheyenne,,49,,1,,,,,,,,,,,,,,,,,
null,,confidence_buffer,315493,confidence_buffer,,null,,,,,,,,,,,,,,,,,,,
1483.8999999985099,,memorable_rating,316978,Cheyenne,,49,,1,,,,,,,,,,,,,,,,,
null,,confidence_buffer,317078,confidence_buffer,,null,,,,,,,,,,,,,,,,,,,
null,,thebreak,317581,break,,null,,,,,,,,,,,,,,,,,,,
8185.80000000447,,familiar_rating,325767,Rock Springs,,49,Rock Springs,1,,,,,,,,,,,,,,,,,
null,,confidence_buffer,325869,confidence_buffer,,null,,,,,,,,,,,,,,,,,,,
1477.2000000029802,,unique_rating,327347,Rock Springs,,51,,3,,,,,,,,,,,,,,,,,
null,,confidence_buffer,327447,confidence_buffer,,null,,,,,,,,,,,,,,,,,,,
2924.89999999851,,memorable_rating,330373,Rock Springs,,51,,3,,,,,,,,,,,,,,,,,
null,,confidence_buffer,330474,confidence_buffer,,null,,,,,,,,,,,,,,,,,,,
null,,thebreak,330975,break,,null,,,,,,,,,,,,,,,,,,,
8315.10000000149,,familiar_rating,339291,Decatur,,53,Decatur,5,,,,,,,,,,,,,,,,,
null,,confidence_buffer,339392,confidence_buffer,,null,,,,,,,,,,,,,,,,,,,
1762.2000000029802,,unique_rating,341155,Decatur,,53,,5,,,,,,,,,,,,,,,,,
null,,confidence_buffer,341257,confidence_buffer,,null,,,,,,,,,,,,,,,,,,,
1248.6000000014901,,memorable_rating,342506,Decatur,,53,,5,,,,,,,,,,,,,,,,,
null,,confidence_buffer,342608,confidence_buffer,,null,,,,,,,,,,,,,,,,,,,
1355.1000000014901,,probe_rating,343964,probe_rating,,52,,,4,1,,,,,,,,,,,,,,,
null,,confidence_buffer,344066,confidence_buffer,,null,,,,,,,,,,,,,,,,,,,
null,,thebreak,344567,break,,null,,,,,,,,,,,,,,,,,,,
5526,,familiar_rating,350094,Boise,,53,Boise,5,,,,,,,,,,,,,,,,,
null,,confidence_buffer,350195,confidence_buffer,,null,,,,,,,,,,,,,,,,,,,
1417,,unique_rating,351612,Boise,,53,,5,,,,,,,,,,,,,,,,,
null,,confidence_buffer,351714,confidence_buffer,,null,,,,,,,,,,,,,,,,,,,
3461.1999999955297,,memorable_rating,355176,Boise,,53,,5,,,,,,,,,,,,,,,,,
null,,confidence_buffer,355277,confidence_buffer,,null,,,,,,,,,,,,,,,,,,,
null,,thebreak,355779,break,,null,,,,,,,,,,,,,,,,,,,
8553.60000000149,,familiar_rating,364333,Fort Wayne,,49,Fort Wayne,1,,,,,,,,,,,,,,,,,
null,,confidence_buffer,364434,confidence_buffer,,null,,,,,,,,,,,,,,,,,,,
3006.10000000149,,unique_rating,367441,Fort Wayne,,50,,2,,,,,,,,,,,,,,,,,
null,,confidence_buffer,367542,confidence_buffer,,null,,,,,,,,,,,,,,,,,,,
1753.3999999985099,,memorable_rating,369296,Fort Wayne,,50,,2,,,,,,,,,,,,,,,,,
null,,confidence_buffer,369397,confidence_buffer,,null,,,,,,,,,,,,,,,,,,,
null,,thebreak,369898,break,,null,,,,,,,,,,,,,,,,,,,
7895.79999999702,,familiar_rating,377795,Champaign,,49,Champaign,1,,,,,,,,,,,,,,,,,
null,,confidence_buffer,377896,confidence_buffer,,null,,,,,,,,,,,,,,,,,,,
943.8999999985099,,unique_rating,378841,Champaign,,51,,3,,,,,,,,,,,,,,,,,
null,,confidence_buffer,378943,confidence_buffer,,null,,,,,,,,,,,,,,,,,,,
2628.60000000149,,memorable_rating,381572,Champaign,,52,,4,,,,,,,,,,,,,,,,,
null,,confidence_buffer,381673,confidence_buffer,,null,,,,,,,,,,,,,,,,,,,
null,,thebreak,382175,break,,null,,,,,,,,,,,,,,,,,,,
7456.70000000298,,familiar_rating,389632,Ann Arbor,,51,Ann Arbor,3,,,,,,,,,,,,,,,,,
null,,confidence_buffer,389733,confidence_buffer,,null,,,,,,,,,,,,,,,,,,,
2505.39999999851,,unique_rating,392239,Ann Arbor,,51,,3,,,,,,,,,,,,,,,,,
null,,confidence_buffer,392341,confidence_buffer,,null,,,,,,,,,,,,,,,,,,,
2646.39999999851,,memorable_rating,394988,Ann Arbor,,50,,2,,,,,,,,,,,,,,,,,
null,,confidence_buffer,395096,confidence_buffer,,null,,,,,,,,,,,,,,,,,,,
null,,thebreak,395597,break,,null,,,,,,,,,,,,,,,,,,,
3273,,intro_0,398871,instruct,,32,,,,,,,,,,,,,,,,,,,
5672.5,,intro_1,404544,instruct,,32,,,,,,,,,,,,,,,,,,,
9279.39999999851,,intro_2,413824,instruct,,32,,,,,,,,,,,,,,,,,,,
null,,instruct_dir_4,415325,instruct,,null,,,,,,,,,,,,,,,,,,,
4399.20000000298,,realistic_rating,419725,Pueblo,,51,Pueblo,3,,,,,,,,,,,,,,,,,
null,,confidence_buffer,419826,confidence_buffer,,null,,,,,,,,,,,,,,,,,,,
2905.5,,pt2_unique_rating,422733,Pueblo,,53,,5,,,,,,,,,,,,,,,,,
null,,confidence_buffer,422835,confidence_buffer,,null,,,,,,,,,,,,,,,,,,,
1315.7000000029802,,pt2_memorable_rating,424152,Pueblo,,53,,5,,,,,,,,,,,,,,,,,
null,,confidence_buffer,424253,confidence_buffer,,null,,,,,,,,,,,,,,,,,,,
2024.2999999970198,,recognition_phase,426278,Pueblo,,52,,,,,new,1,1,,,,,,,,,,,,
null,,confidence_buffer,426379,confidence_buffer,,null,,,,,,,,,,,,,,,,,,,
null,,thebreak,426882,break,,null,,,,,,,,,,,,,,,,,,,
3025.60000000149,,realistic_rating,429908,Salem,,52,Salem,4,,,,,,,,,,,,,,,,,
null,,confidence_buffer,430008,confidence_buffer,,null,,,,,,,,,,,,,,,,,,,
2018.8999999985099,,pt2_unique_rating,432028,Salem,,52,,4,,,,,,,,,,,,,,,,,
null,,confidence_buffer,432130,confidence_buffer,,null,,,,,,,,,,,,,,,,,,,
1213.1000000014901,,pt2_memorable_rating,433344,Salem,,53,,5,,,,,,,,,,,,,,,,,
null,,confidence_buffer,433444,confidence_buffer,,null,,,,,,,,,,,,,,,,,,,
1663.1000000014901,,recognition_phase,435108,Salem,,52,,,,,new,1,1,,,,,,,,,,,,
null,,confidence_buffer,435209,confidence_buffer,,null,,,,,,,,,,,,,,,,,,,
null,,thebreak,435711,break,,null,,,,,,,,,,,,,,,,,,,
3093.5,,realistic_rating,438805,Terre Haute,,51,Terre Haute,3,,,,,,,,,,,,,,,,,
null,,confidence_buffer,438907,confidence_buffer,,null,,,,,,,,,,,,,,,,,,,
1142.7999999970198,,probe_rating,440050,probe_rating,,50,,,2,1,,,,,,,,,,,,,,,
null,,confidence_buffer,440152,confidence_buffer,,null,,,,,,,,,,,,,,,,,,,
2719.89999999851,,pt2_unique_rating,442872,Terre Haute,,53,,5,,,,,,,,,,,,,,,,,
null,,confidence_buffer,442974,confidence_buffer,,null,,,,,,,,,,,,,,,,,,,
1223,,pt2_memorable_rating,444197,Terre Haute,,52,,4,,,,,,,,,,,,,,,,,
null,,confidence_buffer,444299,confidence_buffer,,null,,,,,,,,,,,,,,,,,,,
1473.6999999955297,,recognition_phase,445773,Terre Haute,,52,,,,,new,1,1,,,,,,,,,,,,
null,,confidence_buffer,445876,confidence_buffer,,null,,,,,,,,,,,,,,,,,,,
null,,thebreak,446377,break,,null,,,,,,,,,,,,,,,,,,,
2807.5,,realistic_rating,449185,Carson City,,50,Carson City,2,,,,,,,,,,,,,,,,,
null,,confidence_buffer,449287,confidence_buffer,,null,,,,,,,,,,,,,,,,,,,
1143,,pt2_unique_rating,450431,Carson City,,49,,1,,,,,,,,,,,,,,,,,
null,,confidence_buffer,450532,confidence_buffer,,null,,,,,,,,,,,,,,,,,,,
1488.1000000014901,,pt2_memorable_rating,452021,Carson City,,49,,1,,,,,,,,,,,,,,,,,
null,,confidence_buffer,452122,confidence_buffer,,null,,,,,,,,,,,,,,,,,,,
1801.8999999985099,,recognition_phase,453925,Carson City,,49,,,,,old,1,1,,,,,,,,,,,,
null,,confidence_buffer,454026,confidence_buffer,,null,,,,,,,,,,,,,,,,,,,
null,,thebreak,454528,break,,null,,,,,,,,,,,,,,,,,,,
3395,,realistic_rating,457923,Ithaca,,49,Ithaca,1,,,,,,,,,,,,,,,,,
null,,confidence_buffer,458025,confidence_buffer,,null,,,,,,,,,,,,,,,,,,,
2339.39999999851,,pt2_unique_rating,460365,Ithaca,,53,,5,,,,,,,,,,,,,,,,,
null,,confidence_buffer,460466,confidence_buffer,,null,,,,,,,,,,,,,,,,,,,
2397.2999999970198,,pt2_memorable_rating,462864,Ithaca,,51,,3,,,,,,,,,,,,,,,,,
null,,confidence_buffer,462965,confidence_buffer,,null,,,,,,,,,,,,,,,,,,,
1474.6000000014901,,recognition_phase,464441,Ithaca,,52,,,,,new,1,1,,,,,,,,,,,,
null,,confidence_buffer,464542,confidence_buffer,,null,,,,,,,,,,,,,,,,,,,
null,,thebreak,465042,break,,null,,,,,,,,,,,,,,,,,,,
2598.3000000044703,,realistic_rating,467641,Cambridge,,53,Cambridge,5,,,,,,,,,,,,,,,,,
null,,confidence_buffer,467743,confidence_buffer,,null,,,,,,,,,,,,,,,,,,,
4480.80000000447,,pt2_unique_rating,472225,Cambridge,,52,,4,,,,,,,,,,,,,,,,,
null,,confidence_buffer,472325,confidence_buffer,,null,,,,,,,,,,,,,,,,,,,
1069,,probe_rating,473395,probe_rating,,53,,,5,1,,,,,,,,,,,,,,,
null,,confidence_buffer,473497,confidence_buffer,,null,,,,,,,,,,,,,,,,,,,
1867,,pt2_memorable_rating,475364,Cambridge,,51,,3,,,,,,,,,,,,,,,,,
null,,confidence_buffer,475466,confidence_buffer,,null,,,,,,,,,,,,,,,,,,,
1510.2000000029802,,recognition_phase,476976,Cambridge,,52,,,,,new,1,1,,,,,,,,,,,,
null,,confidence_buffer,477078,confidence_buffer,,null,,,,,,,,,,,,,,,,,,,
null,,thebreak,477579,break,,null,,,,,,,,,,,,,,,,,,,
5178.70000000298,,realistic_rating,482759,Montpelier,,51,Montpelier,3,,,,,,,,,,,,,,,,,
null,,confidence_buffer,482866,confidence_buffer,,null,,,,,,,,,,,,,,,,,,,
1280.3999999985099,,pt2_unique_rating,484147,Montpelier,,52,,4,,,,,,,,,,,,,,,,,
null,,confidence_buffer,484248,confidence_buffer,,null,,,,,,,,,,,,,,,,,,,
4478.39999999851,,pt2_memorable_rating,488728,Montpelier,,51,,3,,,,,,,,,,,,,,,,,
null,,confidence_buffer,488829,confidence_buffer,,null,,,,,,,,,,,,,,,,,,,
4993.70000000298,,recognition_phase,493823,Montpelier,,49,,,,,old,1,1,,,,,,,,,,,,
null,,confidence_buffer,493924,confidence_buffer,,null,,,,,,,,,,,,,,,,,,,
null,,thebreak,494426,break,,null,,,,,,,,,,,,,,,,,,,
2546.5,,realistic_rating,496973,Toledo,,53,Toledo,5,,,,,,,,,,,,,,,,,
null,,confidence_buffer,497075,confidence_buffer,,null,,,,,,,,,,,,,,,,,,,
1730.3999999985099,,pt2_unique_rating,498806,Toledo,,52,,4,,,,,,,,,,,,,,,,,
null,,confidence_buffer,498907,confidence_buffer,,null,,,,,,,,,,,,,,,,,,,
1562.1999999955297,,pt2_memorable_rating,500470,Toledo,,53,,5,,,,,,,,,,,,,,,,,
null,,confidence_buffer,500572,confidence_buffer,,null,,,,,,,,,,,,,,,,,,,
1387.6000000014901,,recognition_phase,501960,Toledo,,52,,,,,new,1,1,,,,,,,,,,,,
null,,confidence_buffer,502062,confidence_buffer,,null,,,,,,,,,,,,,,,,,,,
null,,thebreak,502563,break,,null,,,,,,,,,,,,,,,,,,,
3296.5,,realistic_rating,505860,Bozeman,,51,Bozeman,3,,,,,,,,,,,,,,,,,
null,,confidence_buffer,505962,confidence_buffer,,null,,,,,,,,,,,,,,,,,,,
1758.5,,pt2_unique_rating,507721,Bozeman,,52,,4,,,,,,,,,,,,,,,,,
null,,confidence_buffer,507822,confidence_buffer,,null,,,,,,,,,,,,,,,,,,,
1963.2000000029802,,pt2_memorable_rating,509786,Bozeman,,51,,3,,,,,,,,,,,,,,,,,
null,,confidence_buffer,509887,confidence_buffer,,null,,,,,,,,,,,,,,,,,,,
1428.5,,recognition_phase,511317,Bozeman,,52,,,,,new,1,1,,,,,,,,,,,,
null,,confidence_buffer,511418,confidence_buffer,,null,,,,,,,,,,,,,,,,,,,
null,,thebreak,511919,break,,null,,,,,,,,,,,,,,,,,,,
8753.80000000447,,realistic_rating,520673,Fort Collins,,52,Fort Collins,4,,,,,,,,,,,,,,,,,
null,,confidence_buffer,520774,confidence_buffer,,null,,,,,,,,,,,,,,,,,,,
3157.1999999955297,,pt2_unique_rating,523932,Fort Collins,,49,,1,,,,,,,,,,,,,,,,,
null,,confidence_buffer,524034,confidence_buffer,,null,,,,,,,,,,,,,,,,,,,
1139,,probe_rating,525174,probe_rating,,53,,,5,1,,,,,,,,,,,,,,,
null,,confidence_buffer,525275,confidence_buffer,,null,,,,,,,,,,,,,,,,,,,
2785.7999999970198,,pt2_memorable_rating,528062,Fort Collins,,51,,3,,,,,,,,,,,,,,,,,
null,,confidence_buffer,528164,confidence_buffer,,null,,,,,,,,,,,,,,,,,,,
1784.1000000014901,,recognition_phase,529949,Fort Collins,,49,,,,,old,1,1,,,,,,,,,,,,
null,,confidence_buffer,530050,confidence_buffer,,null,,,,,,,,,,,,,,,,,,,
null,,thebreak,530552,break,,null,,,,,,,,,,,,,,,,,,,
3020.2999999970198,,realistic_rating,533573,Palo Alto,,53,Palo Alto,5,,,,,,,,,,,,,,,,,
null,,confidence_buffer,533675,confidence_buffer,,null,,,,,,,,,,,,,,,,,,,
1119,,pt2_unique_rating,534794,Palo Alto,,53,,5,,,,,,,,,,,,,,,,,
null,,confidence_buffer,534895,confidence_buffer,,null,,,,,,,,,,,,,,,,,,,
1438.3000000044703,,pt2_memorable_rating,536334,Palo Alto,,52,,4,,,,,,,,,,,,,,,,,
null,,confidence_buffer,536435,confidence_buffer,,null,,,,,,,,,,,,,,,,,,,
904.1000000014901,,probe_rating,537340,probe_rating,,49,,,1,1,,,,,,,,,,,,,,,
null,,confidence_buffer,537442,confidence_buffer,,null,,,,,,,,,,,,,,,,,,,
1363.5,,recognition_phase,538806,Palo Alto,,49,,,,,old,1,1,,,,,,,,,,,,
null,,confidence_buffer,538907,confidence_buffer,,null,,,,,,,,,,,,,,,,,,,
null,,thebreak,539408,break,,null,,,,,,,,,,,,,,,,,,,
3644.60000000149,,realistic_rating,543054,Helena,,50,Helena,2,,,,,,,,,,,,,,,,,
null,,confidence_buffer,543155,confidence_buffer,,null,,,,,,,,,,,,,,,,,,,
1299.1000000014901,,pt2_unique_rating,544455,Helena,,49,,1,,,,,,,,,,,,,,,,,
null,,confidence_buffer,544557,confidence_buffer,,null,,,,,,,,,,,,,,,,,,,
3093.60000000149,,pt2_memorable_rating,547651,Helena,,51,,3,,,,,,,,,,,,,,,,,
null,,confidence_buffer,547753,confidence_buffer,,null,,,,,,,,,,,,,,,,,,,
1247.3999999985099,,recognition_phase,549001,Helena,,49,,,,,old,1,1,,,,,,,,,,,,
null,,confidence_buffer,549102,confidence_buffer,,null,,,,,,,,,,,,,,,,,,,
null,,thebreak,549604,break,,null,,,,,,,,,,,,,,,,,,,
3547.39999999851,,realistic_rating,553152,Annapolis,,51,Annapolis,3,,,,,,,,,,,,,,,,,
null,,confidence_buffer,553254,confidence_buffer,,null,,,,,,,,,,,,,,,,,,,
1846.6999999955297,,pt2_unique_rating,555101,Annapolis,,53,,5,,,,,,,,,,,,,,,,,
null,,confidence_buffer,555201,confidence_buffer,,null,,,,,,,,,,,,,,,,,,,
2350.2999999970198,,pt2_memorable_rating,557552,Annapolis,,52,,4,,,,,,,,,,,,,,,,,
null,,confidence_buffer,557653,confidence_buffer,,null,,,,,,,,,,,,,,,,,,,
1493.5,,recognition_phase,559148,Annapolis,,52,,,,,new,1,1,,,,,,,,,,,,
null,,confidence_buffer,559249,confidence_buffer,,null,,,,,,,,,,,,,,,,,,,
null,,thebreak,559751,break,,null,,,,,,,,,,,,,,,,,,,
8983.5,,realistic_rating,568735,Bellingham,,50,Bellingham,2,,,,,,,,,,,,,,,,,
null,,confidence_buffer,568836,confidence_buffer,,null,,,,,,,,,,,,,,,,,,,
1759.8000000044703,,pt2_unique_rating,570597,Bellingham,,52,,4,,,,,,,,,,,,,,,,,
null,,confidence_buffer,570698,confidence_buffer,,null,,,,,,,,,,,,,,,,,,,
2069.5,,pt2_memorable_rating,572768,Bellingham,,51,,3,,,,,,,,,,,,,,,,,
null,,confidence_buffer,572869,confidence_buffer,,null,,,,,,,,,,,,,,,,,,,
1669.8000000044703,,recognition_phase,574540,Bellingham,,52,,,,,new,1,1,,,,,,,,,,,,
null,,confidence_buffer,574641,confidence_buffer,,null,,,,,,,,,,,,,,,,,,,
null,,thebreak,575142,break,,null,,,,,,,,,,,,,,,,,,,
9777.29999999702,,realistic_rating,584920,Peoria,,51,Peoria,3,,,,,,,,,,,,,,,,,
null,,confidence_buffer,585022,confidence_buffer,,null,,,,,,,,,,,,,,,,,,,
2178.60000000149,,pt2_unique_rating,587201,Peoria,,53,,5,,,,,,,,,,,,,,,,,
null,,confidence_buffer,587303,confidence_buffer,,null,,,,,,,,,,,,,,,,,,,
2118.6999999955297,,pt2_memorable_rating,589422,Peoria,,53,,5,,,,,,,,,,,,,,,,,
null,,confidence_buffer,589523,confidence_buffer,,null,,,,,,,,,,,,,,,,,,,
1352.7000000029802,,recognition_phase,590877,Peoria,,52,,,,,new,0,0.9333333333333333,,,,,,,,,,,,
null,,confidence_buffer,590978,confidence_buffer,,null,,,,,,,,,,,,,,,,,,,
null,,thebreak,591479,break,,null,,,,,,,,,,,,,,,,,,,
5570.80000000447,,realistic_rating,597050,Pasadena,,53,Pasadena,5,,,,,,,,,,,,,,,,,
null,,confidence_buffer,597151,confidence_buffer,,null,,,,,,,,,,,,,,,,,,,
1273.1000000014901,,pt2_unique_rating,598425,Pasadena,,53,,5,,,,,,,,,,,,,,,,,
null,,confidence_buffer,598527,confidence_buffer,,null,,,,,,,,,,,,,,,,,,,
1375.1000000014901,,pt2_memorable_rating,599902,Pasadena,,53,,5,,,,,,,,,,,,,,,,,
null,,confidence_buffer,600004,confidence_buffer,,null,,,,,,,,,,,,,,,,,,,
1495.8000000044703,,recognition_phase,601500,Pasadena,,49,,,,,old,1,0.9375,,,,,,,,,,,,
null,,confidence_buffer,601602,confidence_buffer,,null,,,,,,,,,,,,,,,,,,,
null,,thebreak,602103,break,,null,,,,,,,,,,,,,,,,,,,
3428.5,,realistic_rating,605532,Champaign,,49,Champaign,1,,,,,,,,,,,,,,,,,
null,,confidence_buffer,605633,confidence_buffer,,null,,,,,,,,,,,,,,,,,,,
5796.79999999702,,pt2_unique_rating,611430,Champaign,,51,,3,,,,,,,,,,,,,,,,,
null,,confidence_buffer,611531,confidence_buffer,,null,,,,,,,,,,,,,,,,,,,
2596.7999999970198,,pt2_memorable_rating,614129,Champaign,,51,,3,,,,,,,,,,,,,,,,,
null,,confidence_buffer,614231,confidence_buffer,,null,,,,,,,,,,,,,,,,,,,
1483,,recognition_phase,615715,Champaign,,49,,,,,old,1,0.9411764705882353,,,,,,,,,,,,
null,,confidence_buffer,615816,confidence_buffer,,null,,,,,,,,,,,,,,,,,,,
null,,thebreak,616317,break,,null,,,,,,,,,,,,,,,,,,,
2053.60000000149,,realistic_rating,618371,Scottsdale,,53,Scottsdale,5,,,,,,,,,,,,,,,,,
null,,confidence_buffer,618473,confidence_buffer,,null,,,,,,,,,,,,,,,,,,,
1172.6000000014901,,probe_rating,619647,probe_rating,,50,,,2,1,,,,,,,,,,,,,,,
null,,confidence_buffer,619748,confidence_buffer,,null,,,,,,,,,,,,,,,,,,,
2768.1999999955297,,pt2_unique_rating,622517,Scottsdale,,50,,2,,,,,,,,,,,,,,,,,
null,,confidence_buffer,622619,confidence_buffer,,null,,,,,,,,,,,,,,,,,,,
1436.6000000014901,,pt2_memorable_rating,624056,Scottsdale,,51,,3,,,,,,,,,,,,,,,,,
null,,confidence_buffer,624157,confidence_buffer,,null,,,,,,,,,,,,,,,,,,,
1378,,recognition_phase,625536,Scottsdale,,52,,,,,new,1,0.9444444444444444,,,,,,,,,,,,
null,,confidence_buffer,625637,confidence_buffer,,null,,,,,,,,,,,,,,,,,,,
null,,thebreak,626138,break,,null,,,,,,,,,,,,,,,,,,,
2019.5,,realistic_rating,628158,Norfolk,,53,Norfolk,5,,,,,,,,,,,,,,,,,
null,,confidence_buffer,628263,confidence_buffer,,null,,,,,,,,,,,,,,,,,,,
1681.6999999955297,,pt2_unique_rating,629945,Norfolk,,51,,3,,,,,,,,,,,,,,,,,
null,,confidence_buffer,630046,confidence_buffer,,null,,,,,,,,,,,,,,,,,,,
1318.8999999985099,,pt2_memorable_rating,631365,Norfolk,,52,,4,,,,,,,,,,,,,,,,,
null,,confidence_buffer,631467,confidence_buffer,,null,,,,,,,,,,,,,,,,,,,
1011.2999999970198,,probe_rating,632479,probe_rating,,51,,,3,1,,,,,,,,,,,,,,,
null,,confidence_buffer,632581,confidence_buffer,,null,,,,,,,,,,,,,,,,,,,
2504.2000000029802,,recognition_phase,635085,Norfolk,,52,,,,,new,0,0.8947368421052632,,,,,,,,,,,,
null,,confidence_buffer,635187,confidence_buffer,,null,,,,,,,,,,,,,,,,,,,
null,,thebreak,635688,break,,null,,,,,,,,,,,,,,,,,,,
8773,,realistic_rating,644461,McKinney,,49,McKinney,1,,,,,,,,,,,,,,,,,
null,,confidence_buffer,644562,confidence_buffer,,null,,,,,,,,,,,,,,,,,,,
1534.5,,pt2_unique_rating,646097,McKinney,,49,,1,,,,,,,,,,,,,,,,,
null,,confidence_buffer,646198,confidence_buffer,,null,,,,,,,,,,,,,,,,,,,
1901.6000000014901,,pt2_memorable_rating,648101,McKinney,,50,,2,,,,,,,,,,,,,,,,,
null,,confidence_buffer,648202,confidence_buffer,,null,,,,,,,,,,,,,,,,,,,
1664.7000000029802,,recognition_phase,649868,McKinney,,49,,,,,old,1,0.9,,,,,,,,,,,,
null,,confidence_buffer,649969,confidence_buffer,,null,,,,,,,,,,,,,,,,,,,
null,,thebreak,650471,break,,null,,,,,,,,,,,,,,,,,,,
4154.10000000149,,realistic_rating,654625,New Haven,,52,New Haven,4,,,,,,,,,,,,,,,,,
null,,confidence_buffer,654726,confidence_buffer,,null,,,,,,,,,,,,,,,,,,,
1936.6000000014901,,pt2_unique_rating,656663,New Haven,,51,,3,,,,,,,,,,,,,,,,,
null,,confidence_buffer,656765,confidence_buffer,,null,,,,,,,,,,,,,,,,,,,
1791.7000000029802,,pt2_memorable_rating,658557,New Haven,,52,,4,,,,,,,,,,,,,,,,,
null,,confidence_buffer,658658,confidence_buffer,,null,,,,,,,,,,,,,,,,,,,
1500.1000000014901,,recognition_phase,660159,New Haven,,49,,,,,old,1,0.9047619047619048,,,,,,,,,,,,
null,,confidence_buffer,660261,confidence_buffer,,null,,,,,,,,,,,,,,,,,,,
null,,thebreak,660762,break,,null,,,,,,,,,,,,,,,,,,,
4657.69999999553,,realistic_rating,665420,Dubuque,,50,Dubuque,2,,,,,,,,,,,,,,,,,
null,,confidence_buffer,665523,confidence_buffer,,null,,,,,,,,,,,,,,,,,,,
7682.29999999702,,pt2_unique_rating,673205,Dubuque,,53,,5,,,,,,,,,,,,,,,,,
null,,confidence_buffer,673307,confidence_buffer,,null,,,,,,,,,,,,,,,,,,,
2250.2000000029802,,pt2_memorable_rating,675557,Dubuque,,51,,3,,,,,,,,,,,,,,,,,
null,,confidence_buffer,675659,confidence_buffer,,null,,,,,,,,,,,,,,,,,,,
1265.2999999970198,,recognition_phase,676925,Dubuque,,52,,,,,new,1,0.9090909090909091,,,,,,,,,,,,
null,,confidence_buffer,677026,confidence_buffer,,null,,,,,,,,,,,,,,,,,,,
null,,thebreak,677527,break,,null,,,,,,,,,,,,,,,,,,,
4174.20000000298,,realistic_rating,681702,Newport News,,53,Newport News,5,,,,,,,,,,,,,,,,,
null,,confidence_buffer,681803,confidence_buffer,,null,,,,,,,,,,,,,,,,,,,
1742.7000000029802,,pt2_unique_rating,683546,Newport News,,53,,5,,,,,,,,,,,,,,,,,
null,,confidence_buffer,683647,confidence_buffer,,null,,,,,,,,,,,,,,,,,,,
904.5,,probe_rating,684552,probe_rating,,49,,,1,1,,,,,,,,,,,,,,,
null,,confidence_buffer,684653,confidence_buffer,,null,,,,,,,,,,,,,,,,,,,
2979,,pt2_memorable_rating,687633,Newport News,,52,,4,,,,,,,,,,,,,,,,,
null,,confidence_buffer,687733,confidence_buffer,,null,,,,,,,,,,,,,,,,,,,
1111.8999999985099,,recognition_phase,688846,Newport News,,52,,,,,new,1,0.9130434782608695,,,,,,,,,,,,
null,,confidence_buffer,688948,confidence_buffer,,null,,,,,,,,,,,,,,,,,,,
null,,thebreak,689449,break,,null,,,,,,,,,,,,,,,,,,,
4208.10000000149,,realistic_rating,693658,Hagerstown,,52,Hagerstown,4,,,,,,,,,,,,,,,,,
null,,confidence_buffer,693765,confidence_buffer,,null,,,,,,,,,,,,,,,,,,,
1576.1000000014901,,pt2_unique_rating,695342,Hagerstown,,51,,3,,,,,,,,,,,,,,,,,
null,,confidence_buffer,695444,confidence_buffer,,null,,,,,,,,,,,,,,,,,,,
1643.3000000044703,,probe_rating,697088,probe_rating,,51,,,3,1,,,,,,,,,,,,,,,
null,,confidence_buffer,697189,confidence_buffer,,null,,,,,,,,,,,,,,,,,,,
1445.6000000014901,,pt2_memorable_rating,698635,Hagerstown,,50,,2,,,,,,,,,,,,,,,,,
null,,confidence_buffer,698736,confidence_buffer,,null,,,,,,,,,,,,,,,,,,,
1405.7000000029802,,recognition_phase,700143,Hagerstown,,52,,,,,new,1,0.9166666666666666,,,,,,,,,,,,
null,,confidence_buffer,700244,confidence_buffer,,null,,,,,,,,,,,,,,,,,,,
null,,thebreak,700757,break,,null,,,,,,,,,,,,,,,,,,,
2018.7000000029802,,realistic_rating,702776,Gainesville,,53,Gainesville,5,,,,,,,,,,,,,,,,,
null,,confidence_buffer,702878,confidence_buffer,,null,,,,,,,,,,,,,,,,,,,
1692.7000000029802,,pt2_unique_rating,704571,Gainesville,,49,,1,,,,,,,,,,,,,,,,,
null,,confidence_buffer,704672,confidence_buffer,,null,,,,,,,,,,,,,,,,,,,
2265.39999999851,,pt2_memorable_rating,706938,Gainesville,,52,,4,,,,,,,,,,,,,,,,,
null,,confidence_buffer,707039,confidence_buffer,,null,,,,,,,,,,,,,,,,,,,
1807.2999999970198,,recognition_phase,708847,Gainesville,,52,,,,,new,1,0.92,,,,,,,,,,,,
null,,confidence_buffer,708949,confidence_buffer,,null,,,,,,,,,,,,,,,,,,,
null,,thebreak,709450,break,,null,,,,,,,,,,,,,,,,,,,
2082,,realistic_rating,711532,Yakima,,49,Yakima,1,,,,,,,,,,,,,,,,,
null,,confidence_buffer,711633,confidence_buffer,,null,,,,,,,,,,,,,,,,,,,
1566.5999999940395,,pt2_unique_rating,713200,Yakima,,53,,5,,,,,,,,,,,,,,,,,
null,,confidence_buffer,713302,confidence_buffer,,null,,,,,,,,,,,,,,,,,,,
1588.8000000044703,,pt2_memorable_rating,714891,Yakima,,51,,3,,,,,,,,,,,,,,,,,
null,,confidence_buffer,714992,confidence_buffer,,null,,,,,,,,,,,,,,,,,,,
1178.1000000014901,,recognition_phase,716171,Yakima,,52,,,,,new,1,0.9230769230769231,,,,,,,,,,,,
null,,confidence_buffer,716272,confidence_buffer,,null,,,,,,,,,,,,,,,,,,,
null,,thebreak,716773,break,,null,,,,,,,,,,,,,,,,,,,
5014.30000000447,,realistic_rating,721788,Concord,,53,Concord,5,,,,,,,,,,,,,,,,,
null,,confidence_buffer,721892,confidence_buffer,,null,,,,,,,,,,,,,,,,,,,
1599,,pt2_unique_rating,723492,Concord,,51,,3,,,,,,,,,,,,,,,,,
null,,confidence_buffer,723593,confidence_buffer,,null,,,,,,,,,,,,,,,,,,,
1738.3999999985099,,pt2_memorable_rating,725332,Concord,,53,,5,,,,,,,,,,,,,,,,,
null,,confidence_buffer,725434,confidence_buffer,,null,,,,,,,,,,,,,,,,,,,
825.1000000014901,,probe_rating,726260,probe_rating,,49,,,1,1,,,,,,,,,,,,,,,
null,,confidence_buffer,726362,confidence_buffer,,null,,,,,,,,,,,,,,,,,,,
1586.7999999970198,,recognition_phase,727949,Concord,,49,,,,,old,1,0.9259259259259259,,,,,,,,,,,,
null,,confidence_buffer,728056,confidence_buffer,,null,,,,,,,,,,,,,,,,,,,
null,,thebreak,728557,break,,null,,,,,,,,,,,,,,,,,,,
2557.3000000044703,,realistic_rating,731116,Marquette,,53,Marquette,5,,,,,,,,,,,,,,,,,
null,,confidence_buffer,731217,confidence_buffer,,null,,,,,,,,,,,,,,,,,,,
1417.5,,pt2_unique_rating,732635,Marquette,,53,,5,,,,,,,,,,,,,,,,,
null,,confidence_buffer,732737,confidence_buffer,,null,,,,,,,,,,,,,,,,,,,
1146.4000000059605,,pt2_memorable_rating,733884,Marquette,,53,,5,,,,,,,,,,,,,,,,,
null,,confidence_buffer,733985,confidence_buffer,,null,,,,,,,,,,,,,,,,,,,
915.6000000014901,,probe_rating,734902,probe_rating,,51,,,3,1,,,,,,,,,,,,,,,
null,,confidence_buffer,735003,confidence_buffer,,null,,,,,,,,,,,,,,,,,,,
1275.6000000014901,,recognition_phase,736279,Marquette,,49,,,,,old,1,0.9285714285714286,,,,,,,,,,,,
null,,confidence_buffer,736393,confidence_buffer,,null,,,,,,,,,,,,,,,,,,,
null,,thebreak,736894,break,,null,,,,,,,,,,,,,,,,,,,
1793.1000000014901,,realistic_rating,738687,Syracuse,,53,Syracuse,5,,,,,,,,,,,,,,,,,
null,,confidence_buffer,738789,confidence_buffer,,null,,,,,,,,,,,,,,,,,,,
1543.5,,pt2_unique_rating,740333,Syracuse,,53,,5,,,,,,,,,,,,,,,,,
null,,confidence_buffer,740436,confidence_buffer,,null,,,,,,,,,,,,,,,,,,,
1296.3999999985099,,pt2_memorable_rating,741732,Syracuse,,53,,5,,,,,,,,,,,,,,,,,
null,,confidence_buffer,741834,confidence_buffer,,null,,,,,,,,,,,,,,,,,,,
1189.6999999955297,,recognition_phase,743024,Syracuse,,52,,,,,new,1,0.9310344827586207,,,,,,,,,,,,
null,,confidence_buffer,743126,confidence_buffer,,null,,,,,,,,,,,,,,,,,,,
null,,thebreak,743626,break,,null,,,,,,,,,,,,,,,,,,,
6241.4000000059605,,realistic_rating,749868,Burlington,,52,Burlington,4,,,,,,,,,,,,,,,,,
null,,confidence_buffer,749970,confidence_buffer,,null,,,,,,,,,,,,,,,,,,,
3242.39999999851,,pt2_unique_rating,753213,Burlington,,51,,3,,,,,,,,,,,,,,,,,
null,,confidence_buffer,753314,confidence_buffer,,null,,,,,,,,,,,,,,,,,,,
1887,,pt2_memorable_rating,755202,Burlington,,52,,4,,,,,,,,,,,,,,,,,
null,,confidence_buffer,755303,confidence_buffer,,null,,,,,,,,,,,,,,,,,,,
1150.1999999955297,,recognition_phase,756454,Burlington,,52,,,,,new,1,0.9333333333333333,,,,,,,,,,,,
null,,confidence_buffer,756555,confidence_buffer,,null,,,,,,,,,,,,,,,,,,,
null,,thebreak,757057,break,,null,,,,,,,,,,,,,,,,,,,
1872.3999999985099,,realistic_rating,758930,Boulder,,53,Boulder,5,,,,,,,,,,,,,,,,,
null,,confidence_buffer,759031,confidence_buffer,,null,,,,,,,,,,,,,,,,,,,
1699.1000000014901,,pt2_unique_rating,760731,Boulder,,50,,2,,,,,,,,,,,,,,,,,
null,,confidence_buffer,760832,confidence_buffer,,null,,,,,,,,,,,,,,,,,,,
2124.5,,pt2_memorable_rating,762957,Boulder,,53,,5,,,,,,,,,,,,,,,,,
null,,confidence_buffer,763059,confidence_buffer,,null,,,,,,,,,,,,,,,,,,,
2008.6000000014901,,recognition_phase,765068,Boulder,,49,,,,,old,1,0.9354838709677419,,,,,,,,,,,,
null,,confidence_buffer,765170,confidence_buffer,,null,,,,,,,,,,,,,,,,,,,
null,,thebreak,765672,break,,null,,,,,,,,,,,,,,,,,,,
5155.5999999940395,,realistic_rating,770828,Cheyenne,,51,Cheyenne,3,,,,,,,,,,,,,,,,,
null,,confidence_buffer,770930,confidence_buffer,,null,,,,,,,,,,,,,,,,,,,
1140.5,,pt2_unique_rating,772071,Cheyenne,,49,,1,,,,,,,,,,,,,,,,,
null,,confidence_buffer,772173,confidence_buffer,,null,,,,,,,,,,,,,,,,,,,
1749.6999999955297,,pt2_memorable_rating,773923,Cheyenne,,51,,3,,,,,,,,,,,,,,,,,
null,,confidence_buffer,774024,confidence_buffer,,null,,,,,,,,,,,,,,,,,,,
1513.3999999985099,,recognition_phase,775538,Cheyenne,,49,,,,,old,1,0.9375,,,,,,,,,,,,
null,,confidence_buffer,775654,confidence_buffer,,null,,,,,,,,,,,,,,,,,,,
null,,thebreak,776156,break,,null,,,,,,,,,,,,,,,,,,,
4851.9000000059605,,realistic_rating,781008,Abilene,,49,Abilene,1,,,,,,,,,,,,,,,,,
null,,confidence_buffer,781111,confidence_buffer,,null,,,,,,,,,,,,,,,,,,,
1345,,pt2_unique_rating,782457,Abilene,,49,,1,,,,,,,,,,,,,,,,,
null,,confidence_buffer,782558,confidence_buffer,,null,,,,,,,,,,,,,,,,,,,
4613.79999999702,,pt2_memorable_rating,787172,Abilene,,50,,2,,,,,,,,,,,,,,,,,
null,,confidence_buffer,787273,confidence_buffer,,null,,,,,,,,,,,,,,,,,,,
1339.5,,recognition_phase,788613,Abilene,,49,,,,,old,1,0.9393939393939394,,,,,,,,,,,,
null,,confidence_buffer,788715,confidence_buffer,,null,,,,,,,,,,,,,,,,,,,
null,,thebreak,789227,break,,null,,,,,,,,,,,,,,,,,,,
3495.1999999955297,,realistic_rating,792722,Youngstown,,53,Youngstown,5,,,,,,,,,,,,,,,,,
null,,confidence_buffer,792823,confidence_buffer,,null,,,,,,,,,,,,,,,,,,,
3446,,pt2_unique_rating,796270,Youngstown,,49,,1,,,,,,,,,,,,,,,,,
null,,confidence_buffer,796371,confidence_buffer,,null,,,,,,,,,,,,,,,,,,,
2423.60000000149,,pt2_memorable_rating,798796,Youngstown,,49,,1,,,,,,,,,,,,,,,,,
null,,confidence_buffer,798897,confidence_buffer,,null,,,,,,,,,,,,,,,,,,,
67841.40000000596,,recognition_phase,866739,Youngstown,,52,,,,,new,1,0.9411764705882353,,,,,,,,,,,,
null,,confidence_buffer,866855,confidence_buffer,,null,,,,,,,,,,,,,,,,,,,
null,,thebreak,867356,break,,null,,,,,,,,,,,,,,,,,,,
5439.20000000298,,realistic_rating,872796,Fort Wayne,,52,Fort Wayne,4,,,,,,,,,,,,,,,,,
null,,confidence_buffer,872897,confidence_buffer,,null,,,,,,,,,,,,,,,,,,,
1639.8999999985099,,pt2_unique_rating,874538,Fort Wayne,,49,,1,,,,,,,,,,,,,,,,,
null,,confidence_buffer,874638,confidence_buffer,,null,,,,,,,,,,,,,,,,,,,
1606.6000000014901,,pt2_memorable_rating,876246,Fort Wayne,,51,,3,,,,,,,,,,,,,,,,,
null,,confidence_buffer,876347,confidence_buffer,,null,,,,,,,,,,,,,,,,,,,
1529.2999999970198,,recognition_phase,877876,Fort Wayne,,49,,,,,old,1,0.9428571428571428,,,,,,,,,,,,
null,,confidence_buffer,877978,confidence_buffer,,null,,,,,,,,,,,,,,,,,,,
null,,thebreak,878479,break,,null,,,,,,,,,,,,,,,,,,,
4250.39999999851,,realistic_rating,882730,Ann Arbor,,52,Ann Arbor,4,,,,,,,,,,,,,,,,,
null,,confidence_buffer,882833,confidence_buffer,,null,,,,,,,,,,,,,,,,,,,
2328.10000000149,,pt2_unique_rating,885161,Ann Arbor,,50,,2,,,,,,,,,,,,,,,,,
null,,confidence_buffer,885262,confidence_buffer,,null,,,,,,,,,,,,,,,,,,,
1700.3000000044703,,pt2_memorable_rating,886963,Ann Arbor,,51,,3,,,,,,,,,,,,,,,,,
null,,confidence_buffer,887065,confidence_buffer,,null,,,,,,,,,,,,,,,,,,,
1070.5999999940395,,recognition_phase,888136,Ann Arbor,,49,,,,,old,1,0.9444444444444444,,,,,,,,,,,,
null,,confidence_buffer,888238,confidence_buffer,,null,,,,,,,,,,,,,,,,,,,
null,,thebreak,888739,break,,null,,,,,,,,,,,,,,,,,,,
3531.89999999851,,realistic_rating,892271,Reno,,51,Reno,3,,,,,,,,,,,,,,,,,
null,,confidence_buffer,892373,confidence_buffer,,null,,,,,,,,,,,,,,,,,,,
1811,,pt2_unique_rating,894184,Reno,,52,,4,,,,,,,,,,,,,,,,,
null,,confidence_buffer,894285,confidence_buffer,,null,,,,,,,,,,,,,,,,,,,
1095.1000000014901,,pt2_memorable_rating,895381,Reno,,52,,4,,,,,,,,,,,,,,,,,
null,,confidence_buffer,895483,confidence_buffer,,null,,,,,,,,,,,,,,,,,,,
1786.5,,recognition_phase,897270,Reno,,52,,,,,new,1,0.9459459459459459,,,,,,,,,,,,
null,,confidence_buffer,897386,confidence_buffer,,null,,,,,,,,,,,,,,,,,,,
null,,thebreak,897888,break,,null,,,,,,,,,,,,,,,,,,,
2054.39999999851,,realistic_rating,899943,Topeka,,53,Topeka,5,,,,,,,,,,,,,,,,,
null,,confidence_buffer,900044,confidence_buffer,,null,,,,,,,,,,,,,,,,,,,
1846.7000000029802,,pt2_unique_rating,901891,Topeka,,53,,5,,,,,,,,,,,,,,,,,
null,,confidence_buffer,901993,confidence_buffer,,null,,,,,,,,,,,,,,,,,,,
882.3000000044703,,pt2_memorable_rating,902876,Topeka,,53,,5,,,,,,,,,,,,,,,,,
null,,confidence_buffer,902977,confidence_buffer,,null,,,,,,,,,,,,,,,,,,,
1109.4000000059605,,recognition_phase,904087,Topeka,,52,,,,,new,1,0.9473684210526315,,,,,,,,,,,,
null,,confidence_buffer,904188,confidence_buffer,,null,,,,,,,,,,,,,,,,,,,
null,,thebreak,904690,break,,null,,,,,,,,,,,,,,,,,,,
7082,,realistic_rating,911772,Dothan,,49,Dothan,1,,,,,,,,,,,,,,,,,
null,,confidence_buffer,911874,confidence_buffer,,null,,,,,,,,,,,,,,,,,,,
1510.5,,pt2_unique_rating,913385,Dothan,,53,,5,,,,,,,,,,,,,,,,,
null,,confidence_buffer,913486,confidence_buffer,,null,,,,,,,,,,,,,,,,,,,
2038.1999999955297,,pt2_memorable_rating,915525,Dothan,,51,,3,,,,,,,,,,,,,,,,,
null,,confidence_buffer,915627,confidence_buffer,,null,,,,,,,,,,,,,,,,,,,
1419.1000000014901,,recognition_phase,917046,Dothan,,49,,,,,old,1,0.9487179487179487,,,,,,,,,,,,
null,,confidence_buffer,917148,confidence_buffer,,null,,,,,,,,,,,,,,,,,,,
null,,thebreak,917649,break,,null,,,,,,,,,,,,,,,,,,,
1905.7000000029802,,realistic_rating,919556,Las Cruces,,49,Las Cruces,1,,,,,,,,,,,,,,,,,
null,,confidence_buffer,919657,confidence_buffer,,null,,,,,,,,,,,,,,,,,,,
991.5,,probe_rating,920649,probe_rating,,52,,,4,1,,,,,,,,,,,,,,,
null,,confidence_buffer,920749,confidence_buffer,,null,,,,,,,,,,,,,,,,,,,
2272.1999999955297,,pt2_unique_rating,923022,Las Cruces,,53,,5,,,,,,,,,,,,,,,,,
null,,confidence_buffer,923123,confidence_buffer,,null,,,,,,,,,,,,,,,,,,,
2986.7000000029802,,pt2_memorable_rating,926110,Las Cruces,,50,,2,,,,,,,,,,,,,,,,,
null,,confidence_buffer,926217,confidence_buffer,,null,,,,,,,,,,,,,,,,,,,
1032.6999999955297,,recognition_phase,927250,Las Cruces,,52,,,,,new,1,0.95,,,,,,,,,,,,
null,,confidence_buffer,927352,confidence_buffer,,null,,,,,,,,,,,,,,,,,,,
null,,thebreak,927852,break,,null,,,,,,,,,,,,,,,,,,,
2179.39999999851,,realistic_rating,930032,Olympia,,53,Olympia,5,,,,,,,,,,,,,,,,,
null,,confidence_buffer,930134,confidence_buffer,,null,,,,,,,,,,,,,,,,,,,
2962.39999999851,,pt2_unique_rating,933097,Olympia,,51,,3,,,,,,,,,,,,,,,,,
null,,confidence_buffer,933198,confidence_buffer,,null,,,,,,,,,,,,,,,,,,,
1580.3999999985099,,pt2_memorable_rating,934779,Olympia,,52,,4,,,,,,,,,,,,,,,,,
null,,confidence_buffer,934880,confidence_buffer,,null,,,,,,,,,,,,,,,,,,,
1300.6000000014901,,recognition_phase,936181,Olympia,,52,,,,,new,1,0.9512195121951219,,,,,,,,,,,,
null,,confidence_buffer,936283,confidence_buffer,,null,,,,,,,,,,,,,,,,,,,
null,,thebreak,936784,break,,null,,,,,,,,,,,,,,,,,,,
1913.3000000044703,,realistic_rating,938698,Altoona,,49,Altoona,1,,,,,,,,,,,,,,,,,
null,,confidence_buffer,938801,confidence_buffer,,null,,,,,,,,,,,,,,,,,,,
1457.5999999940395,,pt2_unique_rating,940259,Altoona,,53,,5,,,,,,,,,,,,,,,,,
null,,confidence_buffer,940360,confidence_buffer,,null,,,,,,,,,,,,,,,,,,,
2526.5,,pt2_memorable_rating,942887,Altoona,,50,,2,,,,,,,,,,,,,,,,,
null,,confidence_buffer,942988,confidence_buffer,,null,,,,,,,,,,,,,,,,,,,
1283.3000000044703,,recognition_phase,944272,Altoona,,52,,,,,new,1,0.9523809523809523,,,,,,,,,,,,
null,,confidence_buffer,944373,confidence_buffer,,null,,,,,,,,,,,,,,,,,,,
null,,thebreak,944874,break,,null,,,,,,,,,,,,,,,,,,,
1388.8000000044703,,realistic_rating,946264,Boise,,53,Boise,5,,,,,,,,,,,,,,,,,
null,,confidence_buffer,946365,confidence_buffer,,null,,,,,,,,,,,,,,,,,,,
2352.0999999940395,,pt2_unique_rating,948718,Boise,,53,,5,,,,,,,,,,,,,,,,,
null,,confidence_buffer,948819,confidence_buffer,,null,,,,,,,,,,,,,,,,,,,
979.7000000029802,,pt2_memorable_rating,949800,Boise,,53,,5,,,,,,,,,,,,,,,,,
null,,confidence_buffer,949901,confidence_buffer,,null,,,,,,,,,,,,,,,,,,,
1317,,recognition_phase,951219,Boise,,49,,,,,old,1,0.9534883720930233,,,,,,,,,,,,
null,,confidence_buffer,951320,confidence_buffer,,null,,,,,,,,,,,,,,,,,,,
null,,thebreak,951821,break,,null,,,,,,,,,,,,,,,,,,,
5320.79999999702,,realistic_rating,957143,Muncie,,49,Muncie,1,,,,,,,,,,,,,,,,,
null,,confidence_buffer,957244,confidence_buffer,,null,,,,,,,,,,,,,,,,,,,
3040,,pt2_unique_rating,960284,Muncie,,52,,4,,,,,,,,,,,,,,,,,
null,,confidence_buffer,960386,confidence_buffer,,null,,,,,,,,,,,,,,,,,,,
3405.2000000029802,,pt2_memorable_rating,963791,Muncie,,51,,3,,,,,,,,,,,,,,,,,
null,,confidence_buffer,963892,confidence_buffer,,null,,,,,,,,,,,,,,,,,,,
1375.0999999940395,,recognition_phase,965268,Muncie,,49,,,,,old,1,0.9545454545454546,,,,,,,,,,,,
null,,confidence_buffer,965384,confidence_buffer,,null,,,,,,,,,,,,,,,,,,,
null,,thebreak,965885,break,,null,,,,,,,,,,,,,,,,,,,
1381.1000000014901,,realistic_rating,967267,Stamford,,53,Stamford,5,,,,,,,,,,,,,,,,,
null,,confidence_buffer,967368,confidence_buffer,,null,,,,,,,,,,,,,,,,,,,
3183.2000000029802,,pt2_unique_rating,970551,Stamford,,50,,2,,,,,,,,,,,,,,,,,
null,,confidence_buffer,970653,confidence_buffer,,null,,,,,,,,,,,,,,,,,,,
2436.10000000149,,pt2_memorable_rating,973090,Stamford,,50,,2,,,,,,,,,,,,,,,,,
null,,confidence_buffer,973192,confidence_buffer,,null,,,,,,,,,,,,,,,,,,,
1110.3999999985099,,recognition_phase,974303,Stamford,,52,,,,,new,1,0.9555555555555556,,,,,,,,,,,,
null,,confidence_buffer,974405,confidence_buffer,,null,,,,,,,,,,,,,,,,,,,
null,,thebreak,974906,break,,null,,,,,,,,,,,,,,,,,,,
2626,,realistic_rating,977533,Berkeley,,53,Berkeley,5,,,,,,,,,,,,,,,,,
null,,confidence_buffer,977634,confidence_buffer,,null,,,,,,,,,,,,,,,,,,,
2099,,pt2_unique_rating,979734,Berkeley,,50,,2,,,,,,,,,,,,,,,,,
null,,confidence_buffer,979836,confidence_buffer,,null,,,,,,,,,,,,,,,,,,,
1649.8000000044703,,pt2_memorable_rating,981486,Berkeley,,52,,4,,,,,,,,,,,,,,,,,
null,,confidence_buffer,981587,confidence_buffer,,null,,,,,,,,,,,,,,,,,,,
1149.2999999970198,,recognition_phase,982737,Berkeley,,49,,,,,old,1,0.9565217391304348,,,,,,,,,,,,
null,,confidence_buffer,982839,confidence_buffer,,null,,,,,,,,,,,,,,,,,,,
null,,thebreak,983340,break,,null,,,,,,,,,,,,,,,,,,,
2937.60000000149,,realistic_rating,986278,Fargo,,52,Fargo,4,,,,,,,,,,,,,,,,,
null,,confidence_buffer,986379,confidence_buffer,,null,,,,,,,,,,,,,,,,,,,
1794.6000000014901,,pt2_unique_rating,988175,Fargo,,52,,4,,,,,,,,,,,,,,,,,
null,,confidence_buffer,988276,confidence_buffer,,null,,,,,,,,,,,,,,,,,,,
2851.39999999851,,pt2_memorable_rating,991128,Fargo,,53,,5,,,,,,,,,,,,,,,,,
null,,confidence_buffer,991237,confidence_buffer,,null,,,,,,,,,,,,,,,,,,,
852.2999999970198,,probe_rating,992090,probe_rating,,49,,,1,1,,,,,,,,,,,,,,,
null,,confidence_buffer,992191,confidence_buffer,,null,,,,,,,,,,,,,,,,,,,
1156.1000000014901,,recognition_phase,993348,Fargo,,52,,,,,new,1,0.9574468085106383,,,,,,,,,,,,
null,,confidence_buffer,993450,confidence_buffer,,null,,,,,,,,,,,,,,,,,,,
null,,thebreak,993951,break,,null,,,,,,,,,,,,,,,,,,,
1637.3999999985099,,realistic_rating,995589,Santa Monica,,53,Santa Monica,5,,,,,,,,,,,,,,,,,
null,,confidence_buffer,995700,confidence_buffer,,null,,,,,,,,,,,,,,,,,,,
2620.39999999851,,pt2_unique_rating,998321,Santa Monica,,51,,3,,,,,,,,,,,,,,,,,
null,,confidence_buffer,998422,confidence_buffer,,null,,,,,,,,,,,,,,,,,,,
1146.7000000029802,,pt2_memorable_rating,999569,Santa Monica,,53,,5,,,,,,,,,,,,,,,,,
null,,confidence_buffer,999671,confidence_buffer,,null,,,,,,,,,,,,,,,,,,,
1040.3999999985099,,recognition_phase,1000712,Santa Monica,,52,,,,,new,0,0.9375,,,,,,,,,,,,
null,,confidence_buffer,1000813,confidence_buffer,,null,,,,,,,,,,,,,,,,,,,
null,,thebreak,1001326,break,,null,,,,,,,,,,,,,,,,,,,
3165,,realistic_rating,1004492,Rock Springs,,51,Rock Springs,3,,,,,,,,,,,,,,,,,
null,,confidence_buffer,1004594,confidence_buffer,,null,,,,,,,,,,,,,,,,,,,
862.2999999970198,,pt2_unique_rating,1005456,Rock Springs,,49,,1,,,,,,,,,,,,,,,,,
null,,confidence_buffer,1005557,confidence_buffer,,null,,,,,,,,,,,,,,,,,,,
1696.3999999985099,,pt2_memorable_rating,1007254,Rock Springs,,50,,2,,,,,,,,,,,,,,,,,
null,,confidence_buffer,1007356,confidence_buffer,,null,,,,,,,,,,,,,,,,,,,
2777.10000000149,,recognition_phase,1010133,Rock Springs,,49,,,,,old,1,0.9387755102040817,,,,,,,,,,,,
null,,confidence_buffer,1010234,confidence_buffer,,null,,,,,,,,,,,,,,,,,,,
null,,thebreak,1010743,break,,null,,,,,,,,,,,,,,,,,,,
1396.3999999985099,,realistic_rating,1012141,Decatur,,53,Decatur,5,,,,,,,,,,,,,,,,,
null,,confidence_buffer,1012242,confidence_buffer,,null,,,,,,,,,,,,,,,,,,,
1976.7999999970198,,pt2_unique_rating,1014219,Decatur,,53,,5,,,,,,,,,,,,,,,,,
null,,confidence_buffer,1014325,confidence_buffer,,null,,,,,,,,,,,,,,,,,,,
868,,pt2_memorable_rating,1015194,Decatur,,53,,5,,,,,,,,,,,,,,,,,
null,,confidence_buffer,1015295,confidence_buffer,,null,,,,,,,,,,,,,,,,,,,
1240.7999999970198,,recognition_phase,1016536,Decatur,,49,,,,,old,1,0.94,,,,,,,,,,,,
null,,confidence_buffer,1016638,confidence_buffer,,null,,,,,,,,,,,,,,,,,,,
null,,thebreak,1017139,break,,null,,,,,,,,,,,,,,,,,,,
,,survey,1197812,survey-questions,,,,,,,,,,none,high,No,I just have a pretty good memory in general.,What I've heard of; or sounded similar to cities I've heard of.,Names that are not very common or there's a lot of history linked to the name,Those that aren't commonly used in the English day to day conversation,I imagined myself thinking of all cities of the U.S. and thought if it sounded possible ,no,no,,
11345.40000000596,,thank_you,1209169,all_done,,32,,,,,,,,,,,,,,,,,,2,0
