rt,responses,trial_type,time_elapsed,stimulus,button_pressed,key_press,name_trial,rating,probe,probe_accuracy,response,correct,accuracy,problems,smooth,distraction,strategies,familiar,memorable,unique,realistic,similar,comments
5053.300000000745,{worker_id:660d93e761fbbc2c4bd8e758},id_enter,5060,,,,,,,,,,,,,,,,,,,,
53525,,fullscreen,58598,fullscreen,0,,,,,,,,,,,,,,,,,,
21357.200000001118,,intro_0,79960,instruct,,32,,,,,,,,,,,,,,,,,
21713.599999999627,,intro_1,101679,instruct,,32,,,,,,,,,,,,,,,,,
5964.5999999996275,,intro_2,107646,instruct,,32,,,,,,,,,,,,,,,,,
null,,instruct_dir_4,109148,instruct,,null,,,,,,,,,,,,,,,,,
null,,thebreak,109651,break,,null,,,,,,,,,,,,,,,,,
8029.4000000003725,,familiar_rating,117683,Decatur,,52,Decatur,4,,,,,,,,,,,,,,,
null,,confidence_buffer,117785,confidence_buffer,,null,,,,,,,,,,,,,,,,,
6127.799999998882,,unique_rating,123916,Decatur,,51,,3,,,,,,,,,,,,,,,
null,,confidence_buffer,124019,confidence_buffer,,null,,,,,,,,,,,,,,,,,
3142.699999999255,,memorable_rating,127164,Decatur,,52,,4,,,,,,,,,,,,,,,
null,,confidence_buffer,127267,confidence_buffer,,null,,,,,,,,,,,,,,,,,
null,,thebreak,127769,break,,null,,,,,,,,,,,,,,,,,
3268.5,,familiar_rating,131039,Boise,,53,Boise,5,,,,,,,,,,,,,,,
null,,confidence_buffer,131142,confidence_buffer,,null,,,,,,,,,,,,,,,,,
2456.5,,unique_rating,133600,Boise,,50,,2,,,,,,,,,,,,,,,
null,,confidence_buffer,133703,confidence_buffer,,null,,,,,,,,,,,,,,,,,
2691.39999999851,,memorable_rating,136396,Boise,,52,,4,,,,,,,,,,,,,,,
null,,confidence_buffer,136499,confidence_buffer,,null,,,,,,,,,,,,,,,,,
null,,thebreak,137000,break,,null,,,,,,,,,,,,,,,,,
2855.5999999996275,,familiar_rating,139858,Fargo,,53,Fargo,5,,,,,,,,,,,,,,,
null,,confidence_buffer,139960,confidence_buffer,,null,,,,,,,,,,,,,,,,,
5790.0999999996275,,unique_rating,145752,Fargo,,50,,2,,,,,,,,,,,,,,,
null,,confidence_buffer,145855,confidence_buffer,,null,,,,,,,,,,,,,,,,,
4168.300000000745,,memorable_rating,150026,Fargo,,53,,5,,,,,,,,,,,,,,,
null,,confidence_buffer,150129,confidence_buffer,,null,,,,,,,,,,,,,,,,,
null,,thebreak,150631,break,,null,,,,,,,,,,,,,,,,,
2726.5,,familiar_rating,153360,Olympia,,51,Olympia,3,,,,,,,,,,,,,,,
null,,confidence_buffer,153462,confidence_buffer,,null,,,,,,,,,,,,,,,,,
4501.0999999996275,,unique_rating,157965,Olympia,,49,,1,,,,,,,,,,,,,,,
null,,confidence_buffer,158066,confidence_buffer,,null,,,,,,,,,,,,,,,,,
4850.9000000003725,,probe_rating,162919,probe_rating,,50,,,2,1,,,,,,,,,,,,,
null,,confidence_buffer,163023,confidence_buffer,,null,,,,,,,,,,,,,,,,,
3289.2000000011176,,memorable_rating,166315,Olympia,,49,,1,,,,,,,,,,,,,,,
null,,confidence_buffer,166417,confidence_buffer,,null,,,,,,,,,,,,,,,,,
null,,thebreak,166919,break,,null,,,,,,,,,,,,,,,,,
7001.799999998882,,familiar_rating,173922,Altoona,,49,Altoona,1,,,,,,,,,,,,,,,
null,,confidence_buffer,174025,confidence_buffer,,null,,,,,,,,,,,,,,,,,
3169.7999999988824,,unique_rating,177196,Altoona,,51,,3,,,,,,,,,,,,,,,
null,,confidence_buffer,177299,confidence_buffer,,null,,,,,,,,,,,,,,,,,
2680.5,,memorable_rating,179981,Altoona,,49,,1,,,,,,,,,,,,,,,
null,,confidence_buffer,180087,confidence_buffer,,null,,,,,,,,,,,,,,,,,
null,,thebreak,180589,break,,null,,,,,,,,,,,,,,,,,
4784.699999999255,,familiar_rating,185375,Bellingham,,49,Bellingham,1,,,,,,,,,,,,,,,
null,,confidence_buffer,185478,confidence_buffer,,null,,,,,,,,,,,,,,,,,
1985.4000000003725,,unique_rating,187465,Bellingham,,50,,2,,,,,,,,,,,,,,,
null,,confidence_buffer,187568,confidence_buffer,,null,,,,,,,,,,,,,,,,,
3757.10000000149,,memorable_rating,191328,Bellingham,,49,,1,,,,,,,,,,,,,,,
null,,confidence_buffer,191430,confidence_buffer,,null,,,,,,,,,,,,,,,,,
null,,thebreak,191932,break,,null,,,,,,,,,,,,,,,,,
6971.5999999996275,,familiar_rating,198906,Stamford,,51,Stamford,3,,,,,,,,,,,,,,,
null,,confidence_buffer,199008,confidence_buffer,,null,,,,,,,,,,,,,,,,,
2126.0999999996275,,unique_rating,201136,Stamford,,51,,3,,,,,,,,,,,,,,,
null,,confidence_buffer,201239,confidence_buffer,,null,,,,,,,,,,,,,,,,,
3370,,memorable_rating,204611,Stamford,,51,,3,,,,,,,,,,,,,,,
null,,confidence_buffer,204713,confidence_buffer,,null,,,,,,,,,,,,,,,,,
null,,thebreak,205215,break,,null,,,,,,,,,,,,,,,,,
7567.199999999255,,familiar_rating,212784,Santa Monica,,52,Santa Monica,4,,,,,,,,,,,,,,,
null,,confidence_buffer,212886,confidence_buffer,,null,,,,,,,,,,,,,,,,,
3164.800000000745,,unique_rating,216053,Santa Monica,,51,,3,,,,,,,,,,,,,,,
null,,confidence_buffer,216155,confidence_buffer,,null,,,,,,,,,,,,,,,,,
2781.699999999255,,memorable_rating,218938,Santa Monica,,51,,3,,,,,,,,,,,,,,,
null,,confidence_buffer,219041,confidence_buffer,,null,,,,,,,,,,,,,,,,,
null,,thebreak,219543,break,,null,,,,,,,,,,,,,,,,,
3652.4000000003725,,familiar_rating,223197,Boulder,,52,Boulder,4,,,,,,,,,,,,,,,
null,,confidence_buffer,223300,confidence_buffer,,null,,,,,,,,,,,,,,,,,
2260.4000000003725,,unique_rating,225562,Boulder,,51,,3,,,,,,,,,,,,,,,
null,,confidence_buffer,225665,confidence_buffer,,null,,,,,,,,,,,,,,,,,
2096.199999999255,,memorable_rating,227763,Boulder,,51,,3,,,,,,,,,,,,,,,
null,,confidence_buffer,227865,confidence_buffer,,null,,,,,,,,,,,,,,,,,
null,,thebreak,228367,break,,null,,,,,,,,,,,,,,,,,
2537.5,,familiar_rating,230906,Annapolis,,52,Annapolis,4,,,,,,,,,,,,,,,
null,,confidence_buffer,231009,confidence_buffer,,null,,,,,,,,,,,,,,,,,
1712.2999999988824,,unique_rating,232723,Annapolis,,51,,3,,,,,,,,,,,,,,,
null,,confidence_buffer,232825,confidence_buffer,,null,,,,,,,,,,,,,,,,,
1523,,memorable_rating,234350,Annapolis,,51,,3,,,,,,,,,,,,,,,
null,,confidence_buffer,234453,confidence_buffer,,null,,,,,,,,,,,,,,,,,
null,,thebreak,234956,break,,null,,,,,,,,,,,,,,,,,
3201.5,,familiar_rating,238159,Peoria,,51,Peoria,3,,,,,,,,,,,,,,,
null,,confidence_buffer,238264,confidence_buffer,,null,,,,,,,,,,,,,,,,,
1566.9000000003725,,unique_rating,239833,Peoria,,50,,2,,,,,,,,,,,,,,,
null,,confidence_buffer,239935,confidence_buffer,,null,,,,,,,,,,,,,,,,,
1164.9000000003725,,memorable_rating,241102,Peoria,,51,,3,,,,,,,,,,,,,,,
null,,confidence_buffer,241204,confidence_buffer,,null,,,,,,,,,,,,,,,,,
null,,thebreak,241706,break,,null,,,,,,,,,,,,,,,,,
2999.4000000003725,,familiar_rating,244708,Montpelier,,53,Montpelier,5,,,,,,,,,,,,,,,
null,,confidence_buffer,244810,confidence_buffer,,null,,,,,,,,,,,,,,,,,
2165,,probe_rating,246977,probe_rating,,49,,,1,1,,,,,,,,,,,,,
null,,confidence_buffer,247079,confidence_buffer,,null,,,,,,,,,,,,,,,,,
3151.5999999996275,,unique_rating,250233,Montpelier,,51,,3,,,,,,,,,,,,,,,
null,,confidence_buffer,250335,confidence_buffer,,null,,,,,,,,,,,,,,,,,
3116.5,,memorable_rating,253454,Montpelier,,51,,3,,,,,,,,,,,,,,,
null,,confidence_buffer,253556,confidence_buffer,,null,,,,,,,,,,,,,,,,,
null,,thebreak,254058,break,,null,,,,,,,,,,,,,,,,,
3528.199999999255,,familiar_rating,257588,McKinney,,49,McKinney,1,,,,,,,,,,,,,,,
null,,confidence_buffer,257691,confidence_buffer,,null,,,,,,,,,,,,,,,,,
1591.5,,unique_rating,259284,McKinney,,49,,1,,,,,,,,,,,,,,,
null,,confidence_buffer,259387,confidence_buffer,,null,,,,,,,,,,,,,,,,,
1286.300000000745,,memorable_rating,260675,McKinney,,49,,1,,,,,,,,,,,,,,,
null,,confidence_buffer,260777,confidence_buffer,,null,,,,,,,,,,,,,,,,,
null,,thebreak,261279,break,,null,,,,,,,,,,,,,,,,,
3394.0999999996275,,familiar_rating,264675,Topeka,,53,Topeka,5,,,,,,,,,,,,,,,
null,,confidence_buffer,264777,confidence_buffer,,null,,,,,,,,,,,,,,,,,
3512.0999999996275,,unique_rating,268291,Topeka,,52,,4,,,,,,,,,,,,,,,
null,,confidence_buffer,268393,confidence_buffer,,null,,,,,,,,,,,,,,,,,
2260,,probe_rating,270655,probe_rating,,53,,,5,1,,,,,,,,,,,,,
null,,confidence_buffer,270757,confidence_buffer,,null,,,,,,,,,,,,,,,,,
2619.7999999988824,,memorable_rating,273379,Topeka,,52,,4,,,,,,,,,,,,,,,
null,,confidence_buffer,273481,confidence_buffer,,null,,,,,,,,,,,,,,,,,
null,,thebreak,273983,break,,null,,,,,,,,,,,,,,,,,
4564.4000000003725,,familiar_rating,278549,Hagerstown,,52,Hagerstown,4,,,,,,,,,,,,,,,
null,,confidence_buffer,278650,confidence_buffer,,null,,,,,,,,,,,,,,,,,
6365.300000000745,,unique_rating,285018,Hagerstown,,51,,3,,,,,,,,,,,,,,,
null,,confidence_buffer,285120,confidence_buffer,,null,,,,,,,,,,,,,,,,,
1388.800000000745,,memorable_rating,286511,Hagerstown,,52,,4,,,,,,,,,,,,,,,
null,,confidence_buffer,286613,confidence_buffer,,null,,,,,,,,,,,,,,,,,
null,,thebreak,287115,break,,null,,,,,,,,,,,,,,,,,
4145.9000000003725,,familiar_rating,291263,Terre Haute,,53,Terre Haute,5,,,,,,,,,,,,,,,
null,,confidence_buffer,291365,confidence_buffer,,null,,,,,,,,,,,,,,,,,
2361.7999999988824,,unique_rating,293729,Terre Haute,,51,,3,,,,,,,,,,,,,,,
null,,confidence_buffer,293831,confidence_buffer,,null,,,,,,,,,,,,,,,,,
2719.60000000149,,memorable_rating,296553,Terre Haute,,52,,4,,,,,,,,,,,,,,,
null,,confidence_buffer,296656,confidence_buffer,,null,,,,,,,,,,,,,,,,,
null,,thebreak,297157,break,,null,,,,,,,,,,,,,,,,,
14852.699999999255,,familiar_rating,312012,Reno,,53,Reno,5,,,,,,,,,,,,,,,
null,,confidence_buffer,312114,confidence_buffer,,null,,,,,,,,,,,,,,,,,
3610.199999999255,,unique_rating,315726,Reno,,53,,5,,,,,,,,,,,,,,,
null,,confidence_buffer,315829,confidence_buffer,,null,,,,,,,,,,,,,,,,,
1342.699999999255,,memorable_rating,317173,Reno,,53,,5,,,,,,,,,,,,,,,
null,,confidence_buffer,317277,confidence_buffer,,null,,,,,,,,,,,,,,,,,
null,,thebreak,317778,break,,null,,,,,,,,,,,,,,,,,
4375.4000000003725,,familiar_rating,322156,Champaign,,52,Champaign,4,,,,,,,,,,,,,,,
null,,confidence_buffer,322258,confidence_buffer,,null,,,,,,,,,,,,,,,,,
1798.800000000745,,unique_rating,324059,Champaign,,52,,4,,,,,,,,,,,,,,,
null,,confidence_buffer,324162,confidence_buffer,,null,,,,,,,,,,,,,,,,,
1226.0999999996275,,memorable_rating,325390,Champaign,,52,,4,,,,,,,,,,,,,,,
null,,confidence_buffer,325492,confidence_buffer,,null,,,,,,,,,,,,,,,,,
null,,thebreak,325993,break,,null,,,,,,,,,,,,,,,,,
4626.300000000745,,familiar_rating,330621,Fort Collins,,49,Fort Collins,1,,,,,,,,,,,,,,,
null,,confidence_buffer,330724,confidence_buffer,,null,,,,,,,,,,,,,,,,,
2925.300000000745,,unique_rating,333652,Fort Collins,,50,,2,,,,,,,,,,,,,,,
null,,confidence_buffer,333754,confidence_buffer,,null,,,,,,,,,,,,,,,,,
2006.800000000745,,memorable_rating,335763,Fort Collins,,49,,1,,,,,,,,,,,,,,,
null,,confidence_buffer,335865,confidence_buffer,,null,,,,,,,,,,,,,,,,,
null,,thebreak,336366,break,,null,,,,,,,,,,,,,,,,,
2826.5,,familiar_rating,339195,Yakima,,50,Yakima,2,,,,,,,,,,,,,,,
null,,confidence_buffer,339297,confidence_buffer,,null,,,,,,,,,,,,,,,,,
2277.5999999996275,,probe_rating,341577,probe_rating,,49,,,1,1,,,,,,,,,,,,,
null,,confidence_buffer,341679,confidence_buffer,,null,,,,,,,,,,,,,,,,,
1929,,unique_rating,343610,Yakima,,50,,2,,,,,,,,,,,,,,,
null,,confidence_buffer,343712,confidence_buffer,,null,,,,,,,,,,,,,,,,,
3165,,memorable_rating,346879,Yakima,,50,,2,,,,,,,,,,,,,,,
null,,confidence_buffer,346981,confidence_buffer,,null,,,,,,,,,,,,,,,,,
null,,thebreak,347484,break,,null,,,,,,,,,,,,,,,,,
7928.9000000003725,,familiar_rating,355416,Carson City,,53,Carson City,5,,,,,,,,,,,,,,,
null,,confidence_buffer,355518,confidence_buffer,,null,,,,,,,,,,,,,,,,,
18075.800000000745,,unique_rating,373596,Carson City,,52,,4,,,,,,,,,,,,,,,
null,,confidence_buffer,373698,confidence_buffer,,null,,,,,,,,,,,,,,,,,
1747.199999999255,,memorable_rating,375447,Carson City,,53,,5,,,,,,,,,,,,,,,
null,,confidence_buffer,375549,confidence_buffer,,null,,,,,,,,,,,,,,,,,
1983.7999999988824,,probe_rating,377535,probe_rating,,52,,,4,1,,,,,,,,,,,,,
null,,confidence_buffer,377637,confidence_buffer,,null,,,,,,,,,,,,,,,,,
null,,thebreak,378139,break,,null,,,,,,,,,,,,,,,,,
3723.800000000745,,familiar_rating,381865,Palo Alto,,53,Palo Alto,5,,,,,,,,,,,,,,,
null,,confidence_buffer,381967,confidence_buffer,,null,,,,,,,,,,,,,,,,,
1880.7000000011176,,unique_rating,383850,Palo Alto,,53,,5,,,,,,,,,,,,,,,
null,,confidence_buffer,383952,confidence_buffer,,null,,,,,,,,,,,,,,,,,
2070.9000000003725,,probe_rating,386025,probe_rating,,53,,,5,1,,,,,,,,,,,,,
null,,confidence_buffer,386128,confidence_buffer,,null,,,,,,,,,,,,,,,,,
1298.300000000745,,memorable_rating,387428,Palo Alto,,53,,5,,,,,,,,,,,,,,,
null,,confidence_buffer,387531,confidence_buffer,,null,,,,,,,,,,,,,,,,,
null,,thebreak,388033,break,,null,,,,,,,,,,,,,,,,,
2523.5999999996275,,familiar_rating,390558,Abilene,,52,Abilene,4,,,,,,,,,,,,,,,
null,,confidence_buffer,390661,confidence_buffer,,null,,,,,,,,,,,,,,,,,
1947.4000000003725,,unique_rating,392610,Abilene,,52,,4,,,,,,,,,,,,,,,
null,,confidence_buffer,392714,confidence_buffer,,null,,,,,,,,,,,,,,,,,
1340,,memorable_rating,394056,Abilene,,52,,4,,,,,,,,,,,,,,,
null,,confidence_buffer,394158,confidence_buffer,,null,,,,,,,,,,,,,,,,,
1691.0999999996275,,probe_rating,395851,probe_rating,,49,,,1,1,,,,,,,,,,,,,
null,,confidence_buffer,395953,confidence_buffer,,null,,,,,,,,,,,,,,,,,
null,,thebreak,396455,break,,null,,,,,,,,,,,,,,,,,
2312.2999999988824,,familiar_rating,398769,Cheyenne,,53,Cheyenne,5,,,,,,,,,,,,,,,
null,,confidence_buffer,398873,confidence_buffer,,null,,,,,,,,,,,,,,,,,
1932.4000000003725,,probe_rating,400808,probe_rating,,50,,,2,1,,,,,,,,,,,,,
null,,confidence_buffer,400910,confidence_buffer,,null,,,,,,,,,,,,,,,,,
1815.0999999996275,,unique_rating,402727,Cheyenne,,53,,5,,,,,,,,,,,,,,,
null,,confidence_buffer,402830,confidence_buffer,,null,,,,,,,,,,,,,,,,,
1069.7999999988824,,memorable_rating,403902,Cheyenne,,53,,5,,,,,,,,,,,,,,,
null,,confidence_buffer,404004,confidence_buffer,,null,,,,,,,,,,,,,,,,,
null,,thebreak,404506,break,,null,,,,,,,,,,,,,,,,,
3819.7000000011176,,familiar_rating,408328,Frankfort,,50,Frankfort,2,,,,,,,,,,,,,,,
null,,confidence_buffer,408430,confidence_buffer,,null,,,,,,,,,,,,,,,,,
2471.300000000745,,unique_rating,410904,Frankfort,,50,,2,,,,,,,,,,,,,,,
null,,confidence_buffer,411006,confidence_buffer,,null,,,,,,,,,,,,,,,,,
1527.9000000003725,,memorable_rating,412536,Frankfort,,50,,2,,,,,,,,,,,,,,,
null,,confidence_buffer,412638,confidence_buffer,,null,,,,,,,,,,,,,,,,,
null,,thebreak,413139,break,,null,,,,,,,,,,,,,,,,,
5994.9000000003725,,intro_0,419136,instruct,,32,,,,,,,,,,,,,,,,,
8313,,intro_1,427450,instruct,,32,,,,,,,,,,,,,,,,,
15290.89999999851,,intro_2,442742,instruct,,32,,,,,,,,,,,,,,,,,
null,,instruct_dir_4,444244,instruct,,null,,,,,,,,,,,,,,,,,
7285.0999999996275,,realistic_rating,451531,Bellingham,,50,Bellingham,2,,,,,,,,,,,,,,,
null,,confidence_buffer,451635,confidence_buffer,,null,,,,,,,,,,,,,,,,,
3057.300000000745,,probe_rating,454694,probe_rating,,53,,,5,1,,,,,,,,,,,,,
null,,confidence_buffer,454796,confidence_buffer,,null,,,,,,,,,,,,,,,,,
2751.5,,pt2_unique_rating,457550,Bellingham,,50,,2,,,,,,,,,,,,,,,
null,,confidence_buffer,457652,confidence_buffer,,null,,,,,,,,,,,,,,,,,
3306.4000000003725,,pt2_memorable_rating,460960,Bellingham,,50,,2,,,,,,,,,,,,,,,
null,,confidence_buffer,461063,confidence_buffer,,null,,,,,,,,,,,,,,,,,
8087.5,,recognition_phase,469153,Bellingham,,51,,,,,new,0,0,,,,,,,,,,
null,,confidence_buffer,469256,confidence_buffer,,null,,,,,,,,,,,,,,,,,
null,,thebreak,469757,break,,null,,,,,,,,,,,,,,,,,
4949.199999999255,,realistic_rating,474709,Boise,,53,Boise,5,,,,,,,,,,,,,,,
null,,confidence_buffer,474811,confidence_buffer,,null,,,,,,,,,,,,,,,,,
2421.5,,pt2_unique_rating,477235,Boise,,52,,4,,,,,,,,,,,,,,,
null,,confidence_buffer,477337,confidence_buffer,,null,,,,,,,,,,,,,,,,,
5950.4000000003725,,pt2_memorable_rating,483290,Boise,,52,,4,,,,,,,,,,,,,,,
null,,confidence_buffer,483392,confidence_buffer,,null,,,,,,,,,,,,,,,,,
2888.5999999996275,,recognition_phase,486282,Boise,,49,,,,,old,1,0.5,,,,,,,,,,
null,,confidence_buffer,486385,confidence_buffer,,null,,,,,,,,,,,,,,,,,
null,,thebreak,486887,break,,null,,,,,,,,,,,,,,,,,
5103.5,,realistic_rating,491993,Carson City,,53,Carson City,5,,,,,,,,,,,,,,,
null,,confidence_buffer,492096,confidence_buffer,,null,,,,,,,,,,,,,,,,,
2022.199999999255,,pt2_unique_rating,494120,Carson City,,53,,5,,,,,,,,,,,,,,,
null,,confidence_buffer,494223,confidence_buffer,,null,,,,,,,,,,,,,,,,,
1480.7999999988824,,pt2_memorable_rating,495706,Carson City,,53,,5,,,,,,,,,,,,,,,
null,,confidence_buffer,495808,confidence_buffer,,null,,,,,,,,,,,,,,,,,
2363.60000000149,,recognition_phase,498174,Carson City,,49,,,,,old,1,0.6666666666666666,,,,,,,,,,
null,,confidence_buffer,498275,confidence_buffer,,null,,,,,,,,,,,,,,,,,
null,,thebreak,498775,break,,null,,,,,,,,,,,,,,,,,
4656.799999998882,,realistic_rating,503433,Ann Arbor,,52,Ann Arbor,4,,,,,,,,,,,,,,,
null,,confidence_buffer,503535,confidence_buffer,,null,,,,,,,,,,,,,,,,,
2382.5,,pt2_unique_rating,505920,Ann Arbor,,52,,4,,,,,,,,,,,,,,,
null,,confidence_buffer,506022,confidence_buffer,,null,,,,,,,,,,,,,,,,,
1896.5999999996275,,pt2_memorable_rating,507921,Ann Arbor,,52,,4,,,,,,,,,,,,,,,
null,,confidence_buffer,508023,confidence_buffer,,null,,,,,,,,,,,,,,,,,
2955.800000000745,,recognition_phase,510981,Ann Arbor,,52,,,,,new,1,0.75,,,,,,,,,,
null,,confidence_buffer,511083,confidence_buffer,,null,,,,,,,,,,,,,,,,,
null,,thebreak,511585,break,,null,,,,,,,,,,,,,,,,,
6752.700000001118,,realistic_rating,518340,Fargo,,53,Fargo,5,,,,,,,,,,,,,,,
null,,confidence_buffer,518442,confidence_buffer,,null,,,,,,,,,,,,,,,,,
2185.300000000745,,pt2_unique_rating,520630,Fargo,,53,,5,,,,,,,,,,,,,,,
null,,confidence_buffer,520732,confidence_buffer,,null,,,,,,,,,,,,,,,,,
1879.9000000003725,,pt2_memorable_rating,522614,Fargo,,53,,5,,,,,,,,,,,,,,,
null,,confidence_buffer,522717,confidence_buffer,,null,,,,,,,,,,,,,,,,,
2920.300000000745,,recognition_phase,525639,Fargo,,49,,,,,old,1,0.8,,,,,,,,,,
null,,confidence_buffer,525741,confidence_buffer,,null,,,,,,,,,,,,,,,,,
null,,thebreak,526243,break,,null,,,,,,,,,,,,,,,,,
7768.0999999996275,,realistic_rating,534014,Dothan,,50,Dothan,2,,,,,,,,,,,,,,,
null,,confidence_buffer,534119,confidence_buffer,,null,,,,,,,,,,,,,,,,,
1860.1000000014901,,pt2_unique_rating,535982,Dothan,,50,,2,,,,,,,,,,,,,,,
null,,confidence_buffer,536084,confidence_buffer,,null,,,,,,,,,,,,,,,,,
3672,,pt2_memorable_rating,539758,Dothan,,50,,2,,,,,,,,,,,,,,,
null,,confidence_buffer,539860,confidence_buffer,,null,,,,,,,,,,,,,,,,,
4124.5999999996275,,recognition_phase,543987,Dothan,,52,,,,,new,1,0.8333333333333334,,,,,,,,,,
null,,confidence_buffer,544089,confidence_buffer,,null,,,,,,,,,,,,,,,,,
null,,thebreak,544591,break,,null,,,,,,,,,,,,,,,,,
10936.199999999255,,realistic_rating,555528,Ithaca,,51,Ithaca,3,,,,,,,,,,,,,,,
null,,confidence_buffer,555631,confidence_buffer,,null,,,,,,,,,,,,,,,,,
2093.5999999996275,,probe_rating,557726,probe_rating,,49,,,1,1,,,,,,,,,,,,,
null,,confidence_buffer,557829,confidence_buffer,,null,,,,,,,,,,,,,,,,,
5044,,pt2_unique_rating,562875,Ithaca,,50,,2,,,,,,,,,,,,,,,
null,,confidence_buffer,562978,confidence_buffer,,null,,,,,,,,,,,,,,,,,
4948.5,,pt2_memorable_rating,567929,Ithaca,,51,,3,,,,,,,,,,,,,,,
null,,confidence_buffer,568031,confidence_buffer,,null,,,,,,,,,,,,,,,,,
4297.4000000003725,,recognition_phase,572331,Ithaca,,51,,,,,new,1,0.8571428571428571,,,,,,,,,,
null,,confidence_buffer,572433,confidence_buffer,,null,,,,,,,,,,,,,,,,,
null,,thebreak,572935,break,,null,,,,,,,,,,,,,,,,,
13280.300000000745,,realistic_rating,586217,Terre Haute,,52,Terre Haute,4,,,,,,,,,,,,,,,
null,,confidence_buffer,586320,confidence_buffer,,null,,,,,,,,,,,,,,,,,
3382.5,,pt2_unique_rating,589704,Terre Haute,,52,,4,,,,,,,,,,,,,,,
null,,confidence_buffer,589807,confidence_buffer,,null,,,,,,,,,,,,,,,,,
1780.8999999985099,,pt2_memorable_rating,591590,Terre Haute,,52,,4,,,,,,,,,,,,,,,
null,,confidence_buffer,591693,confidence_buffer,,null,,,,,,,,,,,,,,,,,
2261.300000000745,,recognition_phase,593956,Terre Haute,,50,,,,,old,1,0.875,,,,,,,,,,
null,,confidence_buffer,594058,confidence_buffer,,null,,,,,,,,,,,,,,,,,
null,,thebreak,594560,break,,null,,,,,,,,,,,,,,,,,
3416.0999999996275,,realistic_rating,597978,Montpelier,,53,Montpelier,5,,,,,,,,,,,,,,,
null,,confidence_buffer,598080,confidence_buffer,,null,,,,,,,,,,,,,,,,,
2600.7999999988824,,pt2_unique_rating,600683,Montpelier,,53,,5,,,,,,,,,,,,,,,
null,,confidence_buffer,600786,confidence_buffer,,null,,,,,,,,,,,,,,,,,
1464.3999999985099,,pt2_memorable_rating,602252,Montpelier,,53,,5,,,,,,,,,,,,,,,
null,,confidence_buffer,602354,confidence_buffer,,null,,,,,,,,,,,,,,,,,
2944.5999999996275,,recognition_phase,605301,Montpelier,,49,,,,,old,1,0.8888888888888888,,,,,,,,,,
null,,confidence_buffer,605404,confidence_buffer,,null,,,,,,,,,,,,,,,,,
null,,thebreak,605905,break,,null,,,,,,,,,,,,,,,,,
3915.9000000003725,,realistic_rating,609823,New Haven,,53,New Haven,5,,,,,,,,,,,,,,,
null,,confidence_buffer,609926,confidence_buffer,,null,,,,,,,,,,,,,,,,,
1628,,probe_rating,611556,probe_rating,,52,,,4,1,,,,,,,,,,,,,
null,,confidence_buffer,611658,confidence_buffer,,null,,,,,,,,,,,,,,,,,
1135.699999999255,,pt2_unique_rating,612796,New Haven,,53,,5,,,,,,,,,,,,,,,
null,,confidence_buffer,612899,confidence_buffer,,null,,,,,,,,,,,,,,,,,
1165.0999999996275,,pt2_memorable_rating,614066,New Haven,,53,,5,,,,,,,,,,,,,,,
null,,confidence_buffer,614169,confidence_buffer,,null,,,,,,,,,,,,,,,,,
2501.300000000745,,recognition_phase,616672,New Haven,,52,,,,,new,1,0.9,,,,,,,,,,
null,,confidence_buffer,616775,confidence_buffer,,null,,,,,,,,,,,,,,,,,
null,,thebreak,617277,break,,null,,,,,,,,,,,,,,,,,
4091.800000000745,,realistic_rating,621371,Fort Wayne,,52,Fort Wayne,4,,,,,,,,,,,,,,,
null,,confidence_buffer,621475,confidence_buffer,,null,,,,,,,,,,,,,,,,,
1638.5,,pt2_unique_rating,623115,Fort Wayne,,52,,4,,,,,,,,,,,,,,,
null,,confidence_buffer,623217,confidence_buffer,,null,,,,,,,,,,,,,,,,,
1590.4000000003725,,pt2_memorable_rating,624810,Fort Wayne,,52,,4,,,,,,,,,,,,,,,
null,,confidence_buffer,624912,confidence_buffer,,null,,,,,,,,,,,,,,,,,
2142.9000000003725,,recognition_phase,627057,Fort Wayne,,51,,,,,new,1,0.9090909090909091,,,,,,,,,,
null,,confidence_buffer,627159,confidence_buffer,,null,,,,,,,,,,,,,,,,,
null,,thebreak,627661,break,,null,,,,,,,,,,,,,,,,,
8378.400000000373,,realistic_rating,636042,Peoria,,51,Peoria,3,,,,,,,,,,,,,,,
null,,confidence_buffer,636144,confidence_buffer,,null,,,,,,,,,,,,,,,,,
2865.199999999255,,probe_rating,639011,probe_rating,,53,,,5,1,,,,,,,,,,,,,
null,,confidence_buffer,639114,confidence_buffer,,null,,,,,,,,,,,,,,,,,
9651.800000000745,,pt2_unique_rating,648768,Peoria,,51,,3,,,,,,,,,,,,,,,
null,,confidence_buffer,648870,confidence_buffer,,null,,,,,,,,,,,,,,,,,
1658.0999999996275,,pt2_memorable_rating,650530,Peoria,,51,,3,,,,,,,,,,,,,,,
null,,confidence_buffer,650632,confidence_buffer,,null,,,,,,,,,,,,,,,,,
2952.699999999255,,recognition_phase,653587,Peoria,,49,,,,,old,1,0.9166666666666666,,,,,,,,,,
null,,confidence_buffer,653689,confidence_buffer,,null,,,,,,,,,,,,,,,,,
null,,thebreak,654191,break,,null,,,,,,,,,,,,,,,,,
3587.2000000011176,,realistic_rating,657780,Helena,,53,Helena,5,,,,,,,,,,,,,,,
null,,confidence_buffer,657883,confidence_buffer,,null,,,,,,,,,,,,,,,,,
16463.200000001118,,pt2_unique_rating,674348,Helena,,53,,5,,,,,,,,,,,,,,,
null,,confidence_buffer,674450,confidence_buffer,,null,,,,,,,,,,,,,,,,,
1956.5,,pt2_memorable_rating,676409,Helena,,53,,5,,,,,,,,,,,,,,,
null,,confidence_buffer,676511,confidence_buffer,,null,,,,,,,,,,,,,,,,,
1686.699999999255,,recognition_phase,678200,Helena,,50,,,,,old,0,0.8461538461538461,,,,,,,,,,
null,,confidence_buffer,678302,confidence_buffer,,null,,,,,,,,,,,,,,,,,
null,,thebreak,678804,break,,null,,,,,,,,,,,,,,,,,
7903,,realistic_rating,686709,Abilene,,53,Abilene,5,,,,,,,,,,,,,,,
null,,confidence_buffer,686811,confidence_buffer,,null,,,,,,,,,,,,,,,,,
7313.0999999996275,,pt2_unique_rating,694127,Abilene,,52,,4,,,,,,,,,,,,,,,
null,,confidence_buffer,694229,confidence_buffer,,null,,,,,,,,,,,,,,,,,
2089.5999999996275,,pt2_memorable_rating,696321,Abilene,,52,,4,,,,,,,,,,,,,,,
null,,confidence_buffer,696423,confidence_buffer,,null,,,,,,,,,,,,,,,,,
2482.2999999988824,,recognition_phase,698908,Abilene,,50,,,,,old,1,0.8571428571428571,,,,,,,,,,
null,,confidence_buffer,699011,confidence_buffer,,null,,,,,,,,,,,,,,,,,
null,,thebreak,699513,break,,null,,,,,,,,,,,,,,,,,
25734.299999998882,,realistic_rating,725249,Palo Alto,,52,Palo Alto,4,,,,,,,,,,,,,,,
null,,confidence_buffer,725352,confidence_buffer,,null,,,,,,,,,,,,,,,,,
1396.800000000745,,pt2_unique_rating,726751,Palo Alto,,52,,4,,,,,,,,,,,,,,,
null,,confidence_buffer,726854,confidence_buffer,,null,,,,,,,,,,,,,,,,,
5398.9000000003725,,pt2_memorable_rating,732255,Palo Alto,,52,,4,,,,,,,,,,,,,,,
null,,confidence_buffer,732357,confidence_buffer,,null,,,,,,,,,,,,,,,,,
1714.0999999996275,,probe_rating,734073,probe_rating,,50,,,2,1,,,,,,,,,,,,,
null,,confidence_buffer,734176,confidence_buffer,,null,,,,,,,,,,,,,,,,,
1945.7999999988824,,recognition_phase,736123,Palo Alto,,49,,,,,old,1,0.8666666666666667,,,,,,,,,,
null,,confidence_buffer,736226,confidence_buffer,,null,,,,,,,,,,,,,,,,,
null,,thebreak,736728,break,,null,,,,,,,,,,,,,,,,,
4517.4000000003725,,realistic_rating,741247,Cheyenne,,53,Cheyenne,5,,,,,,,,,,,,,,,
null,,confidence_buffer,741350,confidence_buffer,,null,,,,,,,,,,,,,,,,,
3285.39999999851,,pt2_unique_rating,744637,Cheyenne,,52,,4,,,,,,,,,,,,,,,
null,,confidence_buffer,744739,confidence_buffer,,null,,,,,,,,,,,,,,,,,
1584.199999999255,,probe_rating,746326,probe_rating,,50,,,2,1,,,,,,,,,,,,,
null,,confidence_buffer,746428,confidence_buffer,,null,,,,,,,,,,,,,,,,,
2684.5999999996275,,pt2_memorable_rating,749115,Cheyenne,,53,,5,,,,,,,,,,,,,,,
null,,confidence_buffer,749217,confidence_buffer,,null,,,,,,,,,,,,,,,,,
2777,,recognition_phase,751996,Cheyenne,,49,,,,,old,1,0.875,,,,,,,,,,
null,,confidence_buffer,752100,confidence_buffer,,null,,,,,,,,,,,,,,,,,
null,,thebreak,752601,break,,null,,,,,,,,,,,,,,,,,
8388.700000001118,,realistic_rating,760992,Youngstown,,51,Youngstown,3,,,,,,,,,,,,,,,
null,,confidence_buffer,761094,confidence_buffer,,null,,,,,,,,,,,,,,,,,
2137.300000000745,,probe_rating,763234,probe_rating,,51,,,3,1,,,,,,,,,,,,,
null,,confidence_buffer,763336,confidence_buffer,,null,,,,,,,,,,,,,,,,,
8265.5,,pt2_unique_rating,771604,Youngstown,,51,,3,,,,,,,,,,,,,,,
null,,confidence_buffer,771706,confidence_buffer,,null,,,,,,,,,,,,,,,,,
1914.199999999255,,pt2_memorable_rating,773622,Youngstown,,51,,3,,,,,,,,,,,,,,,
null,,confidence_buffer,773725,confidence_buffer,,null,,,,,,,,,,,,,,,,,
13448,,recognition_phase,787175,Youngstown,,52,,,,,new,1,0.8823529411764706,,,,,,,,,,
null,,confidence_buffer,787277,confidence_buffer,,null,,,,,,,,,,,,,,,,,
null,,thebreak,787779,break,,null,,,,,,,,,,,,,,,,,
29096.800000000745,,realistic_rating,816879,Dubuque,,52,Dubuque,4,,,,,,,,,,,,,,,
null,,confidence_buffer,816981,confidence_buffer,,null,,,,,,,,,,,,,,,,,
1526.300000000745,,probe_rating,818510,probe_rating,,50,,,2,1,,,,,,,,,,,,,
null,,confidence_buffer,818612,confidence_buffer,,null,,,,,,,,,,,,,,,,,
2603.0999999996275,,pt2_unique_rating,821217,Dubuque,,52,,4,,,,,,,,,,,,,,,
null,,confidence_buffer,821319,confidence_buffer,,null,,,,,,,,,,,,,,,,,
4458.699999999255,,pt2_memorable_rating,825780,Dubuque,,52,,4,,,,,,,,,,,,,,,
null,,confidence_buffer,825883,confidence_buffer,,null,,,,,,,,,,,,,,,,,
3324,,recognition_phase,829209,Dubuque,,52,,,,,new,1,0.8888888888888888,,,,,,,,,,
null,,confidence_buffer,829311,confidence_buffer,,null,,,,,,,,,,,,,,,,,
null,,thebreak,829813,break,,null,,,,,,,,,,,,,,,,,
12180.5,,realistic_rating,841996,Marquette,,51,Marquette,3,,,,,,,,,,,,,,,
null,,confidence_buffer,842098,confidence_buffer,,null,,,,,,,,,,,,,,,,,
4285.0999999996275,,pt2_unique_rating,846385,Marquette,,52,,4,,,,,,,,,,,,,,,
null,,confidence_buffer,846487,confidence_buffer,,null,,,,,,,,,,,,,,,,,
1733.6000000014901,,pt2_memorable_rating,848224,Marquette,,51,,3,,,,,,,,,,,,,,,
null,,confidence_buffer,848327,confidence_buffer,,null,,,,,,,,,,,,,,,,,
2844.7999999988824,,recognition_phase,851174,Marquette,,52,,,,,new,1,0.8947368421052632,,,,,,,,,,
null,,confidence_buffer,851277,confidence_buffer,,null,,,,,,,,,,,,,,,,,
null,,thebreak,851779,break,,null,,,,,,,,,,,,,,,,,
5136.9000000003725,,realistic_rating,856918,Santa Monica,,52,Santa Monica,4,,,,,,,,,,,,,,,
null,,confidence_buffer,857021,confidence_buffer,,null,,,,,,,,,,,,,,,,,
3155.9000000003725,,pt2_unique_rating,860179,Santa Monica,,51,,3,,,,,,,,,,,,,,,
null,,confidence_buffer,860282,confidence_buffer,,null,,,,,,,,,,,,,,,,,
8387.099999999627,,pt2_memorable_rating,868672,Santa Monica,,52,,4,,,,,,,,,,,,,,,
null,,confidence_buffer,868775,confidence_buffer,,null,,,,,,,,,,,,,,,,,
1760.699999999255,,recognition_phase,870538,Santa Monica,,49,,,,,old,1,0.9,,,,,,,,,,
null,,confidence_buffer,870640,confidence_buffer,,null,,,,,,,,,,,,,,,,,
null,,thebreak,871141,break,,null,,,,,,,,,,,,,,,,,
22834.400000000373,,realistic_rating,893978,Champaign,,52,Champaign,4,,,,,,,,,,,,,,,
null,,confidence_buffer,894080,confidence_buffer,,null,,,,,,,,,,,,,,,,,
1620.7999999988824,,pt2_unique_rating,895703,Champaign,,52,,4,,,,,,,,,,,,,,,
null,,confidence_buffer,895805,confidence_buffer,,null,,,,,,,,,,,,,,,,,
2292.2999999988824,,pt2_memorable_rating,898099,Champaign,,53,,5,,,,,,,,,,,,,,,
null,,confidence_buffer,898202,confidence_buffer,,null,,,,,,,,,,,,,,,,,
1645.0999999996275,,recognition_phase,899849,Champaign,,49,,,,,old,1,0.9047619047619048,,,,,,,,,,
null,,confidence_buffer,899951,confidence_buffer,,null,,,,,,,,,,,,,,,,,
null,,thebreak,900453,break,,null,,,,,,,,,,,,,,,,,
5027.5,,realistic_rating,905482,Syracuse,,52,Syracuse,4,,,,,,,,,,,,,,,
null,,confidence_buffer,905585,confidence_buffer,,null,,,,,,,,,,,,,,,,,
1762.199999999255,,probe_rating,907349,probe_rating,,53,,,5,1,,,,,,,,,,,,,
null,,confidence_buffer,907454,confidence_buffer,,null,,,,,,,,,,,,,,,,,
2137.4000000003725,,pt2_unique_rating,909593,Syracuse,,52,,4,,,,,,,,,,,,,,,
null,,confidence_buffer,909696,confidence_buffer,,null,,,,,,,,,,,,,,,,,
3049.199999999255,,pt2_memorable_rating,912747,Syracuse,,52,,4,,,,,,,,,,,,,,,
null,,confidence_buffer,912849,confidence_buffer,,null,,,,,,,,,,,,,,,,,
3250.2999999988824,,recognition_phase,916101,Syracuse,,51,,,,,new,1,0.9090909090909091,,,,,,,,,,
null,,confidence_buffer,916204,confidence_buffer,,null,,,,,,,,,,,,,,,,,
null,,thebreak,916706,break,,null,,,,,,,,,,,,,,,,,
5082.5999999996275,,realistic_rating,921790,Newport News,,52,Newport News,4,,,,,,,,,,,,,,,
null,,confidence_buffer,921892,confidence_buffer,,null,,,,,,,,,,,,,,,,,
1848.2000000011176,,probe_rating,923742,probe_rating,,52,,,4,1,,,,,,,,,,,,,
null,,confidence_buffer,923845,confidence_buffer,,null,,,,,,,,,,,,,,,,,
3333.5,,pt2_unique_rating,927180,Newport News,,53,,5,,,,,,,,,,,,,,,
null,,confidence_buffer,927282,confidence_buffer,,null,,,,,,,,,,,,,,,,,
1480.9000000003725,,pt2_memorable_rating,928765,Newport News,,53,,5,,,,,,,,,,,,,,,
null,,confidence_buffer,928867,confidence_buffer,,null,,,,,,,,,,,,,,,,,
2831.0999999996275,,recognition_phase,931700,Newport News,,52,,,,,new,1,0.9130434782608695,,,,,,,,,,
null,,confidence_buffer,931803,confidence_buffer,,null,,,,,,,,,,,,,,,,,
null,,thebreak,932305,break,,null,,,,,,,,,,,,,,,,,
4254.0999999996275,,realistic_rating,936561,Altoona,,52,Altoona,4,,,,,,,,,,,,,,,
null,,confidence_buffer,936663,confidence_buffer,,null,,,,,,,,,,,,,,,,,
2239.7999999988824,,pt2_unique_rating,938905,Altoona,,52,,4,,,,,,,,,,,,,,,
null,,confidence_buffer,939007,confidence_buffer,,null,,,,,,,,,,,,,,,,,
2994.800000000745,,pt2_memorable_rating,942004,Altoona,,52,,4,,,,,,,,,,,,,,,
null,,confidence_buffer,942106,confidence_buffer,,null,,,,,,,,,,,,,,,,,
1851.5,,recognition_phase,943960,Altoona,,50,,,,,old,1,0.9166666666666666,,,,,,,,,,
null,,confidence_buffer,944062,confidence_buffer,,null,,,,,,,,,,,,,,,,,
null,,thebreak,944564,break,,null,,,,,,,,,,,,,,,,,
11567.099999999627,,realistic_rating,956133,Burlington,,53,Burlington,5,,,,,,,,,,,,,,,
null,,confidence_buffer,956235,confidence_buffer,,null,,,,,,,,,,,,,,,,,
1743,,pt2_unique_rating,957980,Burlington,,53,,5,,,,,,,,,,,,,,,
null,,confidence_buffer,958083,confidence_buffer,,null,,,,,,,,,,,,,,,,,
1396.300000000745,,pt2_memorable_rating,959481,Burlington,,53,,5,,,,,,,,,,,,,,,
null,,confidence_buffer,959583,confidence_buffer,,null,,,,,,,,,,,,,,,,,
5270.5999999996275,,recognition_phase,964856,Burlington,,51,,,,,new,1,0.92,,,,,,,,,,
null,,confidence_buffer,964959,confidence_buffer,,null,,,,,,,,,,,,,,,,,
null,,thebreak,965461,break,,null,,,,,,,,,,,,,,,,,
6061.9000000003725,,realistic_rating,971525,Cambridge,,52,Cambridge,4,,,,,,,,,,,,,,,
null,,confidence_buffer,971628,confidence_buffer,,null,,,,,,,,,,,,,,,,,
1501.199999999255,,pt2_unique_rating,973131,Cambridge,,52,,4,,,,,,,,,,,,,,,
null,,confidence_buffer,973233,confidence_buffer,,null,,,,,,,,,,,,,,,,,
2101.300000000745,,pt2_memorable_rating,975337,Cambridge,,52,,4,,,,,,,,,,,,,,,
null,,confidence_buffer,975439,confidence_buffer,,null,,,,,,,,,,,,,,,,,
3718.0999999996275,,recognition_phase,979160,Cambridge,,52,,,,,new,1,0.9230769230769231,,,,,,,,,,
null,,confidence_buffer,979262,confidence_buffer,,null,,,,,,,,,,,,,,,,,
null,,thebreak,979763,break,,null,,,,,,,,,,,,,,,,,
3949.300000000745,,realistic_rating,983714,Reno,,52,Reno,4,,,,,,,,,,,,,,,
null,,confidence_buffer,983816,confidence_buffer,,null,,,,,,,,,,,,,,,,,
1591.5,,pt2_unique_rating,985409,Reno,,52,,4,,,,,,,,,,,,,,,
null,,confidence_buffer,985512,confidence_buffer,,null,,,,,,,,,,,,,,,,,
2196.7000000011176,,pt2_memorable_rating,987711,Reno,,53,,5,,,,,,,,,,,,,,,
null,,confidence_buffer,987813,confidence_buffer,,null,,,,,,,,,,,,,,,,,
2496.5999999996275,,recognition_phase,990312,Reno,,49,,,,,old,1,0.9259259259259259,,,,,,,,,,
null,,confidence_buffer,990415,confidence_buffer,,null,,,,,,,,,,,,,,,,,
null,,thebreak,990917,break,,null,,,,,,,,,,,,,,,,,
4321.799999998882,,realistic_rating,995240,Scottsdale,,53,Scottsdale,5,,,,,,,,,,,,,,,
null,,confidence_buffer,995343,confidence_buffer,,null,,,,,,,,,,,,,,,,,
1639.699999999255,,pt2_unique_rating,996984,Scottsdale,,53,,5,,,,,,,,,,,,,,,
null,,confidence_buffer,997087,confidence_buffer,,null,,,,,,,,,,,,,,,,,
1239.4000000003725,,pt2_memorable_rating,998328,Scottsdale,,53,,5,,,,,,,,,,,,,,,
null,,confidence_buffer,998429,confidence_buffer,,null,,,,,,,,,,,,,,,,,
3366.199999999255,,recognition_phase,1001796,Scottsdale,,52,,,,,new,1,0.9285714285714286,,,,,,,,,,
null,,confidence_buffer,1001899,confidence_buffer,,null,,,,,,,,,,,,,,,,,
null,,thebreak,1002400,break,,null,,,,,,,,,,,,,,,,,
5236.199999999255,,realistic_rating,1007639,McKinney,,51,McKinney,3,,,,,,,,,,,,,,,
null,,confidence_buffer,1007741,confidence_buffer,,null,,,,,,,,,,,,,,,,,
3971.699999999255,,pt2_unique_rating,1011721,McKinney,,50,,2,,,,,,,,,,,,,,,
null,,confidence_buffer,1011828,confidence_buffer,,null,,,,,,,,,,,,,,,,,
1744.5,,pt2_memorable_rating,1013575,McKinney,,50,,2,,,,,,,,,,,,,,,
null,,confidence_buffer,1013677,confidence_buffer,,null,,,,,,,,,,,,,,,,,
2166,,recognition_phase,1015846,McKinney,,51,,,,,new,0,0.896551724137931,,,,,,,,,,
null,,confidence_buffer,1015949,confidence_buffer,,null,,,,,,,,,,,,,,,,,
null,,thebreak,1016452,break,,null,,,,,,,,,,,,,,,,,
4689.0999999996275,,realistic_rating,1021143,Topeka,,52,Topeka,4,,,,,,,,,,,,,,,
null,,confidence_buffer,1021246,confidence_buffer,,null,,,,,,,,,,,,,,,,,
2096,,pt2_unique_rating,1023345,Topeka,,52,,4,,,,,,,,,,,,,,,
null,,confidence_buffer,1023447,confidence_buffer,,null,,,,,,,,,,,,,,,,,
1382.5,,pt2_memorable_rating,1024832,Topeka,,52,,4,,,,,,,,,,,,,,,
null,,confidence_buffer,1024934,confidence_buffer,,null,,,,,,,,,,,,,,,,,
3141.0999999996275,,recognition_phase,1028078,Topeka,,50,,,,,old,1,0.9,,,,,,,,,,
null,,confidence_buffer,1028181,confidence_buffer,,null,,,,,,,,,,,,,,,,,
null,,thebreak,1028683,break,,null,,,,,,,,,,,,,,,,,
4800.5999999996275,,realistic_rating,1033486,Salem,,50,Salem,2,,,,,,,,,,,,,,,
null,,confidence_buffer,1033593,confidence_buffer,,null,,,,,,,,,,,,,,,,,
1107.699999999255,,pt2_unique_rating,1034703,Salem,,50,,2,,,,,,,,,,,,,,,
null,,confidence_buffer,1034805,confidence_buffer,,null,,,,,,,,,,,,,,,,,
3361.300000000745,,pt2_memorable_rating,1038169,Salem,,52,,4,,,,,,,,,,,,,,,
null,,confidence_buffer,1038271,confidence_buffer,,null,,,,,,,,,,,,,,,,,
1598.3999999985099,,probe_rating,1039872,probe_rating,,50,,,2,1,,,,,,,,,,,,,
null,,confidence_buffer,1039974,confidence_buffer,,null,,,,,,,,,,,,,,,,,
3411.5999999996275,,recognition_phase,1043387,Salem,,51,,,,,new,1,0.9032258064516129,,,,,,,,,,
null,,confidence_buffer,1043489,confidence_buffer,,null,,,,,,,,,,,,,,,,,
null,,thebreak,1043991,break,,null,,,,,,,,,,,,,,,,,
3878.9000000003725,,realistic_rating,1047873,Concord,,51,Concord,3,,,,,,,,,,,,,,,
null,,confidence_buffer,1047976,confidence_buffer,,null,,,,,,,,,,,,,,,,,
1524.2000000011176,,pt2_unique_rating,1049502,Concord,,51,,3,,,,,,,,,,,,,,,
null,,confidence_buffer,1049605,confidence_buffer,,null,,,,,,,,,,,,,,,,,
1036.5999999996275,,pt2_memorable_rating,1050644,Concord,,51,,3,,,,,,,,,,,,,,,
null,,confidence_buffer,1050747,confidence_buffer,,null,,,,,,,,,,,,,,,,,
2348.9000000003725,,recognition_phase,1053098,Concord,,52,,,,,new,1,0.90625,,,,,,,,,,
null,,confidence_buffer,1053202,confidence_buffer,,null,,,,,,,,,,,,,,,,,
null,,thebreak,1053704,break,,null,,,,,,,,,,,,,,,,,
4937.699999999255,,realistic_rating,1058644,Hagerstown,,52,Hagerstown,4,,,,,,,,,,,,,,,
null,,confidence_buffer,1058746,confidence_buffer,,null,,,,,,,,,,,,,,,,,
1504.7999999988824,,pt2_unique_rating,1060253,Hagerstown,,52,,4,,,,,,,,,,,,,,,
null,,confidence_buffer,1060354,confidence_buffer,,null,,,,,,,,,,,,,,,,,
1482.699999999255,,pt2_memorable_rating,1061839,Hagerstown,,52,,4,,,,,,,,,,,,,,,
null,,confidence_buffer,1061942,confidence_buffer,,null,,,,,,,,,,,,,,,,,
1762.5,,recognition_phase,1063707,Hagerstown,,50,,,,,old,1,0.9090909090909091,,,,,,,,,,
null,,confidence_buffer,1063810,confidence_buffer,,null,,,,,,,,,,,,,,,,,
null,,thebreak,1064312,break,,null,,,,,,,,,,,,,,,,,
2897.5999999996275,,realistic_rating,1067212,Muncie,,51,Muncie,3,,,,,,,,,,,,,,,
null,,confidence_buffer,1067315,confidence_buffer,,null,,,,,,,,,,,,,,,,,
1915.300000000745,,pt2_unique_rating,1069232,Muncie,,51,,3,,,,,,,,,,,,,,,
null,,confidence_buffer,1069335,confidence_buffer,,null,,,,,,,,,,,,,,,,,
3034.0999999996275,,pt2_memorable_rating,1072371,Muncie,,51,,3,,,,,,,,,,,,,,,
null,,confidence_buffer,1072473,confidence_buffer,,null,,,,,,,,,,,,,,,,,
5655.5999999996275,,recognition_phase,1078131,Muncie,,52,,,,,new,1,0.9117647058823529,,,,,,,,,,
null,,confidence_buffer,1078234,confidence_buffer,,null,,,,,,,,,,,,,,,,,
null,,thebreak,1078736,break,,null,,,,,,,,,,,,,,,,,
3277.300000000745,,realistic_rating,1082015,Pueblo,,52,Pueblo,4,,,,,,,,,,,,,,,
null,,confidence_buffer,1082117,confidence_buffer,,null,,,,,,,,,,,,,,,,,
1383.300000000745,,pt2_unique_rating,1083503,Pueblo,,52,,4,,,,,,,,,,,,,,,
null,,confidence_buffer,1083605,confidence_buffer,,null,,,,,,,,,,,,,,,,,
1501.9000000003725,,probe_rating,1085108,probe_rating,,50,,,2,1,,,,,,,,,,,,,
null,,confidence_buffer,1085209,confidence_buffer,,null,,,,,,,,,,,,,,,,,
2816.39999999851,,pt2_memorable_rating,1088027,Pueblo,,52,,4,,,,,,,,,,,,,,,
null,,confidence_buffer,1088129,confidence_buffer,,null,,,,,,,,,,,,,,,,,
2111.4000000003725,,recognition_phase,1090243,Pueblo,,52,,,,,new,1,0.9142857142857143,,,,,,,,,,
null,,confidence_buffer,1090346,confidence_buffer,,null,,,,,,,,,,,,,,,,,
null,,thebreak,1090847,break,,null,,,,,,,,,,,,,,,,,
2233.699999999255,,realistic_rating,1093083,Tallahassee,,52,Tallahassee,4,,,,,,,,,,,,,,,
null,,confidence_buffer,1093186,confidence_buffer,,null,,,,,,,,,,,,,,,,,
1337.7999999988824,,pt2_unique_rating,1094526,Tallahassee,,52,,4,,,,,,,,,,,,,,,
null,,confidence_buffer,1094629,confidence_buffer,,null,,,,,,,,,,,,,,,,,
1548.5999999996275,,pt2_memorable_rating,1096180,Tallahassee,,52,,4,,,,,,,,,,,,,,,
null,,confidence_buffer,1096283,confidence_buffer,,null,,,,,,,,,,,,,,,,,
2545.2000000011176,,recognition_phase,1098830,Tallahassee,,52,,,,,new,1,0.9166666666666666,,,,,,,,,,
null,,confidence_buffer,1098933,confidence_buffer,,null,,,,,,,,,,,,,,,,,
null,,thebreak,1099434,break,,null,,,,,,,,,,,,,,,,,
3260.0999999996275,,realistic_rating,1102697,Gainesville,,52,Gainesville,4,,,,,,,,,,,,,,,
null,,confidence_buffer,1102799,confidence_buffer,,null,,,,,,,,,,,,,,,,,
2110.5999999996275,,pt2_unique_rating,1104912,Gainesville,,52,,4,,,,,,,,,,,,,,,
null,,confidence_buffer,1105014,confidence_buffer,,null,,,,,,,,,,,,,,,,,
2095.9000000003725,,pt2_memorable_rating,1107112,Gainesville,,52,,4,,,,,,,,,,,,,,,
null,,confidence_buffer,1107215,confidence_buffer,,null,,,,,,,,,,,,,,,,,
2767.7000000011176,,recognition_phase,1109985,Gainesville,,52,,,,,new,1,0.918918918918919,,,,,,,,,,
null,,confidence_buffer,1110087,confidence_buffer,,null,,,,,,,,,,,,,,,,,
null,,thebreak,1110589,break,,null,,,,,,,,,,,,,,,,,
4777.699999999255,,realistic_rating,1115369,Yakima,,50,Yakima,2,,,,,,,,,,,,,,,
null,,confidence_buffer,1115471,confidence_buffer,,null,,,,,,,,,,,,,,,,,
2261.300000000745,,pt2_unique_rating,1117735,Yakima,,50,,2,,,,,,,,,,,,,,,
null,,confidence_buffer,1117837,confidence_buffer,,null,,,,,,,,,,,,,,,,,
1884.699999999255,,pt2_memorable_rating,1119724,Yakima,,50,,2,,,,,,,,,,,,,,,
null,,confidence_buffer,1119827,confidence_buffer,,null,,,,,,,,,,,,,,,,,
3102,,recognition_phase,1122931,Yakima,,51,,,,,new,0,0.8947368421052632,,,,,,,,,,
null,,confidence_buffer,1123033,confidence_buffer,,null,,,,,,,,,,,,,,,,,
null,,thebreak,1123535,break,,null,,,,,,,,,,,,,,,,,
3147.9000000003725,,realistic_rating,1126685,Decatur,,52,Decatur,4,,,,,,,,,,,,,,,
null,,confidence_buffer,1126788,confidence_buffer,,null,,,,,,,,,,,,,,,,,
2084.4000000003725,,pt2_unique_rating,1128874,Decatur,,52,,4,,,,,,,,,,,,,,,
null,,confidence_buffer,1128977,confidence_buffer,,null,,,,,,,,,,,,,,,,,
2117.800000000745,,pt2_memorable_rating,1131097,Decatur,,51,,3,,,,,,,,,,,,,,,
null,,confidence_buffer,1131199,confidence_buffer,,null,,,,,,,,,,,,,,,,,
1629.0999999996275,,recognition_phase,1132830,Decatur,,49,,,,,old,1,0.8974358974358975,,,,,,,,,,
null,,confidence_buffer,1132933,confidence_buffer,,null,,,,,,,,,,,,,,,,,
null,,thebreak,1133435,break,,null,,,,,,,,,,,,,,,,,
4364.800000000745,,realistic_rating,1137802,Las Cruces,,50,Las Cruces,2,,,,,,,,,,,,,,,
null,,confidence_buffer,1137904,confidence_buffer,,null,,,,,,,,,,,,,,,,,
1911.4000000003725,,pt2_unique_rating,1139818,Las Cruces,,51,,3,,,,,,,,,,,,,,,
null,,confidence_buffer,1139920,confidence_buffer,,null,,,,,,,,,,,,,,,,,
2041.5999999996275,,pt2_memorable_rating,1141964,Las Cruces,,50,,2,,,,,,,,,,,,,,,
null,,confidence_buffer,1142067,confidence_buffer,,null,,,,,,,,,,,,,,,,,
2609.5,,recognition_phase,1144678,Las Cruces,,52,,,,,new,1,0.9,,,,,,,,,,
null,,confidence_buffer,1144781,confidence_buffer,,null,,,,,,,,,,,,,,,,,
null,,thebreak,1145284,break,,null,,,,,,,,,,,,,,,,,
5027,,realistic_rating,1150313,Pasadena,,52,Pasadena,4,,,,,,,,,,,,,,,
null,,confidence_buffer,1150418,confidence_buffer,,null,,,,,,,,,,,,,,,,,
2056.5,,pt2_unique_rating,1152476,Pasadena,,52,,4,,,,,,,,,,,,,,,
null,,confidence_buffer,1152578,confidence_buffer,,null,,,,,,,,,,,,,,,,,
1982.2000000011176,,pt2_memorable_rating,1154563,Pasadena,,52,,4,,,,,,,,,,,,,,,
null,,confidence_buffer,1154665,confidence_buffer,,null,,,,,,,,,,,,,,,,,
2533.39999999851,,recognition_phase,1157200,Pasadena,,52,,,,,new,1,0.9024390243902439,,,,,,,,,,
null,,confidence_buffer,1157303,confidence_buffer,,null,,,,,,,,,,,,,,,,,
null,,thebreak,1157805,break,,null,,,,,,,,,,,,,,,,,
2498.39999999851,,realistic_rating,1160305,Frankfort,,52,Frankfort,4,,,,,,,,,,,,,,,
null,,confidence_buffer,1160408,confidence_buffer,,null,,,,,,,,,,,,,,,,,
5114.4000000003725,,pt2_unique_rating,1165525,Frankfort,,51,,3,,,,,,,,,,,,,,,
null,,confidence_buffer,1165627,confidence_buffer,,null,,,,,,,,,,,,,,,,,
2119,,pt2_memorable_rating,1167749,Frankfort,,51,,3,,,,,,,,,,,,,,,
null,,confidence_buffer,1167851,confidence_buffer,,null,,,,,,,,,,,,,,,,,
2659.199999999255,,recognition_phase,1170512,Frankfort,,50,,,,,old,1,0.9047619047619048,,,,,,,,,,
null,,confidence_buffer,1170615,confidence_buffer,,null,,,,,,,,,,,,,,,,,
null,,thebreak,1171117,break,,null,,,,,,,,,,,,,,,,,
2962.199999999255,,realistic_rating,1174081,Rock Springs,,52,Rock Springs,4,,,,,,,,,,,,,,,
null,,confidence_buffer,1174184,confidence_buffer,,null,,,,,,,,,,,,,,,,,
845,,pt2_unique_rating,1175031,Rock Springs,,52,,4,,,,,,,,,,,,,,,
null,,confidence_buffer,1175133,confidence_buffer,,null,,,,,,,,,,,,,,,,,
24387.799999998882,,pt2_memorable_rating,1199523,Rock Springs,,50,,2,,,,,,,,,,,,,,,
null,,confidence_buffer,1199625,confidence_buffer,,null,,,,,,,,,,,,,,,,,
6269.4000000003725,,recognition_phase,1205897,Rock Springs,,52,,,,,new,1,0.9069767441860465,,,,,,,,,,
null,,confidence_buffer,1206000,confidence_buffer,,null,,,,,,,,,,,,,,,,,
null,,thebreak,1206502,break,,null,,,,,,,,,,,,,,,,,
14263.700000001118,,realistic_rating,1220768,Berkeley,,53,Berkeley,5,,,,,,,,,,,,,,,
null,,confidence_buffer,1220870,confidence_buffer,,null,,,,,,,,,,,,,,,,,
3509.2999999988824,,pt2_unique_rating,1224381,Berkeley,,51,,3,,,,,,,,,,,,,,,
null,,confidence_buffer,1224483,confidence_buffer,,null,,,,,,,,,,,,,,,,,
4657.9000000003725,,pt2_memorable_rating,1229142,Berkeley,,52,,4,,,,,,,,,,,,,,,
null,,confidence_buffer,1229245,confidence_buffer,,null,,,,,,,,,,,,,,,,,
2881.4000000003725,,recognition_phase,1232128,Berkeley,,52,,,,,new,1,0.9090909090909091,,,,,,,,,,
null,,confidence_buffer,1232231,confidence_buffer,,null,,,,,,,,,,,,,,,,,
null,,thebreak,1232733,break,,null,,,,,,,,,,,,,,,,,
5116.199999999255,,realistic_rating,1237851,Annapolis,,52,Annapolis,4,,,,,,,,,,,,,,,
null,,confidence_buffer,1237953,confidence_buffer,,null,,,,,,,,,,,,,,,,,
2354.5,,pt2_unique_rating,1240310,Annapolis,,51,,3,,,,,,,,,,,,,,,
null,,confidence_buffer,1240413,confidence_buffer,,null,,,,,,,,,,,,,,,,,
3851,,pt2_memorable_rating,1244266,Annapolis,,53,,5,,,,,,,,,,,,,,,
null,,confidence_buffer,1244368,confidence_buffer,,null,,,,,,,,,,,,,,,,,
2288.2000000011176,,recognition_phase,1246659,Annapolis,,49,,,,,old,1,0.9111111111111111,,,,,,,,,,
null,,confidence_buffer,1246761,confidence_buffer,,null,,,,,,,,,,,,,,,,,
null,,thebreak,1247263,break,,null,,,,,,,,,,,,,,,,,
7666.700000001118,,realistic_rating,1254932,Athens,,52,Athens,4,,,,,,,,,,,,,,,
null,,confidence_buffer,1255034,confidence_buffer,,null,,,,,,,,,,,,,,,,,
5352.39999999851,,pt2_unique_rating,1260389,Athens,,50,,2,,,,,,,,,,,,,,,
null,,confidence_buffer,1260491,confidence_buffer,,null,,,,,,,,,,,,,,,,,
2176.199999999255,,pt2_memorable_rating,1262669,Athens,,51,,3,,,,,,,,,,,,,,,
null,,confidence_buffer,1262772,confidence_buffer,,null,,,,,,,,,,,,,,,,,
8894.900000000373,,recognition_phase,1271669,Athens,,52,,,,,new,1,0.9130434782608695,,,,,,,,,,
null,,confidence_buffer,1271771,confidence_buffer,,null,,,,,,,,,,,,,,,,,
null,,thebreak,1272273,break,,null,,,,,,,,,,,,,,,,,
7786.300000000745,,realistic_rating,1280062,Boulder,,53,Boulder,5,,,,,,,,,,,,,,,
null,,confidence_buffer,1280165,confidence_buffer,,null,,,,,,,,,,,,,,,,,
2063.5999999996275,,pt2_unique_rating,1282230,Boulder,,52,,4,,,,,,,,,,,,,,,
null,,confidence_buffer,1282333,confidence_buffer,,null,,,,,,,,,,,,,,,,,
6740.199999999255,,pt2_memorable_rating,1289075,Boulder,,53,,5,,,,,,,,,,,,,,,
null,,confidence_buffer,1289178,confidence_buffer,,null,,,,,,,,,,,,,,,,,
2687.7000000011176,,recognition_phase,1291868,Boulder,,49,,,,,old,1,0.9148936170212766,,,,,,,,,,
null,,confidence_buffer,1291970,confidence_buffer,,null,,,,,,,,,,,,,,,,,
null,,thebreak,1292472,break,,null,,,,,,,,,,,,,,,,,
7125.60000000149,,realistic_rating,1299600,Olympia,,53,Olympia,5,,,,,,,,,,,,,,,
null,,confidence_buffer,1299702,confidence_buffer,,null,,,,,,,,,,,,,,,,,
2017.699999999255,,pt2_unique_rating,1301722,Olympia,,52,,4,,,,,,,,,,,,,,,
null,,confidence_buffer,1301824,confidence_buffer,,null,,,,,,,,,,,,,,,,,
2227,,pt2_memorable_rating,1304053,Olympia,,52,,4,,,,,,,,,,,,,,,
null,,confidence_buffer,1304155,confidence_buffer,,null,,,,,,,,,,,,,,,,,
1855.4000000003725,,recognition_phase,1306013,Olympia,,49,,,,,old,1,0.9166666666666666,,,,,,,,,,
null,,confidence_buffer,1306115,confidence_buffer,,null,,,,,,,,,,,,,,,,,
null,,thebreak,1306617,break,,null,,,,,,,,,,,,,,,,,
2942.0999999996275,,realistic_rating,1309561,Stamford,,53,Stamford,5,,,,,,,,,,,,,,,
null,,confidence_buffer,1309664,confidence_buffer,,null,,,,,,,,,,,,,,,,,
3645.5999999996275,,pt2_unique_rating,1313311,Stamford,,52,,4,,,,,,,,,,,,,,,
null,,confidence_buffer,1313414,confidence_buffer,,null,,,,,,,,,,,,,,,,,
1751,,pt2_memorable_rating,1315167,Stamford,,53,,5,,,,,,,,,,,,,,,
null,,confidence_buffer,1315270,confidence_buffer,,null,,,,,,,,,,,,,,,,,
3606.300000000745,,recognition_phase,1318878,Stamford,,51,,,,,new,0,0.8979591836734694,,,,,,,,,,
null,,confidence_buffer,1318981,confidence_buffer,,null,,,,,,,,,,,,,,,,,
null,,thebreak,1319483,break,,null,,,,,,,,,,,,,,,,,
3522.2000000011176,,realistic_rating,1323007,Fort Collins,,51,Fort Collins,3,,,,,,,,,,,,,,,
null,,confidence_buffer,1323109,confidence_buffer,,null,,,,,,,,,,,,,,,,,
2190.2999999988824,,pt2_unique_rating,1325302,Fort Collins,,51,,3,,,,,,,,,,,,,,,
null,,confidence_buffer,1325405,confidence_buffer,,null,,,,,,,,,,,,,,,,,
1993.1000000014901,,probe_rating,1327400,probe_rating,,51,,,3,1,,,,,,,,,,,,,
null,,confidence_buffer,1327504,confidence_buffer,,null,,,,,,,,,,,,,,,,,
2022.2999999988824,,pt2_memorable_rating,1329529,Fort Collins,,51,,3,,,,,,,,,,,,,,,
null,,confidence_buffer,1329631,confidence_buffer,,null,,,,,,,,,,,,,,,,,
1511.6000000014901,,recognition_phase,1331145,Fort Collins,,49,,,,,old,1,0.9,,,,,,,,,,
null,,confidence_buffer,1331248,confidence_buffer,,null,,,,,,,,,,,,,,,,,
null,,thebreak,1331749,break,,null,,,,,,,,,,,,,,,,,
,,survey,1485265,survey-questions,,,,,,,,,,none,high,no,stayed focused,if I had heard of them,if I remembered them,if they were different,if they sounded like a rel city,no,none
