rt,responses,trial_type,time_elapsed,stimulus,button_pressed,key_press,name_trial,rating,probe,probe_accuracy,response,correct,accuracy,problems,smooth,distraction,strategies,familiar,memorable,unique,realistic,similar,comments,detectfocus,warning
4717.699999988079,{worker_id:5c2cb4149461620001c075c2},id_enter,4725,,,,,,,,,,,,,,,,,,,,,,
25828.80000001192,,fullscreen,30564,fullscreen,0,,,,,,,,,,,,,,,,,,,,
5722.600000023842,,intro_0,36290,instruct,,32,,,,,,,,,,,,,,,,,,,
8387.800000011921,,intro_1,44681,instruct,,32,,,,,,,,,,,,,,,,,,,
6318.900000035763,,intro_2,51001,instruct,,32,,,,,,,,,,,,,,,,,,,
null,,instruct_dir_4,52511,instruct,,null,,,,,,,,,,,,,,,,,,,
null,,thebreak,53014,break,,null,,,,,,,,,,,,,,,,,,,
12368.5,,familiar_rating,65385,Palo Alto,,52,Palo Alto,4,,,,,,,,,,,,,,,,,
null,,confidence_buffer,65489,confidence_buffer,,null,,,,,,,,,,,,,,,,,,,
2877.199999988079,,unique_rating,68369,Palo Alto,,52,,4,,,,,,,,,,,,,,,,,
null,,confidence_buffer,68472,confidence_buffer,,null,,,,,,,,,,,,,,,,,,,
2574.5,,memorable_rating,71049,Palo Alto,,53,,5,,,,,,,,,,,,,,,,,
null,,confidence_buffer,71152,confidence_buffer,,null,,,,,,,,,,,,,,,,,,,
null,,thebreak,71654,break,,null,,,,,,,,,,,,,,,,,,,
2960,,familiar_rating,74616,Boulder,,53,Boulder,5,,,,,,,,,,,,,,,,,
null,,confidence_buffer,74720,confidence_buffer,,null,,,,,,,,,,,,,,,,,,,
3688,,unique_rating,78410,Boulder,,50,,2,,,,,,,,,,,,,,,,,
null,,confidence_buffer,78513,confidence_buffer,,null,,,,,,,,,,,,,,,,,,,
3508.800000011921,,memorable_rating,82024,Boulder,,53,,5,,,,,,,,,,,,,,,,,
null,,confidence_buffer,82128,confidence_buffer,,null,,,,,,,,,,,,,,,,,,,
null,,thebreak,82630,break,,null,,,,,,,,,,,,,,,,,,,
3768.900000035763,,familiar_rating,86401,Annapolis,,52,Annapolis,4,,,,,,,,,,,,,,,,,
null,,confidence_buffer,86504,confidence_buffer,,null,,,,,,,,,,,,,,,,,,,
2183.600000023842,,unique_rating,88690,Annapolis,,50,,2,,,,,,,,,,,,,,,,,
null,,confidence_buffer,88794,confidence_buffer,,null,,,,,,,,,,,,,,,,,,,
2588.5,,memorable_rating,91384,Annapolis,,51,,3,,,,,,,,,,,,,,,,,
null,,confidence_buffer,91487,confidence_buffer,,null,,,,,,,,,,,,,,,,,,,
null,,thebreak,92003,break,,null,,,,,,,,,,,,,,,,,,,
3147.699999988079,,familiar_rating,95153,Topeka,,52,Topeka,4,,,,,,,,,,,,,,,,,
null,,confidence_buffer,95266,confidence_buffer,,null,,,,,,,,,,,,,,,,,,,
2354.800000011921,,unique_rating,97624,Topeka,,50,,2,,,,,,,,,,,,,,,,,
null,,confidence_buffer,97727,confidence_buffer,,null,,,,,,,,,,,,,,,,,,,
2135.399999976158,,memorable_rating,99865,Topeka,,51,,3,,,,,,,,,,,,,,,,,
null,,confidence_buffer,99967,confidence_buffer,,null,,,,,,,,,,,,,,,,,,,
null,,thebreak,100470,break,,null,,,,,,,,,,,,,,,,,,,
3407.600000023842,,familiar_rating,103881,Newport News,,49,Newport News,1,,,,,,,,,,,,,,,,,
null,,confidence_buffer,103984,confidence_buffer,,null,,,,,,,,,,,,,,,,,,,
3270.5,,unique_rating,107257,Newport News,,49,,1,,,,,,,,,,,,,,,,,
null,,confidence_buffer,107361,confidence_buffer,,null,,,,,,,,,,,,,,,,,,,
1604.699999988079,,memorable_rating,108969,Newport News,,49,,1,,,,,,,,,,,,,,,,,
null,,confidence_buffer,109071,confidence_buffer,,null,,,,,,,,,,,,,,,,,,,
null,,thebreak,109573,break,,null,,,,,,,,,,,,,,,,,,,
2826.199999988079,,familiar_rating,112401,Pueblo,,53,Pueblo,5,,,,,,,,,,,,,,,,,
null,,confidence_buffer,112506,confidence_buffer,,null,,,,,,,,,,,,,,,,,,,
2900.600000023842,,unique_rating,115409,Pueblo,,51,,3,,,,,,,,,,,,,,,,,
null,,confidence_buffer,115512,confidence_buffer,,null,,,,,,,,,,,,,,,,,,,
1534.699999988079,,memorable_rating,117049,Pueblo,,51,,3,,,,,,,,,,,,,,,,,
null,,confidence_buffer,117152,confidence_buffer,,null,,,,,,,,,,,,,,,,,,,
null,,thebreak,117654,break,,null,,,,,,,,,,,,,,,,,,,
2350.699999988079,,familiar_rating,120006,Cheyenne,,53,Cheyenne,5,,,,,,,,,,,,,,,,,
null,,confidence_buffer,120108,confidence_buffer,,null,,,,,,,,,,,,,,,,,,,
1553.5,,unique_rating,121664,Cheyenne,,50,,2,,,,,,,,,,,,,,,,,
null,,confidence_buffer,121766,confidence_buffer,,null,,,,,,,,,,,,,,,,,,,
1432.699999988079,,memorable_rating,123201,Cheyenne,,51,,3,,,,,,,,,,,,,,,,,
null,,confidence_buffer,123303,confidence_buffer,,null,,,,,,,,,,,,,,,,,,,
null,,thebreak,123806,break,,null,,,,,,,,,,,,,,,,,,,
3934.699999988079,,familiar_rating,127744,Helena,,49,Helena,1,,,,,,,,,,,,,,,,,
null,,confidence_buffer,127847,confidence_buffer,,null,,,,,,,,,,,,,,,,,,,
2150.800000011921,,unique_rating,130000,Helena,,50,,2,,,,,,,,,,,,,,,,,
null,,confidence_buffer,130103,confidence_buffer,,null,,,,,,,,,,,,,,,,,,,
1510.8999999761581,,memorable_rating,131616,Helena,,49,,1,,,,,,,,,,,,,,,,,
null,,confidence_buffer,131728,confidence_buffer,,null,,,,,,,,,,,,,,,,,,,
null,,thebreak,132231,break,,null,,,,,,,,,,,,,,,,,,,
3231,,familiar_rating,135464,Concord,,53,Concord,5,,,,,,,,,,,,,,,,,
null,,confidence_buffer,135566,confidence_buffer,,null,,,,,,,,,,,,,,,,,,,
2353.100000023842,,unique_rating,137921,Concord,,49,,1,,,,,,,,,,,,,,,,,
null,,confidence_buffer,138023,confidence_buffer,,null,,,,,,,,,,,,,,,,,,,
1678.5,,memorable_rating,139704,Concord,,53,,5,,,,,,,,,,,,,,,,,
null,,confidence_buffer,139808,confidence_buffer,,null,,,,,,,,,,,,,,,,,,,
null,,thebreak,140310,break,,null,,,,,,,,,,,,,,,,,,,
2840.7999999523163,,familiar_rating,143153,Ithaca,,51,Ithaca,3,,,,,,,,,,,,,,,,,
null,,confidence_buffer,143256,confidence_buffer,,null,,,,,,,,,,,,,,,,,,,
3871.100000023842,,probe_rating,147129,probe_rating,,52,,,4,1,,,,,,,,,,,,,,,
null,,confidence_buffer,147232,confidence_buffer,,null,,,,,,,,,,,,,,,,,,,
3140.300000011921,,unique_rating,150374,Ithaca,,51,,3,,,,,,,,,,,,,,,,,
null,,confidence_buffer,150477,confidence_buffer,,null,,,,,,,,,,,,,,,,,,,
1896.6000000238419,,memorable_rating,152376,Ithaca,,53,,5,,,,,,,,,,,,,,,,,
null,,confidence_buffer,152479,confidence_buffer,,null,,,,,,,,,,,,,,,,,,,
null,,thebreak,152982,break,,null,,,,,,,,,,,,,,,,,,,
2032.0999999642372,,familiar_rating,155016,Syracuse,,53,Syracuse,5,,,,,,,,,,,,,,,,,
null,,confidence_buffer,155120,confidence_buffer,,null,,,,,,,,,,,,,,,,,,,
3879.099999964237,,unique_rating,159001,Syracuse,,53,,5,,,,,,,,,,,,,,,,,
null,,confidence_buffer,159104,confidence_buffer,,null,,,,,,,,,,,,,,,,,,,
1230.199999988079,,memorable_rating,160337,Syracuse,,53,,5,,,,,,,,,,,,,,,,,
null,,confidence_buffer,160440,confidence_buffer,,null,,,,,,,,,,,,,,,,,,,
null,,thebreak,160942,break,,null,,,,,,,,,,,,,,,,,,,
2143.600000023842,,familiar_rating,163088,Athens,,53,Athens,5,,,,,,,,,,,,,,,,,
null,,confidence_buffer,163206,confidence_buffer,,null,,,,,,,,,,,,,,,,,,,
2793.399999976158,,unique_rating,166001,Athens,,49,,1,,,,,,,,,,,,,,,,,
null,,confidence_buffer,166106,confidence_buffer,,null,,,,,,,,,,,,,,,,,,,
3204.399999976158,,memorable_rating,169313,Athens,,52,,4,,,,,,,,,,,,,,,,,
null,,confidence_buffer,169416,confidence_buffer,,null,,,,,,,,,,,,,,,,,,,
null,,thebreak,169917,break,,null,,,,,,,,,,,,,,,,,,,
2065.7999999523163,,familiar_rating,171985,Reno,,53,Reno,5,,,,,,,,,,,,,,,,,
null,,confidence_buffer,172087,confidence_buffer,,null,,,,,,,,,,,,,,,,,,,
2022.6000000238419,,unique_rating,174112,Reno,,50,,2,,,,,,,,,,,,,,,,,
null,,confidence_buffer,174215,confidence_buffer,,null,,,,,,,,,,,,,,,,,,,
1376.4000000357628,,memorable_rating,175594,Reno,,53,,5,,,,,,,,,,,,,,,,,
null,,confidence_buffer,175697,confidence_buffer,,null,,,,,,,,,,,,,,,,,,,
1517.3999999761581,,probe_rating,177217,probe_rating,,52,,,4,1,,,,,,,,,,,,,,,
null,,confidence_buffer,177320,confidence_buffer,,null,,,,,,,,,,,,,,,,,,,
null,,thebreak,177823,break,,null,,,,,,,,,,,,,,,,,,,
4503.699999988079,,familiar_rating,182329,Peoria,,53,Peoria,5,,,,,,,,,,,,,,,,,
null,,confidence_buffer,182433,confidence_buffer,,null,,,,,,,,,,,,,,,,,,,
2637.599999964237,,unique_rating,185073,Peoria,,51,,3,,,,,,,,,,,,,,,,,
null,,confidence_buffer,185176,confidence_buffer,,null,,,,,,,,,,,,,,,,,,,
2269.800000011921,,memorable_rating,187448,Peoria,,52,,4,,,,,,,,,,,,,,,,,
null,,confidence_buffer,187551,confidence_buffer,,null,,,,,,,,,,,,,,,,,,,
null,,thebreak,188053,break,,null,,,,,,,,,,,,,,,,,,,
2608.400000035763,,familiar_rating,190664,Scottsdale,,53,Scottsdale,5,,,,,,,,,,,,,,,,,
null,,confidence_buffer,190768,confidence_buffer,,null,,,,,,,,,,,,,,,,,,,
1404.699999988079,,unique_rating,192174,Scottsdale,,49,,1,,,,,,,,,,,,,,,,,
null,,confidence_buffer,192278,confidence_buffer,,null,,,,,,,,,,,,,,,,,,,
1897.1000000238419,,memorable_rating,194177,Scottsdale,,49,,1,,,,,,,,,,,,,,,,,
null,,confidence_buffer,194280,confidence_buffer,,null,,,,,,,,,,,,,,,,,,,
null,,thebreak,194782,break,,null,,,,,,,,,,,,,,,,,,,
2935.699999988079,,familiar_rating,197720,Olympia,,49,Olympia,1,,,,,,,,,,,,,,,,,
null,,confidence_buffer,197823,confidence_buffer,,null,,,,,,,,,,,,,,,,,,,
2959.800000011921,,unique_rating,200785,Olympia,,51,,3,,,,,,,,,,,,,,,,,
null,,confidence_buffer,200887,confidence_buffer,,null,,,,,,,,,,,,,,,,,,,
1936.199999988079,,memorable_rating,202825,Olympia,,52,,4,,,,,,,,,,,,,,,,,
null,,confidence_buffer,202927,confidence_buffer,,null,,,,,,,,,,,,,,,,,,,
null,,thebreak,203430,break,,null,,,,,,,,,,,,,,,,,,,
2121,,familiar_rating,205553,Pasadena,,53,Pasadena,5,,,,,,,,,,,,,,,,,
null,,confidence_buffer,205656,confidence_buffer,,null,,,,,,,,,,,,,,,,,,,
2517.800000011921,,unique_rating,208176,Pasadena,,51,,3,,,,,,,,,,,,,,,,,
null,,confidence_buffer,208280,confidence_buffer,,null,,,,,,,,,,,,,,,,,,,
2645.599999964237,,memorable_rating,210927,Pasadena,,51,,3,,,,,,,,,,,,,,,,,
null,,confidence_buffer,211029,confidence_buffer,,null,,,,,,,,,,,,,,,,,,,
null,,thebreak,211532,break,,null,,,,,,,,,,,,,,,,,,,
7922.600000023842,,familiar_rating,219457,Dubuque,,49,Dubuque,1,,,,,,,,,,,,,,,,,
null,,confidence_buffer,219559,confidence_buffer,,null,,,,,,,,,,,,,,,,,,,
1454.8999999761581,,unique_rating,221016,Dubuque,,53,,5,,,,,,,,,,,,,,,,,
null,,confidence_buffer,221118,confidence_buffer,,null,,,,,,,,,,,,,,,,,,,
5704.100000023842,,memorable_rating,226825,Dubuque,,49,,1,,,,,,,,,,,,,,,,,
null,,confidence_buffer,226928,confidence_buffer,,null,,,,,,,,,,,,,,,,,,,
null,,thebreak,227432,break,,null,,,,,,,,,,,,,,,,,,,
2461.699999988079,,familiar_rating,229897,Las Cruces,,49,Las Cruces,1,,,,,,,,,,,,,,,,,
null,,confidence_buffer,230004,confidence_buffer,,null,,,,,,,,,,,,,,,,,,,
2441.199999988079,,unique_rating,232448,Las Cruces,,52,,4,,,,,,,,,,,,,,,,,
null,,confidence_buffer,232567,confidence_buffer,,null,,,,,,,,,,,,,,,,,,,
1543.699999988079,,memorable_rating,234113,Las Cruces,,49,,1,,,,,,,,,,,,,,,,,
null,,confidence_buffer,234216,confidence_buffer,,null,,,,,,,,,,,,,,,,,,,
1814.2000000476837,,probe_rating,236032,probe_rating,,51,,,3,1,,,,,,,,,,,,,,,
null,,confidence_buffer,236135,confidence_buffer,,null,,,,,,,,,,,,,,,,,,,
null,,thebreak,236638,break,,null,,,,,,,,,,,,,,,,,,,
5392,,familiar_rating,242033,Stamford,,50,Stamford,2,,,,,,,,,,,,,,,,,
null,,confidence_buffer,242136,confidence_buffer,,null,,,,,,,,,,,,,,,,,,,
1781.699999988079,,probe_rating,243920,probe_rating,,51,,,3,1,,,,,,,,,,,,,,,
null,,confidence_buffer,244024,confidence_buffer,,null,,,,,,,,,,,,,,,,,,,
4902.600000023842,,unique_rating,248929,Stamford,,51,,3,,,,,,,,,,,,,,,,,
null,,confidence_buffer,249032,confidence_buffer,,null,,,,,,,,,,,,,,,,,,,
1870,,memorable_rating,250904,Stamford,,49,,1,,,,,,,,,,,,,,,,,
null,,confidence_buffer,251007,confidence_buffer,,null,,,,,,,,,,,,,,,,,,,
null,,thebreak,251510,break,,null,,,,,,,,,,,,,,,,,,,
2129.400000035763,,familiar_rating,253642,Terre Haute,,53,Terre Haute,5,,,,,,,,,,,,,,,,,
null,,confidence_buffer,253746,confidence_buffer,,null,,,,,,,,,,,,,,,,,,,
2243.300000011921,,unique_rating,255992,Terre Haute,,53,,5,,,,,,,,,,,,,,,,,
null,,confidence_buffer,256094,confidence_buffer,,null,,,,,,,,,,,,,,,,,,,
864.1999999880791,,memorable_rating,256960,Terre Haute,,53,,5,,,,,,,,,,,,,,,,,
null,,confidence_buffer,257063,confidence_buffer,,null,,,,,,,,,,,,,,,,,,,
null,,thebreak,257566,break,,null,,,,,,,,,,,,,,,,,,,
2384.100000023842,,familiar_rating,259952,Altoona,,49,Altoona,1,,,,,,,,,,,,,,,,,
null,,confidence_buffer,260055,confidence_buffer,,null,,,,,,,,,,,,,,,,,,,
1958.199999988079,,unique_rating,262016,Altoona,,53,,5,,,,,,,,,,,,,,,,,
null,,confidence_buffer,262119,confidence_buffer,,null,,,,,,,,,,,,,,,,,,,
1135.3999999761581,,memorable_rating,263256,Altoona,,49,,1,,,,,,,,,,,,,,,,,
null,,confidence_buffer,263359,confidence_buffer,,null,,,,,,,,,,,,,,,,,,,
null,,thebreak,263862,break,,null,,,,,,,,,,,,,,,,,,,
145080.5,,familiar_rating,408945,Montpelier,,53,Montpelier,5,,,,,,,,,,,,,,,,,
null,,confidence_buffer,409047,confidence_buffer,,null,,,,,,,,,,,,,,,,,,,
1118.4000000357628,,unique_rating,410168,Montpelier,,53,,5,,,,,,,,,,,,,,,,,
null,,confidence_buffer,410271,confidence_buffer,,null,,,,,,,,,,,,,,,,,,,
2623.300000011921,,memorable_rating,412896,Montpelier,,51,,3,,,,,,,,,,,,,,,,,
null,,confidence_buffer,412999,confidence_buffer,,null,,,,,,,,,,,,,,,,,,,
null,,thebreak,413502,break,,null,,,,,,,,,,,,,,,,,,,
2407.5,,familiar_rating,415912,Fort Collins,,49,Fort Collins,1,,,,,,,,,,,,,,,,,
null,,confidence_buffer,416016,confidence_buffer,,null,,,,,,,,,,,,,,,,,,,
2286.800000011921,,unique_rating,418304,Fort Collins,,49,,1,,,,,,,,,,,,,,,,,
null,,confidence_buffer,418407,confidence_buffer,,null,,,,,,,,,,,,,,,,,,,
736.6999999880791,,memorable_rating,419145,Fort Collins,,49,,1,,,,,,,,,,,,,,,,,
null,,confidence_buffer,419248,confidence_buffer,,null,,,,,,,,,,,,,,,,,,,
null,,thebreak,419751,break,,null,,,,,,,,,,,,,,,,,,,
2654.399999976158,,familiar_rating,422408,Champaign,,49,Champaign,1,,,,,,,,,,,,,,,,,
null,,confidence_buffer,422511,confidence_buffer,,null,,,,,,,,,,,,,,,,,,,
1951.1000000238419,,unique_rating,424464,Champaign,,49,,1,,,,,,,,,,,,,,,,,
null,,confidence_buffer,424566,confidence_buffer,,null,,,,,,,,,,,,,,,,,,,
2014.6000000238419,,memorable_rating,426584,Champaign,,53,,5,,,,,,,,,,,,,,,,,
null,,confidence_buffer,426687,confidence_buffer,,null,,,,,,,,,,,,,,,,,,,
null,,thebreak,427189,break,,null,,,,,,,,,,,,,,,,,,,
5210.100000023842,,intro_0,432401,instruct,,32,,,,,,,,,,,,,,,,,,,
8726.5,,intro_1,441129,instruct,,32,,,,,,,,,,,,,,,,,,,
29045.400000035763,,intro_2,470176,instruct,,32,,,,,,,,,,,,,,,,,,,
null,,instruct_dir_4,471679,instruct,,null,,,,,,,,,,,,,,,,,,,
8648.800000011921,,realistic_rating,480329,Ithaca,,53,Ithaca,5,,,,,,,,,,,,,,,,,
null,,confidence_buffer,480433,confidence_buffer,,null,,,,,,,,,,,,,,,,,,,
1580.9000000357628,,pt2_unique_rating,482016,Ithaca,,53,,5,,,,,,,,,,,,,,,,,
null,,confidence_buffer,482119,confidence_buffer,,null,,,,,,,,,,,,,,,,,,,
1462.699999988079,,pt2_memorable_rating,483584,Ithaca,,53,,5,,,,,,,,,,,,,,,,,
null,,confidence_buffer,483688,confidence_buffer,,null,,,,,,,,,,,,,,,,,,,
2804.399999976158,,recognition_phase,486496,Ithaca,,49,,,,,old,1,1,,,,,,,,,,,,
null,,confidence_buffer,486599,confidence_buffer,,null,,,,,,,,,,,,,,,,,,,
null,,thebreak,487102,break,,null,,,,,,,,,,,,,,,,,,,
4343.600000023842,,realistic_rating,491448,Fargo,,52,Fargo,4,,,,,,,,,,,,,,,,,
null,,confidence_buffer,491551,confidence_buffer,,null,,,,,,,,,,,,,,,,,,,
2270.800000011921,,pt2_unique_rating,493824,Fargo,,50,,2,,,,,,,,,,,,,,,,,
null,,confidence_buffer,493928,confidence_buffer,,null,,,,,,,,,,,,,,,,,,,
3294.599999964237,,pt2_memorable_rating,497225,Fargo,,51,,3,,,,,,,,,,,,,,,,,
null,,confidence_buffer,497327,confidence_buffer,,null,,,,,,,,,,,,,,,,,,,
2686.400000035763,,recognition_phase,500016,Fargo,,52,,,,,new,1,1,,,,,,,,,,,,
null,,confidence_buffer,500119,confidence_buffer,,null,,,,,,,,,,,,,,,,,,,
null,,thebreak,500621,break,,null,,,,,,,,,,,,,,,,,,,
2329.099999964237,,realistic_rating,502952,Terre Haute,,53,Terre Haute,5,,,,,,,,,,,,,,,,,
null,,confidence_buffer,503055,confidence_buffer,,null,,,,,,,,,,,,,,,,,,,
2319.599999964237,,pt2_unique_rating,505377,Terre Haute,,53,,5,,,,,,,,,,,,,,,,,
null,,confidence_buffer,505480,confidence_buffer,,null,,,,,,,,,,,,,,,,,,,
998.6000000238419,,pt2_memorable_rating,506480,Terre Haute,,53,,5,,,,,,,,,,,,,,,,,
null,,confidence_buffer,506583,confidence_buffer,,null,,,,,,,,,,,,,,,,,,,
1590.800000011921,,recognition_phase,508176,Terre Haute,,49,,,,,old,1,1,,,,,,,,,,,,
null,,confidence_buffer,508279,confidence_buffer,,null,,,,,,,,,,,,,,,,,,,
null,,thebreak,508781,break,,null,,,,,,,,,,,,,,,,,,,
3648.300000011921,,realistic_rating,512432,Berkeley,,49,Berkeley,1,,,,,,,,,,,,,,,,,
null,,confidence_buffer,512535,confidence_buffer,,null,,,,,,,,,,,,,,,,,,,
2647.399999976158,,pt2_unique_rating,515185,Berkeley,,50,,2,,,,,,,,,,,,,,,,,
null,,confidence_buffer,515288,confidence_buffer,,null,,,,,,,,,,,,,,,,,,,
2709.300000011921,,pt2_memorable_rating,517999,Berkeley,,52,,4,,,,,,,,,,,,,,,,,
null,,confidence_buffer,518100,confidence_buffer,,null,,,,,,,,,,,,,,,,,,,
2280.5,,recognition_phase,520382,Berkeley,,52,,,,,new,1,1,,,,,,,,,,,,
null,,confidence_buffer,520484,confidence_buffer,,null,,,,,,,,,,,,,,,,,,,
null,,thebreak,520985,break,,null,,,,,,,,,,,,,,,,,,,
4092.699999988079,,realistic_rating,525080,Tallahassee,,53,Tallahassee,5,,,,,,,,,,,,,,,,,
null,,confidence_buffer,525183,confidence_buffer,,null,,,,,,,,,,,,,,,,,,,
3240.100000023842,,pt2_unique_rating,528425,Tallahassee,,52,,4,,,,,,,,,,,,,,,,,
null,,confidence_buffer,528528,confidence_buffer,,null,,,,,,,,,,,,,,,,,,,
1381.800000011921,,pt2_memorable_rating,529912,Tallahassee,,53,,5,,,,,,,,,,,,,,,,,
null,,confidence_buffer,530015,confidence_buffer,,null,,,,,,,,,,,,,,,,,,,
3054.300000011921,,recognition_phase,533072,Tallahassee,,52,,,,,new,1,1,,,,,,,,,,,,
null,,confidence_buffer,533175,confidence_buffer,,null,,,,,,,,,,,,,,,,,,,
null,,thebreak,533679,break,,null,,,,,,,,,,,,,,,,,,,
4175.199999988079,,realistic_rating,537856,Cheyenne,,53,Cheyenne,5,,,,,,,,,,,,,,,,,
null,,confidence_buffer,537959,confidence_buffer,,null,,,,,,,,,,,,,,,,,,,
2199.7000000476837,,pt2_unique_rating,540161,Cheyenne,,53,,5,,,,,,,,,,,,,,,,,
null,,confidence_buffer,540265,confidence_buffer,,null,,,,,,,,,,,,,,,,,,,
2349.099999964237,,pt2_memorable_rating,542616,Cheyenne,,52,,4,,,,,,,,,,,,,,,,,
null,,confidence_buffer,542731,confidence_buffer,,null,,,,,,,,,,,,,,,,,,,
1795.6000000238419,,recognition_phase,544528,Cheyenne,,49,,,,,old,1,1,,,,,,,,,,,,
null,,confidence_buffer,544631,confidence_buffer,,null,,,,,,,,,,,,,,,,,,,
null,,thebreak,545135,break,,null,,,,,,,,,,,,,,,,,,,
9949.200000047684,,realistic_rating,555086,Scottsdale,,53,Scottsdale,5,,,,,,,,,,,,,,,,,
null,,confidence_buffer,555189,confidence_buffer,,null,,,,,,,,,,,,,,,,,,,
4617.399999976158,,pt2_unique_rating,559808,Scottsdale,,50,,2,,,,,,,,,,,,,,,,,
null,,confidence_buffer,559911,confidence_buffer,,null,,,,,,,,,,,,,,,,,,,
2254.099999964237,,pt2_memorable_rating,562168,Scottsdale,,53,,5,,,,,,,,,,,,,,,,,
null,,confidence_buffer,562280,confidence_buffer,,null,,,,,,,,,,,,,,,,,,,
2757.300000011921,,recognition_phase,565040,Scottsdale,,52,,,,,new,0,0.8571428571428571,,,,,,,,,,,,
null,,confidence_buffer,565150,confidence_buffer,,null,,,,,,,,,,,,,,,,,,,
null,,thebreak,565654,break,,null,,,,,,,,,,,,,,,,,,,
3313.199999988079,,realistic_rating,568969,Abilene,,53,Abilene,5,,,,,,,,,,,,,,,,,
null,,confidence_buffer,569072,confidence_buffer,,null,,,,,,,,,,,,,,,,,,,
2486,,pt2_unique_rating,571560,Abilene,,52,,4,,,,,,,,,,,,,,,,,
null,,confidence_buffer,571663,confidence_buffer,,null,,,,,,,,,,,,,,,,,,,
1774.800000011921,,pt2_memorable_rating,573440,Abilene,,50,,2,,,,,,,,,,,,,,,,,
null,,confidence_buffer,573543,confidence_buffer,,null,,,,,,,,,,,,,,,,,,,
2542,,recognition_phase,576088,Abilene,,52,,,,,new,1,0.875,,,,,,,,,,,,
null,,confidence_buffer,576190,confidence_buffer,,null,,,,,,,,,,,,,,,,,,,
null,,thebreak,576694,break,,null,,,,,,,,,,,,,,,,,,,
2488.899999976158,,realistic_rating,579185,New Haven,,53,New Haven,5,,,,,,,,,,,,,,,,,
null,,confidence_buffer,579288,confidence_buffer,,null,,,,,,,,,,,,,,,,,,,
3213.199999988079,,pt2_unique_rating,582504,New Haven,,49,,1,,,,,,,,,,,,,,,,,
null,,confidence_buffer,582607,confidence_buffer,,null,,,,,,,,,,,,,,,,,,,
2576.400000035763,,pt2_memorable_rating,585185,New Haven,,52,,4,,,,,,,,,,,,,,,,,
null,,confidence_buffer,585289,confidence_buffer,,null,,,,,,,,,,,,,,,,,,,
3068.100000023842,,recognition_phase,588358,New Haven,,52,,,,,new,1,0.8888888888888888,,,,,,,,,,,,
null,,confidence_buffer,588461,confidence_buffer,,null,,,,,,,,,,,,,,,,,,,
null,,thebreak,588964,break,,null,,,,,,,,,,,,,,,,,,,
2723.2000000476837,,realistic_rating,591689,Carson City,,53,Carson City,5,,,,,,,,,,,,,,,,,
null,,confidence_buffer,591792,confidence_buffer,,null,,,,,,,,,,,,,,,,,,,
2885.900000035763,,pt2_unique_rating,594680,Carson City,,49,,1,,,,,,,,,,,,,,,,,
null,,confidence_buffer,594783,confidence_buffer,,null,,,,,,,,,,,,,,,,,,,
1927.199999988079,,pt2_memorable_rating,596712,Carson City,,51,,3,,,,,,,,,,,,,,,,,
null,,confidence_buffer,596816,confidence_buffer,,null,,,,,,,,,,,,,,,,,,,
2382.5,,recognition_phase,599200,Carson City,,52,,,,,new,1,0.9,,,,,,,,,,,,
null,,confidence_buffer,599303,confidence_buffer,,null,,,,,,,,,,,,,,,,,,,
null,,thebreak,599806,break,,null,,,,,,,,,,,,,,,,,,,
4048.600000023842,,realistic_rating,603857,Bozeman,,49,Bozeman,1,,,,,,,,,,,,,,,,,
null,,confidence_buffer,603959,confidence_buffer,,null,,,,,,,,,,,,,,,,,,,
2983.400000035763,,pt2_unique_rating,606944,Bozeman,,53,,5,,,,,,,,,,,,,,,,,
null,,confidence_buffer,607047,confidence_buffer,,null,,,,,,,,,,,,,,,,,,,
3094.800000011921,,pt2_memorable_rating,610144,Bozeman,,52,,4,,,,,,,,,,,,,,,,,
null,,confidence_buffer,610247,confidence_buffer,,null,,,,,,,,,,,,,,,,,,,
1982.699999988079,,recognition_phase,612232,Bozeman,,52,,,,,new,1,0.9090909090909091,,,,,,,,,,,,
null,,confidence_buffer,612336,confidence_buffer,,null,,,,,,,,,,,,,,,,,,,
null,,thebreak,612838,break,,null,,,,,,,,,,,,,,,,,,,
7047.899999976158,,realistic_rating,619888,Fort Collins,,51,Fort Collins,3,,,,,,,,,,,,,,,,,
null,,confidence_buffer,619991,confidence_buffer,,null,,,,,,,,,,,,,,,,,,,
2014.5,,pt2_unique_rating,622008,Fort Collins,,49,,1,,,,,,,,,,,,,,,,,
null,,confidence_buffer,622124,confidence_buffer,,null,,,,,,,,,,,,,,,,,,,
2506.199999988079,,pt2_memorable_rating,624632,Fort Collins,,49,,1,,,,,,,,,,,,,,,,,
null,,confidence_buffer,624736,confidence_buffer,,null,,,,,,,,,,,,,,,,,,,
2757.800000011921,,recognition_phase,627496,Fort Collins,,51,,,,,new,0,0.8333333333333334,,,,,,,,,,,,
null,,confidence_buffer,627599,confidence_buffer,,null,,,,,,,,,,,,,,,,,,,
null,,thebreak,628101,break,,null,,,,,,,,,,,,,,,,,,,
2424.699999988079,,realistic_rating,630528,Dover,,53,Dover,5,,,,,,,,,,,,,,,,,
null,,confidence_buffer,630631,confidence_buffer,,null,,,,,,,,,,,,,,,,,,,
1863.199999988079,,pt2_unique_rating,632496,Dover,,49,,1,,,,,,,,,,,,,,,,,
null,,confidence_buffer,632600,confidence_buffer,,null,,,,,,,,,,,,,,,,,,,
1862.3999999761581,,probe_rating,634464,probe_rating,,49,,,1,1,,,,,,,,,,,,,,,
null,,confidence_buffer,634567,confidence_buffer,,null,,,,,,,,,,,,,,,,,,,
2631,,pt2_memorable_rating,637200,Dover,,52,,4,,,,,,,,,,,,,,,,,
null,,confidence_buffer,637303,confidence_buffer,,null,,,,,,,,,,,,,,,,,,,
1814.0999999642372,,recognition_phase,639120,Dover,,52,,,,,new,1,0.8461538461538461,,,,,,,,,,,,
null,,confidence_buffer,639222,confidence_buffer,,null,,,,,,,,,,,,,,,,,,,
null,,thebreak,639725,break,,null,,,,,,,,,,,,,,,,,,,
5425.900000035763,,realistic_rating,645154,Newport News,,49,Newport News,1,,,,,,,,,,,,,,,,,
null,,confidence_buffer,645257,confidence_buffer,,null,,,,,,,,,,,,,,,,,,,
3037.600000023842,,pt2_unique_rating,648296,Newport News,,49,,1,,,,,,,,,,,,,,,,,
null,,confidence_buffer,648398,confidence_buffer,,null,,,,,,,,,,,,,,,,,,,
1639.800000011921,,pt2_memorable_rating,650040,Newport News,,51,,3,,,,,,,,,,,,,,,,,
null,,confidence_buffer,650142,confidence_buffer,,null,,,,,,,,,,,,,,,,,,,
3056.100000023842,,recognition_phase,653200,Newport News,,49,,,,,old,1,0.8571428571428571,,,,,,,,,,,,
null,,confidence_buffer,653303,confidence_buffer,,null,,,,,,,,,,,,,,,,,,,
null,,thebreak,653806,break,,null,,,,,,,,,,,,,,,,,,,
3095.5,,realistic_rating,656904,McKinney,,53,McKinney,5,,,,,,,,,,,,,,,,,
null,,confidence_buffer,657007,confidence_buffer,,null,,,,,,,,,,,,,,,,,,,
2422.800000011921,,pt2_unique_rating,659432,McKinney,,50,,2,,,,,,,,,,,,,,,,,
null,,confidence_buffer,659536,confidence_buffer,,null,,,,,,,,,,,,,,,,,,,
1789.6000000238419,,probe_rating,661328,probe_rating,,52,,,4,1,,,,,,,,,,,,,,,
null,,confidence_buffer,661431,confidence_buffer,,null,,,,,,,,,,,,,,,,,,,
5134,,pt2_memorable_rating,666568,McKinney,,52,,4,,,,,,,,,,,,,,,,,
null,,confidence_buffer,666671,confidence_buffer,,null,,,,,,,,,,,,,,,,,,,
2671.900000035763,,recognition_phase,669345,McKinney,,52,,,,,new,1,0.8666666666666667,,,,,,,,,,,,
null,,confidence_buffer,669448,confidence_buffer,,null,,,,,,,,,,,,,,,,,,,
null,,thebreak,669951,break,,null,,,,,,,,,,,,,,,,,,,
5013.400000035763,,realistic_rating,674966,Helena,,53,Helena,5,,,,,,,,,,,,,,,,,
null,,confidence_buffer,675068,confidence_buffer,,null,,,,,,,,,,,,,,,,,,,
2258.099999964237,,pt2_unique_rating,677328,Helena,,50,,2,,,,,,,,,,,,,,,,,
null,,confidence_buffer,677440,confidence_buffer,,null,,,,,,,,,,,,,,,,,,,
2423.5,,pt2_memorable_rating,679865,Helena,,50,,2,,,,,,,,,,,,,,,,,
null,,confidence_buffer,679968,confidence_buffer,,null,,,,,,,,,,,,,,,,,,,
2270.300000011921,,recognition_phase,682240,Helena,,49,,,,,old,1,0.875,,,,,,,,,,,,
null,,confidence_buffer,682343,confidence_buffer,,null,,,,,,,,,,,,,,,,,,,
null,,thebreak,682848,break,,null,,,,,,,,,,,,,,,,,,,
3125.800000011921,,realistic_rating,685976,Dothan,,49,Dothan,1,,,,,,,,,,,,,,,,,
null,,confidence_buffer,686078,confidence_buffer,,null,,,,,,,,,,,,,,,,,,,
2280,,pt2_unique_rating,688360,Dothan,,52,,4,,,,,,,,,,,,,,,,,
null,,confidence_buffer,688464,confidence_buffer,,null,,,,,,,,,,,,,,,,,,,
1381.4000000357628,,pt2_memorable_rating,689848,Dothan,,49,,1,,,,,,,,,,,,,,,,,
null,,confidence_buffer,689959,confidence_buffer,,null,,,,,,,,,,,,,,,,,,,
1918.2000000476837,,recognition_phase,691880,Dothan,,52,,,,,new,1,0.8823529411764706,,,,,,,,,,,,
null,,confidence_buffer,691983,confidence_buffer,,null,,,,,,,,,,,,,,,,,,,
null,,thebreak,692486,break,,null,,,,,,,,,,,,,,,,,,,
4263.900000035763,,realistic_rating,696754,Muncie,,53,Muncie,5,,,,,,,,,,,,,,,,,
null,,confidence_buffer,696858,confidence_buffer,,null,,,,,,,,,,,,,,,,,,,
3635.699999988079,,pt2_unique_rating,700496,Muncie,,52,,4,,,,,,,,,,,,,,,,,
null,,confidence_buffer,700599,confidence_buffer,,null,,,,,,,,,,,,,,,,,,,
2511.2000000476837,,pt2_memorable_rating,703112,Muncie,,50,,2,,,,,,,,,,,,,,,,,
null,,confidence_buffer,703216,confidence_buffer,,null,,,,,,,,,,,,,,,,,,,
2277.2999999523163,,recognition_phase,705496,Muncie,,52,,,,,new,1,0.8888888888888888,,,,,,,,,,,,
null,,confidence_buffer,705598,confidence_buffer,,null,,,,,,,,,,,,,,,,,,,
null,,thebreak,706101,break,,null,,,,,,,,,,,,,,,,,,,
3369.399999976158,,realistic_rating,709472,Decatur,,53,Decatur,5,,,,,,,,,,,,,,,,,
null,,confidence_buffer,709575,confidence_buffer,,null,,,,,,,,,,,,,,,,,,,
2311.099999964237,,pt2_unique_rating,711888,Decatur,,50,,2,,,,,,,,,,,,,,,,,
null,,confidence_buffer,711991,confidence_buffer,,null,,,,,,,,,,,,,,,,,,,
2864.2000000476837,,pt2_memorable_rating,714857,Decatur,,49,,1,,,,,,,,,,,,,,,,,
null,,confidence_buffer,714959,confidence_buffer,,null,,,,,,,,,,,,,,,,,,,
2728.100000023842,,probe_rating,717689,probe_rating,,49,,,1,1,,,,,,,,,,,,,,,
null,,confidence_buffer,717792,confidence_buffer,,null,,,,,,,,,,,,,,,,,,,
2269.699999988079,,recognition_phase,720064,Decatur,,52,,,,,new,1,0.8947368421052632,,,,,,,,,,,,
null,,confidence_buffer,720167,confidence_buffer,,null,,,,,,,,,,,,,,,,,,,
null,,thebreak,720671,break,,null,,,,,,,,,,,,,,,,,,,
6015.699999988079,,realistic_rating,726689,Rock Springs,,53,Rock Springs,5,,,,,,,,,,,,,,,,,
null,,confidence_buffer,726792,confidence_buffer,,null,,,,,,,,,,,,,,,,,,,
2981.2000000476837,,pt2_unique_rating,729776,Rock Springs,,51,,3,,,,,,,,,,,,,,,,,
null,,confidence_buffer,729879,confidence_buffer,,null,,,,,,,,,,,,,,,,,,,
1790.4000000357628,,pt2_memorable_rating,731672,Rock Springs,,53,,5,,,,,,,,,,,,,,,,,
null,,confidence_buffer,731776,confidence_buffer,,null,,,,,,,,,,,,,,,,,,,
2013.8999999761581,,recognition_phase,733792,Rock Springs,,52,,,,,new,1,0.9,,,,,,,,,,,,
null,,confidence_buffer,733896,confidence_buffer,,null,,,,,,,,,,,,,,,,,,,
null,,thebreak,734399,break,,null,,,,,,,,,,,,,,,,,,,
3503.2000000476837,,realistic_rating,737904,Syracuse,,53,Syracuse,5,,,,,,,,,,,,,,,,,
null,,confidence_buffer,738007,confidence_buffer,,null,,,,,,,,,,,,,,,,,,,
3558.600000023842,,pt2_unique_rating,741568,Syracuse,,50,,2,,,,,,,,,,,,,,,,,
null,,confidence_buffer,741671,confidence_buffer,,null,,,,,,,,,,,,,,,,,,,
2806.600000023842,,pt2_memorable_rating,744480,Syracuse,,53,,5,,,,,,,,,,,,,,,,,
null,,confidence_buffer,744582,confidence_buffer,,null,,,,,,,,,,,,,,,,,,,
2503.599999964237,,recognition_phase,747088,Syracuse,,50,,,,,old,1,0.9047619047619048,,,,,,,,,,,,
null,,confidence_buffer,747191,confidence_buffer,,null,,,,,,,,,,,,,,,,,,,
null,,thebreak,747693,break,,null,,,,,,,,,,,,,,,,,,,
3089.300000011921,,realistic_rating,750785,Ann Arbor,,53,Ann Arbor,5,,,,,,,,,,,,,,,,,
null,,confidence_buffer,750888,confidence_buffer,,null,,,,,,,,,,,,,,,,,,,
4028.699999988079,,pt2_unique_rating,754920,Ann Arbor,,52,,4,,,,,,,,,,,,,,,,,
null,,confidence_buffer,755022,confidence_buffer,,null,,,,,,,,,,,,,,,,,,,
2672,,pt2_memorable_rating,757696,Ann Arbor,,53,,5,,,,,,,,,,,,,,,,,
null,,confidence_buffer,757799,confidence_buffer,,null,,,,,,,,,,,,,,,,,,,
2150.2000000476837,,recognition_phase,759952,Ann Arbor,,52,,,,,new,1,0.9090909090909091,,,,,,,,,,,,
null,,confidence_buffer,760055,confidence_buffer,,null,,,,,,,,,,,,,,,,,,,
null,,thebreak,760557,break,,null,,,,,,,,,,,,,,,,,,,
5519.399999976158,,realistic_rating,766079,Gainesville,,53,Gainesville,5,,,,,,,,,,,,,,,,,
null,,confidence_buffer,766180,confidence_buffer,,null,,,,,,,,,,,,,,,,,,,
2074.2999999523163,,pt2_unique_rating,768257,Gainesville,,50,,2,,,,,,,,,,,,,,,,,
null,,confidence_buffer,768360,confidence_buffer,,null,,,,,,,,,,,,,,,,,,,
1989.3999999761581,,pt2_memorable_rating,770352,Gainesville,,51,,3,,,,,,,,,,,,,,,,,
null,,confidence_buffer,770455,confidence_buffer,,null,,,,,,,,,,,,,,,,,,,
1733.199999988079,,recognition_phase,772190,Gainesville,,52,,,,,new,1,0.9130434782608695,,,,,,,,,,,,
null,,confidence_buffer,772293,confidence_buffer,,null,,,,,,,,,,,,,,,,,,,
null,,thebreak,772795,break,,null,,,,,,,,,,,,,,,,,,,
3331.300000011921,,realistic_rating,776129,Boise,,53,Boise,5,,,,,,,,,,,,,,,,,
null,,confidence_buffer,776232,confidence_buffer,,null,,,,,,,,,,,,,,,,,,,
2246.199999988079,,pt2_unique_rating,778480,Boise,,50,,2,,,,,,,,,,,,,,,,,
null,,confidence_buffer,778583,confidence_buffer,,null,,,,,,,,,,,,,,,,,,,
1742.300000011921,,pt2_memorable_rating,780328,Boise,,51,,3,,,,,,,,,,,,,,,,,
null,,confidence_buffer,780431,confidence_buffer,,null,,,,,,,,,,,,,,,,,,,
1429.800000011921,,recognition_phase,781864,Boise,,52,,,,,new,1,0.9166666666666666,,,,,,,,,,,,
null,,confidence_buffer,781967,confidence_buffer,,null,,,,,,,,,,,,,,,,,,,
null,,thebreak,782471,break,,null,,,,,,,,,,,,,,,,,,,
6088.300000011921,,realistic_rating,788561,Concord,,53,Concord,5,,,,,,,,,,,,,,,,,
null,,confidence_buffer,788664,confidence_buffer,,null,,,,,,,,,,,,,,,,,,,
5253.800000011921,,pt2_unique_rating,793920,Concord,,50,,2,,,,,,,,,,,,,,,,,
null,,confidence_buffer,794023,confidence_buffer,,null,,,,,,,,,,,,,,,,,,,
3456.5,,pt2_memorable_rating,797481,Concord,,53,,5,,,,,,,,,,,,,,,,,
null,,confidence_buffer,797583,confidence_buffer,,null,,,,,,,,,,,,,,,,,,,
3022.899999976158,,recognition_phase,800608,Concord,,51,,,,,new,0,0.88,,,,,,,,,,,,
null,,confidence_buffer,800712,confidence_buffer,,null,,,,,,,,,,,,,,,,,,,
null,,thebreak,801216,break,,null,,,,,,,,,,,,,,,,,,,
2965,,realistic_rating,804184,Altoona,,49,Altoona,1,,,,,,,,,,,,,,,,,
null,,confidence_buffer,804286,confidence_buffer,,null,,,,,,,,,,,,,,,,,,,
2808.099999964237,,pt2_unique_rating,807096,Altoona,,53,,5,,,,,,,,,,,,,,,,,
null,,confidence_buffer,807199,confidence_buffer,,null,,,,,,,,,,,,,,,,,,,
1087.800000011921,,pt2_memorable_rating,808288,Altoona,,53,,5,,,,,,,,,,,,,,,,,
null,,confidence_buffer,808391,confidence_buffer,,null,,,,,,,,,,,,,,,,,,,
2166.900000035763,,recognition_phase,810560,Altoona,,49,,,,,old,1,0.8846153846153846,,,,,,,,,,,,
null,,confidence_buffer,810663,confidence_buffer,,null,,,,,,,,,,,,,,,,,,,
null,,thebreak,811166,break,,null,,,,,,,,,,,,,,,,,,,
2815.5,,realistic_rating,813984,Athens,,53,Athens,5,,,,,,,,,,,,,,,,,
null,,confidence_buffer,814087,confidence_buffer,,null,,,,,,,,,,,,,,,,,,,
2373.7000000476837,,pt2_unique_rating,816464,Athens,,49,,1,,,,,,,,,,,,,,,,,
null,,confidence_buffer,816566,confidence_buffer,,null,,,,,,,,,,,,,,,,,,,
1614.800000011921,,pt2_memorable_rating,818184,Athens,,52,,4,,,,,,,,,,,,,,,,,
null,,confidence_buffer,818287,confidence_buffer,,null,,,,,,,,,,,,,,,,,,,
2117.900000035763,,recognition_phase,820408,Athens,,49,,,,,old,1,0.8888888888888888,,,,,,,,,,,,
null,,confidence_buffer,820511,confidence_buffer,,null,,,,,,,,,,,,,,,,,,,
null,,thebreak,821013,break,,null,,,,,,,,,,,,,,,,,,,
3001.099999964237,,realistic_rating,824016,Stamford,,53,Stamford,5,,,,,,,,,,,,,,,,,
null,,confidence_buffer,824118,confidence_buffer,,null,,,,,,,,,,,,,,,,,,,
4119.200000047684,,pt2_unique_rating,828240,Stamford,,51,,3,,,,,,,,,,,,,,,,,
null,,confidence_buffer,828343,confidence_buffer,,null,,,,,,,,,,,,,,,,,,,
3086.699999988079,,pt2_memorable_rating,831432,Stamford,,50,,2,,,,,,,,,,,,,,,,,
null,,confidence_buffer,831535,confidence_buffer,,null,,,,,,,,,,,,,,,,,,,
2903.2999999523163,,recognition_phase,834441,Stamford,,49,,,,,old,1,0.8928571428571429,,,,,,,,,,,,
null,,confidence_buffer,834544,confidence_buffer,,null,,,,,,,,,,,,,,,,,,,
null,,thebreak,835047,break,,null,,,,,,,,,,,,,,,,,,,
2397.800000011921,,realistic_rating,837448,Santa Monica,,53,Santa Monica,5,,,,,,,,,,,,,,,,,
null,,confidence_buffer,837551,confidence_buffer,,null,,,,,,,,,,,,,,,,,,,
2583.199999988079,,pt2_unique_rating,840136,Santa Monica,,50,,2,,,,,,,,,,,,,,,,,
null,,confidence_buffer,840240,confidence_buffer,,null,,,,,,,,,,,,,,,,,,,
1638.6000000238419,,pt2_memorable_rating,841880,Santa Monica,,51,,3,,,,,,,,,,,,,,,,,
null,,confidence_buffer,841983,confidence_buffer,,null,,,,,,,,,,,,,,,,,,,
2032.300000011921,,recognition_phase,844017,Santa Monica,,52,,,,,new,1,0.896551724137931,,,,,,,,,,,,
null,,confidence_buffer,844120,confidence_buffer,,null,,,,,,,,,,,,,,,,,,,
null,,thebreak,844623,break,,null,,,,,,,,,,,,,,,,,,,
2566.800000011921,,realistic_rating,847192,Cambridge,,53,Cambridge,5,,,,,,,,,,,,,,,,,
null,,confidence_buffer,847295,confidence_buffer,,null,,,,,,,,,,,,,,,,,,,
2511.100000023842,,pt2_unique_rating,849808,Cambridge,,50,,2,,,,,,,,,,,,,,,,,
null,,confidence_buffer,849911,confidence_buffer,,null,,,,,,,,,,,,,,,,,,,
2759.600000023842,,pt2_memorable_rating,852672,Cambridge,,50,,2,,,,,,,,,,,,,,,,,
null,,confidence_buffer,852776,confidence_buffer,,null,,,,,,,,,,,,,,,,,,,
1742.199999988079,,recognition_phase,854520,Cambridge,,52,,,,,new,1,0.9,,,,,,,,,,,,
null,,confidence_buffer,854623,confidence_buffer,,null,,,,,,,,,,,,,,,,,,,
null,,thebreak,855131,break,,null,,,,,,,,,,,,,,,,,,,
1858.699999988079,,realistic_rating,856992,Peoria,,53,Peoria,5,,,,,,,,,,,,,,,,,
null,,confidence_buffer,857095,confidence_buffer,,null,,,,,,,,,,,,,,,,,,,
2575.599999964237,,pt2_unique_rating,859673,Peoria,,52,,4,,,,,,,,,,,,,,,,,
null,,confidence_buffer,859776,confidence_buffer,,null,,,,,,,,,,,,,,,,,,,
2470.100000023842,,pt2_memorable_rating,862248,Peoria,,53,,5,,,,,,,,,,,,,,,,,
null,,confidence_buffer,862351,confidence_buffer,,null,,,,,,,,,,,,,,,,,,,
1735.1000000238419,,recognition_phase,864088,Peoria,,49,,,,,old,1,0.9032258064516129,,,,,,,,,,,,
null,,confidence_buffer,864190,confidence_buffer,,null,,,,,,,,,,,,,,,,,,,
null,,thebreak,864693,break,,null,,,,,,,,,,,,,,,,,,,
2128.300000011921,,realistic_rating,866824,Salem,,53,Salem,5,,,,,,,,,,,,,,,,,
null,,confidence_buffer,866927,confidence_buffer,,null,,,,,,,,,,,,,,,,,,,
2487.399999976158,,pt2_unique_rating,869417,Salem,,50,,2,,,,,,,,,,,,,,,,,
null,,confidence_buffer,869519,confidence_buffer,,null,,,,,,,,,,,,,,,,,,,
2022.9000000357628,,pt2_memorable_rating,871544,Salem,,53,,5,,,,,,,,,,,,,,,,,
null,,confidence_buffer,871646,confidence_buffer,,null,,,,,,,,,,,,,,,,,,,
2031.2000000476837,,probe_rating,873680,probe_rating,,51,,,3,1,,,,,,,,,,,,,,,
null,,confidence_buffer,873782,confidence_buffer,,null,,,,,,,,,,,,,,,,,,,
2214.7999999523163,,recognition_phase,875999,Salem,,52,,,,,new,1,0.90625,,,,,,,,,,,,
null,,confidence_buffer,876102,confidence_buffer,,null,,,,,,,,,,,,,,,,,,,
null,,thebreak,876606,break,,null,,,,,,,,,,,,,,,,,,,
2047,,realistic_rating,878655,Toledo,,53,Toledo,5,,,,,,,,,,,,,,,,,
null,,confidence_buffer,878758,confidence_buffer,,null,,,,,,,,,,,,,,,,,,,
2975.800000011921,,pt2_unique_rating,881736,Toledo,,50,,2,,,,,,,,,,,,,,,,,
null,,confidence_buffer,881839,confidence_buffer,,null,,,,,,,,,,,,,,,,,,,
2375.899999976158,,pt2_memorable_rating,884217,Toledo,,50,,2,,,,,,,,,,,,,,,,,
null,,confidence_buffer,884320,confidence_buffer,,null,,,,,,,,,,,,,,,,,,,
2534.5,,recognition_phase,886857,Toledo,,52,,,,,new,1,0.9090909090909091,,,,,,,,,,,,
null,,confidence_buffer,886961,confidence_buffer,,null,,,,,,,,,,,,,,,,,,,
null,,thebreak,887463,break,,null,,,,,,,,,,,,,,,,,,,
2222,,realistic_rating,889688,Champaign,,53,Champaign,5,,,,,,,,,,,,,,,,,
null,,confidence_buffer,889791,confidence_buffer,,null,,,,,,,,,,,,,,,,,,,
2127.900000035763,,pt2_unique_rating,891921,Champaign,,53,,5,,,,,,,,,,,,,,,,,
null,,confidence_buffer,892022,confidence_buffer,,null,,,,,,,,,,,,,,,,,,,
1303.199999988079,,pt2_memorable_rating,893328,Champaign,,53,,5,,,,,,,,,,,,,,,,,
null,,confidence_buffer,893431,confidence_buffer,,null,,,,,,,,,,,,,,,,,,,
1846.199999988079,,recognition_phase,895280,Champaign,,49,,,,,old,1,0.9117647058823529,,,,,,,,,,,,
null,,confidence_buffer,895383,confidence_buffer,,null,,,,,,,,,,,,,,,,,,,
null,,thebreak,895886,break,,null,,,,,,,,,,,,,,,,,,,
1768.0999999642372,,realistic_rating,897656,Reno,,53,Reno,5,,,,,,,,,,,,,,,,,
null,,confidence_buffer,897759,confidence_buffer,,null,,,,,,,,,,,,,,,,,,,
2141.699999988079,,pt2_unique_rating,899904,Reno,,50,,2,,,,,,,,,,,,,,,,,
null,,confidence_buffer,900007,confidence_buffer,,null,,,,,,,,,,,,,,,,,,,
1702.1000000238419,,pt2_memorable_rating,901712,Reno,,53,,5,,,,,,,,,,,,,,,,,
null,,confidence_buffer,901815,confidence_buffer,,null,,,,,,,,,,,,,,,,,,,
1524.800000011921,,recognition_phase,903342,Reno,,49,,,,,old,1,0.9142857142857143,,,,,,,,,,,,
null,,confidence_buffer,903444,confidence_buffer,,null,,,,,,,,,,,,,,,,,,,
null,,thebreak,903947,break,,null,,,,,,,,,,,,,,,,,,,
3417.199999988079,,realistic_rating,907368,Dubuque,,53,Dubuque,5,,,,,,,,,,,,,,,,,
null,,confidence_buffer,907484,confidence_buffer,,null,,,,,,,,,,,,,,,,,,,
5642.199999988079,,pt2_unique_rating,913128,Dubuque,,52,,4,,,,,,,,,,,,,,,,,
null,,confidence_buffer,913231,confidence_buffer,,null,,,,,,,,,,,,,,,,,,,
1489.199999988079,,pt2_memorable_rating,914721,Dubuque,,50,,2,,,,,,,,,,,,,,,,,
null,,confidence_buffer,914824,confidence_buffer,,null,,,,,,,,,,,,,,,,,,,
1684.8999999761581,,recognition_phase,916511,Dubuque,,50,,,,,old,1,0.9166666666666666,,,,,,,,,,,,
null,,confidence_buffer,916614,confidence_buffer,,null,,,,,,,,,,,,,,,,,,,
null,,thebreak,917116,break,,null,,,,,,,,,,,,,,,,,,,
2106.199999988079,,realistic_rating,919224,Pueblo,,53,Pueblo,5,,,,,,,,,,,,,,,,,
null,,confidence_buffer,919327,confidence_buffer,,null,,,,,,,,,,,,,,,,,,,
2326.899999976158,,pt2_unique_rating,921656,Pueblo,,51,,3,,,,,,,,,,,,,,,,,
null,,confidence_buffer,921759,confidence_buffer,,null,,,,,,,,,,,,,,,,,,,
3768,,pt2_memorable_rating,925529,Pueblo,,50,,2,,,,,,,,,,,,,,,,,
null,,confidence_buffer,925632,confidence_buffer,,null,,,,,,,,,,,,,,,,,,,
3045.5,,probe_rating,928680,probe_rating,,50,,,2,1,,,,,,,,,,,,,,,
null,,confidence_buffer,928783,confidence_buffer,,null,,,,,,,,,,,,,,,,,,,
4671.199999988079,,recognition_phase,933456,Pueblo,,49,,,,,old,1,0.918918918918919,,,,,,,,,,,,
null,,confidence_buffer,933559,confidence_buffer,,null,,,,,,,,,,,,,,,,,,,
null,,thebreak,934062,break,,null,,,,,,,,,,,,,,,,,,,
3879.800000011921,,realistic_rating,937944,Hagerstown,,49,Hagerstown,1,,,,,,,,,,,,,,,,,
null,,confidence_buffer,938048,confidence_buffer,,null,,,,,,,,,,,,,,,,,,,
3439.099999964237,,pt2_unique_rating,941489,Hagerstown,,52,,4,,,,,,,,,,,,,,,,,
null,,confidence_buffer,941600,confidence_buffer,,null,,,,,,,,,,,,,,,,,,,
2427.600000023842,,pt2_memorable_rating,944030,Hagerstown,,53,,5,,,,,,,,,,,,,,,,,
null,,confidence_buffer,944132,confidence_buffer,,null,,,,,,,,,,,,,,,,,,,
1385,,recognition_phase,945518,Hagerstown,,52,,,,,new,1,0.9210526315789473,,,,,,,,,,,,
null,,confidence_buffer,945620,confidence_buffer,,null,,,,,,,,,,,,,,,,,,,
null,,thebreak,946122,break,,null,,,,,,,,,,,,,,,,,,,
2891.399999976158,,realistic_rating,949014,Topeka,,53,Topeka,5,,,,,,,,,,,,,,,,,
null,,confidence_buffer,949117,confidence_buffer,,null,,,,,,,,,,,,,,,,,,,
3312,,pt2_unique_rating,952430,Topeka,,50,,2,,,,,,,,,,,,,,,,,
null,,confidence_buffer,952531,confidence_buffer,,null,,,,,,,,,,,,,,,,,,,
1521.5999999642372,,pt2_memorable_rating,954054,Topeka,,52,,4,,,,,,,,,,,,,,,,,
null,,confidence_buffer,954156,confidence_buffer,,null,,,,,,,,,,,,,,,,,,,
1920.699999988079,,recognition_phase,956078,Topeka,,49,,,,,old,1,0.9230769230769231,,,,,,,,,,,,
null,,confidence_buffer,956180,confidence_buffer,,null,,,,,,,,,,,,,,,,,,,
null,,thebreak,956682,break,,null,,,,,,,,,,,,,,,,,,,
2138.899999976158,,realistic_rating,958822,Pasadena,,53,Pasadena,5,,,,,,,,,,,,,,,,,
null,,confidence_buffer,958924,confidence_buffer,,null,,,,,,,,,,,,,,,,,,,
1601.199999988079,,probe_rating,960526,probe_rating,,49,,,1,1,,,,,,,,,,,,,,,
null,,confidence_buffer,960628,confidence_buffer,,null,,,,,,,,,,,,,,,,,,,
2616.5,,pt2_unique_rating,963246,Pasadena,,50,,2,,,,,,,,,,,,,,,,,
null,,confidence_buffer,963349,confidence_buffer,,null,,,,,,,,,,,,,,,,,,,
2504.400000035763,,pt2_memorable_rating,965854,Pasadena,,51,,3,,,,,,,,,,,,,,,,,
null,,confidence_buffer,965956,confidence_buffer,,null,,,,,,,,,,,,,,,,,,,
1232.6000000238419,,recognition_phase,967190,Pasadena,,50,,,,,old,1,0.925,,,,,,,,,,,,
null,,confidence_buffer,967292,confidence_buffer,,null,,,,,,,,,,,,,,,,,,,
null,,thebreak,967793,break,,null,,,,,,,,,,,,,,,,,,,
2059.699999988079,,realistic_rating,969854,Burlington,,53,Burlington,5,,,,,,,,,,,,,,,,,
null,,confidence_buffer,969955,confidence_buffer,,null,,,,,,,,,,,,,,,,,,,
2139.2000000476837,,pt2_unique_rating,972096,Burlington,,50,,2,,,,,,,,,,,,,,,,,
null,,confidence_buffer,972199,confidence_buffer,,null,,,,,,,,,,,,,,,,,,,
1494.800000011921,,pt2_memorable_rating,973696,Burlington,,51,,3,,,,,,,,,,,,,,,,,
null,,confidence_buffer,973799,confidence_buffer,,null,,,,,,,,,,,,,,,,,,,
1526.0999999642372,,recognition_phase,975328,Burlington,,52,,,,,new,1,0.926829268292683,,,,,,,,,,,,
null,,confidence_buffer,975430,confidence_buffer,,null,,,,,,,,,,,,,,,,,,,
null,,thebreak,975932,break,,null,,,,,,,,,,,,,,,,,,,
2009.6000000238419,,realistic_rating,977943,Annapolis,,53,Annapolis,5,,,,,,,,,,,,,,,,,
null,,confidence_buffer,978047,confidence_buffer,,null,,,,,,,,,,,,,,,,,,,
3790.600000023842,,pt2_unique_rating,981840,Annapolis,,50,,2,,,,,,,,,,,,,,,,,
null,,confidence_buffer,981943,confidence_buffer,,null,,,,,,,,,,,,,,,,,,,
2360.5,,pt2_memorable_rating,984305,Annapolis,,51,,3,,,,,,,,,,,,,,,,,
null,,confidence_buffer,984408,confidence_buffer,,null,,,,,,,,,,,,,,,,,,,
3710.599999964237,,recognition_phase,988120,Annapolis,,51,,,,,new,0,0.9047619047619048,,,,,,,,,,,,
null,,confidence_buffer,988224,confidence_buffer,,null,,,,,,,,,,,,,,,,,,,
null,,thebreak,988727,break,,null,,,,,,,,,,,,,,,,,,,
4575,,realistic_rating,993304,Montpelier,,53,Montpelier,5,,,,,,,,,,,,,,,,,
null,,confidence_buffer,993407,confidence_buffer,,null,,,,,,,,,,,,,,,,,,,
2607.599999964237,,pt2_unique_rating,996016,Montpelier,,52,,4,,,,,,,,,,,,,,,,,
null,,confidence_buffer,996120,confidence_buffer,,null,,,,,,,,,,,,,,,,,,,
3411.899999976158,,pt2_memorable_rating,999536,Montpelier,,53,,5,,,,,,,,,,,,,,,,,
null,,confidence_buffer,999638,confidence_buffer,,null,,,,,,,,,,,,,,,,,,,
2007.7000000476837,,probe_rating,1001648,probe_rating,,52,,,4,1,,,,,,,,,,,,,,,
null,,confidence_buffer,1001751,confidence_buffer,,null,,,,,,,,,,,,,,,,,,,
1678.300000011921,,recognition_phase,1003432,Montpelier,,49,,,,,old,1,0.9069767441860465,,,,,,,,,,,,
null,,confidence_buffer,1003536,confidence_buffer,,null,,,,,,,,,,,,,,,,,,,
null,,thebreak,1004051,break,,null,,,,,,,,,,,,,,,,,,,
2251.5,,realistic_rating,1006305,Olympia,,53,Olympia,5,,,,,,,,,,,,,,,,,
null,,confidence_buffer,1006408,confidence_buffer,,null,,,,,,,,,,,,,,,,,,,
2060.899999976158,,pt2_unique_rating,1008472,Olympia,,50,,2,,,,,,,,,,,,,,,,,
null,,confidence_buffer,1008575,confidence_buffer,,null,,,,,,,,,,,,,,,,,,,
1749.6000000238419,,pt2_memorable_rating,1010327,Olympia,,52,,4,,,,,,,,,,,,,,,,,
null,,confidence_buffer,1010440,confidence_buffer,,null,,,,,,,,,,,,,,,,,,,
981.3000000119209,,recognition_phase,1011424,Olympia,,49,,,,,old,1,0.9090909090909091,,,,,,,,,,,,
null,,confidence_buffer,1011527,confidence_buffer,,null,,,,,,,,,,,,,,,,,,,
null,,thebreak,1012040,break,,null,,,,,,,,,,,,,,,,,,,
1821.300000011921,,realistic_rating,1013864,Youngstown,,53,Youngstown,5,,,,,,,,,,,,,,,,,
null,,confidence_buffer,1013966,confidence_buffer,,null,,,,,,,,,,,,,,,,,,,
1775.699999988079,,pt2_unique_rating,1015744,Youngstown,,50,,2,,,,,,,,,,,,,,,,,
null,,confidence_buffer,1015847,confidence_buffer,,null,,,,,,,,,,,,,,,,,,,
1414.5,,pt2_memorable_rating,1017264,Youngstown,,50,,2,,,,,,,,,,,,,,,,,
null,,confidence_buffer,1017367,confidence_buffer,,null,,,,,,,,,,,,,,,,,,,
2214.800000011921,,recognition_phase,1019584,Youngstown,,49,,,,,old,0,0.8888888888888888,,,,,,,,,,,,
null,,confidence_buffer,1019687,confidence_buffer,,null,,,,,,,,,,,,,,,,,,,
null,,thebreak,1020190,break,,null,,,,,,,,,,,,,,,,,,,
2399.300000011921,,realistic_rating,1022592,Palo Alto,,53,Palo Alto,5,,,,,,,,,,,,,,,,,
null,,confidence_buffer,1022695,confidence_buffer,,null,,,,,,,,,,,,,,,,,,,
3742.800000011921,,pt2_unique_rating,1026440,Palo Alto,,52,,4,,,,,,,,,,,,,,,,,
null,,confidence_buffer,1026543,confidence_buffer,,null,,,,,,,,,,,,,,,,,,,
1999.4000000357628,,pt2_memorable_rating,1028545,Palo Alto,,53,,5,,,,,,,,,,,,,,,,,
null,,confidence_buffer,1028647,confidence_buffer,,null,,,,,,,,,,,,,,,,,,,
1637.800000011921,,recognition_phase,1030287,Palo Alto,,49,,,,,old,1,0.8913043478260869,,,,,,,,,,,,
null,,confidence_buffer,1030390,confidence_buffer,,null,,,,,,,,,,,,,,,,,,,
null,,thebreak,1030893,break,,null,,,,,,,,,,,,,,,,,,,
2017,,realistic_rating,1032912,Boulder,,53,Boulder,5,,,,,,,,,,,,,,,,,
null,,confidence_buffer,1033015,confidence_buffer,,null,,,,,,,,,,,,,,,,,,,
2342.699999988079,,pt2_unique_rating,1035359,Boulder,,50,,2,,,,,,,,,,,,,,,,,
null,,confidence_buffer,1035470,confidence_buffer,,null,,,,,,,,,,,,,,,,,,,
1840.1000000238419,,pt2_memorable_rating,1037312,Boulder,,52,,4,,,,,,,,,,,,,,,,,
null,,confidence_buffer,1037415,confidence_buffer,,null,,,,,,,,,,,,,,,,,,,
1741.5,,recognition_phase,1039160,Boulder,,49,,,,,old,1,0.8936170212765957,,,,,,,,,,,,
null,,confidence_buffer,1039267,confidence_buffer,,null,,,,,,,,,,,,,,,,,,,
null,,thebreak,1039770,break,,null,,,,,,,,,,,,,,,,,,,
2426.600000023842,,realistic_rating,1042199,Bellingham,,49,Bellingham,1,,,,,,,,,,,,,,,,,
null,,confidence_buffer,1042303,confidence_buffer,,null,,,,,,,,,,,,,,,,,,,
3551.7000000476837,,pt2_unique_rating,1045856,Bellingham,,52,,4,,,,,,,,,,,,,,,,,
null,,confidence_buffer,1045960,confidence_buffer,,null,,,,,,,,,,,,,,,,,,,
1693.6000000238419,,pt2_memorable_rating,1047656,Bellingham,,52,,4,,,,,,,,,,,,,,,,,
null,,confidence_buffer,1047759,confidence_buffer,,null,,,,,,,,,,,,,,,,,,,
1382.2999999523163,,recognition_phase,1049144,Bellingham,,52,,,,,new,1,0.8958333333333334,,,,,,,,,,,,
null,,confidence_buffer,1049247,confidence_buffer,,null,,,,,,,,,,,,,,,,,,,
null,,thebreak,1049750,break,,null,,,,,,,,,,,,,,,,,,,
5104.100000023842,,realistic_rating,1054856,Las Cruces,,53,Las Cruces,5,,,,,,,,,,,,,,,,,
null,,confidence_buffer,1054960,confidence_buffer,,null,,,,,,,,,,,,,,,,,,,
3470.100000023842,,pt2_unique_rating,1058432,Las Cruces,,52,,4,,,,,,,,,,,,,,,,,
null,,confidence_buffer,1058536,confidence_buffer,,null,,,,,,,,,,,,,,,,,,,
2517.400000035763,,pt2_memorable_rating,1061055,Las Cruces,,52,,4,,,,,,,,,,,,,,,,,
null,,confidence_buffer,1061158,confidence_buffer,,null,,,,,,,,,,,,,,,,,,,
3791.400000035763,,recognition_phase,1064952,Las Cruces,,50,,,,,old,1,0.8979591836734694,,,,,,,,,,,,
null,,confidence_buffer,1065054,confidence_buffer,,null,,,,,,,,,,,,,,,,,,,
null,,thebreak,1065557,break,,null,,,,,,,,,,,,,,,,,,,
3248.5,,realistic_rating,1068808,Fort Wayne,,53,Fort Wayne,5,,,,,,,,,,,,,,,,,
null,,confidence_buffer,1068919,confidence_buffer,,null,,,,,,,,,,,,,,,,,,,
1893.5999999642372,,pt2_unique_rating,1070815,Fort Wayne,,49,,1,,,,,,,,,,,,,,,,,
null,,confidence_buffer,1070918,confidence_buffer,,null,,,,,,,,,,,,,,,,,,,
1680.699999988079,,pt2_memorable_rating,1072600,Fort Wayne,,51,,3,,,,,,,,,,,,,,,,,
null,,confidence_buffer,1072704,confidence_buffer,,null,,,,,,,,,,,,,,,,,,,
1901.9000000357628,,recognition_phase,1074608,Fort Wayne,,52,,,,,new,1,0.9,,,,,,,,,,,,
null,,confidence_buffer,1074710,confidence_buffer,,null,,,,,,,,,,,,,,,,,,,
null,,thebreak,1075214,break,,null,,,,,,,,,,,,,,,,,,,
,,survey,1218513,survey-questions,,,,,,,,,,none,high,No; I was totally paying attention to the study,Just memory,yes; if I knew the city,no; not really,yes; unique names stick in your brain and help,yes; some realistic names that are well known,no,no; it was enjoyable; thank you,,
9607.800000011921,,thank_you,1228152,all_done,,32,,,,,,,,,,,,,,,,,,0,0
