rt,responses,trial_type,time_elapsed,stimulus,button_pressed,key_press,name_trial,rating,probe,probe_accuracy,response,correct,accuracy,problems,smooth,distraction,strategies,familiar,memorable,unique,realistic,similar,comments,detectfocus,warning
33330.40000009537,{worker_id:64bdfd7695f5559fff6d6817},id_enter,33335,,,,,,,,,,,,,,,,,,,,,,
11203.799999952316,,fullscreen,44547,fullscreen,0,,,,,,,,,,,,,,,,,,,,
1723.7000000476837,,intro_0,46281,instruct,,32,,,,,,,,,,,,,,,,,,,
9603.200000047684,,intro_1,55887,instruct,,32,,,,,,,,,,,,,,,,,,,
8514.700000047684,,intro_2,64403,instruct,,32,,,,,,,,,,,,,,,,,,,
null,,instruct_dir_4,65907,instruct,,null,,,,,,,,,,,,,,,,,,,
null,,thebreak,66412,break,,null,,,,,,,,,,,,,,,,,,,
5939.300000190735,,familiar_rating,72352,Fort Collins,,49,Fort Collins,1,,,,,,,,,,,,,,,,,
null,,confidence_buffer,72457,confidence_buffer,,null,,,,,,,,,,,,,,,,,,,
9194.5,,unique_rating,81652,Fort Collins,,50,,2,,,,,,,,,,,,,,,,,
null,,confidence_buffer,81757,confidence_buffer,,null,,,,,,,,,,,,,,,,,,,
6519.600000143051,,memorable_rating,88278,Fort Collins,,49,,1,,,,,,,,,,,,,,,,,
null,,confidence_buffer,88387,confidence_buffer,,null,,,,,,,,,,,,,,,,,,,
null,,thebreak,88894,break,,null,,,,,,,,,,,,,,,,,,,
23667.200000047684,,familiar_rating,112563,Toledo,,53,Toledo,5,,,,,,,,,,,,,,,,,
null,,confidence_buffer,112668,confidence_buffer,,null,,,,,,,,,,,,,,,,,,,
2829.5999999046326,,unique_rating,115498,Toledo,,53,,5,,,,,,,,,,,,,,,,,
null,,confidence_buffer,115607,confidence_buffer,,null,,,,,,,,,,,,,,,,,,,
3926.9000000953674,,memorable_rating,119535,Toledo,,53,,5,,,,,,,,,,,,,,,,,
null,,confidence_buffer,119643,confidence_buffer,,null,,,,,,,,,,,,,,,,,,,
null,,thebreak,120152,break,,null,,,,,,,,,,,,,,,,,,,
17154.299999952316,,familiar_rating,137307,Fort Wayne,,52,Fort Wayne,4,,,,,,,,,,,,,,,,,
null,,confidence_buffer,137411,confidence_buffer,,null,,,,,,,,,,,,,,,,,,,
5813.599999904633,,unique_rating,143225,Fort Wayne,,49,,1,,,,,,,,,,,,,,,,,
null,,confidence_buffer,143333,confidence_buffer,,null,,,,,,,,,,,,,,,,,,,
2119,,memorable_rating,145453,Fort Wayne,,49,,1,,,,,,,,,,,,,,,,,
null,,confidence_buffer,145561,confidence_buffer,,null,,,,,,,,,,,,,,,,,,,
12239.700000047684,,probe_rating,157802,probe_rating,,53,,,5,1,,,,,,,,,,,,,,,
null,,confidence_buffer,157910,confidence_buffer,,null,,,,,,,,,,,,,,,,,,,
null,,thebreak,158411,break,,null,,,,,,,,,,,,,,,,,,,
4327.300000190735,,familiar_rating,162740,Syracuse,,53,Syracuse,5,,,,,,,,,,,,,,,,,
null,,confidence_buffer,162849,confidence_buffer,,null,,,,,,,,,,,,,,,,,,,
2843.7000000476837,,unique_rating,165693,Syracuse,,53,,5,,,,,,,,,,,,,,,,,
null,,confidence_buffer,165800,confidence_buffer,,null,,,,,,,,,,,,,,,,,,,
3939.2999999523163,,memorable_rating,169741,Syracuse,,53,,5,,,,,,,,,,,,,,,,,
null,,confidence_buffer,169847,confidence_buffer,,null,,,,,,,,,,,,,,,,,,,
null,,thebreak,170356,break,,null,,,,,,,,,,,,,,,,,,,
5113.700000047684,,familiar_rating,175471,Annapolis,,50,Annapolis,2,,,,,,,,,,,,,,,,,
null,,confidence_buffer,175576,confidence_buffer,,null,,,,,,,,,,,,,,,,,,,
21330.700000047684,,unique_rating,196908,Annapolis,,49,,1,,,,,,,,,,,,,,,,,
null,,confidence_buffer,197014,confidence_buffer,,null,,,,,,,,,,,,,,,,,,,
14715.099999904633,,probe_rating,211730,probe_rating,,52,,,4,1,,,,,,,,,,,,,,,
null,,confidence_buffer,211833,confidence_buffer,,null,,,,,,,,,,,,,,,,,,,
4573.600000143051,,memorable_rating,216408,Annapolis,,49,,1,,,,,,,,,,,,,,,,,
null,,confidence_buffer,216510,confidence_buffer,,null,,,,,,,,,,,,,,,,,,,
null,,thebreak,217015,break,,null,,,,,,,,,,,,,,,,,,,
6097.5,,familiar_rating,223114,Helena,,49,Helena,1,,,,,,,,,,,,,,,,,
null,,confidence_buffer,223221,confidence_buffer,,null,,,,,,,,,,,,,,,,,,,
6907,,unique_rating,230130,Helena,,49,,1,,,,,,,,,,,,,,,,,
null,,confidence_buffer,230240,confidence_buffer,,null,,,,,,,,,,,,,,,,,,,
2594.2999999523163,,memorable_rating,232835,Helena,,49,,1,,,,,,,,,,,,,,,,,
null,,confidence_buffer,232938,confidence_buffer,,null,,,,,,,,,,,,,,,,,,,
null,,thebreak,233442,break,,null,,,,,,,,,,,,,,,,,,,
7769.100000143051,,familiar_rating,241212,Gainesville,,53,Gainesville,5,,,,,,,,,,,,,,,,,
null,,confidence_buffer,241323,confidence_buffer,,null,,,,,,,,,,,,,,,,,,,
4136.699999809265,,unique_rating,245461,Gainesville,,49,,1,,,,,,,,,,,,,,,,,
null,,confidence_buffer,245569,confidence_buffer,,null,,,,,,,,,,,,,,,,,,,
5630.200000047684,,memorable_rating,251200,Gainesville,,49,,1,,,,,,,,,,,,,,,,,
null,,confidence_buffer,251302,confidence_buffer,,null,,,,,,,,,,,,,,,,,,,
null,,thebreak,251805,break,,null,,,,,,,,,,,,,,,,,,,
4311.299999952316,,familiar_rating,256117,Stamford,,53,Stamford,5,,,,,,,,,,,,,,,,,
null,,confidence_buffer,256220,confidence_buffer,,null,,,,,,,,,,,,,,,,,,,
15142.5,,unique_rating,271363,Stamford,,53,,5,,,,,,,,,,,,,,,,,
null,,confidence_buffer,271464,confidence_buffer,,null,,,,,,,,,,,,,,,,,,,
2678.2000000476837,,memorable_rating,274144,Stamford,,52,,4,,,,,,,,,,,,,,,,,
null,,confidence_buffer,274253,confidence_buffer,,null,,,,,,,,,,,,,,,,,,,
null,,thebreak,274757,break,,null,,,,,,,,,,,,,,,,,,,
3601.9000000953674,,familiar_rating,278360,Newport News,,53,Newport News,5,,,,,,,,,,,,,,,,,
null,,confidence_buffer,278461,confidence_buffer,,null,,,,,,,,,,,,,,,,,,,
2090.600000143051,,unique_rating,280553,Newport News,,53,,5,,,,,,,,,,,,,,,,,
null,,confidence_buffer,280659,confidence_buffer,,null,,,,,,,,,,,,,,,,,,,
7210.700000047684,,probe_rating,287871,probe_rating,,52,,,4,1,,,,,,,,,,,,,,,
null,,confidence_buffer,287977,confidence_buffer,,null,,,,,,,,,,,,,,,,,,,
5260.100000143051,,memorable_rating,293239,Newport News,,53,,5,,,,,,,,,,,,,,,,,
null,,confidence_buffer,293344,confidence_buffer,,null,,,,,,,,,,,,,,,,,,,
null,,thebreak,293851,break,,null,,,,,,,,,,,,,,,,,,,
5062.400000095367,,familiar_rating,298915,Berkeley,,53,Berkeley,5,,,,,,,,,,,,,,,,,
null,,confidence_buffer,299016,confidence_buffer,,null,,,,,,,,,,,,,,,,,,,
4191.799999952316,,unique_rating,303209,Berkeley,,52,,4,,,,,,,,,,,,,,,,,
null,,confidence_buffer,303318,confidence_buffer,,null,,,,,,,,,,,,,,,,,,,
4003.4000000953674,,memorable_rating,307323,Berkeley,,52,,4,,,,,,,,,,,,,,,,,
null,,confidence_buffer,307427,confidence_buffer,,null,,,,,,,,,,,,,,,,,,,
null,,thebreak,307936,break,,null,,,,,,,,,,,,,,,,,,,
9275.5,,familiar_rating,317213,Olympia,,53,Olympia,5,,,,,,,,,,,,,,,,,
null,,confidence_buffer,317316,confidence_buffer,,null,,,,,,,,,,,,,,,,,,,
3969.7999999523163,,unique_rating,321287,Olympia,,53,,5,,,,,,,,,,,,,,,,,
null,,confidence_buffer,321395,confidence_buffer,,null,,,,,,,,,,,,,,,,,,,
2414.300000190735,,memorable_rating,323810,Olympia,,53,,5,,,,,,,,,,,,,,,,,
null,,confidence_buffer,323917,confidence_buffer,,null,,,,,,,,,,,,,,,,,,,
null,,thebreak,324425,break,,null,,,,,,,,,,,,,,,,,,,
6524.799999952316,,familiar_rating,330951,Las Cruces,,49,Las Cruces,1,,,,,,,,,,,,,,,,,
null,,confidence_buffer,331056,confidence_buffer,,null,,,,,,,,,,,,,,,,,,,
6317.5,,unique_rating,337374,Las Cruces,,53,,5,,,,,,,,,,,,,,,,,
null,,confidence_buffer,337483,confidence_buffer,,null,,,,,,,,,,,,,,,,,,,
3186.2999999523163,,memorable_rating,340670,Las Cruces,,53,,5,,,,,,,,,,,,,,,,,
null,,confidence_buffer,340772,confidence_buffer,,null,,,,,,,,,,,,,,,,,,,
null,,thebreak,341276,break,,null,,,,,,,,,,,,,,,,,,,
2902,,familiar_rating,344179,New Haven,,53,New Haven,5,,,,,,,,,,,,,,,,,
null,,confidence_buffer,344282,confidence_buffer,,null,,,,,,,,,,,,,,,,,,,
4551.599999904633,,unique_rating,348835,New Haven,,53,,5,,,,,,,,,,,,,,,,,
null,,confidence_buffer,348937,confidence_buffer,,null,,,,,,,,,,,,,,,,,,,
6488.600000143051,,memorable_rating,355427,New Haven,,53,,5,,,,,,,,,,,,,,,,,
null,,confidence_buffer,355533,confidence_buffer,,null,,,,,,,,,,,,,,,,,,,
null,,thebreak,356037,break,,null,,,,,,,,,,,,,,,,,,,
8518.200000047684,,familiar_rating,364557,Tallahassee,,53,Tallahassee,5,,,,,,,,,,,,,,,,,
null,,confidence_buffer,364663,confidence_buffer,,null,,,,,,,,,,,,,,,,,,,
2261.2000000476837,,unique_rating,366925,Tallahassee,,53,,5,,,,,,,,,,,,,,,,,
null,,confidence_buffer,367032,confidence_buffer,,null,,,,,,,,,,,,,,,,,,,
1932.5,,memorable_rating,368966,Tallahassee,,53,,5,,,,,,,,,,,,,,,,,
null,,confidence_buffer,369071,confidence_buffer,,null,,,,,,,,,,,,,,,,,,,
null,,thebreak,369575,break,,null,,,,,,,,,,,,,,,,,,,
8185.800000190735,,familiar_rating,377762,Yakima,,52,Yakima,4,,,,,,,,,,,,,,,,,
null,,confidence_buffer,377867,confidence_buffer,,null,,,,,,,,,,,,,,,,,,,
3443.4000000953674,,unique_rating,381312,Yakima,,53,,5,,,,,,,,,,,,,,,,,
null,,confidence_buffer,381417,confidence_buffer,,null,,,,,,,,,,,,,,,,,,,
2105.899999856949,,memorable_rating,383524,Yakima,,53,,5,,,,,,,,,,,,,,,,,
null,,confidence_buffer,383629,confidence_buffer,,null,,,,,,,,,,,,,,,,,,,
null,,thebreak,384136,break,,null,,,,,,,,,,,,,,,,,,,
6450.299999952316,,familiar_rating,390587,Cheyenne,,53,Cheyenne,5,,,,,,,,,,,,,,,,,
null,,confidence_buffer,390697,confidence_buffer,,null,,,,,,,,,,,,,,,,,,,
3576.399999856949,,unique_rating,394275,Cheyenne,,53,,5,,,,,,,,,,,,,,,,,
null,,confidence_buffer,394383,confidence_buffer,,null,,,,,,,,,,,,,,,,,,,
2102.4000000953674,,memorable_rating,396487,Cheyenne,,53,,5,,,,,,,,,,,,,,,,,
null,,confidence_buffer,396597,confidence_buffer,,null,,,,,,,,,,,,,,,,,,,
null,,thebreak,397107,break,,null,,,,,,,,,,,,,,,,,,,
4312.5,,familiar_rating,401420,Cambridge,,53,Cambridge,5,,,,,,,,,,,,,,,,,
null,,confidence_buffer,401528,confidence_buffer,,null,,,,,,,,,,,,,,,,,,,
6547.299999952316,,unique_rating,408076,Cambridge,,52,,4,,,,,,,,,,,,,,,,,
null,,confidence_buffer,408182,confidence_buffer,,null,,,,,,,,,,,,,,,,,,,
1789,,memorable_rating,409973,Cambridge,,52,,4,,,,,,,,,,,,,,,,,
null,,confidence_buffer,410080,confidence_buffer,,null,,,,,,,,,,,,,,,,,,,
null,,thebreak,410584,break,,null,,,,,,,,,,,,,,,,,,,
5233.399999856949,,familiar_rating,415818,Santa Monica,,53,Santa Monica,5,,,,,,,,,,,,,,,,,
null,,confidence_buffer,415928,confidence_buffer,,null,,,,,,,,,,,,,,,,,,,
4227.300000190735,,unique_rating,420156,Santa Monica,,53,,5,,,,,,,,,,,,,,,,,
null,,confidence_buffer,420260,confidence_buffer,,null,,,,,,,,,,,,,,,,,,,
1176.0999999046326,,memorable_rating,421437,Santa Monica,,53,,5,,,,,,,,,,,,,,,,,
null,,confidence_buffer,421540,confidence_buffer,,null,,,,,,,,,,,,,,,,,,,
null,,thebreak,422045,break,,null,,,,,,,,,,,,,,,,,,,
5639.599999904633,,familiar_rating,427686,Scottsdale,,53,Scottsdale,5,,,,,,,,,,,,,,,,,
null,,confidence_buffer,427792,confidence_buffer,,null,,,,,,,,,,,,,,,,,,,
3824.2000000476837,,unique_rating,431618,Scottsdale,,52,,4,,,,,,,,,,,,,,,,,
null,,confidence_buffer,431724,confidence_buffer,,null,,,,,,,,,,,,,,,,,,,
1360.6000001430511,,memorable_rating,433086,Scottsdale,,52,,4,,,,,,,,,,,,,,,,,
null,,confidence_buffer,433195,confidence_buffer,,null,,,,,,,,,,,,,,,,,,,
null,,thebreak,433705,break,,null,,,,,,,,,,,,,,,,,,,
6057.699999809265,,familiar_rating,439764,Concord,,52,Concord,4,,,,,,,,,,,,,,,,,
null,,confidence_buffer,439872,confidence_buffer,,null,,,,,,,,,,,,,,,,,,,
6600.700000047684,,unique_rating,446474,Concord,,49,,1,,,,,,,,,,,,,,,,,
null,,confidence_buffer,446577,confidence_buffer,,null,,,,,,,,,,,,,,,,,,,
1992.2999999523163,,memorable_rating,448571,Concord,,49,,1,,,,,,,,,,,,,,,,,
null,,confidence_buffer,448677,confidence_buffer,,null,,,,,,,,,,,,,,,,,,,
null,,thebreak,449183,break,,null,,,,,,,,,,,,,,,,,,,
4301,,familiar_rating,453486,Topeka,,52,Topeka,4,,,,,,,,,,,,,,,,,
null,,confidence_buffer,453592,confidence_buffer,,null,,,,,,,,,,,,,,,,,,,
2750.5999999046326,,unique_rating,456344,Topeka,,53,,5,,,,,,,,,,,,,,,,,
null,,confidence_buffer,456448,confidence_buffer,,null,,,,,,,,,,,,,,,,,,,
5264.899999856949,,memorable_rating,461714,Topeka,,53,,5,,,,,,,,,,,,,,,,,
null,,confidence_buffer,461826,confidence_buffer,,null,,,,,,,,,,,,,,,,,,,
null,,thebreak,462336,break,,null,,,,,,,,,,,,,,,,,,,
5554.5,,familiar_rating,467892,Ann Arbor,,52,Ann Arbor,4,,,,,,,,,,,,,,,,,
null,,confidence_buffer,468001,confidence_buffer,,null,,,,,,,,,,,,,,,,,,,
5962.600000143051,,unique_rating,473965,Ann Arbor,,53,,5,,,,,,,,,,,,,,,,,
null,,confidence_buffer,474070,confidence_buffer,,null,,,,,,,,,,,,,,,,,,,
1583.2999999523163,,memorable_rating,475655,Ann Arbor,,53,,5,,,,,,,,,,,,,,,,,
null,,confidence_buffer,475756,confidence_buffer,,null,,,,,,,,,,,,,,,,,,,
null,,thebreak,476262,break,,null,,,,,,,,,,,,,,,,,,,
6115.200000047684,,familiar_rating,482378,Fargo,,50,Fargo,2,,,,,,,,,,,,,,,,,
null,,confidence_buffer,482491,confidence_buffer,,null,,,,,,,,,,,,,,,,,,,
4305.099999904633,,unique_rating,486797,Fargo,,53,,5,,,,,,,,,,,,,,,,,
null,,confidence_buffer,486903,confidence_buffer,,null,,,,,,,,,,,,,,,,,,,
1730.4000000953674,,memorable_rating,488634,Fargo,,53,,5,,,,,,,,,,,,,,,,,
null,,confidence_buffer,488736,confidence_buffer,,null,,,,,,,,,,,,,,,,,,,
null,,thebreak,489247,break,,null,,,,,,,,,,,,,,,,,,,
2623.399999856949,,familiar_rating,491872,Norfolk,,53,Norfolk,5,,,,,,,,,,,,,,,,,
null,,confidence_buffer,491982,confidence_buffer,,null,,,,,,,,,,,,,,,,,,,
4883.5,,unique_rating,496867,Norfolk,,50,,2,,,,,,,,,,,,,,,,,
null,,confidence_buffer,496975,confidence_buffer,,null,,,,,,,,,,,,,,,,,,,
2682.2000000476837,,memorable_rating,499658,Norfolk,,50,,2,,,,,,,,,,,,,,,,,
null,,confidence_buffer,499768,confidence_buffer,,null,,,,,,,,,,,,,,,,,,,
null,,thebreak,500273,break,,null,,,,,,,,,,,,,,,,,,,
3278.899999856949,,familiar_rating,503553,Rock Springs,,49,Rock Springs,1,,,,,,,,,,,,,,,,,
null,,confidence_buffer,503663,confidence_buffer,,null,,,,,,,,,,,,,,,,,,,
4974.599999904633,,unique_rating,508639,Rock Springs,,50,,2,,,,,,,,,,,,,,,,,
null,,confidence_buffer,508748,confidence_buffer,,null,,,,,,,,,,,,,,,,,,,
3369.7000000476837,,memorable_rating,512119,Rock Springs,,50,,2,,,,,,,,,,,,,,,,,
null,,confidence_buffer,512227,confidence_buffer,,null,,,,,,,,,,,,,,,,,,,
null,,thebreak,512732,break,,null,,,,,,,,,,,,,,,,,,,
7157.799999952316,,intro_0,519891,instruct,,32,,,,,,,,,,,,,,,,,,,
9378.700000047684,,intro_1,529270,instruct,,32,,,,,,,,,,,,,,,,,,,
29320.39999985695,,intro_2,558592,instruct,,32,,,,,,,,,,,,,,,,,,,
null,,instruct_dir_4,560098,instruct,,null,,,,,,,,,,,,,,,,,,,
12212.100000143051,,realistic_rating,572311,Fort Wayne,,53,Fort Wayne,5,,,,,,,,,,,,,,,,,
null,,confidence_buffer,572421,confidence_buffer,,null,,,,,,,,,,,,,,,,,,,
12077.800000190735,,pt2_unique_rating,584499,Fort Wayne,,49,,1,,,,,,,,,,,,,,,,,
null,,confidence_buffer,584607,confidence_buffer,,null,,,,,,,,,,,,,,,,,,,
2336,,pt2_memorable_rating,586944,Fort Wayne,,49,,1,,,,,,,,,,,,,,,,,
null,,confidence_buffer,587050,confidence_buffer,,null,,,,,,,,,,,,,,,,,,,
4462.399999856949,,recognition_phase,591514,Fort Wayne,,49,,,,,old,1,1,,,,,,,,,,,,
null,,confidence_buffer,591619,confidence_buffer,,null,,,,,,,,,,,,,,,,,,,
null,,thebreak,592121,break,,null,,,,,,,,,,,,,,,,,,,
12959.200000047684,,realistic_rating,605082,Muncie,,50,Muncie,2,,,,,,,,,,,,,,,,,
null,,confidence_buffer,605190,confidence_buffer,,null,,,,,,,,,,,,,,,,,,,
2679.4000000953674,,pt2_unique_rating,607871,Muncie,,53,,5,,,,,,,,,,,,,,,,,
null,,confidence_buffer,607973,confidence_buffer,,null,,,,,,,,,,,,,,,,,,,
10711.199999809265,,pt2_memorable_rating,618686,Muncie,,53,,5,,,,,,,,,,,,,,,,,
null,,confidence_buffer,618787,confidence_buffer,,null,,,,,,,,,,,,,,,,,,,
2775.5999999046326,,recognition_phase,621564,Muncie,,52,,,,,new,1,1,,,,,,,,,,,,
null,,confidence_buffer,621675,confidence_buffer,,null,,,,,,,,,,,,,,,,,,,
null,,thebreak,622186,break,,null,,,,,,,,,,,,,,,,,,,
2863.399999856949,,realistic_rating,625051,Stamford,,53,Stamford,5,,,,,,,,,,,,,,,,,
null,,confidence_buffer,625152,confidence_buffer,,null,,,,,,,,,,,,,,,,,,,
8037.100000143051,,pt2_unique_rating,633190,Stamford,,53,,5,,,,,,,,,,,,,,,,,
null,,confidence_buffer,633293,confidence_buffer,,null,,,,,,,,,,,,,,,,,,,
2359.7000000476837,,pt2_memorable_rating,635653,Stamford,,53,,5,,,,,,,,,,,,,,,,,
null,,confidence_buffer,635758,confidence_buffer,,null,,,,,,,,,,,,,,,,,,,
2891.600000143051,,recognition_phase,638651,Stamford,,49,,,,,old,1,1,,,,,,,,,,,,
null,,confidence_buffer,638764,confidence_buffer,,null,,,,,,,,,,,,,,,,,,,
null,,thebreak,639274,break,,null,,,,,,,,,,,,,,,,,,,
5854.399999856949,,realistic_rating,645130,Palo Alto,,53,Palo Alto,5,,,,,,,,,,,,,,,,,
null,,confidence_buffer,645231,confidence_buffer,,null,,,,,,,,,,,,,,,,,,,
3131.2999999523163,,pt2_unique_rating,648364,Palo Alto,,53,,5,,,,,,,,,,,,,,,,,
null,,confidence_buffer,648466,confidence_buffer,,null,,,,,,,,,,,,,,,,,,,
6675.900000095367,,probe_rating,655143,probe_rating,,52,,,4,1,,,,,,,,,,,,,,,
null,,confidence_buffer,655252,confidence_buffer,,null,,,,,,,,,,,,,,,,,,,
8841.199999809265,,pt2_memorable_rating,664094,Palo Alto,,53,,5,,,,,,,,,,,,,,,,,
null,,confidence_buffer,664203,confidence_buffer,,null,,,,,,,,,,,,,,,,,,,
10154.799999952316,,recognition_phase,674359,Palo Alto,,52,,,,,new,1,1,,,,,,,,,,,,
null,,confidence_buffer,674468,confidence_buffer,,null,,,,,,,,,,,,,,,,,,,
null,,thebreak,674969,break,,null,,,,,,,,,,,,,,,,,,,
56514.39999985695,,realistic_rating,731485,Syracuse,,53,Syracuse,5,,,,,,,,,,,,,,,,,
null,,confidence_buffer,731592,confidence_buffer,,null,,,,,,,,,,,,,,,,,,,
11760.400000095367,,pt2_unique_rating,743353,Syracuse,,53,,5,,,,,,,,,,,,,,,,,
null,,confidence_buffer,743462,confidence_buffer,,null,,,,,,,,,,,,,,,,,,,
1553.6000001430511,,pt2_memorable_rating,745017,Syracuse,,53,,5,,,,,,,,,,,,,,,,,
null,,confidence_buffer,745125,confidence_buffer,,null,,,,,,,,,,,,,,,,,,,
2520.5,,recognition_phase,747647,Syracuse,,49,,,,,old,1,1,,,,,,,,,,,,
null,,confidence_buffer,747756,confidence_buffer,,null,,,,,,,,,,,,,,,,,,,
null,,thebreak,748265,break,,null,,,,,,,,,,,,,,,,,,,
2705,,realistic_rating,750972,Newport News,,53,Newport News,5,,,,,,,,,,,,,,,,,
null,,confidence_buffer,751075,confidence_buffer,,null,,,,,,,,,,,,,,,,,,,
2802.7000000476837,,pt2_unique_rating,753879,Newport News,,53,,5,,,,,,,,,,,,,,,,,
null,,confidence_buffer,753987,confidence_buffer,,null,,,,,,,,,,,,,,,,,,,
1125.8999998569489,,pt2_memorable_rating,755114,Newport News,,53,,5,,,,,,,,,,,,,,,,,
null,,confidence_buffer,755218,confidence_buffer,,null,,,,,,,,,,,,,,,,,,,
2793.2000000476837,,recognition_phase,758012,Newport News,,49,,,,,old,1,1,,,,,,,,,,,,
null,,confidence_buffer,758122,confidence_buffer,,null,,,,,,,,,,,,,,,,,,,
null,,thebreak,758631,break,,null,,,,,,,,,,,,,,,,,,,
2855.2999999523163,,realistic_rating,761488,Scottsdale,,53,Scottsdale,5,,,,,,,,,,,,,,,,,
null,,confidence_buffer,761589,confidence_buffer,,null,,,,,,,,,,,,,,,,,,,
23405.699999809265,,pt2_unique_rating,784996,Scottsdale,,50,,2,,,,,,,,,,,,,,,,,
null,,confidence_buffer,785108,confidence_buffer,,null,,,,,,,,,,,,,,,,,,,
1790.2999999523163,,pt2_memorable_rating,786899,Scottsdale,,50,,2,,,,,,,,,,,,,,,,,
null,,confidence_buffer,787008,confidence_buffer,,null,,,,,,,,,,,,,,,,,,,
4108.299999952316,,recognition_phase,791118,Scottsdale,,49,,,,,old,1,1,,,,,,,,,,,,
null,,confidence_buffer,791224,confidence_buffer,,null,,,,,,,,,,,,,,,,,,,
null,,thebreak,791732,break,,null,,,,,,,,,,,,,,,,,,,
2540.699999809265,,realistic_rating,794275,Ann Arbor,,53,Ann Arbor,5,,,,,,,,,,,,,,,,,
null,,confidence_buffer,794383,confidence_buffer,,null,,,,,,,,,,,,,,,,,,,
15007.099999904633,,pt2_unique_rating,809392,Ann Arbor,,50,,2,,,,,,,,,,,,,,,,,
null,,confidence_buffer,809497,confidence_buffer,,null,,,,,,,,,,,,,,,,,,,
1294.0999999046326,,pt2_memorable_rating,810792,Ann Arbor,,50,,2,,,,,,,,,,,,,,,,,
null,,confidence_buffer,810898,confidence_buffer,,null,,,,,,,,,,,,,,,,,,,
2451.4000000953674,,recognition_phase,813350,Ann Arbor,,49,,,,,old,1,1,,,,,,,,,,,,
null,,confidence_buffer,813457,confidence_buffer,,null,,,,,,,,,,,,,,,,,,,
null,,thebreak,813965,break,,null,,,,,,,,,,,,,,,,,,,
3879.5,,realistic_rating,817846,Topeka,,53,Topeka,5,,,,,,,,,,,,,,,,,
null,,confidence_buffer,817956,confidence_buffer,,null,,,,,,,,,,,,,,,,,,,
2987.4000000953674,,pt2_unique_rating,820944,Topeka,,52,,4,,,,,,,,,,,,,,,,,
null,,confidence_buffer,821048,confidence_buffer,,null,,,,,,,,,,,,,,,,,,,
2054.300000190735,,pt2_memorable_rating,823103,Topeka,,52,,4,,,,,,,,,,,,,,,,,
null,,confidence_buffer,823212,confidence_buffer,,null,,,,,,,,,,,,,,,,,,,
3506,,recognition_phase,826719,Topeka,,49,,,,,old,1,1,,,,,,,,,,,,
null,,confidence_buffer,826821,confidence_buffer,,null,,,,,,,,,,,,,,,,,,,
null,,thebreak,827328,break,,null,,,,,,,,,,,,,,,,,,,
5072,,realistic_rating,832401,Ithaca,,50,Ithaca,2,,,,,,,,,,,,,,,,,
null,,confidence_buffer,832504,confidence_buffer,,null,,,,,,,,,,,,,,,,,,,
27794.60000014305,,pt2_unique_rating,860300,Ithaca,,53,,5,,,,,,,,,,,,,,,,,
null,,confidence_buffer,860403,confidence_buffer,,null,,,,,,,,,,,,,,,,,,,
2328.399999856949,,pt2_memorable_rating,862732,Ithaca,,53,,5,,,,,,,,,,,,,,,,,
null,,confidence_buffer,862843,confidence_buffer,,null,,,,,,,,,,,,,,,,,,,
3167.5,,recognition_phase,866012,Ithaca,,52,,,,,new,1,1,,,,,,,,,,,,
null,,confidence_buffer,866116,confidence_buffer,,null,,,,,,,,,,,,,,,,,,,
null,,thebreak,866622,break,,null,,,,,,,,,,,,,,,,,,,
4461.400000095367,,realistic_rating,871085,Cambridge,,53,Cambridge,5,,,,,,,,,,,,,,,,,
null,,confidence_buffer,871194,confidence_buffer,,null,,,,,,,,,,,,,,,,,,,
3471.9000000953674,,pt2_unique_rating,874667,Cambridge,,52,,4,,,,,,,,,,,,,,,,,
null,,confidence_buffer,874772,confidence_buffer,,null,,,,,,,,,,,,,,,,,,,
1984.2999999523163,,pt2_memorable_rating,876758,Cambridge,,52,,4,,,,,,,,,,,,,,,,,
null,,confidence_buffer,876863,confidence_buffer,,null,,,,,,,,,,,,,,,,,,,
2788.7999999523163,,recognition_phase,879653,Cambridge,,49,,,,,old,1,1,,,,,,,,,,,,
null,,confidence_buffer,879764,confidence_buffer,,null,,,,,,,,,,,,,,,,,,,
null,,thebreak,880268,break,,null,,,,,,,,,,,,,,,,,,,
2347,,realistic_rating,882616,Carson City,,53,Carson City,5,,,,,,,,,,,,,,,,,
null,,confidence_buffer,882724,confidence_buffer,,null,,,,,,,,,,,,,,,,,,,
7887.599999904633,,pt2_unique_rating,890612,Carson City,,50,,2,,,,,,,,,,,,,,,,,
null,,confidence_buffer,890718,confidence_buffer,,null,,,,,,,,,,,,,,,,,,,
1732.5,,pt2_memorable_rating,892452,Carson City,,50,,2,,,,,,,,,,,,,,,,,
null,,confidence_buffer,892558,confidence_buffer,,null,,,,,,,,,,,,,,,,,,,
3753.899999856949,,recognition_phase,896313,Carson City,,52,,,,,new,1,1,,,,,,,,,,,,
null,,confidence_buffer,896422,confidence_buffer,,null,,,,,,,,,,,,,,,,,,,
null,,thebreak,896924,break,,null,,,,,,,,,,,,,,,,,,,
3790.5,,realistic_rating,900716,Bozeman,,53,Bozeman,5,,,,,,,,,,,,,,,,,
null,,confidence_buffer,900817,confidence_buffer,,null,,,,,,,,,,,,,,,,,,,
3859.2999999523163,,pt2_unique_rating,904677,Bozeman,,53,,5,,,,,,,,,,,,,,,,,
null,,confidence_buffer,904786,confidence_buffer,,null,,,,,,,,,,,,,,,,,,,
2037.0999999046326,,pt2_memorable_rating,906824,Bozeman,,53,,5,,,,,,,,,,,,,,,,,
null,,confidence_buffer,906927,confidence_buffer,,null,,,,,,,,,,,,,,,,,,,
3283.7999999523163,,recognition_phase,910212,Bozeman,,52,,,,,new,1,1,,,,,,,,,,,,
null,,confidence_buffer,910317,confidence_buffer,,null,,,,,,,,,,,,,,,,,,,
null,,thebreak,910823,break,,null,,,,,,,,,,,,,,,,,,,
7748.700000047684,,realistic_rating,918573,Youngstown,,53,Youngstown,5,,,,,,,,,,,,,,,,,
null,,confidence_buffer,918675,confidence_buffer,,null,,,,,,,,,,,,,,,,,,,
4893.099999904633,,pt2_unique_rating,923569,Youngstown,,49,,1,,,,,,,,,,,,,,,,,
null,,confidence_buffer,923682,confidence_buffer,,null,,,,,,,,,,,,,,,,,,,
5867.5,,probe_rating,929550,probe_rating,,51,,,3,1,,,,,,,,,,,,,,,
null,,confidence_buffer,929659,confidence_buffer,,null,,,,,,,,,,,,,,,,,,,
18796.39999985695,,pt2_memorable_rating,948457,Youngstown,,50,,2,,,,,,,,,,,,,,,,,
null,,confidence_buffer,948565,confidence_buffer,,null,,,,,,,,,,,,,,,,,,,
4529.600000143051,,recognition_phase,953096,Youngstown,,52,,,,,new,1,1,,,,,,,,,,,,
null,,confidence_buffer,953204,confidence_buffer,,null,,,,,,,,,,,,,,,,,,,
null,,thebreak,953710,break,,null,,,,,,,,,,,,,,,,,,,
3144.7999999523163,,realistic_rating,956856,Olympia,,53,Olympia,5,,,,,,,,,,,,,,,,,
null,,confidence_buffer,956963,confidence_buffer,,null,,,,,,,,,,,,,,,,,,,
17963.89999985695,,pt2_unique_rating,974928,Olympia,,52,,4,,,,,,,,,,,,,,,,,
null,,confidence_buffer,975030,confidence_buffer,,null,,,,,,,,,,,,,,,,,,,
1530.2000000476837,,pt2_memorable_rating,976562,Olympia,,52,,4,,,,,,,,,,,,,,,,,
null,,confidence_buffer,976666,confidence_buffer,,null,,,,,,,,,,,,,,,,,,,
3442.699999809265,,recognition_phase,980110,Olympia,,49,,,,,old,1,1,,,,,,,,,,,,
null,,confidence_buffer,980212,confidence_buffer,,null,,,,,,,,,,,,,,,,,,,
null,,thebreak,980714,break,,null,,,,,,,,,,,,,,,,,,,
3224.4000000953674,,realistic_rating,983940,Salem,,53,Salem,5,,,,,,,,,,,,,,,,,
null,,confidence_buffer,984046,confidence_buffer,,null,,,,,,,,,,,,,,,,,,,
2719.399999856949,,pt2_unique_rating,986767,Salem,,49,,1,,,,,,,,,,,,,,,,,
null,,confidence_buffer,986875,confidence_buffer,,null,,,,,,,,,,,,,,,,,,,
1734,,pt2_memorable_rating,988610,Salem,,49,,1,,,,,,,,,,,,,,,,,
null,,confidence_buffer,988715,confidence_buffer,,null,,,,,,,,,,,,,,,,,,,
3331.9000000953674,,recognition_phase,992048,Salem,,52,,,,,new,1,1,,,,,,,,,,,,
null,,confidence_buffer,992154,confidence_buffer,,null,,,,,,,,,,,,,,,,,,,
null,,thebreak,992656,break,,null,,,,,,,,,,,,,,,,,,,
2642.2000000476837,,realistic_rating,995300,Dover,,53,Dover,5,,,,,,,,,,,,,,,,,
null,,confidence_buffer,995408,confidence_buffer,,null,,,,,,,,,,,,,,,,,,,
9874.299999952316,,pt2_unique_rating,1005283,Dover,,50,,2,,,,,,,,,,,,,,,,,
null,,confidence_buffer,1005393,confidence_buffer,,null,,,,,,,,,,,,,,,,,,,
2772.0999999046326,,pt2_memorable_rating,1008166,Dover,,50,,2,,,,,,,,,,,,,,,,,
null,,confidence_buffer,1008276,confidence_buffer,,null,,,,,,,,,,,,,,,,,,,
3535.2999999523163,,recognition_phase,1011812,Dover,,52,,,,,new,1,1,,,,,,,,,,,,
null,,confidence_buffer,1011924,confidence_buffer,,null,,,,,,,,,,,,,,,,,,,
null,,thebreak,1012429,break,,null,,,,,,,,,,,,,,,,,,,
3319.9000000953674,,realistic_rating,1015750,Las Cruces,,52,Las Cruces,4,,,,,,,,,,,,,,,,,
null,,confidence_buffer,1015853,confidence_buffer,,null,,,,,,,,,,,,,,,,,,,
7045.100000143051,,pt2_unique_rating,1022899,Las Cruces,,52,,4,,,,,,,,,,,,,,,,,
null,,confidence_buffer,1023005,confidence_buffer,,null,,,,,,,,,,,,,,,,,,,
10951.200000047684,,probe_rating,1033958,probe_rating,,50,,,2,1,,,,,,,,,,,,,,,
null,,confidence_buffer,1034062,confidence_buffer,,null,,,,,,,,,,,,,,,,,,,
12967.899999856949,,pt2_memorable_rating,1047031,Las Cruces,,53,,5,,,,,,,,,,,,,,,,,
null,,confidence_buffer,1047133,confidence_buffer,,null,,,,,,,,,,,,,,,,,,,
5286.400000095367,,recognition_phase,1052421,Las Cruces,,49,,,,,old,1,1,,,,,,,,,,,,
null,,confidence_buffer,1052525,confidence_buffer,,null,,,,,,,,,,,,,,,,,,,
null,,thebreak,1053035,break,,null,,,,,,,,,,,,,,,,,,,
3069.9000000953674,,realistic_rating,1056106,Montpelier,,53,Montpelier,5,,,,,,,,,,,,,,,,,
null,,confidence_buffer,1056215,confidence_buffer,,null,,,,,,,,,,,,,,,,,,,
9484.600000143051,,pt2_unique_rating,1065701,Montpelier,,53,,5,,,,,,,,,,,,,,,,,
null,,confidence_buffer,1065806,confidence_buffer,,null,,,,,,,,,,,,,,,,,,,
1878.5999999046326,,pt2_memorable_rating,1067686,Montpelier,,53,,5,,,,,,,,,,,,,,,,,
null,,confidence_buffer,1067791,confidence_buffer,,null,,,,,,,,,,,,,,,,,,,
2362.699999809265,,recognition_phase,1070155,Montpelier,,52,,,,,new,1,1,,,,,,,,,,,,
null,,confidence_buffer,1070261,confidence_buffer,,null,,,,,,,,,,,,,,,,,,,
null,,thebreak,1070765,break,,null,,,,,,,,,,,,,,,,,,,
3326.5,,realistic_rating,1074093,Norfolk,,53,Norfolk,5,,,,,,,,,,,,,,,,,
null,,confidence_buffer,1074195,confidence_buffer,,null,,,,,,,,,,,,,,,,,,,
6788.299999952316,,probe_rating,1080984,probe_rating,,51,,,3,1,,,,,,,,,,,,,,,
null,,confidence_buffer,1081087,confidence_buffer,,null,,,,,,,,,,,,,,,,,,,
5833.399999856949,,pt2_unique_rating,1086922,Norfolk,,53,,5,,,,,,,,,,,,,,,,,
null,,confidence_buffer,1087025,confidence_buffer,,null,,,,,,,,,,,,,,,,,,,
3245.9000000953674,,pt2_memorable_rating,1090272,Norfolk,,53,,5,,,,,,,,,,,,,,,,,
null,,confidence_buffer,1090374,confidence_buffer,,null,,,,,,,,,,,,,,,,,,,
5801.799999952316,,recognition_phase,1096177,Norfolk,,49,,,,,old,1,1,,,,,,,,,,,,
null,,confidence_buffer,1096287,confidence_buffer,,null,,,,,,,,,,,,,,,,,,,
null,,thebreak,1096794,break,,null,,,,,,,,,,,,,,,,,,,
4624.799999952316,,realistic_rating,1101420,Reno,,53,Reno,5,,,,,,,,,,,,,,,,,
null,,confidence_buffer,1101528,confidence_buffer,,null,,,,,,,,,,,,,,,,,,,
6540.099999904633,,probe_rating,1108069,probe_rating,,53,,,5,1,,,,,,,,,,,,,,,
null,,confidence_buffer,1108180,confidence_buffer,,null,,,,,,,,,,,,,,,,,,,
15420.299999952316,,pt2_unique_rating,1123601,Reno,,50,,2,,,,,,,,,,,,,,,,,
null,,confidence_buffer,1123705,confidence_buffer,,null,,,,,,,,,,,,,,,,,,,
2370.2999999523163,,pt2_memorable_rating,1126076,Reno,,50,,2,,,,,,,,,,,,,,,,,
null,,confidence_buffer,1126181,confidence_buffer,,null,,,,,,,,,,,,,,,,,,,
11149.799999952316,,recognition_phase,1137332,Reno,,52,,,,,new,1,1,,,,,,,,,,,,
null,,confidence_buffer,1137441,confidence_buffer,,null,,,,,,,,,,,,,,,,,,,
null,,thebreak,1137947,break,,null,,,,,,,,,,,,,,,,,,,
4203,,realistic_rating,1142151,Cheyenne,,53,Cheyenne,5,,,,,,,,,,,,,,,,,
null,,confidence_buffer,1142259,confidence_buffer,,null,,,,,,,,,,,,,,,,,,,
9208.699999809265,,pt2_unique_rating,1151469,Cheyenne,,50,,2,,,,,,,,,,,,,,,,,
null,,confidence_buffer,1151571,confidence_buffer,,null,,,,,,,,,,,,,,,,,,,
1412.4000000953674,,pt2_memorable_rating,1152985,Cheyenne,,50,,2,,,,,,,,,,,,,,,,,
null,,confidence_buffer,1153087,confidence_buffer,,null,,,,,,,,,,,,,,,,,,,
2798.5999999046326,,recognition_phase,1155887,Cheyenne,,49,,,,,old,1,1,,,,,,,,,,,,
null,,confidence_buffer,1155992,confidence_buffer,,null,,,,,,,,,,,,,,,,,,,
null,,thebreak,1156502,break,,null,,,,,,,,,,,,,,,,,,,
5261.900000095367,,realistic_rating,1161765,New Haven,,53,New Haven,5,,,,,,,,,,,,,,,,,
null,,confidence_buffer,1161877,confidence_buffer,,null,,,,,,,,,,,,,,,,,,,
7662,,probe_rating,1169540,probe_rating,,52,,,4,1,,,,,,,,,,,,,,,
null,,confidence_buffer,1169643,confidence_buffer,,null,,,,,,,,,,,,,,,,,,,
14744,,pt2_unique_rating,1184388,New Haven,,50,,2,,,,,,,,,,,,,,,,,
null,,confidence_buffer,1184489,confidence_buffer,,null,,,,,,,,,,,,,,,,,,,
1676.7999999523163,,pt2_memorable_rating,1186167,New Haven,,50,,2,,,,,,,,,,,,,,,,,
null,,confidence_buffer,1186276,confidence_buffer,,null,,,,,,,,,,,,,,,,,,,
3254.7999999523163,,recognition_phase,1189532,New Haven,,49,,,,,old,1,1,,,,,,,,,,,,
null,,confidence_buffer,1189635,confidence_buffer,,null,,,,,,,,,,,,,,,,,,,
null,,thebreak,1190145,break,,null,,,,,,,,,,,,,,,,,,,
2569.7000000476837,,realistic_rating,1192717,Boise,,53,Boise,5,,,,,,,,,,,,,,,,,
null,,confidence_buffer,1192826,confidence_buffer,,null,,,,,,,,,,,,,,,,,,,
2944.2999999523163,,pt2_unique_rating,1195771,Boise,,53,,5,,,,,,,,,,,,,,,,,
null,,confidence_buffer,1195876,confidence_buffer,,null,,,,,,,,,,,,,,,,,,,
1121.5,,pt2_memorable_rating,1196999,Boise,,53,,5,,,,,,,,,,,,,,,,,
null,,confidence_buffer,1197102,confidence_buffer,,null,,,,,,,,,,,,,,,,,,,
3238.600000143051,,recognition_phase,1200342,Boise,,52,,,,,new,1,1,,,,,,,,,,,,
null,,confidence_buffer,1200450,confidence_buffer,,null,,,,,,,,,,,,,,,,,,,
null,,thebreak,1200956,break,,null,,,,,,,,,,,,,,,,,,,
2385.0999999046326,,realistic_rating,1203342,Santa Monica,,53,Santa Monica,5,,,,,,,,,,,,,,,,,
null,,confidence_buffer,1203460,confidence_buffer,,null,,,,,,,,,,,,,,,,,,,
3656.9000000953674,,pt2_unique_rating,1207118,Santa Monica,,52,,4,,,,,,,,,,,,,,,,,
null,,confidence_buffer,1207225,confidence_buffer,,null,,,,,,,,,,,,,,,,,,,
1720.5,,pt2_memorable_rating,1208947,Santa Monica,,52,,4,,,,,,,,,,,,,,,,,
null,,confidence_buffer,1209056,confidence_buffer,,null,,,,,,,,,,,,,,,,,,,
7391.5,,recognition_phase,1216448,Santa Monica,,49,,,,,old,1,1,,,,,,,,,,,,
null,,confidence_buffer,1216550,confidence_buffer,,null,,,,,,,,,,,,,,,,,,,
null,,thebreak,1217056,break,,null,,,,,,,,,,,,,,,,,,,
2990.5,,realistic_rating,1220048,Marquette,,53,Marquette,5,,,,,,,,,,,,,,,,,
null,,confidence_buffer,1220152,confidence_buffer,,null,,,,,,,,,,,,,,,,,,,
5300.599999904633,,pt2_unique_rating,1225454,Marquette,,52,,4,,,,,,,,,,,,,,,,,
null,,confidence_buffer,1225559,confidence_buffer,,null,,,,,,,,,,,,,,,,,,,
1533.1000001430511,,pt2_memorable_rating,1227093,Marquette,,52,,4,,,,,,,,,,,,,,,,,
null,,confidence_buffer,1227196,confidence_buffer,,null,,,,,,,,,,,,,,,,,,,
6996.5,,recognition_phase,1234193,Marquette,,52,,,,,new,1,1,,,,,,,,,,,,
null,,confidence_buffer,1234302,confidence_buffer,,null,,,,,,,,,,,,,,,,,,,
null,,thebreak,1234809,break,,null,,,,,,,,,,,,,,,,,,,
2069.2000000476837,,realistic_rating,1236879,Tallahassee,,53,Tallahassee,5,,,,,,,,,,,,,,,,,
null,,confidence_buffer,1236988,confidence_buffer,,null,,,,,,,,,,,,,,,,,,,
3574.7000000476837,,pt2_unique_rating,1240564,Tallahassee,,53,,5,,,,,,,,,,,,,,,,,
null,,confidence_buffer,1240673,confidence_buffer,,null,,,,,,,,,,,,,,,,,,,
1635.7000000476837,,pt2_memorable_rating,1242310,Tallahassee,,53,,5,,,,,,,,,,,,,,,,,
null,,confidence_buffer,1242419,confidence_buffer,,null,,,,,,,,,,,,,,,,,,,
5569.299999952316,,recognition_phase,1247990,Tallahassee,,49,,,,,old,1,1,,,,,,,,,,,,
null,,confidence_buffer,1248097,confidence_buffer,,null,,,,,,,,,,,,,,,,,,,
null,,thebreak,1248606,break,,null,,,,,,,,,,,,,,,,,,,
2564.9000000953674,,realistic_rating,1251173,Decatur,,53,Decatur,5,,,,,,,,,,,,,,,,,
null,,confidence_buffer,1251275,confidence_buffer,,null,,,,,,,,,,,,,,,,,,,
3325.300000190735,,pt2_unique_rating,1254602,Decatur,,49,,1,,,,,,,,,,,,,,,,,
null,,confidence_buffer,1254706,confidence_buffer,,null,,,,,,,,,,,,,,,,,,,
1565.1000001430511,,pt2_memorable_rating,1256273,Decatur,,49,,1,,,,,,,,,,,,,,,,,
null,,confidence_buffer,1256376,confidence_buffer,,null,,,,,,,,,,,,,,,,,,,
5892.400000095367,,recognition_phase,1262269,Decatur,,52,,,,,new,1,1,,,,,,,,,,,,
null,,confidence_buffer,1262372,confidence_buffer,,null,,,,,,,,,,,,,,,,,,,
null,,thebreak,1262877,break,,null,,,,,,,,,,,,,,,,,,,
4883.5,,realistic_rating,1267762,Champaign,,53,Champaign,5,,,,,,,,,,,,,,,,,
null,,confidence_buffer,1267871,confidence_buffer,,null,,,,,,,,,,,,,,,,,,,
4786,,pt2_unique_rating,1272658,Champaign,,52,,4,,,,,,,,,,,,,,,,,
null,,confidence_buffer,1272763,confidence_buffer,,null,,,,,,,,,,,,,,,,,,,
6025.399999856949,,pt2_memorable_rating,1278789,Champaign,,52,,4,,,,,,,,,,,,,,,,,
null,,confidence_buffer,1278896,confidence_buffer,,null,,,,,,,,,,,,,,,,,,,
5553.299999952316,,recognition_phase,1284450,Champaign,,52,,,,,new,1,1,,,,,,,,,,,,
null,,confidence_buffer,1284555,confidence_buffer,,null,,,,,,,,,,,,,,,,,,,
null,,thebreak,1285064,break,,null,,,,,,,,,,,,,,,,,,,
4101.299999952316,,realistic_rating,1289167,Rock Springs,,53,Rock Springs,5,,,,,,,,,,,,,,,,,
null,,confidence_buffer,1289272,confidence_buffer,,null,,,,,,,,,,,,,,,,,,,
2484,,pt2_unique_rating,1291758,Rock Springs,,50,,2,,,,,,,,,,,,,,,,,
null,,confidence_buffer,1291860,confidence_buffer,,null,,,,,,,,,,,,,,,,,,,
2307.699999809265,,pt2_memorable_rating,1294170,Rock Springs,,50,,2,,,,,,,,,,,,,,,,,
null,,confidence_buffer,1294280,confidence_buffer,,null,,,,,,,,,,,,,,,,,,,
4450.299999952316,,recognition_phase,1298732,Rock Springs,,49,,,,,old,1,1,,,,,,,,,,,,
null,,confidence_buffer,1298837,confidence_buffer,,null,,,,,,,,,,,,,,,,,,,
null,,thebreak,1299340,break,,null,,,,,,,,,,,,,,,,,,,
3087.5,,realistic_rating,1302428,Yakima,,53,Yakima,5,,,,,,,,,,,,,,,,,
null,,confidence_buffer,1302532,confidence_buffer,,null,,,,,,,,,,,,,,,,,,,
3357.199999809265,,pt2_unique_rating,1305891,Yakima,,53,,5,,,,,,,,,,,,,,,,,
null,,confidence_buffer,1305996,confidence_buffer,,null,,,,,,,,,,,,,,,,,,,
9389.799999952316,,probe_rating,1315387,probe_rating,,51,,,3,1,,,,,,,,,,,,,,,
null,,confidence_buffer,1315498,confidence_buffer,,null,,,,,,,,,,,,,,,,,,,
13235.300000190735,,pt2_memorable_rating,1328734,Yakima,,53,,5,,,,,,,,,,,,,,,,,
null,,confidence_buffer,1328844,confidence_buffer,,null,,,,,,,,,,,,,,,,,,,
3354.5,,recognition_phase,1332199,Yakima,,49,,,,,old,1,1,,,,,,,,,,,,
null,,confidence_buffer,1332308,confidence_buffer,,null,,,,,,,,,,,,,,,,,,,
null,,thebreak,1332817,break,,null,,,,,,,,,,,,,,,,,,,
4523.099999904633,,realistic_rating,1337341,Fort Collins,,53,Fort Collins,5,,,,,,,,,,,,,,,,,
null,,confidence_buffer,1337450,confidence_buffer,,null,,,,,,,,,,,,,,,,,,,
2025.6999998092651,,pt2_unique_rating,1339477,Fort Collins,,50,,2,,,,,,,,,,,,,,,,,
null,,confidence_buffer,1339580,confidence_buffer,,null,,,,,,,,,,,,,,,,,,,
2018.7999999523163,,pt2_memorable_rating,1341600,Fort Collins,,50,,2,,,,,,,,,,,,,,,,,
null,,confidence_buffer,1341702,confidence_buffer,,null,,,,,,,,,,,,,,,,,,,
4583.5,,recognition_phase,1346287,Fort Collins,,49,,,,,old,1,1,,,,,,,,,,,,
null,,confidence_buffer,1346391,confidence_buffer,,null,,,,,,,,,,,,,,,,,,,
null,,thebreak,1346893,break,,null,,,,,,,,,,,,,,,,,,,
5481.200000047684,,realistic_rating,1352375,Dothan,,53,Dothan,5,,,,,,,,,,,,,,,,,
null,,confidence_buffer,1352482,confidence_buffer,,null,,,,,,,,,,,,,,,,,,,
6067.799999952316,,pt2_unique_rating,1358551,Dothan,,51,,3,,,,,,,,,,,,,,,,,
null,,confidence_buffer,1358660,confidence_buffer,,null,,,,,,,,,,,,,,,,,,,
7509.899999856949,,pt2_memorable_rating,1366171,Dothan,,50,,2,,,,,,,,,,,,,,,,,
null,,confidence_buffer,1366275,confidence_buffer,,null,,,,,,,,,,,,,,,,,,,
8803.100000143051,,probe_rating,1375079,probe_rating,,50,,,2,1,,,,,,,,,,,,,,,
null,,confidence_buffer,1375181,confidence_buffer,,null,,,,,,,,,,,,,,,,,,,
5929.799999952316,,recognition_phase,1381112,Dothan,,52,,,,,new,1,1,,,,,,,,,,,,
null,,confidence_buffer,1381215,confidence_buffer,,null,,,,,,,,,,,,,,,,,,,
null,,thebreak,1381723,break,,null,,,,,,,,,,,,,,,,,,,
3279.0999999046326,,realistic_rating,1385003,Helena,,53,Helena,5,,,,,,,,,,,,,,,,,
null,,confidence_buffer,1385111,confidence_buffer,,null,,,,,,,,,,,,,,,,,,,
14700.100000143051,,pt2_unique_rating,1399813,Helena,,52,,4,,,,,,,,,,,,,,,,,
null,,confidence_buffer,1399923,confidence_buffer,,null,,,,,,,,,,,,,,,,,,,
932.4000000953674,,pt2_memorable_rating,1400857,Helena,,52,,4,,,,,,,,,,,,,,,,,
null,,confidence_buffer,1400965,confidence_buffer,,null,,,,,,,,,,,,,,,,,,,
4169.700000047684,,recognition_phase,1405136,Helena,,49,,,,,old,1,1,,,,,,,,,,,,
null,,confidence_buffer,1405241,confidence_buffer,,null,,,,,,,,,,,,,,,,,,,
null,,thebreak,1405743,break,,null,,,,,,,,,,,,,,,,,,,
2969,,realistic_rating,1408713,Burlington,,53,Burlington,5,,,,,,,,,,,,,,,,,
null,,confidence_buffer,1408815,confidence_buffer,,null,,,,,,,,,,,,,,,,,,,
2907.2999999523163,,pt2_unique_rating,1411723,Burlington,,49,,1,,,,,,,,,,,,,,,,,
null,,confidence_buffer,1411827,confidence_buffer,,null,,,,,,,,,,,,,,,,,,,
2664.5,,pt2_memorable_rating,1414493,Burlington,,49,,1,,,,,,,,,,,,,,,,,
null,,confidence_buffer,1414596,confidence_buffer,,null,,,,,,,,,,,,,,,,,,,
8544.299999952316,,recognition_phase,1423142,Burlington,,52,,,,,new,1,1,,,,,,,,,,,,
null,,confidence_buffer,1423247,confidence_buffer,,null,,,,,,,,,,,,,,,,,,,
null,,thebreak,1423755,break,,null,,,,,,,,,,,,,,,,,,,
7564.399999856949,,realistic_rating,1431320,Concord,,53,Concord,5,,,,,,,,,,,,,,,,,
null,,confidence_buffer,1431423,confidence_buffer,,null,,,,,,,,,,,,,,,,,,,
6582.799999952316,,pt2_unique_rating,1438007,Concord,,49,,1,,,,,,,,,,,,,,,,,
null,,confidence_buffer,1438115,confidence_buffer,,null,,,,,,,,,,,,,,,,,,,
1781.7000000476837,,pt2_memorable_rating,1439898,Concord,,49,,1,,,,,,,,,,,,,,,,,
null,,confidence_buffer,1440005,confidence_buffer,,null,,,,,,,,,,,,,,,,,,,
2682,,recognition_phase,1442688,Concord,,49,,,,,old,1,1,,,,,,,,,,,,
null,,confidence_buffer,1442796,confidence_buffer,,null,,,,,,,,,,,,,,,,,,,
null,,thebreak,1443302,break,,null,,,,,,,,,,,,,,,,,,,
3449.4000000953674,,realistic_rating,1446753,Bellingham,,52,Bellingham,4,,,,,,,,,,,,,,,,,
null,,confidence_buffer,1446862,confidence_buffer,,null,,,,,,,,,,,,,,,,,,,
5206,,pt2_unique_rating,1452069,Bellingham,,52,,4,,,,,,,,,,,,,,,,,
null,,confidence_buffer,1452175,confidence_buffer,,null,,,,,,,,,,,,,,,,,,,
5600.200000047684,,probe_rating,1457776,probe_rating,,51,,,3,1,,,,,,,,,,,,,,,
null,,confidence_buffer,1457886,confidence_buffer,,null,,,,,,,,,,,,,,,,,,,
9596.5,,pt2_memorable_rating,1467484,Bellingham,,52,,4,,,,,,,,,,,,,,,,,
null,,confidence_buffer,1467596,confidence_buffer,,null,,,,,,,,,,,,,,,,,,,
4277.399999856949,,recognition_phase,1471874,Bellingham,,52,,,,,new,1,1,,,,,,,,,,,,
null,,confidence_buffer,1471978,confidence_buffer,,null,,,,,,,,,,,,,,,,,,,
null,,thebreak,1472487,break,,null,,,,,,,,,,,,,,,,,,,
2566.2999999523163,,realistic_rating,1475055,McKinney,,53,McKinney,5,,,,,,,,,,,,,,,,,
null,,confidence_buffer,1475157,confidence_buffer,,null,,,,,,,,,,,,,,,,,,,
4775.399999856949,,pt2_unique_rating,1479934,McKinney,,52,,4,,,,,,,,,,,,,,,,,
null,,confidence_buffer,1480036,confidence_buffer,,null,,,,,,,,,,,,,,,,,,,
2354.5,,pt2_memorable_rating,1482392,McKinney,,52,,4,,,,,,,,,,,,,,,,,
null,,confidence_buffer,1482496,confidence_buffer,,null,,,,,,,,,,,,,,,,,,,
3381.399999856949,,recognition_phase,1485879,McKinney,,52,,,,,new,1,1,,,,,,,,,,,,
null,,confidence_buffer,1485985,confidence_buffer,,null,,,,,,,,,,,,,,,,,,,
null,,thebreak,1486495,break,,null,,,,,,,,,,,,,,,,,,,
4473.5,,realistic_rating,1490969,Peoria,,53,Peoria,5,,,,,,,,,,,,,,,,,
null,,confidence_buffer,1491073,confidence_buffer,,null,,,,,,,,,,,,,,,,,,,
1789.5,,pt2_unique_rating,1492863,Peoria,,53,,5,,,,,,,,,,,,,,,,,
null,,confidence_buffer,1492972,confidence_buffer,,null,,,,,,,,,,,,,,,,,,,
1349.2000000476837,,pt2_memorable_rating,1494323,Peoria,,53,,5,,,,,,,,,,,,,,,,,
null,,confidence_buffer,1494429,confidence_buffer,,null,,,,,,,,,,,,,,,,,,,
4727.300000190735,,recognition_phase,1499157,Peoria,,52,,,,,new,1,1,,,,,,,,,,,,
null,,confidence_buffer,1499265,confidence_buffer,,null,,,,,,,,,,,,,,,,,,,
null,,thebreak,1499770,break,,null,,,,,,,,,,,,,,,,,,,
4506.700000047684,,realistic_rating,1504278,Fargo,,53,Fargo,5,,,,,,,,,,,,,,,,,
null,,confidence_buffer,1504385,confidence_buffer,,null,,,,,,,,,,,,,,,,,,,
17597.299999952316,,pt2_unique_rating,1521983,Fargo,,50,,2,,,,,,,,,,,,,,,,,
null,,confidence_buffer,1522087,confidence_buffer,,null,,,,,,,,,,,,,,,,,,,
1711.0999999046326,,pt2_memorable_rating,1523799,Fargo,,50,,2,,,,,,,,,,,,,,,,,
null,,confidence_buffer,1523908,confidence_buffer,,null,,,,,,,,,,,,,,,,,,,
6094.099999904633,,recognition_phase,1530003,Fargo,,49,,,,,old,1,1,,,,,,,,,,,,
null,,confidence_buffer,1530112,confidence_buffer,,null,,,,,,,,,,,,,,,,,,,
null,,thebreak,1530617,break,,null,,,,,,,,,,,,,,,,,,,
2885.5999999046326,,realistic_rating,1533504,Pasadena,,53,Pasadena,5,,,,,,,,,,,,,,,,,
null,,confidence_buffer,1533607,confidence_buffer,,null,,,,,,,,,,,,,,,,,,,
4302,,pt2_unique_rating,1537911,Pasadena,,53,,5,,,,,,,,,,,,,,,,,
null,,confidence_buffer,1538016,confidence_buffer,,null,,,,,,,,,,,,,,,,,,,
978,,pt2_memorable_rating,1538995,Pasadena,,53,,5,,,,,,,,,,,,,,,,,
null,,confidence_buffer,1539098,confidence_buffer,,null,,,,,,,,,,,,,,,,,,,
2681.899999856949,,recognition_phase,1541781,Pasadena,,52,,,,,new,1,1,,,,,,,,,,,,
null,,confidence_buffer,1541884,confidence_buffer,,null,,,,,,,,,,,,,,,,,,,
null,,thebreak,1542391,break,,null,,,,,,,,,,,,,,,,,,,
2548.7999999523163,,realistic_rating,1544941,Annapolis,,53,Annapolis,5,,,,,,,,,,,,,,,,,
null,,confidence_buffer,1545051,confidence_buffer,,null,,,,,,,,,,,,,,,,,,,
3600,,pt2_unique_rating,1548652,Annapolis,,52,,4,,,,,,,,,,,,,,,,,
null,,confidence_buffer,1548762,confidence_buffer,,null,,,,,,,,,,,,,,,,,,,
1703.5,,pt2_memorable_rating,1550467,Annapolis,,52,,4,,,,,,,,,,,,,,,,,
null,,confidence_buffer,1550576,confidence_buffer,,null,,,,,,,,,,,,,,,,,,,
2236.7999999523163,,recognition_phase,1552814,Annapolis,,49,,,,,old,1,1,,,,,,,,,,,,
null,,confidence_buffer,1552916,confidence_buffer,,null,,,,,,,,,,,,,,,,,,,
null,,thebreak,1553427,break,,null,,,,,,,,,,,,,,,,,,,
3185.100000143051,,realistic_rating,1556613,Berkeley,,53,Berkeley,5,,,,,,,,,,,,,,,,,
null,,confidence_buffer,1556716,confidence_buffer,,null,,,,,,,,,,,,,,,,,,,
1951.4000000953674,,pt2_unique_rating,1558668,Berkeley,,52,,4,,,,,,,,,,,,,,,,,
null,,confidence_buffer,1558775,confidence_buffer,,null,,,,,,,,,,,,,,,,,,,
1159.2999999523163,,pt2_memorable_rating,1559935,Berkeley,,52,,4,,,,,,,,,,,,,,,,,
null,,confidence_buffer,1560042,confidence_buffer,,null,,,,,,,,,,,,,,,,,,,
2219.2000000476837,,recognition_phase,1562263,Berkeley,,49,,,,,old,1,1,,,,,,,,,,,,
null,,confidence_buffer,1562365,confidence_buffer,,null,,,,,,,,,,,,,,,,,,,
null,,thebreak,1562872,break,,null,,,,,,,,,,,,,,,,,,,
4618.5,,realistic_rating,1567492,Hagerstown,,52,Hagerstown,4,,,,,,,,,,,,,,,,,
null,,confidence_buffer,1567596,confidence_buffer,,null,,,,,,,,,,,,,,,,,,,
5534.099999904633,,pt2_unique_rating,1573131,Hagerstown,,53,,5,,,,,,,,,,,,,,,,,
null,,confidence_buffer,1573233,confidence_buffer,,null,,,,,,,,,,,,,,,,,,,
1872.2000000476837,,pt2_memorable_rating,1575107,Hagerstown,,53,,5,,,,,,,,,,,,,,,,,
null,,confidence_buffer,1575217,confidence_buffer,,null,,,,,,,,,,,,,,,,,,,
2347.0999999046326,,recognition_phase,1577566,Hagerstown,,52,,,,,new,1,1,,,,,,,,,,,,
null,,confidence_buffer,1577676,confidence_buffer,,null,,,,,,,,,,,,,,,,,,,
null,,thebreak,1578180,break,,null,,,,,,,,,,,,,,,,,,,
3805.5,,realistic_rating,1581987,Terre Haute,,49,Terre Haute,1,,,,,,,,,,,,,,,,,
null,,confidence_buffer,1582097,confidence_buffer,,null,,,,,,,,,,,,,,,,,,,
4503.399999856949,,pt2_unique_rating,1586601,Terre Haute,,53,,5,,,,,,,,,,,,,,,,,
null,,confidence_buffer,1586707,confidence_buffer,,null,,,,,,,,,,,,,,,,,,,
3957.7000000476837,,pt2_memorable_rating,1590666,Terre Haute,,53,,5,,,,,,,,,,,,,,,,,
null,,confidence_buffer,1590777,confidence_buffer,,null,,,,,,,,,,,,,,,,,,,
3700.399999856949,,recognition_phase,1594479,Terre Haute,,52,,,,,new,1,1,,,,,,,,,,,,
null,,confidence_buffer,1594582,confidence_buffer,,null,,,,,,,,,,,,,,,,,,,
null,,thebreak,1595085,break,,null,,,,,,,,,,,,,,,,,,,
14268.099999904633,,realistic_rating,1609354,Toledo,,53,Toledo,5,,,,,,,,,,,,,,,,,
null,,confidence_buffer,1609457,confidence_buffer,,null,,,,,,,,,,,,,,,,,,,
12930.5,,pt2_unique_rating,1622389,Toledo,,53,,5,,,,,,,,,,,,,,,,,
null,,confidence_buffer,1622493,confidence_buffer,,null,,,,,,,,,,,,,,,,,,,
877.8999998569489,,pt2_memorable_rating,1623373,Toledo,,53,,5,,,,,,,,,,,,,,,,,
null,,confidence_buffer,1623481,confidence_buffer,,null,,,,,,,,,,,,,,,,,,,
7259.400000095367,,recognition_phase,1630742,Toledo,,49,,,,,old,1,1,,,,,,,,,,,,
null,,confidence_buffer,1630847,confidence_buffer,,null,,,,,,,,,,,,,,,,,,,
null,,thebreak,1631354,break,,null,,,,,,,,,,,,,,,,,,,
3552.2999999523163,,realistic_rating,1634907,Frankfort,,53,Frankfort,5,,,,,,,,,,,,,,,,,
null,,confidence_buffer,1635012,confidence_buffer,,null,,,,,,,,,,,,,,,,,,,
3546,,pt2_unique_rating,1638559,Frankfort,,50,,2,,,,,,,,,,,,,,,,,
null,,confidence_buffer,1638669,confidence_buffer,,null,,,,,,,,,,,,,,,,,,,
4003.7000000476837,,pt2_memorable_rating,1642674,Frankfort,,50,,2,,,,,,,,,,,,,,,,,
null,,confidence_buffer,1642777,confidence_buffer,,null,,,,,,,,,,,,,,,,,,,
11138.799999952316,,probe_rating,1653917,probe_rating,,51,,,3,1,,,,,,,,,,,,,,,
null,,confidence_buffer,1654029,confidence_buffer,,null,,,,,,,,,,,,,,,,,,,
3133.899999856949,,recognition_phase,1657164,Frankfort,,52,,,,,new,1,1,,,,,,,,,,,,
null,,confidence_buffer,1657275,confidence_buffer,,null,,,,,,,,,,,,,,,,,,,
null,,thebreak,1657786,break,,null,,,,,,,,,,,,,,,,,,,
3944.100000143051,,realistic_rating,1661731,Altoona,,53,Altoona,5,,,,,,,,,,,,,,,,,
null,,confidence_buffer,1661841,confidence_buffer,,null,,,,,,,,,,,,,,,,,,,
2321.7999999523163,,pt2_unique_rating,1664164,Altoona,,53,,5,,,,,,,,,,,,,,,,,
null,,confidence_buffer,1664265,confidence_buffer,,null,,,,,,,,,,,,,,,,,,,
967.7000000476837,,pt2_memorable_rating,1665234,Altoona,,53,,5,,,,,,,,,,,,,,,,,
null,,confidence_buffer,1665336,confidence_buffer,,null,,,,,,,,,,,,,,,,,,,
7492,,recognition_phase,1672830,Altoona,,52,,,,,new,1,1,,,,,,,,,,,,
null,,confidence_buffer,1672936,confidence_buffer,,null,,,,,,,,,,,,,,,,,,,
null,,thebreak,1673445,break,,null,,,,,,,,,,,,,,,,,,,
2296.5,,realistic_rating,1675743,Abilene,,53,Abilene,5,,,,,,,,,,,,,,,,,
null,,confidence_buffer,1675845,confidence_buffer,,null,,,,,,,,,,,,,,,,,,,
5810.099999904633,,probe_rating,1681656,probe_rating,,51,,,3,1,,,,,,,,,,,,,,,
null,,confidence_buffer,1681768,confidence_buffer,,null,,,,,,,,,,,,,,,,,,,
7649.399999856949,,pt2_unique_rating,1689419,Abilene,,52,,4,,,,,,,,,,,,,,,,,
null,,confidence_buffer,1689527,confidence_buffer,,null,,,,,,,,,,,,,,,,,,,
836.0999999046326,,pt2_memorable_rating,1690364,Abilene,,52,,4,,,,,,,,,,,,,,,,,
null,,confidence_buffer,1690467,confidence_buffer,,null,,,,,,,,,,,,,,,,,,,
3914.2000000476837,,recognition_phase,1694382,Abilene,,52,,,,,new,1,1,,,,,,,,,,,,
null,,confidence_buffer,1694493,confidence_buffer,,null,,,,,,,,,,,,,,,,,,,
null,,thebreak,1694997,break,,null,,,,,,,,,,,,,,,,,,,
2143.7999999523163,,realistic_rating,1697142,Gainesville,,53,Gainesville,5,,,,,,,,,,,,,,,,,
null,,confidence_buffer,1697247,confidence_buffer,,null,,,,,,,,,,,,,,,,,,,
1554.7000000476837,,pt2_unique_rating,1698803,Gainesville,,49,,1,,,,,,,,,,,,,,,,,
null,,confidence_buffer,1698910,confidence_buffer,,null,,,,,,,,,,,,,,,,,,,
1139.3999998569489,,pt2_memorable_rating,1700050,Gainesville,,49,,1,,,,,,,,,,,,,,,,,
null,,confidence_buffer,1700159,confidence_buffer,,null,,,,,,,,,,,,,,,,,,,
2715.199999809265,,recognition_phase,1702875,Gainesville,,49,,,,,old,1,1,,,,,,,,,,,,
null,,confidence_buffer,1702977,confidence_buffer,,null,,,,,,,,,,,,,,,,,,,
null,,thebreak,1703482,break,,null,,,,,,,,,,,,,,,,,,,
,,survey,2366605,survey-questions,,,,,,,,,,,high,No; I was only doing this study.,I did not use any strategies to help learn during the task. I just went with my gut feeling throughout this entire task.,I rated the city name based on how familiar I am with it.,I rated the city name based on whether or not the city names would be easy to remember.,I rated the city names based on whether or not a lot of cities are named that.,I rated the city names based on whether or not I could imagine a city being named that.,No; I have not completed this study anywhere else.,I enjoyed this experiment.,,
15183.100000143051,,thank_you,2381843,all_done,,32,,,,,,,,,,,,,,,,,,4,0
