rt,responses,trial_type,time_elapsed,stimulus,button_pressed,key_press,name_trial,rating,probe,probe_accuracy,response,correct,accuracy,problems,smooth,distraction,strategies,familiar,memorable,unique,realistic,similar,comments
8465.799999952316,{worker_id:60ff7c8f4f066ccf6fe05587},id_enter,8467,,,,,,,,,,,,,,,,,,,,
5021,,fullscreen,13491,fullscreen,0,,,,,,,,,,,,,,,,,,
6359.799999952316,,intro_0,19852,instruct,,32,,,,,,,,,,,,,,,,,
6821.700000047684,,intro_1,26675,instruct,,32,,,,,,,,,,,,,,,,,
10026.5,,intro_2,36701,instruct,,32,,,,,,,,,,,,,,,,,
null,,instruct_dir_4,38204,instruct,,null,,,,,,,,,,,,,,,,,
null,,thebreak,38706,break,,null,,,,,,,,,,,,,,,,,
2824.4000000953674,,familiar_rating,41532,Boulder,,50,Boulder,2,,,,,,,,,,,,,,,
null,,confidence_buffer,41636,confidence_buffer,,null,,,,,,,,,,,,,,,,,
2353.5,,unique_rating,43992,Boulder,,51,,3,,,,,,,,,,,,,,,
null,,confidence_buffer,44095,confidence_buffer,,null,,,,,,,,,,,,,,,,,
1628.0999999046326,,probe_rating,45725,probe_rating,,53,,,5,1,,,,,,,,,,,,,
null,,confidence_buffer,45828,confidence_buffer,,null,,,,,,,,,,,,,,,,,
3457.399999856949,,memorable_rating,49287,Boulder,,53,,5,,,,,,,,,,,,,,,
null,,confidence_buffer,49390,confidence_buffer,,null,,,,,,,,,,,,,,,,,
null,,thebreak,49892,break,,null,,,,,,,,,,,,,,,,,
2639.0999999046326,,familiar_rating,52532,Carson City,,49,Carson City,1,,,,,,,,,,,,,,,
null,,confidence_buffer,52636,confidence_buffer,,null,,,,,,,,,,,,,,,,,
3104.7000000476837,,unique_rating,55742,Carson City,,50,,2,,,,,,,,,,,,,,,
null,,confidence_buffer,55845,confidence_buffer,,null,,,,,,,,,,,,,,,,,
3255.399999856949,,memorable_rating,59102,Carson City,,50,,2,,,,,,,,,,,,,,,
null,,confidence_buffer,59204,confidence_buffer,,null,,,,,,,,,,,,,,,,,
null,,thebreak,59706,break,,null,,,,,,,,,,,,,,,,,
2652,,familiar_rating,62359,Athens,,50,Athens,2,,,,,,,,,,,,,,,
null,,confidence_buffer,62462,confidence_buffer,,null,,,,,,,,,,,,,,,,,
2211.0999999046326,,unique_rating,64674,Athens,,53,,5,,,,,,,,,,,,,,,
null,,confidence_buffer,64777,confidence_buffer,,null,,,,,,,,,,,,,,,,,
2054.9000000953674,,memorable_rating,66834,Athens,,53,,5,,,,,,,,,,,,,,,
null,,confidence_buffer,66937,confidence_buffer,,null,,,,,,,,,,,,,,,,,
null,,thebreak,67440,break,,null,,,,,,,,,,,,,,,,,
1371,,familiar_rating,68812,Concord,,49,Concord,1,,,,,,,,,,,,,,,
null,,confidence_buffer,68914,confidence_buffer,,null,,,,,,,,,,,,,,,,,
728.2000000476837,,unique_rating,69643,Concord,,49,,1,,,,,,,,,,,,,,,
null,,confidence_buffer,69746,confidence_buffer,,null,,,,,,,,,,,,,,,,,
2352.5,,memorable_rating,72099,Concord,,49,,1,,,,,,,,,,,,,,,
null,,confidence_buffer,72203,confidence_buffer,,null,,,,,,,,,,,,,,,,,
null,,thebreak,72706,break,,null,,,,,,,,,,,,,,,,,
3659.600000143051,,familiar_rating,76367,Fort Collins,,50,Fort Collins,2,,,,,,,,,,,,,,,
null,,confidence_buffer,76470,confidence_buffer,,null,,,,,,,,,,,,,,,,,
2063,,unique_rating,78535,Fort Collins,,49,,1,,,,,,,,,,,,,,,
null,,confidence_buffer,78637,confidence_buffer,,null,,,,,,,,,,,,,,,,,
106,,memorable_rating,78745,Fort Collins,,49,,1,,,,,,,,,,,,,,,
null,,confidence_buffer,78848,confidence_buffer,,null,,,,,,,,,,,,,,,,,
null,,thebreak,79350,break,,null,,,,,,,,,,,,,,,,,
6660,,familiar_rating,86011,Palo Alto,,50,Palo Alto,2,,,,,,,,,,,,,,,
null,,confidence_buffer,86114,confidence_buffer,,null,,,,,,,,,,,,,,,,,
2125,,unique_rating,88240,Palo Alto,,51,,3,,,,,,,,,,,,,,,
null,,confidence_buffer,88344,confidence_buffer,,null,,,,,,,,,,,,,,,,,
2392,,memorable_rating,90737,Palo Alto,,49,,1,,,,,,,,,,,,,,,
null,,confidence_buffer,90839,confidence_buffer,,null,,,,,,,,,,,,,,,,,
null,,thebreak,91341,break,,null,,,,,,,,,,,,,,,,,
3798.100000143051,,familiar_rating,95141,Yakima,,51,Yakima,3,,,,,,,,,,,,,,,
null,,confidence_buffer,95244,confidence_buffer,,null,,,,,,,,,,,,,,,,,
1837.2999999523163,,unique_rating,97083,Yakima,,52,,4,,,,,,,,,,,,,,,
null,,confidence_buffer,97186,confidence_buffer,,null,,,,,,,,,,,,,,,,,
1533.4000000953674,,memorable_rating,98721,Yakima,,53,,5,,,,,,,,,,,,,,,
null,,confidence_buffer,98824,confidence_buffer,,null,,,,,,,,,,,,,,,,,
null,,thebreak,99327,break,,null,,,,,,,,,,,,,,,,,
2084.5999999046326,,familiar_rating,101412,Helena,,49,Helena,1,,,,,,,,,,,,,,,
null,,confidence_buffer,101515,confidence_buffer,,null,,,,,,,,,,,,,,,,,
1129.3999998569489,,unique_rating,102645,Helena,,49,,1,,,,,,,,,,,,,,,
null,,confidence_buffer,102747,confidence_buffer,,null,,,,,,,,,,,,,,,,,
2661.600000143051,,memorable_rating,105410,Helena,,49,,1,,,,,,,,,,,,,,,
null,,confidence_buffer,105512,confidence_buffer,,null,,,,,,,,,,,,,,,,,
null,,thebreak,106015,break,,null,,,,,,,,,,,,,,,,,
2297.0999999046326,,familiar_rating,108313,Scottsdale,,50,Scottsdale,2,,,,,,,,,,,,,,,
null,,confidence_buffer,108417,confidence_buffer,,null,,,,,,,,,,,,,,,,,
1638.5,,unique_rating,110057,Scottsdale,,49,,1,,,,,,,,,,,,,,,
null,,confidence_buffer,110160,confidence_buffer,,null,,,,,,,,,,,,,,,,,
4854.799999952316,,memorable_rating,115016,Scottsdale,,52,,4,,,,,,,,,,,,,,,
null,,confidence_buffer,115119,confidence_buffer,,null,,,,,,,,,,,,,,,,,
null,,thebreak,115622,break,,null,,,,,,,,,,,,,,,,,
1798.6000001430511,,familiar_rating,117422,Dothan,,49,Dothan,1,,,,,,,,,,,,,,,
null,,confidence_buffer,117524,confidence_buffer,,null,,,,,,,,,,,,,,,,,
952,,unique_rating,118478,Dothan,,49,,1,,,,,,,,,,,,,,,
null,,confidence_buffer,118581,confidence_buffer,,null,,,,,,,,,,,,,,,,,
1317.5999999046326,,memorable_rating,119900,Dothan,,49,,1,,,,,,,,,,,,,,,
null,,confidence_buffer,120003,confidence_buffer,,null,,,,,,,,,,,,,,,,,
null,,thebreak,120506,break,,null,,,,,,,,,,,,,,,,,
2629.9000000953674,,familiar_rating,123138,Cheyenne,,51,Cheyenne,3,,,,,,,,,,,,,,,
null,,confidence_buffer,123240,confidence_buffer,,null,,,,,,,,,,,,,,,,,
137.10000014305115,,unique_rating,123378,Cheyenne,,51,,3,,,,,,,,,,,,,,,
null,,confidence_buffer,123480,confidence_buffer,,null,,,,,,,,,,,,,,,,,
1741,,memorable_rating,125222,Cheyenne,,51,,3,,,,,,,,,,,,,,,
null,,confidence_buffer,125325,confidence_buffer,,null,,,,,,,,,,,,,,,,,
null,,thebreak,125827,break,,null,,,,,,,,,,,,,,,,,
5122,,familiar_rating,130951,Champaign,,49,Champaign,1,,,,,,,,,,,,,,,
null,,confidence_buffer,131054,confidence_buffer,,null,,,,,,,,,,,,,,,,,
1643.2999999523163,,unique_rating,132698,Champaign,,50,,2,,,,,,,,,,,,,,,
null,,confidence_buffer,132802,confidence_buffer,,null,,,,,,,,,,,,,,,,,
2619.7000000476837,,memorable_rating,135423,Champaign,,50,,2,,,,,,,,,,,,,,,
null,,confidence_buffer,135525,confidence_buffer,,null,,,,,,,,,,,,,,,,,
null,,thebreak,136028,break,,null,,,,,,,,,,,,,,,,,
2596.4000000953674,,familiar_rating,138626,Tallahassee,,53,Tallahassee,5,,,,,,,,,,,,,,,
null,,confidence_buffer,138729,confidence_buffer,,null,,,,,,,,,,,,,,,,,
2756.100000143051,,unique_rating,141487,Tallahassee,,53,,5,,,,,,,,,,,,,,,
null,,confidence_buffer,141590,confidence_buffer,,null,,,,,,,,,,,,,,,,,
2534.7000000476837,,memorable_rating,144126,Tallahassee,,52,,4,,,,,,,,,,,,,,,
null,,confidence_buffer,144228,confidence_buffer,,null,,,,,,,,,,,,,,,,,
null,,thebreak,144730,break,,null,,,,,,,,,,,,,,,,,
1429.2000000476837,,familiar_rating,146160,New Haven,,49,New Haven,1,,,,,,,,,,,,,,,
null,,confidence_buffer,146262,confidence_buffer,,null,,,,,,,,,,,,,,,,,
1351.2999999523163,,unique_rating,147615,New Haven,,49,,1,,,,,,,,,,,,,,,
null,,confidence_buffer,147718,confidence_buffer,,null,,,,,,,,,,,,,,,,,
2189.2999999523163,,memorable_rating,149909,New Haven,,50,,2,,,,,,,,,,,,,,,
null,,confidence_buffer,150011,confidence_buffer,,null,,,,,,,,,,,,,,,,,
null,,thebreak,150513,break,,null,,,,,,,,,,,,,,,,,
2072.100000143051,,familiar_rating,152587,Pasadena,,51,Pasadena,3,,,,,,,,,,,,,,,
null,,confidence_buffer,152690,confidence_buffer,,null,,,,,,,,,,,,,,,,,
4713.100000143051,,unique_rating,157404,Pasadena,,52,,4,,,,,,,,,,,,,,,
null,,confidence_buffer,157507,confidence_buffer,,null,,,,,,,,,,,,,,,,,
689.5,,memorable_rating,158198,Pasadena,,52,,4,,,,,,,,,,,,,,,
null,,confidence_buffer,158301,confidence_buffer,,null,,,,,,,,,,,,,,,,,
null,,thebreak,158804,break,,null,,,,,,,,,,,,,,,,,
2563,,familiar_rating,161369,Muncie,,50,Muncie,2,,,,,,,,,,,,,,,
null,,confidence_buffer,161472,confidence_buffer,,null,,,,,,,,,,,,,,,,,
1691.9000000953674,,unique_rating,163166,Muncie,,51,,3,,,,,,,,,,,,,,,
null,,confidence_buffer,163270,confidence_buffer,,null,,,,,,,,,,,,,,,,,
1832.2999999523163,,memorable_rating,165104,Muncie,,50,,2,,,,,,,,,,,,,,,
null,,confidence_buffer,165206,confidence_buffer,,null,,,,,,,,,,,,,,,,,
null,,thebreak,165708,break,,null,,,,,,,,,,,,,,,,,
3181,,familiar_rating,168890,Montpelier,,52,Montpelier,4,,,,,,,,,,,,,,,
null,,confidence_buffer,168993,confidence_buffer,,null,,,,,,,,,,,,,,,,,
3494.7999999523163,,unique_rating,172489,Montpelier,,53,,5,,,,,,,,,,,,,,,
null,,confidence_buffer,172593,confidence_buffer,,null,,,,,,,,,,,,,,,,,
1565,,memorable_rating,174159,Montpelier,,49,,1,,,,,,,,,,,,,,,
null,,confidence_buffer,174262,confidence_buffer,,null,,,,,,,,,,,,,,,,,
null,,thebreak,174764,break,,null,,,,,,,,,,,,,,,,,
2209.4000000953674,,familiar_rating,176974,Salem,,53,Salem,5,,,,,,,,,,,,,,,
null,,confidence_buffer,177076,confidence_buffer,,null,,,,,,,,,,,,,,,,,
2918.7999999523163,,unique_rating,179996,Salem,,51,,3,,,,,,,,,,,,,,,
null,,confidence_buffer,180099,confidence_buffer,,null,,,,,,,,,,,,,,,,,
1884.5,,memorable_rating,181986,Salem,,51,,3,,,,,,,,,,,,,,,
null,,confidence_buffer,182089,confidence_buffer,,null,,,,,,,,,,,,,,,,,
null,,thebreak,182592,break,,null,,,,,,,,,,,,,,,,,
3606.9000000953674,,familiar_rating,186200,Dubuque,,49,Dubuque,1,,,,,,,,,,,,,,,
null,,confidence_buffer,186303,confidence_buffer,,null,,,,,,,,,,,,,,,,,
840.6999998092651,,unique_rating,187145,Dubuque,,49,,1,,,,,,,,,,,,,,,
null,,confidence_buffer,187248,confidence_buffer,,null,,,,,,,,,,,,,,,,,
1743,,memorable_rating,188992,Dubuque,,49,,1,,,,,,,,,,,,,,,
null,,confidence_buffer,189094,confidence_buffer,,null,,,,,,,,,,,,,,,,,
null,,thebreak,189597,break,,null,,,,,,,,,,,,,,,,,
1868.3000001907349,,familiar_rating,191466,Burlington,,50,Burlington,2,,,,,,,,,,,,,,,
null,,confidence_buffer,191569,confidence_buffer,,null,,,,,,,,,,,,,,,,,
1437.2999999523163,,unique_rating,193008,Burlington,,49,,1,,,,,,,,,,,,,,,
null,,confidence_buffer,193111,confidence_buffer,,null,,,,,,,,,,,,,,,,,
1366.7000000476837,,memorable_rating,194479,Burlington,,50,,2,,,,,,,,,,,,,,,
null,,confidence_buffer,194582,confidence_buffer,,null,,,,,,,,,,,,,,,,,
null,,thebreak,195086,break,,null,,,,,,,,,,,,,,,,,
6739.200000047684,,familiar_rating,201826,Bellingham,,49,Bellingham,1,,,,,,,,,,,,,,,
null,,confidence_buffer,201929,confidence_buffer,,null,,,,,,,,,,,,,,,,,
1879,,unique_rating,203809,Bellingham,,50,,2,,,,,,,,,,,,,,,
null,,confidence_buffer,203913,confidence_buffer,,null,,,,,,,,,,,,,,,,,
1390.5,,memorable_rating,205305,Bellingham,,49,,1,,,,,,,,,,,,,,,
null,,confidence_buffer,205408,confidence_buffer,,null,,,,,,,,,,,,,,,,,
null,,thebreak,205911,break,,null,,,,,,,,,,,,,,,,,
1921.8999998569489,,familiar_rating,207835,Terre Haute,,53,Terre Haute,5,,,,,,,,,,,,,,,
null,,confidence_buffer,207939,confidence_buffer,,null,,,,,,,,,,,,,,,,,
1278.2000000476837,,unique_rating,209218,Terre Haute,,53,,5,,,,,,,,,,,,,,,
null,,confidence_buffer,209320,confidence_buffer,,null,,,,,,,,,,,,,,,,,
1549,,memorable_rating,210869,Terre Haute,,53,,5,,,,,,,,,,,,,,,
null,,confidence_buffer,210971,confidence_buffer,,null,,,,,,,,,,,,,,,,,
null,,thebreak,211473,break,,null,,,,,,,,,,,,,,,,,
2494,,familiar_rating,213968,Dover,,52,Dover,4,,,,,,,,,,,,,,,
null,,confidence_buffer,214071,confidence_buffer,,null,,,,,,,,,,,,,,,,,
1273.8999998569489,,unique_rating,215347,Dover,,50,,2,,,,,,,,,,,,,,,
null,,confidence_buffer,215450,confidence_buffer,,null,,,,,,,,,,,,,,,,,
1736.2000000476837,,memorable_rating,217188,Dover,,49,,1,,,,,,,,,,,,,,,
null,,confidence_buffer,217291,confidence_buffer,,null,,,,,,,,,,,,,,,,,
null,,thebreak,217794,break,,null,,,,,,,,,,,,,,,,,
1322.7999999523163,,familiar_rating,219119,Hagerstown,,49,Hagerstown,1,,,,,,,,,,,,,,,
null,,confidence_buffer,219222,confidence_buffer,,null,,,,,,,,,,,,,,,,,
876.2999999523163,,unique_rating,220099,Hagerstown,,49,,1,,,,,,,,,,,,,,,
null,,confidence_buffer,220201,confidence_buffer,,null,,,,,,,,,,,,,,,,,
1931,,memorable_rating,222133,Hagerstown,,49,,1,,,,,,,,,,,,,,,
null,,confidence_buffer,222235,confidence_buffer,,null,,,,,,,,,,,,,,,,,
null,,thebreak,222737,break,,null,,,,,,,,,,,,,,,,,
7805.600000143051,,familiar_rating,230543,Abilene,,51,Abilene,3,,,,,,,,,,,,,,,
null,,confidence_buffer,230646,confidence_buffer,,null,,,,,,,,,,,,,,,,,
1281,,unique_rating,231928,Abilene,,51,,3,,,,,,,,,,,,,,,
null,,confidence_buffer,232031,confidence_buffer,,null,,,,,,,,,,,,,,,,,
1778.4000000953674,,memorable_rating,233810,Abilene,,49,,1,,,,,,,,,,,,,,,
null,,confidence_buffer,233913,confidence_buffer,,null,,,,,,,,,,,,,,,,,
null,,thebreak,234416,break,,null,,,,,,,,,,,,,,,,,
3873.0999999046326,,intro_0,238291,instruct,,32,,,,,,,,,,,,,,,,,
4928,,intro_1,243219,instruct,,32,,,,,,,,,,,,,,,,,
7587.300000190735,,intro_2,250807,instruct,,32,,,,,,,,,,,,,,,,,
null,,instruct_dir_4,252309,instruct,,null,,,,,,,,,,,,,,,,,
6286.900000095367,,realistic_rating,258597,Frankfort,,53,Frankfort,5,,,,,,,,,,,,,,,
null,,confidence_buffer,258700,confidence_buffer,,null,,,,,,,,,,,,,,,,,
4561.200000047684,,probe_rating,263263,probe_rating,,53,,,5,1,,,,,,,,,,,,,
null,,confidence_buffer,263366,confidence_buffer,,null,,,,,,,,,,,,,,,,,
2680.9000000953674,,pt2_unique_rating,266048,Frankfort,,50,,2,,,,,,,,,,,,,,,
null,,confidence_buffer,266151,confidence_buffer,,null,,,,,,,,,,,,,,,,,
2214.2000000476837,,pt2_memorable_rating,268367,Frankfort,,50,,2,,,,,,,,,,,,,,,
null,,confidence_buffer,268471,confidence_buffer,,null,,,,,,,,,,,,,,,,,
2425.7000000476837,,recognition_phase,270898,Frankfort,,52,,,,,new,1,1,,,,,,,,,,
null,,confidence_buffer,271001,confidence_buffer,,null,,,,,,,,,,,,,,,,,
null,,thebreak,271504,break,,null,,,,,,,,,,,,,,,,,
2829.7000000476837,,realistic_rating,274335,Helena,,53,Helena,5,,,,,,,,,,,,,,,
null,,confidence_buffer,274437,confidence_buffer,,null,,,,,,,,,,,,,,,,,
3528.7000000476837,,pt2_unique_rating,277966,Helena,,51,,3,,,,,,,,,,,,,,,
null,,confidence_buffer,278069,confidence_buffer,,null,,,,,,,,,,,,,,,,,
2581.100000143051,,pt2_memorable_rating,280652,Helena,,53,,5,,,,,,,,,,,,,,,
null,,confidence_buffer,280754,confidence_buffer,,null,,,,,,,,,,,,,,,,,
4517.800000190735,,recognition_phase,285273,Helena,,49,,,,,old,1,1,,,,,,,,,,
null,,confidence_buffer,285375,confidence_buffer,,null,,,,,,,,,,,,,,,,,
null,,thebreak,285878,break,,null,,,,,,,,,,,,,,,,,
5632.899999856949,,realistic_rating,291511,Bellingham,,50,Bellingham,2,,,,,,,,,,,,,,,
null,,confidence_buffer,291614,confidence_buffer,,null,,,,,,,,,,,,,,,,,
5256.799999952316,,pt2_unique_rating,296872,Bellingham,,50,,2,,,,,,,,,,,,,,,
null,,confidence_buffer,296974,confidence_buffer,,null,,,,,,,,,,,,,,,,,
6437.300000190735,,pt2_memorable_rating,303406,Bellingham,,50,,2,,,,,,,,,,,,,,,
null,,confidence_buffer,303510,confidence_buffer,,null,,,,,,,,,,,,,,,,,
2706.0999999046326,,recognition_phase,306215,Bellingham,,49,,,,,old,1,1,,,,,,,,,,
null,,confidence_buffer,306317,confidence_buffer,,null,,,,,,,,,,,,,,,,,
null,,thebreak,306819,break,,null,,,,,,,,,,,,,,,,,
5666.899999856949,,realistic_rating,312483,Concord,,53,Concord,5,,,,,,,,,,,,,,,
null,,confidence_buffer,312586,confidence_buffer,,null,,,,,,,,,,,,,,,,,
2529,,pt2_unique_rating,315115,Concord,,51,,3,,,,,,,,,,,,,,,
null,,confidence_buffer,315218,confidence_buffer,,null,,,,,,,,,,,,,,,,,
2757.899999856949,,pt2_memorable_rating,317976,Concord,,50,,2,,,,,,,,,,,,,,,
null,,confidence_buffer,318079,confidence_buffer,,null,,,,,,,,,,,,,,,,,
5042.200000047684,,recognition_phase,323121,Concord,,51,,,,,new,0,0.75,,,,,,,,,,
null,,confidence_buffer,323224,confidence_buffer,,null,,,,,,,,,,,,,,,,,
null,,thebreak,323726,break,,null,,,,,,,,,,,,,,,,,
2755,,realistic_rating,326482,Burlington,,52,Burlington,4,,,,,,,,,,,,,,,
null,,confidence_buffer,326585,confidence_buffer,,null,,,,,,,,,,,,,,,,,
3331.2000000476837,,pt2_unique_rating,329917,Burlington,,49,,1,,,,,,,,,,,,,,,
null,,confidence_buffer,330019,confidence_buffer,,null,,,,,,,,,,,,,,,,,
1637.5999999046326,,probe_rating,331659,probe_rating,,52,,,4,1,,,,,,,,,,,,,
null,,confidence_buffer,331762,confidence_buffer,,null,,,,,,,,,,,,,,,,,
2774.9000000953674,,pt2_memorable_rating,334538,Burlington,,52,,4,,,,,,,,,,,,,,,
null,,confidence_buffer,334640,confidence_buffer,,null,,,,,,,,,,,,,,,,,
4060,,recognition_phase,338701,Burlington,,49,,,,,old,1,0.8,,,,,,,,,,
null,,confidence_buffer,338805,confidence_buffer,,null,,,,,,,,,,,,,,,,,
null,,thebreak,339307,break,,null,,,,,,,,,,,,,,,,,
2626.2000000476837,,realistic_rating,341934,Syracuse,,53,Syracuse,5,,,,,,,,,,,,,,,
null,,confidence_buffer,342036,confidence_buffer,,null,,,,,,,,,,,,,,,,,
3508.899999856949,,pt2_unique_rating,345547,Syracuse,,53,,5,,,,,,,,,,,,,,,
null,,confidence_buffer,345650,confidence_buffer,,null,,,,,,,,,,,,,,,,,
2730.2999999523163,,pt2_memorable_rating,348382,Syracuse,,52,,4,,,,,,,,,,,,,,,
null,,confidence_buffer,348486,confidence_buffer,,null,,,,,,,,,,,,,,,,,
3066.2999999523163,,recognition_phase,351553,Syracuse,,52,,,,,new,1,0.8333333333333334,,,,,,,,,,
null,,confidence_buffer,351655,confidence_buffer,,null,,,,,,,,,,,,,,,,,
null,,thebreak,352158,break,,null,,,,,,,,,,,,,,,,,
2604.5,,realistic_rating,354763,Stamford,,49,Stamford,1,,,,,,,,,,,,,,,
null,,confidence_buffer,354866,confidence_buffer,,null,,,,,,,,,,,,,,,,,
2149.600000143051,,pt2_unique_rating,357017,Stamford,,53,,5,,,,,,,,,,,,,,,
null,,confidence_buffer,357120,confidence_buffer,,null,,,,,,,,,,,,,,,,,
2406.5999999046326,,pt2_memorable_rating,359528,Stamford,,50,,2,,,,,,,,,,,,,,,
null,,confidence_buffer,359632,confidence_buffer,,null,,,,,,,,,,,,,,,,,
1748.7999999523163,,recognition_phase,361381,Stamford,,52,,,,,new,1,0.8571428571428571,,,,,,,,,,
null,,confidence_buffer,361483,confidence_buffer,,null,,,,,,,,,,,,,,,,,
null,,thebreak,361985,break,,null,,,,,,,,,,,,,,,,,
2036.8999998569489,,realistic_rating,364023,New Haven,,51,New Haven,3,,,,,,,,,,,,,,,
null,,confidence_buffer,364126,confidence_buffer,,null,,,,,,,,,,,,,,,,,
1392.8999998569489,,pt2_unique_rating,365520,New Haven,,50,,2,,,,,,,,,,,,,,,
null,,confidence_buffer,365627,confidence_buffer,,null,,,,,,,,,,,,,,,,,
3079.7999999523163,,pt2_memorable_rating,368709,New Haven,,53,,5,,,,,,,,,,,,,,,
null,,confidence_buffer,368812,confidence_buffer,,null,,,,,,,,,,,,,,,,,
2228.899999856949,,recognition_phase,371043,New Haven,,49,,,,,old,1,0.875,,,,,,,,,,
null,,confidence_buffer,371145,confidence_buffer,,null,,,,,,,,,,,,,,,,,
null,,thebreak,371646,break,,null,,,,,,,,,,,,,,,,,
4088.4000000953674,,realistic_rating,375736,Pueblo,,52,Pueblo,4,,,,,,,,,,,,,,,
null,,confidence_buffer,375837,confidence_buffer,,null,,,,,,,,,,,,,,,,,
1150.9000000953674,,pt2_unique_rating,376989,Pueblo,,51,,3,,,,,,,,,,,,,,,
null,,confidence_buffer,377093,confidence_buffer,,null,,,,,,,,,,,,,,,,,
2418.199999809265,,pt2_memorable_rating,379512,Pueblo,,50,,2,,,,,,,,,,,,,,,
null,,confidence_buffer,379615,confidence_buffer,,null,,,,,,,,,,,,,,,,,
1828.0999999046326,,recognition_phase,381445,Pueblo,,52,,,,,new,1,0.8888888888888888,,,,,,,,,,
null,,confidence_buffer,381548,confidence_buffer,,null,,,,,,,,,,,,,,,,,
null,,thebreak,382050,break,,null,,,,,,,,,,,,,,,,,
2453.0999999046326,,realistic_rating,384503,Marquette,,50,Marquette,2,,,,,,,,,,,,,,,
null,,confidence_buffer,384605,confidence_buffer,,null,,,,,,,,,,,,,,,,,
1897.8999998569489,,pt2_unique_rating,386504,Marquette,,49,,1,,,,,,,,,,,,,,,
null,,confidence_buffer,386608,confidence_buffer,,null,,,,,,,,,,,,,,,,,
1864.9000000953674,,pt2_memorable_rating,388474,Marquette,,49,,1,,,,,,,,,,,,,,,
null,,confidence_buffer,388578,confidence_buffer,,null,,,,,,,,,,,,,,,,,
2068.9000000953674,,recognition_phase,390648,Marquette,,52,,,,,new,1,0.9,,,,,,,,,,
null,,confidence_buffer,390752,confidence_buffer,,null,,,,,,,,,,,,,,,,,
null,,thebreak,391255,break,,null,,,,,,,,,,,,,,,,,
4172,,realistic_rating,395429,Youngstown,,51,Youngstown,3,,,,,,,,,,,,,,,
null,,confidence_buffer,395531,confidence_buffer,,null,,,,,,,,,,,,,,,,,
2196.7999999523163,,pt2_unique_rating,397730,Youngstown,,50,,2,,,,,,,,,,,,,,,
null,,confidence_buffer,397835,confidence_buffer,,null,,,,,,,,,,,,,,,,,
1578.2999999523163,,pt2_memorable_rating,399414,Youngstown,,49,,1,,,,,,,,,,,,,,,
null,,confidence_buffer,399517,confidence_buffer,,null,,,,,,,,,,,,,,,,,
2671.4000000953674,,probe_rating,402189,probe_rating,,53,,,5,1,,,,,,,,,,,,,
null,,confidence_buffer,402292,confidence_buffer,,null,,,,,,,,,,,,,,,,,
2894.7999999523163,,recognition_phase,405188,Youngstown,,52,,,,,new,1,0.9090909090909091,,,,,,,,,,
null,,confidence_buffer,405290,confidence_buffer,,null,,,,,,,,,,,,,,,,,
null,,thebreak,405793,break,,null,,,,,,,,,,,,,,,,,
2421.199999809265,,realistic_rating,408215,Scottsdale,,52,Scottsdale,4,,,,,,,,,,,,,,,
null,,confidence_buffer,408318,confidence_buffer,,null,,,,,,,,,,,,,,,,,
3661.9000000953674,,pt2_unique_rating,411981,Scottsdale,,51,,3,,,,,,,,,,,,,,,
null,,confidence_buffer,412085,confidence_buffer,,null,,,,,,,,,,,,,,,,,
1548,,pt2_memorable_rating,413634,Scottsdale,,53,,5,,,,,,,,,,,,,,,
null,,confidence_buffer,413736,confidence_buffer,,null,,,,,,,,,,,,,,,,,
2528.300000190735,,recognition_phase,416266,Scottsdale,,49,,,,,old,1,0.9166666666666666,,,,,,,,,,
null,,confidence_buffer,416367,confidence_buffer,,null,,,,,,,,,,,,,,,,,
null,,thebreak,416869,break,,null,,,,,,,,,,,,,,,,,
2105.100000143051,,realistic_rating,418975,Berkeley,,53,Berkeley,5,,,,,,,,,,,,,,,
null,,confidence_buffer,419078,confidence_buffer,,null,,,,,,,,,,,,,,,,,
1415.5,,pt2_unique_rating,420495,Berkeley,,53,,5,,,,,,,,,,,,,,,
null,,confidence_buffer,420598,confidence_buffer,,null,,,,,,,,,,,,,,,,,
2557.7000000476837,,pt2_memorable_rating,423157,Berkeley,,53,,5,,,,,,,,,,,,,,,
null,,confidence_buffer,423260,confidence_buffer,,null,,,,,,,,,,,,,,,,,
1918.0999999046326,,recognition_phase,425180,Berkeley,,52,,,,,new,1,0.9230769230769231,,,,,,,,,,
null,,confidence_buffer,425282,confidence_buffer,,null,,,,,,,,,,,,,,,,,
null,,thebreak,425784,break,,null,,,,,,,,,,,,,,,,,
2821.5999999046326,,realistic_rating,428607,Muncie,,52,Muncie,4,,,,,,,,,,,,,,,
null,,confidence_buffer,428710,confidence_buffer,,null,,,,,,,,,,,,,,,,,
2185.699999809265,,pt2_unique_rating,430898,Muncie,,51,,3,,,,,,,,,,,,,,,
null,,confidence_buffer,431001,confidence_buffer,,null,,,,,,,,,,,,,,,,,
3390.5,,pt2_memorable_rating,434393,Muncie,,52,,4,,,,,,,,,,,,,,,
null,,confidence_buffer,434495,confidence_buffer,,null,,,,,,,,,,,,,,,,,
4177.700000047684,,recognition_phase,438674,Muncie,,49,,,,,old,1,0.9285714285714286,,,,,,,,,,
null,,confidence_buffer,438777,confidence_buffer,,null,,,,,,,,,,,,,,,,,
null,,thebreak,439279,break,,null,,,,,,,,,,,,,,,,,
2751.100000143051,,realistic_rating,442032,Tallahassee,,53,Tallahassee,5,,,,,,,,,,,,,,,
null,,confidence_buffer,442134,confidence_buffer,,null,,,,,,,,,,,,,,,,,
4444.100000143051,,pt2_unique_rating,446580,Tallahassee,,51,,3,,,,,,,,,,,,,,,
null,,confidence_buffer,446682,confidence_buffer,,null,,,,,,,,,,,,,,,,,
3808.7000000476837,,pt2_memorable_rating,450491,Tallahassee,,51,,3,,,,,,,,,,,,,,,
null,,confidence_buffer,450594,confidence_buffer,,null,,,,,,,,,,,,,,,,,
2561.100000143051,,recognition_phase,453157,Tallahassee,,52,,,,,new,0,0.8666666666666667,,,,,,,,,,
null,,confidence_buffer,453261,confidence_buffer,,null,,,,,,,,,,,,,,,,,
null,,thebreak,453764,break,,null,,,,,,,,,,,,,,,,,
2409.2000000476837,,realistic_rating,456175,Terre Haute,,53,Terre Haute,5,,,,,,,,,,,,,,,
null,,confidence_buffer,456279,confidence_buffer,,null,,,,,,,,,,,,,,,,,
4586.800000190735,,pt2_unique_rating,460867,Terre Haute,,53,,5,,,,,,,,,,,,,,,
null,,confidence_buffer,460969,confidence_buffer,,null,,,,,,,,,,,,,,,,,
1423.7999999523163,,pt2_memorable_rating,462394,Terre Haute,,50,,2,,,,,,,,,,,,,,,
null,,confidence_buffer,462497,confidence_buffer,,null,,,,,,,,,,,,,,,,,
2631.7000000476837,,recognition_phase,465131,Terre Haute,,49,,,,,old,1,0.875,,,,,,,,,,
null,,confidence_buffer,465234,confidence_buffer,,null,,,,,,,,,,,,,,,,,
null,,thebreak,465736,break,,null,,,,,,,,,,,,,,,,,
2738.9000000953674,,realistic_rating,468476,Hagerstown,,49,Hagerstown,1,,,,,,,,,,,,,,,
null,,confidence_buffer,468579,confidence_buffer,,null,,,,,,,,,,,,,,,,,
3039.0999999046326,,pt2_unique_rating,471619,Hagerstown,,51,,3,,,,,,,,,,,,,,,
null,,confidence_buffer,471722,confidence_buffer,,null,,,,,,,,,,,,,,,,,
1792.1000001430511,,pt2_memorable_rating,473516,Hagerstown,,50,,2,,,,,,,,,,,,,,,
null,,confidence_buffer,473619,confidence_buffer,,null,,,,,,,,,,,,,,,,,
2710.5999999046326,,recognition_phase,476331,Hagerstown,,52,,,,,new,0,0.8235294117647058,,,,,,,,,,
null,,confidence_buffer,476435,confidence_buffer,,null,,,,,,,,,,,,,,,,,
null,,thebreak,476937,break,,null,,,,,,,,,,,,,,,,,
1776,,realistic_rating,478715,Rock Springs,,49,Rock Springs,1,,,,,,,,,,,,,,,
null,,confidence_buffer,478818,confidence_buffer,,null,,,,,,,,,,,,,,,,,
2966.5,,pt2_unique_rating,481786,Rock Springs,,51,,3,,,,,,,,,,,,,,,
null,,confidence_buffer,481889,confidence_buffer,,null,,,,,,,,,,,,,,,,,
5215.200000047684,,pt2_memorable_rating,487105,Rock Springs,,50,,2,,,,,,,,,,,,,,,
null,,confidence_buffer,487209,confidence_buffer,,null,,,,,,,,,,,,,,,,,
1995.6000001430511,,recognition_phase,489206,Rock Springs,,52,,,,,new,1,0.8333333333333334,,,,,,,,,,
null,,confidence_buffer,489308,confidence_buffer,,null,,,,,,,,,,,,,,,,,
null,,thebreak,489810,break,,null,,,,,,,,,,,,,,,,,
2437,,realistic_rating,492248,Newport News,,49,Newport News,1,,,,,,,,,,,,,,,
null,,confidence_buffer,492350,confidence_buffer,,null,,,,,,,,,,,,,,,,,
1969.5,,pt2_unique_rating,494321,Newport News,,53,,5,,,,,,,,,,,,,,,
null,,confidence_buffer,494424,confidence_buffer,,null,,,,,,,,,,,,,,,,,
4868.600000143051,,pt2_memorable_rating,499294,Newport News,,51,,3,,,,,,,,,,,,,,,
null,,confidence_buffer,499397,confidence_buffer,,null,,,,,,,,,,,,,,,,,
1202.8000001907349,,probe_rating,500601,probe_rating,,51,,,3,1,,,,,,,,,,,,,
null,,confidence_buffer,500703,confidence_buffer,,null,,,,,,,,,,,,,,,,,
1494.9000000953674,,recognition_phase,502199,Newport News,,52,,,,,new,1,0.8421052631578947,,,,,,,,,,
null,,confidence_buffer,502301,confidence_buffer,,null,,,,,,,,,,,,,,,,,
null,,thebreak,502804,break,,null,,,,,,,,,,,,,,,,,
2369,,realistic_rating,505174,Palo Alto,,53,Palo Alto,5,,,,,,,,,,,,,,,
null,,confidence_buffer,505277,confidence_buffer,,null,,,,,,,,,,,,,,,,,
1790.3999998569489,,pt2_unique_rating,507069,Palo Alto,,52,,4,,,,,,,,,,,,,,,
null,,confidence_buffer,507173,confidence_buffer,,null,,,,,,,,,,,,,,,,,
2889.600000143051,,pt2_memorable_rating,510064,Palo Alto,,53,,5,,,,,,,,,,,,,,,
null,,confidence_buffer,510168,confidence_buffer,,null,,,,,,,,,,,,,,,,,
2379.100000143051,,recognition_phase,512548,Palo Alto,,49,,,,,old,1,0.85,,,,,,,,,,
null,,confidence_buffer,512651,confidence_buffer,,null,,,,,,,,,,,,,,,,,
null,,thebreak,513153,break,,null,,,,,,,,,,,,,,,,,
2169.100000143051,,realistic_rating,515323,Reno,,53,Reno,5,,,,,,,,,,,,,,,
null,,confidence_buffer,515427,confidence_buffer,,null,,,,,,,,,,,,,,,,,
5067.800000190735,,pt2_unique_rating,520496,Reno,,50,,2,,,,,,,,,,,,,,,
null,,confidence_buffer,520599,confidence_buffer,,null,,,,,,,,,,,,,,,,,
1991.8999998569489,,pt2_memorable_rating,522592,Reno,,51,,3,,,,,,,,,,,,,,,
null,,confidence_buffer,522695,confidence_buffer,,null,,,,,,,,,,,,,,,,,
1962.4000000953674,,recognition_phase,524658,Reno,,52,,,,,new,1,0.8571428571428571,,,,,,,,,,
null,,confidence_buffer,524760,confidence_buffer,,null,,,,,,,,,,,,,,,,,
null,,thebreak,525263,break,,null,,,,,,,,,,,,,,,,,
2260.7999999523163,,realistic_rating,527525,Fort Collins,,53,Fort Collins,5,,,,,,,,,,,,,,,
null,,confidence_buffer,527627,confidence_buffer,,null,,,,,,,,,,,,,,,,,
3743,,pt2_unique_rating,531372,Fort Collins,,49,,1,,,,,,,,,,,,,,,
null,,confidence_buffer,531475,confidence_buffer,,null,,,,,,,,,,,,,,,,,
2526.600000143051,,pt2_memorable_rating,534003,Fort Collins,,51,,3,,,,,,,,,,,,,,,
null,,confidence_buffer,534105,confidence_buffer,,null,,,,,,,,,,,,,,,,,
1802.3999998569489,,recognition_phase,535908,Fort Collins,,49,,,,,old,1,0.8636363636363636,,,,,,,,,,
null,,confidence_buffer,536010,confidence_buffer,,null,,,,,,,,,,,,,,,,,
null,,thebreak,536513,break,,null,,,,,,,,,,,,,,,,,
2187.2000000476837,,realistic_rating,538702,Cheyenne,,53,Cheyenne,5,,,,,,,,,,,,,,,
null,,confidence_buffer,538804,confidence_buffer,,null,,,,,,,,,,,,,,,,,
2388.899999856949,,pt2_unique_rating,541194,Cheyenne,,50,,2,,,,,,,,,,,,,,,
null,,confidence_buffer,541297,confidence_buffer,,null,,,,,,,,,,,,,,,,,
1933,,pt2_memorable_rating,543232,Cheyenne,,52,,4,,,,,,,,,,,,,,,
null,,confidence_buffer,543335,confidence_buffer,,null,,,,,,,,,,,,,,,,,
1790.6000001430511,,recognition_phase,545127,Cheyenne,,49,,,,,old,1,0.8695652173913043,,,,,,,,,,
null,,confidence_buffer,545229,confidence_buffer,,null,,,,,,,,,,,,,,,,,
null,,thebreak,545731,break,,null,,,,,,,,,,,,,,,,,
2099.2999999523163,,realistic_rating,547831,Abilene,,53,Abilene,5,,,,,,,,,,,,,,,
null,,confidence_buffer,547935,confidence_buffer,,null,,,,,,,,,,,,,,,,,
3789.5,,pt2_unique_rating,551725,Abilene,,50,,2,,,,,,,,,,,,,,,
null,,confidence_buffer,551829,confidence_buffer,,null,,,,,,,,,,,,,,,,,
1631,,pt2_memorable_rating,553462,Abilene,,50,,2,,,,,,,,,,,,,,,
null,,confidence_buffer,553566,confidence_buffer,,null,,,,,,,,,,,,,,,,,
3676.2000000476837,,recognition_phase,557243,Abilene,,49,,,,,old,1,0.875,,,,,,,,,,
null,,confidence_buffer,557345,confidence_buffer,,null,,,,,,,,,,,,,,,,,
null,,thebreak,557848,break,,null,,,,,,,,,,,,,,,,,
4254.200000047684,,realistic_rating,562103,Altoona,,51,Altoona,3,,,,,,,,,,,,,,,
null,,confidence_buffer,562207,confidence_buffer,,null,,,,,,,,,,,,,,,,,
2548,,pt2_unique_rating,564756,Altoona,,52,,4,,,,,,,,,,,,,,,
null,,confidence_buffer,564859,confidence_buffer,,null,,,,,,,,,,,,,,,,,
2484.5999999046326,,pt2_memorable_rating,567345,Altoona,,52,,4,,,,,,,,,,,,,,,
null,,confidence_buffer,567447,confidence_buffer,,null,,,,,,,,,,,,,,,,,
2733.899999856949,,recognition_phase,570182,Altoona,,52,,,,,new,1,0.88,,,,,,,,,,
null,,confidence_buffer,570285,confidence_buffer,,null,,,,,,,,,,,,,,,,,
null,,thebreak,570788,break,,null,,,,,,,,,,,,,,,,,
2608.699999809265,,realistic_rating,573399,Fort Wayne,,52,Fort Wayne,4,,,,,,,,,,,,,,,
null,,confidence_buffer,573501,confidence_buffer,,null,,,,,,,,,,,,,,,,,
2724.4000000953674,,pt2_unique_rating,576227,Fort Wayne,,50,,2,,,,,,,,,,,,,,,
null,,confidence_buffer,576330,confidence_buffer,,null,,,,,,,,,,,,,,,,,
2252.199999809265,,pt2_memorable_rating,578584,Fort Wayne,,50,,2,,,,,,,,,,,,,,,
null,,confidence_buffer,578686,confidence_buffer,,null,,,,,,,,,,,,,,,,,
3420.899999856949,,recognition_phase,582108,Fort Wayne,,52,,,,,new,1,0.8846153846153846,,,,,,,,,,
null,,confidence_buffer,582210,confidence_buffer,,null,,,,,,,,,,,,,,,,,
null,,thebreak,582713,break,,null,,,,,,,,,,,,,,,,,
2139.9000000953674,,realistic_rating,584855,Norfolk,,52,Norfolk,4,,,,,,,,,,,,,,,
null,,confidence_buffer,584958,confidence_buffer,,null,,,,,,,,,,,,,,,,,
2821.7000000476837,,pt2_unique_rating,587781,Norfolk,,51,,3,,,,,,,,,,,,,,,
null,,confidence_buffer,587883,confidence_buffer,,null,,,,,,,,,,,,,,,,,
1903.7000000476837,,pt2_memorable_rating,589788,Norfolk,,50,,2,,,,,,,,,,,,,,,
null,,confidence_buffer,589890,confidence_buffer,,null,,,,,,,,,,,,,,,,,
3694.5,,recognition_phase,593585,Norfolk,,52,,,,,new,1,0.8888888888888888,,,,,,,,,,
null,,confidence_buffer,593689,confidence_buffer,,null,,,,,,,,,,,,,,,,,
null,,thebreak,594191,break,,null,,,,,,,,,,,,,,,,,
2812,,realistic_rating,597004,Olympia,,52,Olympia,4,,,,,,,,,,,,,,,
null,,confidence_buffer,597108,confidence_buffer,,null,,,,,,,,,,,,,,,,,
2985.2000000476837,,pt2_unique_rating,600095,Olympia,,52,,4,,,,,,,,,,,,,,,
null,,confidence_buffer,600197,confidence_buffer,,null,,,,,,,,,,,,,,,,,
3669.2999999523163,,pt2_memorable_rating,603867,Olympia,,51,,3,,,,,,,,,,,,,,,
null,,confidence_buffer,603970,confidence_buffer,,null,,,,,,,,,,,,,,,,,
4784.5,,recognition_phase,608756,Olympia,,52,,,,,new,1,0.8928571428571429,,,,,,,,,,
null,,confidence_buffer,608859,confidence_buffer,,null,,,,,,,,,,,,,,,,,
null,,thebreak,609361,break,,null,,,,,,,,,,,,,,,,,
3028.2999999523163,,realistic_rating,612391,McKinney,,50,McKinney,2,,,,,,,,,,,,,,,
null,,confidence_buffer,612494,confidence_buffer,,null,,,,,,,,,,,,,,,,,
1638.1000001430511,,probe_rating,614134,probe_rating,,51,,,3,1,,,,,,,,,,,,,
null,,confidence_buffer,614237,confidence_buffer,,null,,,,,,,,,,,,,,,,,
2898.899999856949,,pt2_unique_rating,617137,McKinney,,49,,1,,,,,,,,,,,,,,,
null,,confidence_buffer,617240,confidence_buffer,,null,,,,,,,,,,,,,,,,,
6993,,pt2_memorable_rating,624234,McKinney,,50,,2,,,,,,,,,,,,,,,
null,,confidence_buffer,624337,confidence_buffer,,null,,,,,,,,,,,,,,,,,
2395.4000000953674,,recognition_phase,626735,McKinney,,52,,,,,new,1,0.896551724137931,,,,,,,,,,
null,,confidence_buffer,626838,confidence_buffer,,null,,,,,,,,,,,,,,,,,
null,,thebreak,627340,break,,null,,,,,,,,,,,,,,,,,
2594.2000000476837,,realistic_rating,629936,Boulder,,53,Boulder,5,,,,,,,,,,,,,,,
null,,confidence_buffer,630040,confidence_buffer,,null,,,,,,,,,,,,,,,,,
1891.8000001907349,,pt2_unique_rating,631933,Boulder,,49,,1,,,,,,,,,,,,,,,
null,,confidence_buffer,632036,confidence_buffer,,null,,,,,,,,,,,,,,,,,
1516.5,,probe_rating,633553,probe_rating,,49,,,1,1,,,,,,,,,,,,,
null,,confidence_buffer,633655,confidence_buffer,,null,,,,,,,,,,,,,,,,,
2155,,pt2_memorable_rating,635811,Boulder,,53,,5,,,,,,,,,,,,,,,
null,,confidence_buffer,635914,confidence_buffer,,null,,,,,,,,,,,,,,,,,
1784.8999998569489,,recognition_phase,637701,Boulder,,49,,,,,old,1,0.9,,,,,,,,,,
null,,confidence_buffer,637803,confidence_buffer,,null,,,,,,,,,,,,,,,,,
null,,thebreak,638305,break,,null,,,,,,,,,,,,,,,,,
2384.7000000476837,,realistic_rating,640692,Santa Monica,,53,Santa Monica,5,,,,,,,,,,,,,,,
null,,confidence_buffer,640795,confidence_buffer,,null,,,,,,,,,,,,,,,,,
1636.9000000953674,,pt2_unique_rating,642433,Santa Monica,,50,,2,,,,,,,,,,,,,,,
null,,confidence_buffer,642535,confidence_buffer,,null,,,,,,,,,,,,,,,,,
4638.100000143051,,pt2_memorable_rating,647174,Santa Monica,,49,,1,,,,,,,,,,,,,,,
null,,confidence_buffer,647277,confidence_buffer,,null,,,,,,,,,,,,,,,,,
2308.5,,recognition_phase,649587,Santa Monica,,52,,,,,new,1,0.9032258064516129,,,,,,,,,,
null,,confidence_buffer,649690,confidence_buffer,,null,,,,,,,,,,,,,,,,,
null,,thebreak,650193,break,,null,,,,,,,,,,,,,,,,,
2740.2999999523163,,realistic_rating,652935,Salem,,53,Salem,5,,,,,,,,,,,,,,,
null,,confidence_buffer,653037,confidence_buffer,,null,,,,,,,,,,,,,,,,,
2277.0999999046326,,pt2_unique_rating,655315,Salem,,50,,2,,,,,,,,,,,,,,,
null,,confidence_buffer,655417,confidence_buffer,,null,,,,,,,,,,,,,,,,,
2146.5999999046326,,pt2_memorable_rating,657565,Salem,,50,,2,,,,,,,,,,,,,,,
null,,confidence_buffer,657668,confidence_buffer,,null,,,,,,,,,,,,,,,,,
2812.7999999523163,,recognition_phase,660483,Salem,,49,,,,,old,1,0.90625,,,,,,,,,,
null,,confidence_buffer,660586,confidence_buffer,,null,,,,,,,,,,,,,,,,,
null,,thebreak,661090,break,,null,,,,,,,,,,,,,,,,,
2100.2000000476837,,realistic_rating,663192,Yakima,,53,Yakima,5,,,,,,,,,,,,,,,
null,,confidence_buffer,663295,confidence_buffer,,null,,,,,,,,,,,,,,,,,
1995.9000000953674,,pt2_unique_rating,665292,Yakima,,52,,4,,,,,,,,,,,,,,,
null,,confidence_buffer,665394,confidence_buffer,,null,,,,,,,,,,,,,,,,,
1904,,pt2_memorable_rating,667298,Yakima,,52,,4,,,,,,,,,,,,,,,
null,,confidence_buffer,667401,confidence_buffer,,null,,,,,,,,,,,,,,,,,
1522.6000001430511,,recognition_phase,668924,Yakima,,49,,,,,old,1,0.9090909090909091,,,,,,,,,,
null,,confidence_buffer,669028,confidence_buffer,,null,,,,,,,,,,,,,,,,,
null,,thebreak,669530,break,,null,,,,,,,,,,,,,,,,,
2015.2999999523163,,realistic_rating,671548,Dover,,53,Dover,5,,,,,,,,,,,,,,,
null,,confidence_buffer,671651,confidence_buffer,,null,,,,,,,,,,,,,,,,,
2403.5,,pt2_unique_rating,674056,Dover,,50,,2,,,,,,,,,,,,,,,
null,,confidence_buffer,674158,confidence_buffer,,null,,,,,,,,,,,,,,,,,
3594.2000000476837,,pt2_memorable_rating,677753,Dover,,52,,4,,,,,,,,,,,,,,,
null,,confidence_buffer,677856,confidence_buffer,,null,,,,,,,,,,,,,,,,,
2328.4000000953674,,recognition_phase,680186,Dover,,49,,,,,old,1,0.9117647058823529,,,,,,,,,,
null,,confidence_buffer,680290,confidence_buffer,,null,,,,,,,,,,,,,,,,,
null,,thebreak,680793,break,,null,,,,,,,,,,,,,,,,,
2435.699999809265,,realistic_rating,683231,Decatur,,49,Decatur,1,,,,,,,,,,,,,,,
null,,confidence_buffer,683334,confidence_buffer,,null,,,,,,,,,,,,,,,,,
3121.5,,pt2_unique_rating,686457,Decatur,,53,,5,,,,,,,,,,,,,,,
null,,confidence_buffer,686559,confidence_buffer,,null,,,,,,,,,,,,,,,,,
1576.8999998569489,,probe_rating,688138,probe_rating,,53,,,5,1,,,,,,,,,,,,,
null,,confidence_buffer,688242,confidence_buffer,,null,,,,,,,,,,,,,,,,,
2321.7000000476837,,pt2_memorable_rating,690565,Decatur,,53,,5,,,,,,,,,,,,,,,
null,,confidence_buffer,690669,confidence_buffer,,null,,,,,,,,,,,,,,,,,
2911.600000143051,,recognition_phase,693582,Decatur,,52,,,,,new,1,0.9142857142857143,,,,,,,,,,
null,,confidence_buffer,693684,confidence_buffer,,null,,,,,,,,,,,,,,,,,
null,,thebreak,694185,break,,null,,,,,,,,,,,,,,,,,
6073.799999952316,,realistic_rating,700260,Champaign,,50,Champaign,2,,,,,,,,,,,,,,,
null,,confidence_buffer,700363,confidence_buffer,,null,,,,,,,,,,,,,,,,,
3246.699999809265,,pt2_unique_rating,703612,Champaign,,52,,4,,,,,,,,,,,,,,,
null,,confidence_buffer,703715,confidence_buffer,,null,,,,,,,,,,,,,,,,,
1879.8999998569489,,pt2_memorable_rating,705596,Champaign,,52,,4,,,,,,,,,,,,,,,
null,,confidence_buffer,705700,confidence_buffer,,null,,,,,,,,,,,,,,,,,
3113.399999856949,,recognition_phase,708814,Champaign,,49,,,,,old,1,0.9166666666666666,,,,,,,,,,
null,,confidence_buffer,708917,confidence_buffer,,null,,,,,,,,,,,,,,,,,
null,,thebreak,709420,break,,null,,,,,,,,,,,,,,,,,
2672.899999856949,,realistic_rating,712094,Boise,,53,Boise,5,,,,,,,,,,,,,,,
null,,confidence_buffer,712198,confidence_buffer,,null,,,,,,,,,,,,,,,,,
2376.5999999046326,,pt2_unique_rating,714576,Boise,,50,,2,,,,,,,,,,,,,,,
null,,confidence_buffer,714679,confidence_buffer,,null,,,,,,,,,,,,,,,,,
3493.4000000953674,,pt2_memorable_rating,718174,Boise,,51,,3,,,,,,,,,,,,,,,
null,,confidence_buffer,718277,confidence_buffer,,null,,,,,,,,,,,,,,,,,
2045.5,,probe_rating,720323,probe_rating,,50,,,2,1,,,,,,,,,,,,,
null,,confidence_buffer,720426,confidence_buffer,,null,,,,,,,,,,,,,,,,,
2851.7000000476837,,recognition_phase,723280,Boise,,52,,,,,new,1,0.918918918918919,,,,,,,,,,
null,,confidence_buffer,723383,confidence_buffer,,null,,,,,,,,,,,,,,,,,
null,,thebreak,723885,break,,null,,,,,,,,,,,,,,,,,
7195.299999952316,,realistic_rating,731081,Dothan,,49,Dothan,1,,,,,,,,,,,,,,,
null,,confidence_buffer,731183,confidence_buffer,,null,,,,,,,,,,,,,,,,,
1689.2000000476837,,pt2_unique_rating,732874,Dothan,,51,,3,,,,,,,,,,,,,,,
null,,confidence_buffer,732977,confidence_buffer,,null,,,,,,,,,,,,,,,,,
1437,,pt2_memorable_rating,734415,Dothan,,50,,2,,,,,,,,,,,,,,,
null,,confidence_buffer,734519,confidence_buffer,,null,,,,,,,,,,,,,,,,,
3622,,recognition_phase,738142,Dothan,,49,,,,,old,1,0.9210526315789473,,,,,,,,,,
null,,confidence_buffer,738245,confidence_buffer,,null,,,,,,,,,,,,,,,,,
null,,thebreak,738748,break,,null,,,,,,,,,,,,,,,,,
2524,,realistic_rating,741273,Peoria,,49,Peoria,1,,,,,,,,,,,,,,,
null,,confidence_buffer,741376,confidence_buffer,,null,,,,,,,,,,,,,,,,,
2374.5999999046326,,pt2_unique_rating,743751,Peoria,,52,,4,,,,,,,,,,,,,,,
null,,confidence_buffer,743854,confidence_buffer,,null,,,,,,,,,,,,,,,,,
4107.800000190735,,pt2_memorable_rating,747963,Peoria,,53,,5,,,,,,,,,,,,,,,
null,,confidence_buffer,748066,confidence_buffer,,null,,,,,,,,,,,,,,,,,
2005.4000000953674,,recognition_phase,750073,Peoria,,52,,,,,new,1,0.9230769230769231,,,,,,,,,,
null,,confidence_buffer,750175,confidence_buffer,,null,,,,,,,,,,,,,,,,,
null,,thebreak,750677,break,,null,,,,,,,,,,,,,,,,,
2251.600000143051,,realistic_rating,752930,Ithaca,,53,Ithaca,5,,,,,,,,,,,,,,,
null,,confidence_buffer,753032,confidence_buffer,,null,,,,,,,,,,,,,,,,,
3308,,pt2_unique_rating,756342,Ithaca,,52,,4,,,,,,,,,,,,,,,
null,,confidence_buffer,756445,confidence_buffer,,null,,,,,,,,,,,,,,,,,
3699.4000000953674,,pt2_memorable_rating,760146,Ithaca,,53,,5,,,,,,,,,,,,,,,
null,,confidence_buffer,760249,confidence_buffer,,null,,,,,,,,,,,,,,,,,
2519.2000000476837,,recognition_phase,762770,Ithaca,,52,,,,,new,1,0.925,,,,,,,,,,
null,,confidence_buffer,762872,confidence_buffer,,null,,,,,,,,,,,,,,,,,
null,,thebreak,763374,break,,null,,,,,,,,,,,,,,,,,
2004.5,,realistic_rating,765380,Athens,,53,Athens,5,,,,,,,,,,,,,,,
null,,confidence_buffer,765483,confidence_buffer,,null,,,,,,,,,,,,,,,,,
3314.7000000476837,,pt2_unique_rating,768799,Athens,,51,,3,,,,,,,,,,,,,,,
null,,confidence_buffer,768903,confidence_buffer,,null,,,,,,,,,,,,,,,,,
3258.5999999046326,,pt2_memorable_rating,772162,Athens,,53,,5,,,,,,,,,,,,,,,
null,,confidence_buffer,772265,confidence_buffer,,null,,,,,,,,,,,,,,,,,
2099.7000000476837,,recognition_phase,774366,Athens,,49,,,,,old,1,0.926829268292683,,,,,,,,,,
null,,confidence_buffer,774468,confidence_buffer,,null,,,,,,,,,,,,,,,,,
null,,thebreak,774971,break,,null,,,,,,,,,,,,,,,,,
3691.600000143051,,realistic_rating,778664,Cambridge,,52,Cambridge,4,,,,,,,,,,,,,,,
null,,confidence_buffer,778768,confidence_buffer,,null,,,,,,,,,,,,,,,,,
3448.100000143051,,pt2_unique_rating,782218,Cambridge,,49,,1,,,,,,,,,,,,,,,
null,,confidence_buffer,782320,confidence_buffer,,null,,,,,,,,,,,,,,,,,
4235.900000095367,,pt2_memorable_rating,786557,Cambridge,,52,,4,,,,,,,,,,,,,,,
null,,confidence_buffer,786661,confidence_buffer,,null,,,,,,,,,,,,,,,,,
6619.200000047684,,recognition_phase,793282,Cambridge,,52,,,,,new,1,0.9285714285714286,,,,,,,,,,
null,,confidence_buffer,793385,confidence_buffer,,null,,,,,,,,,,,,,,,,,
null,,thebreak,793887,break,,null,,,,,,,,,,,,,,,,,
2649.800000190735,,realistic_rating,796538,Las Cruces,,51,Las Cruces,3,,,,,,,,,,,,,,,
null,,confidence_buffer,796641,confidence_buffer,,null,,,,,,,,,,,,,,,,,
4259.099999904633,,pt2_unique_rating,800902,Las Cruces,,52,,4,,,,,,,,,,,,,,,
null,,confidence_buffer,801005,confidence_buffer,,null,,,,,,,,,,,,,,,,,
1818.8000001907349,,pt2_memorable_rating,802826,Las Cruces,,50,,2,,,,,,,,,,,,,,,
null,,confidence_buffer,802929,confidence_buffer,,null,,,,,,,,,,,,,,,,,
4087.7999999523163,,recognition_phase,807019,Las Cruces,,52,,,,,new,1,0.9302325581395349,,,,,,,,,,
null,,confidence_buffer,807122,confidence_buffer,,null,,,,,,,,,,,,,,,,,
null,,thebreak,807625,break,,null,,,,,,,,,,,,,,,,,
2230.7000000476837,,realistic_rating,809857,Carson City,,53,Carson City,5,,,,,,,,,,,,,,,
null,,confidence_buffer,809961,confidence_buffer,,null,,,,,,,,,,,,,,,,,
1559.7000000476837,,pt2_unique_rating,811522,Carson City,,52,,4,,,,,,,,,,,,,,,
null,,confidence_buffer,811625,confidence_buffer,,null,,,,,,,,,,,,,,,,,
3004.5,,pt2_memorable_rating,814631,Carson City,,52,,4,,,,,,,,,,,,,,,
null,,confidence_buffer,814733,confidence_buffer,,null,,,,,,,,,,,,,,,,,
1510.8999998569489,,recognition_phase,816245,Carson City,,49,,,,,old,1,0.9318181818181818,,,,,,,,,,
null,,confidence_buffer,816347,confidence_buffer,,null,,,,,,,,,,,,,,,,,
null,,thebreak,816849,break,,null,,,,,,,,,,,,,,,,,
2689.5,,realistic_rating,819540,Pasadena,,52,Pasadena,4,,,,,,,,,,,,,,,
null,,confidence_buffer,819644,confidence_buffer,,null,,,,,,,,,,,,,,,,,
1534.5,,pt2_unique_rating,821180,Pasadena,,51,,3,,,,,,,,,,,,,,,
null,,confidence_buffer,821284,confidence_buffer,,null,,,,,,,,,,,,,,,,,
1637,,pt2_memorable_rating,822922,Pasadena,,51,,3,,,,,,,,,,,,,,,
null,,confidence_buffer,823025,confidence_buffer,,null,,,,,,,,,,,,,,,,,
1932.7999999523163,,recognition_phase,824960,Pasadena,,49,,,,,old,1,0.9333333333333333,,,,,,,,,,
null,,confidence_buffer,825063,confidence_buffer,,null,,,,,,,,,,,,,,,,,
null,,thebreak,825566,break,,null,,,,,,,,,,,,,,,,,
1757.0999999046326,,realistic_rating,827324,Topeka,,53,Topeka,5,,,,,,,,,,,,,,,
null,,confidence_buffer,827426,confidence_buffer,,null,,,,,,,,,,,,,,,,,
1781.7999999523163,,probe_rating,829209,probe_rating,,49,,,1,1,,,,,,,,,,,,,
null,,confidence_buffer,829311,confidence_buffer,,null,,,,,,,,,,,,,,,,,
2743.9000000953674,,pt2_unique_rating,832056,Topeka,,51,,3,,,,,,,,,,,,,,,
null,,confidence_buffer,832159,confidence_buffer,,null,,,,,,,,,,,,,,,,,
1705.3999998569489,,pt2_memorable_rating,833866,Topeka,,53,,5,,,,,,,,,,,,,,,
null,,confidence_buffer,833969,confidence_buffer,,null,,,,,,,,,,,,,,,,,
2194.7000000476837,,recognition_phase,836165,Topeka,,52,,,,,new,1,0.9347826086956522,,,,,,,,,,
null,,confidence_buffer,836269,confidence_buffer,,null,,,,,,,,,,,,,,,,,
null,,thebreak,836770,break,,null,,,,,,,,,,,,,,,,,
3840.9000000953674,,realistic_rating,840612,Toledo,,53,Toledo,5,,,,,,,,,,,,,,,
null,,confidence_buffer,840715,confidence_buffer,,null,,,,,,,,,,,,,,,,,
1859,,pt2_unique_rating,842576,Toledo,,51,,3,,,,,,,,,,,,,,,
null,,confidence_buffer,842678,confidence_buffer,,null,,,,,,,,,,,,,,,,,
1900.7000000476837,,pt2_memorable_rating,844580,Toledo,,52,,4,,,,,,,,,,,,,,,
null,,confidence_buffer,844684,confidence_buffer,,null,,,,,,,,,,,,,,,,,
2935.5999999046326,,recognition_phase,847620,Toledo,,52,,,,,new,1,0.9361702127659575,,,,,,,,,,
null,,confidence_buffer,847723,confidence_buffer,,null,,,,,,,,,,,,,,,,,
null,,thebreak,848225,break,,null,,,,,,,,,,,,,,,,,
2233.2000000476837,,realistic_rating,850460,Dubuque,,49,Dubuque,1,,,,,,,,,,,,,,,
null,,confidence_buffer,850563,confidence_buffer,,null,,,,,,,,,,,,,,,,,
3638,,pt2_unique_rating,854202,Dubuque,,51,,3,,,,,,,,,,,,,,,
null,,confidence_buffer,854305,confidence_buffer,,null,,,,,,,,,,,,,,,,,
4538.699999809265,,pt2_memorable_rating,858844,Dubuque,,51,,3,,,,,,,,,,,,,,,
null,,confidence_buffer,858946,confidence_buffer,,null,,,,,,,,,,,,,,,,,
2463.7000000476837,,recognition_phase,861411,Dubuque,,52,,,,,new,0,0.9166666666666666,,,,,,,,,,
null,,confidence_buffer,861515,confidence_buffer,,null,,,,,,,,,,,,,,,,,
null,,thebreak,862018,break,,null,,,,,,,,,,,,,,,,,
2266.5,,realistic_rating,864286,Fargo,,52,Fargo,4,,,,,,,,,,,,,,,
null,,confidence_buffer,864388,confidence_buffer,,null,,,,,,,,,,,,,,,,,
1559.8999998569489,,pt2_unique_rating,865950,Fargo,,49,,1,,,,,,,,,,,,,,,
null,,confidence_buffer,866053,confidence_buffer,,null,,,,,,,,,,,,,,,,,
1097.2999999523163,,pt2_memorable_rating,867152,Fargo,,49,,1,,,,,,,,,,,,,,,
null,,confidence_buffer,867255,confidence_buffer,,null,,,,,,,,,,,,,,,,,
2714.899999856949,,recognition_phase,869971,Fargo,,52,,,,,new,1,0.9183673469387755,,,,,,,,,,
null,,confidence_buffer,870073,confidence_buffer,,null,,,,,,,,,,,,,,,,,
null,,thebreak,870574,break,,null,,,,,,,,,,,,,,,,,
2068.899999856949,,realistic_rating,872644,Montpelier,,53,Montpelier,5,,,,,,,,,,,,,,,
null,,confidence_buffer,872748,confidence_buffer,,null,,,,,,,,,,,,,,,,,
5924.299999952316,,pt2_unique_rating,878674,Montpelier,,52,,4,,,,,,,,,,,,,,,
null,,confidence_buffer,878777,confidence_buffer,,null,,,,,,,,,,,,,,,,,
2880.7999999523163,,pt2_memorable_rating,881659,Montpelier,,49,,1,,,,,,,,,,,,,,,
null,,confidence_buffer,881761,confidence_buffer,,null,,,,,,,,,,,,,,,,,
2324.0999999046326,,recognition_phase,884086,Montpelier,,49,,,,,old,1,0.92,,,,,,,,,,
null,,confidence_buffer,884189,confidence_buffer,,null,,,,,,,,,,,,,,,,,
null,,thebreak,884691,break,,null,,,,,,,,,,,,,,,,,
,,survey,1020288,survey-questions,,,,,,,,,,none,high,Nope,I recognized a lot of the cities as capitals so that made recall easier,If I had heard about it a lot or been there; it got a 5,If I have heard about memories from a good collection of people; I deemed it memorable,I judged this based off of whether seeing this name pop up on my local news channel would give me pause,I decided this based off of if I thought the name looked misspelled,No,No
