rt,responses,trial_type,time_elapsed,stimulus,button_pressed,key_press,name_trial,rating,probe,probe_accuracy,response,correct,accuracy,problems,smooth,distraction,strategies,familiar,memorable,unique,realistic,similar,comments,detectfocus,warning
6364.899999991059,{worker_id:6130cdbb53f773b3125576a7},id_enter,6368,,,,,,,,,,,,,,,,,,,,,,
14694.79999999702,,fullscreen,21071,fullscreen,0,,,,,,,,,,,,,,,,,,,,
31157.29999999702,,intro_0,52231,instruct,,32,,,,,,,,,,,,,,,,,,,
22740.69999998808,,intro_1,74974,instruct,,32,,,,,,,,,,,,,,,,,,,
8862.5,,intro_2,83838,instruct,,32,,,,,,,,,,,,,,,,,,,
null,,instruct_dir_4,85354,instruct,,null,,,,,,,,,,,,,,,,,,,
null,,thebreak,85862,break,,null,,,,,,,,,,,,,,,,,,,
11468.79999999702,,familiar_rating,97334,Annapolis,,50,Annapolis,2,,,,,,,,,,,,,,,,,
null,,confidence_buffer,97437,confidence_buffer,,null,,,,,,,,,,,,,,,,,,,
11558.10000000894,,unique_rating,108997,Annapolis,,51,,3,,,,,,,,,,,,,,,,,
null,,confidence_buffer,109100,confidence_buffer,,null,,,,,,,,,,,,,,,,,,,
13504.09999999404,,memorable_rating,122606,Annapolis,,51,,3,,,,,,,,,,,,,,,,,
null,,confidence_buffer,122708,confidence_buffer,,null,,,,,,,,,,,,,,,,,,,
null,,thebreak,123209,break,,null,,,,,,,,,,,,,,,,,,,
12130.29999999702,,familiar_rating,135341,Pueblo,,51,Pueblo,3,,,,,,,,,,,,,,,,,
null,,confidence_buffer,135444,confidence_buffer,,null,,,,,,,,,,,,,,,,,,,
12032.90000000596,,unique_rating,147478,Pueblo,,53,,5,,,,,,,,,,,,,,,,,
null,,confidence_buffer,147588,confidence_buffer,,null,,,,,,,,,,,,,,,,,,,
7879.29999999702,,probe_rating,155469,probe_rating,,51,,,3,1,,,,,,,,,,,,,,,
null,,confidence_buffer,155572,confidence_buffer,,null,,,,,,,,,,,,,,,,,,,
7528.29999999702,,memorable_rating,163101,Pueblo,,52,,4,,,,,,,,,,,,,,,,,
null,,confidence_buffer,163204,confidence_buffer,,null,,,,,,,,,,,,,,,,,,,
null,,thebreak,163706,break,,null,,,,,,,,,,,,,,,,,,,
14569.59999999404,,familiar_rating,178277,Dover,,52,Dover,4,,,,,,,,,,,,,,,,,
null,,confidence_buffer,178380,confidence_buffer,,null,,,,,,,,,,,,,,,,,,,
9943.5,,unique_rating,188325,Dover,,50,,2,,,,,,,,,,,,,,,,,
null,,confidence_buffer,188428,confidence_buffer,,null,,,,,,,,,,,,,,,,,,,
20271.20000000298,,memorable_rating,208701,Dover,,50,,2,,,,,,,,,,,,,,,,,
null,,confidence_buffer,208803,confidence_buffer,,null,,,,,,,,,,,,,,,,,,,
null,,thebreak,209307,break,,null,,,,,,,,,,,,,,,,,,,
6912.300000011921,,familiar_rating,216221,Carson City,,53,Carson City,5,,,,,,,,,,,,,,,,,
null,,confidence_buffer,216323,confidence_buffer,,null,,,,,,,,,,,,,,,,,,,
5489,,unique_rating,221813,Carson City,,53,,5,,,,,,,,,,,,,,,,,
null,,confidence_buffer,221916,confidence_buffer,,null,,,,,,,,,,,,,,,,,,,
5113,,memorable_rating,227030,Carson City,,51,,3,,,,,,,,,,,,,,,,,
null,,confidence_buffer,227133,confidence_buffer,,null,,,,,,,,,,,,,,,,,,,
null,,thebreak,227636,break,,null,,,,,,,,,,,,,,,,,,,
6910.9000000059605,,familiar_rating,234550,Pasadena,,51,Pasadena,3,,,,,,,,,,,,,,,,,
null,,confidence_buffer,234652,confidence_buffer,,null,,,,,,,,,,,,,,,,,,,
5959,,unique_rating,240613,Pasadena,,52,,4,,,,,,,,,,,,,,,,,
null,,confidence_buffer,240716,confidence_buffer,,null,,,,,,,,,,,,,,,,,,,
9343.10000000894,,memorable_rating,250061,Pasadena,,50,,2,,,,,,,,,,,,,,,,,
null,,confidence_buffer,250164,confidence_buffer,,null,,,,,,,,,,,,,,,,,,,
null,,thebreak,250667,break,,null,,,,,,,,,,,,,,,,,,,
3840.5,,familiar_rating,254509,Rock Springs,,49,Rock Springs,1,,,,,,,,,,,,,,,,,
null,,confidence_buffer,254612,confidence_buffer,,null,,,,,,,,,,,,,,,,,,,
6751.20000000298,,unique_rating,261365,Rock Springs,,51,,3,,,,,,,,,,,,,,,,,
null,,confidence_buffer,261468,confidence_buffer,,null,,,,,,,,,,,,,,,,,,,
6119.29999999702,,memorable_rating,267589,Rock Springs,,49,,1,,,,,,,,,,,,,,,,,
null,,confidence_buffer,267692,confidence_buffer,,null,,,,,,,,,,,,,,,,,,,
null,,thebreak,268194,break,,null,,,,,,,,,,,,,,,,,,,
19465.5,,familiar_rating,287662,Altoona,,50,Altoona,2,,,,,,,,,,,,,,,,,
null,,confidence_buffer,287764,confidence_buffer,,null,,,,,,,,,,,,,,,,,,,
5182.399999991059,,unique_rating,292949,Altoona,,52,,4,,,,,,,,,,,,,,,,,
null,,confidence_buffer,293051,confidence_buffer,,null,,,,,,,,,,,,,,,,,,,
9384,,memorable_rating,302437,Altoona,,50,,2,,,,,,,,,,,,,,,,,
null,,confidence_buffer,302543,confidence_buffer,,null,,,,,,,,,,,,,,,,,,,
null,,thebreak,303045,break,,null,,,,,,,,,,,,,,,,,,,
6238,,familiar_rating,309285,Gainesville,,53,Gainesville,5,,,,,,,,,,,,,,,,,
null,,confidence_buffer,309400,confidence_buffer,,null,,,,,,,,,,,,,,,,,,,
6523.29999999702,,unique_rating,315925,Gainesville,,49,,1,,,,,,,,,,,,,,,,,
null,,confidence_buffer,316028,confidence_buffer,,null,,,,,,,,,,,,,,,,,,,
4159.29999999702,,memorable_rating,320189,Gainesville,,51,,3,,,,,,,,,,,,,,,,,
null,,confidence_buffer,320292,confidence_buffer,,null,,,,,,,,,,,,,,,,,,,
null,,thebreak,320796,break,,null,,,,,,,,,,,,,,,,,,,
8167.899999991059,,familiar_rating,328966,Boise,,53,Boise,5,,,,,,,,,,,,,,,,,
null,,confidence_buffer,329068,confidence_buffer,,null,,,,,,,,,,,,,,,,,,,
4031,,unique_rating,333101,Boise,,49,,1,,,,,,,,,,,,,,,,,
null,,confidence_buffer,333203,confidence_buffer,,null,,,,,,,,,,,,,,,,,,,
3736,,memorable_rating,336941,Boise,,52,,4,,,,,,,,,,,,,,,,,
null,,confidence_buffer,337043,confidence_buffer,,null,,,,,,,,,,,,,,,,,,,
null,,thebreak,337547,break,,null,,,,,,,,,,,,,,,,,,,
10168.800000011921,,familiar_rating,347717,Montpelier,,53,Montpelier,5,,,,,,,,,,,,,,,,,
null,,confidence_buffer,347833,confidence_buffer,,null,,,,,,,,,,,,,,,,,,,
2298.6000000089407,,unique_rating,350134,Montpelier,,49,,1,,,,,,,,,,,,,,,,,
null,,confidence_buffer,350236,confidence_buffer,,null,,,,,,,,,,,,,,,,,,,
5006.79999999702,,probe_rating,355245,probe_rating,,52,,,4,1,,,,,,,,,,,,,,,
null,,confidence_buffer,355348,confidence_buffer,,null,,,,,,,,,,,,,,,,,,,
5967.79999999702,,memorable_rating,361317,Montpelier,,51,,3,,,,,,,,,,,,,,,,,
null,,confidence_buffer,361421,confidence_buffer,,null,,,,,,,,,,,,,,,,,,,
null,,thebreak,361923,break,,null,,,,,,,,,,,,,,,,,,,
6303.9000000059605,,familiar_rating,368229,Tallahassee,,52,Tallahassee,4,,,,,,,,,,,,,,,,,
null,,confidence_buffer,368344,confidence_buffer,,null,,,,,,,,,,,,,,,,,,,
6627.5,,unique_rating,374974,Tallahassee,,51,,3,,,,,,,,,,,,,,,,,
null,,confidence_buffer,375076,confidence_buffer,,null,,,,,,,,,,,,,,,,,,,
7374.699999988079,,memorable_rating,382453,Tallahassee,,53,,5,,,,,,,,,,,,,,,,,
null,,confidence_buffer,382555,confidence_buffer,,null,,,,,,,,,,,,,,,,,,,
null,,thebreak,383057,break,,null,,,,,,,,,,,,,,,,,,,
7306.79999999702,,familiar_rating,390365,Decatur,,53,Decatur,5,,,,,,,,,,,,,,,,,
null,,confidence_buffer,390468,confidence_buffer,,null,,,,,,,,,,,,,,,,,,,
4471,,unique_rating,394941,Decatur,,49,,1,,,,,,,,,,,,,,,,,
null,,confidence_buffer,395043,confidence_buffer,,null,,,,,,,,,,,,,,,,,,,
3778.7000000029802,,memorable_rating,398823,Decatur,,50,,2,,,,,,,,,,,,,,,,,
null,,confidence_buffer,398924,confidence_buffer,,null,,,,,,,,,,,,,,,,,,,
null,,thebreak,399427,break,,null,,,,,,,,,,,,,,,,,,,
6816.79999999702,,familiar_rating,406245,Marquette,,49,Marquette,1,,,,,,,,,,,,,,,,,
null,,confidence_buffer,406348,confidence_buffer,,null,,,,,,,,,,,,,,,,,,,
7310.600000008941,,unique_rating,413661,Marquette,,53,,5,,,,,,,,,,,,,,,,,
null,,confidence_buffer,413763,confidence_buffer,,null,,,,,,,,,,,,,,,,,,,
5147.70000000298,,memorable_rating,418912,Marquette,,51,,3,,,,,,,,,,,,,,,,,
null,,confidence_buffer,419015,confidence_buffer,,null,,,,,,,,,,,,,,,,,,,
null,,thebreak,419517,break,,null,,,,,,,,,,,,,,,,,,,
4726.20000000298,,familiar_rating,424245,Cheyenne,,50,Cheyenne,2,,,,,,,,,,,,,,,,,
null,,confidence_buffer,424347,confidence_buffer,,null,,,,,,,,,,,,,,,,,,,
14680.29999999702,,unique_rating,439030,Cheyenne,,50,,2,,,,,,,,,,,,,,,,,
null,,confidence_buffer,439133,confidence_buffer,,null,,,,,,,,,,,,,,,,,,,
22037.80000001192,,memorable_rating,461173,Cheyenne,,50,,2,,,,,,,,,,,,,,,,,
null,,confidence_buffer,461275,confidence_buffer,,null,,,,,,,,,,,,,,,,,,,
null,,thebreak,461777,break,,null,,,,,,,,,,,,,,,,,,,
2938.3999999910593,,familiar_rating,464717,Dothan,,49,Dothan,1,,,,,,,,,,,,,,,,,
null,,confidence_buffer,464820,confidence_buffer,,null,,,,,,,,,,,,,,,,,,,
14712.90000000596,,unique_rating,479535,Dothan,,53,,5,,,,,,,,,,,,,,,,,
null,,confidence_buffer,479638,confidence_buffer,,null,,,,,,,,,,,,,,,,,,,
2813.300000011921,,memorable_rating,482453,Dothan,,50,,2,,,,,,,,,,,,,,,,,
null,,confidence_buffer,482556,confidence_buffer,,null,,,,,,,,,,,,,,,,,,,
null,,thebreak,483059,break,,null,,,,,,,,,,,,,,,,,,,
6296.399999991059,,familiar_rating,489357,Frankfort,,52,Frankfort,4,,,,,,,,,,,,,,,,,
null,,confidence_buffer,489463,confidence_buffer,,null,,,,,,,,,,,,,,,,,,,
6259.5,,unique_rating,495725,Frankfort,,49,,1,,,,,,,,,,,,,,,,,
null,,confidence_buffer,495827,confidence_buffer,,null,,,,,,,,,,,,,,,,,,,
5632.5,,memorable_rating,501461,Frankfort,,51,,3,,,,,,,,,,,,,,,,,
null,,confidence_buffer,501564,confidence_buffer,,null,,,,,,,,,,,,,,,,,,,
null,,thebreak,502068,break,,null,,,,,,,,,,,,,,,,,,,
4671.399999991059,,familiar_rating,506741,Yakima,,49,Yakima,1,,,,,,,,,,,,,,,,,
null,,confidence_buffer,506844,confidence_buffer,,null,,,,,,,,,,,,,,,,,,,
5927.5,,unique_rating,512773,Yakima,,53,,5,,,,,,,,,,,,,,,,,
null,,confidence_buffer,512877,confidence_buffer,,null,,,,,,,,,,,,,,,,,,,
7527.100000008941,,memorable_rating,520405,Yakima,,50,,2,,,,,,,,,,,,,,,,,
null,,confidence_buffer,520508,confidence_buffer,,null,,,,,,,,,,,,,,,,,,,
null,,thebreak,521009,break,,null,,,,,,,,,,,,,,,,,,,
3697.7000000029802,,familiar_rating,524709,Muncie,,53,Muncie,5,,,,,,,,,,,,,,,,,
null,,confidence_buffer,524811,confidence_buffer,,null,,,,,,,,,,,,,,,,,,,
8392.70000000298,,unique_rating,533206,Muncie,,52,,4,,,,,,,,,,,,,,,,,
null,,confidence_buffer,533308,confidence_buffer,,null,,,,,,,,,,,,,,,,,,,
4943.20000000298,,memorable_rating,538253,Muncie,,52,,4,,,,,,,,,,,,,,,,,
null,,confidence_buffer,538355,confidence_buffer,,null,,,,,,,,,,,,,,,,,,,
null,,thebreak,538857,break,,null,,,,,,,,,,,,,,,,,,,
7981.5,,familiar_rating,546840,Topeka,,53,Topeka,5,,,,,,,,,,,,,,,,,
null,,confidence_buffer,546943,confidence_buffer,,null,,,,,,,,,,,,,,,,,,,
6262.9000000059605,,unique_rating,553208,Topeka,,51,,3,,,,,,,,,,,,,,,,,
null,,confidence_buffer,553321,confidence_buffer,,null,,,,,,,,,,,,,,,,,,,
5050.70000000298,,memorable_rating,558373,Topeka,,52,,4,,,,,,,,,,,,,,,,,
null,,confidence_buffer,558476,confidence_buffer,,null,,,,,,,,,,,,,,,,,,,
null,,thebreak,558978,break,,null,,,,,,,,,,,,,,,,,,,
4009.300000011921,,familiar_rating,562989,Bozeman,,49,Bozeman,1,,,,,,,,,,,,,,,,,
null,,confidence_buffer,563092,confidence_buffer,,null,,,,,,,,,,,,,,,,,,,
6583.70000000298,,unique_rating,569677,Bozeman,,51,,3,,,,,,,,,,,,,,,,,
null,,confidence_buffer,569779,confidence_buffer,,null,,,,,,,,,,,,,,,,,,,
5479.79999999702,,memorable_rating,575261,Bozeman,,49,,1,,,,,,,,,,,,,,,,,
null,,confidence_buffer,575364,confidence_buffer,,null,,,,,,,,,,,,,,,,,,,
null,,thebreak,575866,break,,null,,,,,,,,,,,,,,,,,,,
6316.5,,familiar_rating,582184,Santa Monica,,53,Santa Monica,5,,,,,,,,,,,,,,,,,
null,,confidence_buffer,582287,confidence_buffer,,null,,,,,,,,,,,,,,,,,,,
2807.4000000059605,,unique_rating,585096,Santa Monica,,52,,4,,,,,,,,,,,,,,,,,
null,,confidence_buffer,585199,confidence_buffer,,null,,,,,,,,,,,,,,,,,,,
3399.0999999940395,,memorable_rating,588599,Santa Monica,,53,,5,,,,,,,,,,,,,,,,,
null,,confidence_buffer,588701,confidence_buffer,,null,,,,,,,,,,,,,,,,,,,
null,,thebreak,589203,break,,null,,,,,,,,,,,,,,,,,,,
4272.5,,familiar_rating,593478,New Haven,,53,New Haven,5,,,,,,,,,,,,,,,,,
null,,confidence_buffer,593580,confidence_buffer,,null,,,,,,,,,,,,,,,,,,,
5746.5999999940395,,unique_rating,599328,New Haven,,50,,2,,,,,,,,,,,,,,,,,
null,,confidence_buffer,599435,confidence_buffer,,null,,,,,,,,,,,,,,,,,,,
3352.1000000089407,,memorable_rating,602789,New Haven,,51,,3,,,,,,,,,,,,,,,,,
null,,confidence_buffer,602892,confidence_buffer,,null,,,,,,,,,,,,,,,,,,,
null,,thebreak,603394,break,,null,,,,,,,,,,,,,,,,,,,
8065.5,,familiar_rating,611462,Fort Wayne,,53,Fort Wayne,5,,,,,,,,,,,,,,,,,
null,,confidence_buffer,611565,confidence_buffer,,null,,,,,,,,,,,,,,,,,,,
5446.9000000059605,,unique_rating,617013,Fort Wayne,,51,,3,,,,,,,,,,,,,,,,,
null,,confidence_buffer,617116,confidence_buffer,,null,,,,,,,,,,,,,,,,,,,
3322.4000000059605,,memorable_rating,620440,Fort Wayne,,52,,4,,,,,,,,,,,,,,,,,
null,,confidence_buffer,620543,confidence_buffer,,null,,,,,,,,,,,,,,,,,,,
null,,thebreak,621045,break,,null,,,,,,,,,,,,,,,,,,,
9334.70000000298,,familiar_rating,630382,Palo Alto,,49,Palo Alto,1,,,,,,,,,,,,,,,,,
null,,confidence_buffer,630484,confidence_buffer,,null,,,,,,,,,,,,,,,,,,,
7263.5,,unique_rating,637749,Palo Alto,,52,,4,,,,,,,,,,,,,,,,,
null,,confidence_buffer,637852,confidence_buffer,,null,,,,,,,,,,,,,,,,,,,
3314.8999999910593,,memorable_rating,641168,Palo Alto,,49,,1,,,,,,,,,,,,,,,,,
null,,confidence_buffer,641271,confidence_buffer,,null,,,,,,,,,,,,,,,,,,,
null,,thebreak,641772,break,,null,,,,,,,,,,,,,,,,,,,
3598.8999999910593,,familiar_rating,645373,Boulder,,53,Boulder,5,,,,,,,,,,,,,,,,,
null,,confidence_buffer,645475,confidence_buffer,,null,,,,,,,,,,,,,,,,,,,
3040.1000000089407,,unique_rating,648517,Boulder,,52,,4,,,,,,,,,,,,,,,,,
null,,confidence_buffer,648632,confidence_buffer,,null,,,,,,,,,,,,,,,,,,,
2724.6000000089407,,memorable_rating,651358,Boulder,,53,,5,,,,,,,,,,,,,,,,,
null,,confidence_buffer,651461,confidence_buffer,,null,,,,,,,,,,,,,,,,,,,
null,,thebreak,651963,break,,null,,,,,,,,,,,,,,,,,,,
8339.89999999106,,intro_0,660304,instruct,,32,,,,,,,,,,,,,,,,,,,
11668.79999999702,,intro_1,671973,instruct,,32,,,,,,,,,,,,,,,,,,,
9766.40000000596,,intro_2,681741,instruct,,32,,,,,,,,,,,,,,,,,,,
null,,instruct_dir_4,683243,instruct,,null,,,,,,,,,,,,,,,,,,,
10160.09999999404,,realistic_rating,693405,Hagerstown,,52,Hagerstown,4,,,,,,,,,,,,,,,,,
null,,confidence_buffer,693507,confidence_buffer,,null,,,,,,,,,,,,,,,,,,,
5432,,pt2_unique_rating,698941,Hagerstown,,53,,5,,,,,,,,,,,,,,,,,
null,,confidence_buffer,699044,confidence_buffer,,null,,,,,,,,,,,,,,,,,,,
5991.9000000059605,,pt2_memorable_rating,705038,Hagerstown,,51,,3,,,,,,,,,,,,,,,,,
null,,confidence_buffer,705141,confidence_buffer,,null,,,,,,,,,,,,,,,,,,,
8614.40000000596,,recognition_phase,713757,Hagerstown,,52,,,,,new,1,1,,,,,,,,,,,,
null,,confidence_buffer,713867,confidence_buffer,,null,,,,,,,,,,,,,,,,,,,
null,,thebreak,714370,break,,null,,,,,,,,,,,,,,,,,,,
6850.399999991059,,realistic_rating,721222,Salem,,53,Salem,5,,,,,,,,,,,,,,,,,
null,,confidence_buffer,721325,confidence_buffer,,null,,,,,,,,,,,,,,,,,,,
3886.7999999970198,,pt2_unique_rating,725213,Salem,,52,,4,,,,,,,,,,,,,,,,,
null,,confidence_buffer,725316,confidence_buffer,,null,,,,,,,,,,,,,,,,,,,
4079.2000000029802,,pt2_memorable_rating,729397,Salem,,52,,4,,,,,,,,,,,,,,,,,
null,,confidence_buffer,729511,confidence_buffer,,null,,,,,,,,,,,,,,,,,,,
3039,,recognition_phase,732551,Salem,,52,,,,,new,1,1,,,,,,,,,,,,
null,,confidence_buffer,732653,confidence_buffer,,null,,,,,,,,,,,,,,,,,,,
null,,thebreak,733156,break,,null,,,,,,,,,,,,,,,,,,,
5351.70000000298,,realistic_rating,738509,Altoona,,53,Altoona,5,,,,,,,,,,,,,,,,,
null,,confidence_buffer,738612,confidence_buffer,,null,,,,,,,,,,,,,,,,,,,
4074.7999999970198,,pt2_unique_rating,742688,Altoona,,52,,4,,,,,,,,,,,,,,,,,
null,,confidence_buffer,742790,confidence_buffer,,null,,,,,,,,,,,,,,,,,,,
4381.5999999940395,,pt2_memorable_rating,747173,Altoona,,53,,5,,,,,,,,,,,,,,,,,
null,,confidence_buffer,747275,confidence_buffer,,null,,,,,,,,,,,,,,,,,,,
2863.7999999970198,,recognition_phase,750141,Altoona,,49,,,,,old,1,1,,,,,,,,,,,,
null,,confidence_buffer,750244,confidence_buffer,,null,,,,,,,,,,,,,,,,,,,
null,,thebreak,750747,break,,null,,,,,,,,,,,,,,,,,,,
7192.70000000298,,realistic_rating,757942,Champaign,,52,Champaign,4,,,,,,,,,,,,,,,,,
null,,confidence_buffer,758044,confidence_buffer,,null,,,,,,,,,,,,,,,,,,,
5967,,pt2_unique_rating,764013,Champaign,,51,,3,,,,,,,,,,,,,,,,,
null,,confidence_buffer,764115,confidence_buffer,,null,,,,,,,,,,,,,,,,,,,
7000.9000000059605,,pt2_memorable_rating,771118,Champaign,,50,,2,,,,,,,,,,,,,,,,,
null,,confidence_buffer,771220,confidence_buffer,,null,,,,,,,,,,,,,,,,,,,
3407,,recognition_phase,774629,Champaign,,52,,,,,new,1,1,,,,,,,,,,,,
null,,confidence_buffer,774731,confidence_buffer,,null,,,,,,,,,,,,,,,,,,,
null,,thebreak,775234,break,,null,,,,,,,,,,,,,,,,,,,
4681.100000008941,,realistic_rating,779917,Athens,,53,Athens,5,,,,,,,,,,,,,,,,,
null,,confidence_buffer,780020,confidence_buffer,,null,,,,,,,,,,,,,,,,,,,
4479.800000011921,,pt2_unique_rating,784502,Athens,,51,,3,,,,,,,,,,,,,,,,,
null,,confidence_buffer,784604,confidence_buffer,,null,,,,,,,,,,,,,,,,,,,
5287.29999999702,,pt2_memorable_rating,789893,Athens,,52,,4,,,,,,,,,,,,,,,,,
null,,confidence_buffer,789996,confidence_buffer,,null,,,,,,,,,,,,,,,,,,,
3624.1000000089407,,recognition_phase,793622,Athens,,52,,,,,new,1,1,,,,,,,,,,,,
null,,confidence_buffer,793724,confidence_buffer,,null,,,,,,,,,,,,,,,,,,,
null,,thebreak,794226,break,,null,,,,,,,,,,,,,,,,,,,
9657.79999999702,,realistic_rating,803886,Santa Monica,,53,Santa Monica,5,,,,,,,,,,,,,,,,,
null,,confidence_buffer,803988,confidence_buffer,,null,,,,,,,,,,,,,,,,,,,
6967,,pt2_unique_rating,810957,Santa Monica,,51,,3,,,,,,,,,,,,,,,,,
null,,confidence_buffer,811073,confidence_buffer,,null,,,,,,,,,,,,,,,,,,,
4395.100000008941,,pt2_memorable_rating,815470,Santa Monica,,52,,4,,,,,,,,,,,,,,,,,
null,,confidence_buffer,815572,confidence_buffer,,null,,,,,,,,,,,,,,,,,,,
10191.800000011921,,recognition_phase,825766,Santa Monica,,51,,,,,new,0,0.8333333333333334,,,,,,,,,,,,
null,,confidence_buffer,825876,confidence_buffer,,null,,,,,,,,,,,,,,,,,,,
null,,thebreak,826378,break,,null,,,,,,,,,,,,,,,,,,,
5401.300000011921,,realistic_rating,831781,Stamford,,52,Stamford,4,,,,,,,,,,,,,,,,,
null,,confidence_buffer,831885,confidence_buffer,,null,,,,,,,,,,,,,,,,,,,
5848,,pt2_unique_rating,837734,Stamford,,51,,3,,,,,,,,,,,,,,,,,
null,,confidence_buffer,837836,confidence_buffer,,null,,,,,,,,,,,,,,,,,,,
4727.20000000298,,pt2_memorable_rating,842566,Stamford,,49,,1,,,,,,,,,,,,,,,,,
null,,confidence_buffer,842668,confidence_buffer,,null,,,,,,,,,,,,,,,,,,,
4423.399999991059,,probe_rating,847093,probe_rating,,49,,,1,1,,,,,,,,,,,,,,,
null,,confidence_buffer,847195,confidence_buffer,,null,,,,,,,,,,,,,,,,,,,
4272.79999999702,,recognition_phase,851470,Stamford,,52,,,,,new,1,0.8571428571428571,,,,,,,,,,,,
null,,confidence_buffer,851572,confidence_buffer,,null,,,,,,,,,,,,,,,,,,,
null,,thebreak,852074,break,,null,,,,,,,,,,,,,,,,,,,
7297.79999999702,,realistic_rating,859373,McKinney,,51,McKinney,3,,,,,,,,,,,,,,,,,
null,,confidence_buffer,859476,confidence_buffer,,null,,,,,,,,,,,,,,,,,,,
7406.29999999702,,pt2_unique_rating,866884,McKinney,,49,,1,,,,,,,,,,,,,,,,,
null,,confidence_buffer,866986,confidence_buffer,,null,,,,,,,,,,,,,,,,,,,
5289,,pt2_memorable_rating,872277,McKinney,,50,,2,,,,,,,,,,,,,,,,,
null,,confidence_buffer,872379,confidence_buffer,,null,,,,,,,,,,,,,,,,,,,
3256.5999999940395,,recognition_phase,875637,McKinney,,52,,,,,new,1,0.875,,,,,,,,,,,,
null,,confidence_buffer,875740,confidence_buffer,,null,,,,,,,,,,,,,,,,,,,
null,,thebreak,876242,break,,null,,,,,,,,,,,,,,,,,,,
4260.20000000298,,realistic_rating,880504,Burlington,,53,Burlington,5,,,,,,,,,,,,,,,,,
null,,confidence_buffer,880607,confidence_buffer,,null,,,,,,,,,,,,,,,,,,,
4360,,pt2_unique_rating,884968,Burlington,,49,,1,,,,,,,,,,,,,,,,,
null,,confidence_buffer,885070,confidence_buffer,,null,,,,,,,,,,,,,,,,,,,
4676.5,,pt2_memorable_rating,889749,Burlington,,51,,3,,,,,,,,,,,,,,,,,
null,,confidence_buffer,889852,confidence_buffer,,null,,,,,,,,,,,,,,,,,,,
2360.2000000029802,,recognition_phase,892214,Burlington,,52,,,,,new,1,0.8888888888888888,,,,,,,,,,,,
null,,confidence_buffer,892317,confidence_buffer,,null,,,,,,,,,,,,,,,,,,,
null,,thebreak,892819,break,,null,,,,,,,,,,,,,,,,,,,
5640.4000000059605,,realistic_rating,898461,Reno,,53,Reno,5,,,,,,,,,,,,,,,,,
null,,confidence_buffer,898564,confidence_buffer,,null,,,,,,,,,,,,,,,,,,,
4592.5,,pt2_unique_rating,903158,Reno,,52,,4,,,,,,,,,,,,,,,,,
null,,confidence_buffer,903267,confidence_buffer,,null,,,,,,,,,,,,,,,,,,,
4624.20000000298,,pt2_memorable_rating,907893,Reno,,51,,3,,,,,,,,,,,,,,,,,
null,,confidence_buffer,907996,confidence_buffer,,null,,,,,,,,,,,,,,,,,,,
2871.6000000089407,,recognition_phase,910869,Reno,,52,,,,,new,1,0.9,,,,,,,,,,,,
null,,confidence_buffer,910973,confidence_buffer,,null,,,,,,,,,,,,,,,,,,,
null,,thebreak,911475,break,,null,,,,,,,,,,,,,,,,,,,
5160.899999991059,,realistic_rating,916638,Ann Arbor,,53,Ann Arbor,5,,,,,,,,,,,,,,,,,
null,,confidence_buffer,916740,confidence_buffer,,null,,,,,,,,,,,,,,,,,,,
2466.7999999970198,,pt2_unique_rating,919208,Ann Arbor,,52,,4,,,,,,,,,,,,,,,,,
null,,confidence_buffer,919310,confidence_buffer,,null,,,,,,,,,,,,,,,,,,,
5006,,pt2_memorable_rating,924317,Ann Arbor,,52,,4,,,,,,,,,,,,,,,,,
null,,confidence_buffer,924421,confidence_buffer,,null,,,,,,,,,,,,,,,,,,,
2535.5,,recognition_phase,926958,Ann Arbor,,52,,,,,new,1,0.9090909090909091,,,,,,,,,,,,
null,,confidence_buffer,927060,confidence_buffer,,null,,,,,,,,,,,,,,,,,,,
null,,thebreak,927562,break,,null,,,,,,,,,,,,,,,,,,,
6521.5,,realistic_rating,934085,Boulder,,53,Boulder,5,,,,,,,,,,,,,,,,,
null,,confidence_buffer,934187,confidence_buffer,,null,,,,,,,,,,,,,,,,,,,
5448.70000000298,,pt2_unique_rating,939638,Boulder,,51,,3,,,,,,,,,,,,,,,,,
null,,confidence_buffer,939745,confidence_buffer,,null,,,,,,,,,,,,,,,,,,,
4065.9000000059605,,pt2_memorable_rating,943813,Boulder,,50,,2,,,,,,,,,,,,,,,,,
null,,confidence_buffer,943916,confidence_buffer,,null,,,,,,,,,,,,,,,,,,,
2695.2000000029802,,recognition_phase,946613,Boulder,,49,,,,,old,1,0.9166666666666666,,,,,,,,,,,,
null,,confidence_buffer,946716,confidence_buffer,,null,,,,,,,,,,,,,,,,,,,
null,,thebreak,947217,break,,null,,,,,,,,,,,,,,,,,,,
3538.4000000059605,,realistic_rating,950758,New Haven,,53,New Haven,5,,,,,,,,,,,,,,,,,
null,,confidence_buffer,950860,confidence_buffer,,null,,,,,,,,,,,,,,,,,,,
7887.20000000298,,pt2_unique_rating,958749,New Haven,,49,,1,,,,,,,,,,,,,,,,,
null,,confidence_buffer,958852,confidence_buffer,,null,,,,,,,,,,,,,,,,,,,
3152.7000000029802,,pt2_memorable_rating,962006,New Haven,,51,,3,,,,,,,,,,,,,,,,,
null,,confidence_buffer,962117,confidence_buffer,,null,,,,,,,,,,,,,,,,,,,
2573.6000000089407,,recognition_phase,964693,New Haven,,49,,,,,old,1,0.9230769230769231,,,,,,,,,,,,
null,,confidence_buffer,964795,confidence_buffer,,null,,,,,,,,,,,,,,,,,,,
null,,thebreak,965298,break,,null,,,,,,,,,,,,,,,,,,,
7146.70000000298,,realistic_rating,972446,Cheyenne,,53,Cheyenne,5,,,,,,,,,,,,,,,,,
null,,confidence_buffer,972548,confidence_buffer,,null,,,,,,,,,,,,,,,,,,,
7711.300000011921,,pt2_unique_rating,980261,Cheyenne,,49,,1,,,,,,,,,,,,,,,,,
null,,confidence_buffer,980365,confidence_buffer,,null,,,,,,,,,,,,,,,,,,,
3633.2999999970198,,pt2_memorable_rating,983999,Cheyenne,,51,,3,,,,,,,,,,,,,,,,,
null,,confidence_buffer,984102,confidence_buffer,,null,,,,,,,,,,,,,,,,,,,
2965.7999999970198,,recognition_phase,987069,Cheyenne,,49,,,,,old,1,0.9285714285714286,,,,,,,,,,,,
null,,confidence_buffer,987172,confidence_buffer,,null,,,,,,,,,,,,,,,,,,,
null,,thebreak,987675,break,,null,,,,,,,,,,,,,,,,,,,
5008.9000000059605,,realistic_rating,992685,Decatur,,53,Decatur,5,,,,,,,,,,,,,,,,,
null,,confidence_buffer,992788,confidence_buffer,,null,,,,,,,,,,,,,,,,,,,
6864.20000000298,,pt2_unique_rating,999654,Decatur,,52,,4,,,,,,,,,,,,,,,,,
null,,confidence_buffer,999756,confidence_buffer,,null,,,,,,,,,,,,,,,,,,,
4095.2999999970198,,pt2_memorable_rating,1003853,Decatur,,50,,2,,,,,,,,,,,,,,,,,
null,,confidence_buffer,1003956,confidence_buffer,,null,,,,,,,,,,,,,,,,,,,
3967.9000000059605,,recognition_phase,1007925,Decatur,,49,,,,,old,1,0.9333333333333333,,,,,,,,,,,,
null,,confidence_buffer,1008027,confidence_buffer,,null,,,,,,,,,,,,,,,,,,,
null,,thebreak,1008537,break,,null,,,,,,,,,,,,,,,,,,,
4923.100000008941,,realistic_rating,1013462,Fargo,,53,Fargo,5,,,,,,,,,,,,,,,,,
null,,confidence_buffer,1013565,confidence_buffer,,null,,,,,,,,,,,,,,,,,,,
4089.7000000029802,,pt2_unique_rating,1017656,Fargo,,52,,4,,,,,,,,,,,,,,,,,
null,,confidence_buffer,1017759,confidence_buffer,,null,,,,,,,,,,,,,,,,,,,
5309.300000011921,,pt2_memorable_rating,1023069,Fargo,,53,,5,,,,,,,,,,,,,,,,,
null,,confidence_buffer,1023171,confidence_buffer,,null,,,,,,,,,,,,,,,,,,,
2691.1000000089407,,recognition_phase,1025864,Fargo,,52,,,,,new,1,0.9375,,,,,,,,,,,,
null,,confidence_buffer,1025966,confidence_buffer,,null,,,,,,,,,,,,,,,,,,,
null,,thebreak,1026469,break,,null,,,,,,,,,,,,,,,,,,,
5822.899999991059,,realistic_rating,1032293,Olympia,,53,Olympia,5,,,,,,,,,,,,,,,,,
null,,confidence_buffer,1032396,confidence_buffer,,null,,,,,,,,,,,,,,,,,,,
7032.899999991059,,pt2_unique_rating,1039430,Olympia,,52,,4,,,,,,,,,,,,,,,,,
null,,confidence_buffer,1039533,confidence_buffer,,null,,,,,,,,,,,,,,,,,,,
3738.800000011921,,pt2_memorable_rating,1043273,Olympia,,53,,5,,,,,,,,,,,,,,,,,
null,,confidence_buffer,1043374,confidence_buffer,,null,,,,,,,,,,,,,,,,,,,
3865.0999999940395,,recognition_phase,1047241,Olympia,,52,,,,,new,1,0.9411764705882353,,,,,,,,,,,,
null,,confidence_buffer,1047343,confidence_buffer,,null,,,,,,,,,,,,,,,,,,,
null,,thebreak,1047845,break,,null,,,,,,,,,,,,,,,,,,,
6359.79999999702,,realistic_rating,1054207,Gainesville,,53,Gainesville,5,,,,,,,,,,,,,,,,,
null,,confidence_buffer,1054323,confidence_buffer,,null,,,,,,,,,,,,,,,,,,,
4664.29999999702,,pt2_unique_rating,1058989,Gainesville,,51,,3,,,,,,,,,,,,,,,,,
null,,confidence_buffer,1059092,confidence_buffer,,null,,,,,,,,,,,,,,,,,,,
7064.70000000298,,pt2_memorable_rating,1066158,Gainesville,,52,,4,,,,,,,,,,,,,,,,,
null,,confidence_buffer,1066275,confidence_buffer,,null,,,,,,,,,,,,,,,,,,,
3800.4000000059605,,recognition_phase,1070077,Gainesville,,51,,,,,new,0,0.8888888888888888,,,,,,,,,,,,
null,,confidence_buffer,1070192,confidence_buffer,,null,,,,,,,,,,,,,,,,,,,
null,,thebreak,1070694,break,,null,,,,,,,,,,,,,,,,,,,
6974.4000000059605,,realistic_rating,1077670,Berkeley,,52,Berkeley,4,,,,,,,,,,,,,,,,,
null,,confidence_buffer,1077773,confidence_buffer,,null,,,,,,,,,,,,,,,,,,,
3815.5999999940395,,pt2_unique_rating,1081590,Berkeley,,51,,3,,,,,,,,,,,,,,,,,
null,,confidence_buffer,1081693,confidence_buffer,,null,,,,,,,,,,,,,,,,,,,
3954.2999999970198,,probe_rating,1085649,probe_rating,,53,,,5,1,,,,,,,,,,,,,,,
null,,confidence_buffer,1085751,confidence_buffer,,null,,,,,,,,,,,,,,,,,,,
5013.20000000298,,pt2_memorable_rating,1090765,Berkeley,,50,,2,,,,,,,,,,,,,,,,,
null,,confidence_buffer,1090868,confidence_buffer,,null,,,,,,,,,,,,,,,,,,,
2702.3999999910593,,recognition_phase,1093572,Berkeley,,52,,,,,new,1,0.8947368421052632,,,,,,,,,,,,
null,,confidence_buffer,1093674,confidence_buffer,,null,,,,,,,,,,,,,,,,,,,
null,,thebreak,1094177,break,,null,,,,,,,,,,,,,,,,,,,
9011.40000000596,,realistic_rating,1103190,Marquette,,53,Marquette,5,,,,,,,,,,,,,,,,,
null,,confidence_buffer,1103293,confidence_buffer,,null,,,,,,,,,,,,,,,,,,,
2766.699999988079,,pt2_unique_rating,1106061,Marquette,,52,,4,,,,,,,,,,,,,,,,,
null,,confidence_buffer,1106164,confidence_buffer,,null,,,,,,,,,,,,,,,,,,,
5255.5999999940395,,pt2_memorable_rating,1111422,Marquette,,50,,2,,,,,,,,,,,,,,,,,
null,,confidence_buffer,1111525,confidence_buffer,,null,,,,,,,,,,,,,,,,,,,
3830.7000000029802,,recognition_phase,1115357,Marquette,,52,,,,,new,0,0.85,,,,,,,,,,,,
null,,confidence_buffer,1115460,confidence_buffer,,null,,,,,,,,,,,,,,,,,,,
null,,thebreak,1115962,break,,null,,,,,,,,,,,,,,,,,,,
4297.70000000298,,realistic_rating,1120261,Boise,,53,Boise,5,,,,,,,,,,,,,,,,,
null,,confidence_buffer,1120364,confidence_buffer,,null,,,,,,,,,,,,,,,,,,,
3855.0999999940395,,pt2_unique_rating,1124221,Boise,,52,,4,,,,,,,,,,,,,,,,,
null,,confidence_buffer,1124335,confidence_buffer,,null,,,,,,,,,,,,,,,,,,,
5789,,pt2_memorable_rating,1130126,Boise,,50,,2,,,,,,,,,,,,,,,,,
null,,confidence_buffer,1130228,confidence_buffer,,null,,,,,,,,,,,,,,,,,,,
5223.100000008941,,probe_rating,1135453,probe_rating,,49,,,1,1,,,,,,,,,,,,,,,
null,,confidence_buffer,1135556,confidence_buffer,,null,,,,,,,,,,,,,,,,,,,
10447.70000000298,,recognition_phase,1146005,Boise,,50,,,,,old,1,0.8571428571428571,,,,,,,,,,,,
null,,confidence_buffer,1146108,confidence_buffer,,null,,,,,,,,,,,,,,,,,,,
null,,thebreak,1146609,break,,null,,,,,,,,,,,,,,,,,,,
3618.0999999940395,,realistic_rating,1150230,Norfolk,,53,Norfolk,5,,,,,,,,,,,,,,,,,
null,,confidence_buffer,1150332,confidence_buffer,,null,,,,,,,,,,,,,,,,,,,
3703.6000000089407,,pt2_unique_rating,1154037,Norfolk,,51,,3,,,,,,,,,,,,,,,,,
null,,confidence_buffer,1154140,confidence_buffer,,null,,,,,,,,,,,,,,,,,,,
7144.29999999702,,pt2_memorable_rating,1161286,Norfolk,,52,,4,,,,,,,,,,,,,,,,,
null,,confidence_buffer,1161389,confidence_buffer,,null,,,,,,,,,,,,,,,,,,,
3832.2999999970198,,recognition_phase,1165223,Norfolk,,52,,,,,new,1,0.8636363636363636,,,,,,,,,,,,
null,,confidence_buffer,1165325,confidence_buffer,,null,,,,,,,,,,,,,,,,,,,
null,,thebreak,1165829,break,,null,,,,,,,,,,,,,,,,,,,
6631.300000011921,,realistic_rating,1172461,Dubuque,,52,Dubuque,4,,,,,,,,,,,,,,,,,
null,,confidence_buffer,1172570,confidence_buffer,,null,,,,,,,,,,,,,,,,,,,
3473.2000000029802,,probe_rating,1176045,probe_rating,,51,,,3,1,,,,,,,,,,,,,,,
null,,confidence_buffer,1176148,confidence_buffer,,null,,,,,,,,,,,,,,,,,,,
5393.199999988079,,pt2_unique_rating,1181542,Dubuque,,53,,5,,,,,,,,,,,,,,,,,
null,,confidence_buffer,1181644,confidence_buffer,,null,,,,,,,,,,,,,,,,,,,
3479.5999999940395,,pt2_memorable_rating,1185126,Dubuque,,51,,3,,,,,,,,,,,,,,,,,
null,,confidence_buffer,1185229,confidence_buffer,,null,,,,,,,,,,,,,,,,,,,
2687,,recognition_phase,1187917,Dubuque,,52,,,,,new,1,0.8695652173913043,,,,,,,,,,,,
null,,confidence_buffer,1188021,confidence_buffer,,null,,,,,,,,,,,,,,,,,,,
null,,thebreak,1188523,break,,null,,,,,,,,,,,,,,,,,,,
4259.5999999940395,,realistic_rating,1192784,Scottsdale,,52,Scottsdale,4,,,,,,,,,,,,,,,,,
null,,confidence_buffer,1192886,confidence_buffer,,null,,,,,,,,,,,,,,,,,,,
3670.800000011921,,pt2_unique_rating,1196559,Scottsdale,,50,,2,,,,,,,,,,,,,,,,,
null,,confidence_buffer,1196661,confidence_buffer,,null,,,,,,,,,,,,,,,,,,,
3278.5,,pt2_memorable_rating,1199941,Scottsdale,,49,,1,,,,,,,,,,,,,,,,,
null,,confidence_buffer,1200044,confidence_buffer,,null,,,,,,,,,,,,,,,,,,,
3327.2000000029802,,recognition_phase,1203373,Scottsdale,,52,,,,,new,1,0.875,,,,,,,,,,,,
null,,confidence_buffer,1203476,confidence_buffer,,null,,,,,,,,,,,,,,,,,,,
null,,thebreak,1203979,break,,null,,,,,,,,,,,,,,,,,,,
5520.600000008941,,realistic_rating,1209502,Toledo,,53,Toledo,5,,,,,,,,,,,,,,,,,
null,,confidence_buffer,1209604,confidence_buffer,,null,,,,,,,,,,,,,,,,,,,
4007.0999999940395,,probe_rating,1213612,probe_rating,,50,,,2,1,,,,,,,,,,,,,,,
null,,confidence_buffer,1213715,confidence_buffer,,null,,,,,,,,,,,,,,,,,,,
7705.4000000059605,,pt2_unique_rating,1221422,Toledo,,51,,3,,,,,,,,,,,,,,,,,
null,,confidence_buffer,1221524,confidence_buffer,,null,,,,,,,,,,,,,,,,,,,
3226.5,,pt2_memorable_rating,1224752,Toledo,,52,,4,,,,,,,,,,,,,,,,,
null,,confidence_buffer,1224854,confidence_buffer,,null,,,,,,,,,,,,,,,,,,,
2269.699999988079,,recognition_phase,1227126,Toledo,,52,,,,,new,1,0.88,,,,,,,,,,,,
null,,confidence_buffer,1227228,confidence_buffer,,null,,,,,,,,,,,,,,,,,,,
null,,thebreak,1227729,break,,null,,,,,,,,,,,,,,,,,,,
5971,,realistic_rating,1233702,Ithaca,,52,Ithaca,4,,,,,,,,,,,,,,,,,
null,,confidence_buffer,1233805,confidence_buffer,,null,,,,,,,,,,,,,,,,,,,
4270.5,,pt2_unique_rating,1238077,Ithaca,,53,,5,,,,,,,,,,,,,,,,,
null,,confidence_buffer,1238180,confidence_buffer,,null,,,,,,,,,,,,,,,,,,,
4551.29999999702,,pt2_memorable_rating,1242733,Ithaca,,51,,3,,,,,,,,,,,,,,,,,
null,,confidence_buffer,1242836,confidence_buffer,,null,,,,,,,,,,,,,,,,,,,
3519.7000000029802,,probe_rating,1246358,probe_rating,,49,,,1,1,,,,,,,,,,,,,,,
null,,confidence_buffer,1246461,confidence_buffer,,null,,,,,,,,,,,,,,,,,,,
3022.8999999910593,,recognition_phase,1249486,Ithaca,,52,,,,,new,1,0.8846153846153846,,,,,,,,,,,,
null,,confidence_buffer,1249587,confidence_buffer,,null,,,,,,,,,,,,,,,,,,,
null,,thebreak,1250089,break,,null,,,,,,,,,,,,,,,,,,,
10627.5,,realistic_rating,1260719,Dothan,,52,Dothan,4,,,,,,,,,,,,,,,,,
null,,confidence_buffer,1260822,confidence_buffer,,null,,,,,,,,,,,,,,,,,,,
5302.70000000298,,pt2_unique_rating,1266126,Dothan,,53,,5,,,,,,,,,,,,,,,,,
null,,confidence_buffer,1266229,confidence_buffer,,null,,,,,,,,,,,,,,,,,,,
5920,,pt2_memorable_rating,1272150,Dothan,,49,,1,,,,,,,,,,,,,,,,,
null,,confidence_buffer,1272253,confidence_buffer,,null,,,,,,,,,,,,,,,,,,,
5782.5999999940395,,recognition_phase,1278037,Dothan,,51,,,,,new,0,0.8518518518518519,,,,,,,,,,,,
null,,confidence_buffer,1278140,confidence_buffer,,null,,,,,,,,,,,,,,,,,,,
null,,thebreak,1278643,break,,null,,,,,,,,,,,,,,,,,,,
4648.600000008941,,realistic_rating,1283293,Topeka,,53,Topeka,5,,,,,,,,,,,,,,,,,
null,,confidence_buffer,1283395,confidence_buffer,,null,,,,,,,,,,,,,,,,,,,
3184.5999999940395,,pt2_unique_rating,1286581,Topeka,,52,,4,,,,,,,,,,,,,,,,,
null,,confidence_buffer,1286685,confidence_buffer,,null,,,,,,,,,,,,,,,,,,,
5183.4000000059605,,pt2_memorable_rating,1291870,Topeka,,53,,5,,,,,,,,,,,,,,,,,
null,,confidence_buffer,1291973,confidence_buffer,,null,,,,,,,,,,,,,,,,,,,
4831.600000008941,,recognition_phase,1296806,Topeka,,50,,,,,old,1,0.8571428571428571,,,,,,,,,,,,
null,,confidence_buffer,1296908,confidence_buffer,,null,,,,,,,,,,,,,,,,,,,
null,,thebreak,1297410,break,,null,,,,,,,,,,,,,,,,,,,
4305.699999988079,,realistic_rating,1301717,Peoria,,53,Peoria,5,,,,,,,,,,,,,,,,,
null,,confidence_buffer,1301835,confidence_buffer,,null,,,,,,,,,,,,,,,,,,,
3760.2000000029802,,pt2_unique_rating,1305597,Peoria,,52,,4,,,,,,,,,,,,,,,,,
null,,confidence_buffer,1305699,confidence_buffer,,null,,,,,,,,,,,,,,,,,,,
3812,,pt2_memorable_rating,1309512,Peoria,,52,,4,,,,,,,,,,,,,,,,,
null,,confidence_buffer,1309615,confidence_buffer,,null,,,,,,,,,,,,,,,,,,,
3109.6000000089407,,recognition_phase,1312726,Peoria,,52,,,,,new,1,0.8620689655172413,,,,,,,,,,,,
null,,confidence_buffer,1312830,confidence_buffer,,null,,,,,,,,,,,,,,,,,,,
null,,thebreak,1313332,break,,null,,,,,,,,,,,,,,,,,,,
4775.79999999702,,realistic_rating,1318110,Muncie,,53,Muncie,5,,,,,,,,,,,,,,,,,
null,,confidence_buffer,1318212,confidence_buffer,,null,,,,,,,,,,,,,,,,,,,
3570.8999999910593,,pt2_unique_rating,1321785,Muncie,,52,,4,,,,,,,,,,,,,,,,,
null,,confidence_buffer,1321897,confidence_buffer,,null,,,,,,,,,,,,,,,,,,,
4714.5999999940395,,pt2_memorable_rating,1326614,Muncie,,50,,2,,,,,,,,,,,,,,,,,
null,,confidence_buffer,1326716,confidence_buffer,,null,,,,,,,,,,,,,,,,,,,
4879.9000000059605,,recognition_phase,1331598,Muncie,,51,,,,,new,0,0.8333333333333334,,,,,,,,,,,,
null,,confidence_buffer,1331700,confidence_buffer,,null,,,,,,,,,,,,,,,,,,,
null,,thebreak,1332203,break,,null,,,,,,,,,,,,,,,,,,,
5688.5,,realistic_rating,1337894,Cambridge,,53,Cambridge,5,,,,,,,,,,,,,,,,,
null,,confidence_buffer,1337996,confidence_buffer,,null,,,,,,,,,,,,,,,,,,,
2887.7000000029802,,pt2_unique_rating,1340885,Cambridge,,52,,4,,,,,,,,,,,,,,,,,
null,,confidence_buffer,1340989,confidence_buffer,,null,,,,,,,,,,,,,,,,,,,
6278.5,,pt2_memorable_rating,1347269,Cambridge,,53,,5,,,,,,,,,,,,,,,,,
null,,confidence_buffer,1347371,confidence_buffer,,null,,,,,,,,,,,,,,,,,,,
3185.5,,recognition_phase,1350558,Cambridge,,52,,,,,new,1,0.8387096774193549,,,,,,,,,,,,
null,,confidence_buffer,1350661,confidence_buffer,,null,,,,,,,,,,,,,,,,,,,
null,,thebreak,1351163,break,,null,,,,,,,,,,,,,,,,,,,
5345,,realistic_rating,1356510,Fort Collins,,52,Fort Collins,4,,,,,,,,,,,,,,,,,
null,,confidence_buffer,1356613,confidence_buffer,,null,,,,,,,,,,,,,,,,,,,
8322.79999999702,,pt2_unique_rating,1364937,Fort Collins,,51,,3,,,,,,,,,,,,,,,,,
null,,confidence_buffer,1365053,confidence_buffer,,null,,,,,,,,,,,,,,,,,,,
3674.2000000029802,,probe_rating,1368729,probe_rating,,53,,,5,1,,,,,,,,,,,,,,,
null,,confidence_buffer,1368831,confidence_buffer,,null,,,,,,,,,,,,,,,,,,,
4764.899999991059,,pt2_memorable_rating,1373598,Fort Collins,,50,,2,,,,,,,,,,,,,,,,,
null,,confidence_buffer,1373701,confidence_buffer,,null,,,,,,,,,,,,,,,,,,,
6591.4000000059605,,recognition_phase,1380294,Fort Collins,,52,,,,,new,1,0.84375,,,,,,,,,,,,
null,,confidence_buffer,1380397,confidence_buffer,,null,,,,,,,,,,,,,,,,,,,
null,,thebreak,1380899,break,,null,,,,,,,,,,,,,,,,,,,
5544.899999991059,,realistic_rating,1386445,Pasadena,,53,Pasadena,5,,,,,,,,,,,,,,,,,
null,,confidence_buffer,1386559,confidence_buffer,,null,,,,,,,,,,,,,,,,,,,
5165.4000000059605,,pt2_unique_rating,1391726,Pasadena,,51,,3,,,,,,,,,,,,,,,,,
null,,confidence_buffer,1391828,confidence_buffer,,null,,,,,,,,,,,,,,,,,,,
6418.79999999702,,probe_rating,1398249,probe_rating,,52,,,4,1,,,,,,,,,,,,,,,
null,,confidence_buffer,1398351,confidence_buffer,,null,,,,,,,,,,,,,,,,,,,
5220.5,,pt2_memorable_rating,1403573,Pasadena,,53,,5,,,,,,,,,,,,,,,,,
null,,confidence_buffer,1403675,confidence_buffer,,null,,,,,,,,,,,,,,,,,,,
4136.9000000059605,,recognition_phase,1407814,Pasadena,,51,,,,,new,0,0.8181818181818182,,,,,,,,,,,,
null,,confidence_buffer,1407917,confidence_buffer,,null,,,,,,,,,,,,,,,,,,,
null,,thebreak,1408419,break,,null,,,,,,,,,,,,,,,,,,,
4151.100000008941,,realistic_rating,1412572,Pueblo,,53,Pueblo,5,,,,,,,,,,,,,,,,,
null,,confidence_buffer,1412674,confidence_buffer,,null,,,,,,,,,,,,,,,,,,,
2746.7999999970198,,pt2_unique_rating,1415422,Pueblo,,52,,4,,,,,,,,,,,,,,,,,
null,,confidence_buffer,1415525,confidence_buffer,,null,,,,,,,,,,,,,,,,,,,
8490.10000000894,,pt2_memorable_rating,1424016,Pueblo,,53,,5,,,,,,,,,,,,,,,,,
null,,confidence_buffer,1424124,confidence_buffer,,null,,,,,,,,,,,,,,,,,,,
3608,,recognition_phase,1427734,Pueblo,,50,,,,,old,1,0.8235294117647058,,,,,,,,,,,,
null,,confidence_buffer,1427837,confidence_buffer,,null,,,,,,,,,,,,,,,,,,,
null,,thebreak,1428339,break,,null,,,,,,,,,,,,,,,,,,,
5832.5,,realistic_rating,1434174,Annapolis,,53,Annapolis,5,,,,,,,,,,,,,,,,,
null,,confidence_buffer,1434277,confidence_buffer,,null,,,,,,,,,,,,,,,,,,,
4759.5999999940395,,pt2_unique_rating,1439038,Annapolis,,52,,4,,,,,,,,,,,,,,,,,
null,,confidence_buffer,1439139,confidence_buffer,,null,,,,,,,,,,,,,,,,,,,
6216.79999999702,,pt2_memorable_rating,1445358,Annapolis,,53,,5,,,,,,,,,,,,,,,,,
null,,confidence_buffer,1445460,confidence_buffer,,null,,,,,,,,,,,,,,,,,,,
3907.2999999970198,,recognition_phase,1449369,Annapolis,,52,,,,,new,0,0.8,,,,,,,,,,,,
null,,confidence_buffer,1449471,confidence_buffer,,null,,,,,,,,,,,,,,,,,,,
null,,thebreak,1449973,break,,null,,,,,,,,,,,,,,,,,,,
7993.0999999940395,,realistic_rating,1457968,Youngstown,,53,Youngstown,5,,,,,,,,,,,,,,,,,
null,,confidence_buffer,1458069,confidence_buffer,,null,,,,,,,,,,,,,,,,,,,
3094.800000011921,,probe_rating,1461166,probe_rating,,53,,,5,1,,,,,,,,,,,,,,,
null,,confidence_buffer,1461269,confidence_buffer,,null,,,,,,,,,,,,,,,,,,,
3958.7000000029802,,pt2_unique_rating,1465230,Youngstown,,49,,1,,,,,,,,,,,,,,,,,
null,,confidence_buffer,1465332,confidence_buffer,,null,,,,,,,,,,,,,,,,,,,
5514.5,,pt2_memorable_rating,1470849,Youngstown,,52,,4,,,,,,,,,,,,,,,,,
null,,confidence_buffer,1470950,confidence_buffer,,null,,,,,,,,,,,,,,,,,,,
2757.7999999970198,,recognition_phase,1473710,Youngstown,,52,,,,,new,1,0.8055555555555556,,,,,,,,,,,,
null,,confidence_buffer,1473813,confidence_buffer,,null,,,,,,,,,,,,,,,,,,,
null,,thebreak,1474316,break,,null,,,,,,,,,,,,,,,,,,,
5176.5,,realistic_rating,1479494,Rock Springs,,52,Rock Springs,4,,,,,,,,,,,,,,,,,
null,,confidence_buffer,1479597,confidence_buffer,,null,,,,,,,,,,,,,,,,,,,
5055.399999991059,,pt2_unique_rating,1484654,Rock Springs,,51,,3,,,,,,,,,,,,,,,,,
null,,confidence_buffer,1484757,confidence_buffer,,null,,,,,,,,,,,,,,,,,,,
5046.399999991059,,pt2_memorable_rating,1489806,Rock Springs,,50,,2,,,,,,,,,,,,,,,,,
null,,confidence_buffer,1489920,confidence_buffer,,null,,,,,,,,,,,,,,,,,,,
3732.6000000089407,,recognition_phase,1493654,Rock Springs,,51,,,,,new,0,0.7837837837837838,,,,,,,,,,,,
null,,confidence_buffer,1493756,confidence_buffer,,null,,,,,,,,,,,,,,,,,,,
null,,thebreak,1494267,break,,null,,,,,,,,,,,,,,,,,,,
5497.300000011921,,realistic_rating,1499766,Dover,,53,Dover,5,,,,,,,,,,,,,,,,,
null,,confidence_buffer,1499869,confidence_buffer,,null,,,,,,,,,,,,,,,,,,,
2489.7999999970198,,pt2_unique_rating,1502360,Dover,,52,,4,,,,,,,,,,,,,,,,,
null,,confidence_buffer,1502462,confidence_buffer,,null,,,,,,,,,,,,,,,,,,,
5493.300000011921,,pt2_memorable_rating,1507958,Dover,,52,,4,,,,,,,,,,,,,,,,,
null,,confidence_buffer,1508066,confidence_buffer,,null,,,,,,,,,,,,,,,,,,,
3594,,recognition_phase,1511662,Dover,,50,,,,,old,1,0.7894736842105263,,,,,,,,,,,,
null,,confidence_buffer,1511765,confidence_buffer,,null,,,,,,,,,,,,,,,,,,,
null,,thebreak,1512267,break,,null,,,,,,,,,,,,,,,,,,,
7641.4000000059605,,realistic_rating,1519910,Palo Alto,,50,Palo Alto,2,,,,,,,,,,,,,,,,,
null,,confidence_buffer,1520012,confidence_buffer,,null,,,,,,,,,,,,,,,,,,,
5154.699999988079,,pt2_unique_rating,1525168,Palo Alto,,53,,5,,,,,,,,,,,,,,,,,
null,,confidence_buffer,1525271,confidence_buffer,,null,,,,,,,,,,,,,,,,,,,
6996.4000000059605,,pt2_memorable_rating,1532270,Palo Alto,,50,,2,,,,,,,,,,,,,,,,,
null,,confidence_buffer,1532372,confidence_buffer,,null,,,,,,,,,,,,,,,,,,,
4447.20000000298,,recognition_phase,1536821,Palo Alto,,52,,,,,new,0,0.7692307692307693,,,,,,,,,,,,
null,,confidence_buffer,1536923,confidence_buffer,,null,,,,,,,,,,,,,,,,,,,
null,,thebreak,1537425,break,,null,,,,,,,,,,,,,,,,,,,
8747.40000000596,,realistic_rating,1546174,Yakima,,52,Yakima,4,,,,,,,,,,,,,,,,,
null,,confidence_buffer,1546277,confidence_buffer,,null,,,,,,,,,,,,,,,,,,,
8214.39999999106,,pt2_unique_rating,1554493,Yakima,,53,,5,,,,,,,,,,,,,,,,,
null,,confidence_buffer,1554597,confidence_buffer,,null,,,,,,,,,,,,,,,,,,,
4575.0999999940395,,pt2_memorable_rating,1559174,Yakima,,51,,3,,,,,,,,,,,,,,,,,
null,,confidence_buffer,1559277,confidence_buffer,,null,,,,,,,,,,,,,,,,,,,
2967.2999999970198,,recognition_phase,1562246,Yakima,,52,,,,,new,0,0.75,,,,,,,,,,,,
null,,confidence_buffer,1562352,confidence_buffer,,null,,,,,,,,,,,,,,,,,,,
null,,thebreak,1562854,break,,null,,,,,,,,,,,,,,,,,,,
3670,,realistic_rating,1566526,Carson City,,53,Carson City,5,,,,,,,,,,,,,,,,,
null,,confidence_buffer,1566641,confidence_buffer,,null,,,,,,,,,,,,,,,,,,,
2226.7000000029802,,pt2_unique_rating,1568870,Carson City,,52,,4,,,,,,,,,,,,,,,,,
null,,confidence_buffer,1568973,confidence_buffer,,null,,,,,,,,,,,,,,,,,,,
4599.20000000298,,pt2_memorable_rating,1573573,Carson City,,53,,5,,,,,,,,,,,,,,,,,
null,,confidence_buffer,1573676,confidence_buffer,,null,,,,,,,,,,,,,,,,,,,
5281,,recognition_phase,1578958,Carson City,,50,,,,,old,1,0.7560975609756098,,,,,,,,,,,,
null,,confidence_buffer,1579060,confidence_buffer,,null,,,,,,,,,,,,,,,,,,,
null,,thebreak,1579568,break,,null,,,,,,,,,,,,,,,,,,,
8212.29999999702,,realistic_rating,1587782,Bozeman,,50,Bozeman,2,,,,,,,,,,,,,,,,,
null,,confidence_buffer,1587883,confidence_buffer,,null,,,,,,,,,,,,,,,,,,,
4929.20000000298,,pt2_unique_rating,1592814,Bozeman,,52,,4,,,,,,,,,,,,,,,,,
null,,confidence_buffer,1592917,confidence_buffer,,null,,,,,,,,,,,,,,,,,,,
5255.20000000298,,pt2_memorable_rating,1598174,Bozeman,,49,,1,,,,,,,,,,,,,,,,,
null,,confidence_buffer,1598276,confidence_buffer,,null,,,,,,,,,,,,,,,,,,,
5089.100000008941,,recognition_phase,1603366,Bozeman,,50,,,,,old,1,0.7619047619047619,,,,,,,,,,,,
null,,confidence_buffer,1603483,confidence_buffer,,null,,,,,,,,,,,,,,,,,,,
null,,thebreak,1603986,break,,null,,,,,,,,,,,,,,,,,,,
3866.2000000029802,,realistic_rating,1607854,Frankfort,,53,Frankfort,5,,,,,,,,,,,,,,,,,
null,,confidence_buffer,1607956,confidence_buffer,,null,,,,,,,,,,,,,,,,,,,
7511.699999988079,,pt2_unique_rating,1615470,Frankfort,,51,,3,,,,,,,,,,,,,,,,,
null,,confidence_buffer,1615572,confidence_buffer,,null,,,,,,,,,,,,,,,,,,,
4104.699999988079,,pt2_memorable_rating,1619678,Frankfort,,50,,2,,,,,,,,,,,,,,,,,
null,,confidence_buffer,1619780,confidence_buffer,,null,,,,,,,,,,,,,,,,,,,
3911.8999999910593,,recognition_phase,1623694,Frankfort,,50,,,,,old,1,0.7674418604651163,,,,,,,,,,,,
null,,confidence_buffer,1623796,confidence_buffer,,null,,,,,,,,,,,,,,,,,,,
null,,thebreak,1624298,break,,null,,,,,,,,,,,,,,,,,,,
4818.600000008941,,realistic_rating,1629118,Terre Haute,,53,Terre Haute,5,,,,,,,,,,,,,,,,,
null,,confidence_buffer,1629221,confidence_buffer,,null,,,,,,,,,,,,,,,,,,,
2506.2999999970198,,pt2_unique_rating,1631729,Terre Haute,,53,,5,,,,,,,,,,,,,,,,,
null,,confidence_buffer,1631831,confidence_buffer,,null,,,,,,,,,,,,,,,,,,,
5405.79999999702,,pt2_memorable_rating,1637238,Terre Haute,,52,,4,,,,,,,,,,,,,,,,,
null,,confidence_buffer,1637340,confidence_buffer,,null,,,,,,,,,,,,,,,,,,,
3744.5999999940395,,recognition_phase,1641087,Terre Haute,,50,,,,,old,0,0.75,,,,,,,,,,,,
null,,confidence_buffer,1641190,confidence_buffer,,null,,,,,,,,,,,,,,,,,,,
null,,thebreak,1641692,break,,null,,,,,,,,,,,,,,,,,,,
4952,,realistic_rating,1646646,Fort Wayne,,53,Fort Wayne,5,,,,,,,,,,,,,,,,,
null,,confidence_buffer,1646749,confidence_buffer,,null,,,,,,,,,,,,,,,,,,,
4631.0999999940395,,pt2_unique_rating,1651381,Fort Wayne,,52,,4,,,,,,,,,,,,,,,,,
null,,confidence_buffer,1651484,confidence_buffer,,null,,,,,,,,,,,,,,,,,,,
3410.7000000029802,,pt2_memorable_rating,1654896,Fort Wayne,,53,,5,,,,,,,,,,,,,,,,,
null,,confidence_buffer,1654999,confidence_buffer,,null,,,,,,,,,,,,,,,,,,,
3580.5,,recognition_phase,1658581,Fort Wayne,,49,,,,,old,1,0.7555555555555555,,,,,,,,,,,,
null,,confidence_buffer,1658683,confidence_buffer,,null,,,,,,,,,,,,,,,,,,,
null,,thebreak,1659185,break,,null,,,,,,,,,,,,,,,,,,,
3787.5,,realistic_rating,1662974,Tallahassee,,53,Tallahassee,5,,,,,,,,,,,,,,,,,
null,,confidence_buffer,1663077,confidence_buffer,,null,,,,,,,,,,,,,,,,,,,
4282.70000000298,,pt2_unique_rating,1667361,Tallahassee,,53,,5,,,,,,,,,,,,,,,,,
null,,confidence_buffer,1667463,confidence_buffer,,null,,,,,,,,,,,,,,,,,,,
3789.0999999940395,,pt2_memorable_rating,1671254,Tallahassee,,52,,4,,,,,,,,,,,,,,,,,
null,,confidence_buffer,1671357,confidence_buffer,,null,,,,,,,,,,,,,,,,,,,
6192.100000008941,,recognition_phase,1677550,Tallahassee,,49,,,,,old,1,0.7608695652173914,,,,,,,,,,,,
null,,confidence_buffer,1677653,confidence_buffer,,null,,,,,,,,,,,,,,,,,,,
null,,thebreak,1678155,break,,null,,,,,,,,,,,,,,,,,,,
4072.8999999910593,,realistic_rating,1682230,Abilene,,53,Abilene,5,,,,,,,,,,,,,,,,,
null,,confidence_buffer,1682333,confidence_buffer,,null,,,,,,,,,,,,,,,,,,,
5049.4000000059605,,pt2_unique_rating,1687384,Abilene,,51,,3,,,,,,,,,,,,,,,,,
null,,confidence_buffer,1687487,confidence_buffer,,null,,,,,,,,,,,,,,,,,,,
2573,,probe_rating,1690062,probe_rating,,50,,,2,1,,,,,,,,,,,,,,,
null,,confidence_buffer,1690165,confidence_buffer,,null,,,,,,,,,,,,,,,,,,,
4335.4000000059605,,pt2_memorable_rating,1694502,Abilene,,52,,4,,,,,,,,,,,,,,,,,
null,,confidence_buffer,1694604,confidence_buffer,,null,,,,,,,,,,,,,,,,,,,
4183.20000000298,,recognition_phase,1698790,Abilene,,51,,,,,new,1,0.7659574468085106,,,,,,,,,,,,
null,,confidence_buffer,1698892,confidence_buffer,,null,,,,,,,,,,,,,,,,,,,
null,,thebreak,1699393,break,,null,,,,,,,,,,,,,,,,,,,
9251.5,,realistic_rating,1708646,Las Cruces,,50,Las Cruces,2,,,,,,,,,,,,,,,,,
null,,confidence_buffer,1708748,confidence_buffer,,null,,,,,,,,,,,,,,,,,,,
3144,,pt2_unique_rating,1711894,Las Cruces,,52,,4,,,,,,,,,,,,,,,,,
null,,confidence_buffer,1711998,confidence_buffer,,null,,,,,,,,,,,,,,,,,,,
4110.70000000298,,pt2_memorable_rating,1716110,Las Cruces,,49,,1,,,,,,,,,,,,,,,,,
null,,confidence_buffer,1716213,confidence_buffer,,null,,,,,,,,,,,,,,,,,,,
3855.2999999970198,,recognition_phase,1720070,Las Cruces,,52,,,,,new,1,0.7708333333333334,,,,,,,,,,,,
null,,confidence_buffer,1720173,confidence_buffer,,null,,,,,,,,,,,,,,,,,,,
null,,thebreak,1720675,break,,null,,,,,,,,,,,,,,,,,,,
5027.79999999702,,realistic_rating,1725705,Newport News,,53,Newport News,5,,,,,,,,,,,,,,,,,
null,,confidence_buffer,1725807,confidence_buffer,,null,,,,,,,,,,,,,,,,,,,
5381.899999991059,,pt2_unique_rating,1731190,Newport News,,51,,3,,,,,,,,,,,,,,,,,
null,,confidence_buffer,1731293,confidence_buffer,,null,,,,,,,,,,,,,,,,,,,
4871.79999999702,,pt2_memorable_rating,1736166,Newport News,,50,,2,,,,,,,,,,,,,,,,,
null,,confidence_buffer,1736268,confidence_buffer,,null,,,,,,,,,,,,,,,,,,,
4455.699999988079,,recognition_phase,1740725,Newport News,,51,,,,,new,1,0.7755102040816326,,,,,,,,,,,,
null,,confidence_buffer,1740828,confidence_buffer,,null,,,,,,,,,,,,,,,,,,,
null,,thebreak,1741330,break,,null,,,,,,,,,,,,,,,,,,,
3650.7999999970198,,realistic_rating,1744982,Montpelier,,53,Montpelier,5,,,,,,,,,,,,,,,,,
null,,confidence_buffer,1745085,confidence_buffer,,null,,,,,,,,,,,,,,,,,,,
4687.29999999702,,pt2_unique_rating,1749774,Montpelier,,52,,4,,,,,,,,,,,,,,,,,
null,,confidence_buffer,1749877,confidence_buffer,,null,,,,,,,,,,,,,,,,,,,
7495.9000000059605,,pt2_memorable_rating,1757374,Montpelier,,51,,3,,,,,,,,,,,,,,,,,
null,,confidence_buffer,1757477,confidence_buffer,,null,,,,,,,,,,,,,,,,,,,
3359.5,,recognition_phase,1760837,Montpelier,,49,,,,,old,1,0.78,,,,,,,,,,,,
null,,confidence_buffer,1760941,confidence_buffer,,null,,,,,,,,,,,,,,,,,,,
null,,thebreak,1761443,break,,null,,,,,,,,,,,,,,,,,,,
,,survey,2089823,survey-questions,,,,,,,,,,,high, I was very interested in the study. I was not doing anything else,no strategies. I am an old guy and have heard of a lot of these places,I just went by what I knew for sure were places,I went by if they were cool enough that I would remember them,Some of the names were so interesting that they just seemed unique to me,very few of the places seemed not real to me,no,it was not boring.I am not sure what you were looking for,,
20725.30000001192,,thank_you,2110574,all_done,,32,,,,,,,,,,,,,,,,,,1,0
