rt,responses,trial_type,time_elapsed,stimulus,button_pressed,key_press,name_trial,rating,probe,probe_accuracy,response,correct,accuracy,problems,smooth,distraction,strategies,familiar,memorable,unique,realistic,similar,comments,detectfocus,warning
6361.799999952316,{worker_id:678e6eb7170e3a5da7c4ab91},id_enter,6366,,,,,,,,,,,,,,,,,,,,,,
2328.5,,fullscreen,8703,fullscreen,0,,,,,,,,,,,,,,,,,,,,
1799.3999999761581,,intro_0,10508,instruct,,32,,,,,,,,,,,,,,,,,,,
535,,intro_1,11046,instruct,,32,,,,,,,,,,,,,,,,,,,
497.60000002384186,,intro_2,11545,instruct,,32,,,,,,,,,,,,,,,,,,,
null,,instruct_dir_4,13060,instruct,,null,,,,,,,,,,,,,,,,,,,
null,,thebreak,13572,break,,null,,,,,,,,,,,,,,,,,,,
2965.9000000953674,,familiar_rating,16541,Fort Collins,,51,Fort Collins,3,,,,,,,,,,,,,,,,,
null,,confidence_buffer,16657,confidence_buffer,,null,,,,,,,,,,,,,,,,,,,
959.6000000238419,,unique_rating,17619,Fort Collins,,51,,3,,,,,,,,,,,,,,,,,
null,,confidence_buffer,17730,confidence_buffer,,null,,,,,,,,,,,,,,,,,,,
507.60000002384186,,memorable_rating,18240,Fort Collins,,50,,2,,,,,,,,,,,,,,,,,
null,,confidence_buffer,18357,confidence_buffer,,null,,,,,,,,,,,,,,,,,,,
null,,thebreak,18865,break,,null,,,,,,,,,,,,,,,,,,,
1750,,familiar_rating,20617,Topeka,,51,Topeka,3,,,,,,,,,,,,,,,,,
null,,confidence_buffer,20724,confidence_buffer,,null,,,,,,,,,,,,,,,,,,,
410.5,,unique_rating,21136,Topeka,,50,,2,,,,,,,,,,,,,,,,,
null,,confidence_buffer,21242,confidence_buffer,,null,,,,,,,,,,,,,,,,,,,
360.10000002384186,,memorable_rating,21606,Topeka,,51,,3,,,,,,,,,,,,,,,,,
null,,confidence_buffer,21725,confidence_buffer,,null,,,,,,,,,,,,,,,,,,,
null,,thebreak,22240,break,,null,,,,,,,,,,,,,,,,,,,
1624.2000000476837,,familiar_rating,23866,Muncie,,51,Muncie,3,,,,,,,,,,,,,,,,,
null,,confidence_buffer,23975,confidence_buffer,,null,,,,,,,,,,,,,,,,,,,
888.3000000715256,,unique_rating,24865,Muncie,,50,,2,,,,,,,,,,,,,,,,,
null,,confidence_buffer,24970,confidence_buffer,,null,,,,,,,,,,,,,,,,,,,
761.3000000715256,,memorable_rating,25733,Muncie,,51,,3,,,,,,,,,,,,,,,,,
null,,confidence_buffer,25840,confidence_buffer,,null,,,,,,,,,,,,,,,,,,,
null,,thebreak,26352,break,,null,,,,,,,,,,,,,,,,,,,
1867.6999999284744,,familiar_rating,28221,Fort Wayne,,51,Fort Wayne,3,,,,,,,,,,,,,,,,,
null,,confidence_buffer,28325,confidence_buffer,,null,,,,,,,,,,,,,,,,,,,
515.2999999523163,,unique_rating,28842,Fort Wayne,,50,,2,,,,,,,,,,,,,,,,,
null,,confidence_buffer,28945,confidence_buffer,,null,,,,,,,,,,,,,,,,,,,
524.7999999523163,,memorable_rating,29472,Fort Wayne,,51,,3,,,,,,,,,,,,,,,,,
null,,confidence_buffer,29575,confidence_buffer,,null,,,,,,,,,,,,,,,,,,,
null,,thebreak,30077,break,,null,,,,,,,,,,,,,,,,,,,
4275.399999976158,,familiar_rating,34354,Cambridge,,53,Cambridge,5,,,,,,,,,,,,,,,,,
null,,confidence_buffer,34457,confidence_buffer,,null,,,,,,,,,,,,,,,,,,,
893.7000000476837,,unique_rating,35352,Cambridge,,52,,4,,,,,,,,,,,,,,,,,
null,,confidence_buffer,35456,confidence_buffer,,null,,,,,,,,,,,,,,,,,,,
465.2000000476837,,memorable_rating,35923,Cambridge,,52,,4,,,,,,,,,,,,,,,,,
null,,confidence_buffer,36025,confidence_buffer,,null,,,,,,,,,,,,,,,,,,,
null,,thebreak,36527,break,,null,,,,,,,,,,,,,,,,,,,
3646.399999976158,,familiar_rating,40177,Syracuse,,51,Syracuse,3,,,,,,,,,,,,,,,,,
null,,confidence_buffer,40279,confidence_buffer,,null,,,,,,,,,,,,,,,,,,,
2309,,unique_rating,42590,Syracuse,,52,,4,,,,,,,,,,,,,,,,,
null,,confidence_buffer,42706,confidence_buffer,,null,,,,,,,,,,,,,,,,,,,
1779.6999999284744,,memorable_rating,44487,Syracuse,,51,,3,,,,,,,,,,,,,,,,,
null,,confidence_buffer,44590,confidence_buffer,,null,,,,,,,,,,,,,,,,,,,
null,,thebreak,45092,break,,null,,,,,,,,,,,,,,,,,,,
3625.7000000476837,,familiar_rating,48720,Bozeman,,51,Bozeman,3,,,,,,,,,,,,,,,,,
null,,confidence_buffer,48822,confidence_buffer,,null,,,,,,,,,,,,,,,,,,,
1555.8999999761581,,unique_rating,50380,Bozeman,,51,,3,,,,,,,,,,,,,,,,,
null,,confidence_buffer,50483,confidence_buffer,,null,,,,,,,,,,,,,,,,,,,
1421.8999999761581,,memorable_rating,51908,Bozeman,,51,,3,,,,,,,,,,,,,,,,,
null,,confidence_buffer,52010,confidence_buffer,,null,,,,,,,,,,,,,,,,,,,
null,,thebreak,52511,break,,null,,,,,,,,,,,,,,,,,,,
3541.600000023842,,familiar_rating,56055,Carson City,,52,Carson City,4,,,,,,,,,,,,,,,,,
null,,confidence_buffer,56158,confidence_buffer,,null,,,,,,,,,,,,,,,,,,,
781.6999999284744,,unique_rating,56942,Carson City,,51,,3,,,,,,,,,,,,,,,,,
null,,confidence_buffer,57045,confidence_buffer,,null,,,,,,,,,,,,,,,,,,,
576.1999999284744,,memorable_rating,57623,Carson City,,52,,4,,,,,,,,,,,,,,,,,
null,,confidence_buffer,57725,confidence_buffer,,null,,,,,,,,,,,,,,,,,,,
null,,thebreak,58228,break,,null,,,,,,,,,,,,,,,,,,,
4029,,familiar_rating,62259,Yakima,,53,Yakima,5,,,,,,,,,,,,,,,,,
null,,confidence_buffer,62361,confidence_buffer,,null,,,,,,,,,,,,,,,,,,,
1321.8999999761581,,unique_rating,63685,Yakima,,52,,4,,,,,,,,,,,,,,,,,
null,,confidence_buffer,63788,confidence_buffer,,null,,,,,,,,,,,,,,,,,,,
1055.1000000238419,,memorable_rating,64845,Yakima,,52,,4,,,,,,,,,,,,,,,,,
null,,confidence_buffer,64948,confidence_buffer,,null,,,,,,,,,,,,,,,,,,,
4359.099999904633,,probe_rating,69309,probe_rating,,50,,,2,1,,,,,,,,,,,,,,,
null,,confidence_buffer,69412,confidence_buffer,,null,,,,,,,,,,,,,,,,,,,
null,,thebreak,69915,break,,null,,,,,,,,,,,,,,,,,,,
2596.3000000715256,,familiar_rating,72513,Gainesville,,52,Gainesville,4,,,,,,,,,,,,,,,,,
null,,confidence_buffer,72616,confidence_buffer,,null,,,,,,,,,,,,,,,,,,,
1113.0999999046326,,unique_rating,73732,Gainesville,,51,,3,,,,,,,,,,,,,,,,,
null,,confidence_buffer,73837,confidence_buffer,,null,,,,,,,,,,,,,,,,,,,
1280.3000000715256,,memorable_rating,75119,Gainesville,,53,,5,,,,,,,,,,,,,,,,,
null,,confidence_buffer,75221,confidence_buffer,,null,,,,,,,,,,,,,,,,,,,
null,,thebreak,75723,break,,null,,,,,,,,,,,,,,,,,,,
9244.399999976158,,familiar_rating,84969,Rock Springs,,53,Rock Springs,5,,,,,,,,,,,,,,,,,
null,,confidence_buffer,85072,confidence_buffer,,null,,,,,,,,,,,,,,,,,,,
831.6000000238419,,unique_rating,85906,Rock Springs,,52,,4,,,,,,,,,,,,,,,,,
null,,confidence_buffer,86009,confidence_buffer,,null,,,,,,,,,,,,,,,,,,,
883.8000000715256,,memorable_rating,86895,Rock Springs,,52,,4,,,,,,,,,,,,,,,,,
null,,confidence_buffer,86998,confidence_buffer,,null,,,,,,,,,,,,,,,,,,,
null,,thebreak,87499,break,,null,,,,,,,,,,,,,,,,,,,
4735.300000071526,,familiar_rating,92237,Pueblo,,51,Pueblo,3,,,,,,,,,,,,,,,,,
null,,confidence_buffer,92339,confidence_buffer,,null,,,,,,,,,,,,,,,,,,,
1292.8000000715256,,unique_rating,93633,Pueblo,,52,,4,,,,,,,,,,,,,,,,,
null,,confidence_buffer,93736,confidence_buffer,,null,,,,,,,,,,,,,,,,,,,
953.6000000238419,,memorable_rating,94692,Pueblo,,51,,3,,,,,,,,,,,,,,,,,
null,,confidence_buffer,94795,confidence_buffer,,null,,,,,,,,,,,,,,,,,,,
null,,thebreak,95297,break,,null,,,,,,,,,,,,,,,,,,,
4269.799999952316,,familiar_rating,99569,Ann Arbor,,52,Ann Arbor,4,,,,,,,,,,,,,,,,,
null,,confidence_buffer,99671,confidence_buffer,,null,,,,,,,,,,,,,,,,,,,
2140.600000023842,,unique_rating,101813,Ann Arbor,,52,,4,,,,,,,,,,,,,,,,,
null,,confidence_buffer,101918,confidence_buffer,,null,,,,,,,,,,,,,,,,,,,
645.4000000953674,,memorable_rating,102565,Ann Arbor,,52,,4,,,,,,,,,,,,,,,,,
null,,confidence_buffer,102668,confidence_buffer,,null,,,,,,,,,,,,,,,,,,,
null,,thebreak,103169,break,,null,,,,,,,,,,,,,,,,,,,
4672.799999952316,,familiar_rating,107845,Youngstown,,51,Youngstown,3,,,,,,,,,,,,,,,,,
null,,confidence_buffer,107947,confidence_buffer,,null,,,,,,,,,,,,,,,,,,,
6792.399999976158,,probe_rating,114741,probe_rating,,52,,,4,1,,,,,,,,,,,,,,,
null,,confidence_buffer,114852,confidence_buffer,,null,,,,,,,,,,,,,,,,,,,
1904.5999999046326,,unique_rating,116758,Youngstown,,51,,3,,,,,,,,,,,,,,,,,
null,,confidence_buffer,116860,confidence_buffer,,null,,,,,,,,,,,,,,,,,,,
2270,,memorable_rating,119133,Youngstown,,52,,4,,,,,,,,,,,,,,,,,
null,,confidence_buffer,119236,confidence_buffer,,null,,,,,,,,,,,,,,,,,,,
null,,thebreak,119738,break,,null,,,,,,,,,,,,,,,,,,,
3529.2000000476837,,familiar_rating,123269,Altoona,,51,Altoona,3,,,,,,,,,,,,,,,,,
null,,confidence_buffer,123372,confidence_buffer,,null,,,,,,,,,,,,,,,,,,,
642,,unique_rating,124015,Altoona,,52,,4,,,,,,,,,,,,,,,,,
null,,confidence_buffer,124118,confidence_buffer,,null,,,,,,,,,,,,,,,,,,,
464.8000000715256,,memorable_rating,124585,Altoona,,51,,3,,,,,,,,,,,,,,,,,
null,,confidence_buffer,124688,confidence_buffer,,null,,,,,,,,,,,,,,,,,,,
null,,thebreak,125190,break,,null,,,,,,,,,,,,,,,,,,,
3439.5,,familiar_rating,128631,Las Cruces,,52,Las Cruces,4,,,,,,,,,,,,,,,,,
null,,confidence_buffer,128734,confidence_buffer,,null,,,,,,,,,,,,,,,,,,,
1260.8000000715256,,unique_rating,129997,Las Cruces,,51,,3,,,,,,,,,,,,,,,,,
null,,confidence_buffer,130101,confidence_buffer,,null,,,,,,,,,,,,,,,,,,,
1503.4000000953674,,memorable_rating,131606,Las Cruces,,51,,3,,,,,,,,,,,,,,,,,
null,,confidence_buffer,131708,confidence_buffer,,null,,,,,,,,,,,,,,,,,,,
null,,thebreak,132210,break,,null,,,,,,,,,,,,,,,,,,,
2948.399999976158,,familiar_rating,135160,Dubuque,,51,Dubuque,3,,,,,,,,,,,,,,,,,
null,,confidence_buffer,135263,confidence_buffer,,null,,,,,,,,,,,,,,,,,,,
1433.8999999761581,,unique_rating,136698,Dubuque,,51,,3,,,,,,,,,,,,,,,,,
null,,confidence_buffer,136800,confidence_buffer,,null,,,,,,,,,,,,,,,,,,,
1077.6000000238419,,memorable_rating,137879,Dubuque,,51,,3,,,,,,,,,,,,,,,,,
null,,confidence_buffer,137981,confidence_buffer,,null,,,,,,,,,,,,,,,,,,,
null,,thebreak,138483,break,,null,,,,,,,,,,,,,,,,,,,
3064.4000000953674,,familiar_rating,141550,Marquette,,53,Marquette,5,,,,,,,,,,,,,,,,,
null,,confidence_buffer,141652,confidence_buffer,,null,,,,,,,,,,,,,,,,,,,
2267.2000000476837,,unique_rating,143921,Marquette,,52,,4,,,,,,,,,,,,,,,,,
null,,confidence_buffer,144038,confidence_buffer,,null,,,,,,,,,,,,,,,,,,,
918.6000000238419,,memorable_rating,144959,Marquette,,52,,4,,,,,,,,,,,,,,,,,
null,,confidence_buffer,145061,confidence_buffer,,null,,,,,,,,,,,,,,,,,,,
null,,thebreak,145563,break,,null,,,,,,,,,,,,,,,,,,,
5484.600000023842,,familiar_rating,151050,Cheyenne,,51,Cheyenne,3,,,,,,,,,,,,,,,,,
null,,confidence_buffer,151152,confidence_buffer,,null,,,,,,,,,,,,,,,,,,,
4357.900000095367,,unique_rating,155512,Cheyenne,,52,,4,,,,,,,,,,,,,,,,,
null,,confidence_buffer,155629,confidence_buffer,,null,,,,,,,,,,,,,,,,,,,
1377.7000000476837,,memorable_rating,157009,Cheyenne,,52,,4,,,,,,,,,,,,,,,,,
null,,confidence_buffer,157112,confidence_buffer,,null,,,,,,,,,,,,,,,,,,,
null,,thebreak,157613,break,,null,,,,,,,,,,,,,,,,,,,
2298.100000023842,,familiar_rating,159913,Reno,,52,Reno,4,,,,,,,,,,,,,,,,,
null,,confidence_buffer,160016,confidence_buffer,,null,,,,,,,,,,,,,,,,,,,
1053.8999999761581,,unique_rating,161072,Reno,,51,,3,,,,,,,,,,,,,,,,,
null,,confidence_buffer,161175,confidence_buffer,,null,,,,,,,,,,,,,,,,,,,
1751.2000000476837,,memorable_rating,162929,Reno,,51,,3,,,,,,,,,,,,,,,,,
null,,confidence_buffer,163031,confidence_buffer,,null,,,,,,,,,,,,,,,,,,,
null,,thebreak,163532,break,,null,,,,,,,,,,,,,,,,,,,
2571,,familiar_rating,166106,Athens,,52,Athens,4,,,,,,,,,,,,,,,,,
null,,confidence_buffer,166209,confidence_buffer,,null,,,,,,,,,,,,,,,,,,,
1179.1000000238419,,unique_rating,167390,Athens,,52,,4,,,,,,,,,,,,,,,,,
null,,confidence_buffer,167491,confidence_buffer,,null,,,,,,,,,,,,,,,,,,,
3512.600000023842,,probe_rating,171006,probe_rating,,51,,,3,1,,,,,,,,,,,,,,,
null,,confidence_buffer,171108,confidence_buffer,,null,,,,,,,,,,,,,,,,,,,
2501,,memorable_rating,173611,Athens,,52,,4,,,,,,,,,,,,,,,,,
null,,confidence_buffer,173728,confidence_buffer,,null,,,,,,,,,,,,,,,,,,,
null,,thebreak,174230,break,,null,,,,,,,,,,,,,,,,,,,
2722.100000023842,,familiar_rating,176954,Terre Haute,,52,Terre Haute,4,,,,,,,,,,,,,,,,,
null,,confidence_buffer,177056,confidence_buffer,,null,,,,,,,,,,,,,,,,,,,
994.1000000238419,,unique_rating,178052,Terre Haute,,51,,3,,,,,,,,,,,,,,,,,
null,,confidence_buffer,178155,confidence_buffer,,null,,,,,,,,,,,,,,,,,,,
1431.3999999761581,,memorable_rating,179589,Terre Haute,,51,,3,,,,,,,,,,,,,,,,,
null,,confidence_buffer,179691,confidence_buffer,,null,,,,,,,,,,,,,,,,,,,
null,,thebreak,180193,break,,null,,,,,,,,,,,,,,,,,,,
2799.3000000715256,,familiar_rating,182994,Frankfort,,53,Frankfort,5,,,,,,,,,,,,,,,,,
null,,confidence_buffer,183097,confidence_buffer,,null,,,,,,,,,,,,,,,,,,,
812.3000000715256,,unique_rating,183911,Frankfort,,52,,4,,,,,,,,,,,,,,,,,
null,,confidence_buffer,184013,confidence_buffer,,null,,,,,,,,,,,,,,,,,,,
1094.6999999284744,,memorable_rating,185109,Frankfort,,52,,4,,,,,,,,,,,,,,,,,
null,,confidence_buffer,185212,confidence_buffer,,null,,,,,,,,,,,,,,,,,,,
null,,thebreak,185715,break,,null,,,,,,,,,,,,,,,,,,,
2090.7999999523163,,familiar_rating,187808,Scottsdale,,51,Scottsdale,3,,,,,,,,,,,,,,,,,
null,,confidence_buffer,187912,confidence_buffer,,null,,,,,,,,,,,,,,,,,,,
1048.4000000953674,,unique_rating,188962,Scottsdale,,52,,4,,,,,,,,,,,,,,,,,
null,,confidence_buffer,189065,confidence_buffer,,null,,,,,,,,,,,,,,,,,,,
818,,memorable_rating,189885,Scottsdale,,51,,3,,,,,,,,,,,,,,,,,
null,,confidence_buffer,189988,confidence_buffer,,null,,,,,,,,,,,,,,,,,,,
null,,thebreak,190490,break,,null,,,,,,,,,,,,,,,,,,,
2927.2000000476837,,familiar_rating,193419,Helena,,53,Helena,5,,,,,,,,,,,,,,,,,
null,,confidence_buffer,193545,confidence_buffer,,null,,,,,,,,,,,,,,,,,,,
808.0999999046326,,unique_rating,194356,Helena,,52,,4,,,,,,,,,,,,,,,,,
null,,confidence_buffer,194462,confidence_buffer,,null,,,,,,,,,,,,,,,,,,,
760.6000000238419,,memorable_rating,195224,Helena,,52,,4,,,,,,,,,,,,,,,,,
null,,confidence_buffer,195328,confidence_buffer,,null,,,,,,,,,,,,,,,,,,,
null,,thebreak,195830,break,,null,,,,,,,,,,,,,,,,,,,
5899.5,,intro_0,201731,instruct,,32,,,,,,,,,,,,,,,,,,,
8734.900000095367,,intro_1,210468,instruct,,32,,,,,,,,,,,,,,,,,,,
20061.200000047684,,intro_2,230531,instruct,,32,,,,,,,,,,,,,,,,,,,
null,,instruct_dir_4,232034,instruct,,null,,,,,,,,,,,,,,,,,,,
10657.299999952316,,realistic_rating,242693,Champaign,,53,Champaign,5,,,,,,,,,,,,,,,,,
null,,confidence_buffer,242796,confidence_buffer,,null,,,,,,,,,,,,,,,,,,,
3155.399999976158,,pt2_unique_rating,245953,Champaign,,52,,4,,,,,,,,,,,,,,,,,
null,,confidence_buffer,246056,confidence_buffer,,null,,,,,,,,,,,,,,,,,,,
1434.6000000238419,,pt2_memorable_rating,247492,Champaign,,52,,4,,,,,,,,,,,,,,,,,
null,,confidence_buffer,247597,confidence_buffer,,null,,,,,,,,,,,,,,,,,,,
4584.800000071526,,recognition_phase,252184,Champaign,,49,,,,,old,0,0,,,,,,,,,,,,
null,,confidence_buffer,252288,confidence_buffer,,null,,,,,,,,,,,,,,,,,,,
null,,thebreak,252790,break,,null,,,,,,,,,,,,,,,,,,,
6797.200000047684,,realistic_rating,259589,Stamford,,52,Stamford,4,,,,,,,,,,,,,,,,,
null,,confidence_buffer,259691,confidence_buffer,,null,,,,,,,,,,,,,,,,,,,
2264.2999999523163,,pt2_unique_rating,261958,Stamford,,52,,4,,,,,,,,,,,,,,,,,
null,,confidence_buffer,262060,confidence_buffer,,null,,,,,,,,,,,,,,,,,,,
4445.799999952316,,pt2_memorable_rating,266508,Stamford,,52,,4,,,,,,,,,,,,,,,,,
null,,confidence_buffer,266611,confidence_buffer,,null,,,,,,,,,,,,,,,,,,,
4703.599999904633,,recognition_phase,271316,Stamford,,51,,,,,new,1,0.5,,,,,,,,,,,,
null,,confidence_buffer,271418,confidence_buffer,,null,,,,,,,,,,,,,,,,,,,
null,,thebreak,271927,break,,null,,,,,,,,,,,,,,,,,,,
5238.399999976158,,realistic_rating,277168,Tallahassee,,50,Tallahassee,2,,,,,,,,,,,,,,,,,
null,,confidence_buffer,277271,confidence_buffer,,null,,,,,,,,,,,,,,,,,,,
2117.1999999284744,,pt2_unique_rating,279390,Tallahassee,,51,,3,,,,,,,,,,,,,,,,,
null,,confidence_buffer,279493,confidence_buffer,,null,,,,,,,,,,,,,,,,,,,
1372.3999999761581,,pt2_memorable_rating,280867,Tallahassee,,50,,2,,,,,,,,,,,,,,,,,
null,,confidence_buffer,280971,confidence_buffer,,null,,,,,,,,,,,,,,,,,,,
3061.5,,recognition_phase,284035,Tallahassee,,52,,,,,new,1,0.6666666666666666,,,,,,,,,,,,
null,,confidence_buffer,284138,confidence_buffer,,null,,,,,,,,,,,,,,,,,,,
null,,thebreak,284640,break,,null,,,,,,,,,,,,,,,,,,,
2925.1999999284744,,realistic_rating,287567,Norfolk,,50,Norfolk,2,,,,,,,,,,,,,,,,,
null,,confidence_buffer,287669,confidence_buffer,,null,,,,,,,,,,,,,,,,,,,
1790.3999999761581,,pt2_unique_rating,289462,Norfolk,,52,,4,,,,,,,,,,,,,,,,,
null,,confidence_buffer,289569,confidence_buffer,,null,,,,,,,,,,,,,,,,,,,
1619.3999999761581,,pt2_memorable_rating,291190,Norfolk,,51,,3,,,,,,,,,,,,,,,,,
null,,confidence_buffer,291302,confidence_buffer,,null,,,,,,,,,,,,,,,,,,,
3167.2999999523163,,recognition_phase,294472,Norfolk,,52,,,,,new,1,0.75,,,,,,,,,,,,
null,,confidence_buffer,294575,confidence_buffer,,null,,,,,,,,,,,,,,,,,,,
null,,thebreak,295078,break,,null,,,,,,,,,,,,,,,,,,,
4613.400000095367,,realistic_rating,299694,Fort Collins,,52,Fort Collins,4,,,,,,,,,,,,,,,,,
null,,confidence_buffer,299798,confidence_buffer,,null,,,,,,,,,,,,,,,,,,,
2989.399999976158,,pt2_unique_rating,302789,Fort Collins,,51,,3,,,,,,,,,,,,,,,,,
null,,confidence_buffer,302892,confidence_buffer,,null,,,,,,,,,,,,,,,,,,,
1262.1000000238419,,pt2_memorable_rating,304156,Fort Collins,,51,,3,,,,,,,,,,,,,,,,,
null,,confidence_buffer,304258,confidence_buffer,,null,,,,,,,,,,,,,,,,,,,
2520.6999999284744,,recognition_phase,306781,Fort Collins,,52,,,,,new,0,0.6,,,,,,,,,,,,
null,,confidence_buffer,306885,confidence_buffer,,null,,,,,,,,,,,,,,,,,,,
null,,thebreak,307386,break,,null,,,,,,,,,,,,,,,,,,,
2796.600000023842,,realistic_rating,310185,Bellingham,,52,Bellingham,4,,,,,,,,,,,,,,,,,
null,,confidence_buffer,310288,confidence_buffer,,null,,,,,,,,,,,,,,,,,,,
1829,,pt2_unique_rating,312119,Bellingham,,51,,3,,,,,,,,,,,,,,,,,
null,,confidence_buffer,312221,confidence_buffer,,null,,,,,,,,,,,,,,,,,,,
1004.8000000715256,,pt2_memorable_rating,313228,Bellingham,,51,,3,,,,,,,,,,,,,,,,,
null,,confidence_buffer,313331,confidence_buffer,,null,,,,,,,,,,,,,,,,,,,
10097.199999928474,,recognition_phase,323431,Bellingham,,49,,,,,old,0,0.5,,,,,,,,,,,,
null,,confidence_buffer,323548,confidence_buffer,,null,,,,,,,,,,,,,,,,,,,
null,,thebreak,324049,break,,null,,,,,,,,,,,,,,,,,,,
2831.399999976158,,realistic_rating,326883,Decatur,,51,Decatur,3,,,,,,,,,,,,,,,,,
null,,confidence_buffer,326986,confidence_buffer,,null,,,,,,,,,,,,,,,,,,,
1159.8999999761581,,pt2_unique_rating,328148,Decatur,,51,,3,,,,,,,,,,,,,,,,,
null,,confidence_buffer,328250,confidence_buffer,,null,,,,,,,,,,,,,,,,,,,
2804.2999999523163,,pt2_memorable_rating,331056,Decatur,,51,,3,,,,,,,,,,,,,,,,,
null,,confidence_buffer,331159,confidence_buffer,,null,,,,,,,,,,,,,,,,,,,
5123,,recognition_phase,336285,Decatur,,52,,,,,new,1,0.5714285714285714,,,,,,,,,,,,
null,,confidence_buffer,336388,confidence_buffer,,null,,,,,,,,,,,,,,,,,,,
null,,thebreak,336889,break,,null,,,,,,,,,,,,,,,,,,,
4797.799999952316,,realistic_rating,341689,Ann Arbor,,51,Ann Arbor,3,,,,,,,,,,,,,,,,,
null,,confidence_buffer,341792,confidence_buffer,,null,,,,,,,,,,,,,,,,,,,
2208.7000000476837,,pt2_unique_rating,344003,Ann Arbor,,52,,4,,,,,,,,,,,,,,,,,
null,,confidence_buffer,344106,confidence_buffer,,null,,,,,,,,,,,,,,,,,,,
772.3999999761581,,pt2_memorable_rating,344881,Ann Arbor,,52,,4,,,,,,,,,,,,,,,,,
null,,confidence_buffer,344988,confidence_buffer,,null,,,,,,,,,,,,,,,,,,,
3656,,probe_rating,348646,probe_rating,,53,,,5,1,,,,,,,,,,,,,,,
null,,confidence_buffer,348750,confidence_buffer,,null,,,,,,,,,,,,,,,,,,,
4049.100000023842,,recognition_phase,352801,Ann Arbor,,52,,,,,new,0,0.5,,,,,,,,,,,,
null,,confidence_buffer,352904,confidence_buffer,,null,,,,,,,,,,,,,,,,,,,
null,,thebreak,353407,break,,null,,,,,,,,,,,,,,,,,,,
8882,,realistic_rating,362291,Altoona,,49,Altoona,1,,,,,,,,,,,,,,,,,
null,,confidence_buffer,362394,confidence_buffer,,null,,,,,,,,,,,,,,,,,,,
3095.600000023842,,pt2_unique_rating,365492,Altoona,,50,,2,,,,,,,,,,,,,,,,,
null,,confidence_buffer,365595,confidence_buffer,,null,,,,,,,,,,,,,,,,,,,
1164.3999999761581,,pt2_memorable_rating,366762,Altoona,,50,,2,,,,,,,,,,,,,,,,,
null,,confidence_buffer,366864,confidence_buffer,,null,,,,,,,,,,,,,,,,,,,
5527.600000023842,,recognition_phase,372394,Altoona,,51,,,,,new,0,0.4444444444444444,,,,,,,,,,,,
null,,confidence_buffer,372498,confidence_buffer,,null,,,,,,,,,,,,,,,,,,,
null,,thebreak,373001,break,,null,,,,,,,,,,,,,,,,,,,
6605.5,,realistic_rating,379608,Dover,,50,Dover,2,,,,,,,,,,,,,,,,,
null,,confidence_buffer,379710,confidence_buffer,,null,,,,,,,,,,,,,,,,,,,
1118.6999999284744,,pt2_unique_rating,380830,Dover,,50,,2,,,,,,,,,,,,,,,,,
null,,confidence_buffer,380933,confidence_buffer,,null,,,,,,,,,,,,,,,,,,,
3101.7999999523163,,pt2_memorable_rating,384036,Dover,,51,,3,,,,,,,,,,,,,,,,,
null,,confidence_buffer,384139,confidence_buffer,,null,,,,,,,,,,,,,,,,,,,
4023.5,,recognition_phase,388165,Dover,,51,,,,,new,1,0.5,,,,,,,,,,,,
null,,confidence_buffer,388268,confidence_buffer,,null,,,,,,,,,,,,,,,,,,,
null,,thebreak,388769,break,,null,,,,,,,,,,,,,,,,,,,
5933.399999976158,,realistic_rating,394705,Topeka,,51,Topeka,3,,,,,,,,,,,,,,,,,
null,,confidence_buffer,394808,confidence_buffer,,null,,,,,,,,,,,,,,,,,,,
1195.0999999046326,,pt2_unique_rating,396005,Topeka,,51,,3,,,,,,,,,,,,,,,,,
null,,confidence_buffer,396109,confidence_buffer,,null,,,,,,,,,,,,,,,,,,,
566.3000000715256,,pt2_memorable_rating,396677,Topeka,,51,,3,,,,,,,,,,,,,,,,,
null,,confidence_buffer,396779,confidence_buffer,,null,,,,,,,,,,,,,,,,,,,
2647.4000000953674,,recognition_phase,399429,Topeka,,50,,,,,old,1,0.5454545454545454,,,,,,,,,,,,
null,,confidence_buffer,399531,confidence_buffer,,null,,,,,,,,,,,,,,,,,,,
null,,thebreak,400033,break,,null,,,,,,,,,,,,,,,,,,,
2866.899999976158,,realistic_rating,402902,Reno,,53,Reno,5,,,,,,,,,,,,,,,,,
null,,confidence_buffer,403005,confidence_buffer,,null,,,,,,,,,,,,,,,,,,,
3389.7999999523163,,pt2_unique_rating,406397,Reno,,52,,4,,,,,,,,,,,,,,,,,
null,,confidence_buffer,406499,confidence_buffer,,null,,,,,,,,,,,,,,,,,,,
2267.5,,pt2_memorable_rating,408769,Reno,,52,,4,,,,,,,,,,,,,,,,,
null,,confidence_buffer,408872,confidence_buffer,,null,,,,,,,,,,,,,,,,,,,
2471.1999999284744,,recognition_phase,411345,Reno,,49,,,,,old,1,0.5833333333333334,,,,,,,,,,,,
null,,confidence_buffer,411448,confidence_buffer,,null,,,,,,,,,,,,,,,,,,,
null,,thebreak,411951,break,,null,,,,,,,,,,,,,,,,,,,
4374,,realistic_rating,416327,Syracuse,,50,Syracuse,2,,,,,,,,,,,,,,,,,
null,,confidence_buffer,416430,confidence_buffer,,null,,,,,,,,,,,,,,,,,,,
1060.7000000476837,,pt2_unique_rating,417492,Syracuse,,51,,3,,,,,,,,,,,,,,,,,
null,,confidence_buffer,417595,confidence_buffer,,null,,,,,,,,,,,,,,,,,,,
1342.3000000715256,,pt2_memorable_rating,418939,Syracuse,,51,,3,,,,,,,,,,,,,,,,,
null,,confidence_buffer,419042,confidence_buffer,,null,,,,,,,,,,,,,,,,,,,
2405.7000000476837,,recognition_phase,421450,Syracuse,,52,,,,,new,0,0.5384615384615384,,,,,,,,,,,,
null,,confidence_buffer,421553,confidence_buffer,,null,,,,,,,,,,,,,,,,,,,
null,,thebreak,422054,break,,null,,,,,,,,,,,,,,,,,,,
2411.5,,realistic_rating,424468,Cambridge,,53,Cambridge,5,,,,,,,,,,,,,,,,,
null,,confidence_buffer,424571,confidence_buffer,,null,,,,,,,,,,,,,,,,,,,
2516.600000023842,,pt2_unique_rating,427089,Cambridge,,52,,4,,,,,,,,,,,,,,,,,
null,,confidence_buffer,427192,confidence_buffer,,null,,,,,,,,,,,,,,,,,,,
1333.6999999284744,,pt2_memorable_rating,428527,Cambridge,,53,,5,,,,,,,,,,,,,,,,,
null,,confidence_buffer,428630,confidence_buffer,,null,,,,,,,,,,,,,,,,,,,
2332.5,,recognition_phase,430965,Cambridge,,49,,,,,old,1,0.5714285714285714,,,,,,,,,,,,
null,,confidence_buffer,431069,confidence_buffer,,null,,,,,,,,,,,,,,,,,,,
null,,thebreak,431570,break,,null,,,,,,,,,,,,,,,,,,,
2380.2999999523163,,realistic_rating,433952,Youngstown,,53,Youngstown,5,,,,,,,,,,,,,,,,,
null,,confidence_buffer,434055,confidence_buffer,,null,,,,,,,,,,,,,,,,,,,
2437.5,,pt2_unique_rating,436494,Youngstown,,52,,4,,,,,,,,,,,,,,,,,
null,,confidence_buffer,436597,confidence_buffer,,null,,,,,,,,,,,,,,,,,,,
1789.3000000715256,,pt2_memorable_rating,438388,Youngstown,,53,,5,,,,,,,,,,,,,,,,,
null,,confidence_buffer,438491,confidence_buffer,,null,,,,,,,,,,,,,,,,,,,
1790.3000000715256,,recognition_phase,440283,Youngstown,,49,,,,,old,1,0.6,,,,,,,,,,,,
null,,confidence_buffer,440385,confidence_buffer,,null,,,,,,,,,,,,,,,,,,,
null,,thebreak,440888,break,,null,,,,,,,,,,,,,,,,,,,
2521.1999999284744,,realistic_rating,443411,Salem,,53,Salem,5,,,,,,,,,,,,,,,,,
null,,confidence_buffer,443514,confidence_buffer,,null,,,,,,,,,,,,,,,,,,,
1291.3999999761581,,pt2_unique_rating,444808,Salem,,52,,4,,,,,,,,,,,,,,,,,
null,,confidence_buffer,444911,confidence_buffer,,null,,,,,,,,,,,,,,,,,,,
4248.399999976158,,probe_rating,449161,probe_rating,,51,,,3,1,,,,,,,,,,,,,,,
null,,confidence_buffer,449263,confidence_buffer,,null,,,,,,,,,,,,,,,,,,,
1932.2000000476837,,pt2_memorable_rating,451197,Salem,,52,,4,,,,,,,,,,,,,,,,,
null,,confidence_buffer,451300,confidence_buffer,,null,,,,,,,,,,,,,,,,,,,
3965.7000000476837,,recognition_phase,455268,Salem,,50,,,,,old,0,0.5625,,,,,,,,,,,,
null,,confidence_buffer,455370,confidence_buffer,,null,,,,,,,,,,,,,,,,,,,
null,,thebreak,455872,break,,null,,,,,,,,,,,,,,,,,,,
3413.5,,realistic_rating,459288,Rock Springs,,52,Rock Springs,4,,,,,,,,,,,,,,,,,
null,,confidence_buffer,459391,confidence_buffer,,null,,,,,,,,,,,,,,,,,,,
1007.5,,pt2_unique_rating,460400,Rock Springs,,51,,3,,,,,,,,,,,,,,,,,
null,,confidence_buffer,460507,confidence_buffer,,null,,,,,,,,,,,,,,,,,,,
1027,,pt2_memorable_rating,461536,Rock Springs,,51,,3,,,,,,,,,,,,,,,,,
null,,confidence_buffer,461638,confidence_buffer,,null,,,,,,,,,,,,,,,,,,,
3924.1999999284744,,recognition_phase,465565,Rock Springs,,50,,,,,old,1,0.5882352941176471,,,,,,,,,,,,
null,,confidence_buffer,465668,confidence_buffer,,null,,,,,,,,,,,,,,,,,,,
null,,thebreak,466169,break,,null,,,,,,,,,,,,,,,,,,,
2867.7999999523163,,realistic_rating,469040,Annapolis,,51,Annapolis,3,,,,,,,,,,,,,,,,,
null,,confidence_buffer,469143,confidence_buffer,,null,,,,,,,,,,,,,,,,,,,
1495,,pt2_unique_rating,470640,Annapolis,,51,,3,,,,,,,,,,,,,,,,,
null,,confidence_buffer,470743,confidence_buffer,,null,,,,,,,,,,,,,,,,,,,
1357.4000000953674,,pt2_memorable_rating,472102,Annapolis,,52,,4,,,,,,,,,,,,,,,,,
null,,confidence_buffer,472204,confidence_buffer,,null,,,,,,,,,,,,,,,,,,,
2066.7999999523163,,recognition_phase,474273,Annapolis,,52,,,,,new,1,0.6111111111111112,,,,,,,,,,,,
null,,confidence_buffer,474376,confidence_buffer,,null,,,,,,,,,,,,,,,,,,,
null,,thebreak,474878,break,,null,,,,,,,,,,,,,,,,,,,
2907.600000023842,,realistic_rating,477788,Ithaca,,50,Ithaca,2,,,,,,,,,,,,,,,,,
null,,confidence_buffer,477891,confidence_buffer,,null,,,,,,,,,,,,,,,,,,,
2497.2999999523163,,pt2_unique_rating,480389,Ithaca,,50,,2,,,,,,,,,,,,,,,,,
null,,confidence_buffer,480492,confidence_buffer,,null,,,,,,,,,,,,,,,,,,,
1161.7999999523163,,pt2_memorable_rating,481655,Ithaca,,51,,3,,,,,,,,,,,,,,,,,
null,,confidence_buffer,481758,confidence_buffer,,null,,,,,,,,,,,,,,,,,,,
6944.5,,recognition_phase,488705,Ithaca,,52,,,,,new,1,0.631578947368421,,,,,,,,,,,,
null,,confidence_buffer,488808,confidence_buffer,,null,,,,,,,,,,,,,,,,,,,
null,,thebreak,489310,break,,null,,,,,,,,,,,,,,,,,,,
2946.8000000715256,,realistic_rating,492259,Carson City,,50,Carson City,2,,,,,,,,,,,,,,,,,
null,,confidence_buffer,492361,confidence_buffer,,null,,,,,,,,,,,,,,,,,,,
1464.6000000238419,,pt2_unique_rating,493827,Carson City,,50,,2,,,,,,,,,,,,,,,,,
null,,confidence_buffer,493930,confidence_buffer,,null,,,,,,,,,,,,,,,,,,,
1393.2999999523163,,pt2_memorable_rating,495325,Carson City,,50,,2,,,,,,,,,,,,,,,,,
null,,confidence_buffer,495429,confidence_buffer,,null,,,,,,,,,,,,,,,,,,,
2020.2999999523163,,probe_rating,497451,probe_rating,,53,,,5,1,,,,,,,,,,,,,,,
null,,confidence_buffer,497555,confidence_buffer,,null,,,,,,,,,,,,,,,,,,,
7469.700000047684,,recognition_phase,505026,Carson City,,51,,,,,new,0,0.6,,,,,,,,,,,,
null,,confidence_buffer,505129,confidence_buffer,,null,,,,,,,,,,,,,,,,,,,
null,,thebreak,505631,break,,null,,,,,,,,,,,,,,,,,,,
3221,,realistic_rating,508854,Boulder,,49,Boulder,1,,,,,,,,,,,,,,,,,
null,,confidence_buffer,508958,confidence_buffer,,null,,,,,,,,,,,,,,,,,,,
2416.3000000715256,,pt2_unique_rating,511376,Boulder,,49,,1,,,,,,,,,,,,,,,,,
null,,confidence_buffer,511480,confidence_buffer,,null,,,,,,,,,,,,,,,,,,,
1006.8000000715256,,pt2_memorable_rating,512488,Boulder,,50,,2,,,,,,,,,,,,,,,,,
null,,confidence_buffer,512591,confidence_buffer,,null,,,,,,,,,,,,,,,,,,,
4453.800000071526,,recognition_phase,517047,Boulder,,52,,,,,new,1,0.6190476190476191,,,,,,,,,,,,
null,,confidence_buffer,517149,confidence_buffer,,null,,,,,,,,,,,,,,,,,,,
null,,thebreak,517663,break,,null,,,,,,,,,,,,,,,,,,,
4556.200000047684,,realistic_rating,522221,Fort Wayne,,52,Fort Wayne,4,,,,,,,,,,,,,,,,,
null,,confidence_buffer,522324,confidence_buffer,,null,,,,,,,,,,,,,,,,,,,
1352.3999999761581,,pt2_unique_rating,523679,Fort Wayne,,52,,4,,,,,,,,,,,,,,,,,
null,,confidence_buffer,523781,confidence_buffer,,null,,,,,,,,,,,,,,,,,,,
1173.6000000238419,,pt2_memorable_rating,524957,Fort Wayne,,52,,4,,,,,,,,,,,,,,,,,
null,,confidence_buffer,525072,confidence_buffer,,null,,,,,,,,,,,,,,,,,,,
2714.100000023842,,recognition_phase,527789,Fort Wayne,,51,,,,,new,0,0.5909090909090909,,,,,,,,,,,,
null,,confidence_buffer,527892,confidence_buffer,,null,,,,,,,,,,,,,,,,,,,
null,,thebreak,528394,break,,null,,,,,,,,,,,,,,,,,,,
5086.600000023842,,realistic_rating,533481,New Haven,,53,New Haven,5,,,,,,,,,,,,,,,,,
null,,confidence_buffer,533584,confidence_buffer,,null,,,,,,,,,,,,,,,,,,,
1474.9000000953674,,pt2_unique_rating,535061,New Haven,,52,,4,,,,,,,,,,,,,,,,,
null,,confidence_buffer,535163,confidence_buffer,,null,,,,,,,,,,,,,,,,,,,
807.5,,pt2_memorable_rating,535973,New Haven,,52,,4,,,,,,,,,,,,,,,,,
null,,confidence_buffer,536075,confidence_buffer,,null,,,,,,,,,,,,,,,,,,,
5526.199999928474,,recognition_phase,541603,New Haven,,52,,,,,new,1,0.6086956521739131,,,,,,,,,,,,
null,,confidence_buffer,541706,confidence_buffer,,null,,,,,,,,,,,,,,,,,,,
null,,thebreak,542208,break,,null,,,,,,,,,,,,,,,,,,,
3636.100000023842,,realistic_rating,545846,Helena,,53,Helena,5,,,,,,,,,,,,,,,,,
null,,confidence_buffer,545948,confidence_buffer,,null,,,,,,,,,,,,,,,,,,,
1232.8000000715256,,pt2_unique_rating,547184,Helena,,52,,4,,,,,,,,,,,,,,,,,
null,,confidence_buffer,547287,confidence_buffer,,null,,,,,,,,,,,,,,,,,,,
775.5,,pt2_memorable_rating,548064,Helena,,52,,4,,,,,,,,,,,,,,,,,
null,,confidence_buffer,548168,confidence_buffer,,null,,,,,,,,,,,,,,,,,,,
1867.6999999284744,,recognition_phase,550038,Helena,,49,,,,,old,1,0.625,,,,,,,,,,,,
null,,confidence_buffer,550146,confidence_buffer,,null,,,,,,,,,,,,,,,,,,,
null,,thebreak,550648,break,,null,,,,,,,,,,,,,,,,,,,
3357.7000000476837,,realistic_rating,554008,Gainesville,,52,Gainesville,4,,,,,,,,,,,,,,,,,
null,,confidence_buffer,554111,confidence_buffer,,null,,,,,,,,,,,,,,,,,,,
1384.2000000476837,,pt2_unique_rating,555497,Gainesville,,51,,3,,,,,,,,,,,,,,,,,
null,,confidence_buffer,555600,confidence_buffer,,null,,,,,,,,,,,,,,,,,,,
847.8999999761581,,pt2_memorable_rating,556449,Gainesville,,51,,3,,,,,,,,,,,,,,,,,
null,,confidence_buffer,556552,confidence_buffer,,null,,,,,,,,,,,,,,,,,,,
1493.5,,recognition_phase,558048,Gainesville,,49,,,,,old,1,0.64,,,,,,,,,,,,
null,,confidence_buffer,558151,confidence_buffer,,null,,,,,,,,,,,,,,,,,,,
null,,thebreak,558653,break,,null,,,,,,,,,,,,,,,,,,,
3313.100000023842,,realistic_rating,561968,Muncie,,49,Muncie,1,,,,,,,,,,,,,,,,,
null,,confidence_buffer,562070,confidence_buffer,,null,,,,,,,,,,,,,,,,,,,
1232.2999999523163,,pt2_unique_rating,563304,Muncie,,50,,2,,,,,,,,,,,,,,,,,
null,,confidence_buffer,563407,confidence_buffer,,null,,,,,,,,,,,,,,,,,,,
704.3999999761581,,pt2_memorable_rating,564114,Muncie,,50,,2,,,,,,,,,,,,,,,,,
null,,confidence_buffer,564216,confidence_buffer,,null,,,,,,,,,,,,,,,,,,,
2395.600000023842,,recognition_phase,566614,Muncie,,52,,,,,new,0,0.6153846153846154,,,,,,,,,,,,
null,,confidence_buffer,566717,confidence_buffer,,null,,,,,,,,,,,,,,,,,,,
null,,thebreak,567219,break,,null,,,,,,,,,,,,,,,,,,,
2805.5999999046326,,realistic_rating,570026,Olympia,,53,Olympia,5,,,,,,,,,,,,,,,,,
null,,confidence_buffer,570130,confidence_buffer,,null,,,,,,,,,,,,,,,,,,,
1738.8999999761581,,pt2_unique_rating,571870,Olympia,,52,,4,,,,,,,,,,,,,,,,,
null,,confidence_buffer,571974,confidence_buffer,,null,,,,,,,,,,,,,,,,,,,
1148.7000000476837,,pt2_memorable_rating,573124,Olympia,,52,,4,,,,,,,,,,,,,,,,,
null,,confidence_buffer,573227,confidence_buffer,,null,,,,,,,,,,,,,,,,,,,
2115.100000023842,,probe_rating,575344,probe_rating,,50,,,2,1,,,,,,,,,,,,,,,
null,,confidence_buffer,575448,confidence_buffer,,null,,,,,,,,,,,,,,,,,,,
5414.700000047684,,recognition_phase,580864,Olympia,,49,,,,,old,0,0.5925925925925926,,,,,,,,,,,,
null,,confidence_buffer,580967,confidence_buffer,,null,,,,,,,,,,,,,,,,,,,
null,,thebreak,581469,break,,null,,,,,,,,,,,,,,,,,,,
11635.5,,realistic_rating,593106,Hagerstown,,49,Hagerstown,1,,,,,,,,,,,,,,,,,
null,,confidence_buffer,593209,confidence_buffer,,null,,,,,,,,,,,,,,,,,,,
3104.7000000476837,,probe_rating,596316,probe_rating,,53,,,5,1,,,,,,,,,,,,,,,
null,,confidence_buffer,596419,confidence_buffer,,null,,,,,,,,,,,,,,,,,,,
2355.6999999284744,,pt2_unique_rating,598777,Hagerstown,,52,,4,,,,,,,,,,,,,,,,,
null,,confidence_buffer,598880,confidence_buffer,,null,,,,,,,,,,,,,,,,,,,
1576,,pt2_memorable_rating,600457,Hagerstown,,52,,4,,,,,,,,,,,,,,,,,
null,,confidence_buffer,600560,confidence_buffer,,null,,,,,,,,,,,,,,,,,,,
4213.299999952316,,recognition_phase,604775,Hagerstown,,50,,,,,old,0,0.5714285714285714,,,,,,,,,,,,
null,,confidence_buffer,604878,confidence_buffer,,null,,,,,,,,,,,,,,,,,,,
null,,thebreak,605380,break,,null,,,,,,,,,,,,,,,,,,,
4345.899999976158,,realistic_rating,609728,McKinney,,49,McKinney,1,,,,,,,,,,,,,,,,,
null,,confidence_buffer,609831,confidence_buffer,,null,,,,,,,,,,,,,,,,,,,
1930.1000000238419,,pt2_unique_rating,611763,McKinney,,50,,2,,,,,,,,,,,,,,,,,
null,,confidence_buffer,611866,confidence_buffer,,null,,,,,,,,,,,,,,,,,,,
1059.6999999284744,,pt2_memorable_rating,612928,McKinney,,50,,2,,,,,,,,,,,,,,,,,
null,,confidence_buffer,613030,confidence_buffer,,null,,,,,,,,,,,,,,,,,,,
2884,,recognition_phase,615916,McKinney,,52,,,,,new,1,0.5862068965517241,,,,,,,,,,,,
null,,confidence_buffer,616020,confidence_buffer,,null,,,,,,,,,,,,,,,,,,,
null,,thebreak,616522,break,,null,,,,,,,,,,,,,,,,,,,
3442.1999999284744,,realistic_rating,619966,Frankfort,,51,Frankfort,3,,,,,,,,,,,,,,,,,
null,,confidence_buffer,620069,confidence_buffer,,null,,,,,,,,,,,,,,,,,,,
1282.3000000715256,,pt2_unique_rating,621353,Frankfort,,51,,3,,,,,,,,,,,,,,,,,
null,,confidence_buffer,621456,confidence_buffer,,null,,,,,,,,,,,,,,,,,,,
158.19999992847443,,pt2_memorable_rating,621616,Frankfort,,51,,3,,,,,,,,,,,,,,,,,
null,,confidence_buffer,621724,confidence_buffer,,null,,,,,,,,,,,,,,,,,,,
5906.699999928474,,recognition_phase,627632,Frankfort,,50,,,,,old,1,0.6,,,,,,,,,,,,
null,,confidence_buffer,627735,confidence_buffer,,null,,,,,,,,,,,,,,,,,,,
null,,thebreak,628236,break,,null,,,,,,,,,,,,,,,,,,,
3182,,realistic_rating,631420,Dothan,,50,Dothan,2,,,,,,,,,,,,,,,,,
null,,confidence_buffer,631523,confidence_buffer,,null,,,,,,,,,,,,,,,,,,,
1150.1000000238419,,pt2_unique_rating,632675,Dothan,,50,,2,,,,,,,,,,,,,,,,,
null,,confidence_buffer,632778,confidence_buffer,,null,,,,,,,,,,,,,,,,,,,
1424.2000000476837,,pt2_memorable_rating,634204,Dothan,,50,,2,,,,,,,,,,,,,,,,,
null,,confidence_buffer,634307,confidence_buffer,,null,,,,,,,,,,,,,,,,,,,
3207.600000023842,,recognition_phase,637516,Dothan,,51,,,,,new,1,0.6129032258064516,,,,,,,,,,,,
null,,confidence_buffer,637619,confidence_buffer,,null,,,,,,,,,,,,,,,,,,,
null,,thebreak,638122,break,,null,,,,,,,,,,,,,,,,,,,
2978.2999999523163,,realistic_rating,641102,Dubuque,,51,Dubuque,3,,,,,,,,,,,,,,,,,
null,,confidence_buffer,641205,confidence_buffer,,null,,,,,,,,,,,,,,,,,,,
1403.6000000238419,,pt2_unique_rating,642610,Dubuque,,51,,3,,,,,,,,,,,,,,,,,
null,,confidence_buffer,642713,confidence_buffer,,null,,,,,,,,,,,,,,,,,,,
1009.3999999761581,,pt2_memorable_rating,643724,Dubuque,,51,,3,,,,,,,,,,,,,,,,,
null,,confidence_buffer,643828,confidence_buffer,,null,,,,,,,,,,,,,,,,,,,
2184.8000000715256,,recognition_phase,646015,Dubuque,,51,,,,,new,0,0.59375,,,,,,,,,,,,
null,,confidence_buffer,646119,confidence_buffer,,null,,,,,,,,,,,,,,,,,,,
null,,thebreak,646622,break,,null,,,,,,,,,,,,,,,,,,,
4607.200000047684,,realistic_rating,651230,Terre Haute,,52,Terre Haute,4,,,,,,,,,,,,,,,,,
null,,confidence_buffer,651333,confidence_buffer,,null,,,,,,,,,,,,,,,,,,,
1901,,pt2_unique_rating,653236,Terre Haute,,52,,4,,,,,,,,,,,,,,,,,
null,,confidence_buffer,653339,confidence_buffer,,null,,,,,,,,,,,,,,,,,,,
2305.899999976158,,pt2_memorable_rating,655647,Terre Haute,,52,,4,,,,,,,,,,,,,,,,,
null,,confidence_buffer,655750,confidence_buffer,,null,,,,,,,,,,,,,,,,,,,
6366.5,,recognition_phase,662117,Terre Haute,,50,,,,,old,1,0.6060606060606061,,,,,,,,,,,,
null,,confidence_buffer,662220,confidence_buffer,,null,,,,,,,,,,,,,,,,,,,
null,,thebreak,662722,break,,null,,,,,,,,,,,,,,,,,,,
4303.600000023842,,realistic_rating,667028,Bozeman,,52,Bozeman,4,,,,,,,,,,,,,,,,,
null,,confidence_buffer,667130,confidence_buffer,,null,,,,,,,,,,,,,,,,,,,
1984.7999999523163,,pt2_unique_rating,669117,Bozeman,,51,,3,,,,,,,,,,,,,,,,,
null,,confidence_buffer,669219,confidence_buffer,,null,,,,,,,,,,,,,,,,,,,
704.7999999523163,,pt2_memorable_rating,669926,Bozeman,,51,,3,,,,,,,,,,,,,,,,,
null,,confidence_buffer,670029,confidence_buffer,,null,,,,,,,,,,,,,,,,,,,
9011.799999952316,,recognition_phase,679043,Bozeman,,52,,,,,new,0,0.5882352941176471,,,,,,,,,,,,
null,,confidence_buffer,679145,confidence_buffer,,null,,,,,,,,,,,,,,,,,,,
null,,thebreak,679648,break,,null,,,,,,,,,,,,,,,,,,,
3729.5,,realistic_rating,683379,Athens,,51,Athens,3,,,,,,,,,,,,,,,,,
null,,confidence_buffer,683482,confidence_buffer,,null,,,,,,,,,,,,,,,,,,,
673.7000000476837,,pt2_unique_rating,684158,Athens,,51,,3,,,,,,,,,,,,,,,,,
null,,confidence_buffer,684260,confidence_buffer,,null,,,,,,,,,,,,,,,,,,,
1264.1999999284744,,pt2_memorable_rating,685526,Athens,,51,,3,,,,,,,,,,,,,,,,,
null,,confidence_buffer,685629,confidence_buffer,,null,,,,,,,,,,,,,,,,,,,
1808.7999999523163,,recognition_phase,687440,Athens,,50,,,,,old,1,0.6,,,,,,,,,,,,
null,,confidence_buffer,687558,confidence_buffer,,null,,,,,,,,,,,,,,,,,,,
null,,thebreak,688060,break,,null,,,,,,,,,,,,,,,,,,,
3795.5,,realistic_rating,691857,Scottsdale,,52,Scottsdale,4,,,,,,,,,,,,,,,,,
null,,confidence_buffer,691960,confidence_buffer,,null,,,,,,,,,,,,,,,,,,,
1179.8999999761581,,pt2_unique_rating,693142,Scottsdale,,52,,4,,,,,,,,,,,,,,,,,
null,,confidence_buffer,693245,confidence_buffer,,null,,,,,,,,,,,,,,,,,,,
1089.3999999761581,,pt2_memorable_rating,694336,Scottsdale,,51,,3,,,,,,,,,,,,,,,,,
null,,confidence_buffer,694439,confidence_buffer,,null,,,,,,,,,,,,,,,,,,,
1547.6999999284744,,recognition_phase,695989,Scottsdale,,52,,,,,new,0,0.5833333333333334,,,,,,,,,,,,
null,,confidence_buffer,696093,confidence_buffer,,null,,,,,,,,,,,,,,,,,,,
null,,thebreak,696595,break,,null,,,,,,,,,,,,,,,,,,,
4182.899999976158,,realistic_rating,700780,Cheyenne,,50,Cheyenne,2,,,,,,,,,,,,,,,,,
null,,confidence_buffer,700898,confidence_buffer,,null,,,,,,,,,,,,,,,,,,,
1096.3000000715256,,pt2_unique_rating,701996,Cheyenne,,50,,2,,,,,,,,,,,,,,,,,
null,,confidence_buffer,702099,confidence_buffer,,null,,,,,,,,,,,,,,,,,,,
1878.8999999761581,,pt2_memorable_rating,703979,Cheyenne,,50,,2,,,,,,,,,,,,,,,,,
null,,confidence_buffer,704085,confidence_buffer,,null,,,,,,,,,,,,,,,,,,,
2526.3000000715256,,recognition_phase,706613,Cheyenne,,51,,,,,new,0,0.5675675675675675,,,,,,,,,,,,
null,,confidence_buffer,706717,confidence_buffer,,null,,,,,,,,,,,,,,,,,,,
null,,thebreak,707219,break,,null,,,,,,,,,,,,,,,,,,,
2226,,realistic_rating,709447,Abilene,,51,Abilene,3,,,,,,,,,,,,,,,,,
null,,confidence_buffer,709549,confidence_buffer,,null,,,,,,,,,,,,,,,,,,,
767.3999999761581,,pt2_unique_rating,710318,Abilene,,51,,3,,,,,,,,,,,,,,,,,
null,,confidence_buffer,710421,confidence_buffer,,null,,,,,,,,,,,,,,,,,,,
2509.3000000715256,,pt2_memorable_rating,712932,Abilene,,52,,4,,,,,,,,,,,,,,,,,
null,,confidence_buffer,713035,confidence_buffer,,null,,,,,,,,,,,,,,,,,,,
2303.5999999046326,,recognition_phase,715341,Abilene,,50,,,,,old,0,0.5526315789473685,,,,,,,,,,,,
null,,confidence_buffer,715443,confidence_buffer,,null,,,,,,,,,,,,,,,,,,,
null,,thebreak,715946,break,,null,,,,,,,,,,,,,,,,,,,
2472.2999999523163,,realistic_rating,718420,Burlington,,52,Burlington,4,,,,,,,,,,,,,,,,,
null,,confidence_buffer,718523,confidence_buffer,,null,,,,,,,,,,,,,,,,,,,
2144.100000023842,,pt2_unique_rating,720669,Burlington,,51,,3,,,,,,,,,,,,,,,,,
null,,confidence_buffer,720772,confidence_buffer,,null,,,,,,,,,,,,,,,,,,,
1596.3999999761581,,pt2_memorable_rating,722371,Burlington,,51,,3,,,,,,,,,,,,,,,,,
null,,confidence_buffer,722482,confidence_buffer,,null,,,,,,,,,,,,,,,,,,,
3553.399999976158,,recognition_phase,726038,Burlington,,50,,,,,old,0,0.5384615384615384,,,,,,,,,,,,
null,,confidence_buffer,726140,confidence_buffer,,null,,,,,,,,,,,,,,,,,,,
null,,thebreak,726643,break,,null,,,,,,,,,,,,,,,,,,,
3616.5999999046326,,realistic_rating,730261,Concord,,50,Concord,2,,,,,,,,,,,,,,,,,
null,,confidence_buffer,730364,confidence_buffer,,null,,,,,,,,,,,,,,,,,,,
887.6000000238419,,pt2_unique_rating,731253,Concord,,50,,2,,,,,,,,,,,,,,,,,
null,,confidence_buffer,731364,confidence_buffer,,null,,,,,,,,,,,,,,,,,,,
2915.899999976158,,pt2_memorable_rating,734281,Concord,,50,,2,,,,,,,,,,,,,,,,,
null,,confidence_buffer,734385,confidence_buffer,,null,,,,,,,,,,,,,,,,,,,
3611.2999999523163,,recognition_phase,737998,Concord,,52,,,,,new,1,0.55,,,,,,,,,,,,
null,,confidence_buffer,738101,confidence_buffer,,null,,,,,,,,,,,,,,,,,,,
null,,thebreak,738604,break,,null,,,,,,,,,,,,,,,,,,,
10025.899999976158,,realistic_rating,748631,Pueblo,,52,Pueblo,4,,,,,,,,,,,,,,,,,
null,,confidence_buffer,748735,confidence_buffer,,null,,,,,,,,,,,,,,,,,,,
1262,,pt2_unique_rating,749998,Pueblo,,51,,3,,,,,,,,,,,,,,,,,
null,,confidence_buffer,750102,confidence_buffer,,null,,,,,,,,,,,,,,,,,,,
886.3999999761581,,pt2_memorable_rating,750990,Pueblo,,51,,3,,,,,,,,,,,,,,,,,
null,,confidence_buffer,751094,confidence_buffer,,null,,,,,,,,,,,,,,,,,,,
2315,,probe_rating,753412,probe_rating,,52,,,4,1,,,,,,,,,,,,,,,
null,,confidence_buffer,753515,confidence_buffer,,null,,,,,,,,,,,,,,,,,,,
3742.3000000715256,,recognition_phase,757260,Pueblo,,52,,,,,new,0,0.5365853658536586,,,,,,,,,,,,
null,,confidence_buffer,757362,confidence_buffer,,null,,,,,,,,,,,,,,,,,,,
null,,thebreak,757864,break,,null,,,,,,,,,,,,,,,,,,,
6575.200000047684,,realistic_rating,764441,Santa Monica,,53,Santa Monica,5,,,,,,,,,,,,,,,,,
null,,confidence_buffer,764544,confidence_buffer,,null,,,,,,,,,,,,,,,,,,,
1363.3999999761581,,pt2_unique_rating,765909,Santa Monica,,53,,5,,,,,,,,,,,,,,,,,
null,,confidence_buffer,766011,confidence_buffer,,null,,,,,,,,,,,,,,,,,,,
1163.2000000476837,,pt2_memorable_rating,767176,Santa Monica,,52,,4,,,,,,,,,,,,,,,,,
null,,confidence_buffer,767279,confidence_buffer,,null,,,,,,,,,,,,,,,,,,,
2476.399999976158,,recognition_phase,769758,Santa Monica,,52,,,,,new,1,0.5476190476190477,,,,,,,,,,,,
null,,confidence_buffer,769860,confidence_buffer,,null,,,,,,,,,,,,,,,,,,,
null,,thebreak,770362,break,,null,,,,,,,,,,,,,,,,,,,
2949,,realistic_rating,773312,Pasadena,,50,Pasadena,2,,,,,,,,,,,,,,,,,
null,,confidence_buffer,773415,confidence_buffer,,null,,,,,,,,,,,,,,,,,,,
746.2999999523163,,pt2_unique_rating,774163,Pasadena,,50,,2,,,,,,,,,,,,,,,,,
null,,confidence_buffer,774267,confidence_buffer,,null,,,,,,,,,,,,,,,,,,,
522,,pt2_memorable_rating,774791,Pasadena,,50,,2,,,,,,,,,,,,,,,,,
null,,confidence_buffer,774894,confidence_buffer,,null,,,,,,,,,,,,,,,,,,,
1919.5,,recognition_phase,776816,Pasadena,,51,,,,,new,1,0.5581395348837209,,,,,,,,,,,,
null,,confidence_buffer,776919,confidence_buffer,,null,,,,,,,,,,,,,,,,,,,
null,,thebreak,777421,break,,null,,,,,,,,,,,,,,,,,,,
2866.7000000476837,,realistic_rating,780290,Boise,,49,Boise,1,,,,,,,,,,,,,,,,,
null,,confidence_buffer,780393,confidence_buffer,,null,,,,,,,,,,,,,,,,,,,
1353.2999999523163,,pt2_unique_rating,781748,Boise,,49,,1,,,,,,,,,,,,,,,,,
null,,confidence_buffer,781851,confidence_buffer,,null,,,,,,,,,,,,,,,,,,,
3055.1999999284744,,pt2_memorable_rating,784908,Boise,,50,,2,,,,,,,,,,,,,,,,,
null,,confidence_buffer,785010,confidence_buffer,,null,,,,,,,,,,,,,,,,,,,
3492.399999976158,,recognition_phase,788504,Boise,,52,,,,,new,1,0.5681818181818182,,,,,,,,,,,,
null,,confidence_buffer,788608,confidence_buffer,,null,,,,,,,,,,,,,,,,,,,
null,,thebreak,789110,break,,null,,,,,,,,,,,,,,,,,,,
9560.100000023842,,realistic_rating,798672,Las Cruces,,50,Las Cruces,2,,,,,,,,,,,,,,,,,
null,,confidence_buffer,798775,confidence_buffer,,null,,,,,,,,,,,,,,,,,,,
1007.3000000715256,,pt2_unique_rating,799784,Las Cruces,,50,,2,,,,,,,,,,,,,,,,,
null,,confidence_buffer,799888,confidence_buffer,,null,,,,,,,,,,,,,,,,,,,
2001.5,,pt2_memorable_rating,801891,Las Cruces,,50,,2,,,,,,,,,,,,,,,,,
null,,confidence_buffer,801994,confidence_buffer,,null,,,,,,,,,,,,,,,,,,,
1839.5,,recognition_phase,803836,Las Cruces,,52,,,,,new,0,0.5555555555555556,,,,,,,,,,,,
null,,confidence_buffer,803938,confidence_buffer,,null,,,,,,,,,,,,,,,,,,,
null,,thebreak,804440,break,,null,,,,,,,,,,,,,,,,,,,
2663.5,,realistic_rating,807105,Yakima,,50,Yakima,2,,,,,,,,,,,,,,,,,
null,,confidence_buffer,807208,confidence_buffer,,null,,,,,,,,,,,,,,,,,,,
787.7000000476837,,pt2_unique_rating,807997,Yakima,,50,,2,,,,,,,,,,,,,,,,,
null,,confidence_buffer,808100,confidence_buffer,,null,,,,,,,,,,,,,,,,,,,
2030.5,,probe_rating,810133,probe_rating,,53,,,5,1,,,,,,,,,,,,,,,
null,,confidence_buffer,810236,confidence_buffer,,null,,,,,,,,,,,,,,,,,,,
2730.899999976158,,pt2_memorable_rating,812970,Yakima,,52,,4,,,,,,,,,,,,,,,,,
null,,confidence_buffer,813073,confidence_buffer,,null,,,,,,,,,,,,,,,,,,,
2787.9000000953674,,recognition_phase,815862,Yakima,,52,,,,,new,0,0.5434782608695652,,,,,,,,,,,,
null,,confidence_buffer,815964,confidence_buffer,,null,,,,,,,,,,,,,,,,,,,
null,,thebreak,816468,break,,null,,,,,,,,,,,,,,,,,,,
3142.5,,realistic_rating,819612,Fargo,,51,Fargo,3,,,,,,,,,,,,,,,,,
null,,confidence_buffer,819715,confidence_buffer,,null,,,,,,,,,,,,,,,,,,,
4096.5,,probe_rating,823814,probe_rating,,53,,,5,1,,,,,,,,,,,,,,,
null,,confidence_buffer,823917,confidence_buffer,,null,,,,,,,,,,,,,,,,,,,
2567.100000023842,,pt2_unique_rating,826486,Fargo,,51,,3,,,,,,,,,,,,,,,,,
null,,confidence_buffer,826589,confidence_buffer,,null,,,,,,,,,,,,,,,,,,,
1151.3999999761581,,pt2_memorable_rating,827743,Fargo,,51,,3,,,,,,,,,,,,,,,,,
null,,confidence_buffer,827846,confidence_buffer,,null,,,,,,,,,,,,,,,,,,,
1767.3999999761581,,recognition_phase,829616,Fargo,,52,,,,,new,1,0.5531914893617021,,,,,,,,,,,,
null,,confidence_buffer,829719,confidence_buffer,,null,,,,,,,,,,,,,,,,,,,
null,,thebreak,830220,break,,null,,,,,,,,,,,,,,,,,,,
7768.699999928474,,realistic_rating,837991,Newport News,,51,Newport News,3,,,,,,,,,,,,,,,,,
null,,confidence_buffer,838094,confidence_buffer,,null,,,,,,,,,,,,,,,,,,,
1119.3000000715256,,pt2_unique_rating,839215,Newport News,,51,,3,,,,,,,,,,,,,,,,,
null,,confidence_buffer,839319,confidence_buffer,,null,,,,,,,,,,,,,,,,,,,
1049.5,,pt2_memorable_rating,840370,Newport News,,51,,3,,,,,,,,,,,,,,,,,
null,,confidence_buffer,840473,confidence_buffer,,null,,,,,,,,,,,,,,,,,,,
1533.6999999284744,,recognition_phase,842009,Newport News,,50,,,,,old,0,0.5416666666666666,,,,,,,,,,,,
null,,confidence_buffer,842112,confidence_buffer,,null,,,,,,,,,,,,,,,,,,,
null,,thebreak,842624,break,,null,,,,,,,,,,,,,,,,,,,
2846.5999999046326,,realistic_rating,845472,Berkeley,,53,Berkeley,5,,,,,,,,,,,,,,,,,
null,,confidence_buffer,845581,confidence_buffer,,null,,,,,,,,,,,,,,,,,,,
841.2999999523163,,pt2_unique_rating,846424,Berkeley,,52,,4,,,,,,,,,,,,,,,,,
null,,confidence_buffer,846527,confidence_buffer,,null,,,,,,,,,,,,,,,,,,,
3258.100000023842,,probe_rating,849787,probe_rating,,53,,,5,1,,,,,,,,,,,,,,,
null,,confidence_buffer,849890,confidence_buffer,,null,,,,,,,,,,,,,,,,,,,
1352.7000000476837,,pt2_memorable_rating,851245,Berkeley,,52,,4,,,,,,,,,,,,,,,,,
null,,confidence_buffer,851347,confidence_buffer,,null,,,,,,,,,,,,,,,,,,,
1941.1999999284744,,recognition_phase,853291,Berkeley,,49,,,,,old,0,0.5306122448979592,,,,,,,,,,,,
null,,confidence_buffer,853393,confidence_buffer,,null,,,,,,,,,,,,,,,,,,,
null,,thebreak,853894,break,,null,,,,,,,,,,,,,,,,,,,
1976,,realistic_rating,855872,Marquette,,53,Marquette,5,,,,,,,,,,,,,,,,,
null,,confidence_buffer,855975,confidence_buffer,,null,,,,,,,,,,,,,,,,,,,
856.8999999761581,,pt2_unique_rating,856834,Marquette,,52,,4,,,,,,,,,,,,,,,,,
null,,confidence_buffer,856938,confidence_buffer,,null,,,,,,,,,,,,,,,,,,,
338.10000002384186,,pt2_memorable_rating,857278,Marquette,,52,,4,,,,,,,,,,,,,,,,,
null,,confidence_buffer,857380,confidence_buffer,,null,,,,,,,,,,,,,,,,,,,
1942.9000000953674,,recognition_phase,859326,Marquette,,49,,,,,old,1,0.54,,,,,,,,,,,,
null,,confidence_buffer,859428,confidence_buffer,,null,,,,,,,,,,,,,,,,,,,
null,,thebreak,859930,break,,null,,,,,,,,,,,,,,,,,,,
,,survey,1370453,survey-questions,,,,,,,,,,none,high,no,i focused on familiar name to help me remember and also commonality,i rated by how often have seen the images,i rated based on attention and standout,i rated based on the subject matter,the accuracy of the image ,none,no comment,,
13544.700000047684,,thank_you,1384051,all_done,,32,,,,,,,,,,,,,,,,,,4,0
