rt,responses,trial_type,time_elapsed,stimulus,button_pressed,key_press,name_trial,rating,probe,probe_accuracy,response,correct,accuracy,problems,smooth,distraction,strategies,familiar,memorable,unique,realistic,similar,comments,detectfocus,warning
2362.6000003814697,{worker_id:6627e1b9434a2e718ed099c2},id_enter,2365,,,,,,,,,,,,,,,,,,,,,,
8431.900000572205,,fullscreen,10801,fullscreen,0,,,,,,,,,,,,,,,,,,,,
2878.3999996185303,,intro_0,13681,instruct,,32,,,,,,,,,,,,,,,,,,,
2694,,intro_1,16377,instruct,,32,,,,,,,,,,,,,,,,,,,
3119.0999994277954,,intro_2,19497,instruct,,32,,,,,,,,,,,,,,,,,,,
null,,instruct_dir_4,21018,instruct,,null,,,,,,,,,,,,,,,,,,,
null,,thebreak,21546,break,,null,,,,,,,,,,,,,,,,,,,
3069.1000003814697,,familiar_rating,24617,Montpelier,,49,Montpelier,1,,,,,,,,,,,,,,,,,
null,,confidence_buffer,24731,confidence_buffer,,null,,,,,,,,,,,,,,,,,,,
3292.5,,unique_rating,28025,Montpelier,,53,,5,,,,,,,,,,,,,,,,,
null,,confidence_buffer,28128,confidence_buffer,,null,,,,,,,,,,,,,,,,,,,
2679.5999994277954,,memorable_rating,30809,Montpelier,,50,,2,,,,,,,,,,,,,,,,,
null,,confidence_buffer,30912,confidence_buffer,,null,,,,,,,,,,,,,,,,,,,
null,,thebreak,31413,break,,null,,,,,,,,,,,,,,,,,,,
3114.6000003814697,,familiar_rating,34529,Decatur,,51,Decatur,3,,,,,,,,,,,,,,,,,
null,,confidence_buffer,34631,confidence_buffer,,null,,,,,,,,,,,,,,,,,,,
3441,,unique_rating,38073,Decatur,,50,,2,,,,,,,,,,,,,,,,,
null,,confidence_buffer,38180,confidence_buffer,,null,,,,,,,,,,,,,,,,,,,
2323.5,,memorable_rating,40505,Decatur,,50,,2,,,,,,,,,,,,,,,,,
null,,confidence_buffer,40607,confidence_buffer,,null,,,,,,,,,,,,,,,,,,,
null,,thebreak,41109,break,,null,,,,,,,,,,,,,,,,,,,
3714.5,,familiar_rating,44825,Boulder,,51,Boulder,3,,,,,,,,,,,,,,,,,
null,,confidence_buffer,44927,confidence_buffer,,null,,,,,,,,,,,,,,,,,,,
3320.5,,unique_rating,48249,Boulder,,49,,1,,,,,,,,,,,,,,,,,
null,,confidence_buffer,48350,confidence_buffer,,null,,,,,,,,,,,,,,,,,,,
1617.3000001907349,,memorable_rating,49969,Boulder,,51,,3,,,,,,,,,,,,,,,,,
null,,confidence_buffer,50071,confidence_buffer,,null,,,,,,,,,,,,,,,,,,,
null,,thebreak,50572,break,,null,,,,,,,,,,,,,,,,,,,
2667.699999809265,,familiar_rating,53241,Hagerstown,,49,Hagerstown,1,,,,,,,,,,,,,,,,,
null,,confidence_buffer,53342,confidence_buffer,,null,,,,,,,,,,,,,,,,,,,
2553.5999994277954,,unique_rating,55897,Hagerstown,,52,,4,,,,,,,,,,,,,,,,,
null,,confidence_buffer,55998,confidence_buffer,,null,,,,,,,,,,,,,,,,,,,
2777,,memorable_rating,58777,Hagerstown,,51,,3,,,,,,,,,,,,,,,,,
null,,confidence_buffer,58879,confidence_buffer,,null,,,,,,,,,,,,,,,,,,,
2328.699999809265,,probe_rating,61209,probe_rating,,51,,,3,1,,,,,,,,,,,,,,,
null,,confidence_buffer,61311,confidence_buffer,,null,,,,,,,,,,,,,,,,,,,
null,,thebreak,61813,break,,null,,,,,,,,,,,,,,,,,,,
4090.5999994277954,,familiar_rating,65905,Olympia,,51,Olympia,3,,,,,,,,,,,,,,,,,
null,,confidence_buffer,66007,confidence_buffer,,null,,,,,,,,,,,,,,,,,,,
2888.8999996185303,,unique_rating,68897,Olympia,,51,,3,,,,,,,,,,,,,,,,,
null,,confidence_buffer,68998,confidence_buffer,,null,,,,,,,,,,,,,,,,,,,
1897.7999992370605,,memorable_rating,70897,Olympia,,51,,3,,,,,,,,,,,,,,,,,
null,,confidence_buffer,71005,confidence_buffer,,null,,,,,,,,,,,,,,,,,,,
null,,thebreak,71507,break,,null,,,,,,,,,,,,,,,,,,,
2516.8999996185303,,familiar_rating,74025,Santa Monica,,53,Santa Monica,5,,,,,,,,,,,,,,,,,
null,,confidence_buffer,74127,confidence_buffer,,null,,,,,,,,,,,,,,,,,,,
3273,,unique_rating,77401,Santa Monica,,49,,1,,,,,,,,,,,,,,,,,
null,,confidence_buffer,77503,confidence_buffer,,null,,,,,,,,,,,,,,,,,,,
2456.5,,memorable_rating,79961,Santa Monica,,53,,5,,,,,,,,,,,,,,,,,
null,,confidence_buffer,80062,confidence_buffer,,null,,,,,,,,,,,,,,,,,,,
null,,thebreak,80564,break,,null,,,,,,,,,,,,,,,,,,,
2347.5,,familiar_rating,82913,Athens,,53,Athens,5,,,,,,,,,,,,,,,,,
null,,confidence_buffer,83015,confidence_buffer,,null,,,,,,,,,,,,,,,,,,,
3209,,unique_rating,86225,Athens,,49,,1,,,,,,,,,,,,,,,,,
null,,confidence_buffer,86330,confidence_buffer,,null,,,,,,,,,,,,,,,,,,,
2926.1000003814697,,memorable_rating,89257,Athens,,53,,5,,,,,,,,,,,,,,,,,
null,,confidence_buffer,89359,confidence_buffer,,null,,,,,,,,,,,,,,,,,,,
null,,thebreak,89860,break,,null,,,,,,,,,,,,,,,,,,,
1996.2999992370605,,familiar_rating,91857,McKinney,,51,McKinney,3,,,,,,,,,,,,,,,,,
null,,confidence_buffer,91959,confidence_buffer,,null,,,,,,,,,,,,,,,,,,,
2424.3999996185303,,unique_rating,94385,McKinney,,49,,1,,,,,,,,,,,,,,,,,
null,,confidence_buffer,94487,confidence_buffer,,null,,,,,,,,,,,,,,,,,,,
2609.199999809265,,memorable_rating,97097,McKinney,,50,,2,,,,,,,,,,,,,,,,,
null,,confidence_buffer,97199,confidence_buffer,,null,,,,,,,,,,,,,,,,,,,
null,,thebreak,97701,break,,null,,,,,,,,,,,,,,,,,,,
1539.1000003814697,,familiar_rating,99241,Ithaca,,49,Ithaca,1,,,,,,,,,,,,,,,,,
null,,confidence_buffer,99343,confidence_buffer,,null,,,,,,,,,,,,,,,,,,,
1465,,unique_rating,100809,Ithaca,,53,,5,,,,,,,,,,,,,,,,,
null,,confidence_buffer,100911,confidence_buffer,,null,,,,,,,,,,,,,,,,,,,
1768.9000005722046,,memorable_rating,102681,Ithaca,,49,,1,,,,,,,,,,,,,,,,,
null,,confidence_buffer,102782,confidence_buffer,,null,,,,,,,,,,,,,,,,,,,
null,,thebreak,103284,break,,null,,,,,,,,,,,,,,,,,,,
1843.1999998092651,,familiar_rating,105128,Fargo,,51,Fargo,3,,,,,,,,,,,,,,,,,
null,,confidence_buffer,105231,confidence_buffer,,null,,,,,,,,,,,,,,,,,,,
2000.6999998092651,,unique_rating,107233,Fargo,,50,,2,,,,,,,,,,,,,,,,,
null,,confidence_buffer,107334,confidence_buffer,,null,,,,,,,,,,,,,,,,,,,
1553.6999998092651,,memorable_rating,108889,Fargo,,50,,2,,,,,,,,,,,,,,,,,
null,,confidence_buffer,108990,confidence_buffer,,null,,,,,,,,,,,,,,,,,,,
null,,thebreak,109492,break,,null,,,,,,,,,,,,,,,,,,,
2275.800000190735,,familiar_rating,111769,Bellingham,,49,Bellingham,1,,,,,,,,,,,,,,,,,
null,,confidence_buffer,111870,confidence_buffer,,null,,,,,,,,,,,,,,,,,,,
953.5,,unique_rating,112825,Bellingham,,50,,2,,,,,,,,,,,,,,,,,
null,,confidence_buffer,112928,confidence_buffer,,null,,,,,,,,,,,,,,,,,,,
1040,,memorable_rating,113969,Bellingham,,50,,2,,,,,,,,,,,,,,,,,
null,,confidence_buffer,114071,confidence_buffer,,null,,,,,,,,,,,,,,,,,,,
null,,thebreak,114573,break,,null,,,,,,,,,,,,,,,,,,,
1675.1999998092651,,familiar_rating,116249,Topeka,,49,Topeka,1,,,,,,,,,,,,,,,,,
null,,confidence_buffer,116352,confidence_buffer,,null,,,,,,,,,,,,,,,,,,,
1656.8999996185303,,unique_rating,118009,Topeka,,51,,3,,,,,,,,,,,,,,,,,
null,,confidence_buffer,118112,confidence_buffer,,null,,,,,,,,,,,,,,,,,,,
2432.199999809265,,probe_rating,120545,probe_rating,,49,,,1,1,,,,,,,,,,,,,,,
null,,confidence_buffer,120647,confidence_buffer,,null,,,,,,,,,,,,,,,,,,,
3089.1000003814697,,memorable_rating,123737,Topeka,,49,,1,,,,,,,,,,,,,,,,,
null,,confidence_buffer,123839,confidence_buffer,,null,,,,,,,,,,,,,,,,,,,
null,,thebreak,124340,break,,null,,,,,,,,,,,,,,,,,,,
2563.9000005722046,,familiar_rating,126905,Rock Springs,,50,Rock Springs,2,,,,,,,,,,,,,,,,,
null,,confidence_buffer,127007,confidence_buffer,,null,,,,,,,,,,,,,,,,,,,
1368.2999992370605,,unique_rating,128377,Rock Springs,,51,,3,,,,,,,,,,,,,,,,,
null,,confidence_buffer,128478,confidence_buffer,,null,,,,,,,,,,,,,,,,,,,
1153.6999998092651,,memorable_rating,129633,Rock Springs,,51,,3,,,,,,,,,,,,,,,,,
null,,confidence_buffer,129736,confidence_buffer,,null,,,,,,,,,,,,,,,,,,,
null,,thebreak,130237,break,,null,,,,,,,,,,,,,,,,,,,
1434.1999998092651,,familiar_rating,131673,Dubuque,,52,Dubuque,4,,,,,,,,,,,,,,,,,
null,,confidence_buffer,131774,confidence_buffer,,null,,,,,,,,,,,,,,,,,,,
1681.3000001907349,,unique_rating,133457,Dubuque,,49,,1,,,,,,,,,,,,,,,,,
null,,confidence_buffer,133558,confidence_buffer,,null,,,,,,,,,,,,,,,,,,,
1193.1999998092651,,memorable_rating,134753,Dubuque,,50,,2,,,,,,,,,,,,,,,,,
null,,confidence_buffer,134854,confidence_buffer,,null,,,,,,,,,,,,,,,,,,,
null,,thebreak,135356,break,,null,,,,,,,,,,,,,,,,,,,
2059.800000190735,,familiar_rating,137417,Tallahassee,,53,Tallahassee,5,,,,,,,,,,,,,,,,,
null,,confidence_buffer,137519,confidence_buffer,,null,,,,,,,,,,,,,,,,,,,
1577.3000001907349,,unique_rating,139097,Tallahassee,,49,,1,,,,,,,,,,,,,,,,,
null,,confidence_buffer,139199,confidence_buffer,,null,,,,,,,,,,,,,,,,,,,
1496.8000001907349,,memorable_rating,140697,Tallahassee,,53,,5,,,,,,,,,,,,,,,,,
null,,confidence_buffer,140799,confidence_buffer,,null,,,,,,,,,,,,,,,,,,,
null,,thebreak,141300,break,,null,,,,,,,,,,,,,,,,,,,
2651.3999996185303,,familiar_rating,143953,Scottsdale,,51,Scottsdale,3,,,,,,,,,,,,,,,,,
null,,confidence_buffer,144055,confidence_buffer,,null,,,,,,,,,,,,,,,,,,,
1729.3000001907349,,unique_rating,145785,Scottsdale,,50,,2,,,,,,,,,,,,,,,,,
null,,confidence_buffer,145887,confidence_buffer,,null,,,,,,,,,,,,,,,,,,,
904.9000005722046,,memorable_rating,146792,Scottsdale,,53,,5,,,,,,,,,,,,,,,,,
null,,confidence_buffer,146894,confidence_buffer,,null,,,,,,,,,,,,,,,,,,,
null,,thebreak,147396,break,,null,,,,,,,,,,,,,,,,,,,
1819.3999996185303,,familiar_rating,149217,Frankfort,,50,Frankfort,2,,,,,,,,,,,,,,,,,
null,,confidence_buffer,149318,confidence_buffer,,null,,,,,,,,,,,,,,,,,,,
1681.5,,unique_rating,151001,Frankfort,,49,,1,,,,,,,,,,,,,,,,,
null,,confidence_buffer,151103,confidence_buffer,,null,,,,,,,,,,,,,,,,,,,
1416.8999996185303,,memorable_rating,152521,Frankfort,,50,,2,,,,,,,,,,,,,,,,,
null,,confidence_buffer,152623,confidence_buffer,,null,,,,,,,,,,,,,,,,,,,
null,,thebreak,153124,break,,null,,,,,,,,,,,,,,,,,,,
2491.3999996185303,,familiar_rating,155617,Yakima,,49,Yakima,1,,,,,,,,,,,,,,,,,
null,,confidence_buffer,155718,confidence_buffer,,null,,,,,,,,,,,,,,,,,,,
1153.6999998092651,,unique_rating,156873,Yakima,,53,,5,,,,,,,,,,,,,,,,,
null,,confidence_buffer,156975,confidence_buffer,,null,,,,,,,,,,,,,,,,,,,
3209.4000005722046,,memorable_rating,160185,Yakima,,51,,3,,,,,,,,,,,,,,,,,
null,,confidence_buffer,160289,confidence_buffer,,null,,,,,,,,,,,,,,,,,,,
null,,thebreak,160790,break,,null,,,,,,,,,,,,,,,,,,,
2633.3999996185303,,familiar_rating,163425,Boise,,49,Boise,1,,,,,,,,,,,,,,,,,
null,,confidence_buffer,163527,confidence_buffer,,null,,,,,,,,,,,,,,,,,,,
2049,,unique_rating,165577,Boise,,50,,2,,,,,,,,,,,,,,,,,
null,,confidence_buffer,165690,confidence_buffer,,null,,,,,,,,,,,,,,,,,,,
1261.3999996185303,,memorable_rating,166953,Boise,,49,,1,,,,,,,,,,,,,,,,,
null,,confidence_buffer,167055,confidence_buffer,,null,,,,,,,,,,,,,,,,,,,
null,,thebreak,167556,break,,null,,,,,,,,,,,,,,,,,,,
2059.0999994277954,,familiar_rating,169617,Norfolk,,53,Norfolk,5,,,,,,,,,,,,,,,,,
null,,confidence_buffer,169718,confidence_buffer,,null,,,,,,,,,,,,,,,,,,,
3513.3999996185303,,unique_rating,173233,Norfolk,,49,,1,,,,,,,,,,,,,,,,,
null,,confidence_buffer,173335,confidence_buffer,,null,,,,,,,,,,,,,,,,,,,
1672.7000007629395,,memorable_rating,175009,Norfolk,,52,,4,,,,,,,,,,,,,,,,,
null,,confidence_buffer,175111,confidence_buffer,,null,,,,,,,,,,,,,,,,,,,
null,,thebreak,175613,break,,null,,,,,,,,,,,,,,,,,,,
2250.9000005722046,,familiar_rating,177865,Bozeman,,51,Bozeman,3,,,,,,,,,,,,,,,,,
null,,confidence_buffer,177968,confidence_buffer,,null,,,,,,,,,,,,,,,,,,,
1192.3000001907349,,unique_rating,179161,Bozeman,,50,,2,,,,,,,,,,,,,,,,,
null,,confidence_buffer,179263,confidence_buffer,,null,,,,,,,,,,,,,,,,,,,
1104.9000005722046,,memorable_rating,180369,Bozeman,,51,,3,,,,,,,,,,,,,,,,,
null,,confidence_buffer,180471,confidence_buffer,,null,,,,,,,,,,,,,,,,,,,
null,,thebreak,180973,break,,null,,,,,,,,,,,,,,,,,,,
1875.2000007629395,,familiar_rating,182849,Stamford,,49,Stamford,1,,,,,,,,,,,,,,,,,
null,,confidence_buffer,182951,confidence_buffer,,null,,,,,,,,,,,,,,,,,,,
1105,,unique_rating,184057,Stamford,,49,,1,,,,,,,,,,,,,,,,,
null,,confidence_buffer,184165,confidence_buffer,,null,,,,,,,,,,,,,,,,,,,
946.1999998092651,,memorable_rating,185113,Stamford,,49,,1,,,,,,,,,,,,,,,,,
null,,confidence_buffer,185215,confidence_buffer,,null,,,,,,,,,,,,,,,,,,,
null,,thebreak,185716,break,,null,,,,,,,,,,,,,,,,,,,
1476.1999998092651,,familiar_rating,187193,Helena,,50,Helena,2,,,,,,,,,,,,,,,,,
null,,confidence_buffer,187295,confidence_buffer,,null,,,,,,,,,,,,,,,,,,,
889.1000003814697,,unique_rating,188185,Helena,,50,,2,,,,,,,,,,,,,,,,,
null,,confidence_buffer,188286,confidence_buffer,,null,,,,,,,,,,,,,,,,,,,
1545.8999996185303,,memorable_rating,189833,Helena,,50,,2,,,,,,,,,,,,,,,,,
null,,confidence_buffer,189935,confidence_buffer,,null,,,,,,,,,,,,,,,,,,,
null,,thebreak,190437,break,,null,,,,,,,,,,,,,,,,,,,
2106.699999809265,,familiar_rating,192545,Gainesville,,50,Gainesville,2,,,,,,,,,,,,,,,,,
null,,confidence_buffer,192655,confidence_buffer,,null,,,,,,,,,,,,,,,,,,,
1056.6999998092651,,unique_rating,193713,Gainesville,,49,,1,,,,,,,,,,,,,,,,,
null,,confidence_buffer,193815,confidence_buffer,,null,,,,,,,,,,,,,,,,,,,
2544.9000005722046,,memorable_rating,196361,Gainesville,,49,,1,,,,,,,,,,,,,,,,,
null,,confidence_buffer,196463,confidence_buffer,,null,,,,,,,,,,,,,,,,,,,
null,,thebreak,196965,break,,null,,,,,,,,,,,,,,,,,,,
1395.1000003814697,,familiar_rating,198361,Dover,,50,Dover,2,,,,,,,,,,,,,,,,,
null,,confidence_buffer,198462,confidence_buffer,,null,,,,,,,,,,,,,,,,,,,
1297.5,,unique_rating,199761,Dover,,50,,2,,,,,,,,,,,,,,,,,
null,,confidence_buffer,199863,confidence_buffer,,null,,,,,,,,,,,,,,,,,,,
1393.1999998092651,,memorable_rating,201257,Dover,,50,,2,,,,,,,,,,,,,,,,,
null,,confidence_buffer,201359,confidence_buffer,,null,,,,,,,,,,,,,,,,,,,
null,,thebreak,201861,break,,null,,,,,,,,,,,,,,,,,,,
3859.300000190735,,intro_0,205721,instruct,,32,,,,,,,,,,,,,,,,,,,
5079.200000762939,,intro_1,210801,instruct,,32,,,,,,,,,,,,,,,,,,,
12823,,intro_2,223625,instruct,,32,,,,,,,,,,,,,,,,,,,
null,,instruct_dir_4,225126,instruct,,null,,,,,,,,,,,,,,,,,,,
6697.800000190735,,realistic_rating,231825,Palo Alto,,51,Palo Alto,3,,,,,,,,,,,,,,,,,
null,,confidence_buffer,231927,confidence_buffer,,null,,,,,,,,,,,,,,,,,,,
2713,,pt2_unique_rating,234641,Palo Alto,,51,,3,,,,,,,,,,,,,,,,,
null,,confidence_buffer,234743,confidence_buffer,,null,,,,,,,,,,,,,,,,,,,
1240.5,,pt2_memorable_rating,235985,Palo Alto,,51,,3,,,,,,,,,,,,,,,,,
null,,confidence_buffer,236087,confidence_buffer,,null,,,,,,,,,,,,,,,,,,,
2977,,recognition_phase,239065,Palo Alto,,52,,,,,new,1,1,,,,,,,,,,,,
null,,confidence_buffer,239167,confidence_buffer,,null,,,,,,,,,,,,,,,,,,,
null,,thebreak,239670,break,,null,,,,,,,,,,,,,,,,,,,
3674.3999996185303,,realistic_rating,243345,Burlington,,52,Burlington,4,,,,,,,,,,,,,,,,,
null,,confidence_buffer,243448,confidence_buffer,,null,,,,,,,,,,,,,,,,,,,
2304,,pt2_unique_rating,245753,Burlington,,49,,1,,,,,,,,,,,,,,,,,
null,,confidence_buffer,245855,confidence_buffer,,null,,,,,,,,,,,,,,,,,,,
1920.3999996185303,,pt2_memorable_rating,247777,Burlington,,52,,4,,,,,,,,,,,,,,,,,
null,,confidence_buffer,247878,confidence_buffer,,null,,,,,,,,,,,,,,,,,,,
2361.6000003814697,,recognition_phase,250241,Burlington,,52,,,,,new,1,1,,,,,,,,,,,,
null,,confidence_buffer,250343,confidence_buffer,,null,,,,,,,,,,,,,,,,,,,
null,,thebreak,250844,break,,null,,,,,,,,,,,,,,,,,,,
3116,,realistic_rating,253962,Gainesville,,52,Gainesville,4,,,,,,,,,,,,,,,,,
null,,confidence_buffer,254063,confidence_buffer,,null,,,,,,,,,,,,,,,,,,,
2624.7000007629395,,pt2_unique_rating,256689,Gainesville,,49,,1,,,,,,,,,,,,,,,,,
null,,confidence_buffer,256792,confidence_buffer,,null,,,,,,,,,,,,,,,,,,,
1304.2000007629395,,pt2_memorable_rating,258097,Gainesville,,52,,4,,,,,,,,,,,,,,,,,
null,,confidence_buffer,258199,confidence_buffer,,null,,,,,,,,,,,,,,,,,,,
1952.8000001907349,,recognition_phase,260153,Gainesville,,49,,,,,old,1,1,,,,,,,,,,,,
null,,confidence_buffer,260255,confidence_buffer,,null,,,,,,,,,,,,,,,,,,,
null,,thebreak,260757,break,,null,,,,,,,,,,,,,,,,,,,
2514.300000190735,,realistic_rating,263273,Fort Wayne,,53,Fort Wayne,5,,,,,,,,,,,,,,,,,
null,,confidence_buffer,263375,confidence_buffer,,null,,,,,,,,,,,,,,,,,,,
1809.1000003814697,,pt2_unique_rating,265185,Fort Wayne,,49,,1,,,,,,,,,,,,,,,,,
null,,confidence_buffer,265298,confidence_buffer,,null,,,,,,,,,,,,,,,,,,,
1302,,pt2_memorable_rating,266601,Fort Wayne,,53,,5,,,,,,,,,,,,,,,,,
null,,confidence_buffer,266703,confidence_buffer,,null,,,,,,,,,,,,,,,,,,,
2273.699999809265,,recognition_phase,268977,Fort Wayne,,52,,,,,new,1,1,,,,,,,,,,,,
null,,confidence_buffer,269093,confidence_buffer,,null,,,,,,,,,,,,,,,,,,,
null,,thebreak,269598,break,,null,,,,,,,,,,,,,,,,,,,
2633.5999994277954,,realistic_rating,272233,Santa Monica,,53,Santa Monica,5,,,,,,,,,,,,,,,,,
null,,confidence_buffer,272335,confidence_buffer,,null,,,,,,,,,,,,,,,,,,,
1433,,pt2_unique_rating,273769,Santa Monica,,49,,1,,,,,,,,,,,,,,,,,
null,,confidence_buffer,273872,confidence_buffer,,null,,,,,,,,,,,,,,,,,,,
1616.3999996185303,,pt2_memorable_rating,275489,Santa Monica,,53,,5,,,,,,,,,,,,,,,,,
null,,confidence_buffer,275592,confidence_buffer,,null,,,,,,,,,,,,,,,,,,,
1520.6000003814697,,recognition_phase,277113,Santa Monica,,49,,,,,old,1,1,,,,,,,,,,,,
null,,confidence_buffer,277216,confidence_buffer,,null,,,,,,,,,,,,,,,,,,,
null,,thebreak,277716,break,,null,,,,,,,,,,,,,,,,,,,
2291.4000005722046,,realistic_rating,280009,Ithaca,,49,Ithaca,1,,,,,,,,,,,,,,,,,
null,,confidence_buffer,280111,confidence_buffer,,null,,,,,,,,,,,,,,,,,,,
1329.2000007629395,,pt2_unique_rating,281441,Ithaca,,53,,5,,,,,,,,,,,,,,,,,
null,,confidence_buffer,281543,confidence_buffer,,null,,,,,,,,,,,,,,,,,,,
1672.5999994277954,,pt2_memorable_rating,283217,Ithaca,,49,,1,,,,,,,,,,,,,,,,,
null,,confidence_buffer,283319,confidence_buffer,,null,,,,,,,,,,,,,,,,,,,
2017.5,,recognition_phase,285337,Ithaca,,49,,,,,old,1,1,,,,,,,,,,,,
null,,confidence_buffer,285442,confidence_buffer,,null,,,,,,,,,,,,,,,,,,,
null,,thebreak,285945,break,,null,,,,,,,,,,,,,,,,,,,
2047.2000007629395,,realistic_rating,287993,Muncie,,49,Muncie,1,,,,,,,,,,,,,,,,,
null,,confidence_buffer,288094,confidence_buffer,,null,,,,,,,,,,,,,,,,,,,
1873.4000005722046,,probe_rating,289969,probe_rating,,51,,,3,1,,,,,,,,,,,,,,,
null,,confidence_buffer,290070,confidence_buffer,,null,,,,,,,,,,,,,,,,,,,
1713.8000001907349,,pt2_unique_rating,291785,Muncie,,51,,3,,,,,,,,,,,,,,,,,
null,,confidence_buffer,291899,confidence_buffer,,null,,,,,,,,,,,,,,,,,,,
1908.8000001907349,,pt2_memorable_rating,293809,Muncie,,50,,2,,,,,,,,,,,,,,,,,
null,,confidence_buffer,293911,confidence_buffer,,null,,,,,,,,,,,,,,,,,,,
2200.800000190735,,recognition_phase,296113,Muncie,,52,,,,,new,1,1,,,,,,,,,,,,
null,,confidence_buffer,296215,confidence_buffer,,null,,,,,,,,,,,,,,,,,,,
null,,thebreak,296717,break,,null,,,,,,,,,,,,,,,,,,,
3995.3999996185303,,realistic_rating,300713,Pueblo,,50,Pueblo,2,,,,,,,,,,,,,,,,,
null,,confidence_buffer,300815,confidence_buffer,,null,,,,,,,,,,,,,,,,,,,
1696.8000001907349,,pt2_unique_rating,302513,Pueblo,,49,,1,,,,,,,,,,,,,,,,,
null,,confidence_buffer,302615,confidence_buffer,,null,,,,,,,,,,,,,,,,,,,
1593.1999998092651,,pt2_memorable_rating,304209,Pueblo,,50,,2,,,,,,,,,,,,,,,,,
null,,confidence_buffer,304311,confidence_buffer,,null,,,,,,,,,,,,,,,,,,,
1848.6999998092651,,recognition_phase,306161,Pueblo,,52,,,,,new,1,1,,,,,,,,,,,,
null,,confidence_buffer,306262,confidence_buffer,,null,,,,,,,,,,,,,,,,,,,
null,,thebreak,306764,break,,null,,,,,,,,,,,,,,,,,,,
1387.8000001907349,,realistic_rating,308153,Toledo,,50,Toledo,2,,,,,,,,,,,,,,,,,
null,,confidence_buffer,308255,confidence_buffer,,null,,,,,,,,,,,,,,,,,,,
1393.1999998092651,,pt2_unique_rating,309649,Toledo,,51,,3,,,,,,,,,,,,,,,,,
null,,confidence_buffer,309751,confidence_buffer,,null,,,,,,,,,,,,,,,,,,,
897.3000001907349,,pt2_memorable_rating,310649,Toledo,,51,,3,,,,,,,,,,,,,,,,,
null,,confidence_buffer,310751,confidence_buffer,,null,,,,,,,,,,,,,,,,,,,
1497,,recognition_phase,312249,Toledo,,52,,,,,new,1,1,,,,,,,,,,,,
null,,confidence_buffer,312351,confidence_buffer,,null,,,,,,,,,,,,,,,,,,,
null,,thebreak,312853,break,,null,,,,,,,,,,,,,,,,,,,
3763,,realistic_rating,316617,Champaign,,49,Champaign,1,,,,,,,,,,,,,,,,,
null,,confidence_buffer,316719,confidence_buffer,,null,,,,,,,,,,,,,,,,,,,
2001.6999998092651,,pt2_unique_rating,318722,Champaign,,50,,2,,,,,,,,,,,,,,,,,
null,,confidence_buffer,318824,confidence_buffer,,null,,,,,,,,,,,,,,,,,,,
1536.3999996185303,,pt2_memorable_rating,320361,Champaign,,50,,2,,,,,,,,,,,,,,,,,
null,,confidence_buffer,320463,confidence_buffer,,null,,,,,,,,,,,,,,,,,,,
1577.0999994277954,,recognition_phase,322041,Champaign,,52,,,,,new,1,1,,,,,,,,,,,,
null,,confidence_buffer,322144,confidence_buffer,,null,,,,,,,,,,,,,,,,,,,
null,,thebreak,322645,break,,null,,,,,,,,,,,,,,,,,,,
1754.6999998092651,,realistic_rating,324401,Ann Arbor,,49,Ann Arbor,1,,,,,,,,,,,,,,,,,
null,,confidence_buffer,324503,confidence_buffer,,null,,,,,,,,,,,,,,,,,,,
1593.3999996185303,,pt2_unique_rating,326097,Ann Arbor,,52,,4,,,,,,,,,,,,,,,,,
null,,confidence_buffer,326199,confidence_buffer,,null,,,,,,,,,,,,,,,,,,,
2329.300000190735,,pt2_memorable_rating,328529,Ann Arbor,,50,,2,,,,,,,,,,,,,,,,,
null,,confidence_buffer,328631,confidence_buffer,,null,,,,,,,,,,,,,,,,,,,
1721.3000001907349,,recognition_phase,330354,Ann Arbor,,52,,,,,new,1,1,,,,,,,,,,,,
null,,confidence_buffer,330456,confidence_buffer,,null,,,,,,,,,,,,,,,,,,,
null,,thebreak,330958,break,,null,,,,,,,,,,,,,,,,,,,
2170.300000190735,,realistic_rating,333129,Carson City,,50,Carson City,2,,,,,,,,,,,,,,,,,
null,,confidence_buffer,333231,confidence_buffer,,null,,,,,,,,,,,,,,,,,,,
1040.8000001907349,,pt2_unique_rating,334273,Carson City,,49,,1,,,,,,,,,,,,,,,,,
null,,confidence_buffer,334374,confidence_buffer,,null,,,,,,,,,,,,,,,,,,,
1553.8999996185303,,probe_rating,335929,probe_rating,,50,,,2,1,,,,,,,,,,,,,,,
null,,confidence_buffer,336031,confidence_buffer,,null,,,,,,,,,,,,,,,,,,,
1608.5999994277954,,pt2_memorable_rating,337641,Carson City,,51,,3,,,,,,,,,,,,,,,,,
null,,confidence_buffer,337743,confidence_buffer,,null,,,,,,,,,,,,,,,,,,,
1889.2000007629395,,recognition_phase,339633,Carson City,,52,,,,,new,1,1,,,,,,,,,,,,
null,,confidence_buffer,339735,confidence_buffer,,null,,,,,,,,,,,,,,,,,,,
null,,thebreak,340237,break,,null,,,,,,,,,,,,,,,,,,,
1795.5999994277954,,realistic_rating,342033,Salem,,51,Salem,3,,,,,,,,,,,,,,,,,
null,,confidence_buffer,342135,confidence_buffer,,null,,,,,,,,,,,,,,,,,,,
2345.0999994277954,,pt2_unique_rating,344481,Salem,,49,,1,,,,,,,,,,,,,,,,,
null,,confidence_buffer,344584,confidence_buffer,,null,,,,,,,,,,,,,,,,,,,
1008.5999994277954,,pt2_memorable_rating,345593,Salem,,51,,3,,,,,,,,,,,,,,,,,
null,,confidence_buffer,345695,confidence_buffer,,null,,,,,,,,,,,,,,,,,,,
1184.8000001907349,,recognition_phase,346881,Salem,,52,,,,,new,1,1,,,,,,,,,,,,
null,,confidence_buffer,346983,confidence_buffer,,null,,,,,,,,,,,,,,,,,,,
null,,thebreak,347485,break,,null,,,,,,,,,,,,,,,,,,,
1683.0999994277954,,realistic_rating,349169,Las Cruces,,50,Las Cruces,2,,,,,,,,,,,,,,,,,
null,,confidence_buffer,349271,confidence_buffer,,null,,,,,,,,,,,,,,,,,,,
2416.800000190735,,probe_rating,351689,probe_rating,,53,,,5,1,,,,,,,,,,,,,,,
null,,confidence_buffer,351791,confidence_buffer,,null,,,,,,,,,,,,,,,,,,,
3376.8999996185303,,pt2_unique_rating,355169,Las Cruces,,50,,2,,,,,,,,,,,,,,,,,
null,,confidence_buffer,355272,confidence_buffer,,null,,,,,,,,,,,,,,,,,,,
1409,,pt2_memorable_rating,356682,Las Cruces,,51,,3,,,,,,,,,,,,,,,,,
null,,confidence_buffer,356783,confidence_buffer,,null,,,,,,,,,,,,,,,,,,,
2896.5,,recognition_phase,359681,Las Cruces,,52,,,,,new,1,1,,,,,,,,,,,,
null,,confidence_buffer,359783,confidence_buffer,,null,,,,,,,,,,,,,,,,,,,
null,,thebreak,360284,break,,null,,,,,,,,,,,,,,,,,,,
1867.8000001907349,,realistic_rating,362153,Marquette,,51,Marquette,3,,,,,,,,,,,,,,,,,
null,,confidence_buffer,362255,confidence_buffer,,null,,,,,,,,,,,,,,,,,,,
1304.9000005722046,,pt2_unique_rating,363561,Marquette,,50,,2,,,,,,,,,,,,,,,,,
null,,confidence_buffer,363663,confidence_buffer,,null,,,,,,,,,,,,,,,,,,,
1120.9000005722046,,pt2_memorable_rating,364785,Marquette,,51,,3,,,,,,,,,,,,,,,,,
null,,confidence_buffer,364887,confidence_buffer,,null,,,,,,,,,,,,,,,,,,,
4176.700000762939,,recognition_phase,369065,Marquette,,52,,,,,new,1,1,,,,,,,,,,,,
null,,confidence_buffer,369167,confidence_buffer,,null,,,,,,,,,,,,,,,,,,,
null,,thebreak,369669,break,,null,,,,,,,,,,,,,,,,,,,
2139.199999809265,,realistic_rating,371809,Peoria,,49,Peoria,1,,,,,,,,,,,,,,,,,
null,,confidence_buffer,371911,confidence_buffer,,null,,,,,,,,,,,,,,,,,,,
1769.1000003814697,,pt2_unique_rating,373681,Peoria,,53,,5,,,,,,,,,,,,,,,,,
null,,confidence_buffer,373784,confidence_buffer,,null,,,,,,,,,,,,,,,,,,,
2080.4000005722046,,pt2_memorable_rating,375865,Peoria,,51,,3,,,,,,,,,,,,,,,,,
null,,confidence_buffer,375967,confidence_buffer,,null,,,,,,,,,,,,,,,,,,,
2025.5,,recognition_phase,377993,Peoria,,52,,,,,new,1,1,,,,,,,,,,,,
null,,confidence_buffer,378095,confidence_buffer,,null,,,,,,,,,,,,,,,,,,,
null,,thebreak,378596,break,,null,,,,,,,,,,,,,,,,,,,
1884.6000003814697,,realistic_rating,380481,Fargo,,51,Fargo,3,,,,,,,,,,,,,,,,,
null,,confidence_buffer,380583,confidence_buffer,,null,,,,,,,,,,,,,,,,,,,
1249.0999994277954,,pt2_unique_rating,381833,Fargo,,50,,2,,,,,,,,,,,,,,,,,
null,,confidence_buffer,381936,confidence_buffer,,null,,,,,,,,,,,,,,,,,,,
1752.4000005722046,,pt2_memorable_rating,383689,Fargo,,52,,4,,,,,,,,,,,,,,,,,
null,,confidence_buffer,383791,confidence_buffer,,null,,,,,,,,,,,,,,,,,,,
1569.5999994277954,,recognition_phase,385361,Fargo,,49,,,,,old,1,1,,,,,,,,,,,,
null,,confidence_buffer,385463,confidence_buffer,,null,,,,,,,,,,,,,,,,,,,
null,,thebreak,385965,break,,null,,,,,,,,,,,,,,,,,,,
1835.1000003814697,,realistic_rating,387801,Yakima,,50,Yakima,2,,,,,,,,,,,,,,,,,
null,,confidence_buffer,387903,confidence_buffer,,null,,,,,,,,,,,,,,,,,,,
1305.1000003814697,,pt2_unique_rating,389209,Yakima,,51,,3,,,,,,,,,,,,,,,,,
null,,confidence_buffer,389311,confidence_buffer,,null,,,,,,,,,,,,,,,,,,,
1081,,pt2_memorable_rating,390393,Yakima,,51,,3,,,,,,,,,,,,,,,,,
null,,confidence_buffer,390494,confidence_buffer,,null,,,,,,,,,,,,,,,,,,,
1425.5,,recognition_phase,391921,Yakima,,49,,,,,old,1,1,,,,,,,,,,,,
null,,confidence_buffer,392023,confidence_buffer,,null,,,,,,,,,,,,,,,,,,,
null,,thebreak,392525,break,,null,,,,,,,,,,,,,,,,,,,
1418.8999996185303,,realistic_rating,393945,Helena,,50,Helena,2,,,,,,,,,,,,,,,,,
null,,confidence_buffer,394047,confidence_buffer,,null,,,,,,,,,,,,,,,,,,,
1521.1999998092651,,pt2_unique_rating,395569,Helena,,49,,1,,,,,,,,,,,,,,,,,
null,,confidence_buffer,395672,confidence_buffer,,null,,,,,,,,,,,,,,,,,,,
1184.4000005722046,,pt2_memorable_rating,396857,Helena,,51,,3,,,,,,,,,,,,,,,,,
null,,confidence_buffer,396966,confidence_buffer,,null,,,,,,,,,,,,,,,,,,,
4338.099999427795,,recognition_phase,401305,Helena,,51,,,,,new,0,0.9473684210526315,,,,,,,,,,,,
null,,confidence_buffer,401408,confidence_buffer,,null,,,,,,,,,,,,,,,,,,,
null,,thebreak,401909,break,,null,,,,,,,,,,,,,,,,,,,
1570.6000003814697,,realistic_rating,403481,Frankfort,,51,Frankfort,3,,,,,,,,,,,,,,,,,
null,,confidence_buffer,403584,confidence_buffer,,null,,,,,,,,,,,,,,,,,,,
1168,,pt2_unique_rating,404753,Frankfort,,50,,2,,,,,,,,,,,,,,,,,
null,,confidence_buffer,404855,confidence_buffer,,null,,,,,,,,,,,,,,,,,,,
1913.0999994277954,,pt2_memorable_rating,406769,Frankfort,,51,,3,,,,,,,,,,,,,,,,,
null,,confidence_buffer,406871,confidence_buffer,,null,,,,,,,,,,,,,,,,,,,
1088.5999994277954,,recognition_phase,407961,Frankfort,,49,,,,,old,1,0.95,,,,,,,,,,,,
null,,confidence_buffer,408063,confidence_buffer,,null,,,,,,,,,,,,,,,,,,,
null,,thebreak,408564,break,,null,,,,,,,,,,,,,,,,,,,
2939.4000005722046,,realistic_rating,411505,Athens,,52,Athens,4,,,,,,,,,,,,,,,,,
null,,confidence_buffer,411613,confidence_buffer,,null,,,,,,,,,,,,,,,,,,,
1435,,probe_rating,413049,probe_rating,,51,,,3,1,,,,,,,,,,,,,,,
null,,confidence_buffer,413152,confidence_buffer,,null,,,,,,,,,,,,,,,,,,,
1984.6000003814697,,pt2_unique_rating,415137,Athens,,50,,2,,,,,,,,,,,,,,,,,
null,,confidence_buffer,415239,confidence_buffer,,null,,,,,,,,,,,,,,,,,,,
3041.199999809265,,pt2_memorable_rating,418281,Athens,,53,,5,,,,,,,,,,,,,,,,,
null,,confidence_buffer,418383,confidence_buffer,,null,,,,,,,,,,,,,,,,,,,
1528.7999992370605,,recognition_phase,419913,Athens,,49,,,,,old,1,0.9523809523809523,,,,,,,,,,,,
null,,confidence_buffer,420014,confidence_buffer,,null,,,,,,,,,,,,,,,,,,,
null,,thebreak,420516,break,,null,,,,,,,,,,,,,,,,,,,
1548.1999998092651,,realistic_rating,422065,Abilene,,49,Abilene,1,,,,,,,,,,,,,,,,,
null,,confidence_buffer,422168,confidence_buffer,,null,,,,,,,,,,,,,,,,,,,
1216.4000005722046,,pt2_unique_rating,423385,Abilene,,49,,1,,,,,,,,,,,,,,,,,
null,,confidence_buffer,423493,confidence_buffer,,null,,,,,,,,,,,,,,,,,,,
1091,,pt2_memorable_rating,424585,Abilene,,49,,1,,,,,,,,,,,,,,,,,
null,,confidence_buffer,424687,confidence_buffer,,null,,,,,,,,,,,,,,,,,,,
1129.5,,recognition_phase,425818,Abilene,,49,,,,,old,0,0.9090909090909091,,,,,,,,,,,,
null,,confidence_buffer,425923,confidence_buffer,,null,,,,,,,,,,,,,,,,,,,
null,,thebreak,426425,break,,null,,,,,,,,,,,,,,,,,,,
2342.6000003814697,,realistic_rating,428769,Altoona,,49,Altoona,1,,,,,,,,,,,,,,,,,
null,,confidence_buffer,428872,confidence_buffer,,null,,,,,,,,,,,,,,,,,,,
1344.3000001907349,,pt2_unique_rating,430217,Altoona,,50,,2,,,,,,,,,,,,,,,,,
null,,confidence_buffer,430320,confidence_buffer,,null,,,,,,,,,,,,,,,,,,,
984.1000003814697,,pt2_memorable_rating,431305,Altoona,,50,,2,,,,,,,,,,,,,,,,,
null,,confidence_buffer,431407,confidence_buffer,,null,,,,,,,,,,,,,,,,,,,
2009.1999998092651,,recognition_phase,433417,Altoona,,52,,,,,new,1,0.9130434782608695,,,,,,,,,,,,
null,,confidence_buffer,433520,confidence_buffer,,null,,,,,,,,,,,,,,,,,,,
null,,thebreak,434022,break,,null,,,,,,,,,,,,,,,,,,,
2226.5,,realistic_rating,436249,Syracuse,,50,Syracuse,2,,,,,,,,,,,,,,,,,
null,,confidence_buffer,436352,confidence_buffer,,null,,,,,,,,,,,,,,,,,,,
1168.5,,pt2_unique_rating,437521,Syracuse,,50,,2,,,,,,,,,,,,,,,,,
null,,confidence_buffer,437624,confidence_buffer,,null,,,,,,,,,,,,,,,,,,,
960.4000005722046,,pt2_memorable_rating,438585,Syracuse,,51,,3,,,,,,,,,,,,,,,,,
null,,confidence_buffer,438687,confidence_buffer,,null,,,,,,,,,,,,,,,,,,,
2713.0999994277954,,recognition_phase,441401,Syracuse,,52,,,,,new,1,0.9166666666666666,,,,,,,,,,,,
null,,confidence_buffer,441503,confidence_buffer,,null,,,,,,,,,,,,,,,,,,,
null,,thebreak,442005,break,,null,,,,,,,,,,,,,,,,,,,
1611.1999998092651,,realistic_rating,443617,Fort Collins,,51,Fort Collins,3,,,,,,,,,,,,,,,,,
null,,confidence_buffer,443719,confidence_buffer,,null,,,,,,,,,,,,,,,,,,,
1824.7999992370605,,pt2_unique_rating,445545,Fort Collins,,51,,3,,,,,,,,,,,,,,,,,
null,,confidence_buffer,445647,confidence_buffer,,null,,,,,,,,,,,,,,,,,,,
697.9000005722046,,pt2_memorable_rating,446346,Fort Collins,,51,,3,,,,,,,,,,,,,,,,,
null,,confidence_buffer,446448,confidence_buffer,,null,,,,,,,,,,,,,,,,,,,
1456.3000001907349,,probe_rating,447905,probe_rating,,50,,,2,1,,,,,,,,,,,,,,,
null,,confidence_buffer,448008,confidence_buffer,,null,,,,,,,,,,,,,,,,,,,
1800,,recognition_phase,449809,Fort Collins,,52,,,,,new,1,0.92,,,,,,,,,,,,
null,,confidence_buffer,449911,confidence_buffer,,null,,,,,,,,,,,,,,,,,,,
null,,thebreak,450413,break,,null,,,,,,,,,,,,,,,,,,,
3275.0999994277954,,realistic_rating,453689,Rock Springs,,52,Rock Springs,4,,,,,,,,,,,,,,,,,
null,,confidence_buffer,453791,confidence_buffer,,null,,,,,,,,,,,,,,,,,,,
1488.7999992370605,,pt2_unique_rating,455281,Rock Springs,,51,,3,,,,,,,,,,,,,,,,,
null,,confidence_buffer,455383,confidence_buffer,,null,,,,,,,,,,,,,,,,,,,
1881.1999998092651,,probe_rating,457265,probe_rating,,50,,,2,1,,,,,,,,,,,,,,,
null,,confidence_buffer,457366,confidence_buffer,,null,,,,,,,,,,,,,,,,,,,
1777.5999994277954,,pt2_memorable_rating,459145,Rock Springs,,53,,5,,,,,,,,,,,,,,,,,
null,,confidence_buffer,459247,confidence_buffer,,null,,,,,,,,,,,,,,,,,,,
2273.3999996185303,,recognition_phase,461521,Rock Springs,,49,,,,,old,1,0.9230769230769231,,,,,,,,,,,,
null,,confidence_buffer,461623,confidence_buffer,,null,,,,,,,,,,,,,,,,,,,
null,,thebreak,462125,break,,null,,,,,,,,,,,,,,,,,,,
1954.5,,realistic_rating,464081,Newport News,,50,Newport News,2,,,,,,,,,,,,,,,,,
null,,confidence_buffer,464183,confidence_buffer,,null,,,,,,,,,,,,,,,,,,,
1585.4000005722046,,pt2_unique_rating,465769,Newport News,,50,,2,,,,,,,,,,,,,,,,,
null,,confidence_buffer,465877,confidence_buffer,,null,,,,,,,,,,,,,,,,,,,
1066.8999996185303,,pt2_memorable_rating,466945,Newport News,,50,,2,,,,,,,,,,,,,,,,,
null,,confidence_buffer,467047,confidence_buffer,,null,,,,,,,,,,,,,,,,,,,
1984.5,,recognition_phase,469033,Newport News,,52,,,,,new,1,0.9259259259259259,,,,,,,,,,,,
null,,confidence_buffer,469136,confidence_buffer,,null,,,,,,,,,,,,,,,,,,,
null,,thebreak,469646,break,,null,,,,,,,,,,,,,,,,,,,
2298,,realistic_rating,471945,Boulder,,51,Boulder,3,,,,,,,,,,,,,,,,,
null,,confidence_buffer,472047,confidence_buffer,,null,,,,,,,,,,,,,,,,,,,
1480.8999996185303,,pt2_unique_rating,473529,Boulder,,49,,1,,,,,,,,,,,,,,,,,
null,,confidence_buffer,473631,confidence_buffer,,null,,,,,,,,,,,,,,,,,,,
1705.2000007629395,,pt2_memorable_rating,475337,Boulder,,53,,5,,,,,,,,,,,,,,,,,
null,,confidence_buffer,475439,confidence_buffer,,null,,,,,,,,,,,,,,,,,,,
1072.7999992370605,,recognition_phase,476513,Boulder,,49,,,,,old,1,0.9285714285714286,,,,,,,,,,,,
null,,confidence_buffer,476615,confidence_buffer,,null,,,,,,,,,,,,,,,,,,,
null,,thebreak,477117,break,,null,,,,,,,,,,,,,,,,,,,
1690.7999992370605,,realistic_rating,478809,Cheyenne,,50,Cheyenne,2,,,,,,,,,,,,,,,,,
null,,confidence_buffer,478911,confidence_buffer,,null,,,,,,,,,,,,,,,,,,,
1345.3999996185303,,pt2_unique_rating,480257,Cheyenne,,50,,2,,,,,,,,,,,,,,,,,
null,,confidence_buffer,480360,confidence_buffer,,null,,,,,,,,,,,,,,,,,,,
1136.3999996185303,,pt2_memorable_rating,481497,Cheyenne,,50,,2,,,,,,,,,,,,,,,,,
null,,confidence_buffer,481613,confidence_buffer,,null,,,,,,,,,,,,,,,,,,,
1907.3999996185303,,recognition_phase,483521,Cheyenne,,52,,,,,new,1,0.9310344827586207,,,,,,,,,,,,
null,,confidence_buffer,483623,confidence_buffer,,null,,,,,,,,,,,,,,,,,,,
null,,thebreak,484124,break,,null,,,,,,,,,,,,,,,,,,,
2187.7999992370605,,realistic_rating,486313,Reno,,51,Reno,3,,,,,,,,,,,,,,,,,
null,,confidence_buffer,486415,confidence_buffer,,null,,,,,,,,,,,,,,,,,,,
896.8000001907349,,pt2_unique_rating,487313,Reno,,51,,3,,,,,,,,,,,,,,,,,
null,,confidence_buffer,487415,confidence_buffer,,null,,,,,,,,,,,,,,,,,,,
848.8000001907349,,pt2_memorable_rating,488265,Reno,,51,,3,,,,,,,,,,,,,,,,,
null,,confidence_buffer,488367,confidence_buffer,,null,,,,,,,,,,,,,,,,,,,
1785.5,,recognition_phase,490153,Reno,,52,,,,,new,1,0.9333333333333333,,,,,,,,,,,,
null,,confidence_buffer,490256,confidence_buffer,,null,,,,,,,,,,,,,,,,,,,
null,,thebreak,490758,break,,null,,,,,,,,,,,,,,,,,,,
2530.5,,realistic_rating,493289,Pasadena,,51,Pasadena,3,,,,,,,,,,,,,,,,,
null,,confidence_buffer,493392,confidence_buffer,,null,,,,,,,,,,,,,,,,,,,
768.5999994277954,,pt2_unique_rating,494161,Pasadena,,51,,3,,,,,,,,,,,,,,,,,
null,,confidence_buffer,494263,confidence_buffer,,null,,,,,,,,,,,,,,,,,,,
1969.0999994277954,,probe_rating,496233,probe_rating,,53,,,5,1,,,,,,,,,,,,,,,
null,,confidence_buffer,496335,confidence_buffer,,null,,,,,,,,,,,,,,,,,,,
1304.8999996185303,,pt2_memorable_rating,497641,Pasadena,,53,,5,,,,,,,,,,,,,,,,,
null,,confidence_buffer,497743,confidence_buffer,,null,,,,,,,,,,,,,,,,,,,
2257.300000190735,,recognition_phase,500001,Pasadena,,52,,,,,new,1,0.9354838709677419,,,,,,,,,,,,
null,,confidence_buffer,500103,confidence_buffer,,null,,,,,,,,,,,,,,,,,,,
null,,thebreak,500605,break,,null,,,,,,,,,,,,,,,,,,,
1755.0999994277954,,realistic_rating,502361,Montpelier,,50,Montpelier,2,,,,,,,,,,,,,,,,,
null,,confidence_buffer,502463,confidence_buffer,,null,,,,,,,,,,,,,,,,,,,
857.3000001907349,,pt2_unique_rating,503321,Montpelier,,51,,3,,,,,,,,,,,,,,,,,
null,,confidence_buffer,503423,confidence_buffer,,null,,,,,,,,,,,,,,,,,,,
2129.4000005722046,,pt2_memorable_rating,505553,Montpelier,,49,,1,,,,,,,,,,,,,,,,,
null,,confidence_buffer,505655,confidence_buffer,,null,,,,,,,,,,,,,,,,,,,
2040.8999996185303,,recognition_phase,507697,Montpelier,,49,,,,,old,1,0.9375,,,,,,,,,,,,
null,,confidence_buffer,507799,confidence_buffer,,null,,,,,,,,,,,,,,,,,,,
null,,thebreak,508301,break,,null,,,,,,,,,,,,,,,,,,,
2123.1000003814697,,realistic_rating,510425,Bozeman,,51,Bozeman,3,,,,,,,,,,,,,,,,,
null,,confidence_buffer,510531,confidence_buffer,,null,,,,,,,,,,,,,,,,,,,
1109.6000003814697,,pt2_unique_rating,511642,Bozeman,,50,,2,,,,,,,,,,,,,,,,,
null,,confidence_buffer,511743,confidence_buffer,,null,,,,,,,,,,,,,,,,,,,
1145.3999996185303,,pt2_memorable_rating,512889,Bozeman,,51,,3,,,,,,,,,,,,,,,,,
null,,confidence_buffer,512991,confidence_buffer,,null,,,,,,,,,,,,,,,,,,,
1177.7000007629395,,recognition_phase,514169,Bozeman,,49,,,,,old,1,0.9393939393939394,,,,,,,,,,,,
null,,confidence_buffer,514272,confidence_buffer,,null,,,,,,,,,,,,,,,,,,,
null,,thebreak,514774,break,,null,,,,,,,,,,,,,,,,,,,
1914.5,,realistic_rating,516689,Tallahassee,,51,Tallahassee,3,,,,,,,,,,,,,,,,,
null,,confidence_buffer,516791,confidence_buffer,,null,,,,,,,,,,,,,,,,,,,
1233,,pt2_unique_rating,518025,Tallahassee,,49,,1,,,,,,,,,,,,,,,,,
null,,confidence_buffer,518128,confidence_buffer,,null,,,,,,,,,,,,,,,,,,,
1584.6000003814697,,pt2_memorable_rating,519713,Tallahassee,,52,,4,,,,,,,,,,,,,,,,,
null,,confidence_buffer,519815,confidence_buffer,,null,,,,,,,,,,,,,,,,,,,
1049,,recognition_phase,520865,Tallahassee,,49,,,,,old,1,0.9411764705882353,,,,,,,,,,,,
null,,confidence_buffer,520981,confidence_buffer,,null,,,,,,,,,,,,,,,,,,,
null,,thebreak,521483,break,,null,,,,,,,,,,,,,,,,,,,
1068.6999998092651,,realistic_rating,522553,Boise,,50,Boise,2,,,,,,,,,,,,,,,,,
null,,confidence_buffer,522655,confidence_buffer,,null,,,,,,,,,,,,,,,,,,,
1592.8999996185303,,pt2_unique_rating,524249,Boise,,50,,2,,,,,,,,,,,,,,,,,
null,,confidence_buffer,524351,confidence_buffer,,null,,,,,,,,,,,,,,,,,,,
1585.6999998092651,,pt2_memorable_rating,525938,Boise,,50,,2,,,,,,,,,,,,,,,,,
null,,confidence_buffer,526040,confidence_buffer,,null,,,,,,,,,,,,,,,,,,,
1576,,recognition_phase,527617,Boise,,49,,,,,old,1,0.9428571428571428,,,,,,,,,,,,
null,,confidence_buffer,527732,confidence_buffer,,null,,,,,,,,,,,,,,,,,,,
null,,thebreak,528234,break,,null,,,,,,,,,,,,,,,,,,,
1501.8999996185303,,realistic_rating,529737,Berkeley,,49,Berkeley,1,,,,,,,,,,,,,,,,,
null,,confidence_buffer,529840,confidence_buffer,,null,,,,,,,,,,,,,,,,,,,
1416.9000005722046,,pt2_unique_rating,531258,Berkeley,,50,,2,,,,,,,,,,,,,,,,,
null,,confidence_buffer,531359,confidence_buffer,,null,,,,,,,,,,,,,,,,,,,
2089,,pt2_memorable_rating,533449,Berkeley,,51,,3,,,,,,,,,,,,,,,,,
null,,confidence_buffer,533551,confidence_buffer,,null,,,,,,,,,,,,,,,,,,,
1952.8999996185303,,recognition_phase,535505,Berkeley,,52,,,,,new,1,0.9444444444444444,,,,,,,,,,,,
null,,confidence_buffer,535607,confidence_buffer,,null,,,,,,,,,,,,,,,,,,,
null,,thebreak,536108,break,,null,,,,,,,,,,,,,,,,,,,
2075.800000190735,,realistic_rating,538185,Olympia,,49,Olympia,1,,,,,,,,,,,,,,,,,
null,,confidence_buffer,538302,confidence_buffer,,null,,,,,,,,,,,,,,,,,,,
1066.5,,pt2_unique_rating,539369,Olympia,,51,,3,,,,,,,,,,,,,,,,,
null,,confidence_buffer,539472,confidence_buffer,,null,,,,,,,,,,,,,,,,,,,
888.5,,pt2_memorable_rating,540361,Olympia,,51,,3,,,,,,,,,,,,,,,,,
null,,confidence_buffer,540463,confidence_buffer,,null,,,,,,,,,,,,,,,,,,,
1097.5999994277954,,recognition_phase,541561,Olympia,,49,,,,,old,1,0.9459459459459459,,,,,,,,,,,,
null,,confidence_buffer,541663,confidence_buffer,,null,,,,,,,,,,,,,,,,,,,
null,,thebreak,542175,break,,null,,,,,,,,,,,,,,,,,,,
1560.8999996185303,,realistic_rating,543738,New Haven,,50,New Haven,2,,,,,,,,,,,,,,,,,
null,,confidence_buffer,543840,confidence_buffer,,null,,,,,,,,,,,,,,,,,,,
808.6999998092651,,pt2_unique_rating,544649,New Haven,,50,,2,,,,,,,,,,,,,,,,,
null,,confidence_buffer,544751,confidence_buffer,,null,,,,,,,,,,,,,,,,,,,
673.1000003814697,,pt2_memorable_rating,545425,New Haven,,50,,2,,,,,,,,,,,,,,,,,
null,,confidence_buffer,545527,confidence_buffer,,null,,,,,,,,,,,,,,,,,,,
2394,,recognition_phase,547922,New Haven,,52,,,,,new,1,0.9473684210526315,,,,,,,,,,,,
null,,confidence_buffer,548024,confidence_buffer,,null,,,,,,,,,,,,,,,,,,,
null,,thebreak,548526,break,,null,,,,,,,,,,,,,,,,,,,
1682.5,,realistic_rating,550209,Scottsdale,,51,Scottsdale,3,,,,,,,,,,,,,,,,,
null,,confidence_buffer,550311,confidence_buffer,,null,,,,,,,,,,,,,,,,,,,
905,,pt2_unique_rating,551217,Scottsdale,,49,,1,,,,,,,,,,,,,,,,,
null,,confidence_buffer,551319,confidence_buffer,,null,,,,,,,,,,,,,,,,,,,
1288.6999998092651,,pt2_memorable_rating,552609,Scottsdale,,51,,3,,,,,,,,,,,,,,,,,
null,,confidence_buffer,552710,confidence_buffer,,null,,,,,,,,,,,,,,,,,,,
1610.5999994277954,,probe_rating,554322,probe_rating,,53,,,5,1,,,,,,,,,,,,,,,
null,,confidence_buffer,554424,confidence_buffer,,null,,,,,,,,,,,,,,,,,,,
2592.5,,recognition_phase,557017,Scottsdale,,52,,,,,new,0,0.9230769230769231,,,,,,,,,,,,
null,,confidence_buffer,557119,confidence_buffer,,null,,,,,,,,,,,,,,,,,,,
null,,thebreak,557622,break,,null,,,,,,,,,,,,,,,,,,,
1714.5,,realistic_rating,559337,Hagerstown,,51,Hagerstown,3,,,,,,,,,,,,,,,,,
null,,confidence_buffer,559450,confidence_buffer,,null,,,,,,,,,,,,,,,,,,,
910.8000001907349,,pt2_unique_rating,560361,Hagerstown,,49,,1,,,,,,,,,,,,,,,,,
null,,confidence_buffer,560463,confidence_buffer,,null,,,,,,,,,,,,,,,,,,,
1673.5,,pt2_memorable_rating,562137,Hagerstown,,51,,3,,,,,,,,,,,,,,,,,
null,,confidence_buffer,562240,confidence_buffer,,null,,,,,,,,,,,,,,,,,,,
2592.6000003814697,,recognition_phase,564833,Hagerstown,,49,,,,,old,1,0.925,,,,,,,,,,,,
null,,confidence_buffer,564935,confidence_buffer,,null,,,,,,,,,,,,,,,,,,,
null,,thebreak,565437,break,,null,,,,,,,,,,,,,,,,,,,
1283.8000001907349,,realistic_rating,566721,Cambridge,,50,Cambridge,2,,,,,,,,,,,,,,,,,
null,,confidence_buffer,566823,confidence_buffer,,null,,,,,,,,,,,,,,,,,,,
472.9000005722046,,pt2_unique_rating,567297,Cambridge,,51,,3,,,,,,,,,,,,,,,,,
null,,confidence_buffer,567399,confidence_buffer,,null,,,,,,,,,,,,,,,,,,,
1561.1999998092651,,pt2_memorable_rating,568961,Cambridge,,51,,3,,,,,,,,,,,,,,,,,
null,,confidence_buffer,569063,confidence_buffer,,null,,,,,,,,,,,,,,,,,,,
2481.5,,recognition_phase,571545,Cambridge,,52,,,,,new,1,0.926829268292683,,,,,,,,,,,,
null,,confidence_buffer,571647,confidence_buffer,,null,,,,,,,,,,,,,,,,,,,
null,,thebreak,572149,break,,null,,,,,,,,,,,,,,,,,,,
3020.199999809265,,realistic_rating,575171,Dubuque,,50,Dubuque,2,,,,,,,,,,,,,,,,,
null,,confidence_buffer,575273,confidence_buffer,,null,,,,,,,,,,,,,,,,,,,
1111.6000003814697,,pt2_unique_rating,576385,Dubuque,,49,,1,,,,,,,,,,,,,,,,,
null,,confidence_buffer,576487,confidence_buffer,,null,,,,,,,,,,,,,,,,,,,
1313,,pt2_memorable_rating,577801,Dubuque,,51,,3,,,,,,,,,,,,,,,,,
null,,confidence_buffer,577903,confidence_buffer,,null,,,,,,,,,,,,,,,,,,,
1056.8999996185303,,recognition_phase,578961,Dubuque,,49,,,,,old,1,0.9285714285714286,,,,,,,,,,,,
null,,confidence_buffer,579063,confidence_buffer,,null,,,,,,,,,,,,,,,,,,,
null,,thebreak,579565,break,,null,,,,,,,,,,,,,,,,,,,
1691.3000001907349,,realistic_rating,581257,Stamford,,50,Stamford,2,,,,,,,,,,,,,,,,,
null,,confidence_buffer,581358,confidence_buffer,,null,,,,,,,,,,,,,,,,,,,
1250,,pt2_unique_rating,582609,Stamford,,49,,1,,,,,,,,,,,,,,,,,
null,,confidence_buffer,582711,confidence_buffer,,null,,,,,,,,,,,,,,,,,,,
1313.6999998092651,,pt2_memorable_rating,584026,Stamford,,49,,1,,,,,,,,,,,,,,,,,
null,,confidence_buffer,584127,confidence_buffer,,null,,,,,,,,,,,,,,,,,,,
1072.8000001907349,,recognition_phase,585201,Stamford,,49,,,,,old,1,0.9302325581395349,,,,,,,,,,,,
null,,confidence_buffer,585304,confidence_buffer,,null,,,,,,,,,,,,,,,,,,,
null,,thebreak,585805,break,,null,,,,,,,,,,,,,,,,,,,
2274.9000005722046,,realistic_rating,588081,Norfolk,,50,Norfolk,2,,,,,,,,,,,,,,,,,
null,,confidence_buffer,588183,confidence_buffer,,null,,,,,,,,,,,,,,,,,,,
1456.8999996185303,,pt2_unique_rating,589641,Norfolk,,51,,3,,,,,,,,,,,,,,,,,
null,,confidence_buffer,589743,confidence_buffer,,null,,,,,,,,,,,,,,,,,,,
1329.1999998092651,,pt2_memorable_rating,591073,Norfolk,,52,,4,,,,,,,,,,,,,,,,,
null,,confidence_buffer,591175,confidence_buffer,,null,,,,,,,,,,,,,,,,,,,
1001.1000003814697,,recognition_phase,592177,Norfolk,,49,,,,,old,1,0.9318181818181818,,,,,,,,,,,,
null,,confidence_buffer,592279,confidence_buffer,,null,,,,,,,,,,,,,,,,,,,
null,,thebreak,592780,break,,null,,,,,,,,,,,,,,,,,,,
1284.1999998092651,,realistic_rating,594066,Topeka,,51,Topeka,3,,,,,,,,,,,,,,,,,
null,,confidence_buffer,594168,confidence_buffer,,null,,,,,,,,,,,,,,,,,,,
1272.9000005722046,,pt2_unique_rating,595441,Topeka,,51,,3,,,,,,,,,,,,,,,,,
null,,confidence_buffer,595543,confidence_buffer,,null,,,,,,,,,,,,,,,,,,,
1449,,pt2_memorable_rating,596993,Topeka,,51,,3,,,,,,,,,,,,,,,,,
null,,confidence_buffer,597095,confidence_buffer,,null,,,,,,,,,,,,,,,,,,,
1097.5,,recognition_phase,598193,Topeka,,49,,,,,old,1,0.9333333333333333,,,,,,,,,,,,
null,,confidence_buffer,598296,confidence_buffer,,null,,,,,,,,,,,,,,,,,,,
null,,thebreak,598797,break,,null,,,,,,,,,,,,,,,,,,,
1203.1000003814697,,realistic_rating,600001,McKinney,,50,McKinney,2,,,,,,,,,,,,,,,,,
null,,confidence_buffer,600104,confidence_buffer,,null,,,,,,,,,,,,,,,,,,,
1456.9000005722046,,pt2_unique_rating,601561,McKinney,,49,,1,,,,,,,,,,,,,,,,,
null,,confidence_buffer,601663,confidence_buffer,,null,,,,,,,,,,,,,,,,,,,
1968.8999996185303,,pt2_memorable_rating,603633,McKinney,,51,,3,,,,,,,,,,,,,,,,,
null,,confidence_buffer,603735,confidence_buffer,,null,,,,,,,,,,,,,,,,,,,
993.1999998092651,,recognition_phase,604730,McKinney,,49,,,,,old,1,0.9347826086956522,,,,,,,,,,,,
null,,confidence_buffer,604833,confidence_buffer,,null,,,,,,,,,,,,,,,,,,,
null,,thebreak,605344,break,,null,,,,,,,,,,,,,,,,,,,
2120.5,,realistic_rating,607466,Decatur,,50,Decatur,2,,,,,,,,,,,,,,,,,
null,,confidence_buffer,607568,confidence_buffer,,null,,,,,,,,,,,,,,,,,,,
1184.3000001907349,,pt2_unique_rating,608753,Decatur,,51,,3,,,,,,,,,,,,,,,,,
null,,confidence_buffer,608855,confidence_buffer,,null,,,,,,,,,,,,,,,,,,,
1425,,pt2_memorable_rating,610281,Decatur,,52,,4,,,,,,,,,,,,,,,,,
null,,confidence_buffer,610383,confidence_buffer,,null,,,,,,,,,,,,,,,,,,,
873.8000001907349,,recognition_phase,611258,Decatur,,49,,,,,old,1,0.9361702127659575,,,,,,,,,,,,
null,,confidence_buffer,611360,confidence_buffer,,null,,,,,,,,,,,,,,,,,,,
null,,thebreak,611862,break,,null,,,,,,,,,,,,,,,,,,,
3010.5,,realistic_rating,614873,Bellingham,,49,Bellingham,1,,,,,,,,,,,,,,,,,
null,,confidence_buffer,614975,confidence_buffer,,null,,,,,,,,,,,,,,,,,,,
2057,,probe_rating,617033,probe_rating,,50,,,2,1,,,,,,,,,,,,,,,
null,,confidence_buffer,617136,confidence_buffer,,null,,,,,,,,,,,,,,,,,,,
2856.1000003814697,,pt2_unique_rating,619993,Bellingham,,49,,1,,,,,,,,,,,,,,,,,
null,,confidence_buffer,620096,confidence_buffer,,null,,,,,,,,,,,,,,,,,,,
1776.2000007629395,,pt2_memorable_rating,621873,Bellingham,,51,,3,,,,,,,,,,,,,,,,,
null,,confidence_buffer,621975,confidence_buffer,,null,,,,,,,,,,,,,,,,,,,
1945.8000001907349,,recognition_phase,623921,Bellingham,,49,,,,,old,1,0.9375,,,,,,,,,,,,
null,,confidence_buffer,624024,confidence_buffer,,null,,,,,,,,,,,,,,,,,,,
null,,thebreak,624525,break,,null,,,,,,,,,,,,,,,,,,,
1835.2000007629395,,realistic_rating,626361,Dover,,51,Dover,3,,,,,,,,,,,,,,,,,
null,,confidence_buffer,626463,confidence_buffer,,null,,,,,,,,,,,,,,,,,,,
881.3000001907349,,pt2_unique_rating,627345,Dover,,50,,2,,,,,,,,,,,,,,,,,
null,,confidence_buffer,627447,confidence_buffer,,null,,,,,,,,,,,,,,,,,,,
1281.7000007629395,,pt2_memorable_rating,628729,Dover,,51,,3,,,,,,,,,,,,,,,,,
null,,confidence_buffer,628831,confidence_buffer,,null,,,,,,,,,,,,,,,,,,,
937.1000003814697,,recognition_phase,629769,Dover,,49,,,,,old,1,0.9387755102040817,,,,,,,,,,,,
null,,confidence_buffer,629871,confidence_buffer,,null,,,,,,,,,,,,,,,,,,,
null,,thebreak,630385,break,,null,,,,,,,,,,,,,,,,,,,
1871.3999996185303,,realistic_rating,632258,Terre Haute,,51,Terre Haute,3,,,,,,,,,,,,,,,,,
null,,confidence_buffer,632360,confidence_buffer,,null,,,,,,,,,,,,,,,,,,,
1392.8000001907349,,pt2_unique_rating,633753,Terre Haute,,52,,4,,,,,,,,,,,,,,,,,
null,,confidence_buffer,633856,confidence_buffer,,null,,,,,,,,,,,,,,,,,,,
2544.4000005722046,,pt2_memorable_rating,636401,Terre Haute,,51,,3,,,,,,,,,,,,,,,,,
null,,confidence_buffer,636503,confidence_buffer,,null,,,,,,,,,,,,,,,,,,,
1601.2000007629395,,recognition_phase,638106,Terre Haute,,52,,,,,new,1,0.94,,,,,,,,,,,,
null,,confidence_buffer,638208,confidence_buffer,,null,,,,,,,,,,,,,,,,,,,
null,,thebreak,638711,break,,null,,,,,,,,,,,,,,,,,,,
,,survey,708230,survey-questions,,,,,,,,,,,high,no,just going off memory,i hear of before,if i can remember that name,if it sounded weird or hard to picture as a city etc,ive seen the name irl a lot,no,,,
5803.700000762939,,thank_you,714057,all_done,,32,,,,,,,,,,,,,,,,,,3,0
