rt,responses,trial_type,time_elapsed,stimulus,button_pressed,key_press,name_trial,rating,probe,probe_accuracy,response,correct,accuracy,problems,smooth,distraction,strategies,familiar,memorable,unique,realistic,similar,comments
4580,{worker_id:6100dfd366a4922c166c9a19},id_enter,4581,,,,,,,,,,,,,,,,,,,,
21221.5,,fullscreen,25805,fullscreen,0,,,,,,,,,,,,,,,,,,
8225.5,,intro_0,34032,instruct,,32,,,,,,,,,,,,,,,,,
15761.20000000298,,intro_1,49793,instruct,,32,,,,,,,,,,,,,,,,,
11998.29999999702,,intro_2,61792,instruct,,32,,,,,,,,,,,,,,,,,
null,,instruct_dir_4,63299,instruct,,null,,,,,,,,,,,,,,,,,
null,,thebreak,63812,break,,null,,,,,,,,,,,,,,,,,
13476.300000011921,,familiar_rating,77289,Boise,,51,Boise,3,,,,,,,,,,,,,,,
null,,confidence_buffer,77406,confidence_buffer,,null,,,,,,,,,,,,,,,,,
16368.90000000596,,unique_rating,93776,Boise,,51,,3,,,,,,,,,,,,,,,
null,,confidence_buffer,93878,confidence_buffer,,null,,,,,,,,,,,,,,,,,
3253.8999999910593,,memorable_rating,97132,Boise,,50,,2,,,,,,,,,,,,,,,
null,,confidence_buffer,97244,confidence_buffer,,null,,,,,,,,,,,,,,,,,
null,,thebreak,97765,break,,null,,,,,,,,,,,,,,,,,
23188.10000000894,,familiar_rating,120954,Norfolk,,50,Norfolk,2,,,,,,,,,,,,,,,
null,,confidence_buffer,121057,confidence_buffer,,null,,,,,,,,,,,,,,,,,
2289.9000000059605,,unique_rating,123348,Norfolk,,50,,2,,,,,,,,,,,,,,,
null,,confidence_buffer,123454,confidence_buffer,,null,,,,,,,,,,,,,,,,,
1588.800000011921,,memorable_rating,125043,Norfolk,,49,,1,,,,,,,,,,,,,,,
null,,confidence_buffer,125147,confidence_buffer,,null,,,,,,,,,,,,,,,,,
null,,thebreak,125672,break,,null,,,,,,,,,,,,,,,,,
43075.5,,familiar_rating,168748,Ithaca,,50,Ithaca,2,,,,,,,,,,,,,,,
null,,confidence_buffer,168850,confidence_buffer,,null,,,,,,,,,,,,,,,,,
1452.7000000029802,,unique_rating,170303,Ithaca,,50,,2,,,,,,,,,,,,,,,
null,,confidence_buffer,170406,confidence_buffer,,null,,,,,,,,,,,,,,,,,
3052.2000000029802,,probe_rating,173459,probe_rating,,50,,,2,1,,,,,,,,,,,,,
null,,confidence_buffer,173563,confidence_buffer,,null,,,,,,,,,,,,,,,,,
5268.70000000298,,memorable_rating,178832,Ithaca,,51,,3,,,,,,,,,,,,,,,
null,,confidence_buffer,178935,confidence_buffer,,null,,,,,,,,,,,,,,,,,
null,,thebreak,179453,break,,null,,,,,,,,,,,,,,,,,
16654.5,,familiar_rating,196108,Fort Wayne,,50,Fort Wayne,2,,,,,,,,,,,,,,,
null,,confidence_buffer,196210,confidence_buffer,,null,,,,,,,,,,,,,,,,,
10469.60000000894,,unique_rating,206680,Fort Wayne,,49,,1,,,,,,,,,,,,,,,
null,,confidence_buffer,206782,confidence_buffer,,null,,,,,,,,,,,,,,,,,
3780.5999999940395,,memorable_rating,210563,Fort Wayne,,50,,2,,,,,,,,,,,,,,,
null,,confidence_buffer,210674,confidence_buffer,,null,,,,,,,,,,,,,,,,,
null,,thebreak,211188,break,,null,,,,,,,,,,,,,,,,,
108116.90000000596,,familiar_rating,319306,Salem,,52,Salem,4,,,,,,,,,,,,,,,
null,,confidence_buffer,319407,confidence_buffer,,null,,,,,,,,,,,,,,,,,
3685.7000000029802,,unique_rating,323093,Salem,,51,,3,,,,,,,,,,,,,,,
null,,confidence_buffer,323203,confidence_buffer,,null,,,,,,,,,,,,,,,,,
4474,,memorable_rating,327678,Salem,,52,,4,,,,,,,,,,,,,,,
null,,confidence_buffer,327782,confidence_buffer,,null,,,,,,,,,,,,,,,,,
null,,thebreak,328297,break,,null,,,,,,,,,,,,,,,,,
6118.9000000059605,,familiar_rating,334417,Carson City,,49,Carson City,1,,,,,,,,,,,,,,,
null,,confidence_buffer,334521,confidence_buffer,,null,,,,,,,,,,,,,,,,,
3116.7999999970198,,unique_rating,337638,Carson City,,49,,1,,,,,,,,,,,,,,,
null,,confidence_buffer,337746,confidence_buffer,,null,,,,,,,,,,,,,,,,,
2352.1000000089407,,memorable_rating,340099,Carson City,,49,,1,,,,,,,,,,,,,,,
null,,confidence_buffer,340207,confidence_buffer,,null,,,,,,,,,,,,,,,,,
null,,thebreak,340720,break,,null,,,,,,,,,,,,,,,,,
4559.29999999702,,familiar_rating,345280,Yakima,,53,Yakima,5,,,,,,,,,,,,,,,
null,,confidence_buffer,345386,confidence_buffer,,null,,,,,,,,,,,,,,,,,
2368.2999999970198,,unique_rating,347755,Yakima,,52,,4,,,,,,,,,,,,,,,
null,,confidence_buffer,347861,confidence_buffer,,null,,,,,,,,,,,,,,,,,
1320.9000000059605,,probe_rating,349182,probe_rating,,49,,,1,1,,,,,,,,,,,,,
null,,confidence_buffer,349291,confidence_buffer,,null,,,,,,,,,,,,,,,,,
2467.7999999970198,,memorable_rating,351759,Yakima,,51,,3,,,,,,,,,,,,,,,
null,,confidence_buffer,351876,confidence_buffer,,null,,,,,,,,,,,,,,,,,
null,,thebreak,352391,break,,null,,,,,,,,,,,,,,,,,
14552.800000011921,,familiar_rating,366944,Annapolis,,49,Annapolis,1,,,,,,,,,,,,,,,
null,,confidence_buffer,367048,confidence_buffer,,null,,,,,,,,,,,,,,,,,
2368.0999999940395,,unique_rating,369416,Annapolis,,52,,4,,,,,,,,,,,,,,,
null,,confidence_buffer,369531,confidence_buffer,,null,,,,,,,,,,,,,,,,,
1400.7000000029802,,memorable_rating,370933,Annapolis,,51,,3,,,,,,,,,,,,,,,
null,,confidence_buffer,371041,confidence_buffer,,null,,,,,,,,,,,,,,,,,
null,,thebreak,371563,break,,null,,,,,,,,,,,,,,,,,
5783.199999988079,,familiar_rating,377347,Dover,,49,Dover,1,,,,,,,,,,,,,,,
null,,confidence_buffer,377460,confidence_buffer,,null,,,,,,,,,,,,,,,,,
4342.4000000059605,,probe_rating,381803,probe_rating,,51,,,3,1,,,,,,,,,,,,,
null,,confidence_buffer,381922,confidence_buffer,,null,,,,,,,,,,,,,,,,,
2317.2999999970198,,unique_rating,384240,Dover,,50,,2,,,,,,,,,,,,,,,
null,,confidence_buffer,384359,confidence_buffer,,null,,,,,,,,,,,,,,,,,
1968.7000000029802,,memorable_rating,386328,Dover,,50,,2,,,,,,,,,,,,,,,
null,,confidence_buffer,386444,confidence_buffer,,null,,,,,,,,,,,,,,,,,
null,,thebreak,386954,break,,null,,,,,,,,,,,,,,,,,
2357.5,,familiar_rating,389312,Cambridge,,50,Cambridge,2,,,,,,,,,,,,,,,
null,,confidence_buffer,389418,confidence_buffer,,null,,,,,,,,,,,,,,,,,
2487,,unique_rating,391906,Cambridge,,50,,2,,,,,,,,,,,,,,,
null,,confidence_buffer,392022,confidence_buffer,,null,,,,,,,,,,,,,,,,,
1792.1000000089407,,memorable_rating,393814,Cambridge,,51,,3,,,,,,,,,,,,,,,
null,,confidence_buffer,393925,confidence_buffer,,null,,,,,,,,,,,,,,,,,
null,,thebreak,394440,break,,null,,,,,,,,,,,,,,,,,
28925.29999999702,,familiar_rating,423366,McKinney,,51,McKinney,3,,,,,,,,,,,,,,,
null,,confidence_buffer,423482,confidence_buffer,,null,,,,,,,,,,,,,,,,,
3690.5999999940395,,probe_rating,427173,probe_rating,,49,,,1,1,,,,,,,,,,,,,
null,,confidence_buffer,427283,confidence_buffer,,null,,,,,,,,,,,,,,,,,
2437.0999999940395,,unique_rating,429720,McKinney,,50,,2,,,,,,,,,,,,,,,
null,,confidence_buffer,429828,confidence_buffer,,null,,,,,,,,,,,,,,,,,
976.1999999880791,,memorable_rating,430805,McKinney,,50,,2,,,,,,,,,,,,,,,
null,,confidence_buffer,430919,confidence_buffer,,null,,,,,,,,,,,,,,,,,
null,,thebreak,431422,break,,null,,,,,,,,,,,,,,,,,
23480,,familiar_rating,454902,Cheyenne,,49,Cheyenne,1,,,,,,,,,,,,,,,
null,,confidence_buffer,455017,confidence_buffer,,null,,,,,,,,,,,,,,,,,
1603.5,,unique_rating,456621,Cheyenne,,50,,2,,,,,,,,,,,,,,,
null,,confidence_buffer,456730,confidence_buffer,,null,,,,,,,,,,,,,,,,,
1232,,memorable_rating,457963,Cheyenne,,50,,2,,,,,,,,,,,,,,,
null,,confidence_buffer,458078,confidence_buffer,,null,,,,,,,,,,,,,,,,,
null,,thebreak,458594,break,,null,,,,,,,,,,,,,,,,,
4179.70000000298,,familiar_rating,462774,Berkeley,,50,Berkeley,2,,,,,,,,,,,,,,,
null,,confidence_buffer,462884,confidence_buffer,,null,,,,,,,,,,,,,,,,,
2085.7999999970198,,unique_rating,464970,Berkeley,,51,,3,,,,,,,,,,,,,,,
null,,confidence_buffer,465073,confidence_buffer,,null,,,,,,,,,,,,,,,,,
1080.2999999970198,,memorable_rating,466154,Berkeley,,51,,3,,,,,,,,,,,,,,,
null,,confidence_buffer,466256,confidence_buffer,,null,,,,,,,,,,,,,,,,,
null,,thebreak,466766,break,,null,,,,,,,,,,,,,,,,,
2721.4000000059605,,familiar_rating,469488,Toledo,,51,Toledo,3,,,,,,,,,,,,,,,
null,,confidence_buffer,469591,confidence_buffer,,null,,,,,,,,,,,,,,,,,
1298.7999999970198,,unique_rating,470891,Toledo,,51,,3,,,,,,,,,,,,,,,
null,,confidence_buffer,471000,confidence_buffer,,null,,,,,,,,,,,,,,,,,
967.4000000059605,,probe_rating,471968,probe_rating,,49,,,1,1,,,,,,,,,,,,,
null,,confidence_buffer,472078,confidence_buffer,,null,,,,,,,,,,,,,,,,,
2004.7000000029802,,memorable_rating,474083,Toledo,,51,,3,,,,,,,,,,,,,,,
null,,confidence_buffer,474184,confidence_buffer,,null,,,,,,,,,,,,,,,,,
null,,thebreak,474689,break,,null,,,,,,,,,,,,,,,,,
25146.70000000298,,familiar_rating,499836,New Haven,,49,New Haven,1,,,,,,,,,,,,,,,
null,,confidence_buffer,499938,confidence_buffer,,null,,,,,,,,,,,,,,,,,
1215.5999999940395,,unique_rating,501154,New Haven,,51,,3,,,,,,,,,,,,,,,
null,,confidence_buffer,501269,confidence_buffer,,null,,,,,,,,,,,,,,,,,
1146.9000000059605,,memorable_rating,502417,New Haven,,51,,3,,,,,,,,,,,,,,,
null,,confidence_buffer,502532,confidence_buffer,,null,,,,,,,,,,,,,,,,,
null,,thebreak,503047,break,,null,,,,,,,,,,,,,,,,,
3619,,familiar_rating,506666,Newport News,,49,Newport News,1,,,,,,,,,,,,,,,
null,,confidence_buffer,506767,confidence_buffer,,null,,,,,,,,,,,,,,,,,
1968.5,,unique_rating,508736,Newport News,,52,,4,,,,,,,,,,,,,,,
null,,confidence_buffer,508836,confidence_buffer,,null,,,,,,,,,,,,,,,,,
2880.6000000089407,,memorable_rating,511717,Newport News,,51,,3,,,,,,,,,,,,,,,
null,,confidence_buffer,511819,confidence_buffer,,null,,,,,,,,,,,,,,,,,
1064,,probe_rating,512883,probe_rating,,49,,,1,1,,,,,,,,,,,,,
null,,confidence_buffer,513000,confidence_buffer,,null,,,,,,,,,,,,,,,,,
null,,thebreak,513515,break,,null,,,,,,,,,,,,,,,,,
17784.89999999106,,familiar_rating,531301,Rock Springs,,49,Rock Springs,1,,,,,,,,,,,,,,,
null,,confidence_buffer,531402,confidence_buffer,,null,,,,,,,,,,,,,,,,,
2382.0999999940395,,unique_rating,533784,Rock Springs,,51,,3,,,,,,,,,,,,,,,
null,,confidence_buffer,533886,confidence_buffer,,null,,,,,,,,,,,,,,,,,
1052,,memorable_rating,534938,Rock Springs,,51,,3,,,,,,,,,,,,,,,
null,,confidence_buffer,535053,confidence_buffer,,null,,,,,,,,,,,,,,,,,
null,,thebreak,535563,break,,null,,,,,,,,,,,,,,,,,
2239.1000000089407,,familiar_rating,537802,Frankfort,,49,Frankfort,1,,,,,,,,,,,,,,,
null,,confidence_buffer,537903,confidence_buffer,,null,,,,,,,,,,,,,,,,,
4096.79999999702,,unique_rating,542001,Frankfort,,52,,4,,,,,,,,,,,,,,,
null,,confidence_buffer,542109,confidence_buffer,,null,,,,,,,,,,,,,,,,,
1268.800000011921,,memorable_rating,543379,Frankfort,,51,,3,,,,,,,,,,,,,,,
null,,confidence_buffer,543485,confidence_buffer,,null,,,,,,,,,,,,,,,,,
null,,thebreak,543986,break,,null,,,,,,,,,,,,,,,,,
2633.5999999940395,,familiar_rating,546620,Decatur,,51,Decatur,3,,,,,,,,,,,,,,,
null,,confidence_buffer,546732,confidence_buffer,,null,,,,,,,,,,,,,,,,,
3796.1000000089407,,unique_rating,550528,Decatur,,52,,4,,,,,,,,,,,,,,,
null,,confidence_buffer,550636,confidence_buffer,,null,,,,,,,,,,,,,,,,,
2648.7999999970198,,memorable_rating,553285,Decatur,,51,,3,,,,,,,,,,,,,,,
null,,confidence_buffer,553391,confidence_buffer,,null,,,,,,,,,,,,,,,,,
1250.2000000029802,,probe_rating,554642,probe_rating,,52,,,4,1,,,,,,,,,,,,,
null,,confidence_buffer,554765,confidence_buffer,,null,,,,,,,,,,,,,,,,,
null,,thebreak,555267,break,,null,,,,,,,,,,,,,,,,,
2221.699999988079,,familiar_rating,557489,Las Cruces,,49,Las Cruces,1,,,,,,,,,,,,,,,
null,,confidence_buffer,557595,confidence_buffer,,null,,,,,,,,,,,,,,,,,
6226.300000011921,,unique_rating,563821,Las Cruces,,53,,5,,,,,,,,,,,,,,,
null,,confidence_buffer,563924,confidence_buffer,,null,,,,,,,,,,,,,,,,,
1596.2999999970198,,memorable_rating,565520,Las Cruces,,51,,3,,,,,,,,,,,,,,,
null,,confidence_buffer,565626,confidence_buffer,,null,,,,,,,,,,,,,,,,,
null,,thebreak,566135,break,,null,,,,,,,,,,,,,,,,,
3057.800000011921,,familiar_rating,569193,Montpelier,,49,Montpelier,1,,,,,,,,,,,,,,,
null,,confidence_buffer,569313,confidence_buffer,,null,,,,,,,,,,,,,,,,,
1993.699999988079,,unique_rating,571307,Montpelier,,51,,3,,,,,,,,,,,,,,,
null,,confidence_buffer,571409,confidence_buffer,,null,,,,,,,,,,,,,,,,,
2433.7999999970198,,memorable_rating,573844,Montpelier,,50,,2,,,,,,,,,,,,,,,
null,,confidence_buffer,573953,confidence_buffer,,null,,,,,,,,,,,,,,,,,
null,,thebreak,574453,break,,null,,,,,,,,,,,,,,,,,
1370.2999999970198,,familiar_rating,575824,Dothan,,49,Dothan,1,,,,,,,,,,,,,,,
null,,confidence_buffer,575932,confidence_buffer,,null,,,,,,,,,,,,,,,,,
1154.699999988079,,probe_rating,577087,probe_rating,,50,,,2,1,,,,,,,,,,,,,
null,,confidence_buffer,577204,confidence_buffer,,null,,,,,,,,,,,,,,,,,
1795.7000000029802,,unique_rating,579000,Dothan,,51,,3,,,,,,,,,,,,,,,
null,,confidence_buffer,579111,confidence_buffer,,null,,,,,,,,,,,,,,,,,
1656.9000000059605,,memorable_rating,580768,Dothan,,50,,2,,,,,,,,,,,,,,,
null,,confidence_buffer,580880,confidence_buffer,,null,,,,,,,,,,,,,,,,,
null,,thebreak,581394,break,,null,,,,,,,,,,,,,,,,,
2961.699999988079,,familiar_rating,584356,Peoria,,50,Peoria,2,,,,,,,,,,,,,,,
null,,confidence_buffer,584464,confidence_buffer,,null,,,,,,,,,,,,,,,,,
2016.1000000089407,,unique_rating,586480,Peoria,,52,,4,,,,,,,,,,,,,,,
null,,confidence_buffer,586594,confidence_buffer,,null,,,,,,,,,,,,,,,,,
2024.5,,memorable_rating,588619,Peoria,,51,,3,,,,,,,,,,,,,,,
null,,confidence_buffer,588720,confidence_buffer,,null,,,,,,,,,,,,,,,,,
null,,thebreak,589235,break,,null,,,,,,,,,,,,,,,,,
1993.699999988079,,familiar_rating,591229,Stamford,,49,Stamford,1,,,,,,,,,,,,,,,
null,,confidence_buffer,591337,confidence_buffer,,null,,,,,,,,,,,,,,,,,
1185.2999999970198,,unique_rating,592523,Stamford,,50,,2,,,,,,,,,,,,,,,
null,,confidence_buffer,592640,confidence_buffer,,null,,,,,,,,,,,,,,,,,
1642.7999999970198,,memorable_rating,594283,Stamford,,50,,2,,,,,,,,,,,,,,,
null,,confidence_buffer,594391,confidence_buffer,,null,,,,,,,,,,,,,,,,,
null,,thebreak,594921,break,,null,,,,,,,,,,,,,,,,,
2141.8999999910593,,familiar_rating,597064,Santa Monica,,51,Santa Monica,3,,,,,,,,,,,,,,,
null,,confidence_buffer,597176,confidence_buffer,,null,,,,,,,,,,,,,,,,,
2001.6000000089407,,unique_rating,599178,Santa Monica,,50,,2,,,,,,,,,,,,,,,
null,,confidence_buffer,599292,confidence_buffer,,null,,,,,,,,,,,,,,,,,
2099.3999999910593,,memorable_rating,601391,Santa Monica,,53,,5,,,,,,,,,,,,,,,
null,,confidence_buffer,601494,confidence_buffer,,null,,,,,,,,,,,,,,,,,
null,,thebreak,602001,break,,null,,,,,,,,,,,,,,,,,
25592.60000000894,,intro_0,627593,instruct,,32,,,,,,,,,,,,,,,,,
16124.20000000298,,intro_1,643718,instruct,,32,,,,,,,,,,,,,,,,,
45858.40000000596,,intro_2,689577,instruct,,32,,,,,,,,,,,,,,,,,
null,,instruct_dir_4,691094,instruct,,null,,,,,,,,,,,,,,,,,
8188.600000008941,,realistic_rating,699283,Gainesville,,53,Gainesville,5,,,,,,,,,,,,,,,
null,,confidence_buffer,699401,confidence_buffer,,null,,,,,,,,,,,,,,,,,
2070.0999999940395,,pt2_unique_rating,701472,Gainesville,,52,,4,,,,,,,,,,,,,,,
null,,confidence_buffer,701579,confidence_buffer,,null,,,,,,,,,,,,,,,,,
1988.4000000059605,,probe_rating,703568,probe_rating,,53,,,5,1,,,,,,,,,,,,,
null,,confidence_buffer,703670,confidence_buffer,,null,,,,,,,,,,,,,,,,,
3129.4000000059605,,pt2_memorable_rating,706799,Gainesville,,51,,3,,,,,,,,,,,,,,,
null,,confidence_buffer,706901,confidence_buffer,,null,,,,,,,,,,,,,,,,,
2798.5999999940395,,recognition_phase,709700,Gainesville,,52,,,,,new,1,1,,,,,,,,,,
null,,confidence_buffer,709814,confidence_buffer,,null,,,,,,,,,,,,,,,,,
null,,thebreak,710328,break,,null,,,,,,,,,,,,,,,,,
5158,,realistic_rating,715487,McKinney,,53,McKinney,5,,,,,,,,,,,,,,,
null,,confidence_buffer,715602,confidence_buffer,,null,,,,,,,,,,,,,,,,,
3176.2000000029802,,pt2_unique_rating,718779,McKinney,,50,,2,,,,,,,,,,,,,,,
null,,confidence_buffer,718886,confidence_buffer,,null,,,,,,,,,,,,,,,,,
3424.2000000029802,,pt2_memorable_rating,722311,McKinney,,50,,2,,,,,,,,,,,,,,,
null,,confidence_buffer,722424,confidence_buffer,,null,,,,,,,,,,,,,,,,,
2873.4000000059605,,recognition_phase,725298,McKinney,,49,,,,,old,1,1,,,,,,,,,,
null,,confidence_buffer,725406,confidence_buffer,,null,,,,,,,,,,,,,,,,,
null,,thebreak,725922,break,,null,,,,,,,,,,,,,,,,,
3708.3999999910593,,realistic_rating,729631,Newport News,,51,Newport News,3,,,,,,,,,,,,,,,
null,,confidence_buffer,729744,confidence_buffer,,null,,,,,,,,,,,,,,,,,
3008.800000011921,,pt2_unique_rating,732753,Newport News,,51,,3,,,,,,,,,,,,,,,
null,,confidence_buffer,732856,confidence_buffer,,null,,,,,,,,,,,,,,,,,
4552.70000000298,,pt2_memorable_rating,737409,Newport News,,51,,3,,,,,,,,,,,,,,,
null,,confidence_buffer,737522,confidence_buffer,,null,,,,,,,,,,,,,,,,,
3028.2999999970198,,recognition_phase,740551,Newport News,,49,,,,,old,1,1,,,,,,,,,,
null,,confidence_buffer,740658,confidence_buffer,,null,,,,,,,,,,,,,,,,,
null,,thebreak,741159,break,,null,,,,,,,,,,,,,,,,,
2605.2000000029802,,realistic_rating,743764,Pueblo,,53,Pueblo,5,,,,,,,,,,,,,,,
null,,confidence_buffer,743881,confidence_buffer,,null,,,,,,,,,,,,,,,,,
2057.9000000059605,,pt2_unique_rating,745939,Pueblo,,50,,2,,,,,,,,,,,,,,,
null,,confidence_buffer,746048,confidence_buffer,,null,,,,,,,,,,,,,,,,,
5361.199999988079,,pt2_memorable_rating,751410,Pueblo,,51,,3,,,,,,,,,,,,,,,
null,,confidence_buffer,751516,confidence_buffer,,null,,,,,,,,,,,,,,,,,
2194.2000000029802,,recognition_phase,753710,Pueblo,,52,,,,,new,1,1,,,,,,,,,,
null,,confidence_buffer,753812,confidence_buffer,,null,,,,,,,,,,,,,,,,,
null,,thebreak,754314,break,,null,,,,,,,,,,,,,,,,,
5081.800000011921,,realistic_rating,759397,Syracuse,,53,Syracuse,5,,,,,,,,,,,,,,,
null,,confidence_buffer,759505,confidence_buffer,,null,,,,,,,,,,,,,,,,,
1115.0999999940395,,probe_rating,760621,probe_rating,,49,,,1,1,,,,,,,,,,,,,
null,,confidence_buffer,760735,confidence_buffer,,null,,,,,,,,,,,,,,,,,
2409.7000000029802,,pt2_unique_rating,763145,Syracuse,,50,,2,,,,,,,,,,,,,,,
null,,confidence_buffer,763251,confidence_buffer,,null,,,,,,,,,,,,,,,,,
1488.7000000029802,,pt2_memorable_rating,764740,Syracuse,,51,,3,,,,,,,,,,,,,,,
null,,confidence_buffer,764841,confidence_buffer,,null,,,,,,,,,,,,,,,,,
3594.7000000029802,,recognition_phase,768436,Syracuse,,51,,,,,new,1,1,,,,,,,,,,
null,,confidence_buffer,768544,confidence_buffer,,null,,,,,,,,,,,,,,,,,
null,,thebreak,769047,break,,null,,,,,,,,,,,,,,,,,
3223.0999999940395,,realistic_rating,772270,Youngstown,,53,Youngstown,5,,,,,,,,,,,,,,,
null,,confidence_buffer,772375,confidence_buffer,,null,,,,,,,,,,,,,,,,,
4405.899999991059,,pt2_unique_rating,776781,Youngstown,,51,,3,,,,,,,,,,,,,,,
null,,confidence_buffer,776891,confidence_buffer,,null,,,,,,,,,,,,,,,,,
977.0999999940395,,pt2_memorable_rating,777868,Youngstown,,51,,3,,,,,,,,,,,,,,,
null,,confidence_buffer,777984,confidence_buffer,,null,,,,,,,,,,,,,,,,,
3744,,recognition_phase,781729,Youngstown,,52,,,,,new,1,1,,,,,,,,,,
null,,confidence_buffer,781830,confidence_buffer,,null,,,,,,,,,,,,,,,,,
null,,thebreak,782345,break,,null,,,,,,,,,,,,,,,,,
2211.5,,realistic_rating,784557,Ann Arbor,,52,Ann Arbor,4,,,,,,,,,,,,,,,
null,,confidence_buffer,784665,confidence_buffer,,null,,,,,,,,,,,,,,,,,
4803.5,,pt2_unique_rating,789469,Ann Arbor,,51,,3,,,,,,,,,,,,,,,
null,,confidence_buffer,789576,confidence_buffer,,null,,,,,,,,,,,,,,,,,
1079,,pt2_memorable_rating,790656,Ann Arbor,,51,,3,,,,,,,,,,,,,,,
null,,confidence_buffer,790762,confidence_buffer,,null,,,,,,,,,,,,,,,,,
4495.899999991059,,recognition_phase,795259,Ann Arbor,,51,,,,,new,1,1,,,,,,,,,,
null,,confidence_buffer,795360,confidence_buffer,,null,,,,,,,,,,,,,,,,,
null,,thebreak,795875,break,,null,,,,,,,,,,,,,,,,,
2069.2999999970198,,realistic_rating,797945,Boise,,53,Boise,5,,,,,,,,,,,,,,,
null,,confidence_buffer,798056,confidence_buffer,,null,,,,,,,,,,,,,,,,,
4203.4000000059605,,pt2_unique_rating,802260,Boise,,50,,2,,,,,,,,,,,,,,,
null,,confidence_buffer,802375,confidence_buffer,,null,,,,,,,,,,,,,,,,,
1077,,pt2_memorable_rating,803452,Boise,,51,,3,,,,,,,,,,,,,,,
null,,confidence_buffer,803562,confidence_buffer,,null,,,,,,,,,,,,,,,,,
2200.0999999940395,,recognition_phase,805763,Boise,,49,,,,,old,1,1,,,,,,,,,,
null,,confidence_buffer,805875,confidence_buffer,,null,,,,,,,,,,,,,,,,,
null,,thebreak,806391,break,,null,,,,,,,,,,,,,,,,,
2098.2000000029802,,realistic_rating,808490,Pasadena,,53,Pasadena,5,,,,,,,,,,,,,,,
null,,confidence_buffer,808595,confidence_buffer,,null,,,,,,,,,,,,,,,,,
11226.699999988079,,pt2_unique_rating,819822,Pasadena,,51,,3,,,,,,,,,,,,,,,
null,,confidence_buffer,819936,confidence_buffer,,null,,,,,,,,,,,,,,,,,
1096.5,,pt2_memorable_rating,821033,Pasadena,,51,,3,,,,,,,,,,,,,,,
null,,confidence_buffer,821141,confidence_buffer,,null,,,,,,,,,,,,,,,,,
2100.7000000029802,,recognition_phase,823243,Pasadena,,52,,,,,new,1,1,,,,,,,,,,
null,,confidence_buffer,823345,confidence_buffer,,null,,,,,,,,,,,,,,,,,
null,,thebreak,823860,break,,null,,,,,,,,,,,,,,,,,
3355.0999999940395,,realistic_rating,827215,Abilene,,52,Abilene,4,,,,,,,,,,,,,,,
null,,confidence_buffer,827325,confidence_buffer,,null,,,,,,,,,,,,,,,,,
4821.899999991059,,pt2_unique_rating,832147,Abilene,,52,,4,,,,,,,,,,,,,,,
null,,confidence_buffer,832257,confidence_buffer,,null,,,,,,,,,,,,,,,,,
2383.7000000029802,,pt2_memorable_rating,834641,Abilene,,50,,2,,,,,,,,,,,,,,,
null,,confidence_buffer,834756,confidence_buffer,,null,,,,,,,,,,,,,,,,,
2481.5,,recognition_phase,837238,Abilene,,52,,,,,new,1,1,,,,,,,,,,
null,,confidence_buffer,837349,confidence_buffer,,null,,,,,,,,,,,,,,,,,
null,,thebreak,837860,break,,null,,,,,,,,,,,,,,,,,
2954.5999999940395,,realistic_rating,840815,Yakima,,53,Yakima,5,,,,,,,,,,,,,,,
null,,confidence_buffer,840929,confidence_buffer,,null,,,,,,,,,,,,,,,,,
100944.59999999404,,pt2_unique_rating,941874,Yakima,,52,,4,,,,,,,,,,,,,,,
null,,confidence_buffer,941977,confidence_buffer,,null,,,,,,,,,,,,,,,,,
1664.3999999910593,,pt2_memorable_rating,943641,Yakima,,52,,4,,,,,,,,,,,,,,,
null,,confidence_buffer,943759,confidence_buffer,,null,,,,,,,,,,,,,,,,,
1530.7999999970198,,recognition_phase,945290,Yakima,,49,,,,,old,1,1,,,,,,,,,,
null,,confidence_buffer,945406,confidence_buffer,,null,,,,,,,,,,,,,,,,,
null,,thebreak,945907,break,,null,,,,,,,,,,,,,,,,,
2889.0999999940395,,realistic_rating,948797,Fort Collins,,53,Fort Collins,5,,,,,,,,,,,,,,,
null,,confidence_buffer,948899,confidence_buffer,,null,,,,,,,,,,,,,,,,,
1700.2000000029802,,pt2_unique_rating,950600,Fort Collins,,50,,2,,,,,,,,,,,,,,,
null,,confidence_buffer,950702,confidence_buffer,,null,,,,,,,,,,,,,,,,,
2168.3999999910593,,pt2_memorable_rating,952871,Fort Collins,,51,,3,,,,,,,,,,,,,,,
null,,confidence_buffer,952986,confidence_buffer,,null,,,,,,,,,,,,,,,,,
2173.4000000059605,,recognition_phase,955160,Fort Collins,,52,,,,,new,1,1,,,,,,,,,,
null,,confidence_buffer,955267,confidence_buffer,,null,,,,,,,,,,,,,,,,,
null,,thebreak,955782,break,,null,,,,,,,,,,,,,,,,,
3326.2999999970198,,realistic_rating,959109,Helena,,53,Helena,5,,,,,,,,,,,,,,,
null,,confidence_buffer,959235,confidence_buffer,,null,,,,,,,,,,,,,,,,,
1870.800000011921,,pt2_unique_rating,961106,Helena,,50,,2,,,,,,,,,,,,,,,
null,,confidence_buffer,961220,confidence_buffer,,null,,,,,,,,,,,,,,,,,
1411.4000000059605,,pt2_memorable_rating,962632,Helena,,50,,2,,,,,,,,,,,,,,,
null,,confidence_buffer,962735,confidence_buffer,,null,,,,,,,,,,,,,,,,,
1183.5,,probe_rating,963919,probe_rating,,53,,,5,1,,,,,,,,,,,,,
null,,confidence_buffer,964021,confidence_buffer,,null,,,,,,,,,,,,,,,,,
3228.300000011921,,recognition_phase,967250,Helena,,52,,,,,new,1,1,,,,,,,,,,
null,,confidence_buffer,967358,confidence_buffer,,null,,,,,,,,,,,,,,,,,
null,,thebreak,967861,break,,null,,,,,,,,,,,,,,,,,
3031.1000000089407,,realistic_rating,970893,Norfolk,,53,Norfolk,5,,,,,,,,,,,,,,,
null,,confidence_buffer,970994,confidence_buffer,,null,,,,,,,,,,,,,,,,,
1797.5,,pt2_unique_rating,972792,Norfolk,,52,,4,,,,,,,,,,,,,,,
null,,confidence_buffer,972908,confidence_buffer,,null,,,,,,,,,,,,,,,,,
1763.9000000059605,,pt2_memorable_rating,974672,Norfolk,,51,,3,,,,,,,,,,,,,,,
null,,confidence_buffer,974782,confidence_buffer,,null,,,,,,,,,,,,,,,,,
1759.4000000059605,,recognition_phase,976542,Norfolk,,49,,,,,old,1,1,,,,,,,,,,
null,,confidence_buffer,976656,confidence_buffer,,null,,,,,,,,,,,,,,,,,
null,,thebreak,977157,break,,null,,,,,,,,,,,,,,,,,
2486.800000011921,,realistic_rating,979645,Berkeley,,53,Berkeley,5,,,,,,,,,,,,,,,
null,,confidence_buffer,979748,confidence_buffer,,null,,,,,,,,,,,,,,,,,
1605.199999988079,,pt2_unique_rating,981354,Berkeley,,50,,2,,,,,,,,,,,,,,,
null,,confidence_buffer,981463,confidence_buffer,,null,,,,,,,,,,,,,,,,,
708.1000000089407,,pt2_memorable_rating,982172,Berkeley,,50,,2,,,,,,,,,,,,,,,
null,,confidence_buffer,982286,confidence_buffer,,null,,,,,,,,,,,,,,,,,
1402.5,,recognition_phase,983689,Berkeley,,49,,,,,old,1,1,,,,,,,,,,
null,,confidence_buffer,983803,confidence_buffer,,null,,,,,,,,,,,,,,,,,
null,,thebreak,984317,break,,null,,,,,,,,,,,,,,,,,
26206.5,,realistic_rating,1010524,Annapolis,,53,Annapolis,5,,,,,,,,,,,,,,,
null,,confidence_buffer,1010640,confidence_buffer,,null,,,,,,,,,,,,,,,,,
1831.5999999940395,,pt2_unique_rating,1012473,Annapolis,,51,,3,,,,,,,,,,,,,,,
null,,confidence_buffer,1012585,confidence_buffer,,null,,,,,,,,,,,,,,,,,
1214,,pt2_memorable_rating,1013799,Annapolis,,50,,2,,,,,,,,,,,,,,,
null,,confidence_buffer,1013906,confidence_buffer,,null,,,,,,,,,,,,,,,,,
1665.4000000059605,,recognition_phase,1015572,Annapolis,,49,,,,,old,1,1,,,,,,,,,,
null,,confidence_buffer,1015688,confidence_buffer,,null,,,,,,,,,,,,,,,,,
null,,thebreak,1016189,break,,null,,,,,,,,,,,,,,,,,
2258.5,,realistic_rating,1018448,New Haven,,53,New Haven,5,,,,,,,,,,,,,,,
null,,confidence_buffer,1018552,confidence_buffer,,null,,,,,,,,,,,,,,,,,
1565.4000000059605,,pt2_unique_rating,1020118,New Haven,,52,,4,,,,,,,,,,,,,,,
null,,confidence_buffer,1020220,confidence_buffer,,null,,,,,,,,,,,,,,,,,
1955.5,,pt2_memorable_rating,1022176,New Haven,,51,,3,,,,,,,,,,,,,,,
null,,confidence_buffer,1022283,confidence_buffer,,null,,,,,,,,,,,,,,,,,
976.2000000029802,,recognition_phase,1023259,New Haven,,49,,,,,old,1,1,,,,,,,,,,
null,,confidence_buffer,1023375,confidence_buffer,,null,,,,,,,,,,,,,,,,,
null,,thebreak,1023892,break,,null,,,,,,,,,,,,,,,,,
1697.3999999910593,,realistic_rating,1025590,Toledo,,53,Toledo,5,,,,,,,,,,,,,,,
null,,confidence_buffer,1025703,confidence_buffer,,null,,,,,,,,,,,,,,,,,
1288.5,,pt2_unique_rating,1026992,Toledo,,51,,3,,,,,,,,,,,,,,,
null,,confidence_buffer,1027105,confidence_buffer,,null,,,,,,,,,,,,,,,,,
957.7999999970198,,pt2_memorable_rating,1028063,Toledo,,51,,3,,,,,,,,,,,,,,,
null,,confidence_buffer,1028188,confidence_buffer,,null,,,,,,,,,,,,,,,,,
1036.7999999970198,,recognition_phase,1029225,Toledo,,49,,,,,old,1,1,,,,,,,,,,
null,,confidence_buffer,1029338,confidence_buffer,,null,,,,,,,,,,,,,,,,,
null,,thebreak,1029845,break,,null,,,,,,,,,,,,,,,,,
3286.2999999970198,,realistic_rating,1033132,Fort Wayne,,53,Fort Wayne,5,,,,,,,,,,,,,,,
null,,confidence_buffer,1033235,confidence_buffer,,null,,,,,,,,,,,,,,,,,
2196.5999999940395,,pt2_unique_rating,1035432,Fort Wayne,,50,,2,,,,,,,,,,,,,,,
null,,confidence_buffer,1035533,confidence_buffer,,null,,,,,,,,,,,,,,,,,
1097,,pt2_memorable_rating,1036630,Fort Wayne,,51,,3,,,,,,,,,,,,,,,
null,,confidence_buffer,1036732,confidence_buffer,,null,,,,,,,,,,,,,,,,,
930.7000000029802,,recognition_phase,1037663,Fort Wayne,,49,,,,,old,1,1,,,,,,,,,,
null,,confidence_buffer,1037773,confidence_buffer,,null,,,,,,,,,,,,,,,,,
null,,thebreak,1038282,break,,null,,,,,,,,,,,,,,,,,
2746.6000000089407,,realistic_rating,1041029,Bozeman,,53,Bozeman,5,,,,,,,,,,,,,,,
null,,confidence_buffer,1041130,confidence_buffer,,null,,,,,,,,,,,,,,,,,
1311.2999999970198,,probe_rating,1042441,probe_rating,,52,,,4,1,,,,,,,,,,,,,
null,,confidence_buffer,1042559,confidence_buffer,,null,,,,,,,,,,,,,,,,,
2196.0999999940395,,pt2_unique_rating,1044755,Bozeman,,51,,3,,,,,,,,,,,,,,,
null,,confidence_buffer,1044861,confidence_buffer,,null,,,,,,,,,,,,,,,,,
937.8999999910593,,pt2_memorable_rating,1045799,Bozeman,,51,,3,,,,,,,,,,,,,,,
null,,confidence_buffer,1045911,confidence_buffer,,null,,,,,,,,,,,,,,,,,
2796.7999999970198,,recognition_phase,1048708,Bozeman,,51,,,,,new,1,1,,,,,,,,,,
null,,confidence_buffer,1048824,confidence_buffer,,null,,,,,,,,,,,,,,,,,
null,,thebreak,1049344,break,,null,,,,,,,,,,,,,,,,,
2596.7999999970198,,realistic_rating,1051941,Bellingham,,53,Bellingham,5,,,,,,,,,,,,,,,
null,,confidence_buffer,1052043,confidence_buffer,,null,,,,,,,,,,,,,,,,,
2878,,pt2_unique_rating,1054921,Bellingham,,51,,3,,,,,,,,,,,,,,,
null,,confidence_buffer,1055038,confidence_buffer,,null,,,,,,,,,,,,,,,,,
1691.3999999910593,,pt2_memorable_rating,1056730,Bellingham,,51,,3,,,,,,,,,,,,,,,
null,,confidence_buffer,1056845,confidence_buffer,,null,,,,,,,,,,,,,,,,,
3095.2000000029802,,recognition_phase,1059941,Bellingham,,52,,,,,new,1,1,,,,,,,,,,
null,,confidence_buffer,1060047,confidence_buffer,,null,,,,,,,,,,,,,,,,,
null,,thebreak,1060557,break,,null,,,,,,,,,,,,,,,,,
1628.5,,realistic_rating,1062186,Salem,,53,Salem,5,,,,,,,,,,,,,,,
null,,confidence_buffer,1062288,confidence_buffer,,null,,,,,,,,,,,,,,,,,
3164.800000011921,,pt2_unique_rating,1065453,Salem,,51,,3,,,,,,,,,,,,,,,
null,,confidence_buffer,1065556,confidence_buffer,,null,,,,,,,,,,,,,,,,,
1695.2000000029802,,probe_rating,1067251,probe_rating,,50,,,2,1,,,,,,,,,,,,,
null,,confidence_buffer,1067352,confidence_buffer,,null,,,,,,,,,,,,,,,,,
2793.2000000029802,,pt2_memorable_rating,1070146,Salem,,53,,5,,,,,,,,,,,,,,,
null,,confidence_buffer,1070251,confidence_buffer,,null,,,,,,,,,,,,,,,,,
2857.3999999910593,,recognition_phase,1073109,Salem,,49,,,,,old,1,1,,,,,,,,,,
null,,confidence_buffer,1073220,confidence_buffer,,null,,,,,,,,,,,,,,,,,
null,,thebreak,1073735,break,,null,,,,,,,,,,,,,,,,,
4296.9000000059605,,realistic_rating,1078033,Rock Springs,,52,Rock Springs,4,,,,,,,,,,,,,,,
null,,confidence_buffer,1078142,confidence_buffer,,null,,,,,,,,,,,,,,,,,
2183.4000000059605,,pt2_unique_rating,1080326,Rock Springs,,51,,3,,,,,,,,,,,,,,,
null,,confidence_buffer,1080430,confidence_buffer,,null,,,,,,,,,,,,,,,,,
803.8999999910593,,pt2_memorable_rating,1081234,Rock Springs,,51,,3,,,,,,,,,,,,,,,
null,,confidence_buffer,1081346,confidence_buffer,,null,,,,,,,,,,,,,,,,,
2476.2000000029802,,recognition_phase,1083823,Rock Springs,,49,,,,,old,1,1,,,,,,,,,,
null,,confidence_buffer,1083932,confidence_buffer,,null,,,,,,,,,,,,,,,,,
null,,thebreak,1084438,break,,null,,,,,,,,,,,,,,,,,
3096.8999999910593,,realistic_rating,1087535,Fargo,,53,Fargo,5,,,,,,,,,,,,,,,
null,,confidence_buffer,1087642,confidence_buffer,,null,,,,,,,,,,,,,,,,,
1856.5,,pt2_unique_rating,1089499,Fargo,,51,,3,,,,,,,,,,,,,,,
null,,confidence_buffer,1089611,confidence_buffer,,null,,,,,,,,,,,,,,,,,
925.2999999970198,,pt2_memorable_rating,1090537,Fargo,,51,,3,,,,,,,,,,,,,,,
null,,confidence_buffer,1090641,confidence_buffer,,null,,,,,,,,,,,,,,,,,
4023.2000000029802,,recognition_phase,1094665,Fargo,,51,,,,,new,1,1,,,,,,,,,,
null,,confidence_buffer,1094769,confidence_buffer,,null,,,,,,,,,,,,,,,,,
null,,thebreak,1095297,break,,null,,,,,,,,,,,,,,,,,
21077.70000000298,,realistic_rating,1116375,Burlington,,53,Burlington,5,,,,,,,,,,,,,,,
null,,confidence_buffer,1116482,confidence_buffer,,null,,,,,,,,,,,,,,,,,
2152.5999999940395,,pt2_unique_rating,1118635,Burlington,,50,,2,,,,,,,,,,,,,,,
null,,confidence_buffer,1118750,confidence_buffer,,null,,,,,,,,,,,,,,,,,
891.2000000029802,,pt2_memorable_rating,1119642,Burlington,,50,,2,,,,,,,,,,,,,,,
null,,confidence_buffer,1119751,confidence_buffer,,null,,,,,,,,,,,,,,,,,
3437,,recognition_phase,1123189,Burlington,,51,,,,,new,1,1,,,,,,,,,,
null,,confidence_buffer,1123297,confidence_buffer,,null,,,,,,,,,,,,,,,,,
null,,thebreak,1123812,break,,null,,,,,,,,,,,,,,,,,
2402.7000000029802,,realistic_rating,1126216,Peoria,,53,Peoria,5,,,,,,,,,,,,,,,
null,,confidence_buffer,1126332,confidence_buffer,,null,,,,,,,,,,,,,,,,,
2091.5999999940395,,pt2_unique_rating,1128424,Peoria,,52,,4,,,,,,,,,,,,,,,
null,,confidence_buffer,1128531,confidence_buffer,,null,,,,,,,,,,,,,,,,,
2147.7000000029802,,pt2_memorable_rating,1130680,Peoria,,51,,3,,,,,,,,,,,,,,,
null,,confidence_buffer,1130782,confidence_buffer,,null,,,,,,,,,,,,,,,,,
1865.8999999910593,,recognition_phase,1132648,Peoria,,49,,,,,old,1,1,,,,,,,,,,
null,,confidence_buffer,1132757,confidence_buffer,,null,,,,,,,,,,,,,,,,,
null,,thebreak,1133266,break,,null,,,,,,,,,,,,,,,,,
1791.5,,realistic_rating,1135058,Boulder,,53,Boulder,5,,,,,,,,,,,,,,,
null,,confidence_buffer,1135161,confidence_buffer,,null,,,,,,,,,,,,,,,,,
3636.0999999940395,,pt2_unique_rating,1138798,Boulder,,51,,3,,,,,,,,,,,,,,,
null,,confidence_buffer,1138900,confidence_buffer,,null,,,,,,,,,,,,,,,,,
898.9000000059605,,pt2_memorable_rating,1139799,Boulder,,51,,3,,,,,,,,,,,,,,,
null,,confidence_buffer,1139906,confidence_buffer,,null,,,,,,,,,,,,,,,,,
2943.5,,recognition_phase,1142850,Boulder,,51,,,,,new,1,1,,,,,,,,,,
null,,confidence_buffer,1142951,confidence_buffer,,null,,,,,,,,,,,,,,,,,
null,,thebreak,1143454,break,,null,,,,,,,,,,,,,,,,,
55214.20000000298,,realistic_rating,1198669,Palo Alto,,53,Palo Alto,5,,,,,,,,,,,,,,,
null,,confidence_buffer,1198776,confidence_buffer,,null,,,,,,,,,,,,,,,,,
1537,,pt2_unique_rating,1200313,Palo Alto,,52,,4,,,,,,,,,,,,,,,
null,,confidence_buffer,1200419,confidence_buffer,,null,,,,,,,,,,,,,,,,,
2447.7000000029802,,pt2_memorable_rating,1202867,Palo Alto,,51,,3,,,,,,,,,,,,,,,
null,,confidence_buffer,1202969,confidence_buffer,,null,,,,,,,,,,,,,,,,,
1450.2000000029802,,recognition_phase,1204420,Palo Alto,,50,,,,,old,0,0.9642857142857143,,,,,,,,,,
null,,confidence_buffer,1204523,confidence_buffer,,null,,,,,,,,,,,,,,,,,
null,,thebreak,1205031,break,,null,,,,,,,,,,,,,,,,,
3197.800000011921,,realistic_rating,1208229,Montpelier,,52,Montpelier,4,,,,,,,,,,,,,,,
null,,confidence_buffer,1208330,confidence_buffer,,null,,,,,,,,,,,,,,,,,
2119,,pt2_unique_rating,1210449,Montpelier,,52,,4,,,,,,,,,,,,,,,
null,,confidence_buffer,1210552,confidence_buffer,,null,,,,,,,,,,,,,,,,,
1281.7000000029802,,pt2_memorable_rating,1211834,Montpelier,,51,,3,,,,,,,,,,,,,,,
null,,confidence_buffer,1211945,confidence_buffer,,null,,,,,,,,,,,,,,,,,
859.7999999970198,,recognition_phase,1212806,Montpelier,,49,,,,,old,1,0.9655172413793104,,,,,,,,,,
null,,confidence_buffer,1212908,confidence_buffer,,null,,,,,,,,,,,,,,,,,
null,,thebreak,1213423,break,,null,,,,,,,,,,,,,,,,,
2360.0999999940395,,realistic_rating,1215784,Dothan,,52,Dothan,4,,,,,,,,,,,,,,,
null,,confidence_buffer,1215885,confidence_buffer,,null,,,,,,,,,,,,,,,,,
1557.2999999970198,,pt2_unique_rating,1217443,Dothan,,51,,3,,,,,,,,,,,,,,,
null,,confidence_buffer,1217548,confidence_buffer,,null,,,,,,,,,,,,,,,,,
1306.9000000059605,,pt2_memorable_rating,1218855,Dothan,,51,,3,,,,,,,,,,,,,,,
null,,confidence_buffer,1218967,confidence_buffer,,null,,,,,,,,,,,,,,,,,
1011.1000000089407,,recognition_phase,1219979,Dothan,,49,,,,,old,1,0.9666666666666667,,,,,,,,,,
null,,confidence_buffer,1220093,confidence_buffer,,null,,,,,,,,,,,,,,,,,
null,,thebreak,1220595,break,,null,,,,,,,,,,,,,,,,,
1703.7999999970198,,realistic_rating,1222299,Ithaca,,53,Ithaca,5,,,,,,,,,,,,,,,
null,,confidence_buffer,1222408,confidence_buffer,,null,,,,,,,,,,,,,,,,,
1228.1000000089407,,probe_rating,1223637,probe_rating,,50,,,2,1,,,,,,,,,,,,,
null,,confidence_buffer,1223739,confidence_buffer,,null,,,,,,,,,,,,,,,,,
3439.1000000089407,,pt2_unique_rating,1227179,Ithaca,,52,,4,,,,,,,,,,,,,,,
null,,confidence_buffer,1227297,confidence_buffer,,null,,,,,,,,,,,,,,,,,
1419.9000000059605,,pt2_memorable_rating,1228717,Ithaca,,51,,3,,,,,,,,,,,,,,,
null,,confidence_buffer,1228828,confidence_buffer,,null,,,,,,,,,,,,,,,,,
1953.5,,recognition_phase,1230782,Ithaca,,49,,,,,old,1,0.967741935483871,,,,,,,,,,
null,,confidence_buffer,1230890,confidence_buffer,,null,,,,,,,,,,,,,,,,,
null,,thebreak,1231406,break,,null,,,,,,,,,,,,,,,,,
6388.4000000059605,,realistic_rating,1237795,Concord,,53,Concord,5,,,,,,,,,,,,,,,
null,,confidence_buffer,1237907,confidence_buffer,,null,,,,,,,,,,,,,,,,,
1705.7000000029802,,pt2_unique_rating,1239613,Concord,,51,,3,,,,,,,,,,,,,,,
null,,confidence_buffer,1239734,confidence_buffer,,null,,,,,,,,,,,,,,,,,
2068.4000000059605,,pt2_memorable_rating,1241803,Concord,,50,,2,,,,,,,,,,,,,,,
null,,confidence_buffer,1241916,confidence_buffer,,null,,,,,,,,,,,,,,,,,
1691.2000000029802,,recognition_phase,1243608,Concord,,52,,,,,new,1,0.96875,,,,,,,,,,
null,,confidence_buffer,1243721,confidence_buffer,,null,,,,,,,,,,,,,,,,,
null,,thebreak,1244235,break,,null,,,,,,,,,,,,,,,,,
3220.5,,realistic_rating,1247456,Olympia,,53,Olympia,5,,,,,,,,,,,,,,,
null,,confidence_buffer,1247563,confidence_buffer,,null,,,,,,,,,,,,,,,,,
3253,,pt2_unique_rating,1250816,Olympia,,51,,3,,,,,,,,,,,,,,,
null,,confidence_buffer,1250926,confidence_buffer,,null,,,,,,,,,,,,,,,,,
786.6000000089407,,pt2_memorable_rating,1251713,Olympia,,51,,3,,,,,,,,,,,,,,,
null,,confidence_buffer,1251815,confidence_buffer,,null,,,,,,,,,,,,,,,,,
1712.199999988079,,recognition_phase,1253528,Olympia,,52,,,,,new,1,0.9696969696969697,,,,,,,,,,
null,,confidence_buffer,1253640,confidence_buffer,,null,,,,,,,,,,,,,,,,,
null,,thebreak,1254142,break,,null,,,,,,,,,,,,,,,,,
2382.2000000029802,,realistic_rating,1256525,Carson City,,53,Carson City,5,,,,,,,,,,,,,,,
null,,confidence_buffer,1256637,confidence_buffer,,null,,,,,,,,,,,,,,,,,
2657.699999988079,,pt2_unique_rating,1259295,Carson City,,51,,3,,,,,,,,,,,,,,,
null,,confidence_buffer,1259396,confidence_buffer,,null,,,,,,,,,,,,,,,,,
486.5,,pt2_memorable_rating,1259883,Carson City,,51,,3,,,,,,,,,,,,,,,
null,,confidence_buffer,1259992,confidence_buffer,,null,,,,,,,,,,,,,,,,,
2807.7999999970198,,recognition_phase,1262801,Carson City,,50,,,,,old,1,0.9705882352941176,,,,,,,,,,
null,,confidence_buffer,1262908,confidence_buffer,,null,,,,,,,,,,,,,,,,,
null,,thebreak,1263423,break,,null,,,,,,,,,,,,,,,,,
3807.5999999940395,,realistic_rating,1267231,Las Cruces,,53,Las Cruces,5,,,,,,,,,,,,,,,
null,,confidence_buffer,1267338,confidence_buffer,,null,,,,,,,,,,,,,,,,,
1470.4000000059605,,pt2_unique_rating,1268809,Las Cruces,,52,,4,,,,,,,,,,,,,,,
null,,confidence_buffer,1268917,confidence_buffer,,null,,,,,,,,,,,,,,,,,
1361,,pt2_memorable_rating,1270278,Las Cruces,,51,,3,,,,,,,,,,,,,,,
null,,confidence_buffer,1270393,confidence_buffer,,null,,,,,,,,,,,,,,,,,
2310.6000000089407,,recognition_phase,1272704,Las Cruces,,50,,,,,old,1,0.9714285714285714,,,,,,,,,,
null,,confidence_buffer,1272813,confidence_buffer,,null,,,,,,,,,,,,,,,,,
null,,thebreak,1273328,break,,null,,,,,,,,,,,,,,,,,
53354,,realistic_rating,1326683,Marquette,,52,Marquette,4,,,,,,,,,,,,,,,
null,,confidence_buffer,1326797,confidence_buffer,,null,,,,,,,,,,,,,,,,,
2385.2000000029802,,pt2_unique_rating,1329182,Marquette,,52,,4,,,,,,,,,,,,,,,
null,,confidence_buffer,1329298,confidence_buffer,,null,,,,,,,,,,,,,,,,,
4931,,pt2_memorable_rating,1334230,Marquette,,51,,3,,,,,,,,,,,,,,,
null,,confidence_buffer,1334342,confidence_buffer,,null,,,,,,,,,,,,,,,,,
2142.7000000029802,,recognition_phase,1336486,Marquette,,50,,,,,old,0,0.9444444444444444,,,,,,,,,,
null,,confidence_buffer,1336596,confidence_buffer,,null,,,,,,,,,,,,,,,,,
null,,thebreak,1337110,break,,null,,,,,,,,,,,,,,,,,
2359.699999988079,,realistic_rating,1339470,Frankfort,,53,Frankfort,5,,,,,,,,,,,,,,,
null,,confidence_buffer,1339579,confidence_buffer,,null,,,,,,,,,,,,,,,,,
1931.5,,pt2_unique_rating,1341510,Frankfort,,51,,3,,,,,,,,,,,,,,,
null,,confidence_buffer,1341625,confidence_buffer,,null,,,,,,,,,,,,,,,,,
1062.7000000029802,,pt2_memorable_rating,1342688,Frankfort,,51,,3,,,,,,,,,,,,,,,
null,,confidence_buffer,1342797,confidence_buffer,,null,,,,,,,,,,,,,,,,,
723.4000000059605,,recognition_phase,1343521,Frankfort,,49,,,,,old,1,0.9459459459459459,,,,,,,,,,
null,,confidence_buffer,1343625,confidence_buffer,,null,,,,,,,,,,,,,,,,,
null,,thebreak,1344126,break,,null,,,,,,,,,,,,,,,,,
3159.5,,realistic_rating,1347286,Tallahassee,,53,Tallahassee,5,,,,,,,,,,,,,,,
null,,confidence_buffer,1347388,confidence_buffer,,null,,,,,,,,,,,,,,,,,
4925.399999991059,,pt2_unique_rating,1352313,Tallahassee,,52,,4,,,,,,,,,,,,,,,
null,,confidence_buffer,1352422,confidence_buffer,,null,,,,,,,,,,,,,,,,,
1534.2000000029802,,pt2_memorable_rating,1353957,Tallahassee,,52,,4,,,,,,,,,,,,,,,
null,,confidence_buffer,1354063,confidence_buffer,,null,,,,,,,,,,,,,,,,,
1296.9000000059605,,recognition_phase,1355360,Tallahassee,,52,,,,,new,1,0.9473684210526315,,,,,,,,,,
null,,confidence_buffer,1355462,confidence_buffer,,null,,,,,,,,,,,,,,,,,
null,,thebreak,1355970,break,,null,,,,,,,,,,,,,,,,,
1755,,realistic_rating,1357726,Dover,,53,Dover,5,,,,,,,,,,,,,,,
null,,confidence_buffer,1357828,confidence_buffer,,null,,,,,,,,,,,,,,,,,
1358.4000000059605,,probe_rating,1359187,probe_rating,,51,,,3,1,,,,,,,,,,,,,
null,,confidence_buffer,1359297,confidence_buffer,,null,,,,,,,,,,,,,,,,,
2023.9000000059605,,pt2_unique_rating,1361321,Dover,,51,,3,,,,,,,,,,,,,,,
null,,confidence_buffer,1361422,confidence_buffer,,null,,,,,,,,,,,,,,,,,
3476.2999999970198,,pt2_memorable_rating,1364899,Dover,,51,,3,,,,,,,,,,,,,,,
null,,confidence_buffer,1365009,confidence_buffer,,null,,,,,,,,,,,,,,,,,
678.9000000059605,,recognition_phase,1365688,Dover,,49,,,,,old,1,0.9487179487179487,,,,,,,,,,
null,,confidence_buffer,1365798,confidence_buffer,,null,,,,,,,,,,,,,,,,,
null,,thebreak,1366311,break,,null,,,,,,,,,,,,,,,,,
39544.30000001192,,realistic_rating,1405856,Cambridge,,53,Cambridge,5,,,,,,,,,,,,,,,
null,,confidence_buffer,1405959,confidence_buffer,,null,,,,,,,,,,,,,,,,,
1841.5,,pt2_unique_rating,1407801,Cambridge,,51,,3,,,,,,,,,,,,,,,
null,,confidence_buffer,1407917,confidence_buffer,,null,,,,,,,,,,,,,,,,,
35393.59999999404,,pt2_memorable_rating,1443311,Cambridge,,51,,3,,,,,,,,,,,,,,,
null,,confidence_buffer,1443423,confidence_buffer,,null,,,,,,,,,,,,,,,,,
2069.4000000059605,,recognition_phase,1445493,Cambridge,,50,,,,,old,1,0.95,,,,,,,,,,
null,,confidence_buffer,1445607,confidence_buffer,,null,,,,,,,,,,,,,,,,,
null,,thebreak,1446109,break,,null,,,,,,,,,,,,,,,,,
1829.3999999910593,,realistic_rating,1447939,Topeka,,53,Topeka,5,,,,,,,,,,,,,,,
null,,confidence_buffer,1448040,confidence_buffer,,null,,,,,,,,,,,,,,,,,
1699.7000000029802,,pt2_unique_rating,1449741,Topeka,,53,,5,,,,,,,,,,,,,,,
null,,confidence_buffer,1449843,confidence_buffer,,null,,,,,,,,,,,,,,,,,
1370.4000000059605,,pt2_memorable_rating,1451214,Topeka,,51,,3,,,,,,,,,,,,,,,
null,,confidence_buffer,1451321,confidence_buffer,,null,,,,,,,,,,,,,,,,,
1621.4000000059605,,recognition_phase,1452943,Topeka,,52,,,,,new,1,0.9512195121951219,,,,,,,,,,
null,,confidence_buffer,1453047,confidence_buffer,,null,,,,,,,,,,,,,,,,,
null,,thebreak,1453549,break,,null,,,,,,,,,,,,,,,,,
1473.2999999970198,,realistic_rating,1455022,Decatur,,53,Decatur,5,,,,,,,,,,,,,,,
null,,confidence_buffer,1455126,confidence_buffer,,null,,,,,,,,,,,,,,,,,
1510.0999999940395,,pt2_unique_rating,1456636,Decatur,,52,,4,,,,,,,,,,,,,,,
null,,confidence_buffer,1456750,confidence_buffer,,null,,,,,,,,,,,,,,,,,
1759.8999999910593,,pt2_memorable_rating,1458510,Decatur,,51,,3,,,,,,,,,,,,,,,
null,,confidence_buffer,1458626,confidence_buffer,,null,,,,,,,,,,,,,,,,,
3876.4000000059605,,recognition_phase,1462503,Decatur,,50,,,,,old,1,0.9523809523809523,,,,,,,,,,
null,,confidence_buffer,1462609,confidence_buffer,,null,,,,,,,,,,,,,,,,,
null,,thebreak,1463124,break,,null,,,,,,,,,,,,,,,,,
2460.300000011921,,realistic_rating,1465585,Santa Monica,,53,Santa Monica,5,,,,,,,,,,,,,,,
null,,confidence_buffer,1465696,confidence_buffer,,null,,,,,,,,,,,,,,,,,
3891.0999999940395,,pt2_unique_rating,1469588,Santa Monica,,51,,3,,,,,,,,,,,,,,,
null,,confidence_buffer,1469692,confidence_buffer,,null,,,,,,,,,,,,,,,,,
2022.1000000089407,,pt2_memorable_rating,1471715,Santa Monica,,52,,4,,,,,,,,,,,,,,,
null,,confidence_buffer,1471816,confidence_buffer,,null,,,,,,,,,,,,,,,,,
1252,,recognition_phase,1473069,Santa Monica,,49,,,,,old,1,0.9534883720930233,,,,,,,,,,
null,,confidence_buffer,1473173,confidence_buffer,,null,,,,,,,,,,,,,,,,,
null,,thebreak,1473688,break,,null,,,,,,,,,,,,,,,,,
2910.5,,realistic_rating,1476599,Hagerstown,,52,Hagerstown,4,,,,,,,,,,,,,,,
null,,confidence_buffer,1476701,confidence_buffer,,null,,,,,,,,,,,,,,,,,
4356.20000000298,,pt2_unique_rating,1481058,Hagerstown,,53,,5,,,,,,,,,,,,,,,
null,,confidence_buffer,1481173,confidence_buffer,,null,,,,,,,,,,,,,,,,,
2852,,pt2_memorable_rating,1484025,Hagerstown,,52,,4,,,,,,,,,,,,,,,
null,,confidence_buffer,1484135,confidence_buffer,,null,,,,,,,,,,,,,,,,,
1538.0999999940395,,recognition_phase,1485673,Hagerstown,,52,,,,,new,1,0.9545454545454546,,,,,,,,,,
null,,confidence_buffer,1485775,confidence_buffer,,null,,,,,,,,,,,,,,,,,
null,,thebreak,1486297,break,,null,,,,,,,,,,,,,,,,,
5323,,realistic_rating,1491620,Cheyenne,,53,Cheyenne,5,,,,,,,,,,,,,,,
null,,confidence_buffer,1491732,confidence_buffer,,null,,,,,,,,,,,,,,,,,
2054.9000000059605,,pt2_unique_rating,1493788,Cheyenne,,50,,2,,,,,,,,,,,,,,,
null,,confidence_buffer,1493889,confidence_buffer,,null,,,,,,,,,,,,,,,,,
1449.7999999970198,,pt2_memorable_rating,1495339,Cheyenne,,51,,3,,,,,,,,,,,,,,,
null,,confidence_buffer,1495449,confidence_buffer,,null,,,,,,,,,,,,,,,,,
1468.4000000059605,,recognition_phase,1496918,Cheyenne,,49,,,,,old,1,0.9555555555555556,,,,,,,,,,
null,,confidence_buffer,1497048,confidence_buffer,,null,,,,,,,,,,,,,,,,,
null,,thebreak,1497564,break,,null,,,,,,,,,,,,,,,,,
3241,,realistic_rating,1500806,Altoona,,52,Altoona,4,,,,,,,,,,,,,,,
null,,confidence_buffer,1500907,confidence_buffer,,null,,,,,,,,,,,,,,,,,
2669.0999999940395,,pt2_unique_rating,1503577,Altoona,,52,,4,,,,,,,,,,,,,,,
null,,confidence_buffer,1503684,confidence_buffer,,null,,,,,,,,,,,,,,,,,
1139.5,,pt2_memorable_rating,1504824,Altoona,,51,,3,,,,,,,,,,,,,,,
null,,confidence_buffer,1504941,confidence_buffer,,null,,,,,,,,,,,,,,,,,
2449.7999999970198,,recognition_phase,1507392,Altoona,,51,,,,,new,1,0.9565217391304348,,,,,,,,,,
null,,confidence_buffer,1507497,confidence_buffer,,null,,,,,,,,,,,,,,,,,
null,,thebreak,1508001,break,,null,,,,,,,,,,,,,,,,,
3913.2000000029802,,realistic_rating,1511914,Terre Haute,,52,Terre Haute,4,,,,,,,,,,,,,,,
null,,confidence_buffer,1512016,confidence_buffer,,null,,,,,,,,,,,,,,,,,
1727.0999999940395,,pt2_unique_rating,1513744,Terre Haute,,52,,4,,,,,,,,,,,,,,,
null,,confidence_buffer,1513850,confidence_buffer,,null,,,,,,,,,,,,,,,,,
3671.5999999940395,,pt2_memorable_rating,1517523,Terre Haute,,50,,2,,,,,,,,,,,,,,,
null,,confidence_buffer,1517636,confidence_buffer,,null,,,,,,,,,,,,,,,,,
3258,,recognition_phase,1520894,Terre Haute,,52,,,,,new,1,0.9574468085106383,,,,,,,,,,
null,,confidence_buffer,1521000,confidence_buffer,,null,,,,,,,,,,,,,,,,,
null,,thebreak,1521506,break,,null,,,,,,,,,,,,,,,,,
55247.70000000298,,realistic_rating,1576754,Champaign,,52,Champaign,4,,,,,,,,,,,,,,,
null,,confidence_buffer,1576858,confidence_buffer,,null,,,,,,,,,,,,,,,,,
139099.39999999106,,pt2_unique_rating,1715958,Champaign,,52,,4,,,,,,,,,,,,,,,
null,,confidence_buffer,1716060,confidence_buffer,,null,,,,,,,,,,,,,,,,,
20273.79999999702,,pt2_memorable_rating,1736335,Champaign,,51,,3,,,,,,,,,,,,,,,
null,,confidence_buffer,1736442,confidence_buffer,,null,,,,,,,,,,,,,,,,,
889.5,,recognition_phase,1737332,Champaign,,50,,,,,old,0,0.9375,,,,,,,,,,
null,,confidence_buffer,1737438,confidence_buffer,,null,,,,,,,,,,,,,,,,,
null,,thebreak,1737954,break,,null,,,,,,,,,,,,,,,,,
3070.2000000029802,,realistic_rating,1741025,Dubuque,,52,Dubuque,4,,,,,,,,,,,,,,,
null,,confidence_buffer,1741133,confidence_buffer,,null,,,,,,,,,,,,,,,,,
1642.1000000089407,,pt2_unique_rating,1742776,Dubuque,,52,,4,,,,,,,,,,,,,,,
null,,confidence_buffer,1742878,confidence_buffer,,null,,,,,,,,,,,,,,,,,
1456,,probe_rating,1744334,probe_rating,,53,,,5,1,,,,,,,,,,,,,
null,,confidence_buffer,1744436,confidence_buffer,,null,,,,,,,,,,,,,,,,,
3228.7999999970198,,pt2_memorable_rating,1747665,Dubuque,,50,,2,,,,,,,,,,,,,,,
null,,confidence_buffer,1747772,confidence_buffer,,null,,,,,,,,,,,,,,,,,
1843.7000000029802,,recognition_phase,1749617,Dubuque,,50,,,,,old,0,0.9183673469387755,,,,,,,,,,
null,,confidence_buffer,1749724,confidence_buffer,,null,,,,,,,,,,,,,,,,,
null,,thebreak,1750235,break,,null,,,,,,,,,,,,,,,,,
2619.8999999910593,,realistic_rating,1752855,Stamford,,51,Stamford,3,,,,,,,,,,,,,,,
null,,confidence_buffer,1752956,confidence_buffer,,null,,,,,,,,,,,,,,,,,
1138.300000011921,,probe_rating,1754095,probe_rating,,52,,,4,1,,,,,,,,,,,,,
null,,confidence_buffer,1754202,confidence_buffer,,null,,,,,,,,,,,,,,,,,
2846.6000000089407,,pt2_unique_rating,1757049,Stamford,,50,,2,,,,,,,,,,,,,,,
null,,confidence_buffer,1757156,confidence_buffer,,null,,,,,,,,,,,,,,,,,
12651,,pt2_memorable_rating,1769808,Stamford,,51,,3,,,,,,,,,,,,,,,
null,,confidence_buffer,1769909,confidence_buffer,,null,,,,,,,,,,,,,,,,,
964.6999999880791,,recognition_phase,1770875,Stamford,,49,,,,,old,1,0.92,,,,,,,,,,
null,,confidence_buffer,1770976,confidence_buffer,,null,,,,,,,,,,,,,,,,,
null,,thebreak,1771500,break,,null,,,,,,,,,,,,,,,,,
,,survey,2074020,survey-questions,,,,,,,,,,none,high,no,no strategies,Ive heard of it then it was somewhat familiar; never heard of it not at all; been there physically then very familiar,have heard a lot about it then memorable; hear a lot and been there very memorable; never heard of it and name not very unique then not memorable,double words are pretty unique but ones that sound military bases less unique; native american names a re unique,not spelt weird and could pronounce or know are real.,no,n/a
