rt,responses,trial_type,time_elapsed,stimulus,button_pressed,key_press,name_trial,rating,probe,probe_accuracy,response,correct,accuracy,problems,smooth,distraction,strategies,familiar,memorable,unique,realistic,similar,comments,detectfocus,warning
5384.399999856949,{worker_id:66660a053b08e2a34f9b945c},id_enter,5387,,,,,,,,,,,,,,,,,,,,,,
23037.099999904633,,fullscreen,28426,fullscreen,0,,,,,,,,,,,,,,,,,,,,
3910.899999856949,,intro_0,32339,instruct,,32,,,,,,,,,,,,,,,,,,,
32487.799999952316,,intro_1,64827,instruct,,32,,,,,,,,,,,,,,,,,,,
8166.5,,intro_2,72994,instruct,,32,,,,,,,,,,,,,,,,,,,
null,,instruct_dir_4,74495,instruct,,null,,,,,,,,,,,,,,,,,,,
null,,thebreak,74997,break,,null,,,,,,,,,,,,,,,,,,,
6252.100000143051,,familiar_rating,81250,Stamford,,49,Stamford,1,,,,,,,,,,,,,,,,,
null,,confidence_buffer,81351,confidence_buffer,,null,,,,,,,,,,,,,,,,,,,
3577.7000000476837,,unique_rating,84930,Stamford,,50,,2,,,,,,,,,,,,,,,,,
null,,confidence_buffer,85031,confidence_buffer,,null,,,,,,,,,,,,,,,,,,,
2825.9000000953674,,memorable_rating,87858,Stamford,,52,,4,,,,,,,,,,,,,,,,,
null,,confidence_buffer,87961,confidence_buffer,,null,,,,,,,,,,,,,,,,,,,
null,,thebreak,88463,break,,null,,,,,,,,,,,,,,,,,,,
2538.5,,familiar_rating,91002,Marquette,,49,Marquette,1,,,,,,,,,,,,,,,,,
null,,confidence_buffer,91104,confidence_buffer,,null,,,,,,,,,,,,,,,,,,,
3569.699999809265,,unique_rating,94674,Marquette,,52,,4,,,,,,,,,,,,,,,,,
null,,confidence_buffer,94775,confidence_buffer,,null,,,,,,,,,,,,,,,,,,,
3514.2000000476837,,memorable_rating,98290,Marquette,,52,,4,,,,,,,,,,,,,,,,,
null,,confidence_buffer,98390,confidence_buffer,,null,,,,,,,,,,,,,,,,,,,
null,,thebreak,98905,break,,null,,,,,,,,,,,,,,,,,,,
3768.399999856949,,familiar_rating,102674,Rock Springs,,51,Rock Springs,3,,,,,,,,,,,,,,,,,
null,,confidence_buffer,102775,confidence_buffer,,null,,,,,,,,,,,,,,,,,,,
2914.7000000476837,,unique_rating,105690,Rock Springs,,49,,1,,,,,,,,,,,,,,,,,
null,,confidence_buffer,105791,confidence_buffer,,null,,,,,,,,,,,,,,,,,,,
2763.7999999523163,,memorable_rating,108556,Rock Springs,,51,,3,,,,,,,,,,,,,,,,,
null,,confidence_buffer,108657,confidence_buffer,,null,,,,,,,,,,,,,,,,,,,
null,,thebreak,109158,break,,null,,,,,,,,,,,,,,,,,,,
5404.099999904633,,familiar_rating,114563,Peoria,,51,Peoria,3,,,,,,,,,,,,,,,,,
null,,confidence_buffer,114665,confidence_buffer,,null,,,,,,,,,,,,,,,,,,,
8569.200000047684,,unique_rating,123235,Peoria,,51,,3,,,,,,,,,,,,,,,,,
null,,confidence_buffer,123337,confidence_buffer,,null,,,,,,,,,,,,,,,,,,,
2744.4000000953674,,memorable_rating,126082,Peoria,,50,,2,,,,,,,,,,,,,,,,,
null,,confidence_buffer,126183,confidence_buffer,,null,,,,,,,,,,,,,,,,,,,
null,,thebreak,126684,break,,null,,,,,,,,,,,,,,,,,,,
3205.0999999046326,,familiar_rating,129890,Topeka,,53,Topeka,5,,,,,,,,,,,,,,,,,
null,,confidence_buffer,129991,confidence_buffer,,null,,,,,,,,,,,,,,,,,,,
4930.600000143051,,unique_rating,134922,Topeka,,52,,4,,,,,,,,,,,,,,,,,
null,,confidence_buffer,135024,confidence_buffer,,null,,,,,,,,,,,,,,,,,,,
1081.7999999523163,,memorable_rating,136106,Topeka,,52,,4,,,,,,,,,,,,,,,,,
null,,confidence_buffer,136207,confidence_buffer,,null,,,,,,,,,,,,,,,,,,,
null,,thebreak,136708,break,,null,,,,,,,,,,,,,,,,,,,
2325,,familiar_rating,139034,Fargo,,53,Fargo,5,,,,,,,,,,,,,,,,,
null,,confidence_buffer,139135,confidence_buffer,,null,,,,,,,,,,,,,,,,,,,
2722.5,,probe_rating,141858,probe_rating,,53,,,5,1,,,,,,,,,,,,,,,
null,,confidence_buffer,141960,confidence_buffer,,null,,,,,,,,,,,,,,,,,,,
8225.799999952316,,unique_rating,150186,Fargo,,50,,2,,,,,,,,,,,,,,,,,
null,,confidence_buffer,150288,confidence_buffer,,null,,,,,,,,,,,,,,,,,,,
1497.5,,memorable_rating,151786,Fargo,,51,,3,,,,,,,,,,,,,,,,,
null,,confidence_buffer,151888,confidence_buffer,,null,,,,,,,,,,,,,,,,,,,
null,,thebreak,152390,break,,null,,,,,,,,,,,,,,,,,,,
1979.0999999046326,,familiar_rating,154370,Concord,,53,Concord,5,,,,,,,,,,,,,,,,,
null,,confidence_buffer,154478,confidence_buffer,,null,,,,,,,,,,,,,,,,,,,
3083.0999999046326,,unique_rating,157562,Concord,,50,,2,,,,,,,,,,,,,,,,,
null,,confidence_buffer,157663,confidence_buffer,,null,,,,,,,,,,,,,,,,,,,
1882.4000000953674,,memorable_rating,159546,Concord,,51,,3,,,,,,,,,,,,,,,,,
null,,confidence_buffer,159647,confidence_buffer,,null,,,,,,,,,,,,,,,,,,,
null,,thebreak,160148,break,,null,,,,,,,,,,,,,,,,,,,
2573.5999999046326,,familiar_rating,162722,Dothan,,50,Dothan,2,,,,,,,,,,,,,,,,,
null,,confidence_buffer,162824,confidence_buffer,,null,,,,,,,,,,,,,,,,,,,
1193.2999999523163,,unique_rating,164018,Dothan,,51,,3,,,,,,,,,,,,,,,,,
null,,confidence_buffer,164118,confidence_buffer,,null,,,,,,,,,,,,,,,,,,,
1099.0999999046326,,memorable_rating,165218,Dothan,,51,,3,,,,,,,,,,,,,,,,,
null,,confidence_buffer,165319,confidence_buffer,,null,,,,,,,,,,,,,,,,,,,
null,,thebreak,165821,break,,null,,,,,,,,,,,,,,,,,,,
4116.200000047684,,familiar_rating,169938,Athens,,53,Athens,5,,,,,,,,,,,,,,,,,
null,,confidence_buffer,170044,confidence_buffer,,null,,,,,,,,,,,,,,,,,,,
2853,,unique_rating,172898,Athens,,51,,3,,,,,,,,,,,,,,,,,
null,,confidence_buffer,172999,confidence_buffer,,null,,,,,,,,,,,,,,,,,,,
3154.4000000953674,,memorable_rating,176154,Athens,,52,,4,,,,,,,,,,,,,,,,,
null,,confidence_buffer,176255,confidence_buffer,,null,,,,,,,,,,,,,,,,,,,
null,,thebreak,176756,break,,null,,,,,,,,,,,,,,,,,,,
1788.9000000953674,,familiar_rating,178546,Tallahassee,,53,Tallahassee,5,,,,,,,,,,,,,,,,,
null,,confidence_buffer,178647,confidence_buffer,,null,,,,,,,,,,,,,,,,,,,
2810.7000000476837,,unique_rating,181458,Tallahassee,,52,,4,,,,,,,,,,,,,,,,,
null,,confidence_buffer,181559,confidence_buffer,,null,,,,,,,,,,,,,,,,,,,
1594.2000000476837,,memorable_rating,183154,Tallahassee,,51,,3,,,,,,,,,,,,,,,,,
null,,confidence_buffer,183256,confidence_buffer,,null,,,,,,,,,,,,,,,,,,,
1601.5999999046326,,probe_rating,184858,probe_rating,,52,,,4,1,,,,,,,,,,,,,,,
null,,confidence_buffer,184959,confidence_buffer,,null,,,,,,,,,,,,,,,,,,,
null,,thebreak,185460,break,,null,,,,,,,,,,,,,,,,,,,
5637.599999904633,,familiar_rating,191098,Ithaca,,49,Ithaca,1,,,,,,,,,,,,,,,,,
null,,confidence_buffer,191199,confidence_buffer,,null,,,,,,,,,,,,,,,,,,,
1635.2000000476837,,unique_rating,192834,Ithaca,,51,,3,,,,,,,,,,,,,,,,,
null,,confidence_buffer,192935,confidence_buffer,,null,,,,,,,,,,,,,,,,,,,
1650.5,,memorable_rating,194586,Ithaca,,50,,2,,,,,,,,,,,,,,,,,
null,,confidence_buffer,194687,confidence_buffer,,null,,,,,,,,,,,,,,,,,,,
null,,thebreak,195188,break,,null,,,,,,,,,,,,,,,,,,,
2077.2000000476837,,familiar_rating,197266,Berkeley,,53,Berkeley,5,,,,,,,,,,,,,,,,,
null,,confidence_buffer,197366,confidence_buffer,,null,,,,,,,,,,,,,,,,,,,
1947.2000000476837,,unique_rating,199314,Berkeley,,50,,2,,,,,,,,,,,,,,,,,
null,,confidence_buffer,199415,confidence_buffer,,null,,,,,,,,,,,,,,,,,,,
985.9000000953674,,memorable_rating,200402,Berkeley,,51,,3,,,,,,,,,,,,,,,,,
null,,confidence_buffer,200503,confidence_buffer,,null,,,,,,,,,,,,,,,,,,,
null,,thebreak,201004,break,,null,,,,,,,,,,,,,,,,,,,
1886,,familiar_rating,202890,Fort Collins,,51,Fort Collins,3,,,,,,,,,,,,,,,,,
null,,confidence_buffer,202992,confidence_buffer,,null,,,,,,,,,,,,,,,,,,,
1280.7000000476837,,unique_rating,204274,Fort Collins,,50,,2,,,,,,,,,,,,,,,,,
null,,confidence_buffer,204374,confidence_buffer,,null,,,,,,,,,,,,,,,,,,,
2219.2999999523163,,probe_rating,206594,probe_rating,,53,,,5,1,,,,,,,,,,,,,,,
null,,confidence_buffer,206695,confidence_buffer,,null,,,,,,,,,,,,,,,,,,,
2466.5999999046326,,memorable_rating,209162,Fort Collins,,52,,4,,,,,,,,,,,,,,,,,
null,,confidence_buffer,209263,confidence_buffer,,null,,,,,,,,,,,,,,,,,,,
null,,thebreak,209765,break,,null,,,,,,,,,,,,,,,,,,,
2820.399999856949,,familiar_rating,212586,Hagerstown,,49,Hagerstown,1,,,,,,,,,,,,,,,,,
null,,confidence_buffer,212687,confidence_buffer,,null,,,,,,,,,,,,,,,,,,,
1322.5,,unique_rating,214010,Hagerstown,,51,,3,,,,,,,,,,,,,,,,,
null,,confidence_buffer,214111,confidence_buffer,,null,,,,,,,,,,,,,,,,,,,
1851.7000000476837,,memorable_rating,215963,Hagerstown,,51,,3,,,,,,,,,,,,,,,,,
null,,confidence_buffer,216064,confidence_buffer,,null,,,,,,,,,,,,,,,,,,,
null,,thebreak,216565,break,,null,,,,,,,,,,,,,,,,,,,
1716.6000001430511,,familiar_rating,218282,Cambridge,,53,Cambridge,5,,,,,,,,,,,,,,,,,
null,,confidence_buffer,218383,confidence_buffer,,null,,,,,,,,,,,,,,,,,,,
1626.6000001430511,,unique_rating,220010,Cambridge,,50,,2,,,,,,,,,,,,,,,,,
null,,confidence_buffer,220123,confidence_buffer,,null,,,,,,,,,,,,,,,,,,,
1030.1999998092651,,memorable_rating,221154,Cambridge,,51,,3,,,,,,,,,,,,,,,,,
null,,confidence_buffer,221255,confidence_buffer,,null,,,,,,,,,,,,,,,,,,,
2042.5,,probe_rating,223298,probe_rating,,50,,,2,1,,,,,,,,,,,,,,,
null,,confidence_buffer,223398,confidence_buffer,,null,,,,,,,,,,,,,,,,,,,
null,,thebreak,223900,break,,null,,,,,,,,,,,,,,,,,,,
3253.0999999046326,,familiar_rating,227154,Helena,,52,Helena,4,,,,,,,,,,,,,,,,,
null,,confidence_buffer,227255,confidence_buffer,,null,,,,,,,,,,,,,,,,,,,
2674.2999999523163,,unique_rating,229930,Helena,,49,,1,,,,,,,,,,,,,,,,,
null,,confidence_buffer,230044,confidence_buffer,,null,,,,,,,,,,,,,,,,,,,
1324.7999999523163,,memorable_rating,231370,Helena,,50,,2,,,,,,,,,,,,,,,,,
null,,confidence_buffer,231470,confidence_buffer,,null,,,,,,,,,,,,,,,,,,,
null,,thebreak,231972,break,,null,,,,,,,,,,,,,,,,,,,
2013.6999998092651,,familiar_rating,233986,Norfolk,,53,Norfolk,5,,,,,,,,,,,,,,,,,
null,,confidence_buffer,234087,confidence_buffer,,null,,,,,,,,,,,,,,,,,,,
3347.5,,unique_rating,237435,Norfolk,,50,,2,,,,,,,,,,,,,,,,,
null,,confidence_buffer,237536,confidence_buffer,,null,,,,,,,,,,,,,,,,,,,
1849.2999999523163,,probe_rating,239386,probe_rating,,51,,,3,1,,,,,,,,,,,,,,,
null,,confidence_buffer,239487,confidence_buffer,,null,,,,,,,,,,,,,,,,,,,
3306.300000190735,,memorable_rating,242794,Norfolk,,51,,3,,,,,,,,,,,,,,,,,
null,,confidence_buffer,242895,confidence_buffer,,null,,,,,,,,,,,,,,,,,,,
null,,thebreak,243398,break,,null,,,,,,,,,,,,,,,,,,,
1755.6999998092651,,familiar_rating,245154,Abilene,,49,Abilene,1,,,,,,,,,,,,,,,,,
null,,confidence_buffer,245256,confidence_buffer,,null,,,,,,,,,,,,,,,,,,,
1433.5,,unique_rating,246690,Abilene,,51,,3,,,,,,,,,,,,,,,,,
null,,confidence_buffer,246793,confidence_buffer,,null,,,,,,,,,,,,,,,,,,,
671.5,,memorable_rating,247465,Abilene,,50,,2,,,,,,,,,,,,,,,,,
null,,confidence_buffer,247566,confidence_buffer,,null,,,,,,,,,,,,,,,,,,,
null,,thebreak,248067,break,,null,,,,,,,,,,,,,,,,,,,
1686.5,,familiar_rating,249754,Carson City,,49,Carson City,1,,,,,,,,,,,,,,,,,
null,,confidence_buffer,249855,confidence_buffer,,null,,,,,,,,,,,,,,,,,,,
2474.800000190735,,probe_rating,252330,probe_rating,,51,,,3,1,,,,,,,,,,,,,,,
null,,confidence_buffer,252431,confidence_buffer,,null,,,,,,,,,,,,,,,,,,,
4009.7999999523163,,unique_rating,256442,Carson City,,51,,3,,,,,,,,,,,,,,,,,
null,,confidence_buffer,256543,confidence_buffer,,null,,,,,,,,,,,,,,,,,,,
1674.7999999523163,,memorable_rating,258218,Carson City,,51,,3,,,,,,,,,,,,,,,,,
null,,confidence_buffer,258320,confidence_buffer,,null,,,,,,,,,,,,,,,,,,,
null,,thebreak,258821,break,,null,,,,,,,,,,,,,,,,,,,
1452.6999998092651,,familiar_rating,260274,Boulder,,53,Boulder,5,,,,,,,,,,,,,,,,,
null,,confidence_buffer,260375,confidence_buffer,,null,,,,,,,,,,,,,,,,,,,
2354.4000000953674,,unique_rating,262730,Boulder,,49,,1,,,,,,,,,,,,,,,,,
null,,confidence_buffer,262831,confidence_buffer,,null,,,,,,,,,,,,,,,,,,,
1963.7999999523163,,memorable_rating,264796,Boulder,,51,,3,,,,,,,,,,,,,,,,,
null,,confidence_buffer,264897,confidence_buffer,,null,,,,,,,,,,,,,,,,,,,
1312.9000000953674,,probe_rating,266210,probe_rating,,52,,,4,1,,,,,,,,,,,,,,,
null,,confidence_buffer,266311,confidence_buffer,,null,,,,,,,,,,,,,,,,,,,
null,,thebreak,266813,break,,null,,,,,,,,,,,,,,,,,,,
3773.5,,familiar_rating,270587,Terre Haute,,49,Terre Haute,1,,,,,,,,,,,,,,,,,
null,,confidence_buffer,270687,confidence_buffer,,null,,,,,,,,,,,,,,,,,,,
1617.8999998569489,,unique_rating,272306,Terre Haute,,51,,3,,,,,,,,,,,,,,,,,
null,,confidence_buffer,272407,confidence_buffer,,null,,,,,,,,,,,,,,,,,,,
1282.2000000476837,,probe_rating,273690,probe_rating,,52,,,4,1,,,,,,,,,,,,,,,
null,,confidence_buffer,273791,confidence_buffer,,null,,,,,,,,,,,,,,,,,,,
3050.7999999523163,,memorable_rating,276842,Terre Haute,,49,,1,,,,,,,,,,,,,,,,,
null,,confidence_buffer,276943,confidence_buffer,,null,,,,,,,,,,,,,,,,,,,
null,,thebreak,277445,break,,null,,,,,,,,,,,,,,,,,,,
2099.9000000953674,,familiar_rating,279546,Salem,,53,Salem,5,,,,,,,,,,,,,,,,,
null,,confidence_buffer,279648,confidence_buffer,,null,,,,,,,,,,,,,,,,,,,
1650.5999999046326,,unique_rating,281299,Salem,,50,,2,,,,,,,,,,,,,,,,,
null,,confidence_buffer,281401,confidence_buffer,,null,,,,,,,,,,,,,,,,,,,
1704.7999999523163,,memorable_rating,283106,Salem,,51,,3,,,,,,,,,,,,,,,,,
null,,confidence_buffer,283208,confidence_buffer,,null,,,,,,,,,,,,,,,,,,,
null,,thebreak,283708,break,,null,,,,,,,,,,,,,,,,,,,
1997.4000000953674,,familiar_rating,285706,Fort Wayne,,53,Fort Wayne,5,,,,,,,,,,,,,,,,,
null,,confidence_buffer,285807,confidence_buffer,,null,,,,,,,,,,,,,,,,,,,
1554.8999998569489,,unique_rating,287362,Fort Wayne,,50,,2,,,,,,,,,,,,,,,,,
null,,confidence_buffer,287463,confidence_buffer,,null,,,,,,,,,,,,,,,,,,,
1338.5,,memorable_rating,288802,Fort Wayne,,51,,3,,,,,,,,,,,,,,,,,
null,,confidence_buffer,288904,confidence_buffer,,null,,,,,,,,,,,,,,,,,,,
null,,thebreak,289405,break,,null,,,,,,,,,,,,,,,,,,,
1877.2999999523163,,familiar_rating,291282,Yakima,,53,Yakima,5,,,,,,,,,,,,,,,,,
null,,confidence_buffer,291384,confidence_buffer,,null,,,,,,,,,,,,,,,,,,,
1841.7999999523163,,unique_rating,293226,Yakima,,52,,4,,,,,,,,,,,,,,,,,
null,,confidence_buffer,293327,confidence_buffer,,null,,,,,,,,,,,,,,,,,,,
1170.2999999523163,,probe_rating,294498,probe_rating,,50,,,2,1,,,,,,,,,,,,,,,
null,,confidence_buffer,294604,confidence_buffer,,null,,,,,,,,,,,,,,,,,,,
1677.8000001907349,,memorable_rating,296282,Yakima,,51,,3,,,,,,,,,,,,,,,,,
null,,confidence_buffer,296383,confidence_buffer,,null,,,,,,,,,,,,,,,,,,,
null,,thebreak,296884,break,,null,,,,,,,,,,,,,,,,,,,
5365.800000190735,,familiar_rating,302250,Youngstown,,50,Youngstown,2,,,,,,,,,,,,,,,,,
null,,confidence_buffer,302352,confidence_buffer,,null,,,,,,,,,,,,,,,,,,,
978,,probe_rating,303330,probe_rating,,50,,,2,1,,,,,,,,,,,,,,,
null,,confidence_buffer,303432,confidence_buffer,,null,,,,,,,,,,,,,,,,,,,
3306.2000000476837,,unique_rating,306738,Youngstown,,50,,2,,,,,,,,,,,,,,,,,
null,,confidence_buffer,306851,confidence_buffer,,null,,,,,,,,,,,,,,,,,,,
1975,,memorable_rating,308826,Youngstown,,50,,2,,,,,,,,,,,,,,,,,
null,,confidence_buffer,308927,confidence_buffer,,null,,,,,,,,,,,,,,,,,,,
null,,thebreak,309429,break,,null,,,,,,,,,,,,,,,,,,,
4429.100000143051,,intro_0,313858,instruct,,32,,,,,,,,,,,,,,,,,,,
15223.299999952316,,intro_1,329082,instruct,,32,,,,,,,,,,,,,,,,,,,
5391.900000095367,,intro_2,334474,instruct,,32,,,,,,,,,,,,,,,,,,,
null,,instruct_dir_4,335976,instruct,,null,,,,,,,,,,,,,,,,,,,
6569.100000143051,,realistic_rating,342546,Dubuque,,51,Dubuque,3,,,,,,,,,,,,,,,,,
null,,confidence_buffer,342647,confidence_buffer,,null,,,,,,,,,,,,,,,,,,,
3218.2999999523163,,pt2_unique_rating,345866,Dubuque,,53,,5,,,,,,,,,,,,,,,,,
null,,confidence_buffer,345967,confidence_buffer,,null,,,,,,,,,,,,,,,,,,,
1618.6000001430511,,pt2_memorable_rating,347586,Dubuque,,50,,2,,,,,,,,,,,,,,,,,
null,,confidence_buffer,347688,confidence_buffer,,null,,,,,,,,,,,,,,,,,,,
3329.399999856949,,recognition_phase,351018,Dubuque,,52,,,,,new,1,1,,,,,,,,,,,,
null,,confidence_buffer,351119,confidence_buffer,,null,,,,,,,,,,,,,,,,,,,
null,,thebreak,351621,break,,null,,,,,,,,,,,,,,,,,,,
5172.799999952316,,realistic_rating,356794,Boulder,,53,Boulder,5,,,,,,,,,,,,,,,,,
null,,confidence_buffer,356895,confidence_buffer,,null,,,,,,,,,,,,,,,,,,,
2227.2999999523163,,pt2_unique_rating,359122,Boulder,,50,,2,,,,,,,,,,,,,,,,,
null,,confidence_buffer,359223,confidence_buffer,,null,,,,,,,,,,,,,,,,,,,
3251.9000000953674,,pt2_memorable_rating,362476,Boulder,,52,,4,,,,,,,,,,,,,,,,,
null,,confidence_buffer,362578,confidence_buffer,,null,,,,,,,,,,,,,,,,,,,
1671.7000000476837,,recognition_phase,364250,Boulder,,49,,,,,old,1,1,,,,,,,,,,,,
null,,confidence_buffer,364352,confidence_buffer,,null,,,,,,,,,,,,,,,,,,,
null,,thebreak,364866,break,,null,,,,,,,,,,,,,,,,,,,
6663.700000047684,,realistic_rating,371530,Youngstown,,52,Youngstown,4,,,,,,,,,,,,,,,,,
null,,confidence_buffer,371631,confidence_buffer,,null,,,,,,,,,,,,,,,,,,,
2827.4000000953674,,pt2_unique_rating,374459,Youngstown,,50,,2,,,,,,,,,,,,,,,,,
null,,confidence_buffer,374560,confidence_buffer,,null,,,,,,,,,,,,,,,,,,,
1256.7999999523163,,pt2_memorable_rating,375818,Youngstown,,50,,2,,,,,,,,,,,,,,,,,
null,,confidence_buffer,375920,confidence_buffer,,null,,,,,,,,,,,,,,,,,,,
1721.5,,probe_rating,377642,probe_rating,,51,,,3,1,,,,,,,,,,,,,,,
null,,confidence_buffer,377744,confidence_buffer,,null,,,,,,,,,,,,,,,,,,,
2665.600000143051,,recognition_phase,380410,Youngstown,,49,,,,,old,1,1,,,,,,,,,,,,
null,,confidence_buffer,380512,confidence_buffer,,null,,,,,,,,,,,,,,,,,,,
null,,thebreak,381013,break,,null,,,,,,,,,,,,,,,,,,,
2284.300000190735,,realistic_rating,383298,Gainesville,,53,Gainesville,5,,,,,,,,,,,,,,,,,
null,,confidence_buffer,383412,confidence_buffer,,null,,,,,,,,,,,,,,,,,,,
2893.9000000953674,,pt2_unique_rating,386306,Gainesville,,50,,2,,,,,,,,,,,,,,,,,
null,,confidence_buffer,386407,confidence_buffer,,null,,,,,,,,,,,,,,,,,,,
1858.4000000953674,,pt2_memorable_rating,388266,Gainesville,,51,,3,,,,,,,,,,,,,,,,,
null,,confidence_buffer,388367,confidence_buffer,,null,,,,,,,,,,,,,,,,,,,
3498.7999999523163,,recognition_phase,391866,Gainesville,,52,,,,,new,1,1,,,,,,,,,,,,
null,,confidence_buffer,391967,confidence_buffer,,null,,,,,,,,,,,,,,,,,,,
null,,thebreak,392468,break,,null,,,,,,,,,,,,,,,,,,,
5853.600000143051,,realistic_rating,398322,Altoona,,49,Altoona,1,,,,,,,,,,,,,,,,,
null,,confidence_buffer,398424,confidence_buffer,,null,,,,,,,,,,,,,,,,,,,
5121.799999952316,,pt2_unique_rating,403546,Altoona,,53,,5,,,,,,,,,,,,,,,,,
null,,confidence_buffer,403646,confidence_buffer,,null,,,,,,,,,,,,,,,,,,,
20219.10000014305,,pt2_memorable_rating,423866,Altoona,,50,,2,,,,,,,,,,,,,,,,,
null,,confidence_buffer,423967,confidence_buffer,,null,,,,,,,,,,,,,,,,,,,
1898.3999998569489,,recognition_phase,425866,Altoona,,52,,,,,new,1,1,,,,,,,,,,,,
null,,confidence_buffer,425967,confidence_buffer,,null,,,,,,,,,,,,,,,,,,,
null,,thebreak,426468,break,,null,,,,,,,,,,,,,,,,,,,
1981.3999998569489,,realistic_rating,428450,Annapolis,,53,Annapolis,5,,,,,,,,,,,,,,,,,
null,,confidence_buffer,428551,confidence_buffer,,null,,,,,,,,,,,,,,,,,,,
22930.299999952316,,pt2_unique_rating,451482,Annapolis,,51,,3,,,,,,,,,,,,,,,,,
null,,confidence_buffer,451583,confidence_buffer,,null,,,,,,,,,,,,,,,,,,,
1642.5,,pt2_memorable_rating,453226,Annapolis,,51,,3,,,,,,,,,,,,,,,,,
null,,confidence_buffer,453329,confidence_buffer,,null,,,,,,,,,,,,,,,,,,,
1521.1999998092651,,recognition_phase,454850,Annapolis,,49,,,,,old,0,0.8333333333333334,,,,,,,,,,,,
null,,confidence_buffer,454951,confidence_buffer,,null,,,,,,,,,,,,,,,,,,,
null,,thebreak,455453,break,,null,,,,,,,,,,,,,,,,,,,
2708.600000143051,,realistic_rating,458162,Pueblo,,53,Pueblo,5,,,,,,,,,,,,,,,,,
null,,confidence_buffer,458263,confidence_buffer,,null,,,,,,,,,,,,,,,,,,,
4186.599999904633,,pt2_unique_rating,462450,Pueblo,,49,,1,,,,,,,,,,,,,,,,,
null,,confidence_buffer,462552,confidence_buffer,,null,,,,,,,,,,,,,,,,,,,
2961.9000000953674,,pt2_memorable_rating,465514,Pueblo,,51,,3,,,,,,,,,,,,,,,,,
null,,confidence_buffer,465616,confidence_buffer,,null,,,,,,,,,,,,,,,,,,,
2177.9000000953674,,recognition_phase,467794,Pueblo,,52,,,,,new,1,0.8571428571428571,,,,,,,,,,,,
null,,confidence_buffer,467896,confidence_buffer,,null,,,,,,,,,,,,,,,,,,,
null,,thebreak,468397,break,,null,,,,,,,,,,,,,,,,,,,
6244.900000095367,,realistic_rating,474643,Terre Haute,,49,Terre Haute,1,,,,,,,,,,,,,,,,,
null,,confidence_buffer,474744,confidence_buffer,,null,,,,,,,,,,,,,,,,,,,
1962.2000000476837,,pt2_unique_rating,476707,Terre Haute,,51,,3,,,,,,,,,,,,,,,,,
null,,confidence_buffer,476808,confidence_buffer,,null,,,,,,,,,,,,,,,,,,,
3449.7999999523163,,pt2_memorable_rating,480258,Terre Haute,,49,,1,,,,,,,,,,,,,,,,,
null,,confidence_buffer,480359,confidence_buffer,,null,,,,,,,,,,,,,,,,,,,
1898.5,,recognition_phase,482258,Terre Haute,,49,,,,,old,1,0.875,,,,,,,,,,,,
null,,confidence_buffer,482360,confidence_buffer,,null,,,,,,,,,,,,,,,,,,,
null,,thebreak,482860,break,,null,,,,,,,,,,,,,,,,,,,
3821.5999999046326,,realistic_rating,486682,New Haven,,53,New Haven,5,,,,,,,,,,,,,,,,,
null,,confidence_buffer,486784,confidence_buffer,,null,,,,,,,,,,,,,,,,,,,
3369.9000000953674,,pt2_unique_rating,490155,New Haven,,49,,1,,,,,,,,,,,,,,,,,
null,,confidence_buffer,490257,confidence_buffer,,null,,,,,,,,,,,,,,,,,,,
1912.7000000476837,,probe_rating,492170,probe_rating,,53,,,5,1,,,,,,,,,,,,,,,
null,,confidence_buffer,492271,confidence_buffer,,null,,,,,,,,,,,,,,,,,,,
2635.5,,pt2_memorable_rating,494907,New Haven,,53,,5,,,,,,,,,,,,,,,,,
null,,confidence_buffer,495009,confidence_buffer,,null,,,,,,,,,,,,,,,,,,,
1792.2000000476837,,recognition_phase,496802,New Haven,,52,,,,,new,1,0.8888888888888888,,,,,,,,,,,,
null,,confidence_buffer,496903,confidence_buffer,,null,,,,,,,,,,,,,,,,,,,
null,,thebreak,497404,break,,null,,,,,,,,,,,,,,,,,,,
2517.2999999523163,,realistic_rating,499922,Stamford,,49,Stamford,1,,,,,,,,,,,,,,,,,
null,,confidence_buffer,500024,confidence_buffer,,null,,,,,,,,,,,,,,,,,,,
5449.900000095367,,pt2_unique_rating,505474,Stamford,,52,,4,,,,,,,,,,,,,,,,,
null,,confidence_buffer,505575,confidence_buffer,,null,,,,,,,,,,,,,,,,,,,
2043.5999999046326,,pt2_memorable_rating,507619,Stamford,,51,,3,,,,,,,,,,,,,,,,,
null,,confidence_buffer,507721,confidence_buffer,,null,,,,,,,,,,,,,,,,,,,
3185.100000143051,,recognition_phase,510906,Stamford,,49,,,,,old,1,0.9,,,,,,,,,,,,
null,,confidence_buffer,511009,confidence_buffer,,null,,,,,,,,,,,,,,,,,,,
null,,thebreak,511510,break,,null,,,,,,,,,,,,,,,,,,,
2723.2000000476837,,realistic_rating,514234,Berkeley,,53,Berkeley,5,,,,,,,,,,,,,,,,,
null,,confidence_buffer,514335,confidence_buffer,,null,,,,,,,,,,,,,,,,,,,
2546.5,,pt2_unique_rating,516882,Berkeley,,50,,2,,,,,,,,,,,,,,,,,
null,,confidence_buffer,516984,confidence_buffer,,null,,,,,,,,,,,,,,,,,,,
1585.7000000476837,,pt2_memorable_rating,518570,Berkeley,,51,,3,,,,,,,,,,,,,,,,,
null,,confidence_buffer,518672,confidence_buffer,,null,,,,,,,,,,,,,,,,,,,
2482.0999999046326,,recognition_phase,521154,Berkeley,,49,,,,,old,1,0.9090909090909091,,,,,,,,,,,,
null,,confidence_buffer,521256,confidence_buffer,,null,,,,,,,,,,,,,,,,,,,
null,,thebreak,521756,break,,null,,,,,,,,,,,,,,,,,,,
5909.299999952316,,realistic_rating,527666,Fort Wayne,,53,Fort Wayne,5,,,,,,,,,,,,,,,,,
null,,confidence_buffer,527767,confidence_buffer,,null,,,,,,,,,,,,,,,,,,,
4634.299999952316,,pt2_unique_rating,532402,Fort Wayne,,50,,2,,,,,,,,,,,,,,,,,
null,,confidence_buffer,532504,confidence_buffer,,null,,,,,,,,,,,,,,,,,,,
2273.600000143051,,pt2_memorable_rating,534778,Fort Wayne,,51,,3,,,,,,,,,,,,,,,,,
null,,confidence_buffer,534880,confidence_buffer,,null,,,,,,,,,,,,,,,,,,,
1218.1000001430511,,recognition_phase,536098,Fort Wayne,,49,,,,,old,1,0.9166666666666666,,,,,,,,,,,,
null,,confidence_buffer,536199,confidence_buffer,,null,,,,,,,,,,,,,,,,,,,
null,,thebreak,536700,break,,null,,,,,,,,,,,,,,,,,,,
35773.199999809265,,realistic_rating,572474,Ithaca,,49,Ithaca,1,,,,,,,,,,,,,,,,,
null,,confidence_buffer,572575,confidence_buffer,,null,,,,,,,,,,,,,,,,,,,
4170.700000047684,,pt2_unique_rating,576746,Ithaca,,53,,5,,,,,,,,,,,,,,,,,
null,,confidence_buffer,576847,confidence_buffer,,null,,,,,,,,,,,,,,,,,,,
1466.7000000476837,,pt2_memorable_rating,578314,Ithaca,,50,,2,,,,,,,,,,,,,,,,,
null,,confidence_buffer,578416,confidence_buffer,,null,,,,,,,,,,,,,,,,,,,
1521.7000000476837,,recognition_phase,579938,Ithaca,,49,,,,,old,1,0.9230769230769231,,,,,,,,,,,,
null,,confidence_buffer,580039,confidence_buffer,,null,,,,,,,,,,,,,,,,,,,
null,,thebreak,580540,break,,null,,,,,,,,,,,,,,,,,,,
2461.9000000953674,,realistic_rating,583003,Santa Monica,,53,Santa Monica,5,,,,,,,,,,,,,,,,,
null,,confidence_buffer,583104,confidence_buffer,,null,,,,,,,,,,,,,,,,,,,
2017.9000000953674,,pt2_unique_rating,585122,Santa Monica,,49,,1,,,,,,,,,,,,,,,,,
null,,confidence_buffer,585223,confidence_buffer,,null,,,,,,,,,,,,,,,,,,,
1786.2999999523163,,pt2_memorable_rating,587010,Santa Monica,,52,,4,,,,,,,,,,,,,,,,,
null,,confidence_buffer,587111,confidence_buffer,,null,,,,,,,,,,,,,,,,,,,
2346.7000000476837,,recognition_phase,589459,Santa Monica,,52,,,,,new,1,0.9285714285714286,,,,,,,,,,,,
null,,confidence_buffer,589561,confidence_buffer,,null,,,,,,,,,,,,,,,,,,,
null,,thebreak,590062,break,,null,,,,,,,,,,,,,,,,,,,
3283.699999809265,,realistic_rating,593346,Athens,,53,Athens,5,,,,,,,,,,,,,,,,,
null,,confidence_buffer,593448,confidence_buffer,,null,,,,,,,,,,,,,,,,,,,
2641.9000000953674,,pt2_unique_rating,596090,Athens,,50,,2,,,,,,,,,,,,,,,,,
null,,confidence_buffer,596192,confidence_buffer,,null,,,,,,,,,,,,,,,,,,,
841.5999999046326,,pt2_memorable_rating,597034,Athens,,51,,3,,,,,,,,,,,,,,,,,
null,,confidence_buffer,597136,confidence_buffer,,null,,,,,,,,,,,,,,,,,,,
1145.9000000953674,,recognition_phase,598282,Athens,,49,,,,,old,1,0.9333333333333333,,,,,,,,,,,,
null,,confidence_buffer,598384,confidence_buffer,,null,,,,,,,,,,,,,,,,,,,
null,,thebreak,598885,break,,null,,,,,,,,,,,,,,,,,,,
1285,,realistic_rating,600170,Tallahassee,,53,Tallahassee,5,,,,,,,,,,,,,,,,,
null,,confidence_buffer,600271,confidence_buffer,,null,,,,,,,,,,,,,,,,,,,
2362.5999999046326,,pt2_unique_rating,602634,Tallahassee,,51,,3,,,,,,,,,,,,,,,,,
null,,confidence_buffer,602735,confidence_buffer,,null,,,,,,,,,,,,,,,,,,,
2267.100000143051,,pt2_memorable_rating,605002,Tallahassee,,51,,3,,,,,,,,,,,,,,,,,
null,,confidence_buffer,605104,confidence_buffer,,null,,,,,,,,,,,,,,,,,,,
993.6000001430511,,recognition_phase,606098,Tallahassee,,49,,,,,old,1,0.9375,,,,,,,,,,,,
null,,confidence_buffer,606200,confidence_buffer,,null,,,,,,,,,,,,,,,,,,,
null,,thebreak,606701,break,,null,,,,,,,,,,,,,,,,,,,
2029,,realistic_rating,608730,Cheyenne,,53,Cheyenne,5,,,,,,,,,,,,,,,,,
null,,confidence_buffer,608831,confidence_buffer,,null,,,,,,,,,,,,,,,,,,,
1907.1000001430511,,pt2_unique_rating,610739,Cheyenne,,50,,2,,,,,,,,,,,,,,,,,
null,,confidence_buffer,610841,confidence_buffer,,null,,,,,,,,,,,,,,,,,,,
2192.7999999523163,,pt2_memorable_rating,613034,Cheyenne,,52,,4,,,,,,,,,,,,,,,,,
null,,confidence_buffer,613136,confidence_buffer,,null,,,,,,,,,,,,,,,,,,,
1529.5,,probe_rating,614666,probe_rating,,53,,,5,1,,,,,,,,,,,,,,,
null,,confidence_buffer,614768,confidence_buffer,,null,,,,,,,,,,,,,,,,,,,
2073.7000000476837,,recognition_phase,616842,Cheyenne,,52,,,,,new,1,0.9411764705882353,,,,,,,,,,,,
null,,confidence_buffer,616944,confidence_buffer,,null,,,,,,,,,,,,,,,,,,,
null,,thebreak,617445,break,,null,,,,,,,,,,,,,,,,,,,
1492.1000001430511,,realistic_rating,618938,Reno,,53,Reno,5,,,,,,,,,,,,,,,,,
null,,confidence_buffer,619039,confidence_buffer,,null,,,,,,,,,,,,,,,,,,,
1466.8999998569489,,pt2_unique_rating,620506,Reno,,50,,2,,,,,,,,,,,,,,,,,
null,,confidence_buffer,620607,confidence_buffer,,null,,,,,,,,,,,,,,,,,,,
2083,,pt2_memorable_rating,622690,Reno,,52,,4,,,,,,,,,,,,,,,,,
null,,confidence_buffer,622804,confidence_buffer,,null,,,,,,,,,,,,,,,,,,,
8246.199999809265,,recognition_phase,631050,Reno,,52,,,,,new,1,0.9444444444444444,,,,,,,,,,,,
null,,confidence_buffer,631151,confidence_buffer,,null,,,,,,,,,,,,,,,,,,,
null,,thebreak,631652,break,,null,,,,,,,,,,,,,,,,,,,
4837.700000047684,,realistic_rating,636490,Concord,,53,Concord,5,,,,,,,,,,,,,,,,,
null,,confidence_buffer,636591,confidence_buffer,,null,,,,,,,,,,,,,,,,,,,
2826.7999999523163,,pt2_unique_rating,639418,Concord,,53,,5,,,,,,,,,,,,,,,,,
null,,confidence_buffer,639525,confidence_buffer,,null,,,,,,,,,,,,,,,,,,,
3101.4000000953674,,pt2_memorable_rating,642626,Concord,,52,,4,,,,,,,,,,,,,,,,,
null,,confidence_buffer,642728,confidence_buffer,,null,,,,,,,,,,,,,,,,,,,
4009.7999999523163,,recognition_phase,646738,Concord,,49,,,,,old,1,0.9473684210526315,,,,,,,,,,,,
null,,confidence_buffer,646840,confidence_buffer,,null,,,,,,,,,,,,,,,,,,,
null,,thebreak,647342,break,,null,,,,,,,,,,,,,,,,,,,
5772.099999904633,,realistic_rating,653114,Palo Alto,,51,Palo Alto,3,,,,,,,,,,,,,,,,,
null,,confidence_buffer,653215,confidence_buffer,,null,,,,,,,,,,,,,,,,,,,
2186.600000143051,,pt2_unique_rating,655402,Palo Alto,,51,,3,,,,,,,,,,,,,,,,,
null,,confidence_buffer,655504,confidence_buffer,,null,,,,,,,,,,,,,,,,,,,
3353.7000000476837,,pt2_memorable_rating,658858,Palo Alto,,50,,2,,,,,,,,,,,,,,,,,
null,,confidence_buffer,658960,confidence_buffer,,null,,,,,,,,,,,,,,,,,,,
1538.5,,recognition_phase,660498,Palo Alto,,52,,,,,new,1,0.95,,,,,,,,,,,,
null,,confidence_buffer,660599,confidence_buffer,,null,,,,,,,,,,,,,,,,,,,
null,,thebreak,661100,break,,null,,,,,,,,,,,,,,,,,,,
2429.9000000953674,,realistic_rating,663531,Rock Springs,,53,Rock Springs,5,,,,,,,,,,,,,,,,,
null,,confidence_buffer,663632,confidence_buffer,,null,,,,,,,,,,,,,,,,,,,
1081.8999998569489,,pt2_unique_rating,664714,Rock Springs,,50,,2,,,,,,,,,,,,,,,,,
null,,confidence_buffer,664816,confidence_buffer,,null,,,,,,,,,,,,,,,,,,,
1105.3999998569489,,pt2_memorable_rating,665922,Rock Springs,,51,,3,,,,,,,,,,,,,,,,,
null,,confidence_buffer,666025,confidence_buffer,,null,,,,,,,,,,,,,,,,,,,
913,,recognition_phase,666938,Rock Springs,,49,,,,,old,1,0.9523809523809523,,,,,,,,,,,,
null,,confidence_buffer,667040,confidence_buffer,,null,,,,,,,,,,,,,,,,,,,
null,,thebreak,667542,break,,null,,,,,,,,,,,,,,,,,,,
3451.2000000476837,,realistic_rating,670994,Champaign,,51,Champaign,3,,,,,,,,,,,,,,,,,
null,,confidence_buffer,671094,confidence_buffer,,null,,,,,,,,,,,,,,,,,,,
1796.2000000476837,,pt2_unique_rating,672891,Champaign,,50,,2,,,,,,,,,,,,,,,,,
null,,confidence_buffer,672993,confidence_buffer,,null,,,,,,,,,,,,,,,,,,,
2569.100000143051,,pt2_memorable_rating,675563,Champaign,,53,,5,,,,,,,,,,,,,,,,,
null,,confidence_buffer,675664,confidence_buffer,,null,,,,,,,,,,,,,,,,,,,
3113.7999999523163,,recognition_phase,678778,Champaign,,52,,,,,new,1,0.9545454545454546,,,,,,,,,,,,
null,,confidence_buffer,678879,confidence_buffer,,null,,,,,,,,,,,,,,,,,,,
null,,thebreak,679380,break,,null,,,,,,,,,,,,,,,,,,,
3046.5999999046326,,realistic_rating,682427,Las Cruces,,51,Las Cruces,3,,,,,,,,,,,,,,,,,
null,,confidence_buffer,682529,confidence_buffer,,null,,,,,,,,,,,,,,,,,,,
1472.9000000953674,,pt2_unique_rating,684002,Las Cruces,,51,,3,,,,,,,,,,,,,,,,,
null,,confidence_buffer,684103,confidence_buffer,,null,,,,,,,,,,,,,,,,,,,
1459.9000000953674,,pt2_memorable_rating,685563,Las Cruces,,50,,2,,,,,,,,,,,,,,,,,
null,,confidence_buffer,685665,confidence_buffer,,null,,,,,,,,,,,,,,,,,,,
1736.9000000953674,,recognition_phase,687403,Las Cruces,,52,,,,,new,1,0.9565217391304348,,,,,,,,,,,,
null,,confidence_buffer,687505,confidence_buffer,,null,,,,,,,,,,,,,,,,,,,
null,,thebreak,688007,break,,null,,,,,,,,,,,,,,,,,,,
2363.899999856949,,realistic_rating,690371,Dothan,,51,Dothan,3,,,,,,,,,,,,,,,,,
null,,confidence_buffer,690473,confidence_buffer,,null,,,,,,,,,,,,,,,,,,,
1489,,pt2_unique_rating,691962,Dothan,,51,,3,,,,,,,,,,,,,,,,,
null,,confidence_buffer,692063,confidence_buffer,,null,,,,,,,,,,,,,,,,,,,
922.7999999523163,,pt2_memorable_rating,692986,Dothan,,50,,2,,,,,,,,,,,,,,,,,
null,,confidence_buffer,693088,confidence_buffer,,null,,,,,,,,,,,,,,,,,,,
1281.5,,recognition_phase,694370,Dothan,,49,,,,,old,1,0.9583333333333334,,,,,,,,,,,,
null,,confidence_buffer,694471,confidence_buffer,,null,,,,,,,,,,,,,,,,,,,
null,,thebreak,694972,break,,null,,,,,,,,,,,,,,,,,,,
2605.7000000476837,,realistic_rating,697579,Olympia,,53,Olympia,5,,,,,,,,,,,,,,,,,
null,,confidence_buffer,697693,confidence_buffer,,null,,,,,,,,,,,,,,,,,,,
3901,,pt2_unique_rating,701594,Olympia,,49,,1,,,,,,,,,,,,,,,,,
null,,confidence_buffer,701696,confidence_buffer,,null,,,,,,,,,,,,,,,,,,,
3074,,pt2_memorable_rating,704770,Olympia,,52,,4,,,,,,,,,,,,,,,,,
null,,confidence_buffer,704871,confidence_buffer,,null,,,,,,,,,,,,,,,,,,,
1858.5999999046326,,recognition_phase,706730,Olympia,,52,,,,,new,1,0.96,,,,,,,,,,,,
null,,confidence_buffer,706831,confidence_buffer,,null,,,,,,,,,,,,,,,,,,,
null,,thebreak,707333,break,,null,,,,,,,,,,,,,,,,,,,
2117.0999999046326,,realistic_rating,709450,Dover,,53,Dover,5,,,,,,,,,,,,,,,,,
null,,confidence_buffer,709551,confidence_buffer,,null,,,,,,,,,,,,,,,,,,,
2259.800000190735,,pt2_unique_rating,711811,Dover,,50,,2,,,,,,,,,,,,,,,,,
null,,confidence_buffer,711913,confidence_buffer,,null,,,,,,,,,,,,,,,,,,,
1097.8999998569489,,pt2_memorable_rating,713011,Dover,,51,,3,,,,,,,,,,,,,,,,,
null,,confidence_buffer,713112,confidence_buffer,,null,,,,,,,,,,,,,,,,,,,
2777.4000000953674,,recognition_phase,715890,Dover,,50,,,,,old,0,0.9230769230769231,,,,,,,,,,,,
null,,confidence_buffer,715991,confidence_buffer,,null,,,,,,,,,,,,,,,,,,,
null,,thebreak,716492,break,,null,,,,,,,,,,,,,,,,,,,
6990.200000047684,,realistic_rating,723483,Carson City,,52,Carson City,4,,,,,,,,,,,,,,,,,
null,,confidence_buffer,723583,confidence_buffer,,null,,,,,,,,,,,,,,,,,,,
1371.5999999046326,,pt2_unique_rating,724955,Carson City,,50,,2,,,,,,,,,,,,,,,,,
null,,confidence_buffer,725056,confidence_buffer,,null,,,,,,,,,,,,,,,,,,,
921.7999999523163,,pt2_memorable_rating,725978,Carson City,,51,,3,,,,,,,,,,,,,,,,,
null,,confidence_buffer,726080,confidence_buffer,,null,,,,,,,,,,,,,,,,,,,
1258.2999999523163,,recognition_phase,727338,Carson City,,49,,,,,old,1,0.9259259259259259,,,,,,,,,,,,
null,,confidence_buffer,727446,confidence_buffer,,null,,,,,,,,,,,,,,,,,,,
null,,thebreak,727947,break,,null,,,,,,,,,,,,,,,,,,,
3439.4000000953674,,realistic_rating,731386,Bellingham,,52,Bellingham,4,,,,,,,,,,,,,,,,,
null,,confidence_buffer,731488,confidence_buffer,,null,,,,,,,,,,,,,,,,,,,
2426.4000000953674,,pt2_unique_rating,733915,Bellingham,,49,,1,,,,,,,,,,,,,,,,,
null,,confidence_buffer,734017,confidence_buffer,,null,,,,,,,,,,,,,,,,,,,
1497.4000000953674,,pt2_memorable_rating,735515,Bellingham,,51,,3,,,,,,,,,,,,,,,,,
null,,confidence_buffer,735615,confidence_buffer,,null,,,,,,,,,,,,,,,,,,,
1378.2999999523163,,probe_rating,736994,probe_rating,,53,,,5,1,,,,,,,,,,,,,,,
null,,confidence_buffer,737095,confidence_buffer,,null,,,,,,,,,,,,,,,,,,,
2562.2999999523163,,recognition_phase,739658,Bellingham,,52,,,,,new,1,0.9285714285714286,,,,,,,,,,,,
null,,confidence_buffer,739760,confidence_buffer,,null,,,,,,,,,,,,,,,,,,,
null,,thebreak,740261,break,,null,,,,,,,,,,,,,,,,,,,
1861.2000000476837,,realistic_rating,742122,Pasadena,,53,Pasadena,5,,,,,,,,,,,,,,,,,
null,,confidence_buffer,742224,confidence_buffer,,null,,,,,,,,,,,,,,,,,,,
1649.7999999523163,,pt2_unique_rating,743874,Pasadena,,51,,3,,,,,,,,,,,,,,,,,
null,,confidence_buffer,743976,confidence_buffer,,null,,,,,,,,,,,,,,,,,,,
1450.1000001430511,,pt2_memorable_rating,745426,Pasadena,,52,,4,,,,,,,,,,,,,,,,,
null,,confidence_buffer,745527,confidence_buffer,,null,,,,,,,,,,,,,,,,,,,
2666.4000000953674,,recognition_phase,748195,Pasadena,,52,,,,,new,1,0.9310344827586207,,,,,,,,,,,,
null,,confidence_buffer,748296,confidence_buffer,,null,,,,,,,,,,,,,,,,,,,
null,,thebreak,748797,break,,null,,,,,,,,,,,,,,,,,,,
1893.5,,realistic_rating,750691,Marquette,,49,Marquette,1,,,,,,,,,,,,,,,,,
null,,confidence_buffer,750793,confidence_buffer,,null,,,,,,,,,,,,,,,,,,,
2425.0999999046326,,pt2_unique_rating,753218,Marquette,,51,,3,,,,,,,,,,,,,,,,,
null,,confidence_buffer,753319,confidence_buffer,,null,,,,,,,,,,,,,,,,,,,
1466.6000001430511,,probe_rating,754786,probe_rating,,51,,,3,1,,,,,,,,,,,,,,,
null,,confidence_buffer,754888,confidence_buffer,,null,,,,,,,,,,,,,,,,,,,
3978.4000000953674,,pt2_memorable_rating,758867,Marquette,,50,,2,,,,,,,,,,,,,,,,,
null,,confidence_buffer,758968,confidence_buffer,,null,,,,,,,,,,,,,,,,,,,
1138.4000000953674,,recognition_phase,760107,Marquette,,49,,,,,old,1,0.9333333333333333,,,,,,,,,,,,
null,,confidence_buffer,760209,confidence_buffer,,null,,,,,,,,,,,,,,,,,,,
null,,thebreak,760711,break,,null,,,,,,,,,,,,,,,,,,,
1628,,realistic_rating,762339,Fargo,,52,Fargo,4,,,,,,,,,,,,,,,,,
null,,confidence_buffer,762442,confidence_buffer,,null,,,,,,,,,,,,,,,,,,,
4680.200000047684,,pt2_unique_rating,767122,Fargo,,50,,2,,,,,,,,,,,,,,,,,
null,,confidence_buffer,767223,confidence_buffer,,null,,,,,,,,,,,,,,,,,,,
745.6999998092651,,pt2_memorable_rating,767969,Fargo,,51,,3,,,,,,,,,,,,,,,,,
null,,confidence_buffer,768075,confidence_buffer,,null,,,,,,,,,,,,,,,,,,,
1335,,recognition_phase,769410,Fargo,,49,,,,,old,1,0.9354838709677419,,,,,,,,,,,,
null,,confidence_buffer,769512,confidence_buffer,,null,,,,,,,,,,,,,,,,,,,
null,,thebreak,770013,break,,null,,,,,,,,,,,,,,,,,,,
1860.5,,realistic_rating,771874,Bozeman,,49,Bozeman,1,,,,,,,,,,,,,,,,,
null,,confidence_buffer,771976,confidence_buffer,,null,,,,,,,,,,,,,,,,,,,
3082.2999999523163,,pt2_unique_rating,775058,Bozeman,,53,,5,,,,,,,,,,,,,,,,,
null,,confidence_buffer,775167,confidence_buffer,,null,,,,,,,,,,,,,,,,,,,
1443.0999999046326,,pt2_memorable_rating,776610,Bozeman,,51,,3,,,,,,,,,,,,,,,,,
null,,confidence_buffer,776711,confidence_buffer,,null,,,,,,,,,,,,,,,,,,,
1938.2999999523163,,recognition_phase,778650,Bozeman,,52,,,,,new,1,0.9375,,,,,,,,,,,,
null,,confidence_buffer,778751,confidence_buffer,,null,,,,,,,,,,,,,,,,,,,
null,,thebreak,779252,break,,null,,,,,,,,,,,,,,,,,,,
2142,,realistic_rating,781394,Peoria,,52,Peoria,4,,,,,,,,,,,,,,,,,
null,,confidence_buffer,781497,confidence_buffer,,null,,,,,,,,,,,,,,,,,,,
2145.5,,pt2_unique_rating,783642,Peoria,,52,,4,,,,,,,,,,,,,,,,,
null,,confidence_buffer,783745,confidence_buffer,,null,,,,,,,,,,,,,,,,,,,
1928.7999999523163,,pt2_memorable_rating,785674,Peoria,,50,,2,,,,,,,,,,,,,,,,,
null,,confidence_buffer,785775,confidence_buffer,,null,,,,,,,,,,,,,,,,,,,
849.6000001430511,,recognition_phase,786626,Peoria,,49,,,,,old,1,0.9393939393939394,,,,,,,,,,,,
null,,confidence_buffer,786727,confidence_buffer,,null,,,,,,,,,,,,,,,,,,,
null,,thebreak,787227,break,,null,,,,,,,,,,,,,,,,,,,
1758.6000001430511,,realistic_rating,788986,Cambridge,,53,Cambridge,5,,,,,,,,,,,,,,,,,
null,,confidence_buffer,789087,confidence_buffer,,null,,,,,,,,,,,,,,,,,,,
2242.4000000953674,,pt2_unique_rating,791330,Cambridge,,50,,2,,,,,,,,,,,,,,,,,
null,,confidence_buffer,791431,confidence_buffer,,null,,,,,,,,,,,,,,,,,,,
924.1000001430511,,pt2_memorable_rating,792355,Cambridge,,51,,3,,,,,,,,,,,,,,,,,
null,,confidence_buffer,792457,confidence_buffer,,null,,,,,,,,,,,,,,,,,,,
1008.7000000476837,,recognition_phase,793466,Cambridge,,49,,,,,old,1,0.9411764705882353,,,,,,,,,,,,
null,,confidence_buffer,793567,confidence_buffer,,null,,,,,,,,,,,,,,,,,,,
null,,thebreak,794068,break,,null,,,,,,,,,,,,,,,,,,,
1982.4000000953674,,realistic_rating,796051,McKinney,,53,McKinney,5,,,,,,,,,,,,,,,,,
null,,confidence_buffer,796153,confidence_buffer,,null,,,,,,,,,,,,,,,,,,,
2225,,pt2_unique_rating,798378,McKinney,,49,,1,,,,,,,,,,,,,,,,,
null,,confidence_buffer,798489,confidence_buffer,,null,,,,,,,,,,,,,,,,,,,
1553.1000001430511,,pt2_memorable_rating,800042,McKinney,,52,,4,,,,,,,,,,,,,,,,,
null,,confidence_buffer,800144,confidence_buffer,,null,,,,,,,,,,,,,,,,,,,
1097.8999998569489,,probe_rating,801243,probe_rating,,49,,,1,1,,,,,,,,,,,,,,,
null,,confidence_buffer,801344,confidence_buffer,,null,,,,,,,,,,,,,,,,,,,
1913.5,,recognition_phase,803258,McKinney,,52,,,,,new,1,0.9428571428571428,,,,,,,,,,,,
null,,confidence_buffer,803359,confidence_buffer,,null,,,,,,,,,,,,,,,,,,,
null,,thebreak,803860,break,,null,,,,,,,,,,,,,,,,,,,
1461.9000000953674,,realistic_rating,805322,Frankfort,,53,Frankfort,5,,,,,,,,,,,,,,,,,
null,,confidence_buffer,805424,confidence_buffer,,null,,,,,,,,,,,,,,,,,,,
1770.2000000476837,,pt2_unique_rating,807194,Frankfort,,50,,2,,,,,,,,,,,,,,,,,
null,,confidence_buffer,807296,confidence_buffer,,null,,,,,,,,,,,,,,,,,,,
1610.8999998569489,,pt2_memorable_rating,808907,Frankfort,,52,,4,,,,,,,,,,,,,,,,,
null,,confidence_buffer,809008,confidence_buffer,,null,,,,,,,,,,,,,,,,,,,
1737.7999999523163,,recognition_phase,810747,Frankfort,,52,,,,,new,1,0.9444444444444444,,,,,,,,,,,,
null,,confidence_buffer,810848,confidence_buffer,,null,,,,,,,,,,,,,,,,,,,
null,,thebreak,811349,break,,null,,,,,,,,,,,,,,,,,,,
2988.600000143051,,realistic_rating,814338,Newport News,,51,Newport News,3,,,,,,,,,,,,,,,,,
null,,confidence_buffer,814439,confidence_buffer,,null,,,,,,,,,,,,,,,,,,,
1778.7999999523163,,pt2_unique_rating,816218,Newport News,,50,,2,,,,,,,,,,,,,,,,,
null,,confidence_buffer,816319,confidence_buffer,,null,,,,,,,,,,,,,,,,,,,
987.1000001430511,,pt2_memorable_rating,817306,Newport News,,52,,4,,,,,,,,,,,,,,,,,
null,,confidence_buffer,817409,confidence_buffer,,null,,,,,,,,,,,,,,,,,,,
1433.2999999523163,,recognition_phase,818843,Newport News,,52,,,,,new,1,0.9459459459459459,,,,,,,,,,,,
null,,confidence_buffer,818944,confidence_buffer,,null,,,,,,,,,,,,,,,,,,,
null,,thebreak,819445,break,,null,,,,,,,,,,,,,,,,,,,
2565.100000143051,,realistic_rating,822010,Boise,,53,Boise,5,,,,,,,,,,,,,,,,,
null,,confidence_buffer,822112,confidence_buffer,,null,,,,,,,,,,,,,,,,,,,
2554.199999809265,,pt2_unique_rating,824667,Boise,,52,,4,,,,,,,,,,,,,,,,,
null,,confidence_buffer,824768,confidence_buffer,,null,,,,,,,,,,,,,,,,,,,
1538.6000001430511,,pt2_memorable_rating,826307,Boise,,52,,4,,,,,,,,,,,,,,,,,
null,,confidence_buffer,826408,confidence_buffer,,null,,,,,,,,,,,,,,,,,,,
2218,,recognition_phase,828626,Boise,,52,,,,,new,1,0.9473684210526315,,,,,,,,,,,,
null,,confidence_buffer,828727,confidence_buffer,,null,,,,,,,,,,,,,,,,,,,
null,,thebreak,829229,break,,null,,,,,,,,,,,,,,,,,,,
2461.4000000953674,,realistic_rating,831690,Yakima,,53,Yakima,5,,,,,,,,,,,,,,,,,
null,,confidence_buffer,831793,confidence_buffer,,null,,,,,,,,,,,,,,,,,,,
1761.2999999523163,,pt2_unique_rating,833554,Yakima,,52,,4,,,,,,,,,,,,,,,,,
null,,confidence_buffer,833656,confidence_buffer,,null,,,,,,,,,,,,,,,,,,,
1362.2000000476837,,pt2_memorable_rating,835018,Yakima,,51,,3,,,,,,,,,,,,,,,,,
null,,confidence_buffer,835119,confidence_buffer,,null,,,,,,,,,,,,,,,,,,,
873.7000000476837,,recognition_phase,835993,Yakima,,49,,,,,old,1,0.9487179487179487,,,,,,,,,,,,
null,,confidence_buffer,836095,confidence_buffer,,null,,,,,,,,,,,,,,,,,,,
null,,thebreak,836596,break,,null,,,,,,,,,,,,,,,,,,,
5093.400000095367,,realistic_rating,841690,Abilene,,50,Abilene,2,,,,,,,,,,,,,,,,,
null,,confidence_buffer,841791,confidence_buffer,,null,,,,,,,,,,,,,,,,,,,
1530.7999999523163,,pt2_unique_rating,843322,Abilene,,52,,4,,,,,,,,,,,,,,,,,
null,,confidence_buffer,843424,confidence_buffer,,null,,,,,,,,,,,,,,,,,,,
1346.5999999046326,,pt2_memorable_rating,844771,Abilene,,50,,2,,,,,,,,,,,,,,,,,
null,,confidence_buffer,844873,confidence_buffer,,null,,,,,,,,,,,,,,,,,,,
1777.5,,recognition_phase,846651,Abilene,,50,,,,,old,1,0.95,,,,,,,,,,,,
null,,confidence_buffer,846752,confidence_buffer,,null,,,,,,,,,,,,,,,,,,,
null,,thebreak,847253,break,,null,,,,,,,,,,,,,,,,,,,
1485,,realistic_rating,848739,Topeka,,53,Topeka,5,,,,,,,,,,,,,,,,,
null,,confidence_buffer,848840,confidence_buffer,,null,,,,,,,,,,,,,,,,,,,
1929.5999999046326,,pt2_unique_rating,850771,Topeka,,52,,4,,,,,,,,,,,,,,,,,
null,,confidence_buffer,850873,confidence_buffer,,null,,,,,,,,,,,,,,,,,,,
976.7999999523163,,pt2_memorable_rating,851850,Topeka,,52,,4,,,,,,,,,,,,,,,,,
null,,confidence_buffer,851952,confidence_buffer,,null,,,,,,,,,,,,,,,,,,,
1033.7000000476837,,recognition_phase,852986,Topeka,,49,,,,,old,1,0.9512195121951219,,,,,,,,,,,,
null,,confidence_buffer,853088,confidence_buffer,,null,,,,,,,,,,,,,,,,,,,
null,,thebreak,853590,break,,null,,,,,,,,,,,,,,,,,,,
1036.2000000476837,,realistic_rating,854626,Norfolk,,53,Norfolk,5,,,,,,,,,,,,,,,,,
null,,confidence_buffer,854728,confidence_buffer,,null,,,,,,,,,,,,,,,,,,,
2282.2999999523163,,pt2_unique_rating,857010,Norfolk,,50,,2,,,,,,,,,,,,,,,,,
null,,confidence_buffer,857112,confidence_buffer,,null,,,,,,,,,,,,,,,,,,,
1274.5999999046326,,pt2_memorable_rating,858387,Norfolk,,51,,3,,,,,,,,,,,,,,,,,
null,,confidence_buffer,858488,confidence_buffer,,null,,,,,,,,,,,,,,,,,,,
809.2999999523163,,recognition_phase,859298,Norfolk,,49,,,,,old,1,0.9523809523809523,,,,,,,,,,,,
null,,confidence_buffer,859398,confidence_buffer,,null,,,,,,,,,,,,,,,,,,,
null,,thebreak,859899,break,,null,,,,,,,,,,,,,,,,,,,
3951,,realistic_rating,863850,Hagerstown,,51,Hagerstown,3,,,,,,,,,,,,,,,,,
null,,confidence_buffer,863952,confidence_buffer,,null,,,,,,,,,,,,,,,,,,,
1713.7999999523163,,pt2_unique_rating,865666,Hagerstown,,50,,2,,,,,,,,,,,,,,,,,
null,,confidence_buffer,865768,confidence_buffer,,null,,,,,,,,,,,,,,,,,,,
1219,,pt2_memorable_rating,866987,Hagerstown,,51,,3,,,,,,,,,,,,,,,,,
null,,confidence_buffer,867088,confidence_buffer,,null,,,,,,,,,,,,,,,,,,,
994.1000001430511,,recognition_phase,868082,Hagerstown,,49,,,,,old,1,0.9534883720930233,,,,,,,,,,,,
null,,confidence_buffer,868184,confidence_buffer,,null,,,,,,,,,,,,,,,,,,,
null,,thebreak,868685,break,,null,,,,,,,,,,,,,,,,,,,
2645.300000190735,,realistic_rating,871331,Decatur,,52,Decatur,4,,,,,,,,,,,,,,,,,
null,,confidence_buffer,871432,confidence_buffer,,null,,,,,,,,,,,,,,,,,,,
1202.7999999523163,,pt2_unique_rating,872635,Decatur,,52,,4,,,,,,,,,,,,,,,,,
null,,confidence_buffer,872736,confidence_buffer,,null,,,,,,,,,,,,,,,,,,,
1121.5999999046326,,pt2_memorable_rating,873858,Decatur,,51,,3,,,,,,,,,,,,,,,,,
null,,confidence_buffer,873959,confidence_buffer,,null,,,,,,,,,,,,,,,,,,,
1746.2999999523163,,recognition_phase,875706,Decatur,,52,,,,,new,1,0.9545454545454546,,,,,,,,,,,,
null,,confidence_buffer,875807,confidence_buffer,,null,,,,,,,,,,,,,,,,,,,
null,,thebreak,876308,break,,null,,,,,,,,,,,,,,,,,,,
2190.2999999523163,,realistic_rating,878498,Toledo,,53,Toledo,5,,,,,,,,,,,,,,,,,
null,,confidence_buffer,878599,confidence_buffer,,null,,,,,,,,,,,,,,,,,,,
1627.0999999046326,,pt2_unique_rating,880226,Toledo,,51,,3,,,,,,,,,,,,,,,,,
null,,confidence_buffer,880328,confidence_buffer,,null,,,,,,,,,,,,,,,,,,,
1538.1000001430511,,probe_rating,881866,probe_rating,,51,,,3,1,,,,,,,,,,,,,,,
null,,confidence_buffer,881968,confidence_buffer,,null,,,,,,,,,,,,,,,,,,,
1801.8000001907349,,pt2_memorable_rating,883771,Toledo,,52,,4,,,,,,,,,,,,,,,,,
null,,confidence_buffer,883871,confidence_buffer,,null,,,,,,,,,,,,,,,,,,,
1859.0999999046326,,recognition_phase,885731,Toledo,,52,,,,,new,1,0.9555555555555556,,,,,,,,,,,,
null,,confidence_buffer,885832,confidence_buffer,,null,,,,,,,,,,,,,,,,,,,
null,,thebreak,886333,break,,null,,,,,,,,,,,,,,,,,,,
3140.7000000476837,,realistic_rating,889475,Helena,,53,Helena,5,,,,,,,,,,,,,,,,,
null,,confidence_buffer,889575,confidence_buffer,,null,,,,,,,,,,,,,,,,,,,
1298.6000001430511,,pt2_unique_rating,890874,Helena,,50,,2,,,,,,,,,,,,,,,,,
null,,confidence_buffer,890976,confidence_buffer,,null,,,,,,,,,,,,,,,,,,,
2347.2999999523163,,pt2_memorable_rating,893323,Helena,,52,,4,,,,,,,,,,,,,,,,,
null,,confidence_buffer,893425,confidence_buffer,,null,,,,,,,,,,,,,,,,,,,
1520.9000000953674,,recognition_phase,894946,Helena,,49,,,,,old,1,0.9565217391304348,,,,,,,,,,,,
null,,confidence_buffer,895047,confidence_buffer,,null,,,,,,,,,,,,,,,,,,,
null,,thebreak,895549,break,,null,,,,,,,,,,,,,,,,,,,
3037.5,,realistic_rating,898586,Salem,,53,Salem,5,,,,,,,,,,,,,,,,,
null,,confidence_buffer,898688,confidence_buffer,,null,,,,,,,,,,,,,,,,,,,
1498.1999998092651,,pt2_unique_rating,900187,Salem,,50,,2,,,,,,,,,,,,,,,,,
null,,confidence_buffer,900288,confidence_buffer,,null,,,,,,,,,,,,,,,,,,,
1514.5999999046326,,pt2_memorable_rating,901803,Salem,,51,,3,,,,,,,,,,,,,,,,,
null,,confidence_buffer,901904,confidence_buffer,,null,,,,,,,,,,,,,,,,,,,
970.3000001907349,,recognition_phase,902875,Salem,,49,,,,,old,1,0.9574468085106383,,,,,,,,,,,,
null,,confidence_buffer,902976,confidence_buffer,,null,,,,,,,,,,,,,,,,,,,
null,,thebreak,903478,break,,null,,,,,,,,,,,,,,,,,,,
1995.8000001907349,,realistic_rating,905475,Fort Collins,,53,Fort Collins,5,,,,,,,,,,,,,,,,,
null,,confidence_buffer,905576,confidence_buffer,,null,,,,,,,,,,,,,,,,,,,
1754.2999999523163,,pt2_unique_rating,907331,Fort Collins,,50,,2,,,,,,,,,,,,,,,,,
null,,confidence_buffer,907431,confidence_buffer,,null,,,,,,,,,,,,,,,,,,,
1986.6000001430511,,pt2_memorable_rating,909419,Fort Collins,,52,,4,,,,,,,,,,,,,,,,,
null,,confidence_buffer,909521,confidence_buffer,,null,,,,,,,,,,,,,,,,,,,
1161.1000001430511,,recognition_phase,910683,Fort Collins,,49,,,,,old,1,0.9583333333333334,,,,,,,,,,,,
null,,confidence_buffer,910784,confidence_buffer,,null,,,,,,,,,,,,,,,,,,,
null,,thebreak,911285,break,,null,,,,,,,,,,,,,,,,,,,
1685.3999998569489,,realistic_rating,912970,Syracuse,,53,Syracuse,5,,,,,,,,,,,,,,,,,
null,,confidence_buffer,913071,confidence_buffer,,null,,,,,,,,,,,,,,,,,,,
1418.5999999046326,,pt2_unique_rating,914490,Syracuse,,52,,4,,,,,,,,,,,,,,,,,
null,,confidence_buffer,914592,confidence_buffer,,null,,,,,,,,,,,,,,,,,,,
1314.0999999046326,,pt2_memorable_rating,915906,Syracuse,,51,,3,,,,,,,,,,,,,,,,,
null,,confidence_buffer,916008,confidence_buffer,,null,,,,,,,,,,,,,,,,,,,
1137.7999999523163,,recognition_phase,917146,Syracuse,,52,,,,,new,1,0.9591836734693877,,,,,,,,,,,,
null,,confidence_buffer,917248,confidence_buffer,,null,,,,,,,,,,,,,,,,,,,
null,,thebreak,917749,break,,null,,,,,,,,,,,,,,,,,,,
1821,,realistic_rating,919570,Scottsdale,,53,Scottsdale,5,,,,,,,,,,,,,,,,,
null,,confidence_buffer,919672,confidence_buffer,,null,,,,,,,,,,,,,,,,,,,
2634.600000143051,,pt2_unique_rating,922307,Scottsdale,,50,,2,,,,,,,,,,,,,,,,,
null,,confidence_buffer,922409,confidence_buffer,,null,,,,,,,,,,,,,,,,,,,
1209.7999999523163,,pt2_memorable_rating,923619,Scottsdale,,52,,4,,,,,,,,,,,,,,,,,
null,,confidence_buffer,923722,confidence_buffer,,null,,,,,,,,,,,,,,,,,,,
1559.6000001430511,,recognition_phase,925282,Scottsdale,,52,,,,,new,1,0.96,,,,,,,,,,,,
null,,confidence_buffer,925383,confidence_buffer,,null,,,,,,,,,,,,,,,,,,,
null,,thebreak,925885,break,,null,,,,,,,,,,,,,,,,,,,
,,survey,1095099,survey-questions,,,,,,,,,,none,high,no,just trying to use my first judgement if I'd seen the city name before,If I'd heard of them before or if I could see them being a city name somewhere in my subconscious ,If it's an easy name that rolls off the tounge; or it's a name in a different language might make it less memorable,If the only time I'd heard it was for a city or not,If it's actually the name of a city or sounds like made up jargon,no,no,,
5437.799999952316,,thank_you,1100564,all_done,,32,,,,,,,,,,,,,,,,,,2,0
