rt,responses,trial_type,time_elapsed,stimulus,button_pressed,key_press,name_trial,rating,probe,probe_accuracy,response,correct,accuracy,problems,smooth,distraction,strategies,familiar,memorable,unique,realistic,similar,comments,detectfocus,warning
10870.599999904633,{worker_id:66231fc6e1ecba676935943a},id_enter,10872,,,,,,,,,,,,,,,,,,,,,,
6981.199999809265,,fullscreen,17855,fullscreen,0,,,,,,,,,,,,,,,,,,,,
3995.199999809265,,intro_0,21851,instruct,,32,,,,,,,,,,,,,,,,,,,
5264,,intro_1,27116,instruct,,32,,,,,,,,,,,,,,,,,,,
4607.599999904633,,intro_2,31724,instruct,,32,,,,,,,,,,,,,,,,,,,
null,,instruct_dir_4,33226,instruct,,null,,,,,,,,,,,,,,,,,,,
null,,thebreak,33727,break,,null,,,,,,,,,,,,,,,,,,,
7596.200000286102,,familiar_rating,41324,Tallahassee,,53,Tallahassee,5,,,,,,,,,,,,,,,,,
null,,confidence_buffer,41425,confidence_buffer,,null,,,,,,,,,,,,,,,,,,,
4155,,unique_rating,45580,Tallahassee,,53,,5,,,,,,,,,,,,,,,,,
null,,confidence_buffer,45682,confidence_buffer,,null,,,,,,,,,,,,,,,,,,,
3289.300000190735,,memorable_rating,48972,Tallahassee,,52,,4,,,,,,,,,,,,,,,,,
null,,confidence_buffer,49073,confidence_buffer,,null,,,,,,,,,,,,,,,,,,,
null,,thebreak,49574,break,,null,,,,,,,,,,,,,,,,,,,
2981.1000003814697,,familiar_rating,52555,Pueblo,,51,Pueblo,3,,,,,,,,,,,,,,,,,
null,,confidence_buffer,52656,confidence_buffer,,null,,,,,,,,,,,,,,,,,,,
1466.5999999046326,,unique_rating,54123,Pueblo,,51,,3,,,,,,,,,,,,,,,,,
null,,confidence_buffer,54236,confidence_buffer,,null,,,,,,,,,,,,,,,,,,,
1470.7000002861023,,memorable_rating,55707,Pueblo,,51,,3,,,,,,,,,,,,,,,,,
null,,confidence_buffer,55808,confidence_buffer,,null,,,,,,,,,,,,,,,,,,,
null,,thebreak,56309,break,,null,,,,,,,,,,,,,,,,,,,
2838,,familiar_rating,59148,Abilene,,49,Abilene,1,,,,,,,,,,,,,,,,,
null,,confidence_buffer,59248,confidence_buffer,,null,,,,,,,,,,,,,,,,,,,
3914.5,,unique_rating,63164,Abilene,,52,,4,,,,,,,,,,,,,,,,,
null,,confidence_buffer,63265,confidence_buffer,,null,,,,,,,,,,,,,,,,,,,
4506.5,,memorable_rating,67772,Abilene,,50,,2,,,,,,,,,,,,,,,,,
null,,confidence_buffer,67873,confidence_buffer,,null,,,,,,,,,,,,,,,,,,,
null,,thebreak,68375,break,,null,,,,,,,,,,,,,,,,,,,
3315.9000000953674,,familiar_rating,71692,Burlington,,52,Burlington,4,,,,,,,,,,,,,,,,,
null,,confidence_buffer,71792,confidence_buffer,,null,,,,,,,,,,,,,,,,,,,
3547.0999999046326,,unique_rating,75340,Burlington,,50,,2,,,,,,,,,,,,,,,,,
null,,confidence_buffer,75442,confidence_buffer,,null,,,,,,,,,,,,,,,,,,,
2089.2000002861023,,memorable_rating,77532,Burlington,,53,,5,,,,,,,,,,,,,,,,,
null,,confidence_buffer,77633,confidence_buffer,,null,,,,,,,,,,,,,,,,,,,
null,,thebreak,78134,break,,null,,,,,,,,,,,,,,,,,,,
3172.7000002861023,,familiar_rating,81307,Scottsdale,,53,Scottsdale,5,,,,,,,,,,,,,,,,,
null,,confidence_buffer,81409,confidence_buffer,,null,,,,,,,,,,,,,,,,,,,
4298.300000190735,,unique_rating,85708,Scottsdale,,51,,3,,,,,,,,,,,,,,,,,
null,,confidence_buffer,85815,confidence_buffer,,null,,,,,,,,,,,,,,,,,,,
1029,,memorable_rating,86844,Scottsdale,,52,,4,,,,,,,,,,,,,,,,,
null,,confidence_buffer,86947,confidence_buffer,,null,,,,,,,,,,,,,,,,,,,
null,,thebreak,87461,break,,null,,,,,,,,,,,,,,,,,,,
1973.9000000953674,,familiar_rating,89436,Gainesville,,51,Gainesville,3,,,,,,,,,,,,,,,,,
null,,confidence_buffer,89537,confidence_buffer,,null,,,,,,,,,,,,,,,,,,,
1849.5,,unique_rating,91387,Gainesville,,51,,3,,,,,,,,,,,,,,,,,
null,,confidence_buffer,91489,confidence_buffer,,null,,,,,,,,,,,,,,,,,,,
601.5999999046326,,memorable_rating,92091,Gainesville,,51,,3,,,,,,,,,,,,,,,,,
null,,confidence_buffer,92193,confidence_buffer,,null,,,,,,,,,,,,,,,,,,,
null,,thebreak,92694,break,,null,,,,,,,,,,,,,,,,,,,
3060.9000000953674,,familiar_rating,95756,Stamford,,49,Stamford,1,,,,,,,,,,,,,,,,,
null,,confidence_buffer,95857,confidence_buffer,,null,,,,,,,,,,,,,,,,,,,
1642.7999997138977,,unique_rating,97500,Stamford,,50,,2,,,,,,,,,,,,,,,,,
null,,confidence_buffer,97600,confidence_buffer,,null,,,,,,,,,,,,,,,,,,,
1355,,memorable_rating,98956,Stamford,,50,,2,,,,,,,,,,,,,,,,,
null,,confidence_buffer,99057,confidence_buffer,,null,,,,,,,,,,,,,,,,,,,
null,,thebreak,99559,break,,null,,,,,,,,,,,,,,,,,,,
1620.2000002861023,,familiar_rating,101179,McKinney,,49,McKinney,1,,,,,,,,,,,,,,,,,
null,,confidence_buffer,101280,confidence_buffer,,null,,,,,,,,,,,,,,,,,,,
1867.0999999046326,,unique_rating,103148,McKinney,,50,,2,,,,,,,,,,,,,,,,,
null,,confidence_buffer,103249,confidence_buffer,,null,,,,,,,,,,,,,,,,,,,
3050.699999809265,,probe_rating,106300,probe_rating,,52,,,4,1,,,,,,,,,,,,,,,
null,,confidence_buffer,106400,confidence_buffer,,null,,,,,,,,,,,,,,,,,,,
3434.7000002861023,,memorable_rating,109836,McKinney,,50,,2,,,,,,,,,,,,,,,,,
null,,confidence_buffer,109937,confidence_buffer,,null,,,,,,,,,,,,,,,,,,,
null,,thebreak,110438,break,,null,,,,,,,,,,,,,,,,,,,
2773.5,,familiar_rating,113211,Fort Wayne,,52,Fort Wayne,4,,,,,,,,,,,,,,,,,
null,,confidence_buffer,113312,confidence_buffer,,null,,,,,,,,,,,,,,,,,,,
762.8000001907349,,unique_rating,114076,Fort Wayne,,52,,4,,,,,,,,,,,,,,,,,
null,,confidence_buffer,114177,confidence_buffer,,null,,,,,,,,,,,,,,,,,,,
1594.0999999046326,,memorable_rating,115772,Fort Wayne,,52,,4,,,,,,,,,,,,,,,,,
null,,confidence_buffer,115872,confidence_buffer,,null,,,,,,,,,,,,,,,,,,,
null,,thebreak,116373,break,,null,,,,,,,,,,,,,,,,,,,
6085.60000038147,,familiar_rating,122460,Athens,,52,Athens,4,,,,,,,,,,,,,,,,,
null,,confidence_buffer,122561,confidence_buffer,,null,,,,,,,,,,,,,,,,,,,
2090.9000000953674,,unique_rating,124652,Athens,,52,,4,,,,,,,,,,,,,,,,,
null,,confidence_buffer,124753,confidence_buffer,,null,,,,,,,,,,,,,,,,,,,
1146.0999999046326,,memorable_rating,125900,Athens,,52,,4,,,,,,,,,,,,,,,,,
null,,confidence_buffer,126000,confidence_buffer,,null,,,,,,,,,,,,,,,,,,,
null,,thebreak,126501,break,,null,,,,,,,,,,,,,,,,,,,
3365.6000003814697,,familiar_rating,129868,Palo Alto,,51,Palo Alto,3,,,,,,,,,,,,,,,,,
null,,confidence_buffer,129969,confidence_buffer,,null,,,,,,,,,,,,,,,,,,,
2378.4000000953674,,unique_rating,132347,Palo Alto,,52,,4,,,,,,,,,,,,,,,,,
null,,confidence_buffer,132455,confidence_buffer,,null,,,,,,,,,,,,,,,,,,,
804,,memorable_rating,133259,Palo Alto,,52,,4,,,,,,,,,,,,,,,,,
null,,confidence_buffer,133362,confidence_buffer,,null,,,,,,,,,,,,,,,,,,,
null,,thebreak,133864,break,,null,,,,,,,,,,,,,,,,,,,
2242.800000190735,,familiar_rating,136107,Fort Collins,,51,Fort Collins,3,,,,,,,,,,,,,,,,,
null,,confidence_buffer,136208,confidence_buffer,,null,,,,,,,,,,,,,,,,,,,
458.5,,unique_rating,136668,Fort Collins,,52,,4,,,,,,,,,,,,,,,,,
null,,confidence_buffer,136769,confidence_buffer,,null,,,,,,,,,,,,,,,,,,,
506,,memorable_rating,137275,Fort Collins,,52,,4,,,,,,,,,,,,,,,,,
null,,confidence_buffer,137376,confidence_buffer,,null,,,,,,,,,,,,,,,,,,,
2298.300000190735,,probe_rating,139675,probe_rating,,50,,,2,1,,,,,,,,,,,,,,,
null,,confidence_buffer,139777,confidence_buffer,,null,,,,,,,,,,,,,,,,,,,
null,,thebreak,140292,break,,null,,,,,,,,,,,,,,,,,,,
2151.199999809265,,familiar_rating,142444,Ithaca,,51,Ithaca,3,,,,,,,,,,,,,,,,,
null,,confidence_buffer,142545,confidence_buffer,,null,,,,,,,,,,,,,,,,,,,
713.9000000953674,,unique_rating,143260,Ithaca,,52,,4,,,,,,,,,,,,,,,,,
null,,confidence_buffer,143360,confidence_buffer,,null,,,,,,,,,,,,,,,,,,,
779.9000000953674,,memorable_rating,144141,Ithaca,,52,,4,,,,,,,,,,,,,,,,,
null,,confidence_buffer,144243,confidence_buffer,,null,,,,,,,,,,,,,,,,,,,
null,,thebreak,144744,break,,null,,,,,,,,,,,,,,,,,,,
2675.0999999046326,,familiar_rating,147419,Berkeley,,51,Berkeley,3,,,,,,,,,,,,,,,,,
null,,confidence_buffer,147521,confidence_buffer,,null,,,,,,,,,,,,,,,,,,,
1018.4000000953674,,probe_rating,148540,probe_rating,,52,,,4,0,,,,,,,,,,,,,,,
null,,confidence_buffer,148641,confidence_buffer,,null,,,,,,,,,,,,,,,,,,,
1113.7999997138977,,unique_rating,149755,Berkeley,,52,,4,,,,,,,,,,,,,,,,,
null,,confidence_buffer,149857,confidence_buffer,,null,,,,,,,,,,,,,,,,,,,
2153.9000000953674,,memorable_rating,152012,Berkeley,,51,,3,,,,,,,,,,,,,,,,,
null,,confidence_buffer,152113,confidence_buffer,,null,,,,,,,,,,,,,,,,,,,
null,,thebreak,152617,break,,null,,,,,,,,,,,,,,,,,,,
2466.2999997138977,,familiar_rating,155084,Santa Monica,,51,Santa Monica,3,,,,,,,,,,,,,,,,,
null,,confidence_buffer,155185,confidence_buffer,,null,,,,,,,,,,,,,,,,,,,
2522.5999999046326,,unique_rating,157708,Santa Monica,,51,,3,,,,,,,,,,,,,,,,,
null,,confidence_buffer,157809,confidence_buffer,,null,,,,,,,,,,,,,,,,,,,
1482.4000000953674,,memorable_rating,159292,Santa Monica,,52,,4,,,,,,,,,,,,,,,,,
null,,confidence_buffer,159392,confidence_buffer,,null,,,,,,,,,,,,,,,,,,,
null,,thebreak,159894,break,,null,,,,,,,,,,,,,,,,,,,
1733,,familiar_rating,161627,Rock Springs,,49,Rock Springs,1,,,,,,,,,,,,,,,,,
null,,confidence_buffer,161729,confidence_buffer,,null,,,,,,,,,,,,,,,,,,,
2378.7999997138977,,probe_rating,164108,probe_rating,,50,,,2,1,,,,,,,,,,,,,,,
null,,confidence_buffer,164209,confidence_buffer,,null,,,,,,,,,,,,,,,,,,,
3802.4000000953674,,unique_rating,168012,Rock Springs,,50,,2,,,,,,,,,,,,,,,,,
null,,confidence_buffer,168113,confidence_buffer,,null,,,,,,,,,,,,,,,,,,,
1129,,memorable_rating,169243,Rock Springs,,51,,3,,,,,,,,,,,,,,,,,
null,,confidence_buffer,169344,confidence_buffer,,null,,,,,,,,,,,,,,,,,,,
null,,thebreak,169845,break,,null,,,,,,,,,,,,,,,,,,,
2789.5999999046326,,familiar_rating,172635,Newport News,,49,Newport News,1,,,,,,,,,,,,,,,,,
null,,confidence_buffer,172737,confidence_buffer,,null,,,,,,,,,,,,,,,,,,,
2154.5,,unique_rating,174891,Newport News,,50,,2,,,,,,,,,,,,,,,,,
null,,confidence_buffer,174994,confidence_buffer,,null,,,,,,,,,,,,,,,,,,,
1498.1999998092651,,memorable_rating,176492,Newport News,,50,,2,,,,,,,,,,,,,,,,,
null,,confidence_buffer,176594,confidence_buffer,,null,,,,,,,,,,,,,,,,,,,
null,,thebreak,177095,break,,null,,,,,,,,,,,,,,,,,,,
3444.5,,familiar_rating,180540,Concord,,50,Concord,2,,,,,,,,,,,,,,,,,
null,,confidence_buffer,180640,confidence_buffer,,null,,,,,,,,,,,,,,,,,,,
1259,,unique_rating,181900,Concord,,50,,2,,,,,,,,,,,,,,,,,
null,,confidence_buffer,182001,confidence_buffer,,null,,,,,,,,,,,,,,,,,,,
1210.5,,memorable_rating,183212,Concord,,50,,2,,,,,,,,,,,,,,,,,
null,,confidence_buffer,183313,confidence_buffer,,null,,,,,,,,,,,,,,,,,,,
null,,thebreak,183814,break,,null,,,,,,,,,,,,,,,,,,,
1589.0999999046326,,familiar_rating,185404,Hagerstown,,49,Hagerstown,1,,,,,,,,,,,,,,,,,
null,,confidence_buffer,185505,confidence_buffer,,null,,,,,,,,,,,,,,,,,,,
1881.5,,unique_rating,187388,Hagerstown,,51,,3,,,,,,,,,,,,,,,,,
null,,confidence_buffer,187492,confidence_buffer,,null,,,,,,,,,,,,,,,,,,,
1446.6999998092651,,memorable_rating,188940,Hagerstown,,51,,3,,,,,,,,,,,,,,,,,
null,,confidence_buffer,189042,confidence_buffer,,null,,,,,,,,,,,,,,,,,,,
null,,thebreak,189544,break,,null,,,,,,,,,,,,,,,,,,,
3108.5,,familiar_rating,192653,Boise,,53,Boise,5,,,,,,,,,,,,,,,,,
null,,confidence_buffer,192763,confidence_buffer,,null,,,,,,,,,,,,,,,,,,,
2719.7000002861023,,probe_rating,195484,probe_rating,,51,,,3,1,,,,,,,,,,,,,,,
null,,confidence_buffer,195584,confidence_buffer,,null,,,,,,,,,,,,,,,,,,,
3019,,unique_rating,198604,Boise,,52,,4,,,,,,,,,,,,,,,,,
null,,confidence_buffer,198705,confidence_buffer,,null,,,,,,,,,,,,,,,,,,,
4747.200000286102,,memorable_rating,203453,Boise,,53,,5,,,,,,,,,,,,,,,,,
null,,confidence_buffer,203553,confidence_buffer,,null,,,,,,,,,,,,,,,,,,,
null,,thebreak,204055,break,,null,,,,,,,,,,,,,,,,,,,
1395.9000000953674,,familiar_rating,205451,Marquette,,49,Marquette,1,,,,,,,,,,,,,,,,,
null,,confidence_buffer,205553,confidence_buffer,,null,,,,,,,,,,,,,,,,,,,
3081.800000190735,,unique_rating,208636,Marquette,,52,,4,,,,,,,,,,,,,,,,,
null,,confidence_buffer,208737,confidence_buffer,,null,,,,,,,,,,,,,,,,,,,
1529.7999997138977,,memorable_rating,210267,Marquette,,51,,3,,,,,,,,,,,,,,,,,
null,,confidence_buffer,210369,confidence_buffer,,null,,,,,,,,,,,,,,,,,,,
null,,thebreak,210871,break,,null,,,,,,,,,,,,,,,,,,,
2388.199999809265,,familiar_rating,213260,Fargo,,52,Fargo,4,,,,,,,,,,,,,,,,,
null,,confidence_buffer,213361,confidence_buffer,,null,,,,,,,,,,,,,,,,,,,
2330.699999809265,,unique_rating,215692,Fargo,,51,,3,,,,,,,,,,,,,,,,,
null,,confidence_buffer,215793,confidence_buffer,,null,,,,,,,,,,,,,,,,,,,
1449.9000000953674,,memorable_rating,217244,Fargo,,52,,4,,,,,,,,,,,,,,,,,
null,,confidence_buffer,217344,confidence_buffer,,null,,,,,,,,,,,,,,,,,,,
null,,thebreak,217846,break,,null,,,,,,,,,,,,,,,,,,,
4533,,familiar_rating,222380,Annapolis,,53,Annapolis,5,,,,,,,,,,,,,,,,,
null,,confidence_buffer,222481,confidence_buffer,,null,,,,,,,,,,,,,,,,,,,
2474.0999999046326,,probe_rating,224956,probe_rating,,49,,,1,1,,,,,,,,,,,,,,,
null,,confidence_buffer,225057,confidence_buffer,,null,,,,,,,,,,,,,,,,,,,
4010.300000190735,,unique_rating,229067,Annapolis,,52,,4,,,,,,,,,,,,,,,,,
null,,confidence_buffer,229168,confidence_buffer,,null,,,,,,,,,,,,,,,,,,,
411.40000009536743,,memorable_rating,229580,Annapolis,,52,,4,,,,,,,,,,,,,,,,,
null,,confidence_buffer,229681,confidence_buffer,,null,,,,,,,,,,,,,,,,,,,
null,,thebreak,230191,break,,null,,,,,,,,,,,,,,,,,,,
2540.4000000953674,,familiar_rating,232732,Muncie,,49,Muncie,1,,,,,,,,,,,,,,,,,
null,,confidence_buffer,232834,confidence_buffer,,null,,,,,,,,,,,,,,,,,,,
6697.89999961853,,unique_rating,239532,Muncie,,51,,3,,,,,,,,,,,,,,,,,
null,,confidence_buffer,239633,confidence_buffer,,null,,,,,,,,,,,,,,,,,,,
1962.2000002861023,,memorable_rating,241595,Muncie,,50,,2,,,,,,,,,,,,,,,,,
null,,confidence_buffer,241698,confidence_buffer,,null,,,,,,,,,,,,,,,,,,,
null,,thebreak,242200,break,,null,,,,,,,,,,,,,,,,,,,
4211.099999904633,,familiar_rating,246412,Frankfort,,49,Frankfort,1,,,,,,,,,,,,,,,,,
null,,confidence_buffer,246514,confidence_buffer,,null,,,,,,,,,,,,,,,,,,,
2793.2000002861023,,unique_rating,249308,Frankfort,,51,,3,,,,,,,,,,,,,,,,,
null,,confidence_buffer,249409,confidence_buffer,,null,,,,,,,,,,,,,,,,,,,
490.5,,memorable_rating,249900,Frankfort,,51,,3,,,,,,,,,,,,,,,,,
null,,confidence_buffer,250001,confidence_buffer,,null,,,,,,,,,,,,,,,,,,,
null,,thebreak,250503,break,,null,,,,,,,,,,,,,,,,,,,
4404.5,,intro_0,254907,instruct,,32,,,,,,,,,,,,,,,,,,,
5567.800000190735,,intro_1,260476,instruct,,32,,,,,,,,,,,,,,,,,,,
12511.699999809265,,intro_2,272988,instruct,,32,,,,,,,,,,,,,,,,,,,
null,,instruct_dir_4,274489,instruct,,null,,,,,,,,,,,,,,,,,,,
7202.199999809265,,realistic_rating,281692,Terre Haute,,51,Terre Haute,3,,,,,,,,,,,,,,,,,
null,,confidence_buffer,281793,confidence_buffer,,null,,,,,,,,,,,,,,,,,,,
3530.4000000953674,,pt2_unique_rating,285324,Terre Haute,,52,,4,,,,,,,,,,,,,,,,,
null,,confidence_buffer,285426,confidence_buffer,,null,,,,,,,,,,,,,,,,,,,
3465.5,,pt2_memorable_rating,288892,Terre Haute,,51,,3,,,,,,,,,,,,,,,,,
null,,confidence_buffer,288994,confidence_buffer,,null,,,,,,,,,,,,,,,,,,,
3017,,recognition_phase,292012,Terre Haute,,52,,,,,new,1,1,,,,,,,,,,,,
null,,confidence_buffer,292113,confidence_buffer,,null,,,,,,,,,,,,,,,,,,,
null,,thebreak,292614,break,,null,,,,,,,,,,,,,,,,,,,
4036.9000000953674,,realistic_rating,296652,Yakima,,52,Yakima,4,,,,,,,,,,,,,,,,,
null,,confidence_buffer,296753,confidence_buffer,,null,,,,,,,,,,,,,,,,,,,
2714.2999997138977,,pt2_unique_rating,299468,Yakima,,52,,4,,,,,,,,,,,,,,,,,
null,,confidence_buffer,299569,confidence_buffer,,null,,,,,,,,,,,,,,,,,,,
1770,,pt2_memorable_rating,301339,Yakima,,52,,4,,,,,,,,,,,,,,,,,
null,,confidence_buffer,301442,confidence_buffer,,null,,,,,,,,,,,,,,,,,,,
1881.1999998092651,,recognition_phase,303323,Yakima,,52,,,,,new,1,1,,,,,,,,,,,,
null,,confidence_buffer,303425,confidence_buffer,,null,,,,,,,,,,,,,,,,,,,
null,,thebreak,303926,break,,null,,,,,,,,,,,,,,,,,,,
3045.5,,realistic_rating,306972,Toledo,,53,Toledo,5,,,,,,,,,,,,,,,,,
null,,confidence_buffer,307073,confidence_buffer,,null,,,,,,,,,,,,,,,,,,,
2633.9000000953674,,pt2_unique_rating,309708,Toledo,,52,,4,,,,,,,,,,,,,,,,,
null,,confidence_buffer,309809,confidence_buffer,,null,,,,,,,,,,,,,,,,,,,
4971.10000038147,,pt2_memorable_rating,314781,Toledo,,51,,3,,,,,,,,,,,,,,,,,
null,,confidence_buffer,314882,confidence_buffer,,null,,,,,,,,,,,,,,,,,,,
2680.5,,recognition_phase,317563,Toledo,,51,,,,,new,1,1,,,,,,,,,,,,
null,,confidence_buffer,317665,confidence_buffer,,null,,,,,,,,,,,,,,,,,,,
null,,thebreak,318166,break,,null,,,,,,,,,,,,,,,,,,,
3285.5999999046326,,realistic_rating,321452,Olympia,,53,Olympia,5,,,,,,,,,,,,,,,,,
null,,confidence_buffer,321554,confidence_buffer,,null,,,,,,,,,,,,,,,,,,,
2105.5999999046326,,pt2_unique_rating,323660,Olympia,,52,,4,,,,,,,,,,,,,,,,,
null,,confidence_buffer,323761,confidence_buffer,,null,,,,,,,,,,,,,,,,,,,
1065.9000000953674,,pt2_memorable_rating,324827,Olympia,,52,,4,,,,,,,,,,,,,,,,,
null,,confidence_buffer,324929,confidence_buffer,,null,,,,,,,,,,,,,,,,,,,
2250.4000000953674,,recognition_phase,327180,Olympia,,51,,,,,new,1,1,,,,,,,,,,,,
null,,confidence_buffer,327281,confidence_buffer,,null,,,,,,,,,,,,,,,,,,,
null,,thebreak,327782,break,,null,,,,,,,,,,,,,,,,,,,
2100.800000190735,,realistic_rating,329884,Annapolis,,53,Annapolis,5,,,,,,,,,,,,,,,,,
null,,confidence_buffer,329985,confidence_buffer,,null,,,,,,,,,,,,,,,,,,,
1450.4000000953674,,pt2_unique_rating,331435,Annapolis,,52,,4,,,,,,,,,,,,,,,,,
null,,confidence_buffer,331537,confidence_buffer,,null,,,,,,,,,,,,,,,,,,,
1914.3000001907349,,pt2_memorable_rating,333452,Annapolis,,52,,4,,,,,,,,,,,,,,,,,
null,,confidence_buffer,333554,confidence_buffer,,null,,,,,,,,,,,,,,,,,,,
2136.800000190735,,recognition_phase,335692,Annapolis,,49,,,,,old,1,1,,,,,,,,,,,,
null,,confidence_buffer,335805,confidence_buffer,,null,,,,,,,,,,,,,,,,,,,
null,,thebreak,336306,break,,null,,,,,,,,,,,,,,,,,,,
3161.1000003814697,,realistic_rating,339467,Bellingham,,52,Bellingham,4,,,,,,,,,,,,,,,,,
null,,confidence_buffer,339569,confidence_buffer,,null,,,,,,,,,,,,,,,,,,,
2058.300000190735,,pt2_unique_rating,341628,Bellingham,,52,,4,,,,,,,,,,,,,,,,,
null,,confidence_buffer,341729,confidence_buffer,,null,,,,,,,,,,,,,,,,,,,
1993.9000000953674,,pt2_memorable_rating,343724,Bellingham,,51,,3,,,,,,,,,,,,,,,,,
null,,confidence_buffer,343826,confidence_buffer,,null,,,,,,,,,,,,,,,,,,,
2601.5,,recognition_phase,346428,Bellingham,,52,,,,,new,1,1,,,,,,,,,,,,
null,,confidence_buffer,346529,confidence_buffer,,null,,,,,,,,,,,,,,,,,,,
null,,thebreak,347031,break,,null,,,,,,,,,,,,,,,,,,,
1668.6999998092651,,realistic_rating,348700,Burlington,,53,Burlington,5,,,,,,,,,,,,,,,,,
null,,confidence_buffer,348801,confidence_buffer,,null,,,,,,,,,,,,,,,,,,,
4218.800000190735,,pt2_unique_rating,353020,Burlington,,51,,3,,,,,,,,,,,,,,,,,
null,,confidence_buffer,353122,confidence_buffer,,null,,,,,,,,,,,,,,,,,,,
1625.8999996185303,,pt2_memorable_rating,354748,Burlington,,51,,3,,,,,,,,,,,,,,,,,
null,,confidence_buffer,354849,confidence_buffer,,null,,,,,,,,,,,,,,,,,,,
2169.9000000953674,,recognition_phase,357020,Burlington,,49,,,,,old,1,1,,,,,,,,,,,,
null,,confidence_buffer,357120,confidence_buffer,,null,,,,,,,,,,,,,,,,,,,
null,,thebreak,357622,break,,null,,,,,,,,,,,,,,,,,,,
3029.0999999046326,,realistic_rating,360652,Santa Monica,,53,Santa Monica,5,,,,,,,,,,,,,,,,,
null,,confidence_buffer,360752,confidence_buffer,,null,,,,,,,,,,,,,,,,,,,
4251.099999904633,,pt2_unique_rating,365004,Santa Monica,,51,,3,,,,,,,,,,,,,,,,,
null,,confidence_buffer,365106,confidence_buffer,,null,,,,,,,,,,,,,,,,,,,
1177.6999998092651,,pt2_memorable_rating,366284,Santa Monica,,52,,4,,,,,,,,,,,,,,,,,
null,,confidence_buffer,366385,confidence_buffer,,null,,,,,,,,,,,,,,,,,,,
3722.699999809265,,recognition_phase,370108,Santa Monica,,50,,,,,old,1,1,,,,,,,,,,,,
null,,confidence_buffer,370209,confidence_buffer,,null,,,,,,,,,,,,,,,,,,,
null,,thebreak,370711,break,,null,,,,,,,,,,,,,,,,,,,
4308.699999809265,,realistic_rating,375020,Cambridge,,52,Cambridge,4,,,,,,,,,,,,,,,,,
null,,confidence_buffer,375122,confidence_buffer,,null,,,,,,,,,,,,,,,,,,,
2280.7999997138977,,pt2_unique_rating,377403,Cambridge,,52,,4,,,,,,,,,,,,,,,,,
null,,confidence_buffer,377504,confidence_buffer,,null,,,,,,,,,,,,,,,,,,,
1643.9000000953674,,pt2_memorable_rating,379148,Cambridge,,51,,3,,,,,,,,,,,,,,,,,
null,,confidence_buffer,379250,confidence_buffer,,null,,,,,,,,,,,,,,,,,,,
3193,,recognition_phase,382444,Cambridge,,50,,,,,old,0,0.8888888888888888,,,,,,,,,,,,
null,,confidence_buffer,382557,confidence_buffer,,null,,,,,,,,,,,,,,,,,,,
null,,thebreak,383058,break,,null,,,,,,,,,,,,,,,,,,,
2169.5999999046326,,realistic_rating,385228,Dover,,52,Dover,4,,,,,,,,,,,,,,,,,
null,,confidence_buffer,385329,confidence_buffer,,null,,,,,,,,,,,,,,,,,,,
1929.7999997138977,,pt2_unique_rating,387260,Dover,,51,,3,,,,,,,,,,,,,,,,,
null,,confidence_buffer,387360,confidence_buffer,,null,,,,,,,,,,,,,,,,,,,
810.5999999046326,,pt2_memorable_rating,388171,Dover,,51,,3,,,,,,,,,,,,,,,,,
null,,confidence_buffer,388273,confidence_buffer,,null,,,,,,,,,,,,,,,,,,,
3162.5999999046326,,recognition_phase,391436,Dover,,52,,,,,new,1,0.9,,,,,,,,,,,,
null,,confidence_buffer,391537,confidence_buffer,,null,,,,,,,,,,,,,,,,,,,
null,,thebreak,392038,break,,null,,,,,,,,,,,,,,,,,,,
3876.7999997138977,,realistic_rating,395915,Helena,,52,Helena,4,,,,,,,,,,,,,,,,,
null,,confidence_buffer,396018,confidence_buffer,,null,,,,,,,,,,,,,,,,,,,
4185.300000190735,,pt2_unique_rating,400204,Helena,,51,,3,,,,,,,,,,,,,,,,,
null,,confidence_buffer,400305,confidence_buffer,,null,,,,,,,,,,,,,,,,,,,
985.5999999046326,,pt2_memorable_rating,401291,Helena,,51,,3,,,,,,,,,,,,,,,,,
null,,confidence_buffer,401392,confidence_buffer,,null,,,,,,,,,,,,,,,,,,,
1531.9000000953674,,recognition_phase,402925,Helena,,51,,,,,new,1,0.9090909090909091,,,,,,,,,,,,
null,,confidence_buffer,403026,confidence_buffer,,null,,,,,,,,,,,,,,,,,,,
null,,thebreak,403526,break,,null,,,,,,,,,,,,,,,,,,,
2757,,realistic_rating,406284,Bozeman,,52,Bozeman,4,,,,,,,,,,,,,,,,,
null,,confidence_buffer,406385,confidence_buffer,,null,,,,,,,,,,,,,,,,,,,
1514.2000002861023,,pt2_unique_rating,407899,Bozeman,,52,,4,,,,,,,,,,,,,,,,,
null,,confidence_buffer,408001,confidence_buffer,,null,,,,,,,,,,,,,,,,,,,
248538.19999980927,,pt2_memorable_rating,656540,Bozeman,,53,,5,,,,,,,,,,,,,,,,,
null,,confidence_buffer,656642,confidence_buffer,,null,,,,,,,,,,,,,,,,,,,
4425.099999904633,,recognition_phase,661068,Bozeman,,50,,,,,old,0,0.8333333333333334,,,,,,,,,,,,
null,,confidence_buffer,661170,confidence_buffer,,null,,,,,,,,,,,,,,,,,,,
null,,thebreak,661671,break,,null,,,,,,,,,,,,,,,,,,,
3845,,realistic_rating,665517,Newport News,,51,Newport News,3,,,,,,,,,,,,,,,,,
null,,confidence_buffer,665618,confidence_buffer,,null,,,,,,,,,,,,,,,,,,,
14745.400000095367,,pt2_unique_rating,680364,Newport News,,52,,4,,,,,,,,,,,,,,,,,
null,,confidence_buffer,680467,confidence_buffer,,null,,,,,,,,,,,,,,,,,,,
9273,,pt2_memorable_rating,689740,Newport News,,52,,4,,,,,,,,,,,,,,,,,
null,,confidence_buffer,689855,confidence_buffer,,null,,,,,,,,,,,,,,,,,,,
2459.5,,recognition_phase,692316,Newport News,,49,,,,,old,1,0.8461538461538461,,,,,,,,,,,,
null,,confidence_buffer,692418,confidence_buffer,,null,,,,,,,,,,,,,,,,,,,
null,,thebreak,692919,break,,null,,,,,,,,,,,,,,,,,,,
2004.4000000953674,,realistic_rating,694924,Reno,,52,Reno,4,,,,,,,,,,,,,,,,,
null,,confidence_buffer,695026,confidence_buffer,,null,,,,,,,,,,,,,,,,,,,
1736.6000003814697,,pt2_unique_rating,696764,Reno,,52,,4,,,,,,,,,,,,,,,,,
null,,confidence_buffer,696865,confidence_buffer,,null,,,,,,,,,,,,,,,,,,,
650.3999996185303,,pt2_memorable_rating,697516,Reno,,52,,4,,,,,,,,,,,,,,,,,
null,,confidence_buffer,697617,confidence_buffer,,null,,,,,,,,,,,,,,,,,,,
1595.0999999046326,,recognition_phase,699212,Reno,,52,,,,,new,1,0.8571428571428571,,,,,,,,,,,,
null,,confidence_buffer,699313,confidence_buffer,,null,,,,,,,,,,,,,,,,,,,
null,,thebreak,699815,break,,null,,,,,,,,,,,,,,,,,,,
17668.5,,realistic_rating,717484,Dubuque,,51,Dubuque,3,,,,,,,,,,,,,,,,,
null,,confidence_buffer,717585,confidence_buffer,,null,,,,,,,,,,,,,,,,,,,
1881.7000002861023,,pt2_unique_rating,719468,Dubuque,,50,,2,,,,,,,,,,,,,,,,,
null,,confidence_buffer,719569,confidence_buffer,,null,,,,,,,,,,,,,,,,,,,
11066.5,,pt2_memorable_rating,730636,Dubuque,,51,,3,,,,,,,,,,,,,,,,,
null,,confidence_buffer,730737,confidence_buffer,,null,,,,,,,,,,,,,,,,,,,
3178.5,,probe_rating,733916,probe_rating,,49,,,1,1,,,,,,,,,,,,,,,
null,,confidence_buffer,734018,confidence_buffer,,null,,,,,,,,,,,,,,,,,,,
3385.5,,recognition_phase,737404,Dubuque,,51,,,,,new,1,0.8666666666666667,,,,,,,,,,,,
null,,confidence_buffer,737504,confidence_buffer,,null,,,,,,,,,,,,,,,,,,,
null,,thebreak,738005,break,,null,,,,,,,,,,,,,,,,,,,
3654.5999999046326,,realistic_rating,741660,Boise,,52,Boise,4,,,,,,,,,,,,,,,,,
null,,confidence_buffer,741761,confidence_buffer,,null,,,,,,,,,,,,,,,,,,,
3562.6000003814697,,pt2_unique_rating,745324,Boise,,51,,3,,,,,,,,,,,,,,,,,
null,,confidence_buffer,745426,confidence_buffer,,null,,,,,,,,,,,,,,,,,,,
1306.0999999046326,,pt2_memorable_rating,746733,Boise,,51,,3,,,,,,,,,,,,,,,,,
null,,confidence_buffer,746833,confidence_buffer,,null,,,,,,,,,,,,,,,,,,,
1754.5999999046326,,recognition_phase,748588,Boise,,49,,,,,old,1,0.875,,,,,,,,,,,,
null,,confidence_buffer,748689,confidence_buffer,,null,,,,,,,,,,,,,,,,,,,
null,,thebreak,749191,break,,null,,,,,,,,,,,,,,,,,,,
3220.4000000953674,,realistic_rating,752412,Ann Arbor,,53,Ann Arbor,5,,,,,,,,,,,,,,,,,
null,,confidence_buffer,752514,confidence_buffer,,null,,,,,,,,,,,,,,,,,,,
1785.5999999046326,,pt2_unique_rating,754300,Ann Arbor,,52,,4,,,,,,,,,,,,,,,,,
null,,confidence_buffer,754401,confidence_buffer,,null,,,,,,,,,,,,,,,,,,,
2586.199999809265,,probe_rating,756988,probe_rating,,50,,,2,1,,,,,,,,,,,,,,,
null,,confidence_buffer,757089,confidence_buffer,,null,,,,,,,,,,,,,,,,,,,
4042.5,,pt2_memorable_rating,761132,Ann Arbor,,52,,4,,,,,,,,,,,,,,,,,
null,,confidence_buffer,761237,confidence_buffer,,null,,,,,,,,,,,,,,,,,,,
1830.7999997138977,,recognition_phase,763068,Ann Arbor,,51,,,,,new,1,0.8823529411764706,,,,,,,,,,,,
null,,confidence_buffer,763170,confidence_buffer,,null,,,,,,,,,,,,,,,,,,,
null,,thebreak,763671,break,,null,,,,,,,,,,,,,,,,,,,
2452.4000000953674,,realistic_rating,766124,Boulder,,53,Boulder,5,,,,,,,,,,,,,,,,,
null,,confidence_buffer,766226,confidence_buffer,,null,,,,,,,,,,,,,,,,,,,
1913.8999996185303,,pt2_unique_rating,768141,Boulder,,52,,4,,,,,,,,,,,,,,,,,
null,,confidence_buffer,768241,confidence_buffer,,null,,,,,,,,,,,,,,,,,,,
1129.9000000953674,,pt2_memorable_rating,769372,Boulder,,51,,3,,,,,,,,,,,,,,,,,
null,,confidence_buffer,769474,confidence_buffer,,null,,,,,,,,,,,,,,,,,,,
1673.5999999046326,,recognition_phase,771148,Boulder,,50,,,,,old,0,0.8333333333333334,,,,,,,,,,,,
null,,confidence_buffer,771249,confidence_buffer,,null,,,,,,,,,,,,,,,,,,,
null,,thebreak,771751,break,,null,,,,,,,,,,,,,,,,,,,
4180.900000095367,,realistic_rating,775932,Fargo,,53,Fargo,5,,,,,,,,,,,,,,,,,
null,,confidence_buffer,776034,confidence_buffer,,null,,,,,,,,,,,,,,,,,,,
809.7999997138977,,pt2_unique_rating,776844,Fargo,,52,,4,,,,,,,,,,,,,,,,,
null,,confidence_buffer,776945,confidence_buffer,,null,,,,,,,,,,,,,,,,,,,
19626.10000038147,,pt2_memorable_rating,796572,Fargo,,52,,4,,,,,,,,,,,,,,,,,
null,,confidence_buffer,796673,confidence_buffer,,null,,,,,,,,,,,,,,,,,,,
1658.2999997138977,,recognition_phase,798332,Fargo,,49,,,,,old,1,0.8421052631578947,,,,,,,,,,,,
null,,confidence_buffer,798433,confidence_buffer,,null,,,,,,,,,,,,,,,,,,,
null,,thebreak,798934,break,,null,,,,,,,,,,,,,,,,,,,
3125.4000000953674,,realistic_rating,802060,Ithaca,,53,Ithaca,5,,,,,,,,,,,,,,,,,
null,,confidence_buffer,802162,confidence_buffer,,null,,,,,,,,,,,,,,,,,,,
985.6999998092651,,pt2_unique_rating,803148,Ithaca,,52,,4,,,,,,,,,,,,,,,,,
null,,confidence_buffer,803249,confidence_buffer,,null,,,,,,,,,,,,,,,,,,,
522.6000003814697,,pt2_memorable_rating,803772,Ithaca,,52,,4,,,,,,,,,,,,,,,,,
null,,confidence_buffer,803875,confidence_buffer,,null,,,,,,,,,,,,,,,,,,,
1800.5,,recognition_phase,805676,Ithaca,,49,,,,,old,1,0.85,,,,,,,,,,,,
null,,confidence_buffer,805776,confidence_buffer,,null,,,,,,,,,,,,,,,,,,,
null,,thebreak,806278,break,,null,,,,,,,,,,,,,,,,,,,
2613.7999997138977,,realistic_rating,808892,Abilene,,52,Abilene,4,,,,,,,,,,,,,,,,,
null,,confidence_buffer,808993,confidence_buffer,,null,,,,,,,,,,,,,,,,,,,
2026.5,,pt2_unique_rating,811020,Abilene,,52,,4,,,,,,,,,,,,,,,,,
null,,confidence_buffer,811121,confidence_buffer,,null,,,,,,,,,,,,,,,,,,,
1354.8000001907349,,pt2_memorable_rating,812476,Abilene,,51,,3,,,,,,,,,,,,,,,,,
null,,confidence_buffer,812578,confidence_buffer,,null,,,,,,,,,,,,,,,,,,,
1594,,recognition_phase,814172,Abilene,,49,,,,,old,1,0.8571428571428571,,,,,,,,,,,,
null,,confidence_buffer,814273,confidence_buffer,,null,,,,,,,,,,,,,,,,,,,
null,,thebreak,814774,break,,null,,,,,,,,,,,,,,,,,,,
2837.3999996185303,,realistic_rating,817612,Gainesville,,52,Gainesville,4,,,,,,,,,,,,,,,,,
null,,confidence_buffer,817713,confidence_buffer,,null,,,,,,,,,,,,,,,,,,,
1578.7000002861023,,pt2_unique_rating,819292,Gainesville,,51,,3,,,,,,,,,,,,,,,,,
null,,confidence_buffer,819393,confidence_buffer,,null,,,,,,,,,,,,,,,,,,,
827.2999997138977,,pt2_memorable_rating,820220,Gainesville,,51,,3,,,,,,,,,,,,,,,,,
null,,confidence_buffer,820322,confidence_buffer,,null,,,,,,,,,,,,,,,,,,,
2042.1999998092651,,recognition_phase,822364,Gainesville,,49,,,,,old,1,0.8636363636363636,,,,,,,,,,,,
null,,confidence_buffer,822465,confidence_buffer,,null,,,,,,,,,,,,,,,,,,,
null,,thebreak,822966,break,,null,,,,,,,,,,,,,,,,,,,
2357.9000000953674,,realistic_rating,825324,Rock Springs,,52,Rock Springs,4,,,,,,,,,,,,,,,,,
null,,confidence_buffer,825425,confidence_buffer,,null,,,,,,,,,,,,,,,,,,,
1354.5,,pt2_unique_rating,826780,Rock Springs,,51,,3,,,,,,,,,,,,,,,,,
null,,confidence_buffer,826881,confidence_buffer,,null,,,,,,,,,,,,,,,,,,,
554.5999999046326,,pt2_memorable_rating,827436,Rock Springs,,51,,3,,,,,,,,,,,,,,,,,
null,,confidence_buffer,827538,confidence_buffer,,null,,,,,,,,,,,,,,,,,,,
1065.8000001907349,,recognition_phase,828604,Rock Springs,,49,,,,,old,1,0.8695652173913043,,,,,,,,,,,,
null,,confidence_buffer,828705,confidence_buffer,,null,,,,,,,,,,,,,,,,,,,
null,,thebreak,829206,break,,null,,,,,,,,,,,,,,,,,,,
2357.9000000953674,,realistic_rating,831564,Hagerstown,,52,Hagerstown,4,,,,,,,,,,,,,,,,,
null,,confidence_buffer,831665,confidence_buffer,,null,,,,,,,,,,,,,,,,,,,
1354.2000002861023,,pt2_unique_rating,833020,Hagerstown,,51,,3,,,,,,,,,,,,,,,,,
null,,confidence_buffer,833122,confidence_buffer,,null,,,,,,,,,,,,,,,,,,,
24778.400000095367,,pt2_memorable_rating,857901,Hagerstown,,52,,4,,,,,,,,,,,,,,,,,
null,,confidence_buffer,858002,confidence_buffer,,null,,,,,,,,,,,,,,,,,,,
3449.6000003814697,,recognition_phase,861452,Hagerstown,,49,,,,,old,1,0.875,,,,,,,,,,,,
null,,confidence_buffer,861554,confidence_buffer,,null,,,,,,,,,,,,,,,,,,,
null,,thebreak,862055,break,,null,,,,,,,,,,,,,,,,,,,
2133.2999997138977,,realistic_rating,864188,Muncie,,52,Muncie,4,,,,,,,,,,,,,,,,,
null,,confidence_buffer,864290,confidence_buffer,,null,,,,,,,,,,,,,,,,,,,
618.0999999046326,,pt2_unique_rating,864908,Muncie,,52,,4,,,,,,,,,,,,,,,,,
null,,confidence_buffer,865009,confidence_buffer,,null,,,,,,,,,,,,,,,,,,,
1130.3000001907349,,pt2_memorable_rating,866140,Muncie,,52,,4,,,,,,,,,,,,,,,,,
null,,confidence_buffer,866241,confidence_buffer,,null,,,,,,,,,,,,,,,,,,,
906.5,,recognition_phase,867148,Muncie,,49,,,,,old,1,0.88,,,,,,,,,,,,
null,,confidence_buffer,867249,confidence_buffer,,null,,,,,,,,,,,,,,,,,,,
null,,thebreak,867750,break,,null,,,,,,,,,,,,,,,,,,,
1845.9000000953674,,realistic_rating,869596,Concord,,52,Concord,4,,,,,,,,,,,,,,,,,
null,,confidence_buffer,869697,confidence_buffer,,null,,,,,,,,,,,,,,,,,,,
842.4000000953674,,pt2_unique_rating,870540,Concord,,51,,3,,,,,,,,,,,,,,,,,
null,,confidence_buffer,870642,confidence_buffer,,null,,,,,,,,,,,,,,,,,,,
873.6000003814697,,pt2_memorable_rating,871516,Concord,,51,,3,,,,,,,,,,,,,,,,,
null,,confidence_buffer,871618,confidence_buffer,,null,,,,,,,,,,,,,,,,,,,
1721.4000000953674,,recognition_phase,873340,Concord,,49,,,,,old,1,0.8846153846153846,,,,,,,,,,,,
null,,confidence_buffer,873441,confidence_buffer,,null,,,,,,,,,,,,,,,,,,,
null,,thebreak,873943,break,,null,,,,,,,,,,,,,,,,,,,
3476.5,,realistic_rating,877420,Frankfort,,52,Frankfort,4,,,,,,,,,,,,,,,,,
null,,confidence_buffer,877522,confidence_buffer,,null,,,,,,,,,,,,,,,,,,,
985.1000003814697,,pt2_unique_rating,878508,Frankfort,,51,,3,,,,,,,,,,,,,,,,,
null,,confidence_buffer,878609,confidence_buffer,,null,,,,,,,,,,,,,,,,,,,
938.2999997138977,,pt2_memorable_rating,879548,Frankfort,,51,,3,,,,,,,,,,,,,,,,,
null,,confidence_buffer,879649,confidence_buffer,,null,,,,,,,,,,,,,,,,,,,
1163,,recognition_phase,880812,Frankfort,,50,,,,,old,1,0.8888888888888888,,,,,,,,,,,,
null,,confidence_buffer,880913,confidence_buffer,,null,,,,,,,,,,,,,,,,,,,
null,,thebreak,881415,break,,null,,,,,,,,,,,,,,,,,,,
4277,,realistic_rating,885692,Scottsdale,,53,Scottsdale,5,,,,,,,,,,,,,,,,,
null,,confidence_buffer,885794,confidence_buffer,,null,,,,,,,,,,,,,,,,,,,
2537.8999996185303,,pt2_unique_rating,888332,Scottsdale,,51,,3,,,,,,,,,,,,,,,,,
null,,confidence_buffer,888433,confidence_buffer,,null,,,,,,,,,,,,,,,,,,,
715.5,,pt2_memorable_rating,889149,Scottsdale,,52,,4,,,,,,,,,,,,,,,,,
null,,confidence_buffer,889250,confidence_buffer,,null,,,,,,,,,,,,,,,,,,,
1801,,recognition_phase,891051,Scottsdale,,49,,,,,old,1,0.8928571428571429,,,,,,,,,,,,
null,,confidence_buffer,891154,confidence_buffer,,null,,,,,,,,,,,,,,,,,,,
null,,thebreak,891655,break,,null,,,,,,,,,,,,,,,,,,,
3284.300000190735,,realistic_rating,894940,Fort Wayne,,52,Fort Wayne,4,,,,,,,,,,,,,,,,,
null,,confidence_buffer,895040,confidence_buffer,,null,,,,,,,,,,,,,,,,,,,
715.1000003814697,,pt2_unique_rating,895756,Fort Wayne,,52,,4,,,,,,,,,,,,,,,,,
null,,confidence_buffer,895858,confidence_buffer,,null,,,,,,,,,,,,,,,,,,,
1050.0999999046326,,pt2_memorable_rating,896908,Fort Wayne,,51,,3,,,,,,,,,,,,,,,,,
null,,confidence_buffer,897011,confidence_buffer,,null,,,,,,,,,,,,,,,,,,,
3065,,recognition_phase,900076,Fort Wayne,,50,,,,,old,1,0.896551724137931,,,,,,,,,,,,
null,,confidence_buffer,900178,confidence_buffer,,null,,,,,,,,,,,,,,,,,,,
null,,thebreak,900690,break,,null,,,,,,,,,,,,,,,,,,,
2424.8999996185303,,realistic_rating,903116,Pasadena,,53,Pasadena,5,,,,,,,,,,,,,,,,,
null,,confidence_buffer,903217,confidence_buffer,,null,,,,,,,,,,,,,,,,,,,
2522.4000000953674,,pt2_unique_rating,905740,Pasadena,,51,,3,,,,,,,,,,,,,,,,,
null,,confidence_buffer,905841,confidence_buffer,,null,,,,,,,,,,,,,,,,,,,
1178.4000000953674,,pt2_memorable_rating,907020,Pasadena,,51,,3,,,,,,,,,,,,,,,,,
null,,confidence_buffer,907130,confidence_buffer,,null,,,,,,,,,,,,,,,,,,,
3025.800000190735,,recognition_phase,910156,Pasadena,,50,,,,,old,0,0.8666666666666667,,,,,,,,,,,,
null,,confidence_buffer,910259,confidence_buffer,,null,,,,,,,,,,,,,,,,,,,
null,,thebreak,910760,break,,null,,,,,,,,,,,,,,,,,,,
2675.9000000953674,,realistic_rating,913436,Topeka,,52,Topeka,4,,,,,,,,,,,,,,,,,
null,,confidence_buffer,913537,confidence_buffer,,null,,,,,,,,,,,,,,,,,,,
2298.5,,probe_rating,915836,probe_rating,,53,,,5,1,,,,,,,,,,,,,,,
null,,confidence_buffer,915937,confidence_buffer,,null,,,,,,,,,,,,,,,,,,,
4506.699999809265,,pt2_unique_rating,920444,Topeka,,51,,3,,,,,,,,,,,,,,,,,
null,,confidence_buffer,920545,confidence_buffer,,null,,,,,,,,,,,,,,,,,,,
1290.4000000953674,,pt2_memorable_rating,921836,Topeka,,50,,2,,,,,,,,,,,,,,,,,
null,,confidence_buffer,921939,confidence_buffer,,null,,,,,,,,,,,,,,,,,,,
3337.0999999046326,,recognition_phase,925276,Topeka,,51,,,,,new,1,0.8709677419354839,,,,,,,,,,,,
null,,confidence_buffer,925378,confidence_buffer,,null,,,,,,,,,,,,,,,,,,,
null,,thebreak,925880,break,,null,,,,,,,,,,,,,,,,,,,
2659.199999809265,,realistic_rating,928540,Altoona,,51,Altoona,3,,,,,,,,,,,,,,,,,
null,,confidence_buffer,928641,confidence_buffer,,null,,,,,,,,,,,,,,,,,,,
1978.5999999046326,,pt2_unique_rating,930620,Altoona,,52,,4,,,,,,,,,,,,,,,,,
null,,confidence_buffer,930722,confidence_buffer,,null,,,,,,,,,,,,,,,,,,,
1897.7000002861023,,probe_rating,932620,probe_rating,,52,,,4,1,,,,,,,,,,,,,,,
null,,confidence_buffer,932726,confidence_buffer,,null,,,,,,,,,,,,,,,,,,,
3621.5,,pt2_memorable_rating,936348,Altoona,,51,,3,,,,,,,,,,,,,,,,,
null,,confidence_buffer,936449,confidence_buffer,,null,,,,,,,,,,,,,,,,,,,
2506.4000000953674,,recognition_phase,938956,Altoona,,52,,,,,new,1,0.875,,,,,,,,,,,,
null,,confidence_buffer,939057,confidence_buffer,,null,,,,,,,,,,,,,,,,,,,
null,,thebreak,939559,break,,null,,,,,,,,,,,,,,,,,,,
3396.5999999046326,,realistic_rating,942956,Las Cruces,,52,Las Cruces,4,,,,,,,,,,,,,,,,,
null,,confidence_buffer,943058,confidence_buffer,,null,,,,,,,,,,,,,,,,,,,
1321.6000003814697,,pt2_unique_rating,944380,Las Cruces,,52,,4,,,,,,,,,,,,,,,,,
null,,confidence_buffer,944481,confidence_buffer,,null,,,,,,,,,,,,,,,,,,,
970.2000002861023,,pt2_memorable_rating,945452,Las Cruces,,51,,3,,,,,,,,,,,,,,,,,
null,,confidence_buffer,945553,confidence_buffer,,null,,,,,,,,,,,,,,,,,,,
2378.1000003814697,,recognition_phase,947932,Las Cruces,,52,,,,,new,1,0.8787878787878788,,,,,,,,,,,,
null,,confidence_buffer,948032,confidence_buffer,,null,,,,,,,,,,,,,,,,,,,
null,,thebreak,948533,break,,null,,,,,,,,,,,,,,,,,,,
2934.4000000953674,,realistic_rating,951468,Tallahassee,,52,Tallahassee,4,,,,,,,,,,,,,,,,,
null,,confidence_buffer,951570,confidence_buffer,,null,,,,,,,,,,,,,,,,,,,
3513.5,,pt2_unique_rating,955084,Tallahassee,,52,,4,,,,,,,,,,,,,,,,,
null,,confidence_buffer,955185,confidence_buffer,,null,,,,,,,,,,,,,,,,,,,
1322.5999999046326,,pt2_memorable_rating,956508,Tallahassee,,52,,4,,,,,,,,,,,,,,,,,
null,,confidence_buffer,956609,confidence_buffer,,null,,,,,,,,,,,,,,,,,,,
1785.9000000953674,,recognition_phase,958396,Tallahassee,,49,,,,,old,1,0.8823529411764706,,,,,,,,,,,,
null,,confidence_buffer,958497,confidence_buffer,,null,,,,,,,,,,,,,,,,,,,
null,,thebreak,958998,break,,null,,,,,,,,,,,,,,,,,,,
4869.700000286102,,realistic_rating,963869,Stamford,,51,Stamford,3,,,,,,,,,,,,,,,,,
null,,confidence_buffer,963969,confidence_buffer,,null,,,,,,,,,,,,,,,,,,,
2106.3999996185303,,pt2_unique_rating,966076,Stamford,,51,,3,,,,,,,,,,,,,,,,,
null,,confidence_buffer,966177,confidence_buffer,,null,,,,,,,,,,,,,,,,,,,
1290.5999999046326,,pt2_memorable_rating,967468,Stamford,,51,,3,,,,,,,,,,,,,,,,,
null,,confidence_buffer,967570,confidence_buffer,,null,,,,,,,,,,,,,,,,,,,
2041.9000000953674,,recognition_phase,969612,Stamford,,49,,,,,old,1,0.8857142857142857,,,,,,,,,,,,
null,,confidence_buffer,969714,confidence_buffer,,null,,,,,,,,,,,,,,,,,,,
null,,thebreak,970215,break,,null,,,,,,,,,,,,,,,,,,,
2644.0999999046326,,realistic_rating,972860,Peoria,,52,Peoria,4,,,,,,,,,,,,,,,,,
null,,confidence_buffer,972962,confidence_buffer,,null,,,,,,,,,,,,,,,,,,,
2857.699999809265,,probe_rating,975820,probe_rating,,51,,,3,1,,,,,,,,,,,,,,,
null,,confidence_buffer,975922,confidence_buffer,,null,,,,,,,,,,,,,,,,,,,
2729.7000002861023,,pt2_unique_rating,978652,Peoria,,51,,3,,,,,,,,,,,,,,,,,
null,,confidence_buffer,978753,confidence_buffer,,null,,,,,,,,,,,,,,,,,,,
1803.1999998092651,,pt2_memorable_rating,980557,Peoria,,51,,3,,,,,,,,,,,,,,,,,
null,,confidence_buffer,980658,confidence_buffer,,null,,,,,,,,,,,,,,,,,,,
3209.5,,recognition_phase,983868,Peoria,,50,,,,,old,0,0.8611111111111112,,,,,,,,,,,,
null,,confidence_buffer,983969,confidence_buffer,,null,,,,,,,,,,,,,,,,,,,
null,,thebreak,984471,break,,null,,,,,,,,,,,,,,,,,,,
2740.9000000953674,,realistic_rating,987212,New Haven,,53,New Haven,5,,,,,,,,,,,,,,,,,
null,,confidence_buffer,987314,confidence_buffer,,null,,,,,,,,,,,,,,,,,,,
1882.9000000953674,,pt2_unique_rating,989197,New Haven,,52,,4,,,,,,,,,,,,,,,,,
null,,confidence_buffer,989298,confidence_buffer,,null,,,,,,,,,,,,,,,,,,,
1129.2000002861023,,pt2_memorable_rating,990428,New Haven,,52,,4,,,,,,,,,,,,,,,,,
null,,confidence_buffer,990530,confidence_buffer,,null,,,,,,,,,,,,,,,,,,,
3850,,recognition_phase,994380,New Haven,,51,,,,,new,1,0.8648648648648649,,,,,,,,,,,,
null,,confidence_buffer,994482,confidence_buffer,,null,,,,,,,,,,,,,,,,,,,
null,,thebreak,994984,break,,null,,,,,,,,,,,,,,,,,,,
1892.6999998092651,,realistic_rating,996877,Berkeley,,53,Berkeley,5,,,,,,,,,,,,,,,,,
null,,confidence_buffer,996979,confidence_buffer,,null,,,,,,,,,,,,,,,,,,,
2344.800000190735,,pt2_unique_rating,999324,Berkeley,,52,,4,,,,,,,,,,,,,,,,,
null,,confidence_buffer,999426,confidence_buffer,,null,,,,,,,,,,,,,,,,,,,
2153.4000000953674,,probe_rating,1001580,probe_rating,,51,,,3,1,,,,,,,,,,,,,,,
null,,confidence_buffer,1001681,confidence_buffer,,null,,,,,,,,,,,,,,,,,,,
2794.300000190735,,pt2_memorable_rating,1004476,Berkeley,,52,,4,,,,,,,,,,,,,,,,,
null,,confidence_buffer,1004578,confidence_buffer,,null,,,,,,,,,,,,,,,,,,,
1002,,recognition_phase,1005580,Berkeley,,49,,,,,old,1,0.868421052631579,,,,,,,,,,,,
null,,confidence_buffer,1005681,confidence_buffer,,null,,,,,,,,,,,,,,,,,,,
null,,thebreak,1006182,break,,null,,,,,,,,,,,,,,,,,,,
3637.5,,realistic_rating,1009820,Youngstown,,52,Youngstown,4,,,,,,,,,,,,,,,,,
null,,confidence_buffer,1009921,confidence_buffer,,null,,,,,,,,,,,,,,,,,,,
618.9000000953674,,pt2_unique_rating,1010540,Youngstown,,52,,4,,,,,,,,,,,,,,,,,
null,,confidence_buffer,1010641,confidence_buffer,,null,,,,,,,,,,,,,,,,,,,
1882.5999999046326,,pt2_memorable_rating,1012524,Youngstown,,52,,4,,,,,,,,,,,,,,,,,
null,,confidence_buffer,1012625,confidence_buffer,,null,,,,,,,,,,,,,,,,,,,
2058.699999809265,,recognition_phase,1014684,Youngstown,,51,,,,,new,1,0.8717948717948718,,,,,,,,,,,,
null,,confidence_buffer,1014785,confidence_buffer,,null,,,,,,,,,,,,,,,,,,,
null,,thebreak,1015286,break,,null,,,,,,,,,,,,,,,,,,,
2549.800000190735,,realistic_rating,1017836,Montpelier,,52,Montpelier,4,,,,,,,,,,,,,,,,,
null,,confidence_buffer,1017937,confidence_buffer,,null,,,,,,,,,,,,,,,,,,,
1034.8000001907349,,pt2_unique_rating,1018972,Montpelier,,52,,4,,,,,,,,,,,,,,,,,
null,,confidence_buffer,1019074,confidence_buffer,,null,,,,,,,,,,,,,,,,,,,
1338.1000003814697,,pt2_memorable_rating,1020413,Montpelier,,51,,3,,,,,,,,,,,,,,,,,
null,,confidence_buffer,1020514,confidence_buffer,,null,,,,,,,,,,,,,,,,,,,
1337,,recognition_phase,1021852,Montpelier,,52,,,,,new,1,0.875,,,,,,,,,,,,
null,,confidence_buffer,1021954,confidence_buffer,,null,,,,,,,,,,,,,,,,,,,
null,,thebreak,1022455,break,,null,,,,,,,,,,,,,,,,,,,
2036.8000001907349,,realistic_rating,1024492,Fort Collins,,52,Fort Collins,4,,,,,,,,,,,,,,,,,
null,,confidence_buffer,1024594,confidence_buffer,,null,,,,,,,,,,,,,,,,,,,
921.8000001907349,,pt2_unique_rating,1025517,Fort Collins,,52,,4,,,,,,,,,,,,,,,,,
null,,confidence_buffer,1025618,confidence_buffer,,null,,,,,,,,,,,,,,,,,,,
1226.1999998092651,,pt2_memorable_rating,1026845,Fort Collins,,51,,3,,,,,,,,,,,,,,,,,
null,,confidence_buffer,1026946,confidence_buffer,,null,,,,,,,,,,,,,,,,,,,
1833.6999998092651,,recognition_phase,1028780,Fort Collins,,50,,,,,old,1,0.8780487804878049,,,,,,,,,,,,
null,,confidence_buffer,1028882,confidence_buffer,,null,,,,,,,,,,,,,,,,,,,
null,,thebreak,1029383,break,,null,,,,,,,,,,,,,,,,,,,
2276.199999809265,,realistic_rating,1031660,Pueblo,,52,Pueblo,4,,,,,,,,,,,,,,,,,
null,,confidence_buffer,1031762,confidence_buffer,,null,,,,,,,,,,,,,,,,,,,
1737.3999996185303,,probe_rating,1033500,probe_rating,,51,,,3,1,,,,,,,,,,,,,,,
null,,confidence_buffer,1033601,confidence_buffer,,null,,,,,,,,,,,,,,,,,,,
3418.300000190735,,pt2_unique_rating,1037020,Pueblo,,51,,3,,,,,,,,,,,,,,,,,
null,,confidence_buffer,1037121,confidence_buffer,,null,,,,,,,,,,,,,,,,,,,
1658.2000002861023,,pt2_memorable_rating,1038780,Pueblo,,51,,3,,,,,,,,,,,,,,,,,
null,,confidence_buffer,1038881,confidence_buffer,,null,,,,,,,,,,,,,,,,,,,
1642.7000002861023,,recognition_phase,1040524,Pueblo,,49,,,,,old,1,0.8809523809523809,,,,,,,,,,,,
null,,confidence_buffer,1040625,confidence_buffer,,null,,,,,,,,,,,,,,,,,,,
null,,thebreak,1041126,break,,null,,,,,,,,,,,,,,,,,,,
4405.700000286102,,realistic_rating,1045532,Dothan,,51,Dothan,3,,,,,,,,,,,,,,,,,
null,,confidence_buffer,1045634,confidence_buffer,,null,,,,,,,,,,,,,,,,,,,
1994.0999999046326,,pt2_unique_rating,1047629,Dothan,,51,,3,,,,,,,,,,,,,,,,,
null,,confidence_buffer,1047730,confidence_buffer,,null,,,,,,,,,,,,,,,,,,,
1065.7999997138977,,pt2_memorable_rating,1048796,Dothan,,51,,3,,,,,,,,,,,,,,,,,
null,,confidence_buffer,1048898,confidence_buffer,,null,,,,,,,,,,,,,,,,,,,
2009.2000002861023,,recognition_phase,1050908,Dothan,,52,,,,,new,1,0.8837209302325582,,,,,,,,,,,,
null,,confidence_buffer,1051008,confidence_buffer,,null,,,,,,,,,,,,,,,,,,,
null,,thebreak,1051510,break,,null,,,,,,,,,,,,,,,,,,,
2774.1000003814697,,realistic_rating,1054285,Decatur,,52,Decatur,4,,,,,,,,,,,,,,,,,
null,,confidence_buffer,1054386,confidence_buffer,,null,,,,,,,,,,,,,,,,,,,
2009.9000000953674,,pt2_unique_rating,1056396,Decatur,,51,,3,,,,,,,,,,,,,,,,,
null,,confidence_buffer,1056498,confidence_buffer,,null,,,,,,,,,,,,,,,,,,,
1369.7000002861023,,pt2_memorable_rating,1057868,Decatur,,51,,3,,,,,,,,,,,,,,,,,
null,,confidence_buffer,1057970,confidence_buffer,,null,,,,,,,,,,,,,,,,,,,
1737.7999997138977,,recognition_phase,1059708,Decatur,,49,,,,,old,0,0.8636363636363636,,,,,,,,,,,,
null,,confidence_buffer,1059809,confidence_buffer,,null,,,,,,,,,,,,,,,,,,,
null,,thebreak,1060311,break,,null,,,,,,,,,,,,,,,,,,,
4821.199999809265,,realistic_rating,1065132,Palo Alto,,52,Palo Alto,4,,,,,,,,,,,,,,,,,
null,,confidence_buffer,1065234,confidence_buffer,,null,,,,,,,,,,,,,,,,,,,
1562.0999999046326,,pt2_unique_rating,1066797,Palo Alto,,51,,3,,,,,,,,,,,,,,,,,
null,,confidence_buffer,1066899,confidence_buffer,,null,,,,,,,,,,,,,,,,,,,
1289.0999999046326,,pt2_memorable_rating,1068188,Palo Alto,,51,,3,,,,,,,,,,,,,,,,,
null,,confidence_buffer,1068290,confidence_buffer,,null,,,,,,,,,,,,,,,,,,,
1289.7999997138977,,recognition_phase,1069580,Palo Alto,,49,,,,,old,1,0.8666666666666667,,,,,,,,,,,,
null,,confidence_buffer,1069681,confidence_buffer,,null,,,,,,,,,,,,,,,,,,,
null,,thebreak,1070182,break,,null,,,,,,,,,,,,,,,,,,,
2197.699999809265,,realistic_rating,1072380,Athens,,53,Athens,5,,,,,,,,,,,,,,,,,
null,,confidence_buffer,1072482,confidence_buffer,,null,,,,,,,,,,,,,,,,,,,
2362.2999997138977,,pt2_unique_rating,1074844,Athens,,52,,4,,,,,,,,,,,,,,,,,
null,,confidence_buffer,1074946,confidence_buffer,,null,,,,,,,,,,,,,,,,,,,
1050,,pt2_memorable_rating,1075996,Athens,,52,,4,,,,,,,,,,,,,,,,,
null,,confidence_buffer,1076098,confidence_buffer,,null,,,,,,,,,,,,,,,,,,,
2122.199999809265,,recognition_phase,1078220,Athens,,49,,,,,old,1,0.8695652173913043,,,,,,,,,,,,
null,,confidence_buffer,1078321,confidence_buffer,,null,,,,,,,,,,,,,,,,,,,
null,,thebreak,1078823,break,,null,,,,,,,,,,,,,,,,,,,
4437.299999713898,,realistic_rating,1083260,Cheyenne,,52,Cheyenne,4,,,,,,,,,,,,,,,,,
null,,confidence_buffer,1083362,confidence_buffer,,null,,,,,,,,,,,,,,,,,,,
2185.800000190735,,pt2_unique_rating,1085548,Cheyenne,,51,,3,,,,,,,,,,,,,,,,,
null,,confidence_buffer,1085649,confidence_buffer,,null,,,,,,,,,,,,,,,,,,,
1594.4000000953674,,pt2_memorable_rating,1087244,Cheyenne,,51,,3,,,,,,,,,,,,,,,,,
null,,confidence_buffer,1087345,confidence_buffer,,null,,,,,,,,,,,,,,,,,,,
3018.9000000953674,,recognition_phase,1090364,Cheyenne,,50,,,,,old,0,0.851063829787234,,,,,,,,,,,,
null,,confidence_buffer,1090466,confidence_buffer,,null,,,,,,,,,,,,,,,,,,,
null,,thebreak,1090967,break,,null,,,,,,,,,,,,,,,,,,,
2325,,realistic_rating,1093292,McKinney,,51,McKinney,3,,,,,,,,,,,,,,,,,
null,,confidence_buffer,1093406,confidence_buffer,,null,,,,,,,,,,,,,,,,,,,
1757.7000002861023,,probe_rating,1095164,probe_rating,,50,,,2,1,,,,,,,,,,,,,,,
null,,confidence_buffer,1095265,confidence_buffer,,null,,,,,,,,,,,,,,,,,,,
1609.6999998092651,,pt2_unique_rating,1096876,McKinney,,51,,3,,,,,,,,,,,,,,,,,
null,,confidence_buffer,1096977,confidence_buffer,,null,,,,,,,,,,,,,,,,,,,
922.7000002861023,,pt2_memorable_rating,1097900,McKinney,,51,,3,,,,,,,,,,,,,,,,,
null,,confidence_buffer,1098001,confidence_buffer,,null,,,,,,,,,,,,,,,,,,,
1530.5,,recognition_phase,1099532,McKinney,,49,,,,,old,1,0.8541666666666666,,,,,,,,,,,,
null,,confidence_buffer,1099633,confidence_buffer,,null,,,,,,,,,,,,,,,,,,,
null,,thebreak,1100134,break,,null,,,,,,,,,,,,,,,,,,,
4261.5,,realistic_rating,1104396,Norfolk,,52,Norfolk,4,,,,,,,,,,,,,,,,,
null,,confidence_buffer,1104498,confidence_buffer,,null,,,,,,,,,,,,,,,,,,,
1609.3000001907349,,pt2_unique_rating,1106107,Norfolk,,51,,3,,,,,,,,,,,,,,,,,
null,,confidence_buffer,1106209,confidence_buffer,,null,,,,,,,,,,,,,,,,,,,
1658.8000001907349,,pt2_memorable_rating,1107868,Norfolk,,51,,3,,,,,,,,,,,,,,,,,
null,,confidence_buffer,1107969,confidence_buffer,,null,,,,,,,,,,,,,,,,,,,
29626.599999904633,,recognition_phase,1137596,Norfolk,,50,,,,,old,0,0.8367346938775511,,,,,,,,,,,,
null,,confidence_buffer,1137698,confidence_buffer,,null,,,,,,,,,,,,,,,,,,,
null,,thebreak,1138200,break,,null,,,,,,,,,,,,,,,,,,,
2147.4000000953674,,realistic_rating,1140348,Marquette,,52,Marquette,4,,,,,,,,,,,,,,,,,
null,,confidence_buffer,1140449,confidence_buffer,,null,,,,,,,,,,,,,,,,,,,
2106.5,,pt2_unique_rating,1142556,Marquette,,52,,4,,,,,,,,,,,,,,,,,
null,,confidence_buffer,1142657,confidence_buffer,,null,,,,,,,,,,,,,,,,,,,
970.2000002861023,,pt2_memorable_rating,1143628,Marquette,,51,,3,,,,,,,,,,,,,,,,,
null,,confidence_buffer,1143729,confidence_buffer,,null,,,,,,,,,,,,,,,,,,,
1066.5,,recognition_phase,1144796,Marquette,,50,,,,,old,1,0.84,,,,,,,,,,,,
null,,confidence_buffer,1144897,confidence_buffer,,null,,,,,,,,,,,,,,,,,,,
null,,thebreak,1145405,break,,null,,,,,,,,,,,,,,,,,,,
,,survey,1318593,survey-questions,,,,,,,,,,none,high,Nope.,No strategies; just attempted to use my memory.,Have I ever been to or heard of the place before.,Was it a name that I would not easily forget.,Is it one of a kind or are there other places that share the same name or similar.,Does it exist in the real world?,No.,It was interesting enough; thank you!,,
7486.299999713898,,thank_you,1326092,all_done,,32,,,,,,,,,,,,,,,,,,2,1
