rt,responses,trial_type,time_elapsed,stimulus,button_pressed,key_press,name_trial,rating,probe,probe_accuracy,response,correct,accuracy,problems,smooth,distraction,strategies,familiar,memorable,unique,realistic,similar,comments,detectfocus,warning
10495.59999999404,{worker_id:6168b61ad8c0d63b37a92109},id_enter,10499,,,,,,,,,,,,,,,,,,,,,,
7937.79999999702,,fullscreen,18439,fullscreen,0,,,,,,,,,,,,,,,,,,,,
7180,,intro_0,25621,instruct,,32,,,,,,,,,,,,,,,,,,,
7637.9000000059605,,intro_1,33260,instruct,,32,,,,,,,,,,,,,,,,,,,
3199.9000000059605,,intro_2,36461,instruct,,32,,,,,,,,,,,,,,,,,,,
null,,instruct_dir_4,37963,instruct,,null,,,,,,,,,,,,,,,,,,,
null,,thebreak,38465,break,,null,,,,,,,,,,,,,,,,,,,
5897.69999999553,,familiar_rating,44364,Syracuse,,53,Syracuse,5,,,,,,,,,,,,,,,,,
null,,confidence_buffer,44467,confidence_buffer,,null,,,,,,,,,,,,,,,,,,,
6850.0999999940395,,unique_rating,51318,Syracuse,,51,,3,,,,,,,,,,,,,,,,,
null,,confidence_buffer,51421,confidence_buffer,,null,,,,,,,,,,,,,,,,,,,
3581.2999999970198,,memorable_rating,55003,Syracuse,,51,,3,,,,,,,,,,,,,,,,,
null,,confidence_buffer,55105,confidence_buffer,,null,,,,,,,,,,,,,,,,,,,
null,,thebreak,55609,break,,null,,,,,,,,,,,,,,,,,,,
1989.7999999970198,,familiar_rating,57601,Athens,,53,Athens,5,,,,,,,,,,,,,,,,,
null,,confidence_buffer,57702,confidence_buffer,,null,,,,,,,,,,,,,,,,,,,
2055.39999999851,,unique_rating,59759,Athens,,51,,3,,,,,,,,,,,,,,,,,
null,,confidence_buffer,59861,confidence_buffer,,null,,,,,,,,,,,,,,,,,,,
5311.29999999702,,memorable_rating,65173,Athens,,51,,3,,,,,,,,,,,,,,,,,
null,,confidence_buffer,65275,confidence_buffer,,null,,,,,,,,,,,,,,,,,,,
null,,thebreak,65777,break,,null,,,,,,,,,,,,,,,,,,,
7717.79999999702,,familiar_rating,73496,Ithaca,,51,Ithaca,3,,,,,,,,,,,,,,,,,
null,,confidence_buffer,73598,confidence_buffer,,null,,,,,,,,,,,,,,,,,,,
5151.89999999851,,unique_rating,78752,Ithaca,,52,,4,,,,,,,,,,,,,,,,,
null,,confidence_buffer,78854,confidence_buffer,,null,,,,,,,,,,,,,,,,,,,
1826,,memorable_rating,80681,Ithaca,,50,,2,,,,,,,,,,,,,,,,,
null,,confidence_buffer,80784,confidence_buffer,,null,,,,,,,,,,,,,,,,,,,
null,,thebreak,81286,break,,null,,,,,,,,,,,,,,,,,,,
4716.5,,familiar_rating,86003,Topeka,,50,Topeka,2,,,,,,,,,,,,,,,,,
null,,confidence_buffer,86106,confidence_buffer,,null,,,,,,,,,,,,,,,,,,,
5593.10000000149,,unique_rating,91700,Topeka,,52,,4,,,,,,,,,,,,,,,,,
null,,confidence_buffer,91802,confidence_buffer,,null,,,,,,,,,,,,,,,,,,,
4046.7000000029802,,memorable_rating,95850,Topeka,,50,,2,,,,,,,,,,,,,,,,,
null,,confidence_buffer,95953,confidence_buffer,,null,,,,,,,,,,,,,,,,,,,
1512.6000000014901,,probe_rating,97467,probe_rating,,53,,,5,1,,,,,,,,,,,,,,,
null,,confidence_buffer,97568,confidence_buffer,,null,,,,,,,,,,,,,,,,,,,
null,,thebreak,98069,break,,null,,,,,,,,,,,,,,,,,,,
4282.39999999851,,familiar_rating,102352,Bozeman,,49,Bozeman,1,,,,,,,,,,,,,,,,,
null,,confidence_buffer,102454,confidence_buffer,,null,,,,,,,,,,,,,,,,,,,
10114.80000000447,,unique_rating,112570,Bozeman,,51,,3,,,,,,,,,,,,,,,,,
null,,confidence_buffer,112672,confidence_buffer,,null,,,,,,,,,,,,,,,,,,,
3562.2000000029802,,memorable_rating,116236,Bozeman,,49,,1,,,,,,,,,,,,,,,,,
null,,confidence_buffer,116338,confidence_buffer,,null,,,,,,,,,,,,,,,,,,,
null,,thebreak,116839,break,,null,,,,,,,,,,,,,,,,,,,
3870.60000000149,,familiar_rating,120711,Pueblo,,49,Pueblo,1,,,,,,,,,,,,,,,,,
null,,confidence_buffer,120812,confidence_buffer,,null,,,,,,,,,,,,,,,,,,,
3210.60000000149,,probe_rating,124024,probe_rating,,53,,,5,1,,,,,,,,,,,,,,,
null,,confidence_buffer,124126,confidence_buffer,,null,,,,,,,,,,,,,,,,,,,
6227.30000000447,,unique_rating,130355,Pueblo,,52,,4,,,,,,,,,,,,,,,,,
null,,confidence_buffer,130457,confidence_buffer,,null,,,,,,,,,,,,,,,,,,,
2871.7999999970198,,memorable_rating,133330,Pueblo,,50,,2,,,,,,,,,,,,,,,,,
null,,confidence_buffer,133432,confidence_buffer,,null,,,,,,,,,,,,,,,,,,,
null,,thebreak,133933,break,,null,,,,,,,,,,,,,,,,,,,
1965.8999999985099,,familiar_rating,135900,Cheyenne,,51,Cheyenne,3,,,,,,,,,,,,,,,,,
null,,confidence_buffer,136003,confidence_buffer,,null,,,,,,,,,,,,,,,,,,,
4476.60000000149,,unique_rating,140481,Cheyenne,,51,,3,,,,,,,,,,,,,,,,,
null,,confidence_buffer,140583,confidence_buffer,,null,,,,,,,,,,,,,,,,,,,
3043.39999999851,,memorable_rating,143627,Cheyenne,,51,,3,,,,,,,,,,,,,,,,,
null,,confidence_buffer,143729,confidence_buffer,,null,,,,,,,,,,,,,,,,,,,
1082.1000000014901,,probe_rating,144812,probe_rating,,53,,,5,1,,,,,,,,,,,,,,,
null,,confidence_buffer,144914,confidence_buffer,,null,,,,,,,,,,,,,,,,,,,
null,,thebreak,145416,break,,null,,,,,,,,,,,,,,,,,,,
4522.19999999553,,familiar_rating,149940,Helena,,50,Helena,2,,,,,,,,,,,,,,,,,
null,,confidence_buffer,150042,confidence_buffer,,null,,,,,,,,,,,,,,,,,,,
1150.7000000029802,,unique_rating,151194,Helena,,50,,2,,,,,,,,,,,,,,,,,
null,,confidence_buffer,151296,confidence_buffer,,null,,,,,,,,,,,,,,,,,,,
1512.7999999970198,,memorable_rating,152810,Helena,,50,,2,,,,,,,,,,,,,,,,,
null,,confidence_buffer,152925,confidence_buffer,,null,,,,,,,,,,,,,,,,,,,
null,,thebreak,153427,break,,null,,,,,,,,,,,,,,,,,,,
3452.2999999970198,,familiar_rating,156880,Altoona,,49,Altoona,1,,,,,,,,,,,,,,,,,
null,,confidence_buffer,156982,confidence_buffer,,null,,,,,,,,,,,,,,,,,,,
1813.7000000029802,,unique_rating,158797,Altoona,,53,,5,,,,,,,,,,,,,,,,,
null,,confidence_buffer,158898,confidence_buffer,,null,,,,,,,,,,,,,,,,,,,
4903.39999999851,,memorable_rating,163802,Altoona,,53,,5,,,,,,,,,,,,,,,,,
null,,confidence_buffer,163903,confidence_buffer,,null,,,,,,,,,,,,,,,,,,,
null,,thebreak,164417,break,,null,,,,,,,,,,,,,,,,,,,
2143.60000000149,,familiar_rating,166561,Ann Arbor,,53,Ann Arbor,5,,,,,,,,,,,,,,,,,
null,,confidence_buffer,166663,confidence_buffer,,null,,,,,,,,,,,,,,,,,,,
2323.4000000059605,,unique_rating,168987,Ann Arbor,,53,,5,,,,,,,,,,,,,,,,,
null,,confidence_buffer,169089,confidence_buffer,,null,,,,,,,,,,,,,,,,,,,
7430.30000000447,,memorable_rating,176520,Ann Arbor,,53,,5,,,,,,,,,,,,,,,,,
null,,confidence_buffer,176622,confidence_buffer,,null,,,,,,,,,,,,,,,,,,,
null,,thebreak,177123,break,,null,,,,,,,,,,,,,,,,,,,
1493.7000000029802,,familiar_rating,178618,Pasadena,,50,Pasadena,2,,,,,,,,,,,,,,,,,
null,,confidence_buffer,178719,confidence_buffer,,null,,,,,,,,,,,,,,,,,,,
2347.5,,unique_rating,181067,Pasadena,,50,,2,,,,,,,,,,,,,,,,,
null,,confidence_buffer,181170,confidence_buffer,,null,,,,,,,,,,,,,,,,,,,
2777.5999999940395,,memorable_rating,183948,Pasadena,,51,,3,,,,,,,,,,,,,,,,,
null,,confidence_buffer,184050,confidence_buffer,,null,,,,,,,,,,,,,,,,,,,
null,,thebreak,184551,break,,null,,,,,,,,,,,,,,,,,,,
2877.5,,familiar_rating,187429,Dubuque,,49,Dubuque,1,,,,,,,,,,,,,,,,,
null,,confidence_buffer,187531,confidence_buffer,,null,,,,,,,,,,,,,,,,,,,
3008.39999999851,,unique_rating,190540,Dubuque,,53,,5,,,,,,,,,,,,,,,,,
null,,confidence_buffer,190642,confidence_buffer,,null,,,,,,,,,,,,,,,,,,,
3912.8000000044703,,memorable_rating,194556,Dubuque,,49,,1,,,,,,,,,,,,,,,,,
null,,confidence_buffer,194657,confidence_buffer,,null,,,,,,,,,,,,,,,,,,,
null,,thebreak,195159,break,,null,,,,,,,,,,,,,,,,,,,
2679.10000000149,,familiar_rating,197839,Fargo,,49,Fargo,1,,,,,,,,,,,,,,,,,
null,,confidence_buffer,197941,confidence_buffer,,null,,,,,,,,,,,,,,,,,,,
1526.0999999940395,,unique_rating,199468,Fargo,,50,,2,,,,,,,,,,,,,,,,,
null,,confidence_buffer,199570,confidence_buffer,,null,,,,,,,,,,,,,,,,,,,
1979.1000000014901,,memorable_rating,201550,Fargo,,49,,1,,,,,,,,,,,,,,,,,
null,,confidence_buffer,201652,confidence_buffer,,null,,,,,,,,,,,,,,,,,,,
null,,thebreak,202153,break,,null,,,,,,,,,,,,,,,,,,,
1644.2000000029802,,familiar_rating,203799,Toledo,,53,Toledo,5,,,,,,,,,,,,,,,,,
null,,confidence_buffer,203901,confidence_buffer,,null,,,,,,,,,,,,,,,,,,,
1803,,unique_rating,205705,Toledo,,50,,2,,,,,,,,,,,,,,,,,
null,,confidence_buffer,205806,confidence_buffer,,null,,,,,,,,,,,,,,,,,,,
2238.10000000149,,memorable_rating,208046,Toledo,,51,,3,,,,,,,,,,,,,,,,,
null,,confidence_buffer,208148,confidence_buffer,,null,,,,,,,,,,,,,,,,,,,
null,,thebreak,208649,break,,null,,,,,,,,,,,,,,,,,,,
4322.39999999851,,familiar_rating,212973,New Haven,,52,New Haven,4,,,,,,,,,,,,,,,,,
null,,confidence_buffer,213074,confidence_buffer,,null,,,,,,,,,,,,,,,,,,,
3115.10000000149,,unique_rating,216190,New Haven,,51,,3,,,,,,,,,,,,,,,,,
null,,confidence_buffer,216292,confidence_buffer,,null,,,,,,,,,,,,,,,,,,,
4726.39999999851,,memorable_rating,221020,New Haven,,52,,4,,,,,,,,,,,,,,,,,
null,,confidence_buffer,221121,confidence_buffer,,null,,,,,,,,,,,,,,,,,,,
null,,thebreak,221622,break,,null,,,,,,,,,,,,,,,,,,,
1363,,familiar_rating,222986,Tallahassee,,53,Tallahassee,5,,,,,,,,,,,,,,,,,
null,,confidence_buffer,223088,confidence_buffer,,null,,,,,,,,,,,,,,,,,,,
3284.2999999970198,,unique_rating,226373,Tallahassee,,53,,5,,,,,,,,,,,,,,,,,
null,,confidence_buffer,226475,confidence_buffer,,null,,,,,,,,,,,,,,,,,,,
2172.3000000044703,,memorable_rating,228648,Tallahassee,,53,,5,,,,,,,,,,,,,,,,,
null,,confidence_buffer,228750,confidence_buffer,,null,,,,,,,,,,,,,,,,,,,
1054.8000000044703,,probe_rating,229806,probe_rating,,53,,,5,1,,,,,,,,,,,,,,,
null,,confidence_buffer,229907,confidence_buffer,,null,,,,,,,,,,,,,,,,,,,
null,,thebreak,230409,break,,null,,,,,,,,,,,,,,,,,,,
3474.60000000149,,familiar_rating,233884,Champaign,,50,Champaign,2,,,,,,,,,,,,,,,,,
null,,confidence_buffer,233986,confidence_buffer,,null,,,,,,,,,,,,,,,,,,,
2011,,unique_rating,235998,Champaign,,50,,2,,,,,,,,,,,,,,,,,
null,,confidence_buffer,236101,confidence_buffer,,null,,,,,,,,,,,,,,,,,,,
1937.5,,memorable_rating,238040,Champaign,,51,,3,,,,,,,,,,,,,,,,,
null,,confidence_buffer,238142,confidence_buffer,,null,,,,,,,,,,,,,,,,,,,
null,,thebreak,238644,break,,null,,,,,,,,,,,,,,,,,,,
1337.1999999955297,,familiar_rating,239982,Muncie,,49,Muncie,1,,,,,,,,,,,,,,,,,
null,,confidence_buffer,240084,confidence_buffer,,null,,,,,,,,,,,,,,,,,,,
1494.6000000014901,,unique_rating,241579,Muncie,,53,,5,,,,,,,,,,,,,,,,,
null,,confidence_buffer,241681,confidence_buffer,,null,,,,,,,,,,,,,,,,,,,
2315.2999999970198,,memorable_rating,243998,Muncie,,51,,3,,,,,,,,,,,,,,,,,
null,,confidence_buffer,244104,confidence_buffer,,null,,,,,,,,,,,,,,,,,,,
2124.60000000149,,probe_rating,246230,probe_rating,,50,,,2,1,,,,,,,,,,,,,,,
null,,confidence_buffer,246332,confidence_buffer,,null,,,,,,,,,,,,,,,,,,,
null,,thebreak,246833,break,,null,,,,,,,,,,,,,,,,,,,
2552.10000000149,,familiar_rating,249387,Abilene,,49,Abilene,1,,,,,,,,,,,,,,,,,
null,,confidence_buffer,249489,confidence_buffer,,null,,,,,,,,,,,,,,,,,,,
3014.5,,unique_rating,252505,Abilene,,52,,4,,,,,,,,,,,,,,,,,
null,,confidence_buffer,252606,confidence_buffer,,null,,,,,,,,,,,,,,,,,,,
2229.5,,memorable_rating,254837,Abilene,,50,,2,,,,,,,,,,,,,,,,,
null,,confidence_buffer,254939,confidence_buffer,,null,,,,,,,,,,,,,,,,,,,
null,,thebreak,255442,break,,null,,,,,,,,,,,,,,,,,,,
7568.89999999851,,familiar_rating,263012,Berkeley,,51,Berkeley,3,,,,,,,,,,,,,,,,,
null,,confidence_buffer,263114,confidence_buffer,,null,,,,,,,,,,,,,,,,,,,
1281.2999999970198,,unique_rating,264396,Berkeley,,51,,3,,,,,,,,,,,,,,,,,
null,,confidence_buffer,264498,confidence_buffer,,null,,,,,,,,,,,,,,,,,,,
1641.2000000029802,,probe_rating,266140,probe_rating,,52,,,4,1,,,,,,,,,,,,,,,
null,,confidence_buffer,266242,confidence_buffer,,null,,,,,,,,,,,,,,,,,,,
2970.5,,memorable_rating,269214,Berkeley,,52,,4,,,,,,,,,,,,,,,,,
null,,confidence_buffer,269315,confidence_buffer,,null,,,,,,,,,,,,,,,,,,,
null,,thebreak,269816,break,,null,,,,,,,,,,,,,,,,,,,
1549.6999999955297,,familiar_rating,271367,Santa Monica,,53,Santa Monica,5,,,,,,,,,,,,,,,,,
null,,confidence_buffer,271468,confidence_buffer,,null,,,,,,,,,,,,,,,,,,,
2783.89999999851,,unique_rating,274253,Santa Monica,,52,,4,,,,,,,,,,,,,,,,,
null,,confidence_buffer,274355,confidence_buffer,,null,,,,,,,,,,,,,,,,,,,
1879.3000000044703,,memorable_rating,276236,Santa Monica,,53,,5,,,,,,,,,,,,,,,,,
null,,confidence_buffer,276338,confidence_buffer,,null,,,,,,,,,,,,,,,,,,,
null,,thebreak,276839,break,,null,,,,,,,,,,,,,,,,,,,
1275.6000000014901,,familiar_rating,278116,Terre Haute,,49,Terre Haute,1,,,,,,,,,,,,,,,,,
null,,confidence_buffer,278217,confidence_buffer,,null,,,,,,,,,,,,,,,,,,,
1457.7000000029802,,unique_rating,279676,Terre Haute,,53,,5,,,,,,,,,,,,,,,,,
null,,confidence_buffer,279778,confidence_buffer,,null,,,,,,,,,,,,,,,,,,,
1785.6000000014901,,memorable_rating,281565,Terre Haute,,52,,4,,,,,,,,,,,,,,,,,
null,,confidence_buffer,281667,confidence_buffer,,null,,,,,,,,,,,,,,,,,,,
null,,thebreak,282169,break,,null,,,,,,,,,,,,,,,,,,,
1022.3999999985099,,familiar_rating,283193,Fort Collins,,49,Fort Collins,1,,,,,,,,,,,,,,,,,
null,,confidence_buffer,283295,confidence_buffer,,null,,,,,,,,,,,,,,,,,,,
2036.6000000014901,,unique_rating,285333,Fort Collins,,51,,3,,,,,,,,,,,,,,,,,
null,,confidence_buffer,285435,confidence_buffer,,null,,,,,,,,,,,,,,,,,,,
1018.2000000029802,,memorable_rating,286454,Fort Collins,,50,,2,,,,,,,,,,,,,,,,,
null,,confidence_buffer,286556,confidence_buffer,,null,,,,,,,,,,,,,,,,,,,
null,,thebreak,287058,break,,null,,,,,,,,,,,,,,,,,,,
2916.39999999851,,familiar_rating,289975,Norfolk,,50,Norfolk,2,,,,,,,,,,,,,,,,,
null,,confidence_buffer,290077,confidence_buffer,,null,,,,,,,,,,,,,,,,,,,
1508.3999999985099,,unique_rating,291586,Norfolk,,50,,2,,,,,,,,,,,,,,,,,
null,,confidence_buffer,291688,confidence_buffer,,null,,,,,,,,,,,,,,,,,,,
1138.8999999985099,,memorable_rating,292827,Norfolk,,50,,2,,,,,,,,,,,,,,,,,
null,,confidence_buffer,292929,confidence_buffer,,null,,,,,,,,,,,,,,,,,,,
null,,thebreak,293431,break,,null,,,,,,,,,,,,,,,,,,,
1078.8999999985099,,familiar_rating,294511,Carson City,,49,Carson City,1,,,,,,,,,,,,,,,,,
null,,confidence_buffer,294613,confidence_buffer,,null,,,,,,,,,,,,,,,,,,,
2131.0999999940395,,unique_rating,296745,Carson City,,51,,3,,,,,,,,,,,,,,,,,
null,,confidence_buffer,296846,confidence_buffer,,null,,,,,,,,,,,,,,,,,,,
5554.5,,memorable_rating,302401,Carson City,,50,,2,,,,,,,,,,,,,,,,,
null,,confidence_buffer,302503,confidence_buffer,,null,,,,,,,,,,,,,,,,,,,
null,,thebreak,303004,break,,null,,,,,,,,,,,,,,,,,,,
3114.2000000029802,,intro_0,306120,instruct,,32,,,,,,,,,,,,,,,,,,,
4396.70000000298,,intro_1,310517,instruct,,32,,,,,,,,,,,,,,,,,,,
7579.20000000298,,intro_2,318097,instruct,,32,,,,,,,,,,,,,,,,,,,
null,,instruct_dir_4,319598,instruct,,null,,,,,,,,,,,,,,,,,,,
5759.89999999851,,realistic_rating,325360,Boulder,,53,Boulder,5,,,,,,,,,,,,,,,,,
null,,confidence_buffer,325462,confidence_buffer,,null,,,,,,,,,,,,,,,,,,,
3114,,pt2_unique_rating,328577,Boulder,,51,,3,,,,,,,,,,,,,,,,,
null,,confidence_buffer,328678,confidence_buffer,,null,,,,,,,,,,,,,,,,,,,
6241.60000000149,,pt2_memorable_rating,334921,Boulder,,51,,3,,,,,,,,,,,,,,,,,
null,,confidence_buffer,335022,confidence_buffer,,null,,,,,,,,,,,,,,,,,,,
2459.2999999970198,,recognition_phase,337483,Boulder,,52,,,,,new,1,1,,,,,,,,,,,,
null,,confidence_buffer,337585,confidence_buffer,,null,,,,,,,,,,,,,,,,,,,
null,,thebreak,338086,break,,null,,,,,,,,,,,,,,,,,,,
6164.70000000298,,realistic_rating,344252,Fort Collins,,51,Fort Collins,3,,,,,,,,,,,,,,,,,
null,,confidence_buffer,344354,confidence_buffer,,null,,,,,,,,,,,,,,,,,,,
1605.5,,probe_rating,345960,probe_rating,,53,,,5,1,,,,,,,,,,,,,,,
null,,confidence_buffer,346063,confidence_buffer,,null,,,,,,,,,,,,,,,,,,,
7153.29999999702,,pt2_unique_rating,353217,Fort Collins,,50,,2,,,,,,,,,,,,,,,,,
null,,confidence_buffer,353319,confidence_buffer,,null,,,,,,,,,,,,,,,,,,,
4598.89999999851,,pt2_memorable_rating,357919,Fort Collins,,50,,2,,,,,,,,,,,,,,,,,
null,,confidence_buffer,358021,confidence_buffer,,null,,,,,,,,,,,,,,,,,,,
1336.6000000014901,,recognition_phase,359359,Fort Collins,,49,,,,,old,1,1,,,,,,,,,,,,
null,,confidence_buffer,359461,confidence_buffer,,null,,,,,,,,,,,,,,,,,,,
null,,thebreak,359963,break,,null,,,,,,,,,,,,,,,,,,,
1372.7999999970198,,realistic_rating,361336,Toledo,,53,Toledo,5,,,,,,,,,,,,,,,,,
null,,confidence_buffer,361438,confidence_buffer,,null,,,,,,,,,,,,,,,,,,,
2024.6999999955297,,pt2_unique_rating,363464,Toledo,,51,,3,,,,,,,,,,,,,,,,,
null,,confidence_buffer,363566,confidence_buffer,,null,,,,,,,,,,,,,,,,,,,
3795.4000000059605,,pt2_memorable_rating,367362,Toledo,,52,,4,,,,,,,,,,,,,,,,,
null,,confidence_buffer,367464,confidence_buffer,,null,,,,,,,,,,,,,,,,,,,
1075.5,,recognition_phase,368541,Toledo,,49,,,,,old,1,1,,,,,,,,,,,,
null,,confidence_buffer,368642,confidence_buffer,,null,,,,,,,,,,,,,,,,,,,
null,,thebreak,369143,break,,null,,,,,,,,,,,,,,,,,,,
4780.89999999851,,realistic_rating,373925,Altoona,,50,Altoona,2,,,,,,,,,,,,,,,,,
null,,confidence_buffer,374027,confidence_buffer,,null,,,,,,,,,,,,,,,,,,,
4138.5,,pt2_unique_rating,378166,Altoona,,52,,4,,,,,,,,,,,,,,,,,
null,,confidence_buffer,378268,confidence_buffer,,null,,,,,,,,,,,,,,,,,,,
3471.7000000029802,,pt2_memorable_rating,381740,Altoona,,51,,3,,,,,,,,,,,,,,,,,
null,,confidence_buffer,381842,confidence_buffer,,null,,,,,,,,,,,,,,,,,,,
885.5,,recognition_phase,382729,Altoona,,49,,,,,old,1,1,,,,,,,,,,,,
null,,confidence_buffer,382831,confidence_buffer,,null,,,,,,,,,,,,,,,,,,,
null,,thebreak,383333,break,,null,,,,,,,,,,,,,,,,,,,
4623.0999999940395,,realistic_rating,387957,Concord,,51,Concord,3,,,,,,,,,,,,,,,,,
null,,confidence_buffer,388058,confidence_buffer,,null,,,,,,,,,,,,,,,,,,,
1911.7999999970198,,pt2_unique_rating,389971,Concord,,51,,3,,,,,,,,,,,,,,,,,
null,,confidence_buffer,390073,confidence_buffer,,null,,,,,,,,,,,,,,,,,,,
1023.2000000029802,,probe_rating,391097,probe_rating,,52,,,4,1,,,,,,,,,,,,,,,
null,,confidence_buffer,391202,confidence_buffer,,null,,,,,,,,,,,,,,,,,,,
4237.39999999851,,pt2_memorable_rating,395440,Concord,,51,,3,,,,,,,,,,,,,,,,,
null,,confidence_buffer,395542,confidence_buffer,,null,,,,,,,,,,,,,,,,,,,
1794.2000000029802,,recognition_phase,397337,Concord,,52,,,,,new,1,1,,,,,,,,,,,,
null,,confidence_buffer,397449,confidence_buffer,,null,,,,,,,,,,,,,,,,,,,
null,,thebreak,397950,break,,null,,,,,,,,,,,,,,,,,,,
4523.5,,realistic_rating,402475,Pasadena,,53,Pasadena,5,,,,,,,,,,,,,,,,,
null,,confidence_buffer,402576,confidence_buffer,,null,,,,,,,,,,,,,,,,,,,
1765.8000000044703,,pt2_unique_rating,404343,Pasadena,,52,,4,,,,,,,,,,,,,,,,,
null,,confidence_buffer,404445,confidence_buffer,,null,,,,,,,,,,,,,,,,,,,
1857.5,,pt2_memorable_rating,406304,Pasadena,,51,,3,,,,,,,,,,,,,,,,,
null,,confidence_buffer,406406,confidence_buffer,,null,,,,,,,,,,,,,,,,,,,
4375.20000000298,,recognition_phase,410782,Pasadena,,51,,,,,new,0,0.8333333333333334,,,,,,,,,,,,
null,,confidence_buffer,410883,confidence_buffer,,null,,,,,,,,,,,,,,,,,,,
null,,thebreak,411385,break,,null,,,,,,,,,,,,,,,,,,,
6317.4000000059605,,realistic_rating,417703,Muncie,,51,Muncie,3,,,,,,,,,,,,,,,,,
null,,confidence_buffer,417805,confidence_buffer,,null,,,,,,,,,,,,,,,,,,,
1989.7999999970198,,pt2_unique_rating,419796,Muncie,,52,,4,,,,,,,,,,,,,,,,,
null,,confidence_buffer,419898,confidence_buffer,,null,,,,,,,,,,,,,,,,,,,
1990.6000000014901,,pt2_memorable_rating,421890,Muncie,,51,,3,,,,,,,,,,,,,,,,,
null,,confidence_buffer,421993,confidence_buffer,,null,,,,,,,,,,,,,,,,,,,
1878.4000000059605,,recognition_phase,423872,Muncie,,50,,,,,old,1,0.8571428571428571,,,,,,,,,,,,
null,,confidence_buffer,423974,confidence_buffer,,null,,,,,,,,,,,,,,,,,,,
null,,thebreak,424475,break,,null,,,,,,,,,,,,,,,,,,,
2237.5999999940395,,realistic_rating,426714,New Haven,,53,New Haven,5,,,,,,,,,,,,,,,,,
null,,confidence_buffer,426816,confidence_buffer,,null,,,,,,,,,,,,,,,,,,,
1140.8000000044703,,probe_rating,427958,probe_rating,,51,,,3,1,,,,,,,,,,,,,,,
null,,confidence_buffer,428060,confidence_buffer,,null,,,,,,,,,,,,,,,,,,,
4529.20000000298,,pt2_unique_rating,432590,New Haven,,51,,3,,,,,,,,,,,,,,,,,
null,,confidence_buffer,432691,confidence_buffer,,null,,,,,,,,,,,,,,,,,,,
6164.89999999851,,pt2_memorable_rating,438857,New Haven,,52,,4,,,,,,,,,,,,,,,,,
null,,confidence_buffer,438959,confidence_buffer,,null,,,,,,,,,,,,,,,,,,,
1100.2999999970198,,recognition_phase,440061,New Haven,,49,,,,,old,1,0.875,,,,,,,,,,,,
null,,confidence_buffer,440163,confidence_buffer,,null,,,,,,,,,,,,,,,,,,,
null,,thebreak,440664,break,,null,,,,,,,,,,,,,,,,,,,
1925.6000000014901,,realistic_rating,442591,Cheyenne,,53,Cheyenne,5,,,,,,,,,,,,,,,,,
null,,confidence_buffer,442692,confidence_buffer,,null,,,,,,,,,,,,,,,,,,,
10000.5,,pt2_unique_rating,452694,Cheyenne,,51,,3,,,,,,,,,,,,,,,,,
null,,confidence_buffer,452796,confidence_buffer,,null,,,,,,,,,,,,,,,,,,,
1888.8999999985099,,pt2_memorable_rating,454686,Cheyenne,,51,,3,,,,,,,,,,,,,,,,,
null,,confidence_buffer,454788,confidence_buffer,,null,,,,,,,,,,,,,,,,,,,
1628.2000000029802,,recognition_phase,456417,Cheyenne,,49,,,,,old,1,0.8888888888888888,,,,,,,,,,,,
null,,confidence_buffer,456519,confidence_buffer,,null,,,,,,,,,,,,,,,,,,,
null,,thebreak,457020,break,,null,,,,,,,,,,,,,,,,,,,
2485.89999999851,,realistic_rating,459507,Montpelier,,52,Montpelier,4,,,,,,,,,,,,,,,,,
null,,confidence_buffer,459609,confidence_buffer,,null,,,,,,,,,,,,,,,,,,,
1478.7999999970198,,pt2_unique_rating,461089,Montpelier,,52,,4,,,,,,,,,,,,,,,,,
null,,confidence_buffer,461191,confidence_buffer,,null,,,,,,,,,,,,,,,,,,,
1527.8999999985099,,pt2_memorable_rating,462720,Montpelier,,52,,4,,,,,,,,,,,,,,,,,
null,,confidence_buffer,462822,confidence_buffer,,null,,,,,,,,,,,,,,,,,,,
1478.5,,recognition_phase,464302,Montpelier,,52,,,,,new,1,0.9,,,,,,,,,,,,
null,,confidence_buffer,464403,confidence_buffer,,null,,,,,,,,,,,,,,,,,,,
null,,thebreak,464905,break,,null,,,,,,,,,,,,,,,,,,,
1629.6999999955297,,realistic_rating,466536,Santa Monica,,53,Santa Monica,5,,,,,,,,,,,,,,,,,
null,,confidence_buffer,466637,confidence_buffer,,null,,,,,,,,,,,,,,,,,,,
4196.5,,pt2_unique_rating,470835,Santa Monica,,52,,4,,,,,,,,,,,,,,,,,
null,,confidence_buffer,470937,confidence_buffer,,null,,,,,,,,,,,,,,,,,,,
1466.1000000014901,,pt2_memorable_rating,472404,Santa Monica,,52,,4,,,,,,,,,,,,,,,,,
null,,confidence_buffer,472505,confidence_buffer,,null,,,,,,,,,,,,,,,,,,,
1146.6999999955297,,recognition_phase,473653,Santa Monica,,49,,,,,old,1,0.9090909090909091,,,,,,,,,,,,
null,,confidence_buffer,473754,confidence_buffer,,null,,,,,,,,,,,,,,,,,,,
null,,thebreak,474255,break,,null,,,,,,,,,,,,,,,,,,,
5713.9000000059605,,realistic_rating,479970,Ithaca,,52,Ithaca,4,,,,,,,,,,,,,,,,,
null,,confidence_buffer,480072,confidence_buffer,,null,,,,,,,,,,,,,,,,,,,
2016.6999999955297,,pt2_unique_rating,482090,Ithaca,,52,,4,,,,,,,,,,,,,,,,,
null,,confidence_buffer,482192,confidence_buffer,,null,,,,,,,,,,,,,,,,,,,
3153.2000000029802,,pt2_memorable_rating,485346,Ithaca,,51,,3,,,,,,,,,,,,,,,,,
null,,confidence_buffer,485448,confidence_buffer,,null,,,,,,,,,,,,,,,,,,,
2072.8000000044703,,recognition_phase,487522,Ithaca,,49,,,,,old,1,0.9166666666666666,,,,,,,,,,,,
null,,confidence_buffer,487625,confidence_buffer,,null,,,,,,,,,,,,,,,,,,,
null,,thebreak,488126,break,,null,,,,,,,,,,,,,,,,,,,
3185.2999999970198,,realistic_rating,491312,Bozeman,,50,Bozeman,2,,,,,,,,,,,,,,,,,
null,,confidence_buffer,491414,confidence_buffer,,null,,,,,,,,,,,,,,,,,,,
3778,,pt2_unique_rating,495193,Bozeman,,51,,3,,,,,,,,,,,,,,,,,
null,,confidence_buffer,495294,confidence_buffer,,null,,,,,,,,,,,,,,,,,,,
5202.0999999940395,,pt2_memorable_rating,500497,Bozeman,,50,,2,,,,,,,,,,,,,,,,,
null,,confidence_buffer,500608,confidence_buffer,,null,,,,,,,,,,,,,,,,,,,
937.3999999985099,,recognition_phase,501546,Bozeman,,49,,,,,old,1,0.9230769230769231,,,,,,,,,,,,
null,,confidence_buffer,501648,confidence_buffer,,null,,,,,,,,,,,,,,,,,,,
null,,thebreak,502149,break,,null,,,,,,,,,,,,,,,,,,,
3981.5,,realistic_rating,506132,Dothan,,50,Dothan,2,,,,,,,,,,,,,,,,,
null,,confidence_buffer,506234,confidence_buffer,,null,,,,,,,,,,,,,,,,,,,
1296.5,,pt2_unique_rating,507532,Dothan,,52,,4,,,,,,,,,,,,,,,,,
null,,confidence_buffer,507633,confidence_buffer,,null,,,,,,,,,,,,,,,,,,,
3195.5,,pt2_memorable_rating,510830,Dothan,,50,,2,,,,,,,,,,,,,,,,,
null,,confidence_buffer,510932,confidence_buffer,,null,,,,,,,,,,,,,,,,,,,
2548.7000000029802,,probe_rating,513482,probe_rating,,50,,,2,1,,,,,,,,,,,,,,,
null,,confidence_buffer,513584,confidence_buffer,,null,,,,,,,,,,,,,,,,,,,
2312.89999999851,,recognition_phase,515898,Dothan,,52,,,,,new,1,0.9285714285714286,,,,,,,,,,,,
null,,confidence_buffer,516001,confidence_buffer,,null,,,,,,,,,,,,,,,,,,,
null,,thebreak,516502,break,,null,,,,,,,,,,,,,,,,,,,
2473.3000000044703,,realistic_rating,518977,Las Cruces,,52,Las Cruces,4,,,,,,,,,,,,,,,,,
null,,confidence_buffer,519078,confidence_buffer,,null,,,,,,,,,,,,,,,,,,,
5572.20000000298,,pt2_unique_rating,524651,Las Cruces,,52,,4,,,,,,,,,,,,,,,,,
null,,confidence_buffer,524753,confidence_buffer,,null,,,,,,,,,,,,,,,,,,,
1052.8000000044703,,probe_rating,525807,probe_rating,,49,,,1,1,,,,,,,,,,,,,,,
null,,confidence_buffer,525909,confidence_buffer,,null,,,,,,,,,,,,,,,,,,,
2029.6999999955297,,pt2_memorable_rating,527940,Las Cruces,,52,,4,,,,,,,,,,,,,,,,,
null,,confidence_buffer,528042,confidence_buffer,,null,,,,,,,,,,,,,,,,,,,
1808.5,,recognition_phase,529852,Las Cruces,,52,,,,,new,1,0.9333333333333333,,,,,,,,,,,,
null,,confidence_buffer,529954,confidence_buffer,,null,,,,,,,,,,,,,,,,,,,
null,,thebreak,530455,break,,null,,,,,,,,,,,,,,,,,,,
2104.89999999851,,realistic_rating,532561,Topeka,,51,Topeka,3,,,,,,,,,,,,,,,,,
null,,confidence_buffer,532663,confidence_buffer,,null,,,,,,,,,,,,,,,,,,,
1312.8000000044703,,pt2_unique_rating,533977,Topeka,,51,,3,,,,,,,,,,,,,,,,,
null,,confidence_buffer,534078,confidence_buffer,,null,,,,,,,,,,,,,,,,,,,
2918.39999999851,,pt2_memorable_rating,536997,Topeka,,51,,3,,,,,,,,,,,,,,,,,
null,,confidence_buffer,537099,confidence_buffer,,null,,,,,,,,,,,,,,,,,,,
1022.3999999985099,,recognition_phase,538123,Topeka,,49,,,,,old,1,0.9375,,,,,,,,,,,,
null,,confidence_buffer,538226,confidence_buffer,,null,,,,,,,,,,,,,,,,,,,
null,,thebreak,538727,break,,null,,,,,,,,,,,,,,,,,,,
1476.6000000014901,,realistic_rating,540205,Palo Alto,,53,Palo Alto,5,,,,,,,,,,,,,,,,,
null,,confidence_buffer,540307,confidence_buffer,,null,,,,,,,,,,,,,,,,,,,
2179.6999999955297,,pt2_unique_rating,542487,Palo Alto,,52,,4,,,,,,,,,,,,,,,,,
null,,confidence_buffer,542589,confidence_buffer,,null,,,,,,,,,,,,,,,,,,,
1890.3999999985099,,pt2_memorable_rating,544480,Palo Alto,,52,,4,,,,,,,,,,,,,,,,,
null,,confidence_buffer,544582,confidence_buffer,,null,,,,,,,,,,,,,,,,,,,
2115.7000000029802,,recognition_phase,546699,Palo Alto,,52,,,,,new,1,0.9411764705882353,,,,,,,,,,,,
null,,confidence_buffer,546801,confidence_buffer,,null,,,,,,,,,,,,,,,,,,,
null,,thebreak,547302,break,,null,,,,,,,,,,,,,,,,,,,
2682.7999999970198,,realistic_rating,549986,Carson City,,51,Carson City,3,,,,,,,,,,,,,,,,,
null,,confidence_buffer,550088,confidence_buffer,,null,,,,,,,,,,,,,,,,,,,
1803.8999999985099,,pt2_unique_rating,551893,Carson City,,50,,2,,,,,,,,,,,,,,,,,
null,,confidence_buffer,551995,confidence_buffer,,null,,,,,,,,,,,,,,,,,,,
2059.9000000059605,,pt2_memorable_rating,554056,Carson City,,50,,2,,,,,,,,,,,,,,,,,
null,,confidence_buffer,554158,confidence_buffer,,null,,,,,,,,,,,,,,,,,,,
969.8000000044703,,recognition_phase,555129,Carson City,,49,,,,,old,1,0.9444444444444444,,,,,,,,,,,,
null,,confidence_buffer,555231,confidence_buffer,,null,,,,,,,,,,,,,,,,,,,
null,,thebreak,555731,break,,null,,,,,,,,,,,,,,,,,,,
1359.3999999985099,,realistic_rating,557092,Ann Arbor,,53,Ann Arbor,5,,,,,,,,,,,,,,,,,
null,,confidence_buffer,557194,confidence_buffer,,null,,,,,,,,,,,,,,,,,,,
1908.1000000014901,,pt2_unique_rating,559103,Ann Arbor,,53,,5,,,,,,,,,,,,,,,,,
null,,confidence_buffer,559206,confidence_buffer,,null,,,,,,,,,,,,,,,,,,,
2125.5999999940395,,pt2_memorable_rating,561332,Ann Arbor,,53,,5,,,,,,,,,,,,,,,,,
null,,confidence_buffer,561434,confidence_buffer,,null,,,,,,,,,,,,,,,,,,,
1649,,recognition_phase,563084,Ann Arbor,,49,,,,,old,1,0.9473684210526315,,,,,,,,,,,,
null,,confidence_buffer,563186,confidence_buffer,,null,,,,,,,,,,,,,,,,,,,
null,,thebreak,563687,break,,null,,,,,,,,,,,,,,,,,,,
3750.8000000044703,,realistic_rating,567439,Hagerstown,,50,Hagerstown,2,,,,,,,,,,,,,,,,,
null,,confidence_buffer,567541,confidence_buffer,,null,,,,,,,,,,,,,,,,,,,
1658.1999999955297,,pt2_unique_rating,569200,Hagerstown,,50,,2,,,,,,,,,,,,,,,,,
null,,confidence_buffer,569302,confidence_buffer,,null,,,,,,,,,,,,,,,,,,,
867.6000000014901,,pt2_memorable_rating,570171,Hagerstown,,50,,2,,,,,,,,,,,,,,,,,
null,,confidence_buffer,570272,confidence_buffer,,null,,,,,,,,,,,,,,,,,,,
2294.39999999851,,recognition_phase,572568,Hagerstown,,52,,,,,new,1,0.95,,,,,,,,,,,,
null,,confidence_buffer,572670,confidence_buffer,,null,,,,,,,,,,,,,,,,,,,
null,,thebreak,573171,break,,null,,,,,,,,,,,,,,,,,,,
4193.80000000447,,realistic_rating,577366,Abilene,,50,Abilene,2,,,,,,,,,,,,,,,,,
null,,confidence_buffer,577468,confidence_buffer,,null,,,,,,,,,,,,,,,,,,,
1312.6999999955297,,pt2_unique_rating,578782,Abilene,,51,,3,,,,,,,,,,,,,,,,,
null,,confidence_buffer,578884,confidence_buffer,,null,,,,,,,,,,,,,,,,,,,
1751.6999999955297,,pt2_memorable_rating,580637,Abilene,,51,,3,,,,,,,,,,,,,,,,,
null,,confidence_buffer,580740,confidence_buffer,,null,,,,,,,,,,,,,,,,,,,
1277.5,,recognition_phase,582019,Abilene,,49,,,,,old,1,0.9523809523809523,,,,,,,,,,,,
null,,confidence_buffer,582121,confidence_buffer,,null,,,,,,,,,,,,,,,,,,,
null,,thebreak,582623,break,,null,,,,,,,,,,,,,,,,,,,
1626.3999999985099,,realistic_rating,584250,Bellingham,,50,Bellingham,2,,,,,,,,,,,,,,,,,
null,,confidence_buffer,584353,confidence_buffer,,null,,,,,,,,,,,,,,,,,,,
2400.3000000044703,,pt2_unique_rating,586754,Bellingham,,50,,2,,,,,,,,,,,,,,,,,
null,,confidence_buffer,586856,confidence_buffer,,null,,,,,,,,,,,,,,,,,,,
1133.7000000029802,,pt2_memorable_rating,587991,Bellingham,,50,,2,,,,,,,,,,,,,,,,,
null,,confidence_buffer,588092,confidence_buffer,,null,,,,,,,,,,,,,,,,,,,
3066.89999999851,,recognition_phase,591160,Bellingham,,52,,,,,new,1,0.9545454545454546,,,,,,,,,,,,
null,,confidence_buffer,591263,confidence_buffer,,null,,,,,,,,,,,,,,,,,,,
null,,thebreak,591764,break,,null,,,,,,,,,,,,,,,,,,,
1396.6000000014901,,realistic_rating,593162,Dover,,50,Dover,2,,,,,,,,,,,,,,,,,
null,,confidence_buffer,593263,confidence_buffer,,null,,,,,,,,,,,,,,,,,,,
2663.89999999851,,pt2_unique_rating,595928,Dover,,50,,2,,,,,,,,,,,,,,,,,
null,,confidence_buffer,596041,confidence_buffer,,null,,,,,,,,,,,,,,,,,,,
1021.8999999985099,,pt2_memorable_rating,597064,Dover,,50,,2,,,,,,,,,,,,,,,,,
null,,confidence_buffer,597166,confidence_buffer,,null,,,,,,,,,,,,,,,,,,,
1601.2999999970198,,recognition_phase,598769,Dover,,52,,,,,new,1,0.9565217391304348,,,,,,,,,,,,
null,,confidence_buffer,598871,confidence_buffer,,null,,,,,,,,,,,,,,,,,,,
null,,thebreak,599372,break,,null,,,,,,,,,,,,,,,,,,,
2257.10000000149,,realistic_rating,601631,Rock Springs,,51,Rock Springs,3,,,,,,,,,,,,,,,,,
null,,confidence_buffer,601732,confidence_buffer,,null,,,,,,,,,,,,,,,,,,,
1949.2999999970198,,pt2_unique_rating,603683,Rock Springs,,50,,2,,,,,,,,,,,,,,,,,
null,,confidence_buffer,603785,confidence_buffer,,null,,,,,,,,,,,,,,,,,,,
2605.10000000149,,pt2_memorable_rating,606391,Rock Springs,,51,,3,,,,,,,,,,,,,,,,,
null,,confidence_buffer,606493,confidence_buffer,,null,,,,,,,,,,,,,,,,,,,
2054.5,,recognition_phase,608549,Rock Springs,,52,,,,,new,1,0.9583333333333334,,,,,,,,,,,,
null,,confidence_buffer,608652,confidence_buffer,,null,,,,,,,,,,,,,,,,,,,
null,,thebreak,609154,break,,null,,,,,,,,,,,,,,,,,,,
1990.8000000044703,,realistic_rating,611146,Frankfort,,50,Frankfort,2,,,,,,,,,,,,,,,,,
null,,confidence_buffer,611248,confidence_buffer,,null,,,,,,,,,,,,,,,,,,,
2539.2000000029802,,pt2_unique_rating,613788,Frankfort,,50,,2,,,,,,,,,,,,,,,,,
null,,confidence_buffer,613901,confidence_buffer,,null,,,,,,,,,,,,,,,,,,,
1789.3000000044703,,pt2_memorable_rating,615692,Frankfort,,50,,2,,,,,,,,,,,,,,,,,
null,,confidence_buffer,615794,confidence_buffer,,null,,,,,,,,,,,,,,,,,,,
1854.2999999970198,,recognition_phase,617650,Frankfort,,52,,,,,new,1,0.96,,,,,,,,,,,,
null,,confidence_buffer,617752,confidence_buffer,,null,,,,,,,,,,,,,,,,,,,
null,,thebreak,618253,break,,null,,,,,,,,,,,,,,,,,,,
4628.79999999702,,realistic_rating,622883,Newport News,,49,Newport News,1,,,,,,,,,,,,,,,,,
null,,confidence_buffer,622985,confidence_buffer,,null,,,,,,,,,,,,,,,,,,,
5044.20000000298,,pt2_unique_rating,628031,Newport News,,52,,4,,,,,,,,,,,,,,,,,
null,,confidence_buffer,628133,confidence_buffer,,null,,,,,,,,,,,,,,,,,,,
3635.39999999851,,pt2_memorable_rating,631769,Newport News,,51,,3,,,,,,,,,,,,,,,,,
null,,confidence_buffer,631871,confidence_buffer,,null,,,,,,,,,,,,,,,,,,,
2481.2999999970198,,recognition_phase,634353,Newport News,,52,,,,,new,1,0.9615384615384616,,,,,,,,,,,,
null,,confidence_buffer,634455,confidence_buffer,,null,,,,,,,,,,,,,,,,,,,
null,,thebreak,634956,break,,null,,,,,,,,,,,,,,,,,,,
1829.6000000014901,,realistic_rating,636787,Terre Haute,,50,Terre Haute,2,,,,,,,,,,,,,,,,,
null,,confidence_buffer,636889,confidence_buffer,,null,,,,,,,,,,,,,,,,,,,
5845.20000000298,,pt2_unique_rating,642735,Terre Haute,,53,,5,,,,,,,,,,,,,,,,,
null,,confidence_buffer,642837,confidence_buffer,,null,,,,,,,,,,,,,,,,,,,
2651,,pt2_memorable_rating,645489,Terre Haute,,52,,4,,,,,,,,,,,,,,,,,
null,,confidence_buffer,645591,confidence_buffer,,null,,,,,,,,,,,,,,,,,,,
1209.8000000044703,,recognition_phase,646802,Terre Haute,,49,,,,,old,1,0.9629629629629629,,,,,,,,,,,,
null,,confidence_buffer,646904,confidence_buffer,,null,,,,,,,,,,,,,,,,,,,
null,,thebreak,647406,break,,null,,,,,,,,,,,,,,,,,,,
1253.2000000029802,,realistic_rating,648661,Marquette,,50,Marquette,2,,,,,,,,,,,,,,,,,
null,,confidence_buffer,648763,confidence_buffer,,null,,,,,,,,,,,,,,,,,,,
1569.3000000044703,,pt2_unique_rating,650334,Marquette,,50,,2,,,,,,,,,,,,,,,,,
null,,confidence_buffer,650435,confidence_buffer,,null,,,,,,,,,,,,,,,,,,,
2315,,pt2_memorable_rating,652752,Marquette,,51,,3,,,,,,,,,,,,,,,,,
null,,confidence_buffer,652853,confidence_buffer,,null,,,,,,,,,,,,,,,,,,,
1396.1000000014901,,recognition_phase,654250,Marquette,,52,,,,,new,1,0.9642857142857143,,,,,,,,,,,,
null,,confidence_buffer,654352,confidence_buffer,,null,,,,,,,,,,,,,,,,,,,
null,,thebreak,654854,break,,null,,,,,,,,,,,,,,,,,,,
2562.7000000029802,,realistic_rating,657417,McKinney,,50,McKinney,2,,,,,,,,,,,,,,,,,
null,,confidence_buffer,657520,confidence_buffer,,null,,,,,,,,,,,,,,,,,,,
1221.4000000059605,,pt2_unique_rating,658742,McKinney,,50,,2,,,,,,,,,,,,,,,,,
null,,confidence_buffer,658844,confidence_buffer,,null,,,,,,,,,,,,,,,,,,,
1894.7000000029802,,pt2_memorable_rating,660739,McKinney,,50,,2,,,,,,,,,,,,,,,,,
null,,confidence_buffer,660843,confidence_buffer,,null,,,,,,,,,,,,,,,,,,,
3200.10000000149,,recognition_phase,664044,McKinney,,52,,,,,new,1,0.9655172413793104,,,,,,,,,,,,
null,,confidence_buffer,664146,confidence_buffer,,null,,,,,,,,,,,,,,,,,,,
null,,thebreak,664648,break,,null,,,,,,,,,,,,,,,,,,,
2303,,realistic_rating,666952,Youngstown,,52,Youngstown,4,,,,,,,,,,,,,,,,,
null,,confidence_buffer,667054,confidence_buffer,,null,,,,,,,,,,,,,,,,,,,
1715.8000000044703,,pt2_unique_rating,668771,Youngstown,,50,,2,,,,,,,,,,,,,,,,,
null,,confidence_buffer,668872,confidence_buffer,,null,,,,,,,,,,,,,,,,,,,
3795.10000000149,,pt2_memorable_rating,672668,Youngstown,,51,,3,,,,,,,,,,,,,,,,,
null,,confidence_buffer,672779,confidence_buffer,,null,,,,,,,,,,,,,,,,,,,
3610,,recognition_phase,676390,Youngstown,,52,,,,,new,1,0.9666666666666667,,,,,,,,,,,,
null,,confidence_buffer,676492,confidence_buffer,,null,,,,,,,,,,,,,,,,,,,
null,,thebreak,676993,break,,null,,,,,,,,,,,,,,,,,,,
1620.5,,realistic_rating,678615,Salem,,53,Salem,5,,,,,,,,,,,,,,,,,
null,,confidence_buffer,678718,confidence_buffer,,null,,,,,,,,,,,,,,,,,,,
1157.0999999940395,,pt2_unique_rating,679876,Salem,,49,,1,,,,,,,,,,,,,,,,,
null,,confidence_buffer,679978,confidence_buffer,,null,,,,,,,,,,,,,,,,,,,
5160.4000000059605,,pt2_memorable_rating,685140,Salem,,51,,3,,,,,,,,,,,,,,,,,
null,,confidence_buffer,685241,confidence_buffer,,null,,,,,,,,,,,,,,,,,,,
1763.8000000044703,,recognition_phase,687006,Salem,,52,,,,,new,1,0.967741935483871,,,,,,,,,,,,
null,,confidence_buffer,687109,confidence_buffer,,null,,,,,,,,,,,,,,,,,,,
null,,thebreak,687610,break,,null,,,,,,,,,,,,,,,,,,,
2456.10000000149,,realistic_rating,690068,Champaign,,53,Champaign,5,,,,,,,,,,,,,,,,,
null,,confidence_buffer,690169,confidence_buffer,,null,,,,,,,,,,,,,,,,,,,
2656.8000000044703,,pt2_unique_rating,692827,Champaign,,50,,2,,,,,,,,,,,,,,,,,
null,,confidence_buffer,692930,confidence_buffer,,null,,,,,,,,,,,,,,,,,,,
2487.60000000149,,pt2_memorable_rating,695418,Champaign,,51,,3,,,,,,,,,,,,,,,,,
null,,confidence_buffer,695520,confidence_buffer,,null,,,,,,,,,,,,,,,,,,,
1045.7999999970198,,recognition_phase,696567,Champaign,,49,,,,,old,1,0.96875,,,,,,,,,,,,
null,,confidence_buffer,696669,confidence_buffer,,null,,,,,,,,,,,,,,,,,,,
null,,thebreak,697170,break,,null,,,,,,,,,,,,,,,,,,,
2637.1999999955297,,realistic_rating,699809,Berkeley,,52,Berkeley,4,,,,,,,,,,,,,,,,,
null,,confidence_buffer,699911,confidence_buffer,,null,,,,,,,,,,,,,,,,,,,
1550.7999999970198,,pt2_unique_rating,701463,Berkeley,,51,,3,,,,,,,,,,,,,,,,,
null,,confidence_buffer,701566,confidence_buffer,,null,,,,,,,,,,,,,,,,,,,
4903.89999999851,,pt2_memorable_rating,706470,Berkeley,,52,,4,,,,,,,,,,,,,,,,,
null,,confidence_buffer,706573,confidence_buffer,,null,,,,,,,,,,,,,,,,,,,
1127.9000000059605,,recognition_phase,707702,Berkeley,,49,,,,,old,1,0.9696969696969697,,,,,,,,,,,,
null,,confidence_buffer,707803,confidence_buffer,,null,,,,,,,,,,,,,,,,,,,
null,,thebreak,708304,break,,null,,,,,,,,,,,,,,,,,,,
1449.8000000044703,,realistic_rating,709755,Peoria,,50,Peoria,2,,,,,,,,,,,,,,,,,
null,,confidence_buffer,709857,confidence_buffer,,null,,,,,,,,,,,,,,,,,,,
1380.6000000014901,,pt2_unique_rating,711239,Peoria,,52,,4,,,,,,,,,,,,,,,,,
null,,confidence_buffer,711341,confidence_buffer,,null,,,,,,,,,,,,,,,,,,,
3521.39999999851,,pt2_memorable_rating,714863,Peoria,,51,,3,,,,,,,,,,,,,,,,,
null,,confidence_buffer,714965,confidence_buffer,,null,,,,,,,,,,,,,,,,,,,
1842.3000000044703,,recognition_phase,716809,Peoria,,52,,,,,new,1,0.9705882352941176,,,,,,,,,,,,
null,,confidence_buffer,716911,confidence_buffer,,null,,,,,,,,,,,,,,,,,,,
null,,thebreak,717413,break,,null,,,,,,,,,,,,,,,,,,,
2566,,realistic_rating,719980,Fargo,,51,Fargo,3,,,,,,,,,,,,,,,,,
null,,confidence_buffer,720081,confidence_buffer,,null,,,,,,,,,,,,,,,,,,,
1741.2999999970198,,pt2_unique_rating,721824,Fargo,,50,,2,,,,,,,,,,,,,,,,,
null,,confidence_buffer,721925,confidence_buffer,,null,,,,,,,,,,,,,,,,,,,
1149.8000000044703,,pt2_memorable_rating,723076,Fargo,,51,,3,,,,,,,,,,,,,,,,,
null,,confidence_buffer,723178,confidence_buffer,,null,,,,,,,,,,,,,,,,,,,
1366.5,,recognition_phase,724546,Fargo,,49,,,,,old,1,0.9714285714285714,,,,,,,,,,,,
null,,confidence_buffer,724648,confidence_buffer,,null,,,,,,,,,,,,,,,,,,,
null,,thebreak,725150,break,,null,,,,,,,,,,,,,,,,,,,
1951.8000000044703,,realistic_rating,727103,Dubuque,,50,Dubuque,2,,,,,,,,,,,,,,,,,
null,,confidence_buffer,727205,confidence_buffer,,null,,,,,,,,,,,,,,,,,,,
1700.8000000044703,,pt2_unique_rating,728907,Dubuque,,52,,4,,,,,,,,,,,,,,,,,
null,,confidence_buffer,729008,confidence_buffer,,null,,,,,,,,,,,,,,,,,,,
2636.89999999851,,pt2_memorable_rating,731646,Dubuque,,51,,3,,,,,,,,,,,,,,,,,
null,,confidence_buffer,731748,confidence_buffer,,null,,,,,,,,,,,,,,,,,,,
2321.10000000149,,probe_rating,734070,probe_rating,,52,,,4,1,,,,,,,,,,,,,,,
null,,confidence_buffer,734172,confidence_buffer,,null,,,,,,,,,,,,,,,,,,,
1413.3999999985099,,recognition_phase,735587,Dubuque,,49,,,,,old,1,0.9722222222222222,,,,,,,,,,,,
null,,confidence_buffer,735689,confidence_buffer,,null,,,,,,,,,,,,,,,,,,,
null,,thebreak,736191,break,,null,,,,,,,,,,,,,,,,,,,
2249.5,,realistic_rating,738442,Tallahassee,,53,Tallahassee,5,,,,,,,,,,,,,,,,,
null,,confidence_buffer,738544,confidence_buffer,,null,,,,,,,,,,,,,,,,,,,
1042.8999999985099,,probe_rating,739588,probe_rating,,52,,,4,1,,,,,,,,,,,,,,,
null,,confidence_buffer,739690,confidence_buffer,,null,,,,,,,,,,,,,,,,,,,
4296,,pt2_unique_rating,743988,Tallahassee,,52,,4,,,,,,,,,,,,,,,,,
null,,confidence_buffer,744089,confidence_buffer,,null,,,,,,,,,,,,,,,,,,,
1764.2000000029802,,pt2_memorable_rating,745855,Tallahassee,,52,,4,,,,,,,,,,,,,,,,,
null,,confidence_buffer,745957,confidence_buffer,,null,,,,,,,,,,,,,,,,,,,
1279.5,,recognition_phase,747237,Tallahassee,,49,,,,,old,1,0.972972972972973,,,,,,,,,,,,
null,,confidence_buffer,747339,confidence_buffer,,null,,,,,,,,,,,,,,,,,,,
null,,thebreak,747842,break,,null,,,,,,,,,,,,,,,,,,,
1889,,realistic_rating,749732,Fort Wayne,,50,Fort Wayne,2,,,,,,,,,,,,,,,,,
null,,confidence_buffer,749834,confidence_buffer,,null,,,,,,,,,,,,,,,,,,,
964.8999999985099,,pt2_unique_rating,750800,Fort Wayne,,49,,1,,,,,,,,,,,,,,,,,
null,,confidence_buffer,750902,confidence_buffer,,null,,,,,,,,,,,,,,,,,,,
8965.5,,pt2_memorable_rating,759869,Fort Wayne,,49,,1,,,,,,,,,,,,,,,,,
null,,confidence_buffer,759971,confidence_buffer,,null,,,,,,,,,,,,,,,,,,,
1683.7999999970198,,recognition_phase,761655,Fort Wayne,,51,,,,,new,1,0.9736842105263158,,,,,,,,,,,,
null,,confidence_buffer,761757,confidence_buffer,,null,,,,,,,,,,,,,,,,,,,
null,,thebreak,762258,break,,null,,,,,,,,,,,,,,,,,,,
2396,,realistic_rating,764655,Stamford,,50,Stamford,2,,,,,,,,,,,,,,,,,
null,,confidence_buffer,764756,confidence_buffer,,null,,,,,,,,,,,,,,,,,,,
3733.5,,pt2_unique_rating,768490,Stamford,,50,,2,,,,,,,,,,,,,,,,,
null,,confidence_buffer,768593,confidence_buffer,,null,,,,,,,,,,,,,,,,,,,
1753,,pt2_memorable_rating,770347,Stamford,,51,,3,,,,,,,,,,,,,,,,,
null,,confidence_buffer,770448,confidence_buffer,,null,,,,,,,,,,,,,,,,,,,
3133.7000000029802,,recognition_phase,773583,Stamford,,52,,,,,new,1,0.9743589743589743,,,,,,,,,,,,
null,,confidence_buffer,773686,confidence_buffer,,null,,,,,,,,,,,,,,,,,,,
null,,thebreak,774187,break,,null,,,,,,,,,,,,,,,,,,,
1452.3000000044703,,realistic_rating,775641,Gainesville,,53,Gainesville,5,,,,,,,,,,,,,,,,,
null,,confidence_buffer,775743,confidence_buffer,,null,,,,,,,,,,,,,,,,,,,
2947.7999999970198,,pt2_unique_rating,778691,Gainesville,,50,,2,,,,,,,,,,,,,,,,,
null,,confidence_buffer,778793,confidence_buffer,,null,,,,,,,,,,,,,,,,,,,
2148.39999999851,,pt2_memorable_rating,780942,Gainesville,,50,,2,,,,,,,,,,,,,,,,,
null,,confidence_buffer,781045,confidence_buffer,,null,,,,,,,,,,,,,,,,,,,
2908.1999999955297,,recognition_phase,783954,Gainesville,,52,,,,,new,1,0.975,,,,,,,,,,,,
null,,confidence_buffer,784056,confidence_buffer,,null,,,,,,,,,,,,,,,,,,,
null,,thebreak,784558,break,,null,,,,,,,,,,,,,,,,,,,
1319.1000000014901,,realistic_rating,785878,Athens,,53,Athens,5,,,,,,,,,,,,,,,,,
null,,confidence_buffer,785980,confidence_buffer,,null,,,,,,,,,,,,,,,,,,,
2979.5,,pt2_unique_rating,788960,Athens,,50,,2,,,,,,,,,,,,,,,,,
null,,confidence_buffer,789062,confidence_buffer,,null,,,,,,,,,,,,,,,,,,,
2673,,pt2_memorable_rating,791737,Athens,,51,,3,,,,,,,,,,,,,,,,,
null,,confidence_buffer,791839,confidence_buffer,,null,,,,,,,,,,,,,,,,,,,
924.3000000044703,,recognition_phase,792764,Athens,,49,,,,,old,1,0.975609756097561,,,,,,,,,,,,
null,,confidence_buffer,792866,confidence_buffer,,null,,,,,,,,,,,,,,,,,,,
null,,thebreak,793367,break,,null,,,,,,,,,,,,,,,,,,,
2725,,realistic_rating,796093,Scottsdale,,53,Scottsdale,5,,,,,,,,,,,,,,,,,
null,,confidence_buffer,796195,confidence_buffer,,null,,,,,,,,,,,,,,,,,,,
4938.70000000298,,pt2_unique_rating,801135,Scottsdale,,50,,2,,,,,,,,,,,,,,,,,
null,,confidence_buffer,801238,confidence_buffer,,null,,,,,,,,,,,,,,,,,,,
2390.5,,pt2_memorable_rating,803630,Scottsdale,,50,,2,,,,,,,,,,,,,,,,,
null,,confidence_buffer,803732,confidence_buffer,,null,,,,,,,,,,,,,,,,,,,
2366.60000000149,,recognition_phase,806100,Scottsdale,,52,,,,,new,1,0.9761904761904762,,,,,,,,,,,,
null,,confidence_buffer,806202,confidence_buffer,,null,,,,,,,,,,,,,,,,,,,
null,,thebreak,806703,break,,null,,,,,,,,,,,,,,,,,,,
1446.3999999985099,,realistic_rating,808151,Boise,,53,Boise,5,,,,,,,,,,,,,,,,,
null,,confidence_buffer,808253,confidence_buffer,,null,,,,,,,,,,,,,,,,,,,
2665.3000000044703,,pt2_unique_rating,810919,Boise,,52,,4,,,,,,,,,,,,,,,,,
null,,confidence_buffer,811022,confidence_buffer,,null,,,,,,,,,,,,,,,,,,,
3928.10000000149,,pt2_memorable_rating,814951,Boise,,52,,4,,,,,,,,,,,,,,,,,
null,,confidence_buffer,815053,confidence_buffer,,null,,,,,,,,,,,,,,,,,,,
2818.10000000149,,recognition_phase,817872,Boise,,51,,,,,new,1,0.9767441860465116,,,,,,,,,,,,
null,,confidence_buffer,817974,confidence_buffer,,null,,,,,,,,,,,,,,,,,,,
null,,thebreak,818476,break,,null,,,,,,,,,,,,,,,,,,,
1222.6999999955297,,realistic_rating,819700,Reno,,53,Reno,5,,,,,,,,,,,,,,,,,
null,,confidence_buffer,819801,confidence_buffer,,null,,,,,,,,,,,,,,,,,,,
2009.2999999970198,,pt2_unique_rating,821812,Reno,,51,,3,,,,,,,,,,,,,,,,,
null,,confidence_buffer,821913,confidence_buffer,,null,,,,,,,,,,,,,,,,,,,
2035,,pt2_memorable_rating,823950,Reno,,51,,3,,,,,,,,,,,,,,,,,
null,,confidence_buffer,824051,confidence_buffer,,null,,,,,,,,,,,,,,,,,,,
1799.2999999970198,,probe_rating,825852,probe_rating,,51,,,3,1,,,,,,,,,,,,,,,
null,,confidence_buffer,825954,confidence_buffer,,null,,,,,,,,,,,,,,,,,,,
3635.7999999970198,,recognition_phase,829591,Reno,,52,,,,,new,1,0.9772727272727273,,,,,,,,,,,,
null,,confidence_buffer,829693,confidence_buffer,,null,,,,,,,,,,,,,,,,,,,
null,,thebreak,830195,break,,null,,,,,,,,,,,,,,,,,,,
1637.8000000044703,,realistic_rating,831834,Helena,,50,Helena,2,,,,,,,,,,,,,,,,,
null,,confidence_buffer,831936,confidence_buffer,,null,,,,,,,,,,,,,,,,,,,
1197.2000000029802,,pt2_unique_rating,833134,Helena,,50,,2,,,,,,,,,,,,,,,,,
null,,confidence_buffer,833236,confidence_buffer,,null,,,,,,,,,,,,,,,,,,,
1206.3999999985099,,pt2_memorable_rating,834443,Helena,,51,,3,,,,,,,,,,,,,,,,,
null,,confidence_buffer,834545,confidence_buffer,,null,,,,,,,,,,,,,,,,,,,
1153,,recognition_phase,835699,Helena,,49,,,,,old,1,0.9777777777777777,,,,,,,,,,,,
null,,confidence_buffer,835801,confidence_buffer,,null,,,,,,,,,,,,,,,,,,,
null,,thebreak,836302,break,,null,,,,,,,,,,,,,,,,,,,
2461.60000000149,,realistic_rating,838765,Syracuse,,52,Syracuse,4,,,,,,,,,,,,,,,,,
null,,confidence_buffer,838867,confidence_buffer,,null,,,,,,,,,,,,,,,,,,,
1704.5,,pt2_unique_rating,840572,Syracuse,,51,,3,,,,,,,,,,,,,,,,,
null,,confidence_buffer,840674,confidence_buffer,,null,,,,,,,,,,,,,,,,,,,
2050.2999999970198,,pt2_memorable_rating,842725,Syracuse,,51,,3,,,,,,,,,,,,,,,,,
null,,confidence_buffer,842826,confidence_buffer,,null,,,,,,,,,,,,,,,,,,,
834.8999999985099,,recognition_phase,843662,Syracuse,,49,,,,,old,1,0.9782608695652174,,,,,,,,,,,,
null,,confidence_buffer,843765,confidence_buffer,,null,,,,,,,,,,,,,,,,,,,
null,,thebreak,844275,break,,null,,,,,,,,,,,,,,,,,,,
2022.2000000029802,,realistic_rating,846298,Yakima,,50,Yakima,2,,,,,,,,,,,,,,,,,
null,,confidence_buffer,846400,confidence_buffer,,null,,,,,,,,,,,,,,,,,,,
2180.60000000149,,pt2_unique_rating,848582,Yakima,,51,,3,,,,,,,,,,,,,,,,,
null,,confidence_buffer,848684,confidence_buffer,,null,,,,,,,,,,,,,,,,,,,
1783.0999999940395,,pt2_memorable_rating,850469,Yakima,,51,,3,,,,,,,,,,,,,,,,,
null,,confidence_buffer,850583,confidence_buffer,,null,,,,,,,,,,,,,,,,,,,
1209.1999999955297,,recognition_phase,851793,Yakima,,52,,,,,new,1,0.9787234042553191,,,,,,,,,,,,
null,,confidence_buffer,851895,confidence_buffer,,null,,,,,,,,,,,,,,,,,,,
null,,thebreak,852396,break,,null,,,,,,,,,,,,,,,,,,,
3329.8000000044703,,realistic_rating,855727,Burlington,,51,Burlington,3,,,,,,,,,,,,,,,,,
null,,confidence_buffer,855828,confidence_buffer,,null,,,,,,,,,,,,,,,,,,,
855.1000000014901,,pt2_unique_rating,856685,Burlington,,49,,1,,,,,,,,,,,,,,,,,
null,,confidence_buffer,856786,confidence_buffer,,null,,,,,,,,,,,,,,,,,,,
2739.39999999851,,pt2_memorable_rating,859527,Burlington,,50,,2,,,,,,,,,,,,,,,,,
null,,confidence_buffer,859629,confidence_buffer,,null,,,,,,,,,,,,,,,,,,,
1869.5,,recognition_phase,861500,Burlington,,51,,,,,new,1,0.9791666666666666,,,,,,,,,,,,
null,,confidence_buffer,861602,confidence_buffer,,null,,,,,,,,,,,,,,,,,,,
null,,thebreak,862103,break,,null,,,,,,,,,,,,,,,,,,,
1626.5,,realistic_rating,863731,Pueblo,,50,Pueblo,2,,,,,,,,,,,,,,,,,
null,,confidence_buffer,863832,confidence_buffer,,null,,,,,,,,,,,,,,,,,,,
1636.1000000014901,,probe_rating,865470,probe_rating,,52,,,4,1,,,,,,,,,,,,,,,
null,,confidence_buffer,865571,confidence_buffer,,null,,,,,,,,,,,,,,,,,,,
7281.5,,pt2_unique_rating,872854,Pueblo,,51,,3,,,,,,,,,,,,,,,,,
null,,confidence_buffer,872956,confidence_buffer,,null,,,,,,,,,,,,,,,,,,,
1726.5,,pt2_memorable_rating,874683,Pueblo,,50,,2,,,,,,,,,,,,,,,,,
null,,confidence_buffer,874785,confidence_buffer,,null,,,,,,,,,,,,,,,,,,,
1365.8000000044703,,recognition_phase,876152,Pueblo,,49,,,,,old,1,0.9795918367346939,,,,,,,,,,,,
null,,confidence_buffer,876254,confidence_buffer,,null,,,,,,,,,,,,,,,,,,,
null,,thebreak,876766,break,,null,,,,,,,,,,,,,,,,,,,
2528.5,,realistic_rating,879296,Norfolk,,51,Norfolk,3,,,,,,,,,,,,,,,,,
null,,confidence_buffer,879397,confidence_buffer,,null,,,,,,,,,,,,,,,,,,,
2426.89999999851,,pt2_unique_rating,881825,Norfolk,,52,,4,,,,,,,,,,,,,,,,,
null,,confidence_buffer,881927,confidence_buffer,,null,,,,,,,,,,,,,,,,,,,
1764.3999999985099,,pt2_memorable_rating,883692,Norfolk,,51,,3,,,,,,,,,,,,,,,,,
null,,confidence_buffer,883795,confidence_buffer,,null,,,,,,,,,,,,,,,,,,,
883,,recognition_phase,884679,Norfolk,,49,,,,,old,1,0.98,,,,,,,,,,,,
null,,confidence_buffer,884781,confidence_buffer,,null,,,,,,,,,,,,,,,,,,,
null,,thebreak,885283,break,,null,,,,,,,,,,,,,,,,,,,
,,survey,1223132,survey-questions,,,,,,,,,,none,high,No.,I tried to think about whether I have heard of the city before and what states or countries it might be in.,How certain I am that I know about the city and how much I know about the city.,A rough estimation of how likely I would be to remember the name after an extended period of time.,A rough estimation of how many cities have this name; or how common the words that make up the name are.,How likely the name is to be of a real city.,No.,No.,,
5665.60000000149,,thank_you,1228817,all_done,,32,,,,,,,,,,,,,,,,,,13,0
