rt,responses,trial_type,time_elapsed,stimulus,button_pressed,key_press,name_trial,rating,probe,probe_accuracy,response,correct,accuracy,problems,smooth,distraction,strategies,familiar,memorable,unique,realistic,similar,comments,detectfocus,warning
7249.200000762939,{worker_id:6633e281f08a156a04a3379d},id_enter,7251,,,,,,,,,,,,,,,,,,,,,,
23691.29999923706,,fullscreen,30946,fullscreen,0,,,,,,,,,,,,,,,,,,,,
7466.600002288818,,intro_0,38415,instruct,,32,,,,,,,,,,,,,,,,,,,
13863.29999923706,,intro_1,52279,instruct,,32,,,,,,,,,,,,,,,,,,,
6999.700000762939,,intro_2,59279,instruct,,32,,,,,,,,,,,,,,,,,,,
null,,instruct_dir_4,60781,instruct,,null,,,,,,,,,,,,,,,,,,,
null,,thebreak,61282,break,,null,,,,,,,,,,,,,,,,,,,
20059.79999923706,,familiar_rating,81343,Reno,,52,Reno,4,,,,,,,,,,,,,,,,,
null,,confidence_buffer,81445,confidence_buffer,,null,,,,,,,,,,,,,,,,,,,
8811.599998474121,,unique_rating,90257,Reno,,51,,3,,,,,,,,,,,,,,,,,
null,,confidence_buffer,90358,confidence_buffer,,null,,,,,,,,,,,,,,,,,,,
13143.20000076294,,memorable_rating,103502,Reno,,52,,4,,,,,,,,,,,,,,,,,
null,,confidence_buffer,103604,confidence_buffer,,null,,,,,,,,,,,,,,,,,,,
null,,thebreak,104105,break,,null,,,,,,,,,,,,,,,,,,,
4907.700000762939,,familiar_rating,109013,Berkeley,,51,Berkeley,3,,,,,,,,,,,,,,,,,
null,,confidence_buffer,109115,confidence_buffer,,null,,,,,,,,,,,,,,,,,,,
7036.599998474121,,unique_rating,116152,Berkeley,,50,,2,,,,,,,,,,,,,,,,,
null,,confidence_buffer,116264,confidence_buffer,,null,,,,,,,,,,,,,,,,,,,
4754.700000762939,,memorable_rating,121020,Berkeley,,52,,4,,,,,,,,,,,,,,,,,
null,,confidence_buffer,121121,confidence_buffer,,null,,,,,,,,,,,,,,,,,,,
null,,thebreak,121623,break,,null,,,,,,,,,,,,,,,,,,,
15784.5,,familiar_rating,137408,Terre Haute,,51,Terre Haute,3,,,,,,,,,,,,,,,,,
null,,confidence_buffer,137510,confidence_buffer,,null,,,,,,,,,,,,,,,,,,,
6392,,unique_rating,143903,Terre Haute,,52,,4,,,,,,,,,,,,,,,,,
null,,confidence_buffer,144005,confidence_buffer,,null,,,,,,,,,,,,,,,,,,,
8057.900001525879,,probe_rating,152064,probe_rating,,50,,,2,1,,,,,,,,,,,,,,,
null,,confidence_buffer,152165,confidence_buffer,,null,,,,,,,,,,,,,,,,,,,
13294.599998474121,,memorable_rating,165461,Terre Haute,,52,,4,,,,,,,,,,,,,,,,,
null,,confidence_buffer,165562,confidence_buffer,,null,,,,,,,,,,,,,,,,,,,
null,,thebreak,166063,break,,null,,,,,,,,,,,,,,,,,,,
28245,,familiar_rating,194309,Youngstown,,50,Youngstown,2,,,,,,,,,,,,,,,,,
null,,confidence_buffer,194410,confidence_buffer,,null,,,,,,,,,,,,,,,,,,,
3206.5,,unique_rating,197618,Youngstown,,51,,3,,,,,,,,,,,,,,,,,
null,,confidence_buffer,197720,confidence_buffer,,null,,,,,,,,,,,,,,,,,,,
3569.599998474121,,memorable_rating,201290,Youngstown,,51,,3,,,,,,,,,,,,,,,,,
null,,confidence_buffer,201391,confidence_buffer,,null,,,,,,,,,,,,,,,,,,,
null,,thebreak,201893,break,,null,,,,,,,,,,,,,,,,,,,
5235.5,,familiar_rating,207129,Hagerstown,,49,Hagerstown,1,,,,,,,,,,,,,,,,,
null,,confidence_buffer,207234,confidence_buffer,,null,,,,,,,,,,,,,,,,,,,
10749.399997711182,,unique_rating,217984,Hagerstown,,53,,5,,,,,,,,,,,,,,,,,
null,,confidence_buffer,218086,confidence_buffer,,null,,,,,,,,,,,,,,,,,,,
14535.400001525879,,memorable_rating,232622,Hagerstown,,52,,4,,,,,,,,,,,,,,,,,
null,,confidence_buffer,232724,confidence_buffer,,null,,,,,,,,,,,,,,,,,,,
null,,thebreak,233226,break,,null,,,,,,,,,,,,,,,,,,,
9465.5,,familiar_rating,242692,Scottsdale,,52,Scottsdale,4,,,,,,,,,,,,,,,,,
null,,confidence_buffer,242793,confidence_buffer,,null,,,,,,,,,,,,,,,,,,,
6322.400001525879,,unique_rating,249116,Scottsdale,,50,,2,,,,,,,,,,,,,,,,,
null,,confidence_buffer,249218,confidence_buffer,,null,,,,,,,,,,,,,,,,,,,
2697.5,,memorable_rating,251917,Scottsdale,,50,,2,,,,,,,,,,,,,,,,,
null,,confidence_buffer,252019,confidence_buffer,,null,,,,,,,,,,,,,,,,,,,
null,,thebreak,252520,break,,null,,,,,,,,,,,,,,,,,,,
8717.899997711182,,familiar_rating,261239,Syracuse,,53,Syracuse,5,,,,,,,,,,,,,,,,,
null,,confidence_buffer,261340,confidence_buffer,,null,,,,,,,,,,,,,,,,,,,
1730.3000030517578,,unique_rating,263071,Syracuse,,53,,5,,,,,,,,,,,,,,,,,
null,,confidence_buffer,263173,confidence_buffer,,null,,,,,,,,,,,,,,,,,,,
3897.7000007629395,,memorable_rating,267072,Syracuse,,53,,5,,,,,,,,,,,,,,,,,
null,,confidence_buffer,267173,confidence_buffer,,null,,,,,,,,,,,,,,,,,,,
null,,thebreak,267674,break,,null,,,,,,,,,,,,,,,,,,,
6926.5,,familiar_rating,274602,Topeka,,52,Topeka,4,,,,,,,,,,,,,,,,,
null,,confidence_buffer,274703,confidence_buffer,,null,,,,,,,,,,,,,,,,,,,
3278.199996948242,,unique_rating,277982,Topeka,,53,,5,,,,,,,,,,,,,,,,,
null,,confidence_buffer,278084,confidence_buffer,,null,,,,,,,,,,,,,,,,,,,
4793.600002288818,,memorable_rating,282879,Topeka,,51,,3,,,,,,,,,,,,,,,,,
null,,confidence_buffer,282979,confidence_buffer,,null,,,,,,,,,,,,,,,,,,,
null,,thebreak,283481,break,,null,,,,,,,,,,,,,,,,,,,
6639.299999237061,,familiar_rating,290121,Muncie,,52,Muncie,4,,,,,,,,,,,,,,,,,
null,,confidence_buffer,290223,confidence_buffer,,null,,,,,,,,,,,,,,,,,,,
2060.7000007629395,,unique_rating,292285,Muncie,,52,,4,,,,,,,,,,,,,,,,,
null,,confidence_buffer,292387,confidence_buffer,,null,,,,,,,,,,,,,,,,,,,
4110,,memorable_rating,296498,Muncie,,51,,3,,,,,,,,,,,,,,,,,
null,,confidence_buffer,296599,confidence_buffer,,null,,,,,,,,,,,,,,,,,,,
null,,thebreak,297101,break,,null,,,,,,,,,,,,,,,,,,,
5755.5,,familiar_rating,302857,Boise,,53,Boise,5,,,,,,,,,,,,,,,,,
null,,confidence_buffer,302959,confidence_buffer,,null,,,,,,,,,,,,,,,,,,,
2077.7000007629395,,unique_rating,305038,Boise,,53,,5,,,,,,,,,,,,,,,,,
null,,confidence_buffer,305140,confidence_buffer,,null,,,,,,,,,,,,,,,,,,,
2230.2999992370605,,memorable_rating,307371,Boise,,51,,3,,,,,,,,,,,,,,,,,
null,,confidence_buffer,307473,confidence_buffer,,null,,,,,,,,,,,,,,,,,,,
null,,thebreak,307975,break,,null,,,,,,,,,,,,,,,,,,,
7244.100002288818,,familiar_rating,315220,Decatur,,53,Decatur,5,,,,,,,,,,,,,,,,,
null,,confidence_buffer,315321,confidence_buffer,,null,,,,,,,,,,,,,,,,,,,
1599.7000007629395,,unique_rating,316922,Decatur,,52,,4,,,,,,,,,,,,,,,,,
null,,confidence_buffer,317025,confidence_buffer,,null,,,,,,,,,,,,,,,,,,,
1333.7000007629395,,memorable_rating,318359,Decatur,,50,,2,,,,,,,,,,,,,,,,,
null,,confidence_buffer,318461,confidence_buffer,,null,,,,,,,,,,,,,,,,,,,
null,,thebreak,318962,break,,null,,,,,,,,,,,,,,,,,,,
11465.70000076294,,familiar_rating,330429,Tallahassee,,53,Tallahassee,5,,,,,,,,,,,,,,,,,
null,,confidence_buffer,330529,confidence_buffer,,null,,,,,,,,,,,,,,,,,,,
1454,,unique_rating,331984,Tallahassee,,52,,4,,,,,,,,,,,,,,,,,
null,,confidence_buffer,332091,confidence_buffer,,null,,,,,,,,,,,,,,,,,,,
2181.5,,memorable_rating,334273,Tallahassee,,53,,5,,,,,,,,,,,,,,,,,
null,,confidence_buffer,334375,confidence_buffer,,null,,,,,,,,,,,,,,,,,,,
null,,thebreak,334876,break,,null,,,,,,,,,,,,,,,,,,,
9175,,familiar_rating,344052,Athens,,52,Athens,4,,,,,,,,,,,,,,,,,
null,,confidence_buffer,344153,confidence_buffer,,null,,,,,,,,,,,,,,,,,,,
1896.400001525879,,unique_rating,346050,Athens,,49,,1,,,,,,,,,,,,,,,,,
null,,confidence_buffer,346152,confidence_buffer,,null,,,,,,,,,,,,,,,,,,,
1765.1999969482422,,memorable_rating,347918,Athens,,51,,3,,,,,,,,,,,,,,,,,
null,,confidence_buffer,348020,confidence_buffer,,null,,,,,,,,,,,,,,,,,,,
null,,thebreak,348521,break,,null,,,,,,,,,,,,,,,,,,,
9280.5,,familiar_rating,357802,Champaign,,52,Champaign,4,,,,,,,,,,,,,,,,,
null,,confidence_buffer,357903,confidence_buffer,,null,,,,,,,,,,,,,,,,,,,
1679,,unique_rating,359583,Champaign,,51,,3,,,,,,,,,,,,,,,,,
null,,confidence_buffer,359685,confidence_buffer,,null,,,,,,,,,,,,,,,,,,,
2242.5,,memorable_rating,361928,Champaign,,52,,4,,,,,,,,,,,,,,,,,
null,,confidence_buffer,362030,confidence_buffer,,null,,,,,,,,,,,,,,,,,,,
null,,thebreak,362531,break,,null,,,,,,,,,,,,,,,,,,,
7409.799999237061,,familiar_rating,369942,Fargo,,52,Fargo,4,,,,,,,,,,,,,,,,,
null,,confidence_buffer,370058,confidence_buffer,,null,,,,,,,,,,,,,,,,,,,
5188.599998474121,,probe_rating,375248,probe_rating,,51,,,3,1,,,,,,,,,,,,,,,
null,,confidence_buffer,375349,confidence_buffer,,null,,,,,,,,,,,,,,,,,,,
4725.600002288818,,unique_rating,380076,Fargo,,51,,3,,,,,,,,,,,,,,,,,
null,,confidence_buffer,380177,confidence_buffer,,null,,,,,,,,,,,,,,,,,,,
3042,,memorable_rating,383220,Fargo,,52,,4,,,,,,,,,,,,,,,,,
null,,confidence_buffer,383322,confidence_buffer,,null,,,,,,,,,,,,,,,,,,,
null,,thebreak,383823,break,,null,,,,,,,,,,,,,,,,,,,
8964.400001525879,,familiar_rating,392788,Peoria,,51,Peoria,3,,,,,,,,,,,,,,,,,
null,,confidence_buffer,392889,confidence_buffer,,null,,,,,,,,,,,,,,,,,,,
1744,,unique_rating,394634,Peoria,,52,,4,,,,,,,,,,,,,,,,,
null,,confidence_buffer,394735,confidence_buffer,,null,,,,,,,,,,,,,,,,,,,
1086.2000007629395,,memorable_rating,395822,Peoria,,49,,1,,,,,,,,,,,,,,,,,
null,,confidence_buffer,395923,confidence_buffer,,null,,,,,,,,,,,,,,,,,,,
null,,thebreak,396424,break,,null,,,,,,,,,,,,,,,,,,,
7983.799999237061,,familiar_rating,404409,Ithaca,,53,Ithaca,5,,,,,,,,,,,,,,,,,
null,,confidence_buffer,404510,confidence_buffer,,null,,,,,,,,,,,,,,,,,,,
1898.2000007629395,,unique_rating,406409,Ithaca,,53,,5,,,,,,,,,,,,,,,,,
null,,confidence_buffer,406511,confidence_buffer,,null,,,,,,,,,,,,,,,,,,,
1915.7999992370605,,memorable_rating,408428,Ithaca,,51,,3,,,,,,,,,,,,,,,,,
null,,confidence_buffer,408531,confidence_buffer,,null,,,,,,,,,,,,,,,,,,,
null,,thebreak,409033,break,,null,,,,,,,,,,,,,,,,,,,
10341.599998474121,,familiar_rating,419375,Bozeman,,49,Bozeman,1,,,,,,,,,,,,,,,,,
null,,confidence_buffer,419476,confidence_buffer,,null,,,,,,,,,,,,,,,,,,,
1852.2000007629395,,unique_rating,421330,Bozeman,,53,,5,,,,,,,,,,,,,,,,,
null,,confidence_buffer,421431,confidence_buffer,,null,,,,,,,,,,,,,,,,,,,
5409.799999237061,,memorable_rating,426841,Bozeman,,52,,4,,,,,,,,,,,,,,,,,
null,,confidence_buffer,426943,confidence_buffer,,null,,,,,,,,,,,,,,,,,,,
null,,thebreak,427445,break,,null,,,,,,,,,,,,,,,,,,,
7110.700000762939,,familiar_rating,434557,Cambridge,,53,Cambridge,5,,,,,,,,,,,,,,,,,
null,,confidence_buffer,434658,confidence_buffer,,null,,,,,,,,,,,,,,,,,,,
1785.599998474121,,unique_rating,436445,Cambridge,,50,,2,,,,,,,,,,,,,,,,,
null,,confidence_buffer,436547,confidence_buffer,,null,,,,,,,,,,,,,,,,,,,
2562.3999977111816,,memorable_rating,439111,Cambridge,,50,,2,,,,,,,,,,,,,,,,,
null,,confidence_buffer,439213,confidence_buffer,,null,,,,,,,,,,,,,,,,,,,
3515.7999992370605,,probe_rating,442730,probe_rating,,51,,,3,1,,,,,,,,,,,,,,,
null,,confidence_buffer,442832,confidence_buffer,,null,,,,,,,,,,,,,,,,,,,
null,,thebreak,443333,break,,null,,,,,,,,,,,,,,,,,,,
8694.099998474121,,familiar_rating,452028,Marquette,,51,Marquette,3,,,,,,,,,,,,,,,,,
null,,confidence_buffer,452129,confidence_buffer,,null,,,,,,,,,,,,,,,,,,,
2148.2999992370605,,unique_rating,454278,Marquette,,52,,4,,,,,,,,,,,,,,,,,
null,,confidence_buffer,454380,confidence_buffer,,null,,,,,,,,,,,,,,,,,,,
3289.7000007629395,,memorable_rating,457671,Marquette,,50,,2,,,,,,,,,,,,,,,,,
null,,confidence_buffer,457773,confidence_buffer,,null,,,,,,,,,,,,,,,,,,,
null,,thebreak,458275,break,,null,,,,,,,,,,,,,,,,,,,
5102.099998474121,,familiar_rating,463378,Dover,,53,Dover,5,,,,,,,,,,,,,,,,,
null,,confidence_buffer,463479,confidence_buffer,,null,,,,,,,,,,,,,,,,,,,
1347.8999977111816,,unique_rating,464829,Dover,,50,,2,,,,,,,,,,,,,,,,,
null,,confidence_buffer,464930,confidence_buffer,,null,,,,,,,,,,,,,,,,,,,
1678.5,,memorable_rating,466609,Dover,,49,,1,,,,,,,,,,,,,,,,,
null,,confidence_buffer,466711,confidence_buffer,,null,,,,,,,,,,,,,,,,,,,
null,,thebreak,467212,break,,null,,,,,,,,,,,,,,,,,,,
7615.599998474121,,familiar_rating,474829,Concord,,52,Concord,4,,,,,,,,,,,,,,,,,
null,,confidence_buffer,474931,confidence_buffer,,null,,,,,,,,,,,,,,,,,,,
1524,,unique_rating,476456,Concord,,50,,2,,,,,,,,,,,,,,,,,
null,,confidence_buffer,476559,confidence_buffer,,null,,,,,,,,,,,,,,,,,,,
2165.400001525879,,memorable_rating,478726,Concord,,51,,3,,,,,,,,,,,,,,,,,
null,,confidence_buffer,478828,confidence_buffer,,null,,,,,,,,,,,,,,,,,,,
null,,thebreak,479330,break,,null,,,,,,,,,,,,,,,,,,,
8746,,familiar_rating,488076,Rock Springs,,52,Rock Springs,4,,,,,,,,,,,,,,,,,
null,,confidence_buffer,488178,confidence_buffer,,null,,,,,,,,,,,,,,,,,,,
1482.5,,unique_rating,489661,Rock Springs,,51,,3,,,,,,,,,,,,,,,,,
null,,confidence_buffer,489763,confidence_buffer,,null,,,,,,,,,,,,,,,,,,,
1456.5,,memorable_rating,491220,Rock Springs,,50,,2,,,,,,,,,,,,,,,,,
null,,confidence_buffer,491325,confidence_buffer,,null,,,,,,,,,,,,,,,,,,,
4178.900001525879,,probe_rating,495505,probe_rating,,53,,,5,1,,,,,,,,,,,,,,,
null,,confidence_buffer,495607,confidence_buffer,,null,,,,,,,,,,,,,,,,,,,
null,,thebreak,496109,break,,null,,,,,,,,,,,,,,,,,,,
7038.599998474121,,familiar_rating,503148,New Haven,,53,New Haven,5,,,,,,,,,,,,,,,,,
null,,confidence_buffer,503250,confidence_buffer,,null,,,,,,,,,,,,,,,,,,,
1748.7000007629395,,unique_rating,505000,New Haven,,49,,1,,,,,,,,,,,,,,,,,
null,,confidence_buffer,505101,confidence_buffer,,null,,,,,,,,,,,,,,,,,,,
1202.400001525879,,memorable_rating,506304,New Haven,,50,,2,,,,,,,,,,,,,,,,,
null,,confidence_buffer,506407,confidence_buffer,,null,,,,,,,,,,,,,,,,,,,
2752,,probe_rating,509160,probe_rating,,50,,,2,1,,,,,,,,,,,,,,,
null,,confidence_buffer,509262,confidence_buffer,,null,,,,,,,,,,,,,,,,,,,
null,,thebreak,509763,break,,null,,,,,,,,,,,,,,,,,,,
10068.79999923706,,familiar_rating,519833,Dubuque,,50,Dubuque,2,,,,,,,,,,,,,,,,,
null,,confidence_buffer,519935,confidence_buffer,,null,,,,,,,,,,,,,,,,,,,
1342.6999969482422,,unique_rating,521278,Dubuque,,53,,5,,,,,,,,,,,,,,,,,
null,,confidence_buffer,521381,confidence_buffer,,null,,,,,,,,,,,,,,,,,,,
1454.099998474121,,memorable_rating,522835,Dubuque,,52,,4,,,,,,,,,,,,,,,,,
null,,confidence_buffer,522937,confidence_buffer,,null,,,,,,,,,,,,,,,,,,,
null,,thebreak,523438,break,,null,,,,,,,,,,,,,,,,,,,
10328.399997711182,,intro_0,533767,instruct,,32,,,,,,,,,,,,,,,,,,,
14125,,intro_1,547893,instruct,,32,,,,,,,,,,,,,,,,,,,
18027.79999923706,,intro_2,565921,instruct,,32,,,,,,,,,,,,,,,,,,,
null,,instruct_dir_4,567422,instruct,,null,,,,,,,,,,,,,,,,,,,
9992.400001525879,,realistic_rating,577415,Helena,,53,Helena,5,,,,,,,,,,,,,,,,,
null,,confidence_buffer,577518,confidence_buffer,,null,,,,,,,,,,,,,,,,,,,
4659.200000762939,,pt2_unique_rating,582178,Helena,,52,,4,,,,,,,,,,,,,,,,,
null,,confidence_buffer,582280,confidence_buffer,,null,,,,,,,,,,,,,,,,,,,
2805.099998474121,,pt2_memorable_rating,585086,Helena,,52,,4,,,,,,,,,,,,,,,,,
null,,confidence_buffer,585187,confidence_buffer,,null,,,,,,,,,,,,,,,,,,,
6856.299999237061,,recognition_phase,592044,Helena,,52,,,,,new,1,1,,,,,,,,,,,,
null,,confidence_buffer,592146,confidence_buffer,,null,,,,,,,,,,,,,,,,,,,
null,,thebreak,592648,break,,null,,,,,,,,,,,,,,,,,,,
5187.599998474121,,realistic_rating,597837,Boise,,53,Boise,5,,,,,,,,,,,,,,,,,
null,,confidence_buffer,597939,confidence_buffer,,null,,,,,,,,,,,,,,,,,,,
6267.700000762939,,pt2_unique_rating,604208,Boise,,52,,4,,,,,,,,,,,,,,,,,
null,,confidence_buffer,604309,confidence_buffer,,null,,,,,,,,,,,,,,,,,,,
3230.7000007629395,,pt2_memorable_rating,607541,Boise,,50,,2,,,,,,,,,,,,,,,,,
null,,confidence_buffer,607643,confidence_buffer,,null,,,,,,,,,,,,,,,,,,,
4383.400001525879,,recognition_phase,612028,Boise,,49,,,,,old,1,1,,,,,,,,,,,,
null,,confidence_buffer,612130,confidence_buffer,,null,,,,,,,,,,,,,,,,,,,
null,,thebreak,612631,break,,null,,,,,,,,,,,,,,,,,,,
3259.6000022888184,,realistic_rating,615892,Muncie,,53,Muncie,5,,,,,,,,,,,,,,,,,
null,,confidence_buffer,615993,confidence_buffer,,null,,,,,,,,,,,,,,,,,,,
3838.900001525879,,pt2_unique_rating,619833,Muncie,,52,,4,,,,,,,,,,,,,,,,,
null,,confidence_buffer,619935,confidence_buffer,,null,,,,,,,,,,,,,,,,,,,
2635.599998474121,,pt2_memorable_rating,622571,Muncie,,51,,3,,,,,,,,,,,,,,,,,
null,,confidence_buffer,622673,confidence_buffer,,null,,,,,,,,,,,,,,,,,,,
5005.200000762939,,recognition_phase,627679,Muncie,,49,,,,,old,1,1,,,,,,,,,,,,
null,,confidence_buffer,627780,confidence_buffer,,null,,,,,,,,,,,,,,,,,,,
null,,thebreak,628282,break,,null,,,,,,,,,,,,,,,,,,,
5495.299999237061,,realistic_rating,633778,Dubuque,,53,Dubuque,5,,,,,,,,,,,,,,,,,
null,,confidence_buffer,633880,confidence_buffer,,null,,,,,,,,,,,,,,,,,,,
2359.7000007629395,,pt2_unique_rating,636240,Dubuque,,53,,5,,,,,,,,,,,,,,,,,
null,,confidence_buffer,636342,confidence_buffer,,null,,,,,,,,,,,,,,,,,,,
1791,,pt2_memorable_rating,638134,Dubuque,,52,,4,,,,,,,,,,,,,,,,,
null,,confidence_buffer,638235,confidence_buffer,,null,,,,,,,,,,,,,,,,,,,
5129.5,,recognition_phase,643366,Dubuque,,49,,,,,old,1,1,,,,,,,,,,,,
null,,confidence_buffer,643468,confidence_buffer,,null,,,,,,,,,,,,,,,,,,,
null,,thebreak,643969,break,,null,,,,,,,,,,,,,,,,,,,
2439.099998474121,,realistic_rating,646409,Reno,,53,Reno,5,,,,,,,,,,,,,,,,,
null,,confidence_buffer,646510,confidence_buffer,,null,,,,,,,,,,,,,,,,,,,
2634.6000022888184,,pt2_unique_rating,649146,Reno,,53,,5,,,,,,,,,,,,,,,,,
null,,confidence_buffer,649248,confidence_buffer,,null,,,,,,,,,,,,,,,,,,,
1711.400001525879,,pt2_memorable_rating,650961,Reno,,52,,4,,,,,,,,,,,,,,,,,
null,,confidence_buffer,651063,confidence_buffer,,null,,,,,,,,,,,,,,,,,,,
1448.1000022888184,,recognition_phase,652512,Reno,,49,,,,,old,1,1,,,,,,,,,,,,
null,,confidence_buffer,652613,confidence_buffer,,null,,,,,,,,,,,,,,,,,,,
null,,thebreak,653115,break,,null,,,,,,,,,,,,,,,,,,,
3328.800003051758,,realistic_rating,656445,Palo Alto,,52,Palo Alto,4,,,,,,,,,,,,,,,,,
null,,confidence_buffer,656547,confidence_buffer,,null,,,,,,,,,,,,,,,,,,,
3586.900001525879,,pt2_unique_rating,660135,Palo Alto,,52,,4,,,,,,,,,,,,,,,,,
null,,confidence_buffer,660236,confidence_buffer,,null,,,,,,,,,,,,,,,,,,,
3455.7999992370605,,pt2_memorable_rating,663693,Palo Alto,,52,,4,,,,,,,,,,,,,,,,,
null,,confidence_buffer,663794,confidence_buffer,,null,,,,,,,,,,,,,,,,,,,
4437.099998474121,,recognition_phase,668233,Palo Alto,,52,,,,,new,1,1,,,,,,,,,,,,
null,,confidence_buffer,668334,confidence_buffer,,null,,,,,,,,,,,,,,,,,,,
null,,thebreak,668836,break,,null,,,,,,,,,,,,,,,,,,,
4792.299999237061,,realistic_rating,673629,Las Cruces,,50,Las Cruces,2,,,,,,,,,,,,,,,,,
null,,confidence_buffer,673730,confidence_buffer,,null,,,,,,,,,,,,,,,,,,,
2546.7999992370605,,pt2_unique_rating,676277,Las Cruces,,52,,4,,,,,,,,,,,,,,,,,
null,,confidence_buffer,676379,confidence_buffer,,null,,,,,,,,,,,,,,,,,,,
1973.400001525879,,pt2_memorable_rating,678353,Las Cruces,,50,,2,,,,,,,,,,,,,,,,,
null,,confidence_buffer,678469,confidence_buffer,,null,,,,,,,,,,,,,,,,,,,
3648.900001525879,,recognition_phase,682119,Las Cruces,,52,,,,,new,1,1,,,,,,,,,,,,
null,,confidence_buffer,682221,confidence_buffer,,null,,,,,,,,,,,,,,,,,,,
null,,thebreak,682723,break,,null,,,,,,,,,,,,,,,,,,,
2119.400001525879,,realistic_rating,684843,Concord,,53,Concord,5,,,,,,,,,,,,,,,,,
null,,confidence_buffer,684944,confidence_buffer,,null,,,,,,,,,,,,,,,,,,,
3313.3999977111816,,pt2_unique_rating,688259,Concord,,50,,2,,,,,,,,,,,,,,,,,
null,,confidence_buffer,688360,confidence_buffer,,null,,,,,,,,,,,,,,,,,,,
1348.6000022888184,,pt2_memorable_rating,689710,Concord,,51,,3,,,,,,,,,,,,,,,,,
null,,confidence_buffer,689810,confidence_buffer,,null,,,,,,,,,,,,,,,,,,,
2520.8999977111816,,recognition_phase,692332,Concord,,49,,,,,old,1,1,,,,,,,,,,,,
null,,confidence_buffer,692433,confidence_buffer,,null,,,,,,,,,,,,,,,,,,,
null,,thebreak,692935,break,,null,,,,,,,,,,,,,,,,,,,
2052.7999992370605,,realistic_rating,694989,Champaign,,53,Champaign,5,,,,,,,,,,,,,,,,,
null,,confidence_buffer,695090,confidence_buffer,,null,,,,,,,,,,,,,,,,,,,
1601.2000007629395,,pt2_unique_rating,696692,Champaign,,52,,4,,,,,,,,,,,,,,,,,
null,,confidence_buffer,696793,confidence_buffer,,null,,,,,,,,,,,,,,,,,,,
1291.2999992370605,,pt2_memorable_rating,698085,Champaign,,51,,3,,,,,,,,,,,,,,,,,
null,,confidence_buffer,698187,confidence_buffer,,null,,,,,,,,,,,,,,,,,,,
2873.8999977111816,,recognition_phase,701061,Champaign,,49,,,,,old,1,1,,,,,,,,,,,,
null,,confidence_buffer,701163,confidence_buffer,,null,,,,,,,,,,,,,,,,,,,
null,,thebreak,701664,break,,null,,,,,,,,,,,,,,,,,,,
2132.300003051758,,realistic_rating,703797,Norfolk,,53,Norfolk,5,,,,,,,,,,,,,,,,,
null,,confidence_buffer,703898,confidence_buffer,,null,,,,,,,,,,,,,,,,,,,
2692.2000007629395,,pt2_unique_rating,706591,Norfolk,,52,,4,,,,,,,,,,,,,,,,,
null,,confidence_buffer,706693,confidence_buffer,,null,,,,,,,,,,,,,,,,,,,
1511.7999992370605,,pt2_memorable_rating,708206,Norfolk,,50,,2,,,,,,,,,,,,,,,,,
null,,confidence_buffer,708307,confidence_buffer,,null,,,,,,,,,,,,,,,,,,,
2949.2000007629395,,probe_rating,711258,probe_rating,,51,,,3,1,,,,,,,,,,,,,,,
null,,confidence_buffer,711360,confidence_buffer,,null,,,,,,,,,,,,,,,,,,,
4990.5,,recognition_phase,716351,Norfolk,,52,,,,,new,1,1,,,,,,,,,,,,
null,,confidence_buffer,716453,confidence_buffer,,null,,,,,,,,,,,,,,,,,,,
null,,thebreak,716954,break,,null,,,,,,,,,,,,,,,,,,,
2138.6000022888184,,realistic_rating,719093,Cambridge,,53,Cambridge,5,,,,,,,,,,,,,,,,,
null,,confidence_buffer,719194,confidence_buffer,,null,,,,,,,,,,,,,,,,,,,
2263.099998474121,,pt2_unique_rating,721457,Cambridge,,50,,2,,,,,,,,,,,,,,,,,
null,,confidence_buffer,721559,confidence_buffer,,null,,,,,,,,,,,,,,,,,,,
1821.2999992370605,,pt2_memorable_rating,723381,Cambridge,,50,,2,,,,,,,,,,,,,,,,,
null,,confidence_buffer,723484,confidence_buffer,,null,,,,,,,,,,,,,,,,,,,
3362.7999992370605,,recognition_phase,726849,Cambridge,,49,,,,,old,1,1,,,,,,,,,,,,
null,,confidence_buffer,726951,confidence_buffer,,null,,,,,,,,,,,,,,,,,,,
null,,thebreak,727453,break,,null,,,,,,,,,,,,,,,,,,,
5180.200000762939,,realistic_rating,732634,Stamford,,52,Stamford,4,,,,,,,,,,,,,,,,,
null,,confidence_buffer,732736,confidence_buffer,,null,,,,,,,,,,,,,,,,,,,
2221.2000007629395,,pt2_unique_rating,734957,Stamford,,50,,2,,,,,,,,,,,,,,,,,
null,,confidence_buffer,735060,confidence_buffer,,null,,,,,,,,,,,,,,,,,,,
1995.400001525879,,pt2_memorable_rating,737057,Stamford,,49,,1,,,,,,,,,,,,,,,,,
null,,confidence_buffer,737159,confidence_buffer,,null,,,,,,,,,,,,,,,,,,,
2083.5,,recognition_phase,739244,Stamford,,52,,,,,new,1,1,,,,,,,,,,,,
null,,confidence_buffer,739346,confidence_buffer,,null,,,,,,,,,,,,,,,,,,,
null,,thebreak,739847,break,,null,,,,,,,,,,,,,,,,,,,
1749.5,,realistic_rating,741598,Fargo,,53,Fargo,5,,,,,,,,,,,,,,,,,
null,,confidence_buffer,741699,confidence_buffer,,null,,,,,,,,,,,,,,,,,,,
1699.2999992370605,,pt2_unique_rating,743399,Fargo,,52,,4,,,,,,,,,,,,,,,,,
null,,confidence_buffer,743500,confidence_buffer,,null,,,,,,,,,,,,,,,,,,,
1678.400001525879,,pt2_memorable_rating,745179,Fargo,,52,,4,,,,,,,,,,,,,,,,,
null,,confidence_buffer,745280,confidence_buffer,,null,,,,,,,,,,,,,,,,,,,
1788.099998474121,,recognition_phase,747069,Fargo,,49,,,,,old,1,1,,,,,,,,,,,,
null,,confidence_buffer,747171,confidence_buffer,,null,,,,,,,,,,,,,,,,,,,
null,,thebreak,747672,break,,null,,,,,,,,,,,,,,,,,,,
5757.899997711182,,realistic_rating,753430,Athens,,53,Athens,5,,,,,,,,,,,,,,,,,
null,,confidence_buffer,753531,confidence_buffer,,null,,,,,,,,,,,,,,,,,,,
5631.600002288818,,pt2_unique_rating,759164,Athens,,51,,3,,,,,,,,,,,,,,,,,
null,,confidence_buffer,759265,confidence_buffer,,null,,,,,,,,,,,,,,,,,,,
2620.2000007629395,,pt2_memorable_rating,761887,Athens,,51,,3,,,,,,,,,,,,,,,,,
null,,confidence_buffer,761988,confidence_buffer,,null,,,,,,,,,,,,,,,,,,,
2938.7000007629395,,probe_rating,764928,probe_rating,,52,,,4,1,,,,,,,,,,,,,,,
null,,confidence_buffer,765029,confidence_buffer,,null,,,,,,,,,,,,,,,,,,,
1795.2000007629395,,recognition_phase,766825,Athens,,49,,,,,old,1,1,,,,,,,,,,,,
null,,confidence_buffer,766928,confidence_buffer,,null,,,,,,,,,,,,,,,,,,,
null,,thebreak,767430,break,,null,,,,,,,,,,,,,,,,,,,
2087.1000022888184,,realistic_rating,769518,Ann Arbor,,53,Ann Arbor,5,,,,,,,,,,,,,,,,,
null,,confidence_buffer,769619,confidence_buffer,,null,,,,,,,,,,,,,,,,,,,
2843.099998474121,,pt2_unique_rating,772463,Ann Arbor,,53,,5,,,,,,,,,,,,,,,,,
null,,confidence_buffer,772564,confidence_buffer,,null,,,,,,,,,,,,,,,,,,,
1757.400001525879,,pt2_memorable_rating,774323,Ann Arbor,,52,,4,,,,,,,,,,,,,,,,,
null,,confidence_buffer,774424,confidence_buffer,,null,,,,,,,,,,,,,,,,,,,
2776.2000007629395,,recognition_phase,777201,Ann Arbor,,49,,,,,old,0,0.9333333333333333,,,,,,,,,,,,
null,,confidence_buffer,777302,confidence_buffer,,null,,,,,,,,,,,,,,,,,,,
null,,thebreak,777804,break,,null,,,,,,,,,,,,,,,,,,,
10855.400001525879,,realistic_rating,788660,Peoria,,53,Peoria,5,,,,,,,,,,,,,,,,,
null,,confidence_buffer,788761,confidence_buffer,,null,,,,,,,,,,,,,,,,,,,
3114,,pt2_unique_rating,791876,Peoria,,52,,4,,,,,,,,,,,,,,,,,
null,,confidence_buffer,791978,confidence_buffer,,null,,,,,,,,,,,,,,,,,,,
2174,,pt2_memorable_rating,794153,Peoria,,52,,4,,,,,,,,,,,,,,,,,
null,,confidence_buffer,794254,confidence_buffer,,null,,,,,,,,,,,,,,,,,,,
3689,,recognition_phase,797944,Peoria,,49,,,,,old,1,0.9375,,,,,,,,,,,,
null,,confidence_buffer,798044,confidence_buffer,,null,,,,,,,,,,,,,,,,,,,
null,,thebreak,798547,break,,null,,,,,,,,,,,,,,,,,,,
4686.299999237061,,realistic_rating,803234,Newport News,,52,Newport News,4,,,,,,,,,,,,,,,,,
null,,confidence_buffer,803335,confidence_buffer,,null,,,,,,,,,,,,,,,,,,,
3090.7000007629395,,pt2_unique_rating,806427,Newport News,,52,,4,,,,,,,,,,,,,,,,,
null,,confidence_buffer,806528,confidence_buffer,,null,,,,,,,,,,,,,,,,,,,
1818.5,,pt2_memorable_rating,808348,Newport News,,51,,3,,,,,,,,,,,,,,,,,
null,,confidence_buffer,808450,confidence_buffer,,null,,,,,,,,,,,,,,,,,,,
2346.900001525879,,probe_rating,810797,probe_rating,,49,,,1,1,,,,,,,,,,,,,,,
null,,confidence_buffer,810899,confidence_buffer,,null,,,,,,,,,,,,,,,,,,,
3576,,recognition_phase,814476,Newport News,,52,,,,,new,1,0.9411764705882353,,,,,,,,,,,,
null,,confidence_buffer,814588,confidence_buffer,,null,,,,,,,,,,,,,,,,,,,
null,,thebreak,815089,break,,null,,,,,,,,,,,,,,,,,,,
3302.900001525879,,realistic_rating,818393,Pueblo,,53,Pueblo,5,,,,,,,,,,,,,,,,,
null,,confidence_buffer,818504,confidence_buffer,,null,,,,,,,,,,,,,,,,,,,
2373.5,,pt2_unique_rating,820879,Pueblo,,50,,2,,,,,,,,,,,,,,,,,
null,,confidence_buffer,820991,confidence_buffer,,null,,,,,,,,,,,,,,,,,,,
1441.6000022888184,,pt2_memorable_rating,822434,Pueblo,,50,,2,,,,,,,,,,,,,,,,,
null,,confidence_buffer,822535,confidence_buffer,,null,,,,,,,,,,,,,,,,,,,
3378.2000007629395,,recognition_phase,825914,Pueblo,,52,,,,,new,1,0.9444444444444444,,,,,,,,,,,,
null,,confidence_buffer,826015,confidence_buffer,,null,,,,,,,,,,,,,,,,,,,
null,,thebreak,826517,break,,null,,,,,,,,,,,,,,,,,,,
1499.1000022888184,,realistic_rating,828017,Ithaca,,53,Ithaca,5,,,,,,,,,,,,,,,,,
null,,confidence_buffer,828119,confidence_buffer,,null,,,,,,,,,,,,,,,,,,,
1317.400001525879,,pt2_unique_rating,829437,Ithaca,,53,,5,,,,,,,,,,,,,,,,,
null,,confidence_buffer,829539,confidence_buffer,,null,,,,,,,,,,,,,,,,,,,
1519.900001525879,,pt2_memorable_rating,831060,Ithaca,,51,,3,,,,,,,,,,,,,,,,,
null,,confidence_buffer,831162,confidence_buffer,,null,,,,,,,,,,,,,,,,,,,
1734.7000007629395,,recognition_phase,832898,Ithaca,,49,,,,,old,1,0.9473684210526315,,,,,,,,,,,,
null,,confidence_buffer,832999,confidence_buffer,,null,,,,,,,,,,,,,,,,,,,
null,,thebreak,833500,break,,null,,,,,,,,,,,,,,,,,,,
1889.900001525879,,realistic_rating,835391,Altoona,,53,Altoona,5,,,,,,,,,,,,,,,,,
null,,confidence_buffer,835493,confidence_buffer,,null,,,,,,,,,,,,,,,,,,,
1877,,pt2_unique_rating,837371,Altoona,,53,,5,,,,,,,,,,,,,,,,,
null,,confidence_buffer,837473,confidence_buffer,,null,,,,,,,,,,,,,,,,,,,
1199.599998474121,,pt2_memorable_rating,838673,Altoona,,53,,5,,,,,,,,,,,,,,,,,
null,,confidence_buffer,838776,confidence_buffer,,null,,,,,,,,,,,,,,,,,,,
1574.1000022888184,,probe_rating,840351,probe_rating,,49,,,1,1,,,,,,,,,,,,,,,
null,,confidence_buffer,840452,confidence_buffer,,null,,,,,,,,,,,,,,,,,,,
4370.900001525879,,recognition_phase,844824,Altoona,,52,,,,,new,1,0.95,,,,,,,,,,,,
null,,confidence_buffer,844926,confidence_buffer,,null,,,,,,,,,,,,,,,,,,,
null,,thebreak,845428,break,,null,,,,,,,,,,,,,,,,,,,
5699.200000762939,,realistic_rating,851128,Dothan,,50,Dothan,2,,,,,,,,,,,,,,,,,
null,,confidence_buffer,851230,confidence_buffer,,null,,,,,,,,,,,,,,,,,,,
2589.900001525879,,pt2_unique_rating,853821,Dothan,,51,,3,,,,,,,,,,,,,,,,,
null,,confidence_buffer,853923,confidence_buffer,,null,,,,,,,,,,,,,,,,,,,
1888.6999969482422,,pt2_memorable_rating,855813,Dothan,,50,,2,,,,,,,,,,,,,,,,,
null,,confidence_buffer,855915,confidence_buffer,,null,,,,,,,,,,,,,,,,,,,
3151.800003051758,,recognition_phase,859067,Dothan,,52,,,,,new,1,0.9523809523809523,,,,,,,,,,,,
null,,confidence_buffer,859168,confidence_buffer,,null,,,,,,,,,,,,,,,,,,,
null,,thebreak,859670,break,,null,,,,,,,,,,,,,,,,,,,
4193.599998474121,,realistic_rating,863865,Bozeman,,51,Bozeman,3,,,,,,,,,,,,,,,,,
null,,confidence_buffer,863967,confidence_buffer,,null,,,,,,,,,,,,,,,,,,,
2592.2000007629395,,pt2_unique_rating,866560,Bozeman,,53,,5,,,,,,,,,,,,,,,,,
null,,confidence_buffer,866662,confidence_buffer,,null,,,,,,,,,,,,,,,,,,,
1503.2999992370605,,pt2_memorable_rating,868167,Bozeman,,52,,4,,,,,,,,,,,,,,,,,
null,,confidence_buffer,868268,confidence_buffer,,null,,,,,,,,,,,,,,,,,,,
2068,,recognition_phase,870337,Bozeman,,49,,,,,old,1,0.9545454545454546,,,,,,,,,,,,
null,,confidence_buffer,870438,confidence_buffer,,null,,,,,,,,,,,,,,,,,,,
null,,thebreak,870939,break,,null,,,,,,,,,,,,,,,,,,,
3019.5,,realistic_rating,873960,Rock Springs,,53,Rock Springs,5,,,,,,,,,,,,,,,,,
null,,confidence_buffer,874062,confidence_buffer,,null,,,,,,,,,,,,,,,,,,,
5428.899997711182,,pt2_unique_rating,879492,Rock Springs,,51,,3,,,,,,,,,,,,,,,,,
null,,confidence_buffer,879593,confidence_buffer,,null,,,,,,,,,,,,,,,,,,,
1494.6000022888184,,pt2_memorable_rating,881088,Rock Springs,,51,,3,,,,,,,,,,,,,,,,,
null,,confidence_buffer,881191,confidence_buffer,,null,,,,,,,,,,,,,,,,,,,
5239.400001525879,,recognition_phase,886431,Rock Springs,,49,,,,,old,1,0.9565217391304348,,,,,,,,,,,,
null,,confidence_buffer,886532,confidence_buffer,,null,,,,,,,,,,,,,,,,,,,
null,,thebreak,887034,break,,null,,,,,,,,,,,,,,,,,,,
3309.400001525879,,realistic_rating,890345,Olympia,,53,Olympia,5,,,,,,,,,,,,,,,,,
null,,confidence_buffer,890456,confidence_buffer,,null,,,,,,,,,,,,,,,,,,,
2144.099998474121,,pt2_unique_rating,892602,Olympia,,52,,4,,,,,,,,,,,,,,,,,
null,,confidence_buffer,892702,confidence_buffer,,null,,,,,,,,,,,,,,,,,,,
1272.7999992370605,,pt2_memorable_rating,893976,Olympia,,52,,4,,,,,,,,,,,,,,,,,
null,,confidence_buffer,894077,confidence_buffer,,null,,,,,,,,,,,,,,,,,,,
4078.400001525879,,recognition_phase,898157,Olympia,,52,,,,,new,1,0.9583333333333334,,,,,,,,,,,,
null,,confidence_buffer,898258,confidence_buffer,,null,,,,,,,,,,,,,,,,,,,
null,,thebreak,898759,break,,null,,,,,,,,,,,,,,,,,,,
2188.2000007629395,,realistic_rating,900948,Marquette,,53,Marquette,5,,,,,,,,,,,,,,,,,
null,,confidence_buffer,901049,confidence_buffer,,null,,,,,,,,,,,,,,,,,,,
1277.6000022888184,,pt2_unique_rating,902328,Marquette,,51,,3,,,,,,,,,,,,,,,,,
null,,confidence_buffer,902430,confidence_buffer,,null,,,,,,,,,,,,,,,,,,,
1194.2999992370605,,pt2_memorable_rating,903625,Marquette,,50,,2,,,,,,,,,,,,,,,,,
null,,confidence_buffer,903727,confidence_buffer,,null,,,,,,,,,,,,,,,,,,,
2216,,recognition_phase,905944,Marquette,,49,,,,,old,1,0.96,,,,,,,,,,,,
null,,confidence_buffer,906295,confidence_buffer,,null,,,,,,,,,,,,,,,,,,,
null,,thebreak,906796,break,,null,,,,,,,,,,,,,,,,,,,
4782.200000762939,,realistic_rating,911579,Terre Haute,,53,Terre Haute,5,,,,,,,,,,,,,,,,,
null,,confidence_buffer,911680,confidence_buffer,,null,,,,,,,,,,,,,,,,,,,
4151.5,,pt2_unique_rating,915833,Terre Haute,,52,,4,,,,,,,,,,,,,,,,,
null,,confidence_buffer,915934,confidence_buffer,,null,,,,,,,,,,,,,,,,,,,
1805.099998474121,,probe_rating,917740,probe_rating,,53,,,5,1,,,,,,,,,,,,,,,
null,,confidence_buffer,917842,confidence_buffer,,null,,,,,,,,,,,,,,,,,,,
4319.400001525879,,pt2_memorable_rating,923369,Terre Haute,,51,,3,,,,,,,,,,,,,,,,,
null,,confidence_buffer,923470,confidence_buffer,,null,,,,,,,,,,,,,,,,,,,
3702.1000022888184,,recognition_phase,927173,Terre Haute,,49,,,,,old,1,0.9615384615384616,,,,,,,,,,,,
null,,confidence_buffer,927275,confidence_buffer,,null,,,,,,,,,,,,,,,,,,,
null,,thebreak,927776,break,,null,,,,,,,,,,,,,,,,,,,
4438.800003051758,,realistic_rating,932216,Youngstown,,53,Youngstown,5,,,,,,,,,,,,,,,,,
null,,confidence_buffer,932317,confidence_buffer,,null,,,,,,,,,,,,,,,,,,,
1763.7999992370605,,pt2_unique_rating,934082,Youngstown,,51,,3,,,,,,,,,,,,,,,,,
null,,confidence_buffer,934183,confidence_buffer,,null,,,,,,,,,,,,,,,,,,,
1171.1999969482422,,pt2_memorable_rating,935356,Youngstown,,50,,2,,,,,,,,,,,,,,,,,
null,,confidence_buffer,935456,confidence_buffer,,null,,,,,,,,,,,,,,,,,,,
1806.400001525879,,recognition_phase,937264,Youngstown,,49,,,,,old,1,0.9629629629629629,,,,,,,,,,,,
null,,confidence_buffer,937365,confidence_buffer,,null,,,,,,,,,,,,,,,,,,,
null,,thebreak,937867,break,,null,,,,,,,,,,,,,,,,,,,
1427.599998474121,,realistic_rating,939295,Decatur,,53,Decatur,5,,,,,,,,,,,,,,,,,
null,,confidence_buffer,939396,confidence_buffer,,null,,,,,,,,,,,,,,,,,,,
2040.3999977111816,,pt2_unique_rating,941437,Decatur,,53,,5,,,,,,,,,,,,,,,,,
null,,confidence_buffer,941538,confidence_buffer,,null,,,,,,,,,,,,,,,,,,,
2182.2000007629395,,pt2_memorable_rating,943721,Decatur,,52,,4,,,,,,,,,,,,,,,,,
null,,confidence_buffer,943824,confidence_buffer,,null,,,,,,,,,,,,,,,,,,,
2284.900001525879,,recognition_phase,946110,Decatur,,49,,,,,old,1,0.9642857142857143,,,,,,,,,,,,
null,,confidence_buffer,946212,confidence_buffer,,null,,,,,,,,,,,,,,,,,,,
null,,thebreak,946713,break,,null,,,,,,,,,,,,,,,,,,,
2221.2000007629395,,realistic_rating,948935,Santa Monica,,53,Santa Monica,5,,,,,,,,,,,,,,,,,
null,,confidence_buffer,949038,confidence_buffer,,null,,,,,,,,,,,,,,,,,,,
2088.2000007629395,,pt2_unique_rating,951127,Santa Monica,,50,,2,,,,,,,,,,,,,,,,,
null,,confidence_buffer,951228,confidence_buffer,,null,,,,,,,,,,,,,,,,,,,
1470.5,,pt2_memorable_rating,952699,Santa Monica,,51,,3,,,,,,,,,,,,,,,,,
null,,confidence_buffer,952801,confidence_buffer,,null,,,,,,,,,,,,,,,,,,,
2599,,recognition_phase,955401,Santa Monica,,52,,,,,new,1,0.9655172413793104,,,,,,,,,,,,
null,,confidence_buffer,955502,confidence_buffer,,null,,,,,,,,,,,,,,,,,,,
null,,thebreak,956004,break,,null,,,,,,,,,,,,,,,,,,,
4852.900001525879,,realistic_rating,960857,McKinney,,51,McKinney,3,,,,,,,,,,,,,,,,,
null,,confidence_buffer,960959,confidence_buffer,,null,,,,,,,,,,,,,,,,,,,
2559.3999977111816,,pt2_unique_rating,963519,McKinney,,51,,3,,,,,,,,,,,,,,,,,
null,,confidence_buffer,963621,confidence_buffer,,null,,,,,,,,,,,,,,,,,,,
2500.099998474121,,pt2_memorable_rating,966122,McKinney,,50,,2,,,,,,,,,,,,,,,,,
null,,confidence_buffer,966224,confidence_buffer,,null,,,,,,,,,,,,,,,,,,,
1651.7999992370605,,recognition_phase,967877,McKinney,,52,,,,,new,1,0.9666666666666667,,,,,,,,,,,,
null,,confidence_buffer,967978,confidence_buffer,,null,,,,,,,,,,,,,,,,,,,
null,,thebreak,968480,break,,null,,,,,,,,,,,,,,,,,,,
2080.2999992370605,,realistic_rating,970561,Fort Collins,,52,Fort Collins,4,,,,,,,,,,,,,,,,,
null,,confidence_buffer,970662,confidence_buffer,,null,,,,,,,,,,,,,,,,,,,
2115,,pt2_unique_rating,972779,Fort Collins,,50,,2,,,,,,,,,,,,,,,,,
null,,confidence_buffer,972880,confidence_buffer,,null,,,,,,,,,,,,,,,,,,,
1474.2000007629395,,pt2_memorable_rating,974356,Fort Collins,,51,,3,,,,,,,,,,,,,,,,,
null,,confidence_buffer,974457,confidence_buffer,,null,,,,,,,,,,,,,,,,,,,
1269.2999992370605,,recognition_phase,975728,Fort Collins,,52,,,,,new,1,0.967741935483871,,,,,,,,,,,,
null,,confidence_buffer,975829,confidence_buffer,,null,,,,,,,,,,,,,,,,,,,
null,,thebreak,976331,break,,null,,,,,,,,,,,,,,,,,,,
3600.5,,realistic_rating,979932,Scottsdale,,53,Scottsdale,5,,,,,,,,,,,,,,,,,
null,,confidence_buffer,980034,confidence_buffer,,null,,,,,,,,,,,,,,,,,,,
1170,,pt2_unique_rating,981205,Scottsdale,,50,,2,,,,,,,,,,,,,,,,,
null,,confidence_buffer,981306,confidence_buffer,,null,,,,,,,,,,,,,,,,,,,
1965,,pt2_memorable_rating,983272,Scottsdale,,51,,3,,,,,,,,,,,,,,,,,
null,,confidence_buffer,983374,confidence_buffer,,null,,,,,,,,,,,,,,,,,,,
2115.2000007629395,,recognition_phase,985491,Scottsdale,,49,,,,,old,1,0.96875,,,,,,,,,,,,
null,,confidence_buffer,985592,confidence_buffer,,null,,,,,,,,,,,,,,,,,,,
null,,thebreak,986095,break,,null,,,,,,,,,,,,,,,,,,,
1830.8000030517578,,realistic_rating,987928,Topeka,,53,Topeka,5,,,,,,,,,,,,,,,,,
null,,confidence_buffer,988028,confidence_buffer,,null,,,,,,,,,,,,,,,,,,,
1857.2000007629395,,pt2_unique_rating,989886,Topeka,,52,,4,,,,,,,,,,,,,,,,,
null,,confidence_buffer,989989,confidence_buffer,,null,,,,,,,,,,,,,,,,,,,
2434.5,,pt2_memorable_rating,992424,Topeka,,52,,4,,,,,,,,,,,,,,,,,
null,,confidence_buffer,992526,confidence_buffer,,null,,,,,,,,,,,,,,,,,,,
2013.900001525879,,recognition_phase,994541,Topeka,,49,,,,,old,1,0.9696969696969697,,,,,,,,,,,,
null,,confidence_buffer,994644,confidence_buffer,,null,,,,,,,,,,,,,,,,,,,
null,,thebreak,995145,break,,null,,,,,,,,,,,,,,,,,,,
3227.7999992370605,,realistic_rating,998374,Salem,,53,Salem,5,,,,,,,,,,,,,,,,,
null,,confidence_buffer,998476,confidence_buffer,,null,,,,,,,,,,,,,,,,,,,
3039.2999992370605,,pt2_unique_rating,1001516,Salem,,49,,1,,,,,,,,,,,,,,,,,
null,,confidence_buffer,1001618,confidence_buffer,,null,,,,,,,,,,,,,,,,,,,
2443.599998474121,,pt2_memorable_rating,1004062,Salem,,49,,1,,,,,,,,,,,,,,,,,
null,,confidence_buffer,1004163,confidence_buffer,,null,,,,,,,,,,,,,,,,,,,
1579.7000007629395,,recognition_phase,1005744,Salem,,52,,,,,new,1,0.9705882352941176,,,,,,,,,,,,
null,,confidence_buffer,1005845,confidence_buffer,,null,,,,,,,,,,,,,,,,,,,
null,,thebreak,1006347,break,,null,,,,,,,,,,,,,,,,,,,
5388.600002288818,,realistic_rating,1011736,Dover,,53,Dover,5,,,,,,,,,,,,,,,,,
null,,confidence_buffer,1011838,confidence_buffer,,null,,,,,,,,,,,,,,,,,,,
1253.6000022888184,,pt2_unique_rating,1013092,Dover,,50,,2,,,,,,,,,,,,,,,,,
null,,confidence_buffer,1013194,confidence_buffer,,null,,,,,,,,,,,,,,,,,,,
1373.7999992370605,,pt2_memorable_rating,1014569,Dover,,50,,2,,,,,,,,,,,,,,,,,
null,,confidence_buffer,1014672,confidence_buffer,,null,,,,,,,,,,,,,,,,,,,
2104.3999977111816,,recognition_phase,1016778,Dover,,49,,,,,old,1,0.9714285714285714,,,,,,,,,,,,
null,,confidence_buffer,1016879,confidence_buffer,,null,,,,,,,,,,,,,,,,,,,
null,,thebreak,1017381,break,,null,,,,,,,,,,,,,,,,,,,
3503.099998474121,,realistic_rating,1020885,Bellingham,,52,Bellingham,4,,,,,,,,,,,,,,,,,
null,,confidence_buffer,1020985,confidence_buffer,,null,,,,,,,,,,,,,,,,,,,
2101,,pt2_unique_rating,1023087,Bellingham,,52,,4,,,,,,,,,,,,,,,,,
null,,confidence_buffer,1023189,confidence_buffer,,null,,,,,,,,,,,,,,,,,,,
1635.400001525879,,probe_rating,1024825,probe_rating,,50,,,2,1,,,,,,,,,,,,,,,
null,,confidence_buffer,1024926,confidence_buffer,,null,,,,,,,,,,,,,,,,,,,
4303.900001525879,,pt2_memorable_rating,1029231,Bellingham,,50,,2,,,,,,,,,,,,,,,,,
null,,confidence_buffer,1029333,confidence_buffer,,null,,,,,,,,,,,,,,,,,,,
2466.5,,recognition_phase,1031800,Bellingham,,52,,,,,new,1,0.9722222222222222,,,,,,,,,,,,
null,,confidence_buffer,1031902,confidence_buffer,,null,,,,,,,,,,,,,,,,,,,
null,,thebreak,1032404,break,,null,,,,,,,,,,,,,,,,,,,
2602.6000022888184,,realistic_rating,1035007,New Haven,,53,New Haven,5,,,,,,,,,,,,,,,,,
null,,confidence_buffer,1035109,confidence_buffer,,null,,,,,,,,,,,,,,,,,,,
4378.899997711182,,pt2_unique_rating,1039489,New Haven,,51,,3,,,,,,,,,,,,,,,,,
null,,confidence_buffer,1039591,confidence_buffer,,null,,,,,,,,,,,,,,,,,,,
1472.3999977111816,,pt2_memorable_rating,1041064,New Haven,,50,,2,,,,,,,,,,,,,,,,,
null,,confidence_buffer,1041165,confidence_buffer,,null,,,,,,,,,,,,,,,,,,,
6728.400001525879,,recognition_phase,1047895,New Haven,,49,,,,,old,1,0.972972972972973,,,,,,,,,,,,
null,,confidence_buffer,1047996,confidence_buffer,,null,,,,,,,,,,,,,,,,,,,
null,,thebreak,1048497,break,,null,,,,,,,,,,,,,,,,,,,
11362.79999923706,,realistic_rating,1059860,Hagerstown,,52,Hagerstown,4,,,,,,,,,,,,,,,,,
null,,confidence_buffer,1059962,confidence_buffer,,null,,,,,,,,,,,,,,,,,,,
1495.7999992370605,,pt2_unique_rating,1061458,Hagerstown,,53,,5,,,,,,,,,,,,,,,,,
null,,confidence_buffer,1061559,confidence_buffer,,null,,,,,,,,,,,,,,,,,,,
2461.2999992370605,,probe_rating,1064022,probe_rating,,52,,,4,1,,,,,,,,,,,,,,,
null,,confidence_buffer,1064124,confidence_buffer,,null,,,,,,,,,,,,,,,,,,,
2862.599998474121,,pt2_memorable_rating,1066987,Hagerstown,,53,,5,,,,,,,,,,,,,,,,,
null,,confidence_buffer,1067090,confidence_buffer,,null,,,,,,,,,,,,,,,,,,,
1917.5,,recognition_phase,1069009,Hagerstown,,49,,,,,old,1,0.9736842105263158,,,,,,,,,,,,
null,,confidence_buffer,1069111,confidence_buffer,,null,,,,,,,,,,,,,,,,,,,
null,,thebreak,1069611,break,,null,,,,,,,,,,,,,,,,,,,
2283.2000007629395,,realistic_rating,1071895,Frankfort,,53,Frankfort,5,,,,,,,,,,,,,,,,,
null,,confidence_buffer,1071997,confidence_buffer,,null,,,,,,,,,,,,,,,,,,,
1155.7000007629395,,pt2_unique_rating,1073153,Frankfort,,49,,1,,,,,,,,,,,,,,,,,
null,,confidence_buffer,1073255,confidence_buffer,,null,,,,,,,,,,,,,,,,,,,
2245.099998474121,,pt2_memorable_rating,1075501,Frankfort,,50,,2,,,,,,,,,,,,,,,,,
null,,confidence_buffer,1075603,confidence_buffer,,null,,,,,,,,,,,,,,,,,,,
2628,,recognition_phase,1078232,Frankfort,,52,,,,,new,1,0.9743589743589743,,,,,,,,,,,,
null,,confidence_buffer,1078333,confidence_buffer,,null,,,,,,,,,,,,,,,,,,,
null,,thebreak,1078835,break,,null,,,,,,,,,,,,,,,,,,,
3247.5,,realistic_rating,1082083,Pasadena,,53,Pasadena,5,,,,,,,,,,,,,,,,,
null,,confidence_buffer,1082185,confidence_buffer,,null,,,,,,,,,,,,,,,,,,,
1571.099998474121,,pt2_unique_rating,1083757,Pasadena,,52,,4,,,,,,,,,,,,,,,,,
null,,confidence_buffer,1083858,confidence_buffer,,null,,,,,,,,,,,,,,,,,,,
2739.699996948242,,pt2_memorable_rating,1086599,Pasadena,,51,,3,,,,,,,,,,,,,,,,,
null,,confidence_buffer,1086713,confidence_buffer,,null,,,,,,,,,,,,,,,,,,,
15020.099998474121,,recognition_phase,1101734,Pasadena,,51,,,,,new,1,0.975,,,,,,,,,,,,
null,,confidence_buffer,1101837,confidence_buffer,,null,,,,,,,,,,,,,,,,,,,
null,,thebreak,1102337,break,,null,,,,,,,,,,,,,,,,,,,
5170.899997711182,,realistic_rating,1107509,Abilene,,53,Abilene,5,,,,,,,,,,,,,,,,,
null,,confidence_buffer,1107611,confidence_buffer,,null,,,,,,,,,,,,,,,,,,,
4037.7000007629395,,pt2_unique_rating,1111650,Abilene,,52,,4,,,,,,,,,,,,,,,,,
null,,confidence_buffer,1111751,confidence_buffer,,null,,,,,,,,,,,,,,,,,,,
1813,,pt2_memorable_rating,1113566,Abilene,,50,,2,,,,,,,,,,,,,,,,,
null,,confidence_buffer,1113667,confidence_buffer,,null,,,,,,,,,,,,,,,,,,,
2654.400001525879,,recognition_phase,1116322,Abilene,,52,,,,,new,1,0.975609756097561,,,,,,,,,,,,
null,,confidence_buffer,1116424,confidence_buffer,,null,,,,,,,,,,,,,,,,,,,
null,,thebreak,1116925,break,,null,,,,,,,,,,,,,,,,,,,
1664.7000007629395,,realistic_rating,1118591,Carson City,,53,Carson City,5,,,,,,,,,,,,,,,,,
null,,confidence_buffer,1118692,confidence_buffer,,null,,,,,,,,,,,,,,,,,,,
2353.3999977111816,,pt2_unique_rating,1121046,Carson City,,49,,1,,,,,,,,,,,,,,,,,
null,,confidence_buffer,1121148,confidence_buffer,,null,,,,,,,,,,,,,,,,,,,
1423.7000007629395,,pt2_memorable_rating,1122572,Carson City,,49,,1,,,,,,,,,,,,,,,,,
null,,confidence_buffer,1122674,confidence_buffer,,null,,,,,,,,,,,,,,,,,,,
4305.600002288818,,recognition_phase,1126981,Carson City,,52,,,,,new,1,0.9761904761904762,,,,,,,,,,,,
null,,confidence_buffer,1127088,confidence_buffer,,null,,,,,,,,,,,,,,,,,,,
null,,thebreak,1127589,break,,null,,,,,,,,,,,,,,,,,,,
1605.2999992370605,,realistic_rating,1129195,Cheyenne,,53,Cheyenne,5,,,,,,,,,,,,,,,,,
null,,confidence_buffer,1129296,confidence_buffer,,null,,,,,,,,,,,,,,,,,,,
1273.7999992370605,,pt2_unique_rating,1130571,Cheyenne,,49,,1,,,,,,,,,,,,,,,,,
null,,confidence_buffer,1130673,confidence_buffer,,null,,,,,,,,,,,,,,,,,,,
1445.7000007629395,,pt2_memorable_rating,1132120,Cheyenne,,50,,2,,,,,,,,,,,,,,,,,
null,,confidence_buffer,1132222,confidence_buffer,,null,,,,,,,,,,,,,,,,,,,
1930,,recognition_phase,1134153,Cheyenne,,52,,,,,new,1,0.9767441860465116,,,,,,,,,,,,
null,,confidence_buffer,1134255,confidence_buffer,,null,,,,,,,,,,,,,,,,,,,
null,,thebreak,1134756,break,,null,,,,,,,,,,,,,,,,,,,
3012,,realistic_rating,1137769,Montpelier,,53,Montpelier,5,,,,,,,,,,,,,,,,,
null,,confidence_buffer,1137870,confidence_buffer,,null,,,,,,,,,,,,,,,,,,,
2128.1000022888184,,pt2_unique_rating,1139999,Montpelier,,51,,3,,,,,,,,,,,,,,,,,
null,,confidence_buffer,1140101,confidence_buffer,,null,,,,,,,,,,,,,,,,,,,
1553.3999977111816,,pt2_memorable_rating,1141656,Montpelier,,51,,3,,,,,,,,,,,,,,,,,
null,,confidence_buffer,1141757,confidence_buffer,,null,,,,,,,,,,,,,,,,,,,
8880.699996948242,,recognition_phase,1150639,Montpelier,,52,,,,,new,1,0.9772727272727273,,,,,,,,,,,,
null,,confidence_buffer,1150741,confidence_buffer,,null,,,,,,,,,,,,,,,,,,,
null,,thebreak,1151242,break,,null,,,,,,,,,,,,,,,,,,,
2916.400001525879,,realistic_rating,1154159,Fort Wayne,,53,Fort Wayne,5,,,,,,,,,,,,,,,,,
null,,confidence_buffer,1154261,confidence_buffer,,null,,,,,,,,,,,,,,,,,,,
1142.2999992370605,,pt2_unique_rating,1155404,Fort Wayne,,49,,1,,,,,,,,,,,,,,,,,
null,,confidence_buffer,1155505,confidence_buffer,,null,,,,,,,,,,,,,,,,,,,
1026.2000007629395,,pt2_memorable_rating,1156533,Fort Wayne,,49,,1,,,,,,,,,,,,,,,,,
null,,confidence_buffer,1156635,confidence_buffer,,null,,,,,,,,,,,,,,,,,,,
1922.599998474121,,recognition_phase,1158559,Fort Wayne,,52,,,,,new,1,0.9777777777777777,,,,,,,,,,,,
null,,confidence_buffer,1158660,confidence_buffer,,null,,,,,,,,,,,,,,,,,,,
null,,thebreak,1159161,break,,null,,,,,,,,,,,,,,,,,,,
1967.599998474121,,realistic_rating,1161129,Yakima,,52,Yakima,4,,,,,,,,,,,,,,,,,
null,,confidence_buffer,1161231,confidence_buffer,,null,,,,,,,,,,,,,,,,,,,
2040.7000007629395,,pt2_unique_rating,1163272,Yakima,,52,,4,,,,,,,,,,,,,,,,,
null,,confidence_buffer,1163374,confidence_buffer,,null,,,,,,,,,,,,,,,,,,,
1735,,pt2_memorable_rating,1165111,Yakima,,52,,4,,,,,,,,,,,,,,,,,
null,,confidence_buffer,1165213,confidence_buffer,,null,,,,,,,,,,,,,,,,,,,
3787,,recognition_phase,1169000,Yakima,,52,,,,,new,1,0.9782608695652174,,,,,,,,,,,,
null,,confidence_buffer,1169101,confidence_buffer,,null,,,,,,,,,,,,,,,,,,,
null,,thebreak,1169603,break,,null,,,,,,,,,,,,,,,,,,,
2120.6000022888184,,realistic_rating,1171724,Toledo,,53,Toledo,5,,,,,,,,,,,,,,,,,
null,,confidence_buffer,1171826,confidence_buffer,,null,,,,,,,,,,,,,,,,,,,
2201.5,,pt2_unique_rating,1174029,Toledo,,51,,3,,,,,,,,,,,,,,,,,
null,,confidence_buffer,1174131,confidence_buffer,,null,,,,,,,,,,,,,,,,,,,
1151.6000022888184,,pt2_memorable_rating,1175284,Toledo,,51,,3,,,,,,,,,,,,,,,,,
null,,confidence_buffer,1175386,confidence_buffer,,null,,,,,,,,,,,,,,,,,,,
17115.29999923706,,recognition_phase,1192502,Toledo,,50,,,,,old,0,0.9574468085106383,,,,,,,,,,,,
null,,confidence_buffer,1192603,confidence_buffer,,null,,,,,,,,,,,,,,,,,,,
null,,thebreak,1193105,break,,null,,,,,,,,,,,,,,,,,,,
2558.8999977111816,,realistic_rating,1195664,Syracuse,,53,Syracuse,5,,,,,,,,,,,,,,,,,
null,,confidence_buffer,1195766,confidence_buffer,,null,,,,,,,,,,,,,,,,,,,
1285.2000007629395,,pt2_unique_rating,1197051,Syracuse,,53,,5,,,,,,,,,,,,,,,,,
null,,confidence_buffer,1197153,confidence_buffer,,null,,,,,,,,,,,,,,,,,,,
1389.2999992370605,,pt2_memorable_rating,1198543,Syracuse,,53,,5,,,,,,,,,,,,,,,,,
null,,confidence_buffer,1198645,confidence_buffer,,null,,,,,,,,,,,,,,,,,,,
2048.7999992370605,,recognition_phase,1200695,Syracuse,,49,,,,,old,1,0.9583333333333334,,,,,,,,,,,,
null,,confidence_buffer,1200796,confidence_buffer,,null,,,,,,,,,,,,,,,,,,,
null,,thebreak,1201297,break,,null,,,,,,,,,,,,,,,,,,,
3893.2000007629395,,realistic_rating,1205191,Tallahassee,,53,Tallahassee,5,,,,,,,,,,,,,,,,,
null,,confidence_buffer,1205292,confidence_buffer,,null,,,,,,,,,,,,,,,,,,,
1339.1000022888184,,pt2_unique_rating,1206632,Tallahassee,,52,,4,,,,,,,,,,,,,,,,,
null,,confidence_buffer,1206734,confidence_buffer,,null,,,,,,,,,,,,,,,,,,,
1408,,pt2_memorable_rating,1208143,Tallahassee,,52,,4,,,,,,,,,,,,,,,,,
null,,confidence_buffer,1208244,confidence_buffer,,null,,,,,,,,,,,,,,,,,,,
1355.099998474121,,recognition_phase,1209600,Tallahassee,,49,,,,,old,1,0.9591836734693877,,,,,,,,,,,,
null,,confidence_buffer,1209701,confidence_buffer,,null,,,,,,,,,,,,,,,,,,,
null,,thebreak,1210203,break,,null,,,,,,,,,,,,,,,,,,,
1868.400001525879,,realistic_rating,1212072,Berkeley,,53,Berkeley,5,,,,,,,,,,,,,,,,,
null,,confidence_buffer,1212174,confidence_buffer,,null,,,,,,,,,,,,,,,,,,,
2435.5,,pt2_unique_rating,1214610,Berkeley,,51,,3,,,,,,,,,,,,,,,,,
null,,confidence_buffer,1214711,confidence_buffer,,null,,,,,,,,,,,,,,,,,,,
1151.3999977111816,,pt2_memorable_rating,1215864,Berkeley,,50,,2,,,,,,,,,,,,,,,,,
null,,confidence_buffer,1215966,confidence_buffer,,null,,,,,,,,,,,,,,,,,,,
1789.5,,recognition_phase,1217757,Berkeley,,49,,,,,old,1,0.96,,,,,,,,,,,,
null,,confidence_buffer,1217858,confidence_buffer,,null,,,,,,,,,,,,,,,,,,,
null,,thebreak,1218359,break,,null,,,,,,,,,,,,,,,,,,,
,,survey,1946034,survey-questions,,,,,,,,,,none,high,I was not distracted in any way.,Honestly didn't have any particular strategy. I was familiar with the almost all the names., I was so familiar with many of the names.,Based it on the sound of the name. ,The uniqueness of the name helped them to be more memorable.,Most of the names sound familiar; not made up.,I haven't participated in any study similar to this.,I had a difficult time on how to respond to the last set of questions. ( some ratings metrics can be highly subjective...)  But I enjoyed participating in the study.,,
14292.20000076294,,thank_you,1960341,all_done,,32,,,,,,,,,,,,,,,,,,4,0
