rt,responses,trial_type,time_elapsed,stimulus,button_pressed,key_press,name_trial,rating,response,correct,accuracy,probe,probe_accuracy,problems,smooth,distraction,strategies,familiar,memorable,unique,realistic,similar,comments,detectfocus,warning
6540,{worker_id:60833ce5197d68cff9df1b83},id_enter,6540,,,,,,,,,,,,,,,,,,,,,,
11338,,fullscreen,17880,fullscreen,0,,,,,,,,,,,,,,,,,,,,
5882,,intro_0,23765,instruct,,32,,,,,,,,,,,,,,,,,,,
6441,,intro_1,30207,instruct,,32,,,,,,,,,,,,,,,,,,,
4688,,intro_2,34897,instruct,,32,,,,,,,,,,,,,,,,,,,
null,,instruct_dir_4,36595,instruct,,null,,,,,,,,,,,,,,,,,,,
null,,thebreak,37134,break,,null,,,,,,,,,,,,,,,,,,,
6662,,familiar_rating,43798,Reno,,52,Reno,4,,,,,,,,,,,,,,,,,
null,,confidence_buffer,43905,confidence_buffer,,null,,,,,,,,,,,,,,,,,,,
9574,,unique_rating,53481,Reno,,51,,3,,,,,,,,,,,,,,,,,
null,,confidence_buffer,53589,confidence_buffer,,null,,,,,,,,,,,,,,,,,,,
8515,,memorable_rating,62106,Reno,,52,,4,,,,,,,,,,,,,,,,,
null,,confidence_buffer,62215,confidence_buffer,,null,,,,,,,,,,,,,,,,,,,
null,,thebreak,62726,break,,null,,,,,,,,,,,,,,,,,,,
6244,,familiar_rating,68972,New Haven,,51,New Haven,3,,,,,,,,,,,,,,,,,
null,,confidence_buffer,69074,confidence_buffer,,null,,,,,,,,,,,,,,,,,,,
2095,,unique_rating,71170,New Haven,,50,,2,,,,,,,,,,,,,,,,,
null,,confidence_buffer,71284,confidence_buffer,,null,,,,,,,,,,,,,,,,,,,
1657,,memorable_rating,72942,New Haven,,50,,2,,,,,,,,,,,,,,,,,
null,,confidence_buffer,73049,confidence_buffer,,null,,,,,,,,,,,,,,,,,,,
null,,thebreak,73555,break,,null,,,,,,,,,,,,,,,,,,,
5521,,familiar_rating,79076,Athens,,53,Athens,5,,,,,,,,,,,,,,,,,
null,,confidence_buffer,79186,confidence_buffer,,null,,,,,,,,,,,,,,,,,,,
1992,,unique_rating,81178,Athens,,53,,5,,,,,,,,,,,,,,,,,
null,,confidence_buffer,81291,confidence_buffer,,null,,,,,,,,,,,,,,,,,,,
1904,,memorable_rating,83196,Athens,,53,,5,,,,,,,,,,,,,,,,,
null,,confidence_buffer,83308,confidence_buffer,,null,,,,,,,,,,,,,,,,,,,
null,,thebreak,83820,break,,null,,,,,,,,,,,,,,,,,,,
8523,,familiar_rating,92345,Marquette,,52,Marquette,4,,,,,,,,,,,,,,,,,
null,,confidence_buffer,92456,confidence_buffer,,null,,,,,,,,,,,,,,,,,,,
2403,,unique_rating,94861,Marquette,,53,,5,,,,,,,,,,,,,,,,,
null,,confidence_buffer,94976,confidence_buffer,,null,,,,,,,,,,,,,,,,,,,
3163,,memorable_rating,98140,Marquette,,52,,4,,,,,,,,,,,,,,,,,
null,,confidence_buffer,98249,confidence_buffer,,null,,,,,,,,,,,,,,,,,,,
null,,thebreak,98762,break,,null,,,,,,,,,,,,,,,,,,,
5673,,familiar_rating,104436,Fort Wayne,,53,Fort Wayne,5,,,,,,,,,,,,,,,,,
null,,confidence_buffer,104544,confidence_buffer,,null,,,,,,,,,,,,,,,,,,,
4000,,unique_rating,108545,Fort Wayne,,50,,2,,,,,,,,,,,,,,,,,
null,,confidence_buffer,108653,confidence_buffer,,null,,,,,,,,,,,,,,,,,,,
1750,,memorable_rating,110405,Fort Wayne,,50,,2,,,,,,,,,,,,,,,,,
null,,confidence_buffer,110508,confidence_buffer,,null,,,,,,,,,,,,,,,,,,,
null,,thebreak,111017,break,,null,,,,,,,,,,,,,,,,,,,
12557,,familiar_rating,123574,Boise,,53,Boise,5,,,,,,,,,,,,,,,,,
null,,confidence_buffer,123688,confidence_buffer,,null,,,,,,,,,,,,,,,,,,,
169,,unique_rating,123858,Boise,,53,,5,,,,,,,,,,,,,,,,,
null,,confidence_buffer,123962,confidence_buffer,,null,,,,,,,,,,,,,,,,,,,
2588,,memorable_rating,126550,Boise,,52,,4,,,,,,,,,,,,,,,,,
null,,confidence_buffer,126653,confidence_buffer,,null,,,,,,,,,,,,,,,,,,,
null,,thebreak,127165,break,,null,,,,,,,,,,,,,,,,,,,
5865,,familiar_rating,133031,Concord,,52,Concord,4,,,,,,,,,,,,,,,,,
null,,confidence_buffer,133133,confidence_buffer,,null,,,,,,,,,,,,,,,,,,,
4416,,unique_rating,137549,Concord,,50,,2,,,,,,,,,,,,,,,,,
null,,confidence_buffer,137658,confidence_buffer,,null,,,,,,,,,,,,,,,,,,,
2066,,memorable_rating,139725,Concord,,51,,3,,,,,,,,,,,,,,,,,
null,,confidence_buffer,139839,confidence_buffer,,null,,,,,,,,,,,,,,,,,,,
null,,thebreak,140346,break,,null,,,,,,,,,,,,,,,,,,,
3630,,familiar_rating,143977,Salem,,53,Salem,5,,,,,,,,,,,,,,,,,
null,,confidence_buffer,144084,confidence_buffer,,null,,,,,,,,,,,,,,,,,,,
2997,,unique_rating,147082,Salem,,50,,2,,,,,,,,,,,,,,,,,
null,,confidence_buffer,147191,confidence_buffer,,null,,,,,,,,,,,,,,,,,,,
3472,,memorable_rating,150665,Salem,,53,,5,,,,,,,,,,,,,,,,,
null,,confidence_buffer,150771,confidence_buffer,,null,,,,,,,,,,,,,,,,,,,
null,,thebreak,151272,break,,null,,,,,,,,,,,,,,,,,,,
5124,,familiar_rating,156397,Bozeman,,52,Bozeman,4,,,,,,,,,,,,,,,,,
null,,confidence_buffer,156509,confidence_buffer,,null,,,,,,,,,,,,,,,,,,,
3267,,unique_rating,159777,Bozeman,,53,,5,,,,,,,,,,,,,,,,,
null,,confidence_buffer,159892,confidence_buffer,,null,,,,,,,,,,,,,,,,,,,
4517,,memorable_rating,164410,Bozeman,,52,,4,,,,,,,,,,,,,,,,,
null,,confidence_buffer,164526,confidence_buffer,,null,,,,,,,,,,,,,,,,,,,
null,,thebreak,165064,break,,null,,,,,,,,,,,,,,,,,,,
4299,,familiar_rating,169363,Cambridge,,53,Cambridge,5,,,,,,,,,,,,,,,,,
null,,confidence_buffer,169477,confidence_buffer,,null,,,,,,,,,,,,,,,,,,,
2111,,unique_rating,171590,Cambridge,,49,,1,,,,,,,,,,,,,,,,,
null,,confidence_buffer,171698,confidence_buffer,,null,,,,,,,,,,,,,,,,,,,
3157,,memorable_rating,174855,Cambridge,,53,,5,,,,,,,,,,,,,,,,,
null,,confidence_buffer,174964,confidence_buffer,,null,,,,,,,,,,,,,,,,,,,
null,,thebreak,175466,break,,null,,,,,,,,,,,,,,,,,,,
5408,,familiar_rating,180874,Altoona,,53,Altoona,5,,,,,,,,,,,,,,,,,
null,,confidence_buffer,180978,confidence_buffer,,null,,,,,,,,,,,,,,,,,,,
1806,,unique_rating,182783,Altoona,,53,,5,,,,,,,,,,,,,,,,,
null,,confidence_buffer,182894,confidence_buffer,,null,,,,,,,,,,,,,,,,,,,
2173,,memorable_rating,185067,Altoona,,53,,5,,,,,,,,,,,,,,,,,
null,,confidence_buffer,185170,confidence_buffer,,null,,,,,,,,,,,,,,,,,,,
null,,thebreak,185683,break,,null,,,,,,,,,,,,,,,,,,,
4809,,familiar_rating,190494,Muncie,,52,Muncie,4,,,,,,,,,,,,,,,,,
null,,confidence_buffer,190609,confidence_buffer,,null,,,,,,,,,,,,,,,,,,,
2229,,unique_rating,192839,Muncie,,53,,5,,,,,,,,,,,,,,,,,
null,,confidence_buffer,192946,confidence_buffer,,null,,,,,,,,,,,,,,,,,,,
1721,,memorable_rating,194668,Muncie,,52,,4,,,,,,,,,,,,,,,,,
null,,confidence_buffer,194769,confidence_buffer,,null,,,,,,,,,,,,,,,,,,,
null,,thebreak,195278,break,,null,,,,,,,,,,,,,,,,,,,
2745,,familiar_rating,198024,Carson City,,52,Carson City,4,,,,,,,,,,,,,,,,,
null,,confidence_buffer,198138,confidence_buffer,,null,,,,,,,,,,,,,,,,,,,
2280,,unique_rating,200419,Carson City,,51,,3,,,,,,,,,,,,,,,,,
null,,confidence_buffer,200535,confidence_buffer,,null,,,,,,,,,,,,,,,,,,,
2725,,memorable_rating,203261,Carson City,,51,,3,,,,,,,,,,,,,,,,,
null,,confidence_buffer,203374,confidence_buffer,,null,,,,,,,,,,,,,,,,,,,
null,,thebreak,203881,break,,null,,,,,,,,,,,,,,,,,,,
4589,,familiar_rating,208470,Topeka,,53,Topeka,5,,,,,,,,,,,,,,,,,
null,,confidence_buffer,208585,confidence_buffer,,null,,,,,,,,,,,,,,,,,,,
978,,unique_rating,209562,Topeka,,53,,5,,,,,,,,,,,,,,,,,
null,,confidence_buffer,209673,confidence_buffer,,null,,,,,,,,,,,,,,,,,,,
2727,,memorable_rating,212402,Topeka,,52,,4,,,,,,,,,,,,,,,,,
null,,confidence_buffer,212506,confidence_buffer,,null,,,,,,,,,,,,,,,,,,,
null,,thebreak,213009,break,,null,,,,,,,,,,,,,,,,,,,
3686,,familiar_rating,216697,Berkeley,,53,Berkeley,5,,,,,,,,,,,,,,,,,
null,,confidence_buffer,216807,confidence_buffer,,null,,,,,,,,,,,,,,,,,,,
2156,,unique_rating,218964,Berkeley,,50,,2,,,,,,,,,,,,,,,,,
null,,confidence_buffer,219074,confidence_buffer,,null,,,,,,,,,,,,,,,,,,,
1753,,memorable_rating,220827,Berkeley,,52,,4,,,,,,,,,,,,,,,,,
null,,confidence_buffer,220932,confidence_buffer,,null,,,,,,,,,,,,,,,,,,,
null,,thebreak,221442,break,,null,,,,,,,,,,,,,,,,,,,
5551,,familiar_rating,226992,Gainesville,,51,Gainesville,3,,,,,,,,,,,,,,,,,
null,,confidence_buffer,227095,confidence_buffer,,null,,,,,,,,,,,,,,,,,,,
2161,,unique_rating,229257,Gainesville,,51,,3,,,,,,,,,,,,,,,,,
null,,confidence_buffer,229360,confidence_buffer,,null,,,,,,,,,,,,,,,,,,,
1610,,memorable_rating,230971,Gainesville,,51,,3,,,,,,,,,,,,,,,,,
null,,confidence_buffer,231074,confidence_buffer,,null,,,,,,,,,,,,,,,,,,,
null,,thebreak,231585,break,,null,,,,,,,,,,,,,,,,,,,
5701,,familiar_rating,237287,Dubuque,,52,Dubuque,4,,,,,,,,,,,,,,,,,
null,,confidence_buffer,237388,confidence_buffer,,null,,,,,,,,,,,,,,,,,,,
3049,,unique_rating,240437,Dubuque,,53,,5,,,,,,,,,,,,,,,,,
null,,confidence_buffer,240544,confidence_buffer,,null,,,,,,,,,,,,,,,,,,,
2249,,memorable_rating,242794,Dubuque,,52,,4,,,,,,,,,,,,,,,,,
null,,confidence_buffer,242910,confidence_buffer,,null,,,,,,,,,,,,,,,,,,,
null,,thebreak,243422,break,,null,,,,,,,,,,,,,,,,,,,
8571,,familiar_rating,251993,Las Cruces,,50,Las Cruces,2,,,,,,,,,,,,,,,,,
null,,confidence_buffer,252102,confidence_buffer,,null,,,,,,,,,,,,,,,,,,,
4020,,unique_rating,256123,Las Cruces,,51,,3,,,,,,,,,,,,,,,,,
null,,confidence_buffer,256229,confidence_buffer,,null,,,,,,,,,,,,,,,,,,,
4240,,memorable_rating,260469,Las Cruces,,52,,4,,,,,,,,,,,,,,,,,
null,,confidence_buffer,260578,confidence_buffer,,null,,,,,,,,,,,,,,,,,,,
null,,thebreak,261113,break,,null,,,,,,,,,,,,,,,,,,,
3922,,familiar_rating,265035,Newport News,,51,Newport News,3,,,,,,,,,,,,,,,,,
null,,confidence_buffer,265139,confidence_buffer,,null,,,,,,,,,,,,,,,,,,,
3022,,unique_rating,268161,Newport News,,52,,4,,,,,,,,,,,,,,,,,
null,,confidence_buffer,268273,confidence_buffer,,null,,,,,,,,,,,,,,,,,,,
1646,,memorable_rating,269921,Newport News,,51,,3,,,,,,,,,,,,,,,,,
null,,confidence_buffer,270029,confidence_buffer,,null,,,,,,,,,,,,,,,,,,,
null,,thebreak,270543,break,,null,,,,,,,,,,,,,,,,,,,
4400,,familiar_rating,274944,Burlington,,52,Burlington,4,,,,,,,,,,,,,,,,,
null,,confidence_buffer,275049,confidence_buffer,,null,,,,,,,,,,,,,,,,,,,
1484,,unique_rating,276533,Burlington,,50,,2,,,,,,,,,,,,,,,,,
null,,confidence_buffer,276638,confidence_buffer,,null,,,,,,,,,,,,,,,,,,,
2123,,memorable_rating,278762,Burlington,,51,,3,,,,,,,,,,,,,,,,,
null,,confidence_buffer,278874,confidence_buffer,,null,,,,,,,,,,,,,,,,,,,
null,,thebreak,279380,break,,null,,,,,,,,,,,,,,,,,,,
3642,,familiar_rating,283023,Terre Haute,,52,Terre Haute,4,,,,,,,,,,,,,,,,,
null,,confidence_buffer,283126,confidence_buffer,,null,,,,,,,,,,,,,,,,,,,
1406,,unique_rating,284533,Terre Haute,,53,,5,,,,,,,,,,,,,,,,,
null,,confidence_buffer,284638,confidence_buffer,,null,,,,,,,,,,,,,,,,,,,
3187,,memorable_rating,287827,Terre Haute,,52,,4,,,,,,,,,,,,,,,,,
null,,confidence_buffer,287936,confidence_buffer,,null,,,,,,,,,,,,,,,,,,,
null,,thebreak,288444,break,,null,,,,,,,,,,,,,,,,,,,
4659,,familiar_rating,293104,Boulder,,53,Boulder,5,,,,,,,,,,,,,,,,,
null,,confidence_buffer,293213,confidence_buffer,,null,,,,,,,,,,,,,,,,,,,
3851,,unique_rating,297065,Boulder,,50,,2,,,,,,,,,,,,,,,,,
null,,confidence_buffer,297173,confidence_buffer,,null,,,,,,,,,,,,,,,,,,,
3754,,memorable_rating,300928,Boulder,,52,,4,,,,,,,,,,,,,,,,,
null,,confidence_buffer,301037,confidence_buffer,,null,,,,,,,,,,,,,,,,,,,
null,,thebreak,301539,break,,null,,,,,,,,,,,,,,,,,,,
5193,,familiar_rating,306733,Santa Monica,,52,Santa Monica,4,,,,,,,,,,,,,,,,,
null,,confidence_buffer,306841,confidence_buffer,,null,,,,,,,,,,,,,,,,,,,
3507,,unique_rating,310350,Santa Monica,,50,,2,,,,,,,,,,,,,,,,,
null,,confidence_buffer,310452,confidence_buffer,,null,,,,,,,,,,,,,,,,,,,
1038,,memorable_rating,311490,Santa Monica,,51,,3,,,,,,,,,,,,,,,,,
null,,confidence_buffer,311598,confidence_buffer,,null,,,,,,,,,,,,,,,,,,,
null,,thebreak,312110,break,,null,,,,,,,,,,,,,,,,,,,
4451,,familiar_rating,316562,Annapolis,,52,Annapolis,4,,,,,,,,,,,,,,,,,
null,,confidence_buffer,316676,confidence_buffer,,null,,,,,,,,,,,,,,,,,,,
3372,,unique_rating,320048,Annapolis,,51,,3,,,,,,,,,,,,,,,,,
null,,confidence_buffer,320161,confidence_buffer,,null,,,,,,,,,,,,,,,,,,,
2807,,memorable_rating,322968,Annapolis,,51,,3,,,,,,,,,,,,,,,,,
null,,confidence_buffer,323070,confidence_buffer,,null,,,,,,,,,,,,,,,,,,,
null,,thebreak,323572,break,,null,,,,,,,,,,,,,,,,,,,
4792,,familiar_rating,328364,Abilene,,51,Abilene,3,,,,,,,,,,,,,,,,,
null,,confidence_buffer,328467,confidence_buffer,,null,,,,,,,,,,,,,,,,,,,
1649,,unique_rating,330116,Abilene,,52,,4,,,,,,,,,,,,,,,,,
null,,confidence_buffer,330223,confidence_buffer,,null,,,,,,,,,,,,,,,,,,,
2655,,memorable_rating,332880,Abilene,,52,,4,,,,,,,,,,,,,,,,,
null,,confidence_buffer,332995,confidence_buffer,,null,,,,,,,,,,,,,,,,,,,
null,,thebreak,333510,break,,null,,,,,,,,,,,,,,,,,,,
4714,,intro_0,338224,instruct,,32,,,,,,,,,,,,,,,,,,,
5760,,intro_1,343985,instruct,,32,,,,,,,,,,,,,,,,,,,
7902,,intro_2,351888,instruct,,32,,,,,,,,,,,,,,,,,,,
null,,instruct_dir_4,353400,instruct,,null,,,,,,,,,,,,,,,,,,,
8013,,realistic_rating,361414,Yakima,,53,Yakima,5,,,,,,,,,,,,,,,,,
null,,confidence_buffer,361515,confidence_buffer,,null,,,,,,,,,,,,,,,,,,,
2114,,pt2_unique_rating,363629,Yakima,,53,,5,,,,,,,,,,,,,,,,,
null,,confidence_buffer,363732,confidence_buffer,,null,,,,,,,,,,,,,,,,,,,
2520,,pt2_memorable_rating,366251,Yakima,,53,,5,,,,,,,,,,,,,,,,,
null,,confidence_buffer,366355,confidence_buffer,,null,,,,,,,,,,,,,,,,,,,
3267,,recognition_phase,369624,Yakima,,52,,,new,1,1,,,,,,,,,,,,,,
null,,confidence_buffer,369741,confidence_buffer,,null,,,,,,,,,,,,,,,,,,,
null,,thebreak,370255,break,,null,,,,,,,,,,,,,,,,,,,
6751,,realistic_rating,377006,Toledo,,53,Toledo,5,,,,,,,,,,,,,,,,,
null,,confidence_buffer,377114,confidence_buffer,,null,,,,,,,,,,,,,,,,,,,
2057,,pt2_unique_rating,379173,Toledo,,53,,5,,,,,,,,,,,,,,,,,
null,,confidence_buffer,379290,confidence_buffer,,null,,,,,,,,,,,,,,,,,,,
6756,,pt2_memorable_rating,386046,Toledo,,51,,3,,,,,,,,,,,,,,,,,
null,,confidence_buffer,386154,confidence_buffer,,null,,,,,,,,,,,,,,,,,,,
4080,,recognition_phase,390234,Toledo,,52,,,new,1,1,,,,,,,,,,,,,,
null,,confidence_buffer,390338,confidence_buffer,,null,,,,,,,,,,,,,,,,,,,
null,,thebreak,390850,break,,null,,,,,,,,,,,,,,,,,,,
6139,,realistic_rating,396989,Boulder,,53,Boulder,5,,,,,,,,,,,,,,,,,
null,,confidence_buffer,397091,confidence_buffer,,null,,,,,,,,,,,,,,,,,,,
4678,,pt2_unique_rating,401770,Boulder,,50,,2,,,,,,,,,,,,,,,,,
null,,confidence_buffer,401885,confidence_buffer,,null,,,,,,,,,,,,,,,,,,,
1826,,pt2_memorable_rating,403713,Boulder,,51,,3,,,,,,,,,,,,,,,,,
null,,confidence_buffer,403817,confidence_buffer,,null,,,,,,,,,,,,,,,,,,,
4283,,recognition_phase,408102,Boulder,,49,,,old,1,1,,,,,,,,,,,,,,
null,,confidence_buffer,408218,confidence_buffer,,null,,,,,,,,,,,,,,,,,,,
null,,thebreak,408728,break,,null,,,,,,,,,,,,,,,,,,,
4380,,realistic_rating,413110,Dothan,,50,Dothan,2,,,,,,,,,,,,,,,,,
null,,confidence_buffer,413217,confidence_buffer,,null,,,,,,,,,,,,,,,,,,,
4096,,pt2_unique_rating,417313,Dothan,,53,,5,,,,,,,,,,,,,,,,,
null,,confidence_buffer,417429,confidence_buffer,,null,,,,,,,,,,,,,,,,,,,
2698,,pt2_memorable_rating,420127,Dothan,,52,,4,,,,,,,,,,,,,,,,,
null,,confidence_buffer,420238,confidence_buffer,,null,,,,,,,,,,,,,,,,,,,
2699,,recognition_phase,422938,Dothan,,52,,,new,1,1,,,,,,,,,,,,,,
null,,confidence_buffer,423048,confidence_buffer,,null,,,,,,,,,,,,,,,,,,,
null,,thebreak,423556,break,,null,,,,,,,,,,,,,,,,,,,
4156,,realistic_rating,427713,Berkeley,,53,Berkeley,5,,,,,,,,,,,,,,,,,
null,,confidence_buffer,427814,confidence_buffer,,null,,,,,,,,,,,,,,,,,,,
3943,,pt2_unique_rating,431758,Berkeley,,50,,2,,,,,,,,,,,,,,,,,
null,,confidence_buffer,431874,confidence_buffer,,null,,,,,,,,,,,,,,,,,,,
1768,,pt2_memorable_rating,433642,Berkeley,,51,,3,,,,,,,,,,,,,,,,,
null,,confidence_buffer,433755,confidence_buffer,,null,,,,,,,,,,,,,,,,,,,
3153,,recognition_phase,436907,Berkeley,,49,,,old,1,1,,,,,,,,,,,,,,
null,,confidence_buffer,437010,confidence_buffer,,null,,,,,,,,,,,,,,,,,,,
null,,thebreak,437521,break,,null,,,,,,,,,,,,,,,,,,,
4128,,realistic_rating,441648,Ann Arbor,,53,Ann Arbor,5,,,,,,,,,,,,,,,,,
null,,confidence_buffer,441757,confidence_buffer,,null,,,,,,,,,,,,,,,,,,,
3066,,pt2_unique_rating,444825,Ann Arbor,,53,,5,,,,,,,,,,,,,,,,,
null,,confidence_buffer,444932,confidence_buffer,,null,,,,,,,,,,,,,,,,,,,
1291,,pt2_memorable_rating,446224,Ann Arbor,,53,,5,,,,,,,,,,,,,,,,,
null,,confidence_buffer,446334,confidence_buffer,,null,,,,,,,,,,,,,,,,,,,
3334,,recognition_phase,449669,Ann Arbor,,52,,,new,1,1,,,,,,,,,,,,,,
null,,confidence_buffer,449771,confidence_buffer,,null,,,,,,,,,,,,,,,,,,,
null,,thebreak,450278,break,,null,,,,,,,,,,,,,,,,,,,
5228,,realistic_rating,455506,New Haven,,53,New Haven,5,,,,,,,,,,,,,,,,,
null,,confidence_buffer,455613,confidence_buffer,,null,,,,,,,,,,,,,,,,,,,
2385,,pt2_unique_rating,457997,New Haven,,51,,3,,,,,,,,,,,,,,,,,
null,,confidence_buffer,458110,confidence_buffer,,null,,,,,,,,,,,,,,,,,,,
1194,,pt2_memorable_rating,459304,New Haven,,51,,3,,,,,,,,,,,,,,,,,
null,,confidence_buffer,459416,confidence_buffer,,null,,,,,,,,,,,,,,,,,,,
2489,,probe_rating,461904,probe_rating,,50,,,,,,2,1,,,,,,,,,,,,
null,,confidence_buffer,462007,confidence_buffer,,null,,,,,,,,,,,,,,,,,,,
3588,,recognition_phase,465596,New Haven,,50,,,old,1,1,,,,,,,,,,,,,,
null,,confidence_buffer,465705,confidence_buffer,,null,,,,,,,,,,,,,,,,,,,
null,,thebreak,466210,break,,null,,,,,,,,,,,,,,,,,,,
4160,,realistic_rating,470371,Montpelier,,53,Montpelier,5,,,,,,,,,,,,,,,,,
null,,confidence_buffer,470485,confidence_buffer,,null,,,,,,,,,,,,,,,,,,,
1759,,pt2_unique_rating,472246,Montpelier,,53,,5,,,,,,,,,,,,,,,,,
null,,confidence_buffer,472348,confidence_buffer,,null,,,,,,,,,,,,,,,,,,,
1425,,pt2_memorable_rating,473774,Montpelier,,53,,5,,,,,,,,,,,,,,,,,
null,,confidence_buffer,473886,confidence_buffer,,null,,,,,,,,,,,,,,,,,,,
3010,,recognition_phase,476897,Montpelier,,52,,,new,1,1,,,,,,,,,,,,,,
null,,confidence_buffer,476999,confidence_buffer,,null,,,,,,,,,,,,,,,,,,,
null,,thebreak,477511,break,,null,,,,,,,,,,,,,,,,,,,
6158,,realistic_rating,483669,Gainesville,,53,Gainesville,5,,,,,,,,,,,,,,,,,
null,,confidence_buffer,483783,confidence_buffer,,null,,,,,,,,,,,,,,,,,,,
4761,,pt2_unique_rating,488545,Gainesville,,51,,3,,,,,,,,,,,,,,,,,
null,,confidence_buffer,488655,confidence_buffer,,null,,,,,,,,,,,,,,,,,,,
2167,,pt2_memorable_rating,490822,Gainesville,,51,,3,,,,,,,,,,,,,,,,,
null,,confidence_buffer,490927,confidence_buffer,,null,,,,,,,,,,,,,,,,,,,
3793,,recognition_phase,494721,Gainesville,,50,,,old,1,1,,,,,,,,,,,,,,
null,,confidence_buffer,494834,confidence_buffer,,null,,,,,,,,,,,,,,,,,,,
null,,thebreak,495354,break,,null,,,,,,,,,,,,,,,,,,,
3689,,realistic_rating,499045,Peoria,,53,Peoria,5,,,,,,,,,,,,,,,,,
null,,confidence_buffer,499157,confidence_buffer,,null,,,,,,,,,,,,,,,,,,,
2086,,pt2_unique_rating,501241,Peoria,,53,,5,,,,,,,,,,,,,,,,,
null,,confidence_buffer,501351,confidence_buffer,,null,,,,,,,,,,,,,,,,,,,
1940,,pt2_memorable_rating,503292,Peoria,,53,,5,,,,,,,,,,,,,,,,,
null,,confidence_buffer,503407,confidence_buffer,,null,,,,,,,,,,,,,,,,,,,
4061,,recognition_phase,507469,Peoria,,52,,,new,1,1,,,,,,,,,,,,,,
null,,confidence_buffer,507572,confidence_buffer,,null,,,,,,,,,,,,,,,,,,,
null,,thebreak,508082,break,,null,,,,,,,,,,,,,,,,,,,
3045,,realistic_rating,511128,Bozeman,,53,Bozeman,5,,,,,,,,,,,,,,,,,
null,,confidence_buffer,511244,confidence_buffer,,null,,,,,,,,,,,,,,,,,,,
2292,,pt2_unique_rating,513537,Bozeman,,52,,4,,,,,,,,,,,,,,,,,
null,,confidence_buffer,513650,confidence_buffer,,null,,,,,,,,,,,,,,,,,,,
2239,,probe_rating,515891,probe_rating,,50,,,,,,2,1,,,,,,,,,,,,
null,,confidence_buffer,515993,confidence_buffer,,null,,,,,,,,,,,,,,,,,,,
2843,,pt2_memorable_rating,518838,Bozeman,,52,,4,,,,,,,,,,,,,,,,,
null,,confidence_buffer,518941,confidence_buffer,,null,,,,,,,,,,,,,,,,,,,
3337,,recognition_phase,522278,Bozeman,,49,,,old,1,1,,,,,,,,,,,,,,
null,,confidence_buffer,522387,confidence_buffer,,null,,,,,,,,,,,,,,,,,,,
null,,thebreak,522897,break,,null,,,,,,,,,,,,,,,,,,,
3048,,realistic_rating,525946,Syracuse,,53,Syracuse,5,,,,,,,,,,,,,,,,,
null,,confidence_buffer,526057,confidence_buffer,,null,,,,,,,,,,,,,,,,,,,
3459,,pt2_unique_rating,529517,Syracuse,,50,,2,,,,,,,,,,,,,,,,,
null,,confidence_buffer,529632,confidence_buffer,,null,,,,,,,,,,,,,,,,,,,
4424,,pt2_memorable_rating,534058,Syracuse,,52,,4,,,,,,,,,,,,,,,,,
null,,confidence_buffer,534162,confidence_buffer,,null,,,,,,,,,,,,,,,,,,,
3818,,recognition_phase,537981,Syracuse,,52,,,new,1,1,,,,,,,,,,,,,,
null,,confidence_buffer,538091,confidence_buffer,,null,,,,,,,,,,,,,,,,,,,
null,,thebreak,538598,break,,null,,,,,,,,,,,,,,,,,,,
2386,,realistic_rating,540985,Fargo,,53,Fargo,5,,,,,,,,,,,,,,,,,
null,,confidence_buffer,541093,confidence_buffer,,null,,,,,,,,,,,,,,,,,,,
4433,,pt2_unique_rating,545525,Fargo,,53,,5,,,,,,,,,,,,,,,,,
null,,confidence_buffer,545626,confidence_buffer,,null,,,,,,,,,,,,,,,,,,,
1133,,pt2_memorable_rating,546762,Fargo,,53,,5,,,,,,,,,,,,,,,,,
null,,confidence_buffer,546876,confidence_buffer,,null,,,,,,,,,,,,,,,,,,,
3039,,recognition_phase,549916,Fargo,,52,,,new,1,1,,,,,,,,,,,,,,
null,,confidence_buffer,550030,confidence_buffer,,null,,,,,,,,,,,,,,,,,,,
null,,thebreak,550541,break,,null,,,,,,,,,,,,,,,,,,,
2479,,realistic_rating,553020,Topeka,,53,Topeka,5,,,,,,,,,,,,,,,,,
null,,confidence_buffer,553131,confidence_buffer,,null,,,,,,,,,,,,,,,,,,,
2364,,pt2_unique_rating,555495,Topeka,,52,,4,,,,,,,,,,,,,,,,,
null,,confidence_buffer,555603,confidence_buffer,,null,,,,,,,,,,,,,,,,,,,
1389,,pt2_memorable_rating,556992,Topeka,,52,,4,,,,,,,,,,,,,,,,,
null,,confidence_buffer,557103,confidence_buffer,,null,,,,,,,,,,,,,,,,,,,
2962,,recognition_phase,560066,Topeka,,49,,,old,1,1,,,,,,,,,,,,,,
null,,confidence_buffer,560184,confidence_buffer,,null,,,,,,,,,,,,,,,,,,,
null,,thebreak,560693,break,,null,,,,,,,,,,,,,,,,,,,
8303,,realistic_rating,568996,Cheyenne,,53,Cheyenne,5,,,,,,,,,,,,,,,,,
null,,confidence_buffer,569099,confidence_buffer,,null,,,,,,,,,,,,,,,,,,,
3847,,pt2_unique_rating,572947,Cheyenne,,51,,3,,,,,,,,,,,,,,,,,
null,,confidence_buffer,573049,confidence_buffer,,null,,,,,,,,,,,,,,,,,,,
1555,,pt2_memorable_rating,574605,Cheyenne,,52,,4,,,,,,,,,,,,,,,,,
null,,confidence_buffer,574722,confidence_buffer,,null,,,,,,,,,,,,,,,,,,,
4142,,recognition_phase,578864,Cheyenne,,52,,,new,1,1,,,,,,,,,,,,,,
null,,confidence_buffer,578970,confidence_buffer,,null,,,,,,,,,,,,,,,,,,,
null,,thebreak,579476,break,,null,,,,,,,,,,,,,,,,,,,
5110,,realistic_rating,584586,Boise,,53,Boise,5,,,,,,,,,,,,,,,,,
null,,confidence_buffer,584694,confidence_buffer,,null,,,,,,,,,,,,,,,,,,,
2001,,probe_rating,586695,probe_rating,,52,,,,,,4,1,,,,,,,,,,,,
null,,confidence_buffer,586798,confidence_buffer,,null,,,,,,,,,,,,,,,,,,,
3035,,pt2_unique_rating,589834,Boise,,52,,4,,,,,,,,,,,,,,,,,
null,,confidence_buffer,589945,confidence_buffer,,null,,,,,,,,,,,,,,,,,,,
1477,,pt2_memorable_rating,591423,Boise,,52,,4,,,,,,,,,,,,,,,,,
null,,confidence_buffer,591528,confidence_buffer,,null,,,,,,,,,,,,,,,,,,,
4007,,recognition_phase,595535,Boise,,50,,,old,1,1,,,,,,,,,,,,,,
null,,confidence_buffer,595646,confidence_buffer,,null,,,,,,,,,,,,,,,,,,,
null,,thebreak,596151,break,,null,,,,,,,,,,,,,,,,,,,
6531,,realistic_rating,602682,Terre Haute,,53,Terre Haute,5,,,,,,,,,,,,,,,,,
null,,confidence_buffer,602788,confidence_buffer,,null,,,,,,,,,,,,,,,,,,,
3789,,pt2_unique_rating,606578,Terre Haute,,53,,5,,,,,,,,,,,,,,,,,
null,,confidence_buffer,606688,confidence_buffer,,null,,,,,,,,,,,,,,,,,,,
1585,,pt2_memorable_rating,608273,Terre Haute,,53,,5,,,,,,,,,,,,,,,,,
null,,confidence_buffer,608383,confidence_buffer,,null,,,,,,,,,,,,,,,,,,,
3744,,recognition_phase,612127,Terre Haute,,49,,,old,1,1,,,,,,,,,,,,,,
null,,confidence_buffer,612231,confidence_buffer,,null,,,,,,,,,,,,,,,,,,,
null,,thebreak,612737,break,,null,,,,,,,,,,,,,,,,,,,
5130,,realistic_rating,617868,Las Cruces,,53,Las Cruces,5,,,,,,,,,,,,,,,,,
null,,confidence_buffer,617978,confidence_buffer,,null,,,,,,,,,,,,,,,,,,,
1416,,pt2_unique_rating,619394,Las Cruces,,53,,5,,,,,,,,,,,,,,,,,
null,,confidence_buffer,619498,confidence_buffer,,null,,,,,,,,,,,,,,,,,,,
2222,,probe_rating,621720,probe_rating,,52,,,,,,4,1,,,,,,,,,,,,
null,,confidence_buffer,621822,confidence_buffer,,null,,,,,,,,,,,,,,,,,,,
1792,,pt2_memorable_rating,623616,Las Cruces,,53,,5,,,,,,,,,,,,,,,,,
null,,confidence_buffer,623736,confidence_buffer,,null,,,,,,,,,,,,,,,,,,,
2972,,recognition_phase,626709,Las Cruces,,49,,,old,1,1,,,,,,,,,,,,,,
null,,confidence_buffer,626820,confidence_buffer,,null,,,,,,,,,,,,,,,,,,,
null,,thebreak,627335,break,,null,,,,,,,,,,,,,,,,,,,
5707,,realistic_rating,633042,Stamford,,53,Stamford,5,,,,,,,,,,,,,,,,,
null,,confidence_buffer,633144,confidence_buffer,,null,,,,,,,,,,,,,,,,,,,
4529,,pt2_unique_rating,637675,Stamford,,52,,4,,,,,,,,,,,,,,,,,
null,,confidence_buffer,637781,confidence_buffer,,null,,,,,,,,,,,,,,,,,,,
1602,,pt2_memorable_rating,639384,Stamford,,52,,4,,,,,,,,,,,,,,,,,
null,,confidence_buffer,639497,confidence_buffer,,null,,,,,,,,,,,,,,,,,,,
4920,,recognition_phase,644417,Stamford,,51,,,new,1,1,,,,,,,,,,,,,,
null,,confidence_buffer,644533,confidence_buffer,,null,,,,,,,,,,,,,,,,,,,
null,,thebreak,645045,break,,null,,,,,,,,,,,,,,,,,,,
2659,,realistic_rating,647706,Youngstown,,53,Youngstown,5,,,,,,,,,,,,,,,,,
null,,confidence_buffer,647812,confidence_buffer,,null,,,,,,,,,,,,,,,,,,,
2853,,pt2_unique_rating,650667,Youngstown,,50,,2,,,,,,,,,,,,,,,,,
null,,confidence_buffer,650783,confidence_buffer,,null,,,,,,,,,,,,,,,,,,,
1104,,pt2_memorable_rating,651886,Youngstown,,50,,2,,,,,,,,,,,,,,,,,
null,,confidence_buffer,651998,confidence_buffer,,null,,,,,,,,,,,,,,,,,,,
3875,,recognition_phase,655875,Youngstown,,52,,,new,1,1,,,,,,,,,,,,,,
null,,confidence_buffer,655979,confidence_buffer,,null,,,,,,,,,,,,,,,,,,,
null,,thebreak,656484,break,,null,,,,,,,,,,,,,,,,,,,
3038,,realistic_rating,659522,Ithaca,,53,Ithaca,5,,,,,,,,,,,,,,,,,
null,,confidence_buffer,659638,confidence_buffer,,null,,,,,,,,,,,,,,,,,,,
1653,,pt2_unique_rating,661292,Ithaca,,50,,2,,,,,,,,,,,,,,,,,
null,,confidence_buffer,661408,confidence_buffer,,null,,,,,,,,,,,,,,,,,,,
2209,,pt2_memorable_rating,663617,Ithaca,,52,,4,,,,,,,,,,,,,,,,,
null,,confidence_buffer,663727,confidence_buffer,,null,,,,,,,,,,,,,,,,,,,
3663,,recognition_phase,667390,Ithaca,,52,,,new,1,1,,,,,,,,,,,,,,
null,,confidence_buffer,667503,confidence_buffer,,null,,,,,,,,,,,,,,,,,,,
null,,thebreak,668018,break,,null,,,,,,,,,,,,,,,,,,,
5974,,realistic_rating,673993,Carson City,,53,Carson City,5,,,,,,,,,,,,,,,,,
null,,confidence_buffer,674098,confidence_buffer,,null,,,,,,,,,,,,,,,,,,,
4053,,pt2_unique_rating,678152,Carson City,,52,,4,,,,,,,,,,,,,,,,,
null,,confidence_buffer,678266,confidence_buffer,,null,,,,,,,,,,,,,,,,,,,
748,,pt2_memorable_rating,679015,Carson City,,52,,4,,,,,,,,,,,,,,,,,
null,,confidence_buffer,679119,confidence_buffer,,null,,,,,,,,,,,,,,,,,,,
2896,,recognition_phase,682016,Carson City,,52,,,new,0,0.9545454545454546,,,,,,,,,,,,,,
null,,confidence_buffer,682132,confidence_buffer,,null,,,,,,,,,,,,,,,,,,,
null,,thebreak,682636,break,,null,,,,,,,,,,,,,,,,,,,
3468,,realistic_rating,686104,Burlington,,53,Burlington,5,,,,,,,,,,,,,,,,,
null,,confidence_buffer,686220,confidence_buffer,,null,,,,,,,,,,,,,,,,,,,
5578,,pt2_unique_rating,691798,Burlington,,51,,3,,,,,,,,,,,,,,,,,
null,,confidence_buffer,691902,confidence_buffer,,null,,,,,,,,,,,,,,,,,,,
1676,,probe_rating,693579,probe_rating,,52,,,,,,4,1,,,,,,,,,,,,
null,,confidence_buffer,693689,confidence_buffer,,null,,,,,,,,,,,,,,,,,,,
1554,,pt2_memorable_rating,695244,Burlington,,51,,3,,,,,,,,,,,,,,,,,
null,,confidence_buffer,695348,confidence_buffer,,null,,,,,,,,,,,,,,,,,,,
4568,,recognition_phase,699917,Burlington,,51,,,new,0,0.9130434782608695,,,,,,,,,,,,,,
null,,confidence_buffer,700031,confidence_buffer,,null,,,,,,,,,,,,,,,,,,,
null,,thebreak,700539,break,,null,,,,,,,,,,,,,,,,,,,
4812,,realistic_rating,705351,Newport News,,53,Newport News,5,,,,,,,,,,,,,,,,,
null,,confidence_buffer,705466,confidence_buffer,,null,,,,,,,,,,,,,,,,,,,
2421,,pt2_unique_rating,707887,Newport News,,53,,5,,,,,,,,,,,,,,,,,
null,,confidence_buffer,707992,confidence_buffer,,null,,,,,,,,,,,,,,,,,,,
2890,,pt2_memorable_rating,710882,Newport News,,52,,4,,,,,,,,,,,,,,,,,
null,,confidence_buffer,710987,confidence_buffer,,null,,,,,,,,,,,,,,,,,,,
3202,,recognition_phase,714190,Newport News,,49,,,old,1,0.9166666666666666,,,,,,,,,,,,,,
null,,confidence_buffer,714304,confidence_buffer,,null,,,,,,,,,,,,,,,,,,,
null,,thebreak,714809,break,,null,,,,,,,,,,,,,,,,,,,
2434,,realistic_rating,717243,Tallahassee,,53,Tallahassee,5,,,,,,,,,,,,,,,,,
null,,confidence_buffer,717350,confidence_buffer,,null,,,,,,,,,,,,,,,,,,,
1917,,pt2_unique_rating,719267,Tallahassee,,53,,5,,,,,,,,,,,,,,,,,
null,,confidence_buffer,719378,confidence_buffer,,null,,,,,,,,,,,,,,,,,,,
1107,,pt2_memorable_rating,720486,Tallahassee,,53,,5,,,,,,,,,,,,,,,,,
null,,confidence_buffer,720589,confidence_buffer,,null,,,,,,,,,,,,,,,,,,,
2599,,recognition_phase,723189,Tallahassee,,52,,,new,1,0.92,,,,,,,,,,,,,,
null,,confidence_buffer,723292,confidence_buffer,,null,,,,,,,,,,,,,,,,,,,
null,,thebreak,723805,break,,null,,,,,,,,,,,,,,,,,,,
7985,,realistic_rating,731791,Olympia,,53,Olympia,5,,,,,,,,,,,,,,,,,
null,,confidence_buffer,731895,confidence_buffer,,null,,,,,,,,,,,,,,,,,,,
4040,,pt2_unique_rating,735937,Olympia,,51,,3,,,,,,,,,,,,,,,,,
null,,confidence_buffer,736045,confidence_buffer,,null,,,,,,,,,,,,,,,,,,,
1848,,probe_rating,737894,probe_rating,,50,,,,,,2,1,,,,,,,,,,,,
null,,confidence_buffer,737993,confidence_buffer,,null,,,,,,,,,,,,,,,,,,,
1878,,pt2_memorable_rating,739872,Olympia,,51,,3,,,,,,,,,,,,,,,,,
null,,confidence_buffer,739980,confidence_buffer,,null,,,,,,,,,,,,,,,,,,,
3327,,recognition_phase,743308,Olympia,,52,,,new,1,0.9230769230769231,,,,,,,,,,,,,,
null,,confidence_buffer,743415,confidence_buffer,,null,,,,,,,,,,,,,,,,,,,
null,,thebreak,743932,break,,null,,,,,,,,,,,,,,,,,,,
3786,,realistic_rating,747719,Norfolk,,52,Norfolk,4,,,,,,,,,,,,,,,,,
null,,confidence_buffer,747833,confidence_buffer,,null,,,,,,,,,,,,,,,,,,,
2763,,pt2_unique_rating,750597,Norfolk,,50,,2,,,,,,,,,,,,,,,,,
null,,confidence_buffer,750705,confidence_buffer,,null,,,,,,,,,,,,,,,,,,,
1295,,pt2_memorable_rating,752000,Norfolk,,51,,3,,,,,,,,,,,,,,,,,
null,,confidence_buffer,752106,confidence_buffer,,null,,,,,,,,,,,,,,,,,,,
2797,,recognition_phase,754904,Norfolk,,52,,,new,1,0.9259259259259259,,,,,,,,,,,,,,
null,,confidence_buffer,755009,confidence_buffer,,null,,,,,,,,,,,,,,,,,,,
null,,thebreak,755519,break,,null,,,,,,,,,,,,,,,,,,,
2737,,realistic_rating,758257,Marquette,,53,Marquette,5,,,,,,,,,,,,,,,,,
null,,confidence_buffer,758369,confidence_buffer,,null,,,,,,,,,,,,,,,,,,,
2084,,probe_rating,760454,probe_rating,,51,,,,,,3,1,,,,,,,,,,,,
null,,confidence_buffer,760565,confidence_buffer,,null,,,,,,,,,,,,,,,,,,,
3271,,pt2_unique_rating,763837,Marquette,,52,,4,,,,,,,,,,,,,,,,,
null,,confidence_buffer,763951,confidence_buffer,,null,,,,,,,,,,,,,,,,,,,
1363,,pt2_memorable_rating,765316,Marquette,,52,,4,,,,,,,,,,,,,,,,,
null,,confidence_buffer,765424,confidence_buffer,,null,,,,,,,,,,,,,,,,,,,
2799,,recognition_phase,768223,Marquette,,49,,,old,1,0.9285714285714286,,,,,,,,,,,,,,
null,,confidence_buffer,768331,confidence_buffer,,null,,,,,,,,,,,,,,,,,,,
null,,thebreak,768847,break,,null,,,,,,,,,,,,,,,,,,,
3723,,realistic_rating,772571,Decatur,,53,Decatur,5,,,,,,,,,,,,,,,,,
null,,confidence_buffer,772675,confidence_buffer,,null,,,,,,,,,,,,,,,,,,,
1951,,pt2_unique_rating,774627,Decatur,,53,,5,,,,,,,,,,,,,,,,,
null,,confidence_buffer,774740,confidence_buffer,,null,,,,,,,,,,,,,,,,,,,
1179,,pt2_memorable_rating,775919,Decatur,,53,,5,,,,,,,,,,,,,,,,,
null,,confidence_buffer,776027,confidence_buffer,,null,,,,,,,,,,,,,,,,,,,
2638,,recognition_phase,778666,Decatur,,52,,,new,1,0.9310344827586207,,,,,,,,,,,,,,
null,,confidence_buffer,778783,confidence_buffer,,null,,,,,,,,,,,,,,,,,,,
null,,thebreak,779288,break,,null,,,,,,,,,,,,,,,,,,,
3046,,realistic_rating,782335,Muncie,,53,Muncie,5,,,,,,,,,,,,,,,,,
null,,confidence_buffer,782442,confidence_buffer,,null,,,,,,,,,,,,,,,,,,,
4562,,pt2_unique_rating,787005,Muncie,,53,,5,,,,,,,,,,,,,,,,,
null,,confidence_buffer,787107,confidence_buffer,,null,,,,,,,,,,,,,,,,,,,
1833,,pt2_memorable_rating,788941,Muncie,,53,,5,,,,,,,,,,,,,,,,,
null,,confidence_buffer,789043,confidence_buffer,,null,,,,,,,,,,,,,,,,,,,
2702,,recognition_phase,791743,Muncie,,49,,,old,1,0.9333333333333333,,,,,,,,,,,,,,
null,,confidence_buffer,791845,confidence_buffer,,null,,,,,,,,,,,,,,,,,,,
null,,thebreak,792356,break,,null,,,,,,,,,,,,,,,,,,,
6463,,realistic_rating,798819,Fort Wayne,,53,Fort Wayne,5,,,,,,,,,,,,,,,,,
null,,confidence_buffer,798924,confidence_buffer,,null,,,,,,,,,,,,,,,,,,,
2917,,pt2_unique_rating,801840,Fort Wayne,,50,,2,,,,,,,,,,,,,,,,,
null,,confidence_buffer,801956,confidence_buffer,,null,,,,,,,,,,,,,,,,,,,
1710,,pt2_memorable_rating,803666,Fort Wayne,,51,,3,,,,,,,,,,,,,,,,,
null,,confidence_buffer,803775,confidence_buffer,,null,,,,,,,,,,,,,,,,,,,
2960,,recognition_phase,806736,Fort Wayne,,49,,,old,1,0.9354838709677419,,,,,,,,,,,,,,
null,,confidence_buffer,806850,confidence_buffer,,null,,,,,,,,,,,,,,,,,,,
null,,thebreak,807359,break,,null,,,,,,,,,,,,,,,,,,,
2573,,realistic_rating,809934,Pueblo,,53,Pueblo,5,,,,,,,,,,,,,,,,,
null,,confidence_buffer,810049,confidence_buffer,,null,,,,,,,,,,,,,,,,,,,
3699,,pt2_unique_rating,813749,Pueblo,,51,,3,,,,,,,,,,,,,,,,,
null,,confidence_buffer,813866,confidence_buffer,,null,,,,,,,,,,,,,,,,,,,
2216,,pt2_memorable_rating,816083,Pueblo,,52,,4,,,,,,,,,,,,,,,,,
null,,confidence_buffer,816201,confidence_buffer,,null,,,,,,,,,,,,,,,,,,,
2974,,recognition_phase,819176,Pueblo,,52,,,new,1,0.9375,,,,,,,,,,,,,,
null,,confidence_buffer,819277,confidence_buffer,,null,,,,,,,,,,,,,,,,,,,
null,,thebreak,819787,break,,null,,,,,,,,,,,,,,,,,,,
4986,,realistic_rating,824774,Rock Springs,,52,Rock Springs,4,,,,,,,,,,,,,,,,,
null,,confidence_buffer,824880,confidence_buffer,,null,,,,,,,,,,,,,,,,,,,
3243,,pt2_unique_rating,828123,Rock Springs,,50,,2,,,,,,,,,,,,,,,,,
null,,confidence_buffer,828234,confidence_buffer,,null,,,,,,,,,,,,,,,,,,,
2211,,pt2_memorable_rating,830444,Rock Springs,,51,,3,,,,,,,,,,,,,,,,,
null,,confidence_buffer,830558,confidence_buffer,,null,,,,,,,,,,,,,,,,,,,
3184,,recognition_phase,833743,Rock Springs,,52,,,new,1,0.9393939393939394,,,,,,,,,,,,,,
null,,confidence_buffer,833857,confidence_buffer,,null,,,,,,,,,,,,,,,,,,,
null,,thebreak,834371,break,,null,,,,,,,,,,,,,,,,,,,
4738,,realistic_rating,839111,Champaign,,53,Champaign,5,,,,,,,,,,,,,,,,,
null,,confidence_buffer,839216,confidence_buffer,,null,,,,,,,,,,,,,,,,,,,
3074,,pt2_unique_rating,842290,Champaign,,50,,2,,,,,,,,,,,,,,,,,
null,,confidence_buffer,842403,confidence_buffer,,null,,,,,,,,,,,,,,,,,,,
2008,,pt2_memorable_rating,844411,Champaign,,51,,3,,,,,,,,,,,,,,,,,
null,,confidence_buffer,844516,confidence_buffer,,null,,,,,,,,,,,,,,,,,,,
5105,,recognition_phase,849622,Champaign,,51,,,new,1,0.9411764705882353,,,,,,,,,,,,,,
null,,confidence_buffer,849730,confidence_buffer,,null,,,,,,,,,,,,,,,,,,,
null,,thebreak,850243,break,,null,,,,,,,,,,,,,,,,,,,
3836,,realistic_rating,854080,Frankfort,,53,Frankfort,5,,,,,,,,,,,,,,,,,
null,,confidence_buffer,854187,confidence_buffer,,null,,,,,,,,,,,,,,,,,,,
2617,,pt2_unique_rating,856804,Frankfort,,50,,2,,,,,,,,,,,,,,,,,
null,,confidence_buffer,856921,confidence_buffer,,null,,,,,,,,,,,,,,,,,,,
3319,,pt2_memorable_rating,860241,Frankfort,,51,,3,,,,,,,,,,,,,,,,,
null,,confidence_buffer,860358,confidence_buffer,,null,,,,,,,,,,,,,,,,,,,
4096,,recognition_phase,864454,Frankfort,,52,,,new,1,0.9428571428571428,,,,,,,,,,,,,,
null,,confidence_buffer,864567,confidence_buffer,,null,,,,,,,,,,,,,,,,,,,
null,,thebreak,865080,break,,null,,,,,,,,,,,,,,,,,,,
2996,,realistic_rating,868075,Helena,,53,Helena,5,,,,,,,,,,,,,,,,,
null,,confidence_buffer,868182,confidence_buffer,,null,,,,,,,,,,,,,,,,,,,
2192,,pt2_unique_rating,870375,Helena,,51,,3,,,,,,,,,,,,,,,,,
null,,confidence_buffer,870485,confidence_buffer,,null,,,,,,,,,,,,,,,,,,,
1564,,pt2_memorable_rating,872050,Helena,,52,,4,,,,,,,,,,,,,,,,,
null,,confidence_buffer,872162,confidence_buffer,,null,,,,,,,,,,,,,,,,,,,
2623,,recognition_phase,874787,Helena,,52,,,new,1,0.9444444444444444,,,,,,,,,,,,,,
null,,confidence_buffer,874901,confidence_buffer,,null,,,,,,,,,,,,,,,,,,,
null,,thebreak,875409,break,,null,,,,,,,,,,,,,,,,,,,
5150,,realistic_rating,880559,Fort Collins,,53,Fort Collins,5,,,,,,,,,,,,,,,,,
null,,confidence_buffer,880664,confidence_buffer,,null,,,,,,,,,,,,,,,,,,,
1435,,pt2_unique_rating,882100,Fort Collins,,53,,5,,,,,,,,,,,,,,,,,
null,,confidence_buffer,882206,confidence_buffer,,null,,,,,,,,,,,,,,,,,,,
1415,,pt2_memorable_rating,883623,Fort Collins,,51,,3,,,,,,,,,,,,,,,,,
null,,confidence_buffer,883737,confidence_buffer,,null,,,,,,,,,,,,,,,,,,,
3590,,recognition_phase,887328,Fort Collins,,52,,,new,1,0.9459459459459459,,,,,,,,,,,,,,
null,,confidence_buffer,887442,confidence_buffer,,null,,,,,,,,,,,,,,,,,,,
null,,thebreak,887953,break,,null,,,,,,,,,,,,,,,,,,,
2321,,realistic_rating,890276,Hagerstown,,53,Hagerstown,5,,,,,,,,,,,,,,,,,
null,,confidence_buffer,890389,confidence_buffer,,null,,,,,,,,,,,,,,,,,,,
2527,,pt2_unique_rating,892916,Hagerstown,,52,,4,,,,,,,,,,,,,,,,,
null,,confidence_buffer,893024,confidence_buffer,,null,,,,,,,,,,,,,,,,,,,
1417,,pt2_memorable_rating,894443,Hagerstown,,52,,4,,,,,,,,,,,,,,,,,
null,,confidence_buffer,894546,confidence_buffer,,null,,,,,,,,,,,,,,,,,,,
5772,,recognition_phase,900319,Hagerstown,,52,,,new,1,0.9473684210526315,,,,,,,,,,,,,,
null,,confidence_buffer,900427,confidence_buffer,,null,,,,,,,,,,,,,,,,,,,
null,,thebreak,900938,break,,null,,,,,,,,,,,,,,,,,,,
3032,,realistic_rating,903972,Dubuque,,53,Dubuque,5,,,,,,,,,,,,,,,,,
null,,confidence_buffer,904086,confidence_buffer,,null,,,,,,,,,,,,,,,,,,,
1800,,pt2_unique_rating,905886,Dubuque,,52,,4,,,,,,,,,,,,,,,,,
null,,confidence_buffer,905994,confidence_buffer,,null,,,,,,,,,,,,,,,,,,,
1363,,pt2_memorable_rating,907358,Dubuque,,52,,4,,,,,,,,,,,,,,,,,
null,,confidence_buffer,907471,confidence_buffer,,null,,,,,,,,,,,,,,,,,,,
4249,,recognition_phase,911720,Dubuque,,50,,,old,1,0.9487179487179487,,,,,,,,,,,,,,
null,,confidence_buffer,911834,confidence_buffer,,null,,,,,,,,,,,,,,,,,,,
null,,thebreak,912344,break,,null,,,,,,,,,,,,,,,,,,,
4656,,realistic_rating,917001,Concord,,53,Concord,5,,,,,,,,,,,,,,,,,
null,,confidence_buffer,917113,confidence_buffer,,null,,,,,,,,,,,,,,,,,,,
2122,,pt2_unique_rating,919235,Concord,,50,,2,,,,,,,,,,,,,,,,,
null,,confidence_buffer,919341,confidence_buffer,,null,,,,,,,,,,,,,,,,,,,
1113,,pt2_memorable_rating,920454,Concord,,51,,3,,,,,,,,,,,,,,,,,
null,,confidence_buffer,920562,confidence_buffer,,null,,,,,,,,,,,,,,,,,,,
2327,,recognition_phase,922889,Concord,,50,,,old,1,0.95,,,,,,,,,,,,,,
null,,confidence_buffer,923005,confidence_buffer,,null,,,,,,,,,,,,,,,,,,,
null,,thebreak,923516,break,,null,,,,,,,,,,,,,,,,,,,
3484,,realistic_rating,927001,Santa Monica,,53,Santa Monica,5,,,,,,,,,,,,,,,,,
null,,confidence_buffer,927111,confidence_buffer,,null,,,,,,,,,,,,,,,,,,,
3251,,pt2_unique_rating,930364,Santa Monica,,51,,3,,,,,,,,,,,,,,,,,
null,,confidence_buffer,930472,confidence_buffer,,null,,,,,,,,,,,,,,,,,,,
1473,,pt2_memorable_rating,931947,Santa Monica,,51,,3,,,,,,,,,,,,,,,,,
null,,confidence_buffer,932050,confidence_buffer,,null,,,,,,,,,,,,,,,,,,,
2317,,recognition_phase,934366,Santa Monica,,49,,,old,1,0.9512195121951219,,,,,,,,,,,,,,
null,,confidence_buffer,934475,confidence_buffer,,null,,,,,,,,,,,,,,,,,,,
null,,thebreak,934983,break,,null,,,,,,,,,,,,,,,,,,,
2556,,realistic_rating,937540,Salem,,53,Salem,5,,,,,,,,,,,,,,,,,
null,,confidence_buffer,937648,confidence_buffer,,null,,,,,,,,,,,,,,,,,,,
1974,,pt2_unique_rating,939621,Salem,,50,,2,,,,,,,,,,,,,,,,,
null,,confidence_buffer,939730,confidence_buffer,,null,,,,,,,,,,,,,,,,,,,
1409,,pt2_memorable_rating,941140,Salem,,51,,3,,,,,,,,,,,,,,,,,
null,,confidence_buffer,941247,confidence_buffer,,null,,,,,,,,,,,,,,,,,,,
2013,,recognition_phase,943262,Salem,,49,,,old,1,0.9523809523809523,,,,,,,,,,,,,,
null,,confidence_buffer,943374,confidence_buffer,,null,,,,,,,,,,,,,,,,,,,
null,,thebreak,943884,break,,null,,,,,,,,,,,,,,,,,,,
2782,,realistic_rating,946667,Altoona,,53,Altoona,5,,,,,,,,,,,,,,,,,
null,,confidence_buffer,946781,confidence_buffer,,null,,,,,,,,,,,,,,,,,,,
1212,,pt2_unique_rating,947993,Altoona,,53,,5,,,,,,,,,,,,,,,,,
null,,confidence_buffer,948098,confidence_buffer,,null,,,,,,,,,,,,,,,,,,,
1177,,pt2_memorable_rating,949276,Altoona,,53,,5,,,,,,,,,,,,,,,,,
null,,confidence_buffer,949389,confidence_buffer,,null,,,,,,,,,,,,,,,,,,,
1645,,recognition_phase,951036,Altoona,,49,,,old,1,0.9534883720930233,,,,,,,,,,,,,,
null,,confidence_buffer,951151,confidence_buffer,,null,,,,,,,,,,,,,,,,,,,
null,,thebreak,951659,break,,null,,,,,,,,,,,,,,,,,,,
3280,,realistic_rating,954938,Athens,,53,Athens,5,,,,,,,,,,,,,,,,,
null,,confidence_buffer,955040,confidence_buffer,,null,,,,,,,,,,,,,,,,,,,
2239,,pt2_unique_rating,957278,Athens,,50,,2,,,,,,,,,,,,,,,,,
null,,confidence_buffer,957383,confidence_buffer,,null,,,,,,,,,,,,,,,,,,,
1673,,pt2_memorable_rating,959056,Athens,,51,,3,,,,,,,,,,,,,,,,,
null,,confidence_buffer,959157,confidence_buffer,,null,,,,,,,,,,,,,,,,,,,
2607,,probe_rating,961766,probe_rating,,52,,,,,,4,1,,,,,,,,,,,,
null,,confidence_buffer,961882,confidence_buffer,,null,,,,,,,,,,,,,,,,,,,
2290,,recognition_phase,964173,Athens,,49,,,old,1,0.9545454545454546,,,,,,,,,,,,,,
null,,confidence_buffer,964287,confidence_buffer,,null,,,,,,,,,,,,,,,,,,,
null,,thebreak,964796,break,,null,,,,,,,,,,,,,,,,,,,
2913,,realistic_rating,967709,Annapolis,,53,Annapolis,5,,,,,,,,,,,,,,,,,
null,,confidence_buffer,967814,confidence_buffer,,null,,,,,,,,,,,,,,,,,,,
2620,,pt2_unique_rating,970433,Annapolis,,50,,2,,,,,,,,,,,,,,,,,
null,,confidence_buffer,970535,confidence_buffer,,null,,,,,,,,,,,,,,,,,,,
1330,,pt2_memorable_rating,971866,Annapolis,,52,,4,,,,,,,,,,,,,,,,,
null,,confidence_buffer,971976,confidence_buffer,,null,,,,,,,,,,,,,,,,,,,
1567,,recognition_phase,973544,Annapolis,,49,,,old,1,0.9555555555555556,,,,,,,,,,,,,,
null,,confidence_buffer,973656,confidence_buffer,,null,,,,,,,,,,,,,,,,,,,
null,,thebreak,974161,break,,null,,,,,,,,,,,,,,,,,,,
2201,,realistic_rating,976363,Palo Alto,,53,Palo Alto,5,,,,,,,,,,,,,,,,,
null,,confidence_buffer,976474,confidence_buffer,,null,,,,,,,,,,,,,,,,,,,
5853,,pt2_unique_rating,982329,Palo Alto,,53,,5,,,,,,,,,,,,,,,,,
null,,confidence_buffer,982435,confidence_buffer,,null,,,,,,,,,,,,,,,,,,,
1629,,pt2_memorable_rating,984064,Palo Alto,,53,,5,,,,,,,,,,,,,,,,,
null,,confidence_buffer,984175,confidence_buffer,,null,,,,,,,,,,,,,,,,,,,
2446,,probe_rating,986623,probe_rating,,51,,,,,,3,1,,,,,,,,,,,,
null,,confidence_buffer,986735,confidence_buffer,,null,,,,,,,,,,,,,,,,,,,
7376,,recognition_phase,994111,Palo Alto,,51,,,new,1,0.9565217391304348,,,,,,,,,,,,,,
null,,confidence_buffer,994223,confidence_buffer,,null,,,,,,,,,,,,,,,,,,,
null,,thebreak,994734,break,,null,,,,,,,,,,,,,,,,,,,
2784,,realistic_rating,997519,Reno,,53,Reno,5,,,,,,,,,,,,,,,,,
null,,confidence_buffer,997628,confidence_buffer,,null,,,,,,,,,,,,,,,,,,,
2510,,pt2_unique_rating,1000139,Reno,,52,,4,,,,,,,,,,,,,,,,,
null,,confidence_buffer,1000254,confidence_buffer,,null,,,,,,,,,,,,,,,,,,,
1323,,pt2_memorable_rating,1001579,Reno,,52,,4,,,,,,,,,,,,,,,,,
null,,confidence_buffer,1001693,confidence_buffer,,null,,,,,,,,,,,,,,,,,,,
2158,,recognition_phase,1003852,Reno,,49,,,old,1,0.9574468085106383,,,,,,,,,,,,,,
null,,confidence_buffer,1003968,confidence_buffer,,null,,,,,,,,,,,,,,,,,,,
null,,thebreak,1004475,break,,null,,,,,,,,,,,,,,,,,,,
3092,,realistic_rating,1007566,Bellingham,,53,Bellingham,5,,,,,,,,,,,,,,,,,
null,,confidence_buffer,1007672,confidence_buffer,,null,,,,,,,,,,,,,,,,,,,
1975,,probe_rating,1009648,probe_rating,,49,,,,,,1,1,,,,,,,,,,,,
null,,confidence_buffer,1009753,confidence_buffer,,null,,,,,,,,,,,,,,,,,,,
2330,,pt2_unique_rating,1012083,Bellingham,,51,,3,,,,,,,,,,,,,,,,,
null,,confidence_buffer,1012186,confidence_buffer,,null,,,,,,,,,,,,,,,,,,,
1137,,pt2_memorable_rating,1013325,Bellingham,,51,,3,,,,,,,,,,,,,,,,,
null,,confidence_buffer,1013427,confidence_buffer,,null,,,,,,,,,,,,,,,,,,,
3088,,recognition_phase,1016515,Bellingham,,52,,,new,1,0.9583333333333334,,,,,,,,,,,,,,
null,,confidence_buffer,1016624,confidence_buffer,,null,,,,,,,,,,,,,,,,,,,
null,,thebreak,1017135,break,,null,,,,,,,,,,,,,,,,,,,
2356,,realistic_rating,1019491,Abilene,,52,Abilene,4,,,,,,,,,,,,,,,,,
null,,confidence_buffer,1019594,confidence_buffer,,null,,,,,,,,,,,,,,,,,,,
2536,,pt2_unique_rating,1022130,Abilene,,51,,3,,,,,,,,,,,,,,,,,
null,,confidence_buffer,1022236,confidence_buffer,,null,,,,,,,,,,,,,,,,,,,
2141,,pt2_memorable_rating,1024378,Abilene,,51,,3,,,,,,,,,,,,,,,,,
null,,confidence_buffer,1024482,confidence_buffer,,null,,,,,,,,,,,,,,,,,,,
4654,,recognition_phase,1029138,Abilene,,51,,,new,0,0.9387755102040817,,,,,,,,,,,,,,
null,,confidence_buffer,1029243,confidence_buffer,,null,,,,,,,,,,,,,,,,,,,
null,,thebreak,1029744,break,,null,,,,,,,,,,,,,,,,,,,
4742,,realistic_rating,1034487,Cambridge,,53,Cambridge,5,,,,,,,,,,,,,,,,,
null,,confidence_buffer,1034591,confidence_buffer,,null,,,,,,,,,,,,,,,,,,,
2489,,pt2_unique_rating,1037081,Cambridge,,50,,2,,,,,,,,,,,,,,,,,
null,,confidence_buffer,1037191,confidence_buffer,,null,,,,,,,,,,,,,,,,,,,
2139,,pt2_memorable_rating,1039332,Cambridge,,51,,3,,,,,,,,,,,,,,,,,
null,,confidence_buffer,1039440,confidence_buffer,,null,,,,,,,,,,,,,,,,,,,
2638,,recognition_phase,1042079,Cambridge,,49,,,old,1,0.94,,,,,,,,,,,,,,
null,,confidence_buffer,1042184,confidence_buffer,,null,,,,,,,,,,,,,,,,,,,
null,,thebreak,1042689,break,,null,,,,,,,,,,,,,,,,,,,
,,survey,1444148,survey-questions,,,,,,,,,,none,high,Nope,It didn't even occur to me that a strategy would be necessary.  Almost all the names corresponded to a real city I knew of.  ,Most of the names got a high rating here because I knew of a city with those names.,Name is unusual or I've personally visited there got higher ratings.,If I was aware of more than one city with that name; I scored it low; otherwise; high.,Almost every single name corresponded to a city I knew of; so almost every single one got a high rating here.,Nope,Not really.  An interesting and different kind of study.  Good luck!,,
13514,,thank_you,1457688,all_done,,32,,,,,,,,,,,,,,,,,,0,0
