rt,responses,trial_type,time_elapsed,stimulus,button_pressed,key_press,name_trial,rating,probe,probe_accuracy,response,correct,accuracy,problems,smooth,distraction,strategies,familiar,memorable,unique,realistic,similar,comments,detectfocus,warning
23662.199999928474,{worker_id:67e8e0c0be5802df7311d109},id_enter,23664,,,,,,,,,,,,,,,,,,,,,,
1167.9000000953674,,fullscreen,24836,fullscreen,0,,,,,,,,,,,,,,,,,,,,
1461.2000000476837,,intro_0,26300,instruct,,32,,,,,,,,,,,,,,,,,,,
498.40000009536743,,intro_1,26799,instruct,,32,,,,,,,,,,,,,,,,,,,
411.7000000476837,,intro_2,27212,instruct,,32,,,,,,,,,,,,,,,,,,,
null,,instruct_dir_4,28713,instruct,,null,,,,,,,,,,,,,,,,,,,
null,,thebreak,29214,break,,null,,,,,,,,,,,,,,,,,,,
1583.2999999523163,,familiar_rating,30799,Rock Springs,,51,Rock Springs,3,,,,,,,,,,,,,,,,,
null,,confidence_buffer,30901,confidence_buffer,,null,,,,,,,,,,,,,,,,,,,
1372.8999999761581,,unique_rating,32275,Rock Springs,,52,,4,,,,,,,,,,,,,,,,,
null,,confidence_buffer,32376,confidence_buffer,,null,,,,,,,,,,,,,,,,,,,
535.1000000238419,,memorable_rating,32912,Rock Springs,,51,,3,,,,,,,,,,,,,,,,,
null,,confidence_buffer,33013,confidence_buffer,,null,,,,,,,,,,,,,,,,,,,
null,,thebreak,33515,break,,null,,,,,,,,,,,,,,,,,,,
1732.2000000476837,,familiar_rating,35248,Salem,,49,Salem,1,,,,,,,,,,,,,,,,,
null,,confidence_buffer,35350,confidence_buffer,,null,,,,,,,,,,,,,,,,,,,
2297.7999999523163,,probe_rating,37649,probe_rating,,50,,,2,1,,,,,,,,,,,,,,,
null,,confidence_buffer,37752,confidence_buffer,,null,,,,,,,,,,,,,,,,,,,
2483.100000023842,,unique_rating,40236,Salem,,52,,4,,,,,,,,,,,,,,,,,
null,,confidence_buffer,40338,confidence_buffer,,null,,,,,,,,,,,,,,,,,,,
798.6000000238419,,memorable_rating,41137,Salem,,53,,5,,,,,,,,,,,,,,,,,
null,,confidence_buffer,41239,confidence_buffer,,null,,,,,,,,,,,,,,,,,,,
null,,thebreak,41741,break,,null,,,,,,,,,,,,,,,,,,,
1120.2000000476837,,familiar_rating,42862,Las Cruces,,49,Las Cruces,1,,,,,,,,,,,,,,,,,
null,,confidence_buffer,42965,confidence_buffer,,null,,,,,,,,,,,,,,,,,,,
871.7999999523163,,unique_rating,43837,Las Cruces,,51,,3,,,,,,,,,,,,,,,,,
null,,confidence_buffer,43950,confidence_buffer,,null,,,,,,,,,,,,,,,,,,,
536.1000000238419,,memorable_rating,44487,Las Cruces,,50,,2,,,,,,,,,,,,,,,,,
null,,confidence_buffer,44589,confidence_buffer,,null,,,,,,,,,,,,,,,,,,,
null,,thebreak,45091,break,,null,,,,,,,,,,,,,,,,,,,
1295.6000000238419,,familiar_rating,46387,Scottsdale,,51,Scottsdale,3,,,,,,,,,,,,,,,,,
null,,confidence_buffer,46496,confidence_buffer,,null,,,,,,,,,,,,,,,,,,,
603.1999999284744,,unique_rating,47099,Scottsdale,,50,,2,,,,,,,,,,,,,,,,,
null,,confidence_buffer,47202,confidence_buffer,,null,,,,,,,,,,,,,,,,,,,
746.8999999761581,,memorable_rating,47949,Scottsdale,,52,,4,,,,,,,,,,,,,,,,,
null,,confidence_buffer,48052,confidence_buffer,,null,,,,,,,,,,,,,,,,,,,
null,,thebreak,48552,break,,null,,,,,,,,,,,,,,,,,,,
1971.1000000238419,,familiar_rating,50524,Norfolk,,50,Norfolk,2,,,,,,,,,,,,,,,,,
null,,confidence_buffer,50625,confidence_buffer,,null,,,,,,,,,,,,,,,,,,,
1573.2999999523163,,unique_rating,52199,Norfolk,,53,,5,,,,,,,,,,,,,,,,,
null,,confidence_buffer,52302,confidence_buffer,,null,,,,,,,,,,,,,,,,,,,
634.2999999523163,,memorable_rating,52937,Norfolk,,51,,3,,,,,,,,,,,,,,,,,
null,,confidence_buffer,53038,confidence_buffer,,null,,,,,,,,,,,,,,,,,,,
1998.5,,probe_rating,55037,probe_rating,,53,,,5,1,,,,,,,,,,,,,,,
null,,confidence_buffer,55139,confidence_buffer,,null,,,,,,,,,,,,,,,,,,,
null,,thebreak,55640,break,,null,,,,,,,,,,,,,,,,,,,
1744.7000000476837,,familiar_rating,57386,Montpelier,,51,Montpelier,3,,,,,,,,,,,,,,,,,
null,,confidence_buffer,57488,confidence_buffer,,null,,,,,,,,,,,,,,,,,,,
7222.200000047684,,unique_rating,64711,Montpelier,,52,,4,,,,,,,,,,,,,,,,,
null,,confidence_buffer,64813,confidence_buffer,,null,,,,,,,,,,,,,,,,,,,
560.6000000238419,,memorable_rating,65374,Montpelier,,51,,3,,,,,,,,,,,,,,,,,
null,,confidence_buffer,65475,confidence_buffer,,null,,,,,,,,,,,,,,,,,,,
null,,thebreak,65976,break,,null,,,,,,,,,,,,,,,,,,,
972.3000000715256,,familiar_rating,66949,Tallahassee,,49,Tallahassee,1,,,,,,,,,,,,,,,,,
null,,confidence_buffer,67051,confidence_buffer,,null,,,,,,,,,,,,,,,,,,,
522.3999999761581,,unique_rating,67574,Tallahassee,,50,,2,,,,,,,,,,,,,,,,,
null,,confidence_buffer,67675,confidence_buffer,,null,,,,,,,,,,,,,,,,,,,
535.7000000476837,,memorable_rating,68212,Tallahassee,,52,,4,,,,,,,,,,,,,,,,,
null,,confidence_buffer,68314,confidence_buffer,,null,,,,,,,,,,,,,,,,,,,
null,,thebreak,68815,break,,null,,,,,,,,,,,,,,,,,,,
1857.8999999761581,,familiar_rating,70673,Abilene,,50,Abilene,2,,,,,,,,,,,,,,,,,
null,,confidence_buffer,70774,confidence_buffer,,null,,,,,,,,,,,,,,,,,,,
711.9000000953674,,unique_rating,71487,Abilene,,51,,3,,,,,,,,,,,,,,,,,
null,,confidence_buffer,71588,confidence_buffer,,null,,,,,,,,,,,,,,,,,,,
1447.7000000476837,,probe_rating,73037,probe_rating,,51,,,3,1,,,,,,,,,,,,,,,
null,,confidence_buffer,73138,confidence_buffer,,null,,,,,,,,,,,,,,,,,,,
1535.8000000715256,,memorable_rating,74674,Abilene,,49,,1,,,,,,,,,,,,,,,,,
null,,confidence_buffer,74776,confidence_buffer,,null,,,,,,,,,,,,,,,,,,,
null,,thebreak,75277,break,,null,,,,,,,,,,,,,,,,,,,
621.5,,familiar_rating,75900,Gainesville,,51,Gainesville,3,,,,,,,,,,,,,,,,,
null,,confidence_buffer,76001,confidence_buffer,,null,,,,,,,,,,,,,,,,,,,
359.39999997615814,,unique_rating,76362,Gainesville,,52,,4,,,,,,,,,,,,,,,,,
null,,confidence_buffer,76462,confidence_buffer,,null,,,,,,,,,,,,,,,,,,,
436.10000002384186,,memorable_rating,76899,Gainesville,,50,,2,,,,,,,,,,,,,,,,,
null,,confidence_buffer,77012,confidence_buffer,,null,,,,,,,,,,,,,,,,,,,
1324,,probe_rating,78337,probe_rating,,51,,,3,1,,,,,,,,,,,,,,,
null,,confidence_buffer,78438,confidence_buffer,,null,,,,,,,,,,,,,,,,,,,
null,,thebreak,78939,break,,null,,,,,,,,,,,,,,,,,,,
421.60000002384186,,familiar_rating,79362,Pueblo,,49,Pueblo,1,,,,,,,,,,,,,,,,,
null,,confidence_buffer,79463,confidence_buffer,,null,,,,,,,,,,,,,,,,,,,
473.10000002384186,,unique_rating,79937,Pueblo,,51,,3,,,,,,,,,,,,,,,,,
null,,confidence_buffer,80038,confidence_buffer,,null,,,,,,,,,,,,,,,,,,,
360.8000000715256,,memorable_rating,80399,Pueblo,,52,,4,,,,,,,,,,,,,,,,,
null,,confidence_buffer,80504,confidence_buffer,,null,,,,,,,,,,,,,,,,,,,
null,,thebreak,81005,break,,null,,,,,,,,,,,,,,,,,,,
555.8000000715256,,familiar_rating,81562,Helena,,51,Helena,3,,,,,,,,,,,,,,,,,
null,,confidence_buffer,81663,confidence_buffer,,null,,,,,,,,,,,,,,,,,,,
1398,,probe_rating,83062,probe_rating,,51,,,3,1,,,,,,,,,,,,,,,
null,,confidence_buffer,83164,confidence_buffer,,null,,,,,,,,,,,,,,,,,,,
709.1999999284744,,unique_rating,83874,Helena,,50,,2,,,,,,,,,,,,,,,,,
null,,confidence_buffer,83975,confidence_buffer,,null,,,,,,,,,,,,,,,,,,,
335.5,,memorable_rating,84312,Helena,,52,,4,,,,,,,,,,,,,,,,,
null,,confidence_buffer,84413,confidence_buffer,,null,,,,,,,,,,,,,,,,,,,
null,,thebreak,84914,break,,null,,,,,,,,,,,,,,,,,,,
396.39999997615814,,familiar_rating,85312,Champaign,,53,Champaign,5,,,,,,,,,,,,,,,,,
null,,confidence_buffer,85413,confidence_buffer,,null,,,,,,,,,,,,,,,,,,,
872.8999999761581,,unique_rating,86287,Champaign,,52,,4,,,,,,,,,,,,,,,,,
null,,confidence_buffer,86389,confidence_buffer,,null,,,,,,,,,,,,,,,,,,,
572.1000000238419,,memorable_rating,86962,Champaign,,51,,3,,,,,,,,,,,,,,,,,
null,,confidence_buffer,87062,confidence_buffer,,null,,,,,,,,,,,,,,,,,,,
null,,thebreak,87563,break,,null,,,,,,,,,,,,,,,,,,,
485.2999999523163,,familiar_rating,88049,Fort Wayne,,51,Fort Wayne,3,,,,,,,,,,,,,,,,,
null,,confidence_buffer,88150,confidence_buffer,,null,,,,,,,,,,,,,,,,,,,
1135.5,,probe_rating,89287,probe_rating,,49,,,1,1,,,,,,,,,,,,,,,
null,,confidence_buffer,89388,confidence_buffer,,null,,,,,,,,,,,,,,,,,,,
1610,,unique_rating,90999,Fort Wayne,,53,,5,,,,,,,,,,,,,,,,,
null,,confidence_buffer,91101,confidence_buffer,,null,,,,,,,,,,,,,,,,,,,
922.2999999523163,,memorable_rating,92024,Fort Wayne,,52,,4,,,,,,,,,,,,,,,,,
null,,confidence_buffer,92126,confidence_buffer,,null,,,,,,,,,,,,,,,,,,,
null,,thebreak,92627,break,,null,,,,,,,,,,,,,,,,,,,
883.7999999523163,,familiar_rating,93512,Carson City,,51,Carson City,3,,,,,,,,,,,,,,,,,
null,,confidence_buffer,93613,confidence_buffer,,null,,,,,,,,,,,,,,,,,,,
785.1999999284744,,unique_rating,94399,Carson City,,53,,5,,,,,,,,,,,,,,,,,
null,,confidence_buffer,94514,confidence_buffer,,null,,,,,,,,,,,,,,,,,,,
496.6999999284744,,memorable_rating,95011,Carson City,,52,,4,,,,,,,,,,,,,,,,,
null,,confidence_buffer,95113,confidence_buffer,,null,,,,,,,,,,,,,,,,,,,
null,,thebreak,95614,break,,null,,,,,,,,,,,,,,,,,,,
646.6000000238419,,familiar_rating,96262,Muncie,,52,Muncie,4,,,,,,,,,,,,,,,,,
null,,confidence_buffer,96363,confidence_buffer,,null,,,,,,,,,,,,,,,,,,,
398,,unique_rating,96762,Muncie,,51,,3,,,,,,,,,,,,,,,,,
null,,confidence_buffer,96863,confidence_buffer,,null,,,,,,,,,,,,,,,,,,,
385.60000002384186,,memorable_rating,97249,Muncie,,50,,2,,,,,,,,,,,,,,,,,
null,,confidence_buffer,97350,confidence_buffer,,null,,,,,,,,,,,,,,,,,,,
null,,thebreak,97851,break,,null,,,,,,,,,,,,,,,,,,,
409.7000000476837,,familiar_rating,98262,Dover,,51,Dover,3,,,,,,,,,,,,,,,,,
null,,confidence_buffer,98363,confidence_buffer,,null,,,,,,,,,,,,,,,,,,,
547.5,,unique_rating,98912,Dover,,52,,4,,,,,,,,,,,,,,,,,
null,,confidence_buffer,99013,confidence_buffer,,null,,,,,,,,,,,,,,,,,,,
310.2000000476837,,memorable_rating,99324,Dover,,53,,5,,,,,,,,,,,,,,,,,
null,,confidence_buffer,99425,confidence_buffer,,null,,,,,,,,,,,,,,,,,,,
null,,thebreak,99929,break,,null,,,,,,,,,,,,,,,,,,,
393.89999997615814,,familiar_rating,100324,Ann Arbor,,52,Ann Arbor,4,,,,,,,,,,,,,,,,,
null,,confidence_buffer,100426,confidence_buffer,,null,,,,,,,,,,,,,,,,,,,
410.2000000476837,,unique_rating,100837,Ann Arbor,,51,,3,,,,,,,,,,,,,,,,,
null,,confidence_buffer,100937,confidence_buffer,,null,,,,,,,,,,,,,,,,,,,
648.7999999523163,,memorable_rating,101587,Ann Arbor,,50,,2,,,,,,,,,,,,,,,,,
null,,confidence_buffer,101688,confidence_buffer,,null,,,,,,,,,,,,,,,,,,,
null,,thebreak,102189,break,,null,,,,,,,,,,,,,,,,,,,
1183.6999999284744,,familiar_rating,103374,Santa Monica,,53,Santa Monica,5,,,,,,,,,,,,,,,,,
null,,confidence_buffer,103476,confidence_buffer,,null,,,,,,,,,,,,,,,,,,,
810.4000000953674,,unique_rating,104287,Santa Monica,,53,,5,,,,,,,,,,,,,,,,,
null,,confidence_buffer,104388,confidence_buffer,,null,,,,,,,,,,,,,,,,,,,
860.3999999761581,,memorable_rating,105249,Santa Monica,,52,,4,,,,,,,,,,,,,,,,,
null,,confidence_buffer,105351,confidence_buffer,,null,,,,,,,,,,,,,,,,,,,
null,,thebreak,105852,break,,null,,,,,,,,,,,,,,,,,,,
758.6000000238419,,familiar_rating,106612,Boise,,51,Boise,3,,,,,,,,,,,,,,,,,
null,,confidence_buffer,106713,confidence_buffer,,null,,,,,,,,,,,,,,,,,,,
435.5,,unique_rating,107150,Boise,,52,,4,,,,,,,,,,,,,,,,,
null,,confidence_buffer,107252,confidence_buffer,,null,,,,,,,,,,,,,,,,,,,
434.09999990463257,,memorable_rating,107687,Boise,,53,,5,,,,,,,,,,,,,,,,,
null,,confidence_buffer,107787,confidence_buffer,,null,,,,,,,,,,,,,,,,,,,
null,,thebreak,108288,break,,null,,,,,,,,,,,,,,,,,,,
647.8000000715256,,familiar_rating,108937,Marquette,,51,Marquette,3,,,,,,,,,,,,,,,,,
null,,confidence_buffer,109038,confidence_buffer,,null,,,,,,,,,,,,,,,,,,,
435.10000002384186,,unique_rating,109474,Marquette,,52,,4,,,,,,,,,,,,,,,,,
null,,confidence_buffer,109576,confidence_buffer,,null,,,,,,,,,,,,,,,,,,,
347.8000000715256,,memorable_rating,109924,Marquette,,53,,5,,,,,,,,,,,,,,,,,
null,,confidence_buffer,110026,confidence_buffer,,null,,,,,,,,,,,,,,,,,,,
null,,thebreak,110527,break,,null,,,,,,,,,,,,,,,,,,,
384.2000000476837,,familiar_rating,110912,Pasadena,,53,Pasadena,5,,,,,,,,,,,,,,,,,
null,,confidence_buffer,111013,confidence_buffer,,null,,,,,,,,,,,,,,,,,,,
510.7000000476837,,unique_rating,111524,Pasadena,,52,,4,,,,,,,,,,,,,,,,,
null,,confidence_buffer,111626,confidence_buffer,,null,,,,,,,,,,,,,,,,,,,
410,,memorable_rating,112037,Pasadena,,52,,4,,,,,,,,,,,,,,,,,
null,,confidence_buffer,112138,confidence_buffer,,null,,,,,,,,,,,,,,,,,,,
1785.7000000476837,,probe_rating,113924,probe_rating,,53,,,5,1,,,,,,,,,,,,,,,
null,,confidence_buffer,114026,confidence_buffer,,null,,,,,,,,,,,,,,,,,,,
null,,thebreak,114528,break,,null,,,,,,,,,,,,,,,,,,,
1270.7000000476837,,familiar_rating,115799,Bellingham,,52,Bellingham,4,,,,,,,,,,,,,,,,,
null,,confidence_buffer,115902,confidence_buffer,,null,,,,,,,,,,,,,,,,,,,
908.8999999761581,,unique_rating,116811,Bellingham,,51,,3,,,,,,,,,,,,,,,,,
null,,confidence_buffer,116912,confidence_buffer,,null,,,,,,,,,,,,,,,,,,,
648.7000000476837,,memorable_rating,117562,Bellingham,,51,,3,,,,,,,,,,,,,,,,,
null,,confidence_buffer,117663,confidence_buffer,,null,,,,,,,,,,,,,,,,,,,
null,,thebreak,118164,break,,null,,,,,,,,,,,,,,,,,,,
659.7000000476837,,familiar_rating,118824,Bozeman,,52,Bozeman,4,,,,,,,,,,,,,,,,,
null,,confidence_buffer,118926,confidence_buffer,,null,,,,,,,,,,,,,,,,,,,
509.89999997615814,,unique_rating,119437,Bozeman,,52,,4,,,,,,,,,,,,,,,,,
null,,confidence_buffer,119537,confidence_buffer,,null,,,,,,,,,,,,,,,,,,,
298.60000002384186,,memorable_rating,119837,Bozeman,,53,,5,,,,,,,,,,,,,,,,,
null,,confidence_buffer,119938,confidence_buffer,,null,,,,,,,,,,,,,,,,,,,
null,,thebreak,120440,break,,null,,,,,,,,,,,,,,,,,,,
445.6999999284744,,familiar_rating,120886,Palo Alto,,53,Palo Alto,5,,,,,,,,,,,,,,,,,
null,,confidence_buffer,120988,confidence_buffer,,null,,,,,,,,,,,,,,,,,,,
884.6000000238419,,unique_rating,121874,Palo Alto,,53,,5,,,,,,,,,,,,,,,,,
null,,confidence_buffer,121975,confidence_buffer,,null,,,,,,,,,,,,,,,,,,,
398.39999997615814,,memorable_rating,122374,Palo Alto,,52,,4,,,,,,,,,,,,,,,,,
null,,confidence_buffer,122476,confidence_buffer,,null,,,,,,,,,,,,,,,,,,,
null,,thebreak,122978,break,,null,,,,,,,,,,,,,,,,,,,
1158.2000000476837,,familiar_rating,124137,Fort Collins,,51,Fort Collins,3,,,,,,,,,,,,,,,,,
null,,confidence_buffer,124239,confidence_buffer,,null,,,,,,,,,,,,,,,,,,,
510,,unique_rating,124749,Fort Collins,,50,,2,,,,,,,,,,,,,,,,,
null,,confidence_buffer,124851,confidence_buffer,,null,,,,,,,,,,,,,,,,,,,
409.6999999284744,,memorable_rating,125261,Fort Collins,,50,,2,,,,,,,,,,,,,,,,,
null,,confidence_buffer,125363,confidence_buffer,,null,,,,,,,,,,,,,,,,,,,
1610.3999999761581,,probe_rating,126974,probe_rating,,50,,,2,1,,,,,,,,,,,,,,,
null,,confidence_buffer,127075,confidence_buffer,,null,,,,,,,,,,,,,,,,,,,
null,,thebreak,127576,break,,null,,,,,,,,,,,,,,,,,,,
4334.299999952316,,intro_0,131911,instruct,,32,,,,,,,,,,,,,,,,,,,
4499.700000047684,,intro_1,136411,instruct,,32,,,,,,,,,,,,,,,,,,,
6261.600000023842,,intro_2,142673,instruct,,32,,,,,,,,,,,,,,,,,,,
null,,instruct_dir_4,144174,instruct,,null,,,,,,,,,,,,,,,,,,,
3798.100000023842,,realistic_rating,147973,Syracuse,,49,Syracuse,1,,,,,,,,,,,,,,,,,
null,,confidence_buffer,148075,confidence_buffer,,null,,,,,,,,,,,,,,,,,,,
3810.2999999523163,,pt2_unique_rating,151886,Syracuse,,49,,1,,,,,,,,,,,,,,,,,
null,,confidence_buffer,151988,confidence_buffer,,null,,,,,,,,,,,,,,,,,,,
810.8999999761581,,pt2_memorable_rating,152799,Syracuse,,50,,2,,,,,,,,,,,,,,,,,
null,,confidence_buffer,152900,confidence_buffer,,null,,,,,,,,,,,,,,,,,,,
2809.399999976158,,recognition_phase,155711,Syracuse,,52,,,,,new,1,1,,,,,,,,,,,,
null,,confidence_buffer,155812,confidence_buffer,,null,,,,,,,,,,,,,,,,,,,
null,,thebreak,156313,break,,null,,,,,,,,,,,,,,,,,,,
2633.7000000476837,,realistic_rating,158948,Pueblo,,50,Pueblo,2,,,,,,,,,,,,,,,,,
null,,confidence_buffer,159050,confidence_buffer,,null,,,,,,,,,,,,,,,,,,,
985.8000000715256,,pt2_unique_rating,160036,Pueblo,,51,,3,,,,,,,,,,,,,,,,,
null,,confidence_buffer,160138,confidence_buffer,,null,,,,,,,,,,,,,,,,,,,
1898.2999999523163,,probe_rating,162037,probe_rating,,52,,,4,1,,,,,,,,,,,,,,,
null,,confidence_buffer,162137,confidence_buffer,,null,,,,,,,,,,,,,,,,,,,
2372.600000023842,,pt2_memorable_rating,164511,Pueblo,,51,,3,,,,,,,,,,,,,,,,,
null,,confidence_buffer,164613,confidence_buffer,,null,,,,,,,,,,,,,,,,,,,
1860.6999999284744,,recognition_phase,166474,Pueblo,,49,,,,,old,1,1,,,,,,,,,,,,
null,,confidence_buffer,166575,confidence_buffer,,null,,,,,,,,,,,,,,,,,,,
null,,thebreak,167077,break,,null,,,,,,,,,,,,,,,,,,,
1670.8000000715256,,realistic_rating,168748,Dothan,,49,Dothan,1,,,,,,,,,,,,,,,,,
null,,confidence_buffer,168849,confidence_buffer,,null,,,,,,,,,,,,,,,,,,,
1061.7999999523163,,pt2_unique_rating,169911,Dothan,,49,,1,,,,,,,,,,,,,,,,,
null,,confidence_buffer,170012,confidence_buffer,,null,,,,,,,,,,,,,,,,,,,
2147.7000000476837,,pt2_memorable_rating,172161,Dothan,,50,,2,,,,,,,,,,,,,,,,,
null,,confidence_buffer,172262,confidence_buffer,,null,,,,,,,,,,,,,,,,,,,
2535.100000023842,,recognition_phase,174798,Dothan,,51,,,,,new,1,1,,,,,,,,,,,,
null,,confidence_buffer,174900,confidence_buffer,,null,,,,,,,,,,,,,,,,,,,
null,,thebreak,175401,break,,null,,,,,,,,,,,,,,,,,,,
5059,,realistic_rating,180461,Altoona,,49,Altoona,1,,,,,,,,,,,,,,,,,
null,,confidence_buffer,180563,confidence_buffer,,null,,,,,,,,,,,,,,,,,,,
1948,,pt2_unique_rating,182511,Altoona,,49,,1,,,,,,,,,,,,,,,,,
null,,confidence_buffer,182613,confidence_buffer,,null,,,,,,,,,,,,,,,,,,,
1147.6000000238419,,pt2_memorable_rating,183761,Altoona,,51,,3,,,,,,,,,,,,,,,,,
null,,confidence_buffer,183862,confidence_buffer,,null,,,,,,,,,,,,,,,,,,,
4598.5,,recognition_phase,188461,Altoona,,50,,,,,old,0,0.75,,,,,,,,,,,,
null,,confidence_buffer,188562,confidence_buffer,,null,,,,,,,,,,,,,,,,,,,
null,,thebreak,189063,break,,null,,,,,,,,,,,,,,,,,,,
3496.5,,realistic_rating,192561,Cambridge,,52,Cambridge,4,,,,,,,,,,,,,,,,,
null,,confidence_buffer,192662,confidence_buffer,,null,,,,,,,,,,,,,,,,,,,
1787.5,,pt2_unique_rating,194450,Cambridge,,51,,3,,,,,,,,,,,,,,,,,
null,,confidence_buffer,194552,confidence_buffer,,null,,,,,,,,,,,,,,,,,,,
3783,,pt2_memorable_rating,198335,Cambridge,,51,,3,,,,,,,,,,,,,,,,,
null,,confidence_buffer,198437,confidence_buffer,,null,,,,,,,,,,,,,,,,,,,
2060.600000023842,,recognition_phase,200498,Cambridge,,49,,,,,old,0,0.6,,,,,,,,,,,,
null,,confidence_buffer,200599,confidence_buffer,,null,,,,,,,,,,,,,,,,,,,
null,,thebreak,201101,break,,null,,,,,,,,,,,,,,,,,,,
1322.1000000238419,,realistic_rating,202424,Olympia,,50,Olympia,2,,,,,,,,,,,,,,,,,
null,,confidence_buffer,202525,confidence_buffer,,null,,,,,,,,,,,,,,,,,,,
2533.7000000476837,,pt2_unique_rating,205060,Olympia,,51,,3,,,,,,,,,,,,,,,,,
null,,confidence_buffer,205162,confidence_buffer,,null,,,,,,,,,,,,,,,,,,,
861.3000000715256,,pt2_memorable_rating,206024,Olympia,,51,,3,,,,,,,,,,,,,,,,,
null,,confidence_buffer,206125,confidence_buffer,,null,,,,,,,,,,,,,,,,,,,
1761.6999999284744,,recognition_phase,207887,Olympia,,50,,,,,old,0,0.5,,,,,,,,,,,,
null,,confidence_buffer,207989,confidence_buffer,,null,,,,,,,,,,,,,,,,,,,
null,,thebreak,208490,break,,null,,,,,,,,,,,,,,,,,,,
6669.5,,realistic_rating,215161,Cheyenne,,51,Cheyenne,3,,,,,,,,,,,,,,,,,
null,,confidence_buffer,215262,confidence_buffer,,null,,,,,,,,,,,,,,,,,,,
1161.3999999761581,,pt2_unique_rating,216424,Cheyenne,,52,,4,,,,,,,,,,,,,,,,,
null,,confidence_buffer,216525,confidence_buffer,,null,,,,,,,,,,,,,,,,,,,
798.1000000238419,,pt2_memorable_rating,217324,Cheyenne,,52,,4,,,,,,,,,,,,,,,,,
null,,confidence_buffer,217425,confidence_buffer,,null,,,,,,,,,,,,,,,,,,,
1973.1000000238419,,recognition_phase,219399,Cheyenne,,50,,,,,old,0,0.42857142857142855,,,,,,,,,,,,
null,,confidence_buffer,219514,confidence_buffer,,null,,,,,,,,,,,,,,,,,,,
null,,thebreak,220015,break,,null,,,,,,,,,,,,,,,,,,,
1457.7000000476837,,realistic_rating,221474,Bellingham,,52,Bellingham,4,,,,,,,,,,,,,,,,,
null,,confidence_buffer,221575,confidence_buffer,,null,,,,,,,,,,,,,,,,,,,
1848.1999999284744,,pt2_unique_rating,223424,Bellingham,,51,,3,,,,,,,,,,,,,,,,,
null,,confidence_buffer,223525,confidence_buffer,,null,,,,,,,,,,,,,,,,,,,
2210,,pt2_memorable_rating,225736,Bellingham,,51,,3,,,,,,,,,,,,,,,,,
null,,confidence_buffer,225837,confidence_buffer,,null,,,,,,,,,,,,,,,,,,,
5773.5,,recognition_phase,231612,Bellingham,,50,,,,,old,1,0.5,,,,,,,,,,,,
null,,confidence_buffer,231713,confidence_buffer,,null,,,,,,,,,,,,,,,,,,,
null,,thebreak,232214,break,,null,,,,,,,,,,,,,,,,,,,
2383,,realistic_rating,234598,Dubuque,,49,Dubuque,1,,,,,,,,,,,,,,,,,
null,,confidence_buffer,234699,confidence_buffer,,null,,,,,,,,,,,,,,,,,,,
473.60000002384186,,pt2_unique_rating,235174,Dubuque,,50,,2,,,,,,,,,,,,,,,,,
null,,confidence_buffer,235275,confidence_buffer,,null,,,,,,,,,,,,,,,,,,,
535.3000000715256,,pt2_memorable_rating,235811,Dubuque,,51,,3,,,,,,,,,,,,,,,,,
null,,confidence_buffer,235912,confidence_buffer,,null,,,,,,,,,,,,,,,,,,,
7559.800000071526,,recognition_phase,243473,Dubuque,,51,,,,,new,1,0.5555555555555556,,,,,,,,,,,,
null,,confidence_buffer,243575,confidence_buffer,,null,,,,,,,,,,,,,,,,,,,
null,,thebreak,244087,break,,null,,,,,,,,,,,,,,,,,,,
2822.399999976158,,realistic_rating,246910,Youngstown,,49,Youngstown,1,,,,,,,,,,,,,,,,,
null,,confidence_buffer,247012,confidence_buffer,,null,,,,,,,,,,,,,,,,,,,
1073.6000000238419,,pt2_unique_rating,248086,Youngstown,,50,,2,,,,,,,,,,,,,,,,,
null,,confidence_buffer,248188,confidence_buffer,,null,,,,,,,,,,,,,,,,,,,
910.6999999284744,,pt2_memorable_rating,249099,Youngstown,,50,,2,,,,,,,,,,,,,,,,,
null,,confidence_buffer,249200,confidence_buffer,,null,,,,,,,,,,,,,,,,,,,
2146.899999976158,,recognition_phase,251348,Youngstown,,50,,,,,old,0,0.5,,,,,,,,,,,,
null,,confidence_buffer,251450,confidence_buffer,,null,,,,,,,,,,,,,,,,,,,
null,,thebreak,251952,break,,null,,,,,,,,,,,,,,,,,,,
4819.600000023842,,realistic_rating,256772,Rock Springs,,52,Rock Springs,4,,,,,,,,,,,,,,,,,
null,,confidence_buffer,256873,confidence_buffer,,null,,,,,,,,,,,,,,,,,,,
1049.6000000238419,,pt2_unique_rating,257924,Rock Springs,,52,,4,,,,,,,,,,,,,,,,,
null,,confidence_buffer,258025,confidence_buffer,,null,,,,,,,,,,,,,,,,,,,
835.1000000238419,,pt2_memorable_rating,258861,Rock Springs,,51,,3,,,,,,,,,,,,,,,,,
null,,confidence_buffer,258962,confidence_buffer,,null,,,,,,,,,,,,,,,,,,,
1235.8000000715256,,recognition_phase,260199,Rock Springs,,50,,,,,old,1,0.5454545454545454,,,,,,,,,,,,
null,,confidence_buffer,260315,confidence_buffer,,null,,,,,,,,,,,,,,,,,,,
null,,thebreak,260816,break,,null,,,,,,,,,,,,,,,,,,,
2019,,realistic_rating,262836,Muncie,,50,Muncie,2,,,,,,,,,,,,,,,,,
null,,confidence_buffer,262938,confidence_buffer,,null,,,,,,,,,,,,,,,,,,,
1147.2000000476837,,pt2_unique_rating,264086,Muncie,,49,,1,,,,,,,,,,,,,,,,,
null,,confidence_buffer,264187,confidence_buffer,,null,,,,,,,,,,,,,,,,,,,
961,,pt2_memorable_rating,265149,Muncie,,50,,2,,,,,,,,,,,,,,,,,
null,,confidence_buffer,265250,confidence_buffer,,null,,,,,,,,,,,,,,,,,,,
1110.5,,recognition_phase,266361,Muncie,,51,,,,,new,0,0.5,,,,,,,,,,,,
null,,confidence_buffer,266462,confidence_buffer,,null,,,,,,,,,,,,,,,,,,,
null,,thebreak,266963,break,,null,,,,,,,,,,,,,,,,,,,
1696.2999999523163,,realistic_rating,268661,Boise,,50,Boise,2,,,,,,,,,,,,,,,,,
null,,confidence_buffer,268762,confidence_buffer,,null,,,,,,,,,,,,,,,,,,,
4597.199999928474,,pt2_unique_rating,273360,Boise,,51,,3,,,,,,,,,,,,,,,,,
null,,confidence_buffer,273463,confidence_buffer,,null,,,,,,,,,,,,,,,,,,,
2534.5999999046326,,pt2_memorable_rating,275998,Boise,,51,,3,,,,,,,,,,,,,,,,,
null,,confidence_buffer,276099,confidence_buffer,,null,,,,,,,,,,,,,,,,,,,
2098.2000000476837,,recognition_phase,278198,Boise,,51,,,,,new,0,0.46153846153846156,,,,,,,,,,,,
null,,confidence_buffer,278299,confidence_buffer,,null,,,,,,,,,,,,,,,,,,,
null,,thebreak,278801,break,,null,,,,,,,,,,,,,,,,,,,
3845.8000000715256,,realistic_rating,282648,Dover,,50,Dover,2,,,,,,,,,,,,,,,,,
null,,confidence_buffer,282749,confidence_buffer,,null,,,,,,,,,,,,,,,,,,,
773.5,,pt2_unique_rating,283523,Dover,,51,,3,,,,,,,,,,,,,,,,,
null,,confidence_buffer,283625,confidence_buffer,,null,,,,,,,,,,,,,,,,,,,
622.6000000238419,,pt2_memorable_rating,284248,Dover,,50,,2,,,,,,,,,,,,,,,,,
null,,confidence_buffer,284363,confidence_buffer,,null,,,,,,,,,,,,,,,,,,,
1871.8999999761581,,probe_rating,286236,probe_rating,,53,,,5,1,,,,,,,,,,,,,,,
null,,confidence_buffer,286337,confidence_buffer,,null,,,,,,,,,,,,,,,,,,,
3184.100000023842,,recognition_phase,289522,Dover,,51,,,,,new,0,0.42857142857142855,,,,,,,,,,,,
null,,confidence_buffer,289624,confidence_buffer,,null,,,,,,,,,,,,,,,,,,,
null,,thebreak,290125,break,,null,,,,,,,,,,,,,,,,,,,
1734.4000000953674,,realistic_rating,291860,Topeka,,49,Topeka,1,,,,,,,,,,,,,,,,,
null,,confidence_buffer,291962,confidence_buffer,,null,,,,,,,,,,,,,,,,,,,
1111.1999999284744,,pt2_unique_rating,293074,Topeka,,49,,1,,,,,,,,,,,,,,,,,
null,,confidence_buffer,293175,confidence_buffer,,null,,,,,,,,,,,,,,,,,,,
1485,,pt2_memorable_rating,294661,Topeka,,50,,2,,,,,,,,,,,,,,,,,
null,,confidence_buffer,294762,confidence_buffer,,null,,,,,,,,,,,,,,,,,,,
1535.1999999284744,,recognition_phase,296298,Topeka,,51,,,,,new,1,0.4666666666666667,,,,,,,,,,,,
null,,confidence_buffer,296400,confidence_buffer,,null,,,,,,,,,,,,,,,,,,,
null,,thebreak,296902,break,,null,,,,,,,,,,,,,,,,,,,
1870,,realistic_rating,298773,Marquette,,50,Marquette,2,,,,,,,,,,,,,,,,,
null,,confidence_buffer,298874,confidence_buffer,,null,,,,,,,,,,,,,,,,,,,
1311.6999999284744,,pt2_unique_rating,300186,Marquette,,50,,2,,,,,,,,,,,,,,,,,
null,,confidence_buffer,300288,confidence_buffer,,null,,,,,,,,,,,,,,,,,,,
922.9000000953674,,pt2_memorable_rating,301211,Marquette,,50,,2,,,,,,,,,,,,,,,,,
null,,confidence_buffer,301313,confidence_buffer,,null,,,,,,,,,,,,,,,,,,,
1371.9000000953674,,recognition_phase,302686,Marquette,,51,,,,,new,0,0.4375,,,,,,,,,,,,
null,,confidence_buffer,302787,confidence_buffer,,null,,,,,,,,,,,,,,,,,,,
null,,thebreak,303288,break,,null,,,,,,,,,,,,,,,,,,,
859.6000000238419,,realistic_rating,304149,McKinney,,51,McKinney,3,,,,,,,,,,,,,,,,,
null,,confidence_buffer,304250,confidence_buffer,,null,,,,,,,,,,,,,,,,,,,
1497.7999999523163,,pt2_unique_rating,305749,McKinney,,50,,2,,,,,,,,,,,,,,,,,
null,,confidence_buffer,305849,confidence_buffer,,null,,,,,,,,,,,,,,,,,,,
1023.3999999761581,,pt2_memorable_rating,306874,McKinney,,50,,2,,,,,,,,,,,,,,,,,
null,,confidence_buffer,306976,confidence_buffer,,null,,,,,,,,,,,,,,,,,,,
1559.5,,recognition_phase,308536,McKinney,,50,,,,,old,0,0.4117647058823529,,,,,,,,,,,,
null,,confidence_buffer,308638,confidence_buffer,,null,,,,,,,,,,,,,,,,,,,
null,,thebreak,309139,break,,null,,,,,,,,,,,,,,,,,,,
1820.7000000476837,,realistic_rating,310960,Concord,,51,Concord,3,,,,,,,,,,,,,,,,,
null,,confidence_buffer,311062,confidence_buffer,,null,,,,,,,,,,,,,,,,,,,
1248.2000000476837,,pt2_unique_rating,312311,Concord,,52,,4,,,,,,,,,,,,,,,,,
null,,confidence_buffer,312413,confidence_buffer,,null,,,,,,,,,,,,,,,,,,,
1059.5999999046326,,pt2_memorable_rating,313473,Concord,,52,,4,,,,,,,,,,,,,,,,,
null,,confidence_buffer,313574,confidence_buffer,,null,,,,,,,,,,,,,,,,,,,
28984.899999976158,,recognition_phase,342560,Concord,,50,,,,,old,0,0.3888888888888889,,,,,,,,,,,,
null,,confidence_buffer,342662,confidence_buffer,,null,,,,,,,,,,,,,,,,,,,
null,,thebreak,343163,break,,null,,,,,,,,,,,,,,,,,,,
12358.299999952316,,realistic_rating,355522,Abilene,,50,Abilene,2,,,,,,,,,,,,,,,,,
null,,confidence_buffer,355624,confidence_buffer,,null,,,,,,,,,,,,,,,,,,,
1123.5,,pt2_unique_rating,356748,Abilene,,50,,2,,,,,,,,,,,,,,,,,
null,,confidence_buffer,356858,confidence_buffer,,null,,,,,,,,,,,,,,,,,,,
1601.6000000238419,,pt2_memorable_rating,358461,Abilene,,49,,1,,,,,,,,,,,,,,,,,
null,,confidence_buffer,358562,confidence_buffer,,null,,,,,,,,,,,,,,,,,,,
2297.4000000953674,,recognition_phase,360860,Abilene,,51,,,,,new,0,0.3684210526315789,,,,,,,,,,,,
null,,confidence_buffer,360962,confidence_buffer,,null,,,,,,,,,,,,,,,,,,,
null,,thebreak,361462,break,,null,,,,,,,,,,,,,,,,,,,
1160.2000000476837,,realistic_rating,362623,Frankfort,,52,Frankfort,4,,,,,,,,,,,,,,,,,
null,,confidence_buffer,362725,confidence_buffer,,null,,,,,,,,,,,,,,,,,,,
1535.3000000715256,,pt2_unique_rating,364261,Frankfort,,53,,5,,,,,,,,,,,,,,,,,
null,,confidence_buffer,364362,confidence_buffer,,null,,,,,,,,,,,,,,,,,,,
623,,pt2_memorable_rating,364986,Frankfort,,53,,5,,,,,,,,,,,,,,,,,
null,,confidence_buffer,365087,confidence_buffer,,null,,,,,,,,,,,,,,,,,,,
1485.6000000238419,,recognition_phase,366573,Frankfort,,50,,,,,old,0,0.35,,,,,,,,,,,,
null,,confidence_buffer,366674,confidence_buffer,,null,,,,,,,,,,,,,,,,,,,
null,,thebreak,367176,break,,null,,,,,,,,,,,,,,,,,,,
1046.7000000476837,,realistic_rating,368223,Hagerstown,,51,Hagerstown,3,,,,,,,,,,,,,,,,,
null,,confidence_buffer,368324,confidence_buffer,,null,,,,,,,,,,,,,,,,,,,
423,,pt2_unique_rating,368748,Hagerstown,,51,,3,,,,,,,,,,,,,,,,,
null,,confidence_buffer,368851,confidence_buffer,,null,,,,,,,,,,,,,,,,,,,
459,,pt2_memorable_rating,369311,Hagerstown,,51,,3,,,,,,,,,,,,,,,,,
null,,confidence_buffer,369413,confidence_buffer,,null,,,,,,,,,,,,,,,,,,,
1484.7000000476837,,recognition_phase,370898,Hagerstown,,51,,,,,new,1,0.38095238095238093,,,,,,,,,,,,
null,,confidence_buffer,371000,confidence_buffer,,null,,,,,,,,,,,,,,,,,,,
null,,thebreak,371501,break,,null,,,,,,,,,,,,,,,,,,,
1645.6000000238419,,realistic_rating,373148,Terre Haute,,49,Terre Haute,1,,,,,,,,,,,,,,,,,
null,,confidence_buffer,373249,confidence_buffer,,null,,,,,,,,,,,,,,,,,,,
436.5,,pt2_unique_rating,373686,Terre Haute,,49,,1,,,,,,,,,,,,,,,,,
null,,confidence_buffer,373788,confidence_buffer,,null,,,,,,,,,,,,,,,,,,,
309.90000009536743,,pt2_memorable_rating,374098,Terre Haute,,50,,2,,,,,,,,,,,,,,,,,
null,,confidence_buffer,374200,confidence_buffer,,null,,,,,,,,,,,,,,,,,,,
1422.7999999523163,,probe_rating,375623,probe_rating,,51,,,3,1,,,,,,,,,,,,,,,
null,,confidence_buffer,375724,confidence_buffer,,null,,,,,,,,,,,,,,,,,,,
1673.8999999761581,,recognition_phase,377398,Terre Haute,,50,,,,,old,0,0.36363636363636365,,,,,,,,,,,,
null,,confidence_buffer,377508,confidence_buffer,,null,,,,,,,,,,,,,,,,,,,
null,,thebreak,378009,break,,null,,,,,,,,,,,,,,,,,,,
1438.5,,realistic_rating,379448,Helena,,51,Helena,3,,,,,,,,,,,,,,,,,
null,,confidence_buffer,379549,confidence_buffer,,null,,,,,,,,,,,,,,,,,,,
735.7000000476837,,pt2_unique_rating,380286,Helena,,52,,4,,,,,,,,,,,,,,,,,
null,,confidence_buffer,380387,confidence_buffer,,null,,,,,,,,,,,,,,,,,,,
1047.8000000715256,,pt2_memorable_rating,381436,Helena,,51,,3,,,,,,,,,,,,,,,,,
null,,confidence_buffer,381536,confidence_buffer,,null,,,,,,,,,,,,,,,,,,,
3584.899999976158,,recognition_phase,385122,Helena,,51,,,,,new,0,0.34782608695652173,,,,,,,,,,,,
null,,confidence_buffer,385224,confidence_buffer,,null,,,,,,,,,,,,,,,,,,,
null,,thebreak,385726,break,,null,,,,,,,,,,,,,,,,,,,
1159.0999999046326,,realistic_rating,386885,Toledo,,50,Toledo,2,,,,,,,,,,,,,,,,,
null,,confidence_buffer,386987,confidence_buffer,,null,,,,,,,,,,,,,,,,,,,
635.8999999761581,,pt2_unique_rating,387623,Toledo,,50,,2,,,,,,,,,,,,,,,,,
null,,confidence_buffer,387725,confidence_buffer,,null,,,,,,,,,,,,,,,,,,,
334.7999999523163,,pt2_memorable_rating,388061,Toledo,,51,,3,,,,,,,,,,,,,,,,,
null,,confidence_buffer,388162,confidence_buffer,,null,,,,,,,,,,,,,,,,,,,
1360.5,,recognition_phase,389523,Toledo,,50,,,,,old,0,0.3333333333333333,,,,,,,,,,,,
null,,confidence_buffer,389625,confidence_buffer,,null,,,,,,,,,,,,,,,,,,,
null,,thebreak,390129,break,,null,,,,,,,,,,,,,,,,,,,
1729.6000000238419,,realistic_rating,391859,Stamford,,51,Stamford,3,,,,,,,,,,,,,,,,,
null,,confidence_buffer,391972,confidence_buffer,,null,,,,,,,,,,,,,,,,,,,
2799,,probe_rating,394772,probe_rating,,49,,,1,1,,,,,,,,,,,,,,,
null,,confidence_buffer,394873,confidence_buffer,,null,,,,,,,,,,,,,,,,,,,
5299.5,,pt2_unique_rating,400173,Stamford,,52,,4,,,,,,,,,,,,,,,,,
null,,confidence_buffer,400275,confidence_buffer,,null,,,,,,,,,,,,,,,,,,,
1259.3999999761581,,pt2_memorable_rating,401536,Stamford,,51,,3,,,,,,,,,,,,,,,,,
null,,confidence_buffer,401638,confidence_buffer,,null,,,,,,,,,,,,,,,,,,,
1459.3999999761581,,recognition_phase,403098,Stamford,,50,,,,,old,0,0.32,,,,,,,,,,,,
null,,confidence_buffer,403199,confidence_buffer,,null,,,,,,,,,,,,,,,,,,,
null,,thebreak,403701,break,,null,,,,,,,,,,,,,,,,,,,
1908.4000000953674,,realistic_rating,405610,Carson City,,51,Carson City,3,,,,,,,,,,,,,,,,,
null,,confidence_buffer,405712,confidence_buffer,,null,,,,,,,,,,,,,,,,,,,
1835,,pt2_unique_rating,407548,Carson City,,51,,3,,,,,,,,,,,,,,,,,
null,,confidence_buffer,407650,confidence_buffer,,null,,,,,,,,,,,,,,,,,,,
1259.6999999284744,,pt2_memorable_rating,408910,Carson City,,50,,2,,,,,,,,,,,,,,,,,
null,,confidence_buffer,409012,confidence_buffer,,null,,,,,,,,,,,,,,,,,,,
1023,,recognition_phase,410036,Carson City,,50,,,,,old,1,0.34615384615384615,,,,,,,,,,,,
null,,confidence_buffer,410136,confidence_buffer,,null,,,,,,,,,,,,,,,,,,,
null,,thebreak,410637,break,,null,,,,,,,,,,,,,,,,,,,
1073.0999999046326,,realistic_rating,411711,Fargo,,51,Fargo,3,,,,,,,,,,,,,,,,,
null,,confidence_buffer,411812,confidence_buffer,,null,,,,,,,,,,,,,,,,,,,
347.8000000715256,,pt2_unique_rating,412161,Fargo,,52,,4,,,,,,,,,,,,,,,,,
null,,confidence_buffer,412262,confidence_buffer,,null,,,,,,,,,,,,,,,,,,,
498.10000002384186,,pt2_memorable_rating,412761,Fargo,,52,,4,,,,,,,,,,,,,,,,,
null,,confidence_buffer,412862,confidence_buffer,,null,,,,,,,,,,,,,,,,,,,
2309.3000000715256,,recognition_phase,415172,Fargo,,49,,,,,old,0,0.3333333333333333,,,,,,,,,,,,
null,,confidence_buffer,415273,confidence_buffer,,null,,,,,,,,,,,,,,,,,,,
null,,thebreak,415774,break,,null,,,,,,,,,,,,,,,,,,,
1323.7999999523163,,realistic_rating,417098,Las Cruces,,50,Las Cruces,2,,,,,,,,,,,,,,,,,
null,,confidence_buffer,417200,confidence_buffer,,null,,,,,,,,,,,,,,,,,,,
4234,,probe_rating,421434,probe_rating,,52,,,4,1,,,,,,,,,,,,,,,
null,,confidence_buffer,421536,confidence_buffer,,null,,,,,,,,,,,,,,,,,,,
1036.3999999761581,,pt2_unique_rating,422573,Las Cruces,,51,,3,,,,,,,,,,,,,,,,,
null,,confidence_buffer,422675,confidence_buffer,,null,,,,,,,,,,,,,,,,,,,
260.1999999284744,,pt2_memorable_rating,422935,Las Cruces,,51,,3,,,,,,,,,,,,,,,,,
null,,confidence_buffer,423037,confidence_buffer,,null,,,,,,,,,,,,,,,,,,,
1085.6000000238419,,recognition_phase,424123,Las Cruces,,50,,,,,old,1,0.35714285714285715,,,,,,,,,,,,
null,,confidence_buffer,424225,confidence_buffer,,null,,,,,,,,,,,,,,,,,,,
null,,thebreak,424733,break,,null,,,,,,,,,,,,,,,,,,,
1414.5999999046326,,realistic_rating,426148,Ann Arbor,,50,Ann Arbor,2,,,,,,,,,,,,,,,,,
null,,confidence_buffer,426249,confidence_buffer,,null,,,,,,,,,,,,,,,,,,,
535.8999999761581,,pt2_unique_rating,426785,Ann Arbor,,50,,2,,,,,,,,,,,,,,,,,
null,,confidence_buffer,426886,confidence_buffer,,null,,,,,,,,,,,,,,,,,,,
1698.8999999761581,,pt2_memorable_rating,428586,Ann Arbor,,50,,2,,,,,,,,,,,,,,,,,
null,,confidence_buffer,428687,confidence_buffer,,null,,,,,,,,,,,,,,,,,,,
1010.0999999046326,,recognition_phase,429698,Ann Arbor,,51,,,,,new,0,0.3448275862068966,,,,,,,,,,,,
null,,confidence_buffer,429800,confidence_buffer,,null,,,,,,,,,,,,,,,,,,,
null,,thebreak,430302,break,,null,,,,,,,,,,,,,,,,,,,
2907.399999976158,,realistic_rating,433210,Decatur,,50,Decatur,2,,,,,,,,,,,,,,,,,
null,,confidence_buffer,433311,confidence_buffer,,null,,,,,,,,,,,,,,,,,,,
2123.2999999523163,,probe_rating,435435,probe_rating,,53,,,5,1,,,,,,,,,,,,,,,
null,,confidence_buffer,435535,confidence_buffer,,null,,,,,,,,,,,,,,,,,,,
2998.399999976158,,pt2_unique_rating,438535,Decatur,,51,,3,,,,,,,,,,,,,,,,,
null,,confidence_buffer,438647,confidence_buffer,,null,,,,,,,,,,,,,,,,,,,
5873.699999928474,,pt2_memorable_rating,444521,Decatur,,49,,1,,,,,,,,,,,,,,,,,
null,,confidence_buffer,444623,confidence_buffer,,null,,,,,,,,,,,,,,,,,,,
5273.399999976158,,recognition_phase,449897,Decatur,,52,,,,,new,1,0.36666666666666664,,,,,,,,,,,,
null,,confidence_buffer,449999,confidence_buffer,,null,,,,,,,,,,,,,,,,,,,
null,,thebreak,450500,break,,null,,,,,,,,,,,,,,,,,,,
1234.3999999761581,,realistic_rating,451735,Fort Collins,,51,Fort Collins,3,,,,,,,,,,,,,,,,,
null,,confidence_buffer,451836,confidence_buffer,,null,,,,,,,,,,,,,,,,,,,
1410.7000000476837,,pt2_unique_rating,453248,Fort Collins,,52,,4,,,,,,,,,,,,,,,,,
null,,confidence_buffer,453350,confidence_buffer,,null,,,,,,,,,,,,,,,,,,,
1822.4000000953674,,pt2_memorable_rating,455173,Fort Collins,,51,,3,,,,,,,,,,,,,,,,,
null,,confidence_buffer,455274,confidence_buffer,,null,,,,,,,,,,,,,,,,,,,
12473.200000047684,,recognition_phase,467748,Fort Collins,,51,,,,,new,0,0.3548387096774194,,,,,,,,,,,,
null,,confidence_buffer,467850,confidence_buffer,,null,,,,,,,,,,,,,,,,,,,
null,,thebreak,468351,break,,null,,,,,,,,,,,,,,,,,,,
7695.600000023842,,realistic_rating,476047,Fort Wayne,,51,Fort Wayne,3,,,,,,,,,,,,,,,,,
null,,confidence_buffer,476149,confidence_buffer,,null,,,,,,,,,,,,,,,,,,,
1523.2999999523163,,pt2_unique_rating,477673,Fort Wayne,,52,,4,,,,,,,,,,,,,,,,,
null,,confidence_buffer,477774,confidence_buffer,,null,,,,,,,,,,,,,,,,,,,
11584.799999952316,,pt2_memorable_rating,489359,Fort Wayne,,51,,3,,,,,,,,,,,,,,,,,
null,,confidence_buffer,489462,confidence_buffer,,null,,,,,,,,,,,,,,,,,,,
1772.6000000238419,,recognition_phase,491235,Fort Wayne,,49,,,,,old,1,0.375,,,,,,,,,,,,
null,,confidence_buffer,491337,confidence_buffer,,null,,,,,,,,,,,,,,,,,,,
null,,thebreak,491838,break,,null,,,,,,,,,,,,,,,,,,,
3746,,realistic_rating,495584,Annapolis,,51,Annapolis,3,,,,,,,,,,,,,,,,,
null,,confidence_buffer,495686,confidence_buffer,,null,,,,,,,,,,,,,,,,,,,
2072.399999976158,,pt2_unique_rating,497760,Annapolis,,52,,4,,,,,,,,,,,,,,,,,
null,,confidence_buffer,497861,confidence_buffer,,null,,,,,,,,,,,,,,,,,,,
1123.2000000476837,,pt2_memorable_rating,498985,Annapolis,,51,,3,,,,,,,,,,,,,,,,,
null,,confidence_buffer,499087,confidence_buffer,,null,,,,,,,,,,,,,,,,,,,
9184.800000071526,,recognition_phase,508273,Annapolis,,50,,,,,old,0,0.36363636363636365,,,,,,,,,,,,
null,,confidence_buffer,508374,confidence_buffer,,null,,,,,,,,,,,,,,,,,,,
null,,thebreak,508875,break,,null,,,,,,,,,,,,,,,,,,,
1121.2999999523163,,realistic_rating,509998,Reno,,51,Reno,3,,,,,,,,,,,,,,,,,
null,,confidence_buffer,510099,confidence_buffer,,null,,,,,,,,,,,,,,,,,,,
1123.1999999284744,,pt2_unique_rating,511222,Reno,,50,,2,,,,,,,,,,,,,,,,,
null,,confidence_buffer,511325,confidence_buffer,,null,,,,,,,,,,,,,,,,,,,
4971.400000095367,,probe_rating,516297,probe_rating,,51,,,3,1,,,,,,,,,,,,,,,
null,,confidence_buffer,516410,confidence_buffer,,null,,,,,,,,,,,,,,,,,,,
1849.9000000953674,,pt2_memorable_rating,518260,Reno,,52,,4,,,,,,,,,,,,,,,,,
null,,confidence_buffer,518362,confidence_buffer,,null,,,,,,,,,,,,,,,,,,,
2546.600000023842,,recognition_phase,520910,Reno,,50,,,,,old,0,0.35294117647058826,,,,,,,,,,,,
null,,confidence_buffer,521012,confidence_buffer,,null,,,,,,,,,,,,,,,,,,,
null,,thebreak,521513,break,,null,,,,,,,,,,,,,,,,,,,
1583.3000000715256,,realistic_rating,523097,Montpelier,,49,Montpelier,1,,,,,,,,,,,,,,,,,
null,,confidence_buffer,523199,confidence_buffer,,null,,,,,,,,,,,,,,,,,,,
661.6000000238419,,pt2_unique_rating,523861,Montpelier,,50,,2,,,,,,,,,,,,,,,,,
null,,confidence_buffer,523963,confidence_buffer,,null,,,,,,,,,,,,,,,,,,,
709.5999999046326,,pt2_memorable_rating,524673,Montpelier,,50,,2,,,,,,,,,,,,,,,,,
null,,confidence_buffer,524775,confidence_buffer,,null,,,,,,,,,,,,,,,,,,,
2421.2999999523163,,recognition_phase,527197,Montpelier,,51,,,,,new,0,0.34285714285714286,,,,,,,,,,,,
null,,confidence_buffer,527298,confidence_buffer,,null,,,,,,,,,,,,,,,,,,,
null,,thebreak,527799,break,,null,,,,,,,,,,,,,,,,,,,
1559.2000000476837,,realistic_rating,529359,Gainesville,,50,Gainesville,2,,,,,,,,,,,,,,,,,
null,,confidence_buffer,529461,confidence_buffer,,null,,,,,,,,,,,,,,,,,,,
510.5,,pt2_unique_rating,529973,Gainesville,,49,,1,,,,,,,,,,,,,,,,,
null,,confidence_buffer,530074,confidence_buffer,,null,,,,,,,,,,,,,,,,,,,
285.2999999523163,,pt2_memorable_rating,530360,Gainesville,,49,,1,,,,,,,,,,,,,,,,,
null,,confidence_buffer,530461,confidence_buffer,,null,,,,,,,,,,,,,,,,,,,
1761,,probe_rating,532223,probe_rating,,52,,,4,1,,,,,,,,,,,,,,,
null,,confidence_buffer,532325,confidence_buffer,,null,,,,,,,,,,,,,,,,,,,
1759.3000000715256,,recognition_phase,534085,Gainesville,,51,,,,,new,0,0.3333333333333333,,,,,,,,,,,,
null,,confidence_buffer,534187,confidence_buffer,,null,,,,,,,,,,,,,,,,,,,
null,,thebreak,534688,break,,null,,,,,,,,,,,,,,,,,,,
4382.5,,realistic_rating,539072,Santa Monica,,51,Santa Monica,3,,,,,,,,,,,,,,,,,
null,,confidence_buffer,539173,confidence_buffer,,null,,,,,,,,,,,,,,,,,,,
2248.3000000715256,,probe_rating,541422,probe_rating,,50,,,2,1,,,,,,,,,,,,,,,
null,,confidence_buffer,541523,confidence_buffer,,null,,,,,,,,,,,,,,,,,,,
23873.5,,pt2_unique_rating,565397,Santa Monica,,52,,4,,,,,,,,,,,,,,,,,
null,,confidence_buffer,565498,confidence_buffer,,null,,,,,,,,,,,,,,,,,,,
6884.699999928474,,pt2_memorable_rating,572384,Santa Monica,,51,,3,,,,,,,,,,,,,,,,,
null,,confidence_buffer,572486,confidence_buffer,,null,,,,,,,,,,,,,,,,,,,
1922.9000000953674,,recognition_phase,574410,Santa Monica,,50,,,,,old,1,0.35135135135135137,,,,,,,,,,,,
null,,confidence_buffer,574511,confidence_buffer,,null,,,,,,,,,,,,,,,,,,,
null,,thebreak,575012,break,,null,,,,,,,,,,,,,,,,,,,
1534.8000000715256,,realistic_rating,576548,Newport News,,49,Newport News,1,,,,,,,,,,,,,,,,,
null,,confidence_buffer,576649,confidence_buffer,,null,,,,,,,,,,,,,,,,,,,
560,,pt2_unique_rating,577210,Newport News,,50,,2,,,,,,,,,,,,,,,,,
null,,confidence_buffer,577311,confidence_buffer,,null,,,,,,,,,,,,,,,,,,,
973.1000000238419,,pt2_memorable_rating,578285,Newport News,,50,,2,,,,,,,,,,,,,,,,,
null,,confidence_buffer,578386,confidence_buffer,,null,,,,,,,,,,,,,,,,,,,
1422.8999999761581,,recognition_phase,579810,Newport News,,51,,,,,new,1,0.3684210526315789,,,,,,,,,,,,
null,,confidence_buffer,579912,confidence_buffer,,null,,,,,,,,,,,,,,,,,,,
null,,thebreak,580413,break,,null,,,,,,,,,,,,,,,,,,,
1308.8999999761581,,realistic_rating,581723,Tallahassee,,50,Tallahassee,2,,,,,,,,,,,,,,,,,
null,,confidence_buffer,581824,confidence_buffer,,null,,,,,,,,,,,,,,,,,,,
897.8999999761581,,pt2_unique_rating,582722,Tallahassee,,49,,1,,,,,,,,,,,,,,,,,
null,,confidence_buffer,582824,confidence_buffer,,null,,,,,,,,,,,,,,,,,,,
460.2000000476837,,pt2_memorable_rating,583285,Tallahassee,,50,,2,,,,,,,,,,,,,,,,,
null,,confidence_buffer,583386,confidence_buffer,,null,,,,,,,,,,,,,,,,,,,
3347.2999999523163,,recognition_phase,586734,Tallahassee,,51,,,,,new,0,0.358974358974359,,,,,,,,,,,,
null,,confidence_buffer,586836,confidence_buffer,,null,,,,,,,,,,,,,,,,,,,
null,,thebreak,587337,break,,null,,,,,,,,,,,,,,,,,,,
1396.5,,realistic_rating,588735,Ithaca,,49,Ithaca,1,,,,,,,,,,,,,,,,,
null,,confidence_buffer,588836,confidence_buffer,,null,,,,,,,,,,,,,,,,,,,
2423.1999999284744,,probe_rating,591260,probe_rating,,53,,,5,1,,,,,,,,,,,,,,,
null,,confidence_buffer,591361,confidence_buffer,,null,,,,,,,,,,,,,,,,,,,
2372.100000023842,,pt2_unique_rating,593734,Ithaca,,50,,2,,,,,,,,,,,,,,,,,
null,,confidence_buffer,593835,confidence_buffer,,null,,,,,,,,,,,,,,,,,,,
2297.8000000715256,,pt2_memorable_rating,596134,Ithaca,,49,,1,,,,,,,,,,,,,,,,,
null,,confidence_buffer,596235,confidence_buffer,,null,,,,,,,,,,,,,,,,,,,
2123.2999999523163,,recognition_phase,598359,Ithaca,,50,,,,,old,0,0.35,,,,,,,,,,,,
null,,confidence_buffer,598460,confidence_buffer,,null,,,,,,,,,,,,,,,,,,,
null,,thebreak,598961,break,,null,,,,,,,,,,,,,,,,,,,
947.6999999284744,,realistic_rating,599910,Norfolk,,51,Norfolk,3,,,,,,,,,,,,,,,,,
null,,confidence_buffer,600012,confidence_buffer,,null,,,,,,,,,,,,,,,,,,,
1134.6999999284744,,pt2_unique_rating,601147,Norfolk,,52,,4,,,,,,,,,,,,,,,,,
null,,confidence_buffer,601249,confidence_buffer,,null,,,,,,,,,,,,,,,,,,,
1010.4000000953674,,pt2_memorable_rating,602260,Norfolk,,51,,3,,,,,,,,,,,,,,,,,
null,,confidence_buffer,602362,confidence_buffer,,null,,,,,,,,,,,,,,,,,,,
9621.399999976158,,recognition_phase,611984,Norfolk,,50,,,,,old,1,0.36585365853658536,,,,,,,,,,,,
null,,confidence_buffer,612085,confidence_buffer,,null,,,,,,,,,,,,,,,,,,,
null,,thebreak,612586,break,,null,,,,,,,,,,,,,,,,,,,
1235.3999999761581,,realistic_rating,613822,Pasadena,,51,Pasadena,3,,,,,,,,,,,,,,,,,
null,,confidence_buffer,613924,confidence_buffer,,null,,,,,,,,,,,,,,,,,,,
697.7000000476837,,pt2_unique_rating,614622,Pasadena,,52,,4,,,,,,,,,,,,,,,,,
null,,confidence_buffer,614723,confidence_buffer,,null,,,,,,,,,,,,,,,,,,,
723.5,,pt2_memorable_rating,615447,Pasadena,,51,,3,,,,,,,,,,,,,,,,,
null,,confidence_buffer,615549,confidence_buffer,,null,,,,,,,,,,,,,,,,,,,
2133.899999976158,,recognition_phase,617684,Pasadena,,51,,,,,new,0,0.35714285714285715,,,,,,,,,,,,
null,,confidence_buffer,617785,confidence_buffer,,null,,,,,,,,,,,,,,,,,,,
null,,thebreak,618287,break,,null,,,,,,,,,,,,,,,,,,,
1072.3999999761581,,realistic_rating,619360,Peoria,,50,Peoria,2,,,,,,,,,,,,,,,,,
null,,confidence_buffer,619462,confidence_buffer,,null,,,,,,,,,,,,,,,,,,,
1022,,pt2_unique_rating,620485,Peoria,,49,,1,,,,,,,,,,,,,,,,,
null,,confidence_buffer,620587,confidence_buffer,,null,,,,,,,,,,,,,,,,,,,
497.5,,pt2_memorable_rating,621085,Peoria,,49,,1,,,,,,,,,,,,,,,,,
null,,confidence_buffer,621187,confidence_buffer,,null,,,,,,,,,,,,,,,,,,,
1172.1999999284744,,recognition_phase,622360,Peoria,,51,,,,,new,1,0.37209302325581395,,,,,,,,,,,,
null,,confidence_buffer,622461,confidence_buffer,,null,,,,,,,,,,,,,,,,,,,
null,,thebreak,622963,break,,null,,,,,,,,,,,,,,,,,,,
945.5,,realistic_rating,623910,Palo Alto,,52,Palo Alto,4,,,,,,,,,,,,,,,,,
null,,confidence_buffer,624012,confidence_buffer,,null,,,,,,,,,,,,,,,,,,,
572.2000000476837,,pt2_unique_rating,624585,Palo Alto,,53,,5,,,,,,,,,,,,,,,,,
null,,confidence_buffer,624686,confidence_buffer,,null,,,,,,,,,,,,,,,,,,,
559.7000000476837,,pt2_memorable_rating,625247,Palo Alto,,52,,4,,,,,,,,,,,,,,,,,
null,,confidence_buffer,625348,confidence_buffer,,null,,,,,,,,,,,,,,,,,,,
1523.2000000476837,,recognition_phase,626872,Palo Alto,,51,,,,,new,0,0.36363636363636365,,,,,,,,,,,,
null,,confidence_buffer,626974,confidence_buffer,,null,,,,,,,,,,,,,,,,,,,
null,,thebreak,627476,break,,null,,,,,,,,,,,,,,,,,,,
1832.3999999761581,,realistic_rating,629309,Bozeman,,50,Bozeman,2,,,,,,,,,,,,,,,,,
null,,confidence_buffer,629411,confidence_buffer,,null,,,,,,,,,,,,,,,,,,,
622.7000000476837,,pt2_unique_rating,630035,Bozeman,,50,,2,,,,,,,,,,,,,,,,,
null,,confidence_buffer,630136,confidence_buffer,,null,,,,,,,,,,,,,,,,,,,
1285.3999999761581,,pt2_memorable_rating,631422,Bozeman,,51,,3,,,,,,,,,,,,,,,,,
null,,confidence_buffer,631524,confidence_buffer,,null,,,,,,,,,,,,,,,,,,,
1185.1000000238419,,recognition_phase,632710,Bozeman,,50,,,,,old,1,0.37777777777777777,,,,,,,,,,,,
null,,confidence_buffer,632811,confidence_buffer,,null,,,,,,,,,,,,,,,,,,,
null,,thebreak,633312,break,,null,,,,,,,,,,,,,,,,,,,
1046.7999999523163,,realistic_rating,634359,Scottsdale,,51,Scottsdale,3,,,,,,,,,,,,,,,,,
null,,confidence_buffer,634461,confidence_buffer,,null,,,,,,,,,,,,,,,,,,,
1135.1999999284744,,pt2_unique_rating,635597,Scottsdale,,52,,4,,,,,,,,,,,,,,,,,
null,,confidence_buffer,635699,confidence_buffer,,null,,,,,,,,,,,,,,,,,,,
2871.399999976158,,pt2_memorable_rating,638571,Scottsdale,,52,,4,,,,,,,,,,,,,,,,,
null,,confidence_buffer,638672,confidence_buffer,,null,,,,,,,,,,,,,,,,,,,
5210.5,,recognition_phase,643884,Scottsdale,,50,,,,,old,1,0.391304347826087,,,,,,,,,,,,
null,,confidence_buffer,643986,confidence_buffer,,null,,,,,,,,,,,,,,,,,,,
null,,thebreak,644487,break,,null,,,,,,,,,,,,,,,,,,,
1459.6000000238419,,realistic_rating,645947,Salem,,50,Salem,2,,,,,,,,,,,,,,,,,
null,,confidence_buffer,646049,confidence_buffer,,null,,,,,,,,,,,,,,,,,,,
1972.2999999523163,,pt2_unique_rating,648022,Salem,,50,,2,,,,,,,,,,,,,,,,,
null,,confidence_buffer,648124,confidence_buffer,,null,,,,,,,,,,,,,,,,,,,
1722.7000000476837,,pt2_memorable_rating,649847,Salem,,51,,3,,,,,,,,,,,,,,,,,
null,,confidence_buffer,649959,confidence_buffer,,null,,,,,,,,,,,,,,,,,,,
1950,,recognition_phase,651910,Salem,,51,,,,,new,0,0.3829787234042553,,,,,,,,,,,,
null,,confidence_buffer,652012,confidence_buffer,,null,,,,,,,,,,,,,,,,,,,
null,,thebreak,652512,break,,null,,,,,,,,,,,,,,,,,,,
2546.7999999523163,,realistic_rating,655060,Champaign,,52,Champaign,4,,,,,,,,,,,,,,,,,
null,,confidence_buffer,655162,confidence_buffer,,null,,,,,,,,,,,,,,,,,,,
884.5,,pt2_unique_rating,656047,Champaign,,52,,4,,,,,,,,,,,,,,,,,
null,,confidence_buffer,656148,confidence_buffer,,null,,,,,,,,,,,,,,,,,,,
1110.8000000715256,,pt2_memorable_rating,657260,Champaign,,52,,4,,,,,,,,,,,,,,,,,
null,,confidence_buffer,657362,confidence_buffer,,null,,,,,,,,,,,,,,,,,,,
3808.7000000476837,,probe_rating,661171,probe_rating,,49,,,1,1,,,,,,,,,,,,,,,
null,,confidence_buffer,661273,confidence_buffer,,null,,,,,,,,,,,,,,,,,,,
2222.399999976158,,recognition_phase,663496,Champaign,,49,,,,,old,1,0.3958333333333333,,,,,,,,,,,,
null,,confidence_buffer,663597,confidence_buffer,,null,,,,,,,,,,,,,,,,,,,
null,,thebreak,664098,break,,null,,,,,,,,,,,,,,,,,,,
2722.399999976158,,realistic_rating,666822,Athens,,51,Athens,3,,,,,,,,,,,,,,,,,
null,,confidence_buffer,666923,confidence_buffer,,null,,,,,,,,,,,,,,,,,,,
998.7000000476837,,pt2_unique_rating,667922,Athens,,52,,4,,,,,,,,,,,,,,,,,
null,,confidence_buffer,668024,confidence_buffer,,null,,,,,,,,,,,,,,,,,,,
735.1000000238419,,pt2_memorable_rating,668760,Athens,,51,,3,,,,,,,,,,,,,,,,,
null,,confidence_buffer,668861,confidence_buffer,,null,,,,,,,,,,,,,,,,,,,
12036.399999976158,,recognition_phase,680898,Athens,,50,,,,,old,0,0.3877551020408163,,,,,,,,,,,,
null,,confidence_buffer,681000,confidence_buffer,,null,,,,,,,,,,,,,,,,,,,
null,,thebreak,681501,break,,null,,,,,,,,,,,,,,,,,,,
5144.099999904633,,realistic_rating,686646,New Haven,,50,New Haven,2,,,,,,,,,,,,,,,,,
null,,confidence_buffer,686748,confidence_buffer,,null,,,,,,,,,,,,,,,,,,,
1185.8999999761581,,pt2_unique_rating,687935,New Haven,,50,,2,,,,,,,,,,,,,,,,,
null,,confidence_buffer,688037,confidence_buffer,,null,,,,,,,,,,,,,,,,,,,
3758.6999999284744,,pt2_memorable_rating,691796,New Haven,,51,,3,,,,,,,,,,,,,,,,,
null,,confidence_buffer,691898,confidence_buffer,,null,,,,,,,,,,,,,,,,,,,
28548.399999976158,,recognition_phase,720447,New Haven,,51,,,,,new,1,0.4,,,,,,,,,,,,
null,,confidence_buffer,720548,confidence_buffer,,null,,,,,,,,,,,,,,,,,,,
null,,thebreak,721050,break,,null,,,,,,,,,,,,,,,,,,,
,,survey,924562,survey-questions,,,,,,,,,,none,high,No,No particular strategy,
NA,NA,NA,NA,No,No,,
20914.399999976158,,thank_you,945545,all_done,,32,,,,,,,,,,,,,,,,,,14,0
