rt,responses,trial_type,time_elapsed,stimulus,button_pressed,key_press,name_trial,city_type,rating,probe,probe_accuracy,response,correct,accuracy
4127.599999997765,{worker_id:60ecb25ee217144ae792404c},id_enter,4129,,,,,,,,,,,
13482.599999997765,,fullscreen,17615,fullscreen,0,,,,,,,,,
12871.199999999255,,intro_0,30489,instruct,,32,,,,,,,,
14098.300000000745,,intro_1,44591,instruct,,32,,,,,,,,
9503.300000000745,,intro_2,54095,instruct,,32,,,,,,,,
null,,instruct_dir_4,55598,instruct,,null,,,,,,,,
null,,thebreak,56101,break,,null,,,,,,,,
14747.300000000745,,familiar_rating,70850,Millstone,,50,Millstone,Fictional,2,,,,,
null,,confidence_buffer,70954,confidence_buffer,,null,,,,,,,,
10279.5,,unique_rating,81235,Millstone,,50,,,2,,,,,
null,,confidence_buffer,81339,confidence_buffer,,null,,,,,,,,
20372.39999999851,,memorable_rating,101706,Millstone,,50,,,2,,,,,
null,,confidence_buffer,101809,confidence_buffer,,null,,,,,,,,
null,,thebreak,102312,break,,null,,,,,,,,
6741.70000000298,,familiar_rating,109055,Natchez,,49,Natchez,US,1,,,,,
null,,confidence_buffer,109158,confidence_buffer,,null,,,,,,,,
4463.79999999702,,unique_rating,113623,Natchez,,49,,,1,,,,,
null,,confidence_buffer,113727,confidence_buffer,,null,,,,,,,,
9057.60000000149,,memorable_rating,122785,Natchez,,50,,,2,,,,,
null,,confidence_buffer,122888,confidence_buffer,,null,,,,,,,,
null,,thebreak,123390,break,,null,,,,,,,,
11605.199999999255,,familiar_rating,134997,Cleveland,,52,Cleveland,US,4,,,,,
null,,confidence_buffer,135100,confidence_buffer,,null,,,,,,,,
12460.800000000745,,unique_rating,147562,Cleveland,,51,,,3,,,,,
null,,confidence_buffer,147665,confidence_buffer,,null,,,,,,,,
8114.599999997765,,memorable_rating,155781,Cleveland,,51,,,3,,,,,
null,,confidence_buffer,155884,confidence_buffer,,null,,,,,,,,
null,,thebreak,156386,break,,null,,,,,,,,
7393.199999999255,,familiar_rating,163781,Orr,,50,Orr,US,2,,,,,
null,,confidence_buffer,163884,confidence_buffer,,null,,,,,,,,
6942.400000002235,,unique_rating,170828,Orr,,52,,,4,,,,,
null,,confidence_buffer,170932,confidence_buffer,,null,,,,,,,,
6500.5,,memorable_rating,177434,Orr,,51,,,3,,,,,
null,,confidence_buffer,177537,confidence_buffer,,null,,,,,,,,
null,,thebreak,178041,break,,null,,,,,,,,
7546.20000000298,,familiar_rating,185588,Alliance,,50,Alliance,US,2,,,,,
null,,confidence_buffer,185692,confidence_buffer,,null,,,,,,,,
4272.5,,unique_rating,189966,Alliance,,52,,,4,,,,,
null,,confidence_buffer,190069,confidence_buffer,,null,,,,,,,,
5951.5,,memorable_rating,196023,Alliance,,52,,,4,,,,,
null,,confidence_buffer,196126,confidence_buffer,,null,,,,,,,,
null,,thebreak,196628,break,,null,,,,,,,,
6600.89999999851,,familiar_rating,203231,Leesburg,,53,Leesburg,US,5,,,,,
null,,confidence_buffer,203334,confidence_buffer,,null,,,,,,,,
4692.5,,probe_rating,208028,probe_rating,,53,,,,5,1,,,
null,,confidence_buffer,208132,confidence_buffer,,null,,,,,,,,
8410.5,,unique_rating,216544,Leesburg,,52,,,4,,,,,
null,,confidence_buffer,216648,confidence_buffer,,null,,,,,,,,
3719.2000000029802,,memorable_rating,220369,Leesburg,,51,,,3,,,,,
null,,confidence_buffer,220472,confidence_buffer,,null,,,,,,,,
null,,thebreak,220974,break,,null,,,,,,,,
6019.699999999255,,familiar_rating,226996,New Verdan,,49,New Verdan,Fictional,1,,,,,
null,,confidence_buffer,227098,confidence_buffer,,null,,,,,,,,
7498.89999999851,,unique_rating,234599,New Verdan,,52,,,4,,,,,
null,,confidence_buffer,234702,confidence_buffer,,null,,,,,,,,
4065.39999999851,,memorable_rating,238769,New Verdan,,50,,,2,,,,,
null,,confidence_buffer,238872,confidence_buffer,,null,,,,,,,,
null,,thebreak,239375,break,,null,,,,,,,,
10314.800000000745,,familiar_rating,249691,New Hope,,50,New Hope,US,2,,,,,
null,,confidence_buffer,249794,confidence_buffer,,null,,,,,,,,
5204.300000000745,,unique_rating,255000,New Hope,,51,,,3,,,,,
null,,confidence_buffer,255104,confidence_buffer,,null,,,,,,,,
9363.400000002235,,memorable_rating,264469,New Hope,,53,,,5,,,,,
null,,confidence_buffer,264572,confidence_buffer,,null,,,,,,,,
null,,thebreak,265073,break,,null,,,,,,,,
5533.60000000149,,familiar_rating,270608,Sunmere,,49,Sunmere,Fictional,1,,,,,
null,,confidence_buffer,270712,confidence_buffer,,null,,,,,,,,
11252.39999999851,,unique_rating,281966,Sunmere,,51,,,3,,,,,
null,,confidence_buffer,282068,confidence_buffer,,null,,,,,,,,
4707.39999999851,,probe_rating,286778,probe_rating,,53,,,,5,1,,,
null,,confidence_buffer,286881,confidence_buffer,,null,,,,,,,,
10573,,memorable_rating,297455,Sunmere,,50,,,2,,,,,
null,,confidence_buffer,297558,confidence_buffer,,null,,,,,,,,
null,,thebreak,298060,break,,null,,,,,,,,
6305.699999999255,,familiar_rating,304368,Elmsbury,,50,Elmsbury,Fictional,2,,,,,
null,,confidence_buffer,304471,confidence_buffer,,null,,,,,,,,
5690.70000000298,,unique_rating,310164,Elmsbury,,51,,,3,,,,,
null,,confidence_buffer,310267,confidence_buffer,,null,,,,,,,,
4704.400000002235,,memorable_rating,314974,Elmsbury,,50,,,2,,,,,
null,,confidence_buffer,315076,confidence_buffer,,null,,,,,,,,
null,,thebreak,315579,break,,null,,,,,,,,
10973.39999999851,,familiar_rating,326554,Carmel,,53,Carmel,US,5,,,,,
null,,confidence_buffer,326656,confidence_buffer,,null,,,,,,,,
6218,,unique_rating,332876,Carmel,,51,,,3,,,,,
null,,confidence_buffer,332979,confidence_buffer,,null,,,,,,,,
2584.900000002235,,probe_rating,335566,probe_rating,,51,,,,3,1,,,
null,,confidence_buffer,335669,confidence_buffer,,null,,,,,,,,
5968.900000002235,,memorable_rating,341639,Carmel,,52,,,4,,,,,
null,,confidence_buffer,341742,confidence_buffer,,null,,,,,,,,
null,,thebreak,342245,break,,null,,,,,,,,
6669.400000002235,,familiar_rating,348915,Hanover,,52,Hanover,US,4,,,,,
null,,confidence_buffer,349018,confidence_buffer,,null,,,,,,,,
6983.29999999702,,unique_rating,356003,Hanover,,50,,,2,,,,,
null,,confidence_buffer,356107,confidence_buffer,,null,,,,,,,,
3640.60000000149,,memorable_rating,359749,Hanover,,51,,,3,,,,,
null,,confidence_buffer,359853,confidence_buffer,,null,,,,,,,,
null,,thebreak,360356,break,,null,,,,,,,,
7033.10000000149,,familiar_rating,367391,Sitka,,50,Sitka,US,2,,,,,
null,,confidence_buffer,367494,confidence_buffer,,null,,,,,,,,
6271.300000000745,,unique_rating,373767,Sitka,,53,,,5,,,,,
null,,confidence_buffer,373870,confidence_buffer,,null,,,,,,,,
2613.10000000149,,probe_rating,376485,probe_rating,,49,,,,1,1,,,
null,,confidence_buffer,376589,confidence_buffer,,null,,,,,,,,
6394.10000000149,,memorable_rating,382984,Sitka,,51,,,3,,,,,
null,,confidence_buffer,383088,confidence_buffer,,null,,,,,,,,
null,,thebreak,383591,break,,null,,,,,,,,
5723.70000000298,,familiar_rating,389316,Park City,,52,Park City,US,4,,,,,
null,,confidence_buffer,389419,confidence_buffer,,null,,,,,,,,
6103.10000000149,,unique_rating,395524,Park City,,50,,,2,,,,,
null,,confidence_buffer,395627,confidence_buffer,,null,,,,,,,,
5328.60000000149,,memorable_rating,400958,Park City,,52,,,4,,,,,
null,,confidence_buffer,401061,confidence_buffer,,null,,,,,,,,
null,,thebreak,401563,break,,null,,,,,,,,
5768.300000000745,,familiar_rating,407333,Fairhaven,,52,Fairhaven,Fictional,4,,,,,
null,,confidence_buffer,407437,confidence_buffer,,null,,,,,,,,
3808.10000000149,,unique_rating,411246,Fairhaven,,51,,,3,,,,,
null,,confidence_buffer,411348,confidence_buffer,,null,,,,,,,,
8554.60000000149,,memorable_rating,419904,Fairhaven,,51,,,3,,,,,
null,,confidence_buffer,420007,confidence_buffer,,null,,,,,,,,
null,,thebreak,420511,break,,null,,,,,,,,
5956.300000000745,,familiar_rating,426469,Bayshore Haven,,49,Bayshore Haven,Fictional,1,,,,,
null,,confidence_buffer,426572,confidence_buffer,,null,,,,,,,,
4946.699999999255,,unique_rating,431520,Bayshore Haven,,52,,,4,,,,,
null,,confidence_buffer,431623,confidence_buffer,,null,,,,,,,,
10050.60000000149,,memorable_rating,441675,Bayshore Haven,,49,,,1,,,,,
null,,confidence_buffer,441778,confidence_buffer,,null,,,,,,,,
null,,thebreak,442281,break,,null,,,,,,,,
4110.199999999255,,familiar_rating,446393,Linden Trace,,49,Linden Trace,Fictional,1,,,,,
null,,confidence_buffer,446495,confidence_buffer,,null,,,,,,,,
9063.400000002235,,unique_rating,455560,Linden Trace,,53,,,5,,,,,
null,,confidence_buffer,455664,confidence_buffer,,null,,,,,,,,
4832.699999999255,,memorable_rating,460498,Linden Trace,,51,,,3,,,,,
null,,confidence_buffer,460601,confidence_buffer,,null,,,,,,,,
null,,thebreak,461104,break,,null,,,,,,,,
7678.199999999255,,familiar_rating,468783,Montelake,,49,Montelake,Fictional,1,,,,,
null,,confidence_buffer,468886,confidence_buffer,,null,,,,,,,,
2645.39999999851,,probe_rating,471533,probe_rating,,53,,,,5,1,,,
null,,confidence_buffer,471636,confidence_buffer,,null,,,,,,,,
5986.300000000745,,unique_rating,477624,Montelake,,52,,,4,,,,,
null,,confidence_buffer,477728,confidence_buffer,,null,,,,,,,,
6054.400000002235,,memorable_rating,483784,Montelake,,50,,,2,,,,,
null,,confidence_buffer,483887,confidence_buffer,,null,,,,,,,,
null,,thebreak,484390,break,,null,,,,,,,,
7950.10000000149,,familiar_rating,492341,Cody,,51,Cody,US,3,,,,,
null,,confidence_buffer,492444,confidence_buffer,,null,,,,,,,,
4166.60000000149,,unique_rating,496613,Cody,,52,,,4,,,,,
null,,confidence_buffer,496716,confidence_buffer,,null,,,,,,,,
6261.199999999255,,memorable_rating,502979,Cody,,52,,,4,,,,,
null,,confidence_buffer,503082,confidence_buffer,,null,,,,,,,,
null,,thebreak,503584,break,,null,,,,,,,,
9297.099999997765,,familiar_rating,512883,Yukon,,50,Yukon,US,2,,,,,
null,,confidence_buffer,512986,confidence_buffer,,null,,,,,,,,
3940.39999999851,,unique_rating,516928,Yukon,,52,,,4,,,,,
null,,confidence_buffer,517030,confidence_buffer,,null,,,,,,,,
3818.10000000149,,memorable_rating,520850,Yukon,,52,,,4,,,,,
null,,confidence_buffer,520953,confidence_buffer,,null,,,,,,,,
null,,thebreak,521456,break,,null,,,,,,,,
4411.900000002235,,familiar_rating,525869,Rosehollow,,49,Rosehollow,Fictional,1,,,,,
null,,confidence_buffer,525973,confidence_buffer,,null,,,,,,,,
5851.60000000149,,unique_rating,531826,Rosehollow,,52,,,4,,,,,
null,,confidence_buffer,531929,confidence_buffer,,null,,,,,,,,
5266.5,,memorable_rating,537197,Rosehollow,,50,,,2,,,,,
null,,confidence_buffer,537300,confidence_buffer,,null,,,,,,,,
null,,thebreak,537803,break,,null,,,,,,,,
7950.199999999255,,familiar_rating,545754,Summershade,,49,Summershade,Fictional,1,,,,,
null,,confidence_buffer,545858,confidence_buffer,,null,,,,,,,,
3584.099999997765,,unique_rating,549444,Summershade,,52,,,4,,,,,
null,,confidence_buffer,549546,confidence_buffer,,null,,,,,,,,
4464.300000000745,,memorable_rating,554012,Summershade,,51,,,3,,,,,
null,,confidence_buffer,554115,confidence_buffer,,null,,,,,,,,
null,,thebreak,554619,break,,null,,,,,,,,
5544.5,,familiar_rating,560165,Coralridge,,49,Coralridge,Fictional,1,,,,,
null,,confidence_buffer,560268,confidence_buffer,,null,,,,,,,,
6270,,unique_rating,566540,Coralridge,,53,,,5,,,,,
null,,confidence_buffer,566642,confidence_buffer,,null,,,,,,,,
3790.599999997765,,memorable_rating,570434,Coralridge,,51,,,3,,,,,
null,,confidence_buffer,570537,confidence_buffer,,null,,,,,,,,
null,,thebreak,571040,break,,null,,,,,,,,
5140.199999999255,,familiar_rating,576182,Pine Hollow,,49,Pine Hollow,Fictional,1,,,,,
null,,confidence_buffer,576285,confidence_buffer,,null,,,,,,,,
4653.5,,unique_rating,580940,Pine Hollow,,52,,,4,,,,,
null,,confidence_buffer,581044,confidence_buffer,,null,,,,,,,,
5956.699999999255,,memorable_rating,587002,Pine Hollow,,51,,,3,,,,,
null,,confidence_buffer,587105,confidence_buffer,,null,,,,,,,,
null,,thebreak,587608,break,,null,,,,,,,,
8926.89999999851,,familiar_rating,596536,Highvale,,50,Highvale,Fictional,2,,,,,
null,,confidence_buffer,596639,confidence_buffer,,null,,,,,,,,
7515.699999999255,,unique_rating,604156,Highvale,,52,,,4,,,,,
null,,confidence_buffer,604259,confidence_buffer,,null,,,,,,,,
4143.89999999851,,memorable_rating,608405,Highvale,,51,,,3,,,,,
null,,confidence_buffer,608508,confidence_buffer,,null,,,,,,,,
2328.400000002235,,probe_rating,610838,probe_rating,,52,,,,4,1,,,
null,,confidence_buffer,610942,confidence_buffer,,null,,,,,,,,
null,,thebreak,611445,break,,null,,,,,,,,
5820.800000000745,,familiar_rating,617267,Racine,,51,Racine,US,3,,,,,
null,,confidence_buffer,617371,confidence_buffer,,null,,,,,,,,
7308.5,,unique_rating,624681,Racine,,53,,,5,,,,,
null,,confidence_buffer,624785,confidence_buffer,,null,,,,,,,,
3500.400000002235,,memorable_rating,628287,Racine,,51,,,3,,,,,
null,,confidence_buffer,628390,confidence_buffer,,null,,,,,,,,
null,,thebreak,628893,break,,null,,,,,,,,
3656.60000000149,,familiar_rating,632551,Driftwood Bay,,49,Driftwood Bay,Fictional,1,,,,,
null,,confidence_buffer,632655,confidence_buffer,,null,,,,,,,,
9326.10000000149,,unique_rating,641982,Driftwood Bay,,52,,,4,,,,,
null,,confidence_buffer,642085,confidence_buffer,,null,,,,,,,,
3177.400000002235,,memorable_rating,645264,Driftwood Bay,,50,,,2,,,,,
null,,confidence_buffer,645368,confidence_buffer,,null,,,,,,,,
null,,thebreak,645870,break,,null,,,,,,,,
7251.5,,familiar_rating,653123,Hilo,,51,Hilo,US,3,,,,,
null,,confidence_buffer,653227,confidence_buffer,,null,,,,,,,,
5321.39999999851,,unique_rating,658550,Hilo,,53,,,5,,,,,
null,,confidence_buffer,658653,confidence_buffer,,null,,,,,,,,
1921.4000000022352,,probe_rating,660577,probe_rating,,53,,,,5,1,,,
null,,confidence_buffer,660680,confidence_buffer,,null,,,,,,,,
8413.89999999851,,memorable_rating,669096,Hilo,,52,,,4,,,,,
null,,confidence_buffer,669199,confidence_buffer,,null,,,,,,,,
null,,thebreak,669701,break,,null,,,,,,,,
5728.10000000149,,familiar_rating,675431,Meadowspire,,49,Meadowspire,Fictional,1,,,,,
null,,confidence_buffer,675535,confidence_buffer,,null,,,,,,,,
2840.099999997765,,unique_rating,678377,Meadowspire,,52,,,4,,,,,
null,,confidence_buffer,678480,confidence_buffer,,null,,,,,,,,
4098.10000000149,,memorable_rating,682580,Meadowspire,,50,,,2,,,,,
null,,confidence_buffer,682683,confidence_buffer,,null,,,,,,,,
null,,thebreak,683186,break,,null,,,,,,,,
8483.099999997765,,familiar_rating,691670,Barnard,,50,Barnard,US,2,,,,,
null,,confidence_buffer,691774,confidence_buffer,,null,,,,,,,,
3567,,unique_rating,695343,Barnard,,52,,,4,,,,,
null,,confidence_buffer,695446,confidence_buffer,,null,,,,,,,,
5061,,memorable_rating,700508,Barnard,,51,,,3,,,,,
null,,confidence_buffer,700612,confidence_buffer,,null,,,,,,,,
null,,thebreak,701114,break,,null,,,,,,,,
6208.199999999255,,intro_0,707324,instruct,,32,,,,,,,,
9916.5,,intro_1,717242,instruct,,32,,,,,,,,
75033.80000000075,,intro_2,792275,instruct,,32,,,,,,,,
null,,instruct_dir_4,793778,instruct,,null,,,,,,,,
18229.70000000298,,realistic_rating,812009,Hollendale,,52,Hollendale,Fictional,4,,,,,
null,,confidence_buffer,812113,confidence_buffer,,null,,,,,,,,
6348.099999997765,,pt2_unique_rating,818463,Hollendale,,52,,,4,,,,,
null,,confidence_buffer,818566,confidence_buffer,,null,,,,,,,,
4396,,pt2_memorable_rating,822963,Hollendale,,51,,,3,,,,,
null,,confidence_buffer,823066,confidence_buffer,,null,,,,,,,,
7279.39999999851,,recognition_phase,830347,Hollendale,,51,,,,,,new,1,1
null,,confidence_buffer,830451,confidence_buffer,,null,,,,,,,,
null,,thebreak,830954,break,,null,,,,,,,,
21383.599999997765,,realistic_rating,852339,Driftwood Bay,,51,Driftwood Bay,Fictional,3,,,,,
null,,confidence_buffer,852442,confidence_buffer,,null,,,,,,,,
5910.099999997765,,pt2_unique_rating,858354,Driftwood Bay,,51,,,3,,,,,
null,,confidence_buffer,858459,confidence_buffer,,null,,,,,,,,
6729.199999999255,,pt2_memorable_rating,865190,Driftwood Bay,,52,,,4,,,,,
null,,confidence_buffer,865292,confidence_buffer,,null,,,,,,,,
4626.5,,recognition_phase,869921,Driftwood Bay,,49,,,,,,old,1,1
null,,confidence_buffer,870024,confidence_buffer,,null,,,,,,,,
null,,thebreak,870527,break,,null,,,,,,,,
7526.39999999851,,realistic_rating,878055,New Hope,,51,New Hope,US,3,,,,,
null,,confidence_buffer,878158,confidence_buffer,,null,,,,,,,,
9792,,pt2_unique_rating,887951,New Hope,,52,,,4,,,,,
null,,confidence_buffer,888055,confidence_buffer,,null,,,,,,,,
6776.300000000745,,pt2_memorable_rating,894833,New Hope,,51,,,3,,,,,
null,,confidence_buffer,894936,confidence_buffer,,null,,,,,,,,
8020.599999997765,,recognition_phase,902958,New Hope,,49,,,,,,old,1,1
null,,confidence_buffer,903060,confidence_buffer,,null,,,,,,,,
null,,thebreak,903563,break,,null,,,,,,,,
17009.89999999851,,realistic_rating,920575,Sammamish,,50,Sammamish,US,2,,,,,
null,,confidence_buffer,920678,confidence_buffer,,null,,,,,,,,
3308.5,,pt2_unique_rating,923988,Sammamish,,52,,,4,,,,,
null,,confidence_buffer,924091,confidence_buffer,,null,,,,,,,,
2548.599999997765,,probe_rating,926641,probe_rating,,50,,,,2,1,,,
null,,confidence_buffer,926745,confidence_buffer,,null,,,,,,,,
4456.10000000149,,pt2_memorable_rating,931203,Sammamish,,50,,,2,,,,,
null,,confidence_buffer,931306,confidence_buffer,,null,,,,,,,,
4416.699999999255,,recognition_phase,935724,Sammamish,,49,,,,,,old,0,0.75
null,,confidence_buffer,935828,confidence_buffer,,null,,,,,,,,
null,,thebreak,936330,break,,null,,,,,,,,
8520.10000000149,,realistic_rating,944852,Sitka,,51,Sitka,US,3,,,,,
null,,confidence_buffer,944956,confidence_buffer,,null,,,,,,,,
7739.300000000745,,pt2_unique_rating,952696,Sitka,,52,,,4,,,,,
null,,confidence_buffer,952799,confidence_buffer,,null,,,,,,,,
5181.39999999851,,pt2_memorable_rating,957982,Sitka,,51,,,3,,,,,
null,,confidence_buffer,958085,confidence_buffer,,null,,,,,,,,
3596.10000000149,,recognition_phase,961683,Sitka,,49,,,,,,old,1,0.8
null,,confidence_buffer,961787,confidence_buffer,,null,,,,,,,,
null,,thebreak,962290,break,,null,,,,,,,,
9059.5,,realistic_rating,971351,Montelake,,50,Montelake,Fictional,2,,,,,
null,,confidence_buffer,971454,confidence_buffer,,null,,,,,,,,
5847,,pt2_unique_rating,977303,Montelake,,52,,,4,,,,,
null,,confidence_buffer,977407,confidence_buffer,,null,,,,,,,,
3590.199999999255,,pt2_memorable_rating,980999,Montelake,,50,,,2,,,,,
null,,confidence_buffer,981102,confidence_buffer,,null,,,,,,,,
2497.5,,recognition_phase,983601,Montelake,,49,,,,,,old,1,0.8333333333333334
null,,confidence_buffer,983704,confidence_buffer,,null,,,,,,,,
null,,thebreak,984207,break,,null,,,,,,,,
11495.10000000149,,realistic_rating,995704,Highvale,,51,Highvale,Fictional,3,,,,,
null,,confidence_buffer,995807,confidence_buffer,,null,,,,,,,,
5293.10000000149,,pt2_unique_rating,1001102,Highvale,,51,,,3,,,,,
null,,confidence_buffer,1001205,confidence_buffer,,null,,,,,,,,
3861.199999999255,,pt2_memorable_rating,1005067,Highvale,,51,,,3,,,,,
null,,confidence_buffer,1005170,confidence_buffer,,null,,,,,,,,
2298,,probe_rating,1007470,probe_rating,,52,,,,4,1,,,
null,,confidence_buffer,1007574,confidence_buffer,,null,,,,,,,,
5265.89999999851,,recognition_phase,1012841,Highvale,,50,,,,,,old,1,0.8571428571428571
null,,confidence_buffer,1012944,confidence_buffer,,null,,,,,,,,
null,,thebreak,1013447,break,,null,,,,,,,,
18603.199999999255,,realistic_rating,1032051,Abilene,,53,Abilene,US,5,,,,,
null,,confidence_buffer,1032154,confidence_buffer,,null,,,,,,,,
4731.599999997765,,pt2_unique_rating,1036888,Abilene,,52,,,4,,,,,
null,,confidence_buffer,1036990,confidence_buffer,,null,,,,,,,,
3621.300000000745,,pt2_memorable_rating,1040613,Abilene,,52,,,4,,,,,
null,,confidence_buffer,1040716,confidence_buffer,,null,,,,,,,,
2132.599999997765,,probe_rating,1042851,probe_rating,,52,,,,4,1,,,
null,,confidence_buffer,1042954,confidence_buffer,,null,,,,,,,,
4769.79999999702,,recognition_phase,1047726,Abilene,,52,,,,,,new,1,0.875
null,,confidence_buffer,1047829,confidence_buffer,,null,,,,,,,,
null,,thebreak,1048332,break,,null,,,,,,,,
7681.699999999255,,realistic_rating,1056015,Bar Harbor,,53,Bar Harbor,US,5,,,,,
null,,confidence_buffer,1056118,confidence_buffer,,null,,,,,,,,
3907.60000000149,,pt2_unique_rating,1060027,Bar Harbor,,52,,,4,,,,,
null,,confidence_buffer,1060130,confidence_buffer,,null,,,,,,,,
4135,,pt2_memorable_rating,1064267,Bar Harbor,,53,,,5,,,,,
null,,confidence_buffer,1064370,confidence_buffer,,null,,,,,,,,
3889.699999999255,,recognition_phase,1068262,Bar Harbor,,52,,,,,,new,1,0.8888888888888888
null,,confidence_buffer,1068365,confidence_buffer,,null,,,,,,,,
null,,thebreak,1068868,break,,null,,,,,,,,
9710.79999999702,,realistic_rating,1078581,Sunmere,,51,Sunmere,Fictional,3,,,,,
null,,confidence_buffer,1078684,confidence_buffer,,null,,,,,,,,
6717.699999999255,,pt2_unique_rating,1085403,Sunmere,,52,,,4,,,,,
null,,confidence_buffer,1085507,confidence_buffer,,null,,,,,,,,
4494.199999999255,,pt2_memorable_rating,1090003,Sunmere,,50,,,2,,,,,
null,,confidence_buffer,1090106,confidence_buffer,,null,,,,,,,,
3361.800000000745,,recognition_phase,1093470,Sunmere,,49,,,,,,old,1,0.9
null,,confidence_buffer,1093573,confidence_buffer,,null,,,,,,,,
null,,thebreak,1094076,break,,null,,,,,,,,
14006.10000000149,,realistic_rating,1108084,New Verdan,,51,New Verdan,Fictional,3,,,,,
null,,confidence_buffer,1108187,confidence_buffer,,null,,,,,,,,
5411.10000000149,,pt2_unique_rating,1113600,New Verdan,,52,,,4,,,,,
null,,confidence_buffer,1113703,confidence_buffer,,null,,,,,,,,
2619.800000000745,,pt2_memorable_rating,1116325,New Verdan,,50,,,2,,,,,
null,,confidence_buffer,1116428,confidence_buffer,,null,,,,,,,,
2463.099999997765,,recognition_phase,1118893,New Verdan,,49,,,,,,old,1,0.9090909090909091
null,,confidence_buffer,1118996,confidence_buffer,,null,,,,,,,,
null,,thebreak,1119499,break,,null,,,,,,,,
9870.39999999851,,realistic_rating,1129371,Hawthorne Bluffs,,51,Hawthorne Bluffs,Fictional,3,,,,,
null,,confidence_buffer,1129474,confidence_buffer,,null,,,,,,,,
3773.099999997765,,pt2_unique_rating,1133249,Hawthorne Bluffs,,52,,,4,,,,,
null,,confidence_buffer,1133352,confidence_buffer,,null,,,,,,,,
2866.2999999970198,,probe_rating,1136220,probe_rating,,53,,,,5,1,,,
null,,confidence_buffer,1136323,confidence_buffer,,null,,,,,,,,
6062.60000000149,,pt2_memorable_rating,1142387,Hawthorne Bluffs,,50,,,2,,,,,
null,,confidence_buffer,1142489,confidence_buffer,,null,,,,,,,,
5383.39999999851,,recognition_phase,1147874,Hawthorne Bluffs,,52,,,,,,new,1,0.9166666666666666
null,,confidence_buffer,1147978,confidence_buffer,,null,,,,,,,,
null,,thebreak,1148481,break,,null,,,,,,,,
8602.20000000298,,realistic_rating,1157085,Assateague Island,,50,Assateague Island,US,2,,,,,
null,,confidence_buffer,1157188,confidence_buffer,,null,,,,,,,,
4717.39999999851,,pt2_unique_rating,1161907,Assateague Island,,53,,,5,,,,,
null,,confidence_buffer,1162010,confidence_buffer,,null,,,,,,,,
4261.5,,pt2_memorable_rating,1166273,Assateague Island,,51,,,3,,,,,
null,,confidence_buffer,1166376,confidence_buffer,,null,,,,,,,,
4022,,recognition_phase,1170400,Assateague Island,,52,,,,,,new,1,0.9230769230769231
null,,confidence_buffer,1170503,confidence_buffer,,null,,,,,,,,
null,,thebreak,1171006,break,,null,,,,,,,,
3847,,realistic_rating,1174855,Bisbee,,51,Bisbee,US,3,,,,,
null,,confidence_buffer,1174957,confidence_buffer,,null,,,,,,,,
6282.300000000745,,pt2_unique_rating,1181241,Bisbee,,52,,,4,,,,,
null,,confidence_buffer,1181345,confidence_buffer,,null,,,,,,,,
3194.5,,pt2_memorable_rating,1184541,Bisbee,,52,,,4,,,,,
null,,confidence_buffer,1184644,confidence_buffer,,null,,,,,,,,
2593.60000000149,,recognition_phase,1187240,Bisbee,,52,,,,,,new,1,0.9285714285714286
null,,confidence_buffer,1187343,confidence_buffer,,null,,,,,,,,
null,,thebreak,1187846,break,,null,,,,,,,,
7776.10000000149,,realistic_rating,1195623,Rosehollow,,51,Rosehollow,Fictional,3,,,,,
null,,confidence_buffer,1195727,confidence_buffer,,null,,,,,,,,
3518.89999999851,,pt2_unique_rating,1199247,Rosehollow,,51,,,3,,,,,
null,,confidence_buffer,1199350,confidence_buffer,,null,,,,,,,,
5711.70000000298,,pt2_memorable_rating,1205064,Rosehollow,,52,,,4,,,,,
null,,confidence_buffer,1205168,confidence_buffer,,null,,,,,,,,
4501.900000002235,,recognition_phase,1209671,Rosehollow,,52,,,,,,new,0,0.8666666666666667
null,,confidence_buffer,1209775,confidence_buffer,,null,,,,,,,,
null,,thebreak,1210277,break,,null,,,,,,,,
8980.900000002235,,realistic_rating,1219260,Alliance,,51,Alliance,US,3,,,,,
null,,confidence_buffer,1219363,confidence_buffer,,null,,,,,,,,
3661.300000000745,,pt2_unique_rating,1223026,Alliance,,52,,,4,,,,,
null,,confidence_buffer,1223129,confidence_buffer,,null,,,,,,,,
2934.5,,pt2_memorable_rating,1226066,Alliance,,52,,,4,,,,,
null,,confidence_buffer,1226169,confidence_buffer,,null,,,,,,,,
2702.599999997765,,recognition_phase,1228874,Alliance,,49,,,,,,old,1,0.875
null,,confidence_buffer,1228977,confidence_buffer,,null,,,,,,,,
null,,thebreak,1229480,break,,null,,,,,,,,
5879.10000000149,,realistic_rating,1235361,Riverlyn,,51,Riverlyn,Fictional,3,,,,,
null,,confidence_buffer,1235464,confidence_buffer,,null,,,,,,,,
4721.79999999702,,pt2_unique_rating,1240187,Riverlyn,,53,,,5,,,,,
null,,confidence_buffer,1240290,confidence_buffer,,null,,,,,,,,
2627.199999999255,,pt2_memorable_rating,1242920,Riverlyn,,51,,,3,,,,,
null,,confidence_buffer,1243022,confidence_buffer,,null,,,,,,,,
3724.39999999851,,recognition_phase,1246748,Riverlyn,,52,,,,,,new,1,0.8823529411764706
null,,confidence_buffer,1246851,confidence_buffer,,null,,,,,,,,
null,,thebreak,1247354,break,,null,,,,,,,,
5967.10000000149,,realistic_rating,1253322,Cody,,51,Cody,US,3,,,,,
null,,confidence_buffer,1253426,confidence_buffer,,null,,,,,,,,
5623,,pt2_unique_rating,1259051,Cody,,52,,,4,,,,,
null,,confidence_buffer,1259155,confidence_buffer,,null,,,,,,,,
4454.900000002235,,pt2_memorable_rating,1263611,Cody,,53,,,5,,,,,
null,,confidence_buffer,1263715,confidence_buffer,,null,,,,,,,,
3193.39999999851,,recognition_phase,1266910,Cody,,49,,,,,,old,1,0.8888888888888888
null,,confidence_buffer,1267013,confidence_buffer,,null,,,,,,,,
null,,thebreak,1267515,break,,null,,,,,,,,
8865.5,,realistic_rating,1276382,Folly Beach,,50,Folly Beach,US,2,,,,,
null,,confidence_buffer,1276484,confidence_buffer,,null,,,,,,,,
5881.10000000149,,pt2_unique_rating,1282366,Folly Beach,,51,,,3,,,,,
null,,confidence_buffer,1282470,confidence_buffer,,null,,,,,,,,
4026.5,,pt2_memorable_rating,1286498,Folly Beach,,52,,,4,,,,,
null,,confidence_buffer,1286601,confidence_buffer,,null,,,,,,,,
3411.599999997765,,recognition_phase,1290015,Folly Beach,,52,,,,,,new,1,0.8947368421052632
null,,confidence_buffer,1290117,confidence_buffer,,null,,,,,,,,
null,,thebreak,1290620,break,,null,,,,,,,,
6726.5,,realistic_rating,1297348,Cornwall,,53,Cornwall,US,5,,,,,
null,,confidence_buffer,1297451,confidence_buffer,,null,,,,,,,,
4143.300000000745,,pt2_unique_rating,1301596,Cornwall,,51,,,3,,,,,
null,,confidence_buffer,1301700,confidence_buffer,,null,,,,,,,,
2898,,pt2_memorable_rating,1304600,Cornwall,,52,,,4,,,,,
null,,confidence_buffer,1304703,confidence_buffer,,null,,,,,,,,
2991.199999999255,,recognition_phase,1307696,Cornwall,,52,,,,,,new,1,0.9
null,,confidence_buffer,1307799,confidence_buffer,,null,,,,,,,,
null,,thebreak,1308302,break,,null,,,,,,,,
5252.699999999255,,realistic_rating,1313557,Watkins Glen,,53,Watkins Glen,US,5,,,,,
null,,confidence_buffer,1313660,confidence_buffer,,null,,,,,,,,
3458.599999997765,,pt2_unique_rating,1317120,Watkins Glen,,52,,,4,,,,,
null,,confidence_buffer,1317223,confidence_buffer,,null,,,,,,,,
2852.89999999851,,pt2_memorable_rating,1320078,Watkins Glen,,52,,,4,,,,,
null,,confidence_buffer,1320181,confidence_buffer,,null,,,,,,,,
2061.5,,probe_rating,1322244,probe_rating,,53,,,,5,1,,,
null,,confidence_buffer,1322347,confidence_buffer,,null,,,,,,,,
3393.5,,recognition_phase,1325743,Watkins Glen,,52,,,,,,new,1,0.9047619047619048
null,,confidence_buffer,1325846,confidence_buffer,,null,,,,,,,,
null,,thebreak,1326349,break,,null,,,,,,,,
8692,,realistic_rating,1335043,Golden Trace,,50,Golden Trace,Fictional,2,,,,,
null,,confidence_buffer,1335145,confidence_buffer,,null,,,,,,,,
4597.900000002235,,pt2_unique_rating,1339744,Golden Trace,,52,,,4,,,,,
null,,confidence_buffer,1339848,confidence_buffer,,null,,,,,,,,
2928.89999999851,,pt2_memorable_rating,1342778,Golden Trace,,51,,,3,,,,,
null,,confidence_buffer,1342881,confidence_buffer,,null,,,,,,,,
6437.400000002235,,recognition_phase,1349321,Golden Trace,,52,,,,,,new,1,0.9090909090909091
null,,confidence_buffer,1349424,confidence_buffer,,null,,,,,,,,
null,,thebreak,1349927,break,,null,,,,,,,,
6069.800000000745,,realistic_rating,1355998,Okoboji,,51,Okoboji,US,3,,,,,
null,,confidence_buffer,1356101,confidence_buffer,,null,,,,,,,,
2235.5,,probe_rating,1358339,probe_rating,,50,,,,2,1,,,
null,,confidence_buffer,1358442,confidence_buffer,,null,,,,,,,,
4267.599999997765,,pt2_unique_rating,1362712,Okoboji,,53,,,5,,,,,
null,,confidence_buffer,1362815,confidence_buffer,,null,,,,,,,,
4518.699999999255,,pt2_memorable_rating,1367336,Okoboji,,52,,,4,,,,,
null,,confidence_buffer,1367439,confidence_buffer,,null,,,,,,,,
2569.89999999851,,recognition_phase,1370011,Okoboji,,52,,,,,,new,1,0.9130434782608695
null,,confidence_buffer,1370114,confidence_buffer,,null,,,,,,,,
null,,thebreak,1370617,break,,null,,,,,,,,
4895,,realistic_rating,1375513,Ironwood Heights,,51,Ironwood Heights,Fictional,3,,,,,
null,,confidence_buffer,1375616,confidence_buffer,,null,,,,,,,,
4327.300000000745,,pt2_unique_rating,1379945,Ironwood Heights,,52,,,4,,,,,
null,,confidence_buffer,1380047,confidence_buffer,,null,,,,,,,,
4191.099999997765,,pt2_memorable_rating,1384240,Ironwood Heights,,51,,,3,,,,,
null,,confidence_buffer,1384342,confidence_buffer,,null,,,,,,,,
7038.599999997765,,recognition_phase,1391383,Ironwood Heights,,52,,,,,,new,1,0.9166666666666666
null,,confidence_buffer,1391486,confidence_buffer,,null,,,,,,,,
null,,thebreak,1391988,break,,null,,,,,,,,
7744.89999999851,,realistic_rating,1399735,Bayshore Haven,,51,Bayshore Haven,Fictional,3,,,,,
null,,confidence_buffer,1399838,confidence_buffer,,null,,,,,,,,
3465.60000000149,,pt2_unique_rating,1403306,Bayshore Haven,,51,,,3,,,,,
null,,confidence_buffer,1403409,confidence_buffer,,null,,,,,,,,
4931.5,,pt2_memorable_rating,1408343,Bayshore Haven,,51,,,3,,,,,
null,,confidence_buffer,1408446,confidence_buffer,,null,,,,,,,,
5019.70000000298,,recognition_phase,1413468,Bayshore Haven,,51,,,,,,new,0,0.88
null,,confidence_buffer,1413571,confidence_buffer,,null,,,,,,,,
null,,thebreak,1414074,break,,null,,,,,,,,
4112.70000000298,,realistic_rating,1418189,Livingston,,51,Livingston,US,3,,,,,
null,,confidence_buffer,1418292,confidence_buffer,,null,,,,,,,,
5455.800000000745,,pt2_unique_rating,1423750,Livingston,,50,,,2,,,,,
null,,confidence_buffer,1423853,confidence_buffer,,null,,,,,,,,
5739.699999999255,,pt2_memorable_rating,1429595,Livingston,,52,,,4,,,,,
null,,confidence_buffer,1429698,confidence_buffer,,null,,,,,,,,
2873.300000000745,,recognition_phase,1432573,Livingston,,52,,,,,,new,1,0.8846153846153846
null,,confidence_buffer,1432676,confidence_buffer,,null,,,,,,,,
null,,thebreak,1433179,break,,null,,,,,,,,
17039.10000000149,,realistic_rating,1450219,Carmel,,51,Carmel,US,3,,,,,
null,,confidence_buffer,1450321,confidence_buffer,,null,,,,,,,,
2207.39999999851,,probe_rating,1452531,probe_rating,,49,,,,1,1,,,
null,,confidence_buffer,1452634,confidence_buffer,,null,,,,,,,,
10033.89999999851,,pt2_unique_rating,1462669,Carmel,,52,,,4,,,,,
null,,confidence_buffer,1462773,confidence_buffer,,null,,,,,,,,
5343.699999999255,,pt2_memorable_rating,1468118,Carmel,,52,,,4,,,,,
null,,confidence_buffer,1468221,confidence_buffer,,null,,,,,,,,
2521.800000000745,,recognition_phase,1470745,Carmel,,49,,,,,,old,1,0.8888888888888888
null,,confidence_buffer,1470848,confidence_buffer,,null,,,,,,,,
null,,thebreak,1471350,break,,null,,,,,,,,
8686.300000000745,,realistic_rating,1480038,Juniper Creek,,53,Juniper Creek,Fictional,5,,,,,
null,,confidence_buffer,1480141,confidence_buffer,,null,,,,,,,,
8128.89999999851,,pt2_unique_rating,1488272,Juniper Creek,,52,,,4,,,,,
null,,confidence_buffer,1488374,confidence_buffer,,null,,,,,,,,
5723.099999997765,,pt2_memorable_rating,1494099,Juniper Creek,,51,,,3,,,,,
null,,confidence_buffer,1494202,confidence_buffer,,null,,,,,,,,
3485.2999999970198,,recognition_phase,1497689,Juniper Creek,,51,,,,,,new,1,0.8928571428571429
null,,confidence_buffer,1497793,confidence_buffer,,null,,,,,,,,
null,,thebreak,1498295,break,,null,,,,,,,,
8202.89999999851,,realistic_rating,1506500,West Talora,,50,West Talora,Fictional,2,,,,,
null,,confidence_buffer,1506602,confidence_buffer,,null,,,,,,,,
2903.699999999255,,pt2_unique_rating,1509507,West Talora,,51,,,3,,,,,
null,,confidence_buffer,1509611,confidence_buffer,,null,,,,,,,,
4089.89999999851,,pt2_memorable_rating,1513702,West Talora,,50,,,2,,,,,
null,,confidence_buffer,1513805,confidence_buffer,,null,,,,,,,,
3532.800000000745,,recognition_phase,1517339,West Talora,,52,,,,,,new,1,0.896551724137931
null,,confidence_buffer,1517442,confidence_buffer,,null,,,,,,,,
null,,thebreak,1517945,break,,null,,,,,,,,
8332.599999997765,,realistic_rating,1526279,Park City,,53,Park City,US,5,,,,,
null,,confidence_buffer,1526382,confidence_buffer,,null,,,,,,,,
10234.5,,pt2_unique_rating,1536618,Park City,,52,,,4,,,,,
null,,confidence_buffer,1536721,confidence_buffer,,null,,,,,,,,
2846.599999997765,,pt2_memorable_rating,1539570,Park City,,52,,,4,,,,,
null,,confidence_buffer,1539674,confidence_buffer,,null,,,,,,,,
4288.599999997765,,recognition_phase,1543964,Park City,,49,,,,,,old,1,0.9
null,,confidence_buffer,1544068,confidence_buffer,,null,,,,,,,,
null,,thebreak,1544571,break,,null,,,,,,,,
13395.89999999851,,realistic_rating,1557968,Coralridge,,51,Coralridge,Fictional,3,,,,,
null,,confidence_buffer,1558072,confidence_buffer,,null,,,,,,,,
4231.199999999255,,pt2_unique_rating,1562305,Coralridge,,51,,,3,,,,,
null,,confidence_buffer,1562408,confidence_buffer,,null,,,,,,,,
3947.39999999851,,pt2_memorable_rating,1566358,Coralridge,,51,,,3,,,,,
null,,confidence_buffer,1566460,confidence_buffer,,null,,,,,,,,
4116.199999999255,,recognition_phase,1570578,Coralridge,,50,,,,,,old,1,0.9032258064516129
null,,confidence_buffer,1570682,confidence_buffer,,null,,,,,,,,
null,,thebreak,1571185,break,,null,,,,,,,,
11930.099999997765,,realistic_rating,1583117,Orr,,52,Orr,US,4,,,,,
null,,confidence_buffer,1583220,confidence_buffer,,null,,,,,,,,
5143.5,,pt2_unique_rating,1588366,Orr,,53,,,5,,,,,
null,,confidence_buffer,1588469,confidence_buffer,,null,,,,,,,,
3099.699999999255,,pt2_memorable_rating,1591570,Orr,,52,,,4,,,,,
null,,confidence_buffer,1591673,confidence_buffer,,null,,,,,,,,
5081.5,,recognition_phase,1596756,Orr,,52,,,,,,new,0,0.875
null,,confidence_buffer,1596858,confidence_buffer,,null,,,,,,,,
null,,thebreak,1597362,break,,null,,,,,,,,
8406.800000000745,,realistic_rating,1605770,Hilo,,53,Hilo,US,5,,,,,
null,,confidence_buffer,1605873,confidence_buffer,,null,,,,,,,,
4008.199999999255,,pt2_unique_rating,1609883,Hilo,,52,,,4,,,,,
null,,confidence_buffer,1609986,confidence_buffer,,null,,,,,,,,
5119.89999999851,,pt2_memorable_rating,1615108,Hilo,,53,,,5,,,,,
null,,confidence_buffer,1615211,confidence_buffer,,null,,,,,,,,
3448.2000000029802,,recognition_phase,1618661,Hilo,,49,,,,,,old,1,0.8787878787878788
null,,confidence_buffer,1618763,confidence_buffer,,null,,,,,,,,
null,,thebreak,1619266,break,,null,,,,,,,,
8885.699999999255,,realistic_rating,1628154,Summershade,,51,Summershade,Fictional,3,,,,,
null,,confidence_buffer,1628257,confidence_buffer,,null,,,,,,,,
6871.199999999255,,pt2_unique_rating,1635130,Summershade,,52,,,4,,,,,
null,,confidence_buffer,1635234,confidence_buffer,,null,,,,,,,,
3191.699999999255,,pt2_memorable_rating,1638427,Summershade,,51,,,3,,,,,
null,,confidence_buffer,1638530,confidence_buffer,,null,,,,,,,,
3756,,recognition_phase,1642288,Summershade,,50,,,,,,old,1,0.8823529411764706
null,,confidence_buffer,1642391,confidence_buffer,,null,,,,,,,,
null,,thebreak,1642894,break,,null,,,,,,,,
6546.300000000745,,realistic_rating,1649442,Hot Springs,,51,Hot Springs,US,3,,,,,
null,,confidence_buffer,1649546,confidence_buffer,,null,,,,,,,,
5179.400000002235,,pt2_unique_rating,1654727,Hot Springs,,51,,,3,,,,,
null,,confidence_buffer,1654830,confidence_buffer,,null,,,,,,,,
3715.900000002235,,pt2_memorable_rating,1658548,Hot Springs,,52,,,4,,,,,
null,,confidence_buffer,1658652,confidence_buffer,,null,,,,,,,,
6089.699999999255,,recognition_phase,1664744,Hot Springs,,52,,,,,,new,1,0.8857142857142857
null,,confidence_buffer,1664847,confidence_buffer,,null,,,,,,,,
null,,thebreak,1665350,break,,null,,,,,,,,
10990.79999999702,,realistic_rating,1676342,Baymarsh,,51,Baymarsh,Fictional,3,,,,,
null,,confidence_buffer,1676446,confidence_buffer,,null,,,,,,,,
3772.89999999851,,pt2_unique_rating,1680221,Baymarsh,,51,,,3,,,,,
null,,confidence_buffer,1680324,confidence_buffer,,null,,,,,,,,
2558.5,,pt2_memorable_rating,1682884,Baymarsh,,50,,,2,,,,,
null,,confidence_buffer,1682988,confidence_buffer,,null,,,,,,,,
2744,,recognition_phase,1685734,Baymarsh,,52,,,,,,new,1,0.8888888888888888
null,,confidence_buffer,1685837,confidence_buffer,,null,,,,,,,,
null,,thebreak,1686339,break,,null,,,,,,,,
13218.300000000745,,realistic_rating,1699559,East Ladera,,52,East Ladera,Fictional,4,,,,,
null,,confidence_buffer,1699662,confidence_buffer,,null,,,,,,,,
3274.7999999970198,,pt2_unique_rating,1702939,East Ladera,,52,,,4,,,,,
null,,confidence_buffer,1703043,confidence_buffer,,null,,,,,,,,
2533.39999999851,,pt2_memorable_rating,1705578,East Ladera,,50,,,2,,,,,
null,,confidence_buffer,1705681,confidence_buffer,,null,,,,,,,,
1999.1000000014901,,probe_rating,1707682,probe_rating,,52,,,,4,1,,,
null,,confidence_buffer,1707785,confidence_buffer,,null,,,,,,,,
5789.300000000745,,recognition_phase,1713576,East Ladera,,51,,,,,,new,1,0.8918918918918919
null,,confidence_buffer,1713679,confidence_buffer,,null,,,,,,,,
null,,thebreak,1714182,break,,null,,,,,,,,
10913.099999997765,,realistic_rating,1725097,Barnard,,51,Barnard,US,3,,,,,
null,,confidence_buffer,1725200,confidence_buffer,,null,,,,,,,,
6186,,pt2_unique_rating,1731388,Barnard,,52,,,4,,,,,
null,,confidence_buffer,1731492,confidence_buffer,,null,,,,,,,,
2674.699999999255,,pt2_memorable_rating,1734169,Barnard,,52,,,4,,,,,
null,,confidence_buffer,1734273,confidence_buffer,,null,,,,,,,,
3647.5,,recognition_phase,1737922,Barnard,,49,,,,,,old,1,0.8947368421052632
null,,confidence_buffer,1738024,confidence_buffer,,null,,,,,,,,
null,,thebreak,1738527,break,,null,,,,,,,,
4517.400000002235,,realistic_rating,1743046,Elmsbury,,51,Elmsbury,Fictional,3,,,,,
null,,confidence_buffer,1743150,confidence_buffer,,null,,,,,,,,
2218.900000002235,,probe_rating,1745370,probe_rating,,53,,,,5,1,,,
null,,confidence_buffer,1745473,confidence_buffer,,null,,,,,,,,
5668.099999997765,,pt2_unique_rating,1751143,Elmsbury,,50,,,2,,,,,
null,,confidence_buffer,1751247,confidence_buffer,,null,,,,,,,,
4209.70000000298,,pt2_memorable_rating,1755458,Elmsbury,,51,,,3,,,,,
null,,confidence_buffer,1755561,confidence_buffer,,null,,,,,,,,
5143.099999997765,,recognition_phase,1760706,Elmsbury,,52,,,,,,new,0,0.8717948717948718
null,,confidence_buffer,1760809,confidence_buffer,,null,,,,,,,,
null,,thebreak,1761312,break,,null,,,,,,,,
9316,,realistic_rating,1770630,Linden Trace,,51,Linden Trace,Fictional,3,,,,,
null,,confidence_buffer,1770734,confidence_buffer,,null,,,,,,,,
2001.3999999985099,,probe_rating,1772737,probe_rating,,49,,,,1,1,,,
null,,confidence_buffer,1772840,confidence_buffer,,null,,,,,,,,
8192.400000002235,,pt2_unique_rating,1781034,Linden Trace,,52,,,4,,,,,
null,,confidence_buffer,1781138,confidence_buffer,,null,,,,,,,,
3167.60000000149,,pt2_memorable_rating,1784307,Linden Trace,,50,,,2,,,,,
null,,confidence_buffer,1784411,confidence_buffer,,null,,,,,,,,
5501.60000000149,,recognition_phase,1789915,Linden Trace,,50,,,,,,old,1,0.875
null,,confidence_buffer,1790018,confidence_buffer,,null,,,,,,,,
null,,thebreak,1790520,break,,null,,,,,,,,
7437.60000000149,,realistic_rating,1797960,Gatlinburg,,51,Gatlinburg,US,3,,,,,
null,,confidence_buffer,1798063,confidence_buffer,,null,,,,,,,,
5913.199999999255,,pt2_unique_rating,1803978,Gatlinburg,,53,,,5,,,,,
null,,confidence_buffer,1804081,confidence_buffer,,null,,,,,,,,
3656.699999999255,,pt2_memorable_rating,1807740,Gatlinburg,,51,,,3,,,,,
null,,confidence_buffer,1807843,confidence_buffer,,null,,,,,,,,
3491.10000000149,,recognition_phase,1811336,Gatlinburg,,52,,,,,,new,1,0.8780487804878049
null,,confidence_buffer,1811438,confidence_buffer,,null,,,,,,,,
null,,thebreak,1811942,break,,null,,,,,,,,
6758.199999999255,,realistic_rating,1818701,Gardnerville,,52,Gardnerville,US,4,,,,,
null,,confidence_buffer,1818805,confidence_buffer,,null,,,,,,,,
5631.39999999851,,pt2_unique_rating,1824438,Gardnerville,,51,,,3,,,,,
null,,confidence_buffer,1824540,confidence_buffer,,null,,,,,,,,
3123.300000000745,,pt2_memorable_rating,1827665,Gardnerville,,51,,,3,,,,,
null,,confidence_buffer,1827768,confidence_buffer,,null,,,,,,,,
7762.60000000149,,recognition_phase,1835532,Gardnerville,,52,,,,,,new,1,0.8809523809523809
null,,confidence_buffer,1835635,confidence_buffer,,null,,,,,,,,
null,,thebreak,1836138,break,,null,,,,,,,,
8444.300000000745,,realistic_rating,1844584,Meadowspire,,50,Meadowspire,Fictional,2,,,,,
null,,confidence_buffer,1844687,confidence_buffer,,null,,,,,,,,
2600,,pt2_unique_rating,1847289,Meadowspire,,52,,,4,,,,,
null,,confidence_buffer,1847392,confidence_buffer,,null,,,,,,,,
2601.699999999255,,pt2_memorable_rating,1849995,Meadowspire,,51,,,3,,,,,
null,,confidence_buffer,1850097,confidence_buffer,,null,,,,,,,,
4719.39999999851,,recognition_phase,1854819,Meadowspire,,50,,,,,,old,1,0.8837209302325582
null,,confidence_buffer,1854921,confidence_buffer,,null,,,,,,,,
null,,thebreak,1855425,break,,null,,,,,,,,
6380.199999999255,,realistic_rating,1861807,Leesburg,,53,Leesburg,US,5,,,,,
null,,confidence_buffer,1861910,confidence_buffer,,null,,,,,,,,
5116.900000002235,,pt2_unique_rating,1867029,Leesburg,,52,,,4,,,,,
null,,confidence_buffer,1867132,confidence_buffer,,null,,,,,,,,
3099.300000000745,,pt2_memorable_rating,1870234,Leesburg,,52,,,4,,,,,
null,,confidence_buffer,1870337,confidence_buffer,,null,,,,,,,,
4801.199999999255,,recognition_phase,1875140,Leesburg,,49,,,,,,old,1,0.8863636363636364
null,,confidence_buffer,1875244,confidence_buffer,,null,,,,,,,,
null,,thebreak,1875746,break,,null,,,,,,,,
5942.300000000745,,realistic_rating,1881690,Fairhaven,,51,Fairhaven,Fictional,3,,,,,
null,,confidence_buffer,1881794,confidence_buffer,,null,,,,,,,,
2510.199999999255,,pt2_unique_rating,1884306,Fairhaven,,50,,,2,,,,,
null,,confidence_buffer,1884409,confidence_buffer,,null,,,,,,,,
2251,,pt2_memorable_rating,1886662,Fairhaven,,51,,,3,,,,,
null,,confidence_buffer,1886765,confidence_buffer,,null,,,,,,,,
8236.800000000745,,recognition_phase,1895003,Fairhaven,,51,,,,,,new,0,0.8666666666666667
null,,confidence_buffer,1895107,confidence_buffer,,null,,,,,,,,
null,,thebreak,1895610,break,,null,,,,,,,,
5815.70000000298,,realistic_rating,1901427,Racine,,50,Racine,US,2,,,,,
null,,confidence_buffer,1901530,confidence_buffer,,null,,,,,,,,
6377,,pt2_unique_rating,1907909,Racine,,52,,,4,,,,,
null,,confidence_buffer,1908013,confidence_buffer,,null,,,,,,,,
2864.400000002235,,pt2_memorable_rating,1910879,Racine,,51,,,3,,,,,
null,,confidence_buffer,1910982,confidence_buffer,,null,,,,,,,,
3049.900000002235,,recognition_phase,1914033,Racine,,49,,,,,,old,1,0.8695652173913043
null,,confidence_buffer,1914137,confidence_buffer,,null,,,,,,,,
null,,thebreak,1914639,break,,null,,,,,,,,
3978.60000000149,,realistic_rating,1918620,Athens,,53,Athens,US,5,,,,,
null,,confidence_buffer,1918723,confidence_buffer,,null,,,,,,,,
7198.39999999851,,pt2_unique_rating,1925924,Athens,,51,,,3,,,,,
null,,confidence_buffer,1926027,confidence_buffer,,null,,,,,,,,
2636.800000000745,,pt2_memorable_rating,1928666,Athens,,53,,,5,,,,,
null,,confidence_buffer,1928769,confidence_buffer,,null,,,,,,,,
3510.2000000029802,,recognition_phase,1932281,Athens,,52,,,,,,new,1,0.8723404255319149
null,,confidence_buffer,1932384,confidence_buffer,,null,,,,,,,,
null,,thebreak,1932887,break,,null,,,,,,,,
5012.199999999255,,realistic_rating,1937901,Maravilla Springs,,51,Maravilla Springs,Fictional,3,,,,,
null,,confidence_buffer,1938005,confidence_buffer,,null,,,,,,,,
2731.2999999970198,,pt2_unique_rating,1940737,Maravilla Springs,,52,,,4,,,,,
null,,confidence_buffer,1940840,confidence_buffer,,null,,,,,,,,
3567.800000000745,,pt2_memorable_rating,1944410,Maravilla Springs,,50,,,2,,,,,
null,,confidence_buffer,1944513,confidence_buffer,,null,,,,,,,,
2260.800000000745,,probe_rating,1946776,probe_rating,,49,,,,1,1,,,
null,,confidence_buffer,1946879,confidence_buffer,,null,,,,,,,,
4602.699999999255,,recognition_phase,1951483,Maravilla Springs,,52,,,,,,new,1,0.875
null,,confidence_buffer,1951586,confidence_buffer,,null,,,,,,,,
null,,thebreak,1952089,break,,null,,,,,,,,
3499.199999999255,,realistic_rating,1955590,Newport,,53,Newport,US,5,,,,,
null,,confidence_buffer,1955694,confidence_buffer,,null,,,,,,,,
3865.300000000745,,pt2_unique_rating,1959561,Newport,,51,,,3,,,,,
null,,confidence_buffer,1959665,confidence_buffer,,null,,,,,,,,
2305.89999999851,,probe_rating,1961973,probe_rating,,52,,,,4,1,,,
null,,confidence_buffer,1962076,confidence_buffer,,null,,,,,,,,
5864.10000000149,,pt2_memorable_rating,1967942,Newport,,52,,,4,,,,,
null,,confidence_buffer,1968045,confidence_buffer,,null,,,,,,,,
3780.5,,recognition_phase,1971827,Newport,,52,,,,,,new,1,0.8775510204081632
null,,confidence_buffer,1971930,confidence_buffer,,null,,,,,,,,
null,,thebreak,1972433,break,,null,,,,,,,,
3963,,realistic_rating,1976398,Hanover,,51,Hanover,US,3,,,,,
null,,confidence_buffer,1976502,confidence_buffer,,null,,,,,,,,
3359.5,,pt2_unique_rating,1979863,Hanover,,50,,,2,,,,,
null,,confidence_buffer,1979966,confidence_buffer,,null,,,,,,,,
3058.800000000745,,pt2_memorable_rating,1983027,Hanover,,51,,,3,,,,,
null,,confidence_buffer,1983130,confidence_buffer,,null,,,,,,,,
2753.900000002235,,recognition_phase,1985886,Hanover,,49,,,,,,old,1,0.88
null,,confidence_buffer,1985989,confidence_buffer,,null,,,,,,,,
null,,thebreak,1986492,break,,null,,,,,,,,
3603.39999999851,,realistic_rating,1990097,Clearbrook,,51,Clearbrook,Fictional,3,,,,,
null,,confidence_buffer,1990201,confidence_buffer,,null,,,,,,,,
4394.60000000149,,pt2_unique_rating,1994597,Clearbrook,,50,,,2,,,,,
null,,confidence_buffer,1994700,confidence_buffer,,null,,,,,,,,
5600.300000000745,,pt2_memorable_rating,2000302,Clearbrook,,50,,,2,,,,,
null,,confidence_buffer,2000405,confidence_buffer,,null,,,,,,,,
3622.89999999851,,recognition_phase,2004030,Clearbrook,,52,,,,,,new,1,0.8823529411764706
null,,confidence_buffer,2004133,confidence_buffer,,null,,,,,,,,
null,,thebreak,2004636,break,,null,,,,,,,,
8980.699999999255,,realistic_rating,2013618,Pine Hollow,,52,Pine Hollow,Fictional,4,,,,,
null,,confidence_buffer,2013722,confidence_buffer,,null,,,,,,,,
3740,,pt2_unique_rating,2017463,Pine Hollow,,52,,,4,,,,,
null,,confidence_buffer,2017567,confidence_buffer,,null,,,,,,,,
2958.300000000745,,pt2_memorable_rating,2020527,Pine Hollow,,52,,,4,,,,,
null,,confidence_buffer,2020631,confidence_buffer,,null,,,,,,,,
4090,,recognition_phase,2024723,Pine Hollow,,50,,,,,,old,1,0.8846153846153846
null,,confidence_buffer,2024826,confidence_buffer,,null,,,,,,,,
null,,thebreak,2025329,break,,null,,,,,,,,
5101.300000000745,,realistic_rating,2030432,Natchez,,50,Natchez,US,2,,,,,
null,,confidence_buffer,2030536,confidence_buffer,,null,,,,,,,,
4308.60000000149,,pt2_unique_rating,2034846,Natchez,,52,,,4,,,,,
null,,confidence_buffer,2034950,confidence_buffer,,null,,,,,,,,
5312.599999997765,,pt2_memorable_rating,2040264,Natchez,,51,,,3,,,,,
null,,confidence_buffer,2040367,confidence_buffer,,null,,,,,,,,
3412.199999999255,,recognition_phase,2043782,Natchez,,49,,,,,,old,1,0.8867924528301887
null,,confidence_buffer,2043885,confidence_buffer,,null,,,,,,,,
null,,thebreak,2044388,break,,null,,,,,,,,
4238.800000000745,,realistic_rating,2048628,Redgrove,,52,Redgrove,Fictional,4,,,,,
null,,confidence_buffer,2048728,confidence_buffer,,null,,,,,,,,
3359.5,,pt2_unique_rating,2052089,Redgrove,,51,,,3,,,,,
null,,confidence_buffer,2052193,confidence_buffer,,null,,,,,,,,
4207.79999999702,,pt2_memorable_rating,2056402,Redgrove,,51,,,3,,,,,
null,,confidence_buffer,2056505,confidence_buffer,,null,,,,,,,,
3643.800000000745,,recognition_phase,2060150,Redgrove,,52,,,,,,new,1,0.8888888888888888
null,,confidence_buffer,2060254,confidence_buffer,,null,,,,,,,,
null,,thebreak,2060757,break,,null,,,,,,,,
7786,,realistic_rating,2068545,Claywater,,50,Claywater,Fictional,2,,,,,
null,,confidence_buffer,2068648,confidence_buffer,,null,,,,,,,,
2986.39999999851,,pt2_unique_rating,2071637,Claywater,,52,,,4,,,,,
null,,confidence_buffer,2071740,confidence_buffer,,null,,,,,,,,
3646.199999999255,,pt2_memorable_rating,2075388,Claywater,,52,,,4,,,,,
null,,confidence_buffer,2075491,confidence_buffer,,null,,,,,,,,
2290.300000000745,,probe_rating,2077783,probe_rating,,53,,,,5,1,,,
null,,confidence_buffer,2077886,confidence_buffer,,null,,,,,,,,
4511.300000000745,,recognition_phase,2082399,Claywater,,52,,,,,,new,1,0.8909090909090909
null,,confidence_buffer,2082503,confidence_buffer,,null,,,,,,,,
null,,thebreak,2083006,break,,null,,,,,,,,
5290.699999999255,,realistic_rating,2088298,Solara Glen,,51,Solara Glen,Fictional,3,,,,,
null,,confidence_buffer,2088402,confidence_buffer,,null,,,,,,,,
7575.800000000745,,pt2_unique_rating,2095980,Solara Glen,,53,,,5,,,,,
null,,confidence_buffer,2096083,confidence_buffer,,null,,,,,,,,
5633.800000000745,,pt2_memorable_rating,2101719,Solara Glen,,51,,,3,,,,,
null,,confidence_buffer,2101822,confidence_buffer,,null,,,,,,,,
5808.300000000745,,recognition_phase,2107632,Solara Glen,,52,,,,,,new,1,0.8928571428571429
null,,confidence_buffer,2107735,confidence_buffer,,null,,,,,,,,
null,,thebreak,2108238,break,,null,,,,,,,,
3424.60000000149,,realistic_rating,2111664,Cleveland,,53,Cleveland,US,5,,,,,
null,,confidence_buffer,2111767,confidence_buffer,,null,,,,,,,,
4906.20000000298,,pt2_unique_rating,2116675,Cleveland,,51,,,3,,,,,
null,,confidence_buffer,2116779,confidence_buffer,,null,,,,,,,,
4009.699999999255,,pt2_memorable_rating,2120791,Cleveland,,53,,,5,,,,,
null,,confidence_buffer,2120894,confidence_buffer,,null,,,,,,,,
3530.400000002235,,recognition_phase,2124426,Cleveland,,49,,,,,,old,1,0.8947368421052632
null,,confidence_buffer,2124529,confidence_buffer,,null,,,,,,,,
null,,thebreak,2125032,break,,null,,,,,,,,
6799.300000000745,,realistic_rating,2131833,Tamarisk Hills,,51,Tamarisk Hills,Fictional,3,,,,,
null,,confidence_buffer,2131936,confidence_buffer,,null,,,,,,,,
4512.29999999702,,pt2_unique_rating,2136450,Tamarisk Hills,,53,,,5,,,,,
null,,confidence_buffer,2136553,confidence_buffer,,null,,,,,,,,
2430.2000000029802,,pt2_memorable_rating,2138985,Tamarisk Hills,,51,,,3,,,,,
null,,confidence_buffer,2139089,confidence_buffer,,null,,,,,,,,
4934,,recognition_phase,2144025,Tamarisk Hills,,52,,,,,,new,1,0.896551724137931
null,,confidence_buffer,2144128,confidence_buffer,,null,,,,,,,,
null,,thebreak,2144630,break,,null,,,,,,,,
3293.10000000149,,realistic_rating,2147925,Millstone,,51,Millstone,Fictional,3,,,,,
null,,confidence_buffer,2148028,confidence_buffer,,null,,,,,,,,
4994.5,,pt2_unique_rating,2153024,Millstone,,51,,,3,,,,,
null,,confidence_buffer,2153128,confidence_buffer,,null,,,,,,,,
4121,,pt2_memorable_rating,2157251,Millstone,,51,,,3,,,,,
null,,confidence_buffer,2157354,confidence_buffer,,null,,,,,,,,
3358.89999999851,,recognition_phase,2160715,Millstone,,49,,,,,,old,1,0.8983050847457628
null,,confidence_buffer,2160818,confidence_buffer,,null,,,,,,,,
null,,thebreak,2161321,break,,null,,,,,,,,
10251,,realistic_rating,2171574,Yukon,,51,Yukon,US,3,,,,,
null,,confidence_buffer,2171678,confidence_buffer,,null,,,,,,,,
5180.5,,pt2_unique_rating,2176860,Yukon,,52,,,4,,,,,
null,,confidence_buffer,2176964,confidence_buffer,,null,,,,,,,,
1573.7000000029802,,pt2_memorable_rating,2178539,Yukon,,52,,,4,,,,,
null,,confidence_buffer,2178642,confidence_buffer,,null,,,,,,,,
2487.599999997765,,recognition_phase,2181132,Yukon,,49,,,,,,old,1,0.9
null,,confidence_buffer,2181236,confidence_buffer,,null,,,,,,,,
null,,thebreak,2181738,break,,null,,,,,,,,
