rt,responses,trial_type,time_elapsed,stimulus,button_pressed,key_press,name_trial,city_type,rating,probe,probe_accuracy,response,correct,accuracy,detectfocus,warning
6658.200000000186,{worker_id:6100372e3a116cb5cb36ebea},id_enter,6663,,,,,,,,,,,,,
37299.700000000186,,fullscreen,43966,fullscreen,0,,,,,,,,,,,
9219.400000000373,,intro_0,53188,instruct,,32,,,,,,,,,,
15269.399999999441,,intro_1,68459,instruct,,32,,,,,,,,,,
12559,,intro_2,81019,instruct,,32,,,,,,,,,,
null,,instruct_dir_4,82520,instruct,,null,,,,,,,,,,
null,,thebreak,83023,break,,null,,,,,,,,,,
8307.099999999627,,familiar_rating,91331,Hollendale,,50,Hollendale,Fictional,2,,,,,,,
null,,confidence_buffer,91434,confidence_buffer,,null,,,,,,,,,,
6263.5,,unique_rating,97699,Hollendale,,52,,,4,,,,,,,
null,,confidence_buffer,97801,confidence_buffer,,null,,,,,,,,,,
3888.600000000559,,probe_rating,101691,probe_rating,,52,,,,4,1,,,,,
null,,confidence_buffer,101794,confidence_buffer,,null,,,,,,,,,,
2375.7000000001863,,memorable_rating,104171,Hollendale,,50,,,2,,,,,,,
null,,confidence_buffer,104274,confidence_buffer,,null,,,,,,,,,,
null,,thebreak,104775,break,,null,,,,,,,,,,
4026,,familiar_rating,108803,Orchard Bend,,49,Orchard Bend,Fictional,1,,,,,,,
null,,confidence_buffer,108905,confidence_buffer,,null,,,,,,,,,,
3969.2999999998137,,unique_rating,112876,Orchard Bend,,53,,,5,,,,,,,
null,,confidence_buffer,112978,confidence_buffer,,null,,,,,,,,,,
1159.6000000005588,,memorable_rating,114139,Orchard Bend,,52,,,4,,,,,,,
null,,confidence_buffer,114256,confidence_buffer,,null,,,,,,,,,,
null,,thebreak,114757,break,,null,,,,,,,,,,
4316.5999999996275,,familiar_rating,119075,Meadowspire,,50,Meadowspire,Fictional,2,,,,,,,
null,,confidence_buffer,119178,confidence_buffer,,null,,,,,,,,,,
1928.3999999994412,,unique_rating,121107,Meadowspire,,49,,,1,,,,,,,
null,,confidence_buffer,121209,confidence_buffer,,null,,,,,,,,,,
1264.7999999998137,,memorable_rating,122475,Meadowspire,,50,,,2,,,,,,,
null,,confidence_buffer,122577,confidence_buffer,,null,,,,,,,,,,
null,,thebreak,123079,break,,null,,,,,,,,,,
5322.200000000186,,familiar_rating,128402,Juniper Creek,,50,Juniper Creek,Fictional,2,,,,,,,
null,,confidence_buffer,128504,confidence_buffer,,null,,,,,,,,,,
2233.7999999998137,,unique_rating,130739,Juniper Creek,,53,,,5,,,,,,,
null,,confidence_buffer,130841,confidence_buffer,,null,,,,,,,,,,
3032.7999999998137,,memorable_rating,133876,Juniper Creek,,53,,,5,,,,,,,
null,,confidence_buffer,133978,confidence_buffer,,null,,,,,,,,,,
null,,thebreak,134480,break,,null,,,,,,,,,,
4514.0999999996275,,familiar_rating,138995,Folly Beach,,52,Folly Beach,US,4,,,,,,,
null,,confidence_buffer,139097,confidence_buffer,,null,,,,,,,,,,
2200.7999999998137,,unique_rating,141299,Folly Beach,,49,,,1,,,,,,,
null,,confidence_buffer,141402,confidence_buffer,,null,,,,,,,,,,
2215.4000000003725,,memorable_rating,143619,Folly Beach,,51,,,3,,,,,,,
null,,confidence_buffer,143721,confidence_buffer,,null,,,,,,,,,,
null,,thebreak,144223,break,,null,,,,,,,,,,
4795.4000000003725,,familiar_rating,149019,Hanover,,53,Hanover,US,5,,,,,,,
null,,confidence_buffer,149122,confidence_buffer,,null,,,,,,,,,,
1687.2000000001863,,unique_rating,150811,Hanover,,49,,,1,,,,,,,
null,,confidence_buffer,150913,confidence_buffer,,null,,,,,,,,,,
1568.9000000003725,,memorable_rating,152483,Hanover,,51,,,3,,,,,,,
null,,confidence_buffer,152584,confidence_buffer,,null,,,,,,,,,,
null,,thebreak,153086,break,,null,,,,,,,,,,
2771.9000000003725,,familiar_rating,155859,Cape May,,51,Cape May,US,3,,,,,,,
null,,confidence_buffer,155961,confidence_buffer,,null,,,,,,,,,,
2232.5,,unique_rating,158195,Cape May,,50,,,2,,,,,,,
null,,confidence_buffer,158297,confidence_buffer,,null,,,,,,,,,,
1361.1000000005588,,memorable_rating,159659,Cape May,,50,,,2,,,,,,,
null,,confidence_buffer,159761,confidence_buffer,,null,,,,,,,,,,
null,,thebreak,160264,break,,null,,,,,,,,,,
2561.0999999996275,,familiar_rating,162827,Clearbrook,,49,Clearbrook,Fictional,1,,,,,,,
null,,confidence_buffer,162929,confidence_buffer,,null,,,,,,,,,,
1056.2000000001863,,unique_rating,163987,Clearbrook,,52,,,4,,,,,,,
null,,confidence_buffer,164089,confidence_buffer,,null,,,,,,,,,,
921.3999999994412,,memorable_rating,165011,Clearbrook,,51,,,3,,,,,,,
null,,confidence_buffer,165114,confidence_buffer,,null,,,,,,,,,,
null,,thebreak,165615,break,,null,,,,,,,,,,
3731.100000000559,,familiar_rating,169347,Driftwood Bay,,51,Driftwood Bay,Fictional,3,,,,,,,
null,,confidence_buffer,169450,confidence_buffer,,null,,,,,,,,,,
1631.5999999996275,,unique_rating,171083,Driftwood Bay,,50,,,2,,,,,,,
null,,confidence_buffer,171186,confidence_buffer,,null,,,,,,,,,,
2480.2000000001863,,memorable_rating,173667,Driftwood Bay,,52,,,4,,,,,,,
null,,confidence_buffer,173769,confidence_buffer,,null,,,,,,,,,,
null,,thebreak,174271,break,,null,,,,,,,,,,
3513.899999999441,,familiar_rating,177786,Brookmere,,51,Brookmere,Fictional,3,,,,,,,
null,,confidence_buffer,177887,confidence_buffer,,null,,,,,,,,,,
1778.3999999994412,,unique_rating,179666,Brookmere,,53,,,5,,,,,,,
null,,confidence_buffer,179767,confidence_buffer,,null,,,,,,,,,,
1043.2999999998137,,memorable_rating,180811,Brookmere,,52,,,4,,,,,,,
null,,confidence_buffer,180914,confidence_buffer,,null,,,,,,,,,,
null,,thebreak,181415,break,,null,,,,,,,,,,
5586.5,,familiar_rating,187003,Albuquerque,,53,Albuquerque,US,5,,,,,,,
null,,confidence_buffer,187105,confidence_buffer,,null,,,,,,,,,,
2424.2000000001863,,unique_rating,189530,Albuquerque,,51,,,3,,,,,,,
null,,confidence_buffer,189632,confidence_buffer,,null,,,,,,,,,,
1657.5999999996275,,memorable_rating,191291,Albuquerque,,52,,,4,,,,,,,
null,,confidence_buffer,191393,confidence_buffer,,null,,,,,,,,,,
null,,thebreak,191896,break,,null,,,,,,,,,,
2329.7000000001863,,familiar_rating,194227,Barnard,,52,Barnard,US,4,,,,,,,
null,,confidence_buffer,194329,confidence_buffer,,null,,,,,,,,,,
1568.2000000001863,,unique_rating,195899,Barnard,,50,,,2,,,,,,,
null,,confidence_buffer,196001,confidence_buffer,,null,,,,,,,,,,
2480.7999999998137,,probe_rating,198483,probe_rating,,52,,,,4,1,,,,,
null,,confidence_buffer,198586,confidence_buffer,,null,,,,,,,,,,
1896,,memorable_rating,200483,Barnard,,52,,,4,,,,,,,
null,,confidence_buffer,200585,confidence_buffer,,null,,,,,,,,,,
null,,thebreak,201086,break,,null,,,,,,,,,,
2107.4000000003725,,familiar_rating,203195,Briarfield,,50,Briarfield,Fictional,2,,,,,,,
null,,confidence_buffer,203297,confidence_buffer,,null,,,,,,,,,,
1408.7000000001863,,unique_rating,204707,Briarfield,,49,,,1,,,,,,,
null,,confidence_buffer,204809,confidence_buffer,,null,,,,,,,,,,
1385.2000000001863,,memorable_rating,206195,Briarfield,,49,,,1,,,,,,,
null,,confidence_buffer,206297,confidence_buffer,,null,,,,,,,,,,
null,,thebreak,206800,break,,null,,,,,,,,,,
2074.199999999255,,familiar_rating,208875,Alliance,,52,Alliance,US,4,,,,,,,
null,,confidence_buffer,208977,confidence_buffer,,null,,,,,,,,,,
1192.7000000001863,,unique_rating,210171,Alliance,,50,,,2,,,,,,,
null,,confidence_buffer,210273,confidence_buffer,,null,,,,,,,,,,
816.7000000001863,,memorable_rating,211091,Alliance,,51,,,3,,,,,,,
null,,confidence_buffer,211193,confidence_buffer,,null,,,,,,,,,,
null,,thebreak,211695,break,,null,,,,,,,,,,
2170.0999999996275,,familiar_rating,213867,Livingston,,53,Livingston,US,5,,,,,,,
null,,confidence_buffer,213970,confidence_buffer,,null,,,,,,,,,,
1056.0999999996275,,unique_rating,215027,Livingston,,51,,,3,,,,,,,
null,,confidence_buffer,215129,confidence_buffer,,null,,,,,,,,,,
1120.2000000001863,,memorable_rating,216251,Livingston,,51,,,3,,,,,,,
null,,confidence_buffer,216353,confidence_buffer,,null,,,,,,,,,,
null,,thebreak,216854,break,,null,,,,,,,,,,
1755.5,,familiar_rating,218611,Medora,,49,Medora,US,1,,,,,,,
null,,confidence_buffer,218713,confidence_buffer,,null,,,,,,,,,,
2472.2999999998137,,unique_rating,221187,Medora,,53,,,5,,,,,,,
null,,confidence_buffer,221290,confidence_buffer,,null,,,,,,,,,,
2991.5,,probe_rating,224283,probe_rating,,49,,,,1,1,,,,,
null,,confidence_buffer,224386,confidence_buffer,,null,,,,,,,,,,
1255.3999999994412,,memorable_rating,225643,Medora,,51,,,3,,,,,,,
null,,confidence_buffer,225745,confidence_buffer,,null,,,,,,,,,,
null,,thebreak,226247,break,,null,,,,,,,,,,
2274.7000000001863,,familiar_rating,228523,Huntsville,,51,Huntsville,US,3,,,,,,,
null,,confidence_buffer,228625,confidence_buffer,,null,,,,,,,,,,
1344.6000000005588,,unique_rating,229971,Huntsville,,52,,,4,,,,,,,
null,,confidence_buffer,230074,confidence_buffer,,null,,,,,,,,,,
744.2000000001863,,memorable_rating,230819,Huntsville,,50,,,2,,,,,,,
null,,confidence_buffer,230921,confidence_buffer,,null,,,,,,,,,,
null,,thebreak,231423,break,,null,,,,,,,,,,
5771.199999999255,,familiar_rating,237195,Golden Trace,,49,Golden Trace,Fictional,1,,,,,,,
null,,confidence_buffer,237297,confidence_buffer,,null,,,,,,,,,,
784.4000000003725,,unique_rating,238083,Golden Trace,,50,,,2,,,,,,,
null,,confidence_buffer,238185,confidence_buffer,,null,,,,,,,,,,
672.7000000001863,,memorable_rating,238859,Golden Trace,,52,,,4,,,,,,,
null,,confidence_buffer,238961,confidence_buffer,,null,,,,,,,,,,
1760.8999999994412,,probe_rating,240723,probe_rating,,50,,,,2,1,,,,,
null,,confidence_buffer,240825,confidence_buffer,,null,,,,,,,,,,
null,,thebreak,241327,break,,null,,,,,,,,,,
4042.800000000745,,familiar_rating,245371,Montelake,,49,Montelake,Fictional,1,,,,,,,
null,,confidence_buffer,245473,confidence_buffer,,null,,,,,,,,,,
2056.7999999998137,,probe_rating,247531,probe_rating,,50,,,,2,1,,,,,
null,,confidence_buffer,247634,confidence_buffer,,null,,,,,,,,,,
1127.6000000005588,,unique_rating,248763,Montelake,,52,,,4,,,,,,,
null,,confidence_buffer,248865,confidence_buffer,,null,,,,,,,,,,
1384.6000000005588,,memorable_rating,250251,Montelake,,53,,,5,,,,,,,
null,,confidence_buffer,250352,confidence_buffer,,null,,,,,,,,,,
null,,thebreak,250854,break,,null,,,,,,,,,,
2356,,familiar_rating,253211,Stonebrook,,51,Stonebrook,Fictional,3,,,,,,,
null,,confidence_buffer,253313,confidence_buffer,,null,,,,,,,,,,
1056.6000000005588,,unique_rating,254371,Stonebrook,,50,,,2,,,,,,,
null,,confidence_buffer,254473,confidence_buffer,,null,,,,,,,,,,
1672.5,,memorable_rating,256147,Stonebrook,,52,,,4,,,,,,,
null,,confidence_buffer,256249,confidence_buffer,,null,,,,,,,,,,
null,,thebreak,256751,break,,null,,,,,,,,,,
2178.5999999996275,,familiar_rating,258931,Hot Springs,,53,Hot Springs,US,5,,,,,,,
null,,confidence_buffer,259034,confidence_buffer,,null,,,,,,,,,,
2375.7000000001863,,unique_rating,261411,Hot Springs,,50,,,2,,,,,,,
null,,confidence_buffer,261521,confidence_buffer,,null,,,,,,,,,,
1080.7000000001863,,memorable_rating,262603,Hot Springs,,50,,,2,,,,,,,
null,,confidence_buffer,262705,confidence_buffer,,null,,,,,,,,,,
null,,thebreak,263206,break,,null,,,,,,,,,,
1899.7000000001863,,familiar_rating,265107,Northbridge,,53,Northbridge,Fictional,5,,,,,,,
null,,confidence_buffer,265209,confidence_buffer,,null,,,,,,,,,,
1000.5,,unique_rating,266211,Northbridge,,50,,,2,,,,,,,
null,,confidence_buffer,266312,confidence_buffer,,null,,,,,,,,,,
2177,,probe_rating,268491,probe_rating,,53,,,,5,1,,,,,
null,,confidence_buffer,268594,confidence_buffer,,null,,,,,,,,,,
1343.9000000003725,,memorable_rating,269939,Northbridge,,50,,,2,,,,,,,
null,,confidence_buffer,270041,confidence_buffer,,null,,,,,,,,,,
null,,thebreak,270542,break,,null,,,,,,,,,,
2003.2999999998137,,familiar_rating,272547,Crestwood,,52,Crestwood,Fictional,4,,,,,,,
null,,confidence_buffer,272650,confidence_buffer,,null,,,,,,,,,,
743.6000000005588,,unique_rating,273395,Crestwood,,50,,,2,,,,,,,
null,,confidence_buffer,273496,confidence_buffer,,null,,,,,,,,,,
609.4000000003725,,memorable_rating,274107,Crestwood,,51,,,3,,,,,,,
null,,confidence_buffer,274209,confidence_buffer,,null,,,,,,,,,,
null,,thebreak,274724,break,,null,,,,,,,,,,
1805.699999999255,,familiar_rating,276531,Millstone,,52,Millstone,Fictional,4,,,,,,,
null,,confidence_buffer,276634,confidence_buffer,,null,,,,,,,,,,
2096.100000000559,,unique_rating,278731,Millstone,,51,,,3,,,,,,,
null,,confidence_buffer,278834,confidence_buffer,,null,,,,,,,,,,
775.2999999998137,,memorable_rating,279611,Millstone,,53,,,5,,,,,,,
null,,confidence_buffer,279712,confidence_buffer,,null,,,,,,,,,,
null,,thebreak,280215,break,,null,,,,,,,,,,
2050.7999999998137,,familiar_rating,282267,Natchez,,49,Natchez,US,1,,,,,,,
null,,confidence_buffer,282370,confidence_buffer,,null,,,,,,,,,,
1663.9000000003725,,unique_rating,284035,Natchez,,53,,,5,,,,,,,
null,,confidence_buffer,284138,confidence_buffer,,null,,,,,,,,,,
1223.7000000001863,,memorable_rating,285363,Natchez,,52,,,4,,,,,,,
null,,confidence_buffer,285465,confidence_buffer,,null,,,,,,,,,,
null,,thebreak,285967,break,,null,,,,,,,,,,
3130.4000000003725,,familiar_rating,289099,East Ladera,,50,East Ladera,Fictional,2,,,,,,,
null,,confidence_buffer,289201,confidence_buffer,,null,,,,,,,,,,
760.2999999998137,,unique_rating,289963,East Ladera,,51,,,3,,,,,,,
null,,confidence_buffer,290065,confidence_buffer,,null,,,,,,,,,,
1023.8999999994412,,memorable_rating,291091,East Ladera,,52,,,4,,,,,,,
null,,confidence_buffer,291192,confidence_buffer,,null,,,,,,,,,,
null,,thebreak,291706,break,,null,,,,,,,,,,
2647.2999999998137,,familiar_rating,294355,Cornwall,,50,Cornwall,US,2,,,,,,,
null,,confidence_buffer,294456,confidence_buffer,,null,,,,,,,,,,
2017.3999999994412,,probe_rating,296475,probe_rating,,53,,,,5,1,,,,,
null,,confidence_buffer,296576,confidence_buffer,,null,,,,,,,,,,
2081,,unique_rating,298659,Cornwall,,51,,,3,,,,,,,
null,,confidence_buffer,298760,confidence_buffer,,null,,,,,,,,,,
2041.5999999996275,,memorable_rating,300803,Cornwall,,50,,,2,,,,,,,
null,,confidence_buffer,300905,confidence_buffer,,null,,,,,,,,,,
null,,thebreak,301407,break,,null,,,,,,,,,,
3745.9000000003725,,familiar_rating,305154,Duck,,50,Duck,US,2,,,,,,,
null,,confidence_buffer,305256,confidence_buffer,,null,,,,,,,,,,
1505.5999999996275,,unique_rating,306763,Duck,,49,,,1,,,,,,,
null,,confidence_buffer,306864,confidence_buffer,,null,,,,,,,,,,
1081,,memorable_rating,307947,Duck,,49,,,1,,,,,,,
null,,confidence_buffer,308049,confidence_buffer,,null,,,,,,,,,,
1655.8999999994412,,probe_rating,309707,probe_rating,,50,,,,2,1,,,,,
null,,confidence_buffer,309809,confidence_buffer,,null,,,,,,,,,,
null,,thebreak,310311,break,,null,,,,,,,,,,
2025.7000000001863,,familiar_rating,312338,Cody,,51,Cody,US,3,,,,,,,
null,,confidence_buffer,312441,confidence_buffer,,null,,,,,,,,,,
713.0999999996275,,unique_rating,313155,Cody,,49,,,1,,,,,,,
null,,confidence_buffer,313256,confidence_buffer,,null,,,,,,,,,,
545.0999999996275,,memorable_rating,313803,Cody,,50,,,2,,,,,,,
null,,confidence_buffer,313904,confidence_buffer,,null,,,,,,,,,,
null,,thebreak,314406,break,,null,,,,,,,,,,
1491.7999999998137,,familiar_rating,315899,Custer,,51,Custer,US,3,,,,,,,
null,,confidence_buffer,316002,confidence_buffer,,null,,,,,,,,,,
535.9000000003725,,unique_rating,316539,Custer,,50,,,2,,,,,,,
null,,confidence_buffer,316641,confidence_buffer,,null,,,,,,,,,,
705.1999999992549,,memorable_rating,317347,Custer,,49,,,1,,,,,,,
null,,confidence_buffer,317449,confidence_buffer,,null,,,,,,,,,,
null,,thebreak,317951,break,,null,,,,,,,,,,
25339.799999999814,,intro_0,343292,instruct,,32,,,,,,,,,,
11966.5,,intro_1,355259,instruct,,32,,,,,,,,,,
20534.60000000056,,intro_2,375795,instruct,,32,,,,,,,,,,
null,,instruct_dir_4,377296,instruct,,null,,,,,,,,,,
5785.199999999255,,realistic_rating,383082,Medora,,51,Medora,US,3,,,,,,,
null,,confidence_buffer,383186,confidence_buffer,,null,,,,,,,,,,
3159.4000000003725,,pt2_unique_rating,386346,Medora,,52,,,4,,,,,,,
null,,confidence_buffer,386448,confidence_buffer,,null,,,,,,,,,,
1745.0999999996275,,pt2_memorable_rating,388195,Medora,,52,,,4,,,,,,,
null,,confidence_buffer,388297,confidence_buffer,,null,,,,,,,,,,
2944.2000000001863,,recognition_phase,391243,Medora,,49,,,,,,old,1,1,,
null,,confidence_buffer,391345,confidence_buffer,,null,,,,,,,,,,
null,,thebreak,391847,break,,null,,,,,,,,,,
2514.2000000001863,,realistic_rating,394363,Sitka,,49,Sitka,US,1,,,,,,,
null,,confidence_buffer,394465,confidence_buffer,,null,,,,,,,,,,
1664.699999999255,,pt2_unique_rating,396131,Sitka,,52,,,4,,,,,,,
null,,confidence_buffer,396233,confidence_buffer,,null,,,,,,,,,,
16.09999999962747,,pt2_memorable_rating,396251,Sitka,,52,,,4,,,,,,,
null,,confidence_buffer,396352,confidence_buffer,,null,,,,,,,,,,
3097,,recognition_phase,399450,Sitka,,52,,,,,,new,1,1,,
null,,confidence_buffer,399553,confidence_buffer,,null,,,,,,,,,,
null,,thebreak,400054,break,,null,,,,,,,,,,
18187.099999999627,,realistic_rating,418242,Golden Trace,,51,Golden Trace,Fictional,3,,,,,,,
null,,confidence_buffer,418344,confidence_buffer,,null,,,,,,,,,,
3105.199999999255,,pt2_unique_rating,421451,Golden Trace,,51,,,3,,,,,,,
null,,confidence_buffer,421552,confidence_buffer,,null,,,,,,,,,,
872.9000000003725,,pt2_memorable_rating,422426,Golden Trace,,52,,,4,,,,,,,
null,,confidence_buffer,422529,confidence_buffer,,null,,,,,,,,,,
3144.699999999255,,recognition_phase,425675,Golden Trace,,49,,,,,,old,1,1,,
null,,confidence_buffer,425776,confidence_buffer,,null,,,,,,,,,,
null,,thebreak,426279,break,,null,,,,,,,,,,
3658.899999999441,,realistic_rating,429939,Ravenport,,53,Ravenport,Fictional,5,,,,,,,
null,,confidence_buffer,430041,confidence_buffer,,null,,,,,,,,,,
784.3999999994412,,pt2_unique_rating,430827,Ravenport,,51,,,3,,,,,,,
null,,confidence_buffer,430928,confidence_buffer,,null,,,,,,,,,,
1777,,pt2_memorable_rating,432707,Ravenport,,51,,,3,,,,,,,
null,,confidence_buffer,432810,confidence_buffer,,null,,,,,,,,,,
2175.0999999996275,,recognition_phase,434987,Ravenport,,51,,,,,,new,1,1,,
null,,confidence_buffer,435089,confidence_buffer,,null,,,,,,,,,,
null,,thebreak,435590,break,,null,,,,,,,,,,
2834.7999999998137,,realistic_rating,438427,East Ladera,,51,East Ladera,Fictional,3,,,,,,,
null,,confidence_buffer,438530,confidence_buffer,,null,,,,,,,,,,
1479.6000000005588,,pt2_unique_rating,440011,East Ladera,,51,,,3,,,,,,,
null,,confidence_buffer,440113,confidence_buffer,,null,,,,,,,,,,
1264.7000000001863,,pt2_memorable_rating,441379,East Ladera,,50,,,2,,,,,,,
null,,confidence_buffer,441481,confidence_buffer,,null,,,,,,,,,,
2192.699999999255,,recognition_phase,443675,East Ladera,,49,,,,,,old,1,1,,
null,,confidence_buffer,443776,confidence_buffer,,null,,,,,,,,,,
null,,thebreak,444278,break,,null,,,,,,,,,,
3331.2000000001863,,realistic_rating,447611,Natchez,,51,Natchez,US,3,,,,,,,
null,,confidence_buffer,447713,confidence_buffer,,null,,,,,,,,,,
1368.4000000003725,,pt2_unique_rating,449082,Natchez,,52,,,4,,,,,,,
null,,confidence_buffer,449184,confidence_buffer,,null,,,,,,,,,,
1561.5,,pt2_memorable_rating,450747,Natchez,,53,,,5,,,,,,,
null,,confidence_buffer,450850,confidence_buffer,,null,,,,,,,,,,
2815.4000000003725,,recognition_phase,453667,Natchez,,50,,,,,,old,1,1,,
null,,confidence_buffer,453770,confidence_buffer,,null,,,,,,,,,,
null,,thebreak,454272,break,,null,,,,,,,,,,
2593.7999999998137,,realistic_rating,456867,Stonebrook,,51,Stonebrook,Fictional,3,,,,,,,
null,,confidence_buffer,456968,confidence_buffer,,null,,,,,,,,,,
1584.7999999998137,,pt2_unique_rating,458554,Stonebrook,,52,,,4,,,,,,,
null,,confidence_buffer,458656,confidence_buffer,,null,,,,,,,,,,
977.7000000001863,,pt2_memorable_rating,459634,Stonebrook,,52,,,4,,,,,,,
null,,confidence_buffer,459737,confidence_buffer,,null,,,,,,,,,,
2584.5,,recognition_phase,462323,Stonebrook,,50,,,,,,old,1,1,,
null,,confidence_buffer,462424,confidence_buffer,,null,,,,,,,,,,
null,,thebreak,462926,break,,null,,,,,,,,,,
2091.600000000559,,realistic_rating,465019,Sisters,,52,Sisters,US,4,,,,,,,
null,,confidence_buffer,465121,confidence_buffer,,null,,,,,,,,,,
1312.4000000003725,,pt2_unique_rating,466435,Sisters,,49,,,1,,,,,,,
null,,confidence_buffer,466538,confidence_buffer,,null,,,,,,,,,,
1326.9000000003725,,pt2_memorable_rating,467866,Sisters,,50,,,2,,,,,,,
null,,confidence_buffer,467969,confidence_buffer,,null,,,,,,,,,,
2455.9000000003725,,recognition_phase,470427,Sisters,,52,,,,,,new,1,1,,
null,,confidence_buffer,470529,confidence_buffer,,null,,,,,,,,,,
null,,thebreak,471031,break,,null,,,,,,,,,,
3147.100000000559,,realistic_rating,474179,Okoboji,,50,Okoboji,US,2,,,,,,,
null,,confidence_buffer,474281,confidence_buffer,,null,,,,,,,,,,
1424.5,,pt2_unique_rating,475706,Okoboji,,53,,,5,,,,,,,
null,,confidence_buffer,475809,confidence_buffer,,null,,,,,,,,,,
1112.4000000003725,,pt2_memorable_rating,476922,Okoboji,,52,,,4,,,,,,,
null,,confidence_buffer,477025,confidence_buffer,,null,,,,,,,,,,
2376.2000000001863,,recognition_phase,479403,Okoboji,,52,,,,,,new,1,1,,
null,,confidence_buffer,479505,confidence_buffer,,null,,,,,,,,,,
null,,thebreak,480007,break,,null,,,,,,,,,,
2937.9000000003725,,realistic_rating,482946,Rosehollow,,51,Rosehollow,Fictional,3,,,,,,,
null,,confidence_buffer,483049,confidence_buffer,,null,,,,,,,,,,
1200.9000000003725,,pt2_unique_rating,484251,Rosehollow,,51,,,3,,,,,,,
null,,confidence_buffer,484354,confidence_buffer,,null,,,,,,,,,,
983.6999999992549,,pt2_memorable_rating,485339,Rosehollow,,52,,,4,,,,,,,
null,,confidence_buffer,485441,confidence_buffer,,null,,,,,,,,,,
2152.0999999996275,,recognition_phase,487595,Rosehollow,,52,,,,,,new,1,1,,
null,,confidence_buffer,487696,confidence_buffer,,null,,,,,,,,,,
null,,thebreak,488198,break,,null,,,,,,,,,,
3011.7999999998137,,realistic_rating,491211,Hanover,,50,Hanover,US,2,,,,,,,
null,,confidence_buffer,491314,confidence_buffer,,null,,,,,,,,,,
1079.5999999996275,,pt2_unique_rating,492395,Hanover,,52,,,4,,,,,,,
null,,confidence_buffer,492497,confidence_buffer,,null,,,,,,,,,,
1312.4000000003725,,pt2_memorable_rating,493811,Hanover,,51,,,3,,,,,,,
null,,confidence_buffer,493913,confidence_buffer,,null,,,,,,,,,,
1248.9000000003725,,recognition_phase,495163,Hanover,,50,,,,,,old,1,1,,
null,,confidence_buffer,495265,confidence_buffer,,null,,,,,,,,,,
null,,thebreak,495767,break,,null,,,,,,,,,,
3354.600000000559,,realistic_rating,499123,Orchard Bend,,50,Orchard Bend,Fictional,2,,,,,,,
null,,confidence_buffer,499224,confidence_buffer,,null,,,,,,,,,,
689.2999999998137,,pt2_unique_rating,499915,Orchard Bend,,51,,,3,,,,,,,
null,,confidence_buffer,500016,confidence_buffer,,null,,,,,,,,,,
1024.6000000005588,,pt2_memorable_rating,501042,Orchard Bend,,52,,,4,,,,,,,
null,,confidence_buffer,501145,confidence_buffer,,null,,,,,,,,,,
1784.4000000003725,,recognition_phase,502931,Orchard Bend,,51,,,,,,new,0,0.9166666666666666,,
null,,confidence_buffer,503033,confidence_buffer,,null,,,,,,,,,,
null,,thebreak,503534,break,,null,,,,,,,,,,
2339.4000000003725,,realistic_rating,505875,Montelake,,52,Montelake,Fictional,4,,,,,,,
null,,confidence_buffer,505976,confidence_buffer,,null,,,,,,,,,,
832.7999999998137,,pt2_unique_rating,506811,Montelake,,50,,,2,,,,,,,
null,,confidence_buffer,506913,confidence_buffer,,null,,,,,,,,,,
591.8999999994412,,pt2_memorable_rating,507506,Montelake,,51,,,3,,,,,,,
null,,confidence_buffer,507607,confidence_buffer,,null,,,,,,,,,,
2386.2999999998137,,recognition_phase,509995,Montelake,,51,,,,,,new,0,0.8461538461538461,,
null,,confidence_buffer,510096,confidence_buffer,,null,,,,,,,,,,
null,,thebreak,510597,break,,null,,,,,,,,,,
3436.100000000559,,realistic_rating,514035,Livingston,,52,Livingston,US,4,,,,,,,
null,,confidence_buffer,514136,confidence_buffer,,null,,,,,,,,,,
632.5,,pt2_unique_rating,514770,Livingston,,51,,,3,,,,,,,
null,,confidence_buffer,514872,confidence_buffer,,null,,,,,,,,,,
1097.5999999996275,,pt2_memorable_rating,515971,Livingston,,50,,,2,,,,,,,
null,,confidence_buffer,516073,confidence_buffer,,null,,,,,,,,,,
1447.2000000001863,,recognition_phase,517522,Livingston,,49,,,,,,old,1,0.8571428571428571,,
null,,confidence_buffer,517623,confidence_buffer,,null,,,,,,,,,,
null,,thebreak,518124,break,,null,,,,,,,,,,
3740.5,,realistic_rating,521866,Crestwood,,51,Crestwood,Fictional,3,,,,,,,
null,,confidence_buffer,521969,confidence_buffer,,null,,,,,,,,,,
1223.9000000003725,,pt2_unique_rating,523194,Crestwood,,50,,,2,,,,,,,
null,,confidence_buffer,523296,confidence_buffer,,null,,,,,,,,,,
1049.2000000001863,,pt2_memorable_rating,524346,Crestwood,,51,,,3,,,,,,,
null,,confidence_buffer,524448,confidence_buffer,,null,,,,,,,,,,
3185.0999999996275,,recognition_phase,527635,Crestwood,,52,,,,,,new,0,0.8,,
null,,confidence_buffer,527737,confidence_buffer,,null,,,,,,,,,,
null,,thebreak,528239,break,,null,,,,,,,,,,
2817.7999999998137,,realistic_rating,531059,Shreveport,,51,Shreveport,US,3,,,,,,,
null,,confidence_buffer,531161,confidence_buffer,,null,,,,,,,,,,
1408.6000000005588,,pt2_unique_rating,532570,Shreveport,,52,,,4,,,,,,,
null,,confidence_buffer,532673,confidence_buffer,,null,,,,,,,,,,
1408.2000000001863,,pt2_memorable_rating,534082,Shreveport,,50,,,2,,,,,,,
null,,confidence_buffer,534185,confidence_buffer,,null,,,,,,,,,,
1600.4000000003725,,recognition_phase,535786,Shreveport,,52,,,,,,new,1,0.8125,,
null,,confidence_buffer,535889,confidence_buffer,,null,,,,,,,,,,
null,,thebreak,536390,break,,null,,,,,,,,,,
3428.100000000559,,realistic_rating,539819,Sierra Hollow,,50,Sierra Hollow,Fictional,2,,,,,,,
null,,confidence_buffer,539922,confidence_buffer,,null,,,,,,,,,,
807.5,,pt2_unique_rating,540731,Sierra Hollow,,51,,,3,,,,,,,
null,,confidence_buffer,540834,confidence_buffer,,null,,,,,,,,,,
895.5,,pt2_memorable_rating,541730,Sierra Hollow,,49,,,1,,,,,,,
null,,confidence_buffer,541833,confidence_buffer,,null,,,,,,,,,,
1752.4000000003725,,recognition_phase,543586,Sierra Hollow,,50,,,,,,old,0,0.7647058823529411,,
null,,confidence_buffer,543689,confidence_buffer,,null,,,,,,,,,,
null,,thebreak,544191,break,,null,,,,,,,,,,
2138.7000000001863,,realistic_rating,546331,Northbridge,,53,Northbridge,Fictional,5,,,,,,,
null,,confidence_buffer,546433,confidence_buffer,,null,,,,,,,,,,
807.7000000001863,,pt2_unique_rating,547242,Northbridge,,50,,,2,,,,,,,
null,,confidence_buffer,547344,confidence_buffer,,null,,,,,,,,,,
304.80000000074506,,pt2_memorable_rating,547650,Northbridge,,51,,,3,,,,,,,
null,,confidence_buffer,547752,confidence_buffer,,null,,,,,,,,,,
1473.0999999996275,,recognition_phase,549226,Northbridge,,49,,,,,,old,1,0.7777777777777778,,
null,,confidence_buffer,549328,confidence_buffer,,null,,,,,,,,,,
null,,thebreak,549830,break,,null,,,,,,,,,,
3539.2999999998137,,realistic_rating,553371,Linden Trace,,50,Linden Trace,Fictional,2,,,,,,,
null,,confidence_buffer,553472,confidence_buffer,,null,,,,,,,,,,
1040.7000000001863,,pt2_unique_rating,554514,Linden Trace,,51,,,3,,,,,,,
null,,confidence_buffer,554616,confidence_buffer,,null,,,,,,,,,,
3377,,probe_rating,557995,probe_rating,,53,,,,5,1,,,,,
null,,confidence_buffer,558096,confidence_buffer,,null,,,,,,,,,,
1232.8999999994412,,pt2_memorable_rating,559331,Linden Trace,,50,,,2,,,,,,,
null,,confidence_buffer,559433,confidence_buffer,,null,,,,,,,,,,
3847.899999999441,,recognition_phase,563282,Linden Trace,,52,,,,,,new,1,0.7894736842105263,,
null,,confidence_buffer,563384,confidence_buffer,,null,,,,,,,,,,
null,,thebreak,563885,break,,null,,,,,,,,,,
2844.4000000003725,,realistic_rating,566731,Coeur d'Alene,,51,Coeur d'Alene,US,3,,,,,,,
null,,confidence_buffer,566833,confidence_buffer,,null,,,,,,,,,,
1264.0999999996275,,pt2_unique_rating,568099,Coeur d'Alene,,51,,,3,,,,,,,
null,,confidence_buffer,568200,confidence_buffer,,null,,,,,,,,,,
665,,pt2_memorable_rating,568867,Coeur d'Alene,,50,,,2,,,,,,,
null,,confidence_buffer,568970,confidence_buffer,,null,,,,,,,,,,
1391.5,,recognition_phase,570362,Coeur d'Alene,,52,,,,,,new,1,0.8,,
null,,confidence_buffer,570465,confidence_buffer,,null,,,,,,,,,,
null,,thebreak,570967,break,,null,,,,,,,,,,
2458.300000000745,,realistic_rating,573426,West Talora,,51,West Talora,Fictional,3,,,,,,,
null,,confidence_buffer,573528,confidence_buffer,,null,,,,,,,,,,
672.5999999996275,,pt2_unique_rating,574202,West Talora,,50,,,2,,,,,,,
null,,confidence_buffer,574304,confidence_buffer,,null,,,,,,,,,,
1201.5,,pt2_memorable_rating,575507,West Talora,,51,,,3,,,,,,,
null,,confidence_buffer,575610,confidence_buffer,,null,,,,,,,,,,
4280,,recognition_phase,579891,West Talora,,52,,,,,,new,1,0.8095238095238095,,
null,,confidence_buffer,579992,confidence_buffer,,null,,,,,,,,,,
null,,thebreak,580494,break,,null,,,,,,,,,,
35739,,realistic_rating,616234,Bowling Green,,53,Bowling Green,US,5,,,,,,,
null,,confidence_buffer,616336,confidence_buffer,,null,,,,,,,,,,
921.5,,pt2_unique_rating,617259,Bowling Green,,52,,,4,,,,,,,
null,,confidence_buffer,617360,confidence_buffer,,null,,,,,,,,,,
1560.2000000001863,,pt2_memorable_rating,618922,Bowling Green,,52,,,4,,,,,,,
null,,confidence_buffer,619023,confidence_buffer,,null,,,,,,,,,,
4522.5,,recognition_phase,623546,Bowling Green,,50,,,,,,old,0,0.7727272727272727,,
null,,confidence_buffer,623648,confidence_buffer,,null,,,,,,,,,,
null,,thebreak,624150,break,,null,,,,,,,,,,
5250.800000000745,,realistic_rating,629402,Juniper Creek,,51,Juniper Creek,Fictional,3,,,,,,,
null,,confidence_buffer,629505,confidence_buffer,,null,,,,,,,,,,
512.3999999994412,,pt2_unique_rating,630018,Juniper Creek,,50,,,2,,,,,,,
null,,confidence_buffer,630120,confidence_buffer,,null,,,,,,,,,,
641.2999999998137,,pt2_memorable_rating,630763,Juniper Creek,,49,,,1,,,,,,,
null,,confidence_buffer,630865,confidence_buffer,,null,,,,,,,,,,
7904.300000000745,,recognition_phase,638771,Juniper Creek,,50,,,,,,old,1,0.782608695652174,,
null,,confidence_buffer,638873,confidence_buffer,,null,,,,,,,,,,
null,,thebreak,639375,break,,null,,,,,,,,,,
3857.7999999998137,,realistic_rating,643235,West Palm Beach,,53,West Palm Beach,US,5,,,,,,,
null,,confidence_buffer,643337,confidence_buffer,,null,,,,,,,,,,
1616.199999999255,,probe_rating,644954,probe_rating,,53,,,,5,1,,,,,
null,,confidence_buffer,645057,confidence_buffer,,null,,,,,,,,,,
1240.300000000745,,pt2_unique_rating,646298,West Palm Beach,,52,,,4,,,,,,,
null,,confidence_buffer,646401,confidence_buffer,,null,,,,,,,,,,
967.2999999998137,,pt2_memorable_rating,647369,West Palm Beach,,52,,,4,,,,,,,
null,,confidence_buffer,647471,confidence_buffer,,null,,,,,,,,,,
4089.2999999998137,,recognition_phase,651562,West Palm Beach,,52,,,,,,new,1,0.7916666666666666,,
null,,confidence_buffer,651663,confidence_buffer,,null,,,,,,,,,,
null,,thebreak,652166,break,,null,,,,,,,,,,
9771.900000000373,,realistic_rating,661939,Huntsville,,51,Huntsville,US,3,,,,,,,
null,,confidence_buffer,662041,confidence_buffer,,null,,,,,,,,,,
1648.2000000001863,,pt2_unique_rating,663691,Huntsville,,52,,,4,,,,,,,
null,,confidence_buffer,663793,confidence_buffer,,null,,,,,,,,,,
584.7999999998137,,pt2_memorable_rating,664379,Huntsville,,50,,,2,,,,,,,
null,,confidence_buffer,664482,confidence_buffer,,null,,,,,,,,,,
4112.0999999996275,,recognition_phase,668595,Huntsville,,51,,,,,,new,0,0.76,,
null,,confidence_buffer,668697,confidence_buffer,,null,,,,,,,,,,
null,,thebreak,669199,break,,null,,,,,,,,,,
1722.2000000001863,,realistic_rating,670922,Highvale,,52,Highvale,Fictional,4,,,,,,,
null,,confidence_buffer,671025,confidence_buffer,,null,,,,,,,,,,
993.2000000001863,,pt2_unique_rating,672019,Highvale,,51,,,3,,,,,,,
null,,confidence_buffer,672122,confidence_buffer,,null,,,,,,,,,,
790.8999999994412,,pt2_memorable_rating,672914,Highvale,,50,,,2,,,,,,,
null,,confidence_buffer,673016,confidence_buffer,,null,,,,,,,,,,
1200.6000000005588,,recognition_phase,674218,Highvale,,52,,,,,,new,1,0.7692307692307693,,
null,,confidence_buffer,674333,confidence_buffer,,null,,,,,,,,,,
null,,thebreak,674835,break,,null,,,,,,,,,,
2486,,realistic_rating,677322,New Hope,,52,New Hope,US,4,,,,,,,
null,,confidence_buffer,677424,confidence_buffer,,null,,,,,,,,,,
921.3000000007451,,pt2_unique_rating,678346,New Hope,,51,,,3,,,,,,,
null,,confidence_buffer,678449,confidence_buffer,,null,,,,,,,,,,
519.9000000003725,,pt2_memorable_rating,678971,New Hope,,50,,,2,,,,,,,
null,,confidence_buffer,679072,confidence_buffer,,null,,,,,,,,,,
1288.3999999994412,,recognition_phase,680362,New Hope,,52,,,,,,new,1,0.7777777777777778,,
null,,confidence_buffer,680464,confidence_buffer,,null,,,,,,,,,,
null,,thebreak,680966,break,,null,,,,,,,,,,
1731.5999999996275,,realistic_rating,682699,Bisbee,,50,Bisbee,US,2,,,,,,,
null,,confidence_buffer,682801,confidence_buffer,,null,,,,,,,,,,
910.7000000001863,,pt2_unique_rating,683714,Bisbee,,51,,,3,,,,,,,
null,,confidence_buffer,683815,confidence_buffer,,null,,,,,,,,,,
1137.5,,pt2_memorable_rating,684954,Bisbee,,49,,,1,,,,,,,
null,,confidence_buffer,685057,confidence_buffer,,null,,,,,,,,,,
1088.2000000001863,,recognition_phase,686146,Bisbee,,52,,,,,,new,1,0.7857142857142857,,
null,,confidence_buffer,686248,confidence_buffer,,null,,,,,,,,,,
null,,thebreak,686750,break,,null,,,,,,,,,,
2010.7999999998137,,realistic_rating,688762,Clearbrook,,51,Clearbrook,Fictional,3,,,,,,,
null,,confidence_buffer,688865,confidence_buffer,,null,,,,,,,,,,
767.7999999998137,,pt2_unique_rating,689634,Clearbrook,,51,,,3,,,,,,,
null,,confidence_buffer,689738,confidence_buffer,,null,,,,,,,,,,
599.5,,pt2_memorable_rating,690338,Clearbrook,,52,,,4,,,,,,,
null,,confidence_buffer,690441,confidence_buffer,,null,,,,,,,,,,
1480.1000000005588,,recognition_phase,691923,Clearbrook,,52,,,,,,new,0,0.7586206896551724,,
null,,confidence_buffer,692025,confidence_buffer,,null,,,,,,,,,,
null,,thebreak,692527,break,,null,,,,,,,,,,
1971.5999999996275,,realistic_rating,694500,Claywater,,51,Claywater,Fictional,3,,,,,,,
null,,confidence_buffer,694603,confidence_buffer,,null,,,,,,,,,,
1086.1000000005588,,pt2_unique_rating,695690,Claywater,,52,,,4,,,,,,,
null,,confidence_buffer,695792,confidence_buffer,,null,,,,,,,,,,
759.5999999996275,,pt2_memorable_rating,696554,Claywater,,51,,,3,,,,,,,
null,,confidence_buffer,696655,confidence_buffer,,null,,,,,,,,,,
994.2000000001863,,recognition_phase,697650,Claywater,,52,,,,,,new,1,0.7666666666666667,,
null,,confidence_buffer,697752,confidence_buffer,,null,,,,,,,,,,
null,,thebreak,698253,break,,null,,,,,,,,,,
1683.699999999255,,realistic_rating,699939,Orr,,49,Orr,US,1,,,,,,,
null,,confidence_buffer,700041,confidence_buffer,,null,,,,,,,,,,
1759.5,,probe_rating,701802,probe_rating,,53,,,,5,1,,,,,
null,,confidence_buffer,701904,confidence_buffer,,null,,,,,,,,,,
1192.2999999998137,,pt2_unique_rating,703098,Orr,,50,,,2,,,,,,,
null,,confidence_buffer,703200,confidence_buffer,,null,,,,,,,,,,
976.6999999992549,,pt2_memorable_rating,704177,Orr,,52,,,4,,,,,,,
null,,confidence_buffer,704279,confidence_buffer,,null,,,,,,,,,,
3522.600000000559,,recognition_phase,707802,Orr,,52,,,,,,new,1,0.7741935483870968,,
null,,confidence_buffer,707904,confidence_buffer,,null,,,,,,,,,,
null,,thebreak,708406,break,,null,,,,,,,,,,
3747.199999999255,,realistic_rating,712154,Bayshore Haven,,50,Bayshore Haven,Fictional,2,,,,,,,
null,,confidence_buffer,712256,confidence_buffer,,null,,,,,,,,,,
720.9000000003725,,pt2_unique_rating,712978,Bayshore Haven,,51,,,3,,,,,,,
null,,confidence_buffer,713081,confidence_buffer,,null,,,,,,,,,,
904.0999999996275,,pt2_memorable_rating,713986,Bayshore Haven,,50,,,2,,,,,,,
null,,confidence_buffer,714088,confidence_buffer,,null,,,,,,,,,,
1377.7000000001863,,recognition_phase,715466,Bayshore Haven,,52,,,,,,new,1,0.78125,,
null,,confidence_buffer,715568,confidence_buffer,,null,,,,,,,,,,
null,,thebreak,716069,break,,null,,,,,,,,,,
1524.0999999996275,,realistic_rating,717595,Leesburg,,49,Leesburg,US,1,,,,,,,
null,,confidence_buffer,717696,confidence_buffer,,null,,,,,,,,,,
849.2000000001863,,pt2_unique_rating,718547,Leesburg,,50,,,2,,,,,,,
null,,confidence_buffer,718648,confidence_buffer,,null,,,,,,,,,,
680.7000000001863,,pt2_memorable_rating,719330,Leesburg,,51,,,3,,,,,,,
null,,confidence_buffer,719432,confidence_buffer,,null,,,,,,,,,,
896,,recognition_phase,720330,Leesburg,,52,,,,,,new,1,0.7878787878787878,,
null,,confidence_buffer,720431,confidence_buffer,,null,,,,,,,,,,
null,,thebreak,720933,break,,null,,,,,,,,,,
2604,,realistic_rating,723538,Newport,,53,Newport,US,5,,,,,,,
null,,confidence_buffer,723654,confidence_buffer,,null,,,,,,,,,,
538.5,,pt2_unique_rating,724194,Newport,,52,,,4,,,,,,,
null,,confidence_buffer,724296,confidence_buffer,,null,,,,,,,,,,
2040.6000000005588,,pt2_memorable_rating,726338,Newport,,51,,,3,,,,,,,
null,,confidence_buffer,726440,confidence_buffer,,null,,,,,,,,,,
1168.5,,recognition_phase,727610,Newport,,49,,,,,,old,0,0.7647058823529411,,
null,,confidence_buffer,727712,confidence_buffer,,null,,,,,,,,,,
null,,thebreak,728213,break,,null,,,,,,,,,,
4876.200000000186,,realistic_rating,733091,Tamarisk Hills,,50,Tamarisk Hills,Fictional,2,,,,,,,
null,,confidence_buffer,733194,confidence_buffer,,null,,,,,,,,,,
1118.5999999996275,,pt2_unique_rating,734314,Tamarisk Hills,,51,,,3,,,,,,,
null,,confidence_buffer,734416,confidence_buffer,,null,,,,,,,,,,
697.1999999992549,,pt2_memorable_rating,735114,Tamarisk Hills,,52,,,4,,,,,,,
null,,confidence_buffer,735216,confidence_buffer,,null,,,,,,,,,,
1264.5999999996275,,recognition_phase,736482,Tamarisk Hills,,52,,,,,,new,1,0.7714285714285715,,
null,,confidence_buffer,736584,confidence_buffer,,null,,,,,,,,,,
null,,thebreak,737085,break,,null,,,,,,,,,,
2763.100000000559,,realistic_rating,739849,Millstone,,51,Millstone,Fictional,3,,,,,,,
null,,confidence_buffer,739952,confidence_buffer,,null,,,,,,,,,,
672.7999999998137,,pt2_unique_rating,740626,Millstone,,51,,,3,,,,,,,
null,,confidence_buffer,740728,confidence_buffer,,null,,,,,,,,,,
776.1999999992549,,pt2_memorable_rating,741505,Millstone,,50,,,2,,,,,,,
null,,confidence_buffer,741607,confidence_buffer,,null,,,,,,,,,,
1874.5,,recognition_phase,743482,Millstone,,50,,,,,,old,1,0.7777777777777778,,
null,,confidence_buffer,743585,confidence_buffer,,null,,,,,,,,,,
null,,thebreak,744087,break,,null,,,,,,,,,,
1570.4000000003725,,realistic_rating,745658,Redgrove,,52,Redgrove,Fictional,4,,,,,,,
null,,confidence_buffer,745761,confidence_buffer,,null,,,,,,,,,,
711.6999999992549,,pt2_unique_rating,746474,Redgrove,,51,,,3,,,,,,,
null,,confidence_buffer,746576,confidence_buffer,,null,,,,,,,,,,
377,,pt2_memorable_rating,746954,Redgrove,,50,,,2,,,,,,,
null,,confidence_buffer,747057,confidence_buffer,,null,,,,,,,,,,
1512.5,,recognition_phase,748570,Redgrove,,52,,,,,,new,1,0.7837837837837838,,
null,,confidence_buffer,748673,confidence_buffer,,null,,,,,,,,,,
null,,thebreak,749175,break,,null,,,,,,,,,,
2361.5,,realistic_rating,751538,Ironwood Heights,,50,Ironwood Heights,Fictional,2,,,,,,,
null,,confidence_buffer,751640,confidence_buffer,,null,,,,,,,,,,
848.7999999998137,,pt2_unique_rating,752490,Ironwood Heights,,51,,,3,,,,,,,
null,,confidence_buffer,752592,confidence_buffer,,null,,,,,,,,,,
1217.2999999998137,,pt2_memorable_rating,753811,Ironwood Heights,,50,,,2,,,,,,,
null,,confidence_buffer,753913,confidence_buffer,,null,,,,,,,,,,
2463.5999999996275,,recognition_phase,756377,Ironwood Heights,,52,,,,,,new,1,0.7894736842105263,,
null,,confidence_buffer,756478,confidence_buffer,,null,,,,,,,,,,
null,,thebreak,756980,break,,null,,,,,,,,,,
4229.5,,realistic_rating,761211,Custer,,50,Custer,US,2,,,,,,,
null,,confidence_buffer,761313,confidence_buffer,,null,,,,,,,,,,
672.2999999998137,,pt2_unique_rating,761986,Custer,,51,,,3,,,,,,,
null,,confidence_buffer,762088,confidence_buffer,,null,,,,,,,,,,
1095.8999999994412,,pt2_memorable_rating,763185,Custer,,51,,,3,,,,,,,
null,,confidence_buffer,763288,confidence_buffer,,null,,,,,,,,,,
4793.700000000186,,recognition_phase,768082,Custer,,50,,,,,,old,1,0.7948717948717948,,
null,,confidence_buffer,768184,confidence_buffer,,null,,,,,,,,,,
null,,thebreak,768686,break,,null,,,,,,,,,,
18323.200000000186,,realistic_rating,787011,Racine,,50,Racine,US,2,,,,,,,
null,,confidence_buffer,787113,confidence_buffer,,null,,,,,,,,,,
5832.199999999255,,pt2_unique_rating,792946,Racine,,51,,,3,,,,,,,
null,,confidence_buffer,793048,confidence_buffer,,null,,,,,,,,,,
2609.5,,pt2_memorable_rating,795659,Racine,,50,,,2,,,,,,,
null,,confidence_buffer,795762,confidence_buffer,,null,,,,,,,,,,
2534.9000000003725,,recognition_phase,798298,Racine,,52,,,,,,new,1,0.8,,
null,,confidence_buffer,798399,confidence_buffer,,null,,,,,,,,,,
null,,thebreak,798901,break,,null,,,,,,,,,,
1580.2000000001863,,realistic_rating,800482,Driftwood Bay,,51,Driftwood Bay,Fictional,3,,,,,,,
null,,confidence_buffer,800584,confidence_buffer,,null,,,,,,,,,,
752.6999999992549,,pt2_unique_rating,801338,Driftwood Bay,,50,,,2,,,,,,,
null,,confidence_buffer,801441,confidence_buffer,,null,,,,,,,,,,
712.1999999992549,,pt2_memorable_rating,802154,Driftwood Bay,,49,,,1,,,,,,,
null,,confidence_buffer,802257,confidence_buffer,,null,,,,,,,,,,
2016.2999999998137,,recognition_phase,804275,Driftwood Bay,,52,,,,,,new,0,0.7804878048780488,,
null,,confidence_buffer,804377,confidence_buffer,,null,,,,,,,,,,
null,,thebreak,804879,break,,null,,,,,,,,,,
1569.7999999998137,,realistic_rating,806450,Willowford,,51,Willowford,Fictional,3,,,,,,,
null,,confidence_buffer,806552,confidence_buffer,,null,,,,,,,,,,
497,,pt2_unique_rating,807050,Willowford,,50,,,2,,,,,,,
null,,confidence_buffer,807152,confidence_buffer,,null,,,,,,,,,,
585.0999999996275,,pt2_memorable_rating,807738,Willowford,,49,,,1,,,,,,,
null,,confidence_buffer,807840,confidence_buffer,,null,,,,,,,,,,
945.1000000005588,,recognition_phase,808787,Willowford,,52,,,,,,new,1,0.7857142857142857,,
null,,confidence_buffer,808890,confidence_buffer,,null,,,,,,,,,,
null,,thebreak,809391,break,,null,,,,,,,,,,
1769.7999999998137,,realistic_rating,811162,Cody,,51,Cody,US,3,,,,,,,
null,,confidence_buffer,811265,confidence_buffer,,null,,,,,,,,,,
415.3999999994412,,probe_rating,811682,probe_rating,,50,,,,2,0,,,,,
null,,confidence_buffer,811784,confidence_buffer,,null,,,,,,,,,,
4240.299999999814,,pt2_unique_rating,816026,Cody,,52,,,4,,,,,,,
null,,confidence_buffer,816128,confidence_buffer,,null,,,,,,,,,,
2160,,pt2_memorable_rating,818289,Cody,,51,,,3,,,,,,,
null,,confidence_buffer,818390,confidence_buffer,,null,,,,,,,,,,
1642.2999999998137,,recognition_phase,820034,Cody,,50,,,,,,old,1,0.7906976744186046,,
null,,confidence_buffer,820135,confidence_buffer,,null,,,,,,,,,,
null,,thebreak,820636,break,,null,,,,,,,,,,
3500.800000000745,,realistic_rating,824138,Barnard,,52,Barnard,US,4,,,,,,,
null,,confidence_buffer,824240,confidence_buffer,,null,,,,,,,,,,
745,,pt2_unique_rating,824987,Barnard,,50,,,2,,,,,,,
null,,confidence_buffer,825089,confidence_buffer,,null,,,,,,,,,,
752.0999999996275,,pt2_memorable_rating,825842,Barnard,,49,,,1,,,,,,,
null,,confidence_buffer,825945,confidence_buffer,,null,,,,,,,,,,
1976,,recognition_phase,827922,Barnard,,50,,,,,,old,1,0.7954545454545454,,
null,,confidence_buffer,828024,confidence_buffer,,null,,,,,,,,,,
null,,thebreak,828537,break,,null,,,,,,,,,,
1823.7999999998137,,realistic_rating,830363,Cape May,,51,Cape May,US,3,,,,,,,
null,,confidence_buffer,830464,confidence_buffer,,null,,,,,,,,,,
960.8999999994412,,pt2_unique_rating,831426,Cape May,,52,,,4,,,,,,,
null,,confidence_buffer,831528,confidence_buffer,,null,,,,,,,,,,
672.7999999998137,,pt2_memorable_rating,832203,Cape May,,50,,,2,,,,,,,
null,,confidence_buffer,832305,confidence_buffer,,null,,,,,,,,,,
2447.9000000003725,,recognition_phase,834754,Cape May,,51,,,,,,new,0,0.7777777777777778,,
null,,confidence_buffer,834855,confidence_buffer,,null,,,,,,,,,,
null,,thebreak,835356,break,,null,,,,,,,,,,
2828.4000000003725,,realistic_rating,838186,Cornwall,,51,Cornwall,US,3,,,,,,,
null,,confidence_buffer,838288,confidence_buffer,,null,,,,,,,,,,
977.0999999996275,,pt2_unique_rating,839267,Cornwall,,52,,,4,,,,,,,
null,,confidence_buffer,839368,confidence_buffer,,null,,,,,,,,,,
696.7999999998137,,pt2_memorable_rating,840066,Cornwall,,50,,,2,,,,,,,
null,,confidence_buffer,840167,confidence_buffer,,null,,,,,,,,,,
1289,,recognition_phase,841458,Cornwall,,51,,,,,,new,0,0.7608695652173914,,
null,,confidence_buffer,841559,confidence_buffer,,null,,,,,,,,,,
null,,thebreak,842062,break,,null,,,,,,,,,,
2283.0999999996275,,realistic_rating,844346,Solara Glen,,50,Solara Glen,Fictional,2,,,,,,,
null,,confidence_buffer,844448,confidence_buffer,,null,,,,,,,,,,
1048.3999999994412,,pt2_unique_rating,845498,Solara Glen,,52,,,4,,,,,,,
null,,confidence_buffer,845600,confidence_buffer,,null,,,,,,,,,,
577.2000000001863,,pt2_memorable_rating,846179,Solara Glen,,49,,,1,,,,,,,
null,,confidence_buffer,846282,confidence_buffer,,null,,,,,,,,,,
942.6000000005588,,recognition_phase,847226,Solara Glen,,52,,,,,,new,1,0.7659574468085106,,
null,,confidence_buffer,847328,confidence_buffer,,null,,,,,,,,,,
null,,thebreak,847830,break,,null,,,,,,,,,,
1354.0999999996275,,realistic_rating,849185,Yukon,,49,Yukon,US,1,,,,,,,
null,,confidence_buffer,849286,confidence_buffer,,null,,,,,,,,,,
747.0999999996275,,pt2_unique_rating,850035,Yukon,,50,,,2,,,,,,,
null,,confidence_buffer,850136,confidence_buffer,,null,,,,,,,,,,
992.1999999992549,,pt2_memorable_rating,851130,Yukon,,52,,,4,,,,,,,
null,,confidence_buffer,851232,confidence_buffer,,null,,,,,,,,,,
1097,,recognition_phase,852331,Yukon,,52,,,,,,new,1,0.7708333333333334,,
null,,confidence_buffer,852432,confidence_buffer,,null,,,,,,,,,,
null,,thebreak,852935,break,,null,,,,,,,,,,
2345.899999999441,,realistic_rating,855282,Folly Beach,,50,Folly Beach,US,2,,,,,,,
null,,confidence_buffer,855384,confidence_buffer,,null,,,,,,,,,,
1200.5999999996275,,pt2_unique_rating,856586,Folly Beach,,51,,,3,,,,,,,
null,,confidence_buffer,856687,confidence_buffer,,null,,,,,,,,,,
1225.2000000001863,,pt2_memorable_rating,857914,Folly Beach,,50,,,2,,,,,,,
null,,confidence_buffer,858015,confidence_buffer,,null,,,,,,,,,,
2753,,recognition_phase,860770,Folly Beach,,51,,,,,,new,0,0.7551020408163265,,
null,,confidence_buffer,860872,confidence_buffer,,null,,,,,,,,,,
null,,thebreak,861374,break,,null,,,,,,,,,,
2795.2000000001863,,realistic_rating,864170,Meadowspire,,51,Meadowspire,Fictional,3,,,,,,,
null,,confidence_buffer,864272,confidence_buffer,,null,,,,,,,,,,
640.9000000003725,,pt2_unique_rating,864914,Meadowspire,,52,,,4,,,,,,,
null,,confidence_buffer,865016,confidence_buffer,,null,,,,,,,,,,
817.0999999996275,,pt2_memorable_rating,865834,Meadowspire,,50,,,2,,,,,,,
null,,confidence_buffer,865936,confidence_buffer,,null,,,,,,,,,,
2592.7999999998137,,recognition_phase,868530,Meadowspire,,52,,,,,,new,0,0.74,,
null,,confidence_buffer,868632,confidence_buffer,,null,,,,,,,,,,
null,,thebreak,869141,break,,null,,,,,,,,,,
2347.399999999441,,realistic_rating,871490,Briarfield,,50,Briarfield,Fictional,2,,,,,,,
null,,confidence_buffer,871591,confidence_buffer,,null,,,,,,,,,,
2986.0999999996275,,pt2_unique_rating,874579,Briarfield,,51,,,3,,,,,,,
null,,confidence_buffer,874681,confidence_buffer,,null,,,,,,,,,,
1152.2999999998137,,pt2_memorable_rating,875834,Briarfield,,52,,,4,,,,,,,
null,,confidence_buffer,875939,confidence_buffer,,null,,,,,,,,,,
1141.2000000001863,,recognition_phase,877082,Briarfield,,52,,,,,,new,0,0.7254901960784313,,
null,,confidence_buffer,877183,confidence_buffer,,null,,,,,,,,,,
null,,thebreak,877685,break,,null,,,,,,,,,,
2923.5999999996275,,realistic_rating,880610,Lakehaven,,50,Lakehaven,Fictional,2,,,,,,,
null,,confidence_buffer,880711,confidence_buffer,,null,,,,,,,,,,
585,,pt2_unique_rating,881298,Lakehaven,,51,,,3,,,,,,,
null,,confidence_buffer,881400,confidence_buffer,,null,,,,,,,,,,
848.3999999994412,,pt2_memorable_rating,882250,Lakehaven,,52,,,4,,,,,,,
null,,confidence_buffer,882351,confidence_buffer,,null,,,,,,,,,,
3058.0999999996275,,recognition_phase,885411,Lakehaven,,51,,,,,,new,1,0.7307692307692307,,
null,,confidence_buffer,885513,confidence_buffer,,null,,,,,,,,,,
null,,thebreak,886015,break,,null,,,,,,,,,,
2337.5,,realistic_rating,888354,Falconridge,,49,Falconridge,Fictional,1,,,,,,,
null,,confidence_buffer,888455,confidence_buffer,,null,,,,,,,,,,
1441.800000000745,,pt2_unique_rating,889898,Falconridge,,50,,,2,,,,,,,
null,,confidence_buffer,890000,confidence_buffer,,null,,,,,,,,,,
560.7999999998137,,pt2_memorable_rating,890562,Falconridge,,51,,,3,,,,,,,
null,,confidence_buffer,890665,confidence_buffer,,null,,,,,,,,,,
1471.9000000003725,,probe_rating,892138,probe_rating,,50,,,,2,1,,,,,
null,,confidence_buffer,892240,confidence_buffer,,null,,,,,,,,,,
3857,,recognition_phase,896098,Falconridge,,52,,,,,,new,1,0.7358490566037735,,
null,,confidence_buffer,896201,confidence_buffer,,null,,,,,,,,,,
null,,thebreak,896702,break,,null,,,,,,,,,,
1986.4000000003725,,realistic_rating,898690,Alliance,,51,Alliance,US,3,,,,,,,
null,,confidence_buffer,898792,confidence_buffer,,null,,,,,,,,,,
688.2000000001863,,pt2_unique_rating,899482,Alliance,,52,,,4,,,,,,,
null,,confidence_buffer,899584,confidence_buffer,,null,,,,,,,,,,
824.7999999998137,,pt2_memorable_rating,900410,Alliance,,50,,,2,,,,,,,
null,,confidence_buffer,900513,confidence_buffer,,null,,,,,,,,,,
1832.8999999994412,,recognition_phase,902347,Alliance,,50,,,,,,old,1,0.7407407407407407,,
null,,confidence_buffer,902449,confidence_buffer,,null,,,,,,,,,,
null,,thebreak,902951,break,,null,,,,,,,,,,
1729.9000000003725,,realistic_rating,904682,Hot Springs,,52,Hot Springs,US,4,,,,,,,
null,,confidence_buffer,904784,confidence_buffer,,null,,,,,,,,,,
720.6999999992549,,pt2_unique_rating,905506,Hot Springs,,51,,,3,,,,,,,
null,,confidence_buffer,905608,confidence_buffer,,null,,,,,,,,,,
633,,pt2_memorable_rating,906243,Hot Springs,,50,,,2,,,,,,,
null,,confidence_buffer,906345,confidence_buffer,,null,,,,,,,,,,
1191.2000000001863,,recognition_phase,907538,Hot Springs,,49,,,,,,old,1,0.7454545454545455,,
null,,confidence_buffer,907640,confidence_buffer,,null,,,,,,,,,,
null,,thebreak,908142,break,,null,,,,,,,,,,
2722.2000000001863,,realistic_rating,910866,Brookmere,,49,Brookmere,Fictional,1,,,,,,,
null,,confidence_buffer,910968,confidence_buffer,,null,,,,,,,,,,
529.1000000005588,,pt2_unique_rating,911498,Brookmere,,50,,,2,,,,,,,
null,,confidence_buffer,911601,confidence_buffer,,null,,,,,,,,,,
662.7000000001863,,pt2_memorable_rating,912265,Brookmere,,51,,,3,,,,,,,
null,,confidence_buffer,912367,confidence_buffer,,null,,,,,,,,,,
2314.0999999996275,,recognition_phase,914682,Brookmere,,51,,,,,,new,0,0.7321428571428571,,
null,,confidence_buffer,914783,confidence_buffer,,null,,,,,,,,,,
null,,thebreak,915285,break,,null,,,,,,,,,,
3475,,realistic_rating,918761,Duck,,49,Duck,US,1,,,,,,,
null,,confidence_buffer,918863,confidence_buffer,,null,,,,,,,,,,
9730,,pt2_unique_rating,928594,Duck,,49,,,1,,,,,,,
null,,confidence_buffer,928697,confidence_buffer,,null,,,,,,,,,,
5423,,pt2_memorable_rating,934121,Duck,,50,,,2,,,,,,,
null,,confidence_buffer,934222,confidence_buffer,,null,,,,,,,,,,
2569.7999999998137,,recognition_phase,936794,Duck,,49,,,,,,old,1,0.7368421052631579,,
null,,confidence_buffer,936896,confidence_buffer,,null,,,,,,,,,,
null,,thebreak,937398,break,,null,,,,,,,,,,
53762.90000000037,,realistic_rating,991162,Hollendale,,51,Hollendale,Fictional,3,,,,,,,
null,,confidence_buffer,991265,confidence_buffer,,null,,,,,,,,,,
623.0999999996275,,pt2_unique_rating,991890,Hollendale,,50,,,2,,,,,,,
null,,confidence_buffer,991992,confidence_buffer,,null,,,,,,,,,,
721.2000000001863,,pt2_memorable_rating,992714,Hollendale,,52,,,4,,,,,,,
null,,confidence_buffer,992817,confidence_buffer,,null,,,,,,,,,,
2551.399999999441,,recognition_phase,995370,Hollendale,,51,,,,,,new,0,0.7241379310344828,,
null,,confidence_buffer,995473,confidence_buffer,,null,,,,,,,,,,
null,,thebreak,995975,break,,null,,,,,,,,,,
3665.0999999996275,,realistic_rating,999641,Albuquerque,,53,Albuquerque,US,5,,,,,,,
null,,confidence_buffer,999743,confidence_buffer,,null,,,,,,,,,,
1018,,pt2_unique_rating,1000762,Albuquerque,,51,,,3,,,,,,,
null,,confidence_buffer,1000864,confidence_buffer,,null,,,,,,,,,,
880.8999999994412,,pt2_memorable_rating,1001746,Albuquerque,,50,,,2,,,,,,,
null,,confidence_buffer,1001848,confidence_buffer,,null,,,,,,,,,,
1528.300000000745,,recognition_phase,1003378,Albuquerque,,49,,,,,,old,1,0.7288135593220338,,
null,,confidence_buffer,1003480,confidence_buffer,,null,,,,,,,,,,
null,,thebreak,1003982,break,,null,,,,,,,,,,
1914.800000000745,,realistic_rating,1005898,San Antonio,,51,San Antonio,US,3,,,,,,,
null,,confidence_buffer,1006000,confidence_buffer,,null,,,,,,,,,,
1848.300000000745,,pt2_unique_rating,1007850,San Antonio,,50,,,2,,,,,,,
null,,confidence_buffer,1007952,confidence_buffer,,null,,,,,,,,,,
896.7000000001863,,pt2_memorable_rating,1008850,San Antonio,,51,,,3,,,,,,,
null,,confidence_buffer,1008963,confidence_buffer,,null,,,,,,,,,,
1501.2000000001863,,probe_rating,1010466,probe_rating,,49,,,,1,1,,,,,
null,,confidence_buffer,1010568,confidence_buffer,,null,,,,,,,,,,
2039.9000000003725,,recognition_phase,1012609,San Antonio,,52,,,,,,new,1,0.7333333333333333,,
null,,confidence_buffer,1012711,confidence_buffer,,null,,,,,,,,,,
null,,thebreak,1013213,break,,null,,,,,,,,,,
67244.89999999944,,thank_you,1080489,all_done,,32,,,,,,,,,2,1
