rt,responses,trial_type,time_elapsed,image_type,sequence,stimulus,cities,city_images,button_pressed,response,key_press,stimulus_left,stimulus_right,cumulative_accuracy,accuracy,stimulus_down_left,stimulus_down_mid,stimulus_down_right,stimulus_correct,stimulus_short,stimulus_far,weighted_accuracy,missedtrial,condition,specific_pairs,imgL_ID,imgR_ID,linedress,linedressed,detour_trial,linedressed_detor
5884,{worker_id:56cf6e8d31a5bc0006e1cdf5},id_enter,5890,fictional,interleaved,flights,Granton Ridge; Cedarwyn; Claywater; Delaro Park; Hollendale; North Arroya; Orchard Bend; New Verdan; Hawthorne Bluffs; Riverlyn; Sunmere; Juniper Creek; Baymarsh,US_Cities_List/hanover.png; US_Cities_List/huntsville.png; US_Cities_List/boulder.png; US_Cities_List/cornwall.png; US_Cities_List/carmel.png; US_Cities_List/newhope.png; US_Cities_List/peoria.png; US_Cities_List/racine.png; US_Cities_List/shreveport.png; US_Cities_List/westpalmbeach.png; US_Cities_List/hotsprings.png; US_Cities_List/gatlinburg.png; US_Cities_List/leesburg.png,,,,,,,,,,,,,,,,,,,,,,,
9846,,fullscreen,15749,,,make_fullscreen,,,0,,,,,,,,,,,,,,,,,,,,,,
11650,,intro_1,27404,,,instruct,,,0,,,,,,,,,,,,,,,,,,,,,,
13369,,intro_2,40777,,,instruct,,,1,Next,,,,,,,,,,,,,,,,,,,,,
12736,,intro_3,53518,,,instruct,,,1,Next,,,,,,,,,,,,,,,,,,,,,
10951,,intro_4,64471,,,instruct,,,1,Next,,,,,,,,,,,,,,,,,,,,,
9623,,intro_5,74097,,,instruct,,,1,Next,,,,,,,,,,,,,,,,,,,,,
20978,,intro_6,95080,,,instruct,,,1,Next,,,,,,,,,,,,,,,,,,,,,
8736,,intro_7,103818,,,instruct,,,1,Next,,,,,,,,,,,,,,,,,,,,,
null,,learn_prac_1,106823,,,lean_prac_1,,,,,null,,,,,,,,,,,,,,,,,,,,
null,,html-keyboard-response,107838,,,<p></p>,,,,,null,,,,,,,,,,,,,,,,,,,,
17551,,intro_1,125390,,,instruct,,,0,,,,,,,,,,,,,,,,,,,,,,
12558,,intro_2,137950,,,instruct,,,1,Next,,,,,,,,,,,,,,,,,,,,,
null,,learn_prac_2,140967,,,lean_prac_2,,,,,null,,,,,,,,,,,,,,,,,,,,
null,,html-keyboard-response,141972,,,<p></p>,,,,,null,,,,,,,,,,,,,,,,,,,,
20632,,intro_1,162605,,,instruct,,,0,,,,,,,,,,,,,,,,,,,,,,
8237,,intro_2,170845,,,instruct,,,1,Next,,,,,,,,,,,,,,,,,,,,,
26473,,intro_3,197321,,,instruct,,,1,Next,,,,,,,,,,,,,,,,,,,,,
null,,prac_atten_color_black,198322,,,black_plus_sign,,,,,null,,,,,,,,,,,,,,,,,,,,
null,,prac_atten_color,198745,,,prac_stop_color,,,,,null,,,,,,,,,,,,,,,,,,,,
936,,prac_atten_color_black,200751,,,black_plus_sign,,,,,49,,,,,,,,,,,,,,,,,,,,
null,,prac_atten_color_black,201758,,,black_plus_sign,,,,,null,,,,,,,,,,,,,,,,,,,,
575,,prac_atten_color,202799,,,prac_stop_color,,,,,50,,,,,,,,,,,,,,,,,,,,
null,,prac_atten_color_black,204812,,,black_plus_sign,,,,,null,,,,,,,,,,,,,,,,,,,,
null,,prac_atten_color_black,205198,,,black_plus_sign,,,,,null,,,,,,,,,,,,,,,,,,,,
732,,prac_atten_color,206248,,,prac_stop_color,,,,,50,,,,,,,,,,,,,,,,,,,,
null,,prac_atten_color_black,208259,,,black_plus_sign,,,,,null,,,,,,,,,,,,,,,,,,,,
null,,prac_atten_color_black,208630,,,black_plus_sign,,,,,null,,,,,,,,,,,,,,,,,,,,
546,,prac_atten_color,209336,,,prac_stop_color,,,,,49,,,,,,,,,,,,,,,,,,,,
null,,prac_atten_color_black,211339,,,black_plus_sign,,,,,null,,,,,,,,,,,,,,,,,,,,
null,,prac_atten_color_black,212060,,,black_plus_sign,,,,,null,,,,,,,,,,,,,,,,,,,,
638,,prac_atten_color,212794,,,prac_stop_color,,,,,50,,,,,,,,,,,,,,,,,,,,
null,,prac_atten_color_black,214807,,,black_plus_sign,,,,,null,,,,,,,,,,,,,,,,,,,,
null,,prac_atten_color_black,215502,,,black_plus_sign,,,,,null,,,,,,,,,,,,,,,,,,,,
491,,prac_atten_color,216547,,,prac_stop_color,,,,,50,,,,,,,,,,,,,,,,,,,,
null,,prac_atten_color_black,218782,,,black_plus_sign,,,,,null,,,,,,,,,,,,,,,,,,,,
null,,prac_atten_color_black,219259,,,black_plus_sign,,,,,null,,,,,,,,,,,,,,,,,,,,
null,,prac_atten_color,219714,,,prac_stop_color,,,,,null,,,,,,,,,,,,,,,,,,,,
321,,prac_atten_color_black,221729,,,black_plus_sign,,,,,49,,,,,,,,,,,,,,,,,,,,
null,,prac_atten_color_black,222697,,,black_plus_sign,,,,,null,,,,,,,,,,,,,,,,,,,,
444,,prac_atten_color,223206,,,prac_stop_color,,,,,50,,,,,,,,,,,,,,,,,,,,
null,,prac_atten_color_black,225214,,,black_plus_sign,,,,,null,,,,,,,,,,,,,,,,,,,,
null,,prac_atten_color_black,226127,,,black_plus_sign,,,,,null,,,,,,,,,,,,,,,,,,,,
505,,prac_atten_color,226921,,,prac_stop_color,,,,,49,,,,,,,,,,,,,,,,,,,,
null,,prac_atten_color_black,228928,,,black_plus_sign,,,,,null,,,,,,,,,,,,,,,,,,,,
null,,prac_atten_color_black,229571,,,black_plus_sign,,,,,null,,,,,,,,,,,,,,,,,,,,
null,,prac_atten_color,230151,,,prac_stop_color,,,,,null,,,,,,,,,,,,,,,,,,,,
128,,prac_atten_color_black,232161,,,black_plus_sign,,,,,49,,,,,,,,,,,,,,,,,,,,
7534,,attentioncheck_feedback,239698,,,cross_check_feedback,,,0,,,,,,,,,,,,,,,,,,,,,,
9494,,last_instruct,249195,,,instruct,,,,,32,,,,,,,,,,,,,,,,,,,,
null,,learn_phase(without_color),252225,,,black_plus_sign,,,,,null,US_Cities_List/leesburg.png,US_Cities_List/peoria.png,,,,,,,,,,,,,,,,,,
null,,black_cross(without_color),252642,,,yellow,,,,,null,US_Cities_List/leesburg.png,US_Cities_List/peoria.png,,,,,,,,,,,,,,,,,,
null,,rt_plussign_withcolor,253152,,,yellow,,,,,null,US_Cities_List/leesburg.png,US_Cities_List/peoria.png,,,,,,,,,,,,,,,,,,
null,,rt_thecrossant_black,254763,,,black_plus_sign,,,,,null,,,NaN,,,,,,,,,,,,,,,,,
null,,color_black,254867,,,black_plus_sign,,,,,null,,,,,,,,,,,,,,,,,,,,
null,,learn_phase(without_color),257890,,,black_plus_sign,,,,,null,US_Cities_List/boulder.png,US_Cities_List/newhope.png,,,,,,,,,,,,,,,,,,
null,,black_cross(without_color),258965,,,yellow,,,,,null,US_Cities_List/boulder.png,US_Cities_List/newhope.png,,,,,,,,,,,,,,,,,,
null,,rt_plussign_withcolor,259473,,,yellow,,,,,null,US_Cities_List/boulder.png,US_Cities_List/newhope.png,,,,,,,,,,,,,,,,,,
null,,rt_thecrossant_black,260416,,,black_plus_sign,,,,,null,,,NaN,,,,,,,,,,,,,,,,,
null,,warning_page,263418,,,warning,,,,,null,,,,,,,,,,,,,,,,,,,,
null,,color_black,263531,,,black_plus_sign,,,,,null,,,,,,,,,,,,,,,,,,,,
null,,learn_phase(without_color),266548,,,black_plus_sign,,,,,null,US_Cities_List/boulder.png,US_Cities_List/hotsprings.png,,,,,,,,,,,,,,,,,,
null,,black_cross(without_color),267047,,,blue,,,,,null,US_Cities_List/boulder.png,US_Cities_List/hotsprings.png,,,,,,,,,,,,,,,,,,
null,,rt_plussign_withcolor,267559,,,blue,,,,,null,US_Cities_List/boulder.png,US_Cities_List/hotsprings.png,,,,,,,,,,,,,,,,,,
null,,rt_thecrossant_black,269247,,,black_plus_sign,,,,,null,,,NaN,,,,,,,,,,,,,,,,,
null,,warning_page,272263,,,warning,,,,,null,,,,,,,,,,,,,,,,,,,,
null,,color_black,272372,,,black_plus_sign,,,,,null,,,,,,,,,,,,,,,,,,,,
null,,learn_phase(without_color),275401,,,black_plus_sign,,,,,null,US_Cities_List/peoria.png,US_Cities_List/leesburg.png,,,,,,,,,,,,,,,,,,
null,,black_cross(without_color),276390,,,blue,,,,,null,US_Cities_List/peoria.png,US_Cities_List/leesburg.png,,,,,,,,,,,,,,,,,,
null,,rt_plussign_withcolor,276903,,,blue,,,,,null,US_Cities_List/peoria.png,US_Cities_List/leesburg.png,,,,,,,,,,,,,,,,,,
1113,,rt_thecrossant_black,277948,,,black_plus_sign,,,,,49,,,1,1,,,,,,,,,,,,,,,,
null,,color_black,278065,,,black_plus_sign,,,,,null,,,,,,,,,,,,,,,,,,,,
null,,learn_phase(without_color),281273,,,black_plus_sign,,,,,null,US_Cities_List/hotsprings.png,US_Cities_List/boulder.png,,,,,,,,,,,,,,,,,,
null,,black_cross(without_color),282036,,,yellow,,,,,null,US_Cities_List/hotsprings.png,US_Cities_List/boulder.png,,,,,,,,,,,,,,,,,,
null,,rt_plussign_withcolor,282549,,,yellow,,,,,null,US_Cities_List/hotsprings.png,US_Cities_List/boulder.png,,,,,,,,,,,,,,,,,,
1202,,rt_thecrossant_black,283805,,,black_plus_sign,,,,,50,,,1,1,,,,,,,,,,,,,,,,
null,,color_black,283916,,,black_plus_sign,,,,,null,,,,,,,,,,,,,,,,,,,,
null,,learn_phase(without_color),286936,,,black_plus_sign,,,,,null,US_Cities_List/shreveport.png,US_Cities_List/racine.png,,,,,,,,,,,,,,,,,,
null,,black_cross(without_color),287598,,,blue,,,,,null,US_Cities_List/shreveport.png,US_Cities_List/racine.png,,,,,,,,,,,,,,,,,,
null,,rt_plussign_withcolor,288113,,,blue,,,,,null,US_Cities_List/shreveport.png,US_Cities_List/racine.png,,,,,,,,,,,,,,,,,,
1156,,rt_thecrossant_black,289475,,,black_plus_sign,,,,,49,,,1,1,,,,,,,,,,,,,,,,
null,,color_black,289585,,,black_plus_sign,,,,,null,,,,,,,,,,,,,,,,,,,,
null,,learn_phase(without_color),292613,,,black_plus_sign,,,,,null,US_Cities_List/peoria.png,US_Cities_List/racine.png,,,,,,,,,,,,,,,,,,
null,,black_cross(without_color),293503,,,yellow,,,,,null,US_Cities_List/peoria.png,US_Cities_List/racine.png,,,,,,,,,,,,,,,,,,
null,,rt_plussign_withcolor,294066,,,yellow,,,,,null,US_Cities_List/peoria.png,US_Cities_List/racine.png,,,,,,,,,,,,,,,,,,
838,,rt_thecrossant_black,295207,,,black_plus_sign,,,,,50,,,1,1,,,,,,,,,,,,,,,,
null,,color_black,295317,,,black_plus_sign,,,,,null,,,,,,,,,,,,,,,,,,,,
null,,learn_phase(without_color),298349,,,black_plus_sign,,,,,null,US_Cities_List/racine.png,US_Cities_List/peoria.png,,,,,,,,,,,,,,,,,,
null,,black_cross(without_color),299419,,,blue,,,,,null,US_Cities_List/racine.png,US_Cities_List/peoria.png,,,,,,,,,,,,,,,,,,
null,,rt_plussign_withcolor,299932,,,blue,,,,,null,US_Cities_List/racine.png,US_Cities_List/peoria.png,,,,,,,,,,,,,,,,,,
1221,,rt_thecrossant_black,300871,,,black_plus_sign,,,,,49,,,1,1,,,,,,,,,,,,,,,,
null,,color_black,300992,,,black_plus_sign,,,,,null,,,,,,,,,,,,,,,,,,,,
null,,learn_phase(without_color),304029,,,black_plus_sign,,,,,null,US_Cities_List/peoria.png,US_Cities_List/newhope.png,,,,,,,,,,,,,,,,,,
null,,black_cross(without_color),304955,,,yellow,,,,,null,US_Cities_List/peoria.png,US_Cities_List/newhope.png,,,,,,,,,,,,,,,,,,
null,,rt_plussign_withcolor,305462,,,yellow,,,,,null,US_Cities_List/peoria.png,US_Cities_List/newhope.png,,,,,,,,,,,,,,,,,,
1258,,rt_thecrossant_black,306562,,,black_plus_sign,,,,,50,,,1,1,,,,,,,,,,,,,,,,
null,,color_black,306670,,,black_plus_sign,,,,,null,,,,,,,,,,,,,,,,,,,,
null,,learn_phase(without_color),309698,,,black_plus_sign,,,,,null,US_Cities_List/gatlinburg.png,US_Cities_List/cornwall.png,,,,,,,,,,,,,,,,,,
null,,black_cross(without_color),310242,,,yellow,,,,,null,US_Cities_List/gatlinburg.png,US_Cities_List/cornwall.png,,,,,,,,,,,,,,,,,,
null,,rt_plussign_withcolor,310755,,,yellow,,,,,null,US_Cities_List/gatlinburg.png,US_Cities_List/cornwall.png,,,,,,,,,,,,,,,,,,
1145,,rt_thecrossant_black,312247,,,black_plus_sign,,,,,50,,,1,1,,,,,,,,,,,,,,,,
null,,color_black,312358,,,black_plus_sign,,,,,null,,,,,,,,,,,,,,,,,,,,
null,,learn_phase(without_color),315381,,,black_plus_sign,,,,,null,US_Cities_List/racine.png,US_Cities_List/shreveport.png,,,,,,,,,,,,,,,,,,
null,,black_cross(without_color),315970,,,blue,,,,,null,US_Cities_List/racine.png,US_Cities_List/shreveport.png,,,,,,,,,,,,,,,,,,
null,,rt_plussign_withcolor,316480,,,blue,,,,,null,US_Cities_List/racine.png,US_Cities_List/shreveport.png,,,,,,,,,,,,,,,,,,
821,,rt_thecrossant_black,317913,,,black_plus_sign,,,,,49,,,1,1,,,,,,,,,,,,,,,,
null,,color_black,318020,,,black_plus_sign,,,,,null,,,,,,,,,,,,,,,,,,,,
null,,learn_phase(without_color),321040,,,black_plus_sign,,,,,null,US_Cities_List/boulder.png,US_Cities_List/huntsville.png,,,,,,,,,,,,,,,,,,
null,,black_cross(without_color),321579,,,blue,,,,,null,US_Cities_List/boulder.png,US_Cities_List/huntsville.png,,,,,,,,,,,,,,,,,,
null,,rt_plussign_withcolor,322083,,,blue,,,,,null,US_Cities_List/boulder.png,US_Cities_List/huntsville.png,,,,,,,,,,,,,,,,,,
909,,rt_thecrossant_black,323561,,,black_plus_sign,,,,,49,,,1,1,,,,,,,,,,,,,,,,
null,,color_black,323675,,,black_plus_sign,,,,,null,,,,,,,,,,,,,,,,,,,,
null,,learn_phase(without_color),326702,,,black_plus_sign,,,,,null,US_Cities_List/peoria.png,US_Cities_List/racine.png,,,,,,,,,,,,,,,,,,
null,,black_cross(without_color),327252,,,yellow,,,,,null,US_Cities_List/peoria.png,US_Cities_List/racine.png,,,,,,,,,,,,,,,,,,
null,,rt_plussign_withcolor,327766,,,yellow,,,,,null,US_Cities_List/peoria.png,US_Cities_List/racine.png,,,,,,,,,,,,,,,,,,
651,,rt_thecrossant_black,329244,,,black_plus_sign,,,,,50,,,1,1,,,,,,,,,,,,,,,,
null,,color_black,329354,,,black_plus_sign,,,,,null,,,,,,,,,,,,,,,,,,,,
null,,learn_phase(without_color),332388,,,black_plus_sign,,,,,null,US_Cities_List/racine.png,US_Cities_List/shreveport.png,,,,,,,,,,,,,,,,,,
null,,black_cross(without_color),333043,,,blue,,,,,null,US_Cities_List/racine.png,US_Cities_List/shreveport.png,,,,,,,,,,,,,,,,,,
null,,rt_plussign_withcolor,333559,,,blue,,,,,null,US_Cities_List/racine.png,US_Cities_List/shreveport.png,,,,,,,,,,,,,,,,,,
1029,,rt_thecrossant_black,334926,,,black_plus_sign,,,,,49,,,1,1,,,,,,,,,,,,,,,,
null,,color_black,335034,,,black_plus_sign,,,,,null,,,,,,,,,,,,,,,,,,,,
null,,learn_phase(without_color),338059,,,black_plus_sign,,,,,null,US_Cities_List/peoria.png,US_Cities_List/shreveport.png,,,,,,,,,,,,,,,,,,
null,,black_cross(without_color),338495,,,blue,,,,,null,US_Cities_List/peoria.png,US_Cities_List/shreveport.png,,,,,,,,,,,,,,,,,,
null,,rt_plussign_withcolor,338999,,,blue,,,,,null,US_Cities_List/peoria.png,US_Cities_List/shreveport.png,,,,,,,,,,,,,,,,,,
960,,rt_thecrossant_black,340594,,,black_plus_sign,,,,,49,,,1,1,,,,,,,,,,,,,,,,
null,,color_black,340703,,,black_plus_sign,,,,,null,,,,,,,,,,,,,,,,,,,,
null,,learn_phase(without_color),343733,,,black_plus_sign,,,,,null,US_Cities_List/huntsville.png,US_Cities_List/boulder.png,,,,,,,,,,,,,,,,,,
null,,black_cross(without_color),344372,,,yellow,,,,,null,US_Cities_List/huntsville.png,US_Cities_List/boulder.png,,,,,,,,,,,,,,,,,,
null,,rt_plussign_withcolor,344877,,,yellow,,,,,null,US_Cities_List/huntsville.png,US_Cities_List/boulder.png,,,,,,,,,,,,,,,,,,
924,,rt_thecrossant_black,346258,,,black_plus_sign,,,,,50,,,1,1,,,,,,,,,,,,,,,,
null,,color_black,346368,,,black_plus_sign,,,,,null,,,,,,,,,,,,,,,,,,,,
null,,learn_phase(without_color),349395,,,black_plus_sign,,,,,null,US_Cities_List/cornwall.png,US_Cities_List/carmel.png,,,,,,,,,,,,,,,,,,
null,,black_cross(without_color),350113,,,yellow,,,,,null,US_Cities_List/cornwall.png,US_Cities_List/carmel.png,,,,,,,,,,,,,,,,,,
null,,rt_plussign_withcolor,350617,,,yellow,,,,,null,US_Cities_List/cornwall.png,US_Cities_List/carmel.png,,,,,,,,,,,,,,,,,,
1113,,rt_thecrossant_black,351922,,,black_plus_sign,,,,,50,,,1,1,,,,,,,,,,,,,,,,
null,,color_black,352033,,,black_plus_sign,,,,,null,,,,,,,,,,,,,,,,,,,,
null,,learn_phase(without_color),355060,,,black_plus_sign,,,,,null,US_Cities_List/shreveport.png,US_Cities_List/hotsprings.png,,,,,,,,,,,,,,,,,,
null,,black_cross(without_color),355514,,,blue,,,,,null,US_Cities_List/shreveport.png,US_Cities_List/hotsprings.png,,,,,,,,,,,,,,,,,,
null,,rt_plussign_withcolor,356020,,,blue,,,,,null,US_Cities_List/shreveport.png,US_Cities_List/hotsprings.png,,,,,,,,,,,,,,,,,,
1190,,rt_thecrossant_black,357585,,,black_plus_sign,,,,,49,,,1,1,,,,,,,,,,,,,,,,
null,,color_black,357696,,,black_plus_sign,,,,,null,,,,,,,,,,,,,,,,,,,,
null,,learn_phase(without_color),360732,,,black_plus_sign,,,,,null,US_Cities_List/peoria.png,US_Cities_List/racine.png,,,,,,,,,,,,,,,,,,
null,,black_cross(without_color),361576,,,yellow,,,,,null,US_Cities_List/peoria.png,US_Cities_List/racine.png,,,,,,,,,,,,,,,,,,
null,,rt_plussign_withcolor,362089,,,yellow,,,,,null,US_Cities_List/peoria.png,US_Cities_List/racine.png,,,,,,,,,,,,,,,,,,
831,,rt_thecrossant_black,363266,,,black_plus_sign,,,,,50,,,1,1,,,,,,,,,,,,,,,,
null,,color_black,363372,,,black_plus_sign,,,,,null,,,,,,,,,,,,,,,,,,,,
null,,learn_phase(without_color),366391,,,black_plus_sign,,,,,null,US_Cities_List/newhope.png,US_Cities_List/shreveport.png,,,,,,,,,,,,,,,,,,
null,,black_cross(without_color),367014,,,blue,,,,,null,US_Cities_List/newhope.png,US_Cities_List/shreveport.png,,,,,,,,,,,,,,,,,,
null,,rt_plussign_withcolor,367530,,,blue,,,,,null,US_Cities_List/newhope.png,US_Cities_List/shreveport.png,,,,,,,,,,,,,,,,,,
1055,,rt_thecrossant_black,368932,,,black_plus_sign,,,,,49,,,1,1,,,,,,,,,,,,,,,,
null,,color_black,369039,,,black_plus_sign,,,,,null,,,,,,,,,,,,,,,,,,,,
null,,learn_phase(without_color),372304,,,black_plus_sign,,,,,null,US_Cities_List/huntsville.png,US_Cities_List/cornwall.png,,,,,,,,,,,,,,,,,,
null,,black_cross(without_color),373130,,,blue,,,,,null,US_Cities_List/huntsville.png,US_Cities_List/cornwall.png,,,,,,,,,,,,,,,,,,
null,,rt_plussign_withcolor,373643,,,blue,,,,,null,US_Cities_List/huntsville.png,US_Cities_List/cornwall.png,,,,,,,,,,,,,,,,,,
1488,,rt_thecrossant_black,374825,,,black_plus_sign,,,,,49,,,1,1,,,,,,,,,,,,,,,,
null,,color_black,374933,,,black_plus_sign,,,,,null,,,,,,,,,,,,,,,,,,,,
null,,learn_phase(without_color),377956,,,black_plus_sign,,,,,null,US_Cities_List/hanover.png,US_Cities_List/huntsville.png,,,,,,,,,,,,,,,,,,
null,,black_cross(without_color),378474,,,yellow,,,,,null,US_Cities_List/hanover.png,US_Cities_List/huntsville.png,,,,,,,,,,,,,,,,,,
null,,rt_plussign_withcolor,378987,,,yellow,,,,,null,US_Cities_List/hanover.png,US_Cities_List/huntsville.png,,,,,,,,,,,,,,,,,,
null,,rt_thecrossant_black,380497,,,black_plus_sign,,,,,null,,,1,,,,,,,,,,,,,,,,,
null,,color_black,380602,,,black_plus_sign,,,,,null,,,,,,,,,,,,,,,,,,,,
null,,learn_phase(without_color),383632,,,black_plus_sign,,,,,null,US_Cities_List/shreveport.png,US_Cities_List/peoria.png,,,,,,,,,,,,,,,,,,
null,,black_cross(without_color),384479,,,yellow,,,,,null,US_Cities_List/shreveport.png,US_Cities_List/peoria.png,,,,,,,,,,,,,,,,,,
null,,rt_plussign_withcolor,384988,,,yellow,,,,,null,US_Cities_List/shreveport.png,US_Cities_List/peoria.png,,,,,,,,,,,,,,,,,,
885,,rt_thecrossant_black,386164,,,black_plus_sign,,,,,50,,,1,1,,,,,,,,,,,,,,,,
null,,color_black,386270,,,black_plus_sign,,,,,null,,,,,,,,,,,,,,,,,,,,
null,,learn_phase(without_color),389347,,,black_plus_sign,,,,,null,US_Cities_List/cornwall.png,US_Cities_List/carmel.png,,,,,,,,,,,,,,,,,,
null,,black_cross(without_color),390174,,,yellow,,,,,null,US_Cities_List/cornwall.png,US_Cities_List/carmel.png,,,,,,,,,,,,,,,,,,
null,,rt_plussign_withcolor,390687,,,yellow,,,,,null,US_Cities_List/cornwall.png,US_Cities_List/carmel.png,,,,,,,,,,,,,,,,,,
1369,,rt_thecrossant_black,391892,,,black_plus_sign,,,,,50,,,1,1,,,,,,,,,,,,,,,,
null,,color_black,392005,,,black_plus_sign,,,,,null,,,,,,,,,,,,,,,,,,,,
null,,learn_phase(without_color),395029,,,black_plus_sign,,,,,null,US_Cities_List/peoria.png,US_Cities_List/leesburg.png,,,,,,,,,,,,,,,,,,
null,,black_cross(without_color),395730,,,yellow,,,,,null,US_Cities_List/peoria.png,US_Cities_List/leesburg.png,,,,,,,,,,,,,,,,,,
null,,rt_plussign_withcolor,396237,,,yellow,,,,,null,US_Cities_List/peoria.png,US_Cities_List/leesburg.png,,,,,,,,,,,,,,,,,,
1326,,rt_thecrossant_black,397570,,,black_plus_sign,,,,,50,,,1,1,,,,,,,,,,,,,,,,
null,,color_black,397683,,,black_plus_sign,,,,,null,,,,,,,,,,,,,,,,,,,,
null,,learn_phase(without_color),400703,,,black_plus_sign,,,,,null,US_Cities_List/huntsville.png,US_Cities_List/hanover.png,,,,,,,,,,,,,,,,,,
null,,black_cross(without_color),401179,,,yellow,,,,,null,US_Cities_List/huntsville.png,US_Cities_List/hanover.png,,,,,,,,,,,,,,,,,,
null,,rt_plussign_withcolor,401690,,,yellow,,,,,null,US_Cities_List/huntsville.png,US_Cities_List/hanover.png,,,,,,,,,,,,,,,,,,
1029,,rt_thecrossant_black,403239,,,black_plus_sign,,,,,50,,,1,1,,,,,,,,,,,,,,,,
null,,color_black,403351,,,black_plus_sign,,,,,null,,,,,,,,,,,,,,,,,,,,
null,,learn_phase(without_color),406374,,,black_plus_sign,,,,,null,US_Cities_List/huntsville.png,US_Cities_List/boulder.png,,,,,,,,,,,,,,,,,,
null,,black_cross(without_color),406955,,,yellow,,,,,null,US_Cities_List/huntsville.png,US_Cities_List/boulder.png,,,,,,,,,,,,,,,,,,
null,,rt_plussign_withcolor,407457,,,yellow,,,,,null,US_Cities_List/huntsville.png,US_Cities_List/boulder.png,,,,,,,,,,,,,,,,,,
835,,rt_thecrossant_black,408897,,,black_plus_sign,,,,,50,,,1,1,,,,,,,,,,,,,,,,
null,,color_black,409009,,,black_plus_sign,,,,,null,,,,,,,,,,,,,,,,,,,,
null,,learn_phase(without_color),412043,,,black_plus_sign,,,,,null,US_Cities_List/cornwall.png,US_Cities_List/huntsville.png,,,,,,,,,,,,,,,,,,
null,,black_cross(without_color),412485,,,yellow,,,,,null,US_Cities_List/cornwall.png,US_Cities_List/huntsville.png,,,,,,,,,,,,,,,,,,
496,,rt_plussign_withcolor,412993,,,yellow,,,,,50,US_Cities_List/cornwall.png,US_Cities_List/huntsville.png,,,,,,,,,,,,,,,,,,
null,,rt_thecrossant_black,414579,,,black_plus_sign,,,,,null,,,1,1,,,,,,,,,,,,,,,,
null,,color_black,414692,,,black_plus_sign,,,,,null,,,,,,,,,,,,,,,,,,,,
null,,learn_phase(without_color),417722,,,black_plus_sign,,,,,null,US_Cities_List/racine.png,US_Cities_List/westpalmbeach.png,,,,,,,,,,,,,,,,,,
null,,black_cross(without_color),418814,,,yellow,,,,,null,US_Cities_List/racine.png,US_Cities_List/westpalmbeach.png,,,,,,,,,,,,,,,,,,
null,,rt_plussign_withcolor,419328,,,yellow,,,,,null,US_Cities_List/racine.png,US_Cities_List/westpalmbeach.png,,,,,,,,,,,,,,,,,,
787,,rt_thecrossant_black,420263,,,black_plus_sign,,,,,50,,,1,1,,,,,,,,,,,,,,,,
null,,color_black,420375,,,black_plus_sign,,,,,null,,,,,,,,,,,,,,,,,,,,
null,,learn_phase(without_color),423406,,,black_plus_sign,,,,,null,US_Cities_List/boulder.png,US_Cities_List/hotsprings.png,,,,,,,,,,,,,,,,,,
null,,black_cross(without_color),424314,,,yellow,,,,,null,US_Cities_List/boulder.png,US_Cities_List/hotsprings.png,,,,,,,,,,,,,,,,,,
null,,rt_plussign_withcolor,424818,,,yellow,,,,,null,US_Cities_List/boulder.png,US_Cities_List/hotsprings.png,,,,,,,,,,,,,,,,,,
1356,,rt_thecrossant_black,425933,,,black_plus_sign,,,,,50,,,1,1,,,,,,,,,,,,,,,,
null,,color_black,426042,,,black_plus_sign,,,,,null,,,,,,,,,,,,,,,,,,,,
null,,learn_phase(without_color),429329,,,black_plus_sign,,,,,null,US_Cities_List/racine.png,US_Cities_List/westpalmbeach.png,,,,,,,,,,,,,,,,,,
null,,black_cross(without_color),429878,,,blue,,,,,null,US_Cities_List/racine.png,US_Cities_List/westpalmbeach.png,,,,,,,,,,,,,,,,,,
null,,rt_plussign_withcolor,430380,,,blue,,,,,null,US_Cities_List/racine.png,US_Cities_List/westpalmbeach.png,,,,,,,,,,,,,,,,,,
1360,,rt_thecrossant_black,431851,,,black_plus_sign,,,,,49,,,1,1,,,,,,,,,,,,,,,,
null,,color_black,431963,,,black_plus_sign,,,,,null,,,,,,,,,,,,,,,,,,,,
null,,learn_phase(without_color),434984,,,black_plus_sign,,,,,null,US_Cities_List/boulder.png,US_Cities_List/huntsville.png,,,,,,,,,,,,,,,,,,
null,,black_cross(without_color),435415,,,blue,,,,,null,US_Cities_List/boulder.png,US_Cities_List/huntsville.png,,,,,,,,,,,,,,,,,,
null,,rt_plussign_withcolor,435917,,,blue,,,,,null,US_Cities_List/boulder.png,US_Cities_List/huntsville.png,,,,,,,,,,,,,,,,,,
1021,,rt_thecrossant_black,437520,,,black_plus_sign,,,,,49,,,1,1,,,,,,,,,,,,,,,,
null,,color_black,437638,,,black_plus_sign,,,,,null,,,,,,,,,,,,,,,,,,,,
null,,learn_phase(without_color),440664,,,black_plus_sign,,,,,null,US_Cities_List/gatlinburg.png,US_Cities_List/hotsprings.png,,,,,,,,,,,,,,,,,,
null,,black_cross(without_color),441439,,,yellow,,,,,null,US_Cities_List/gatlinburg.png,US_Cities_List/hotsprings.png,,,,,,,,,,,,,,,,,,
null,,rt_plussign_withcolor,441950,,,yellow,,,,,null,US_Cities_List/gatlinburg.png,US_Cities_List/hotsprings.png,,,,,,,,,,,,,,,,,,
790,,rt_thecrossant_black,443191,,,black_plus_sign,,,,,50,,,1,1,,,,,,,,,,,,,,,,
null,,color_black,443300,,,black_plus_sign,,,,,null,,,,,,,,,,,,,,,,,,,,
null,,learn_phase(without_color),446398,,,black_plus_sign,,,,,null,US_Cities_List/peoria.png,US_Cities_List/leesburg.png,,,,,,,,,,,,,,,,,,
null,,black_cross(without_color),447471,,,blue,,,,,null,US_Cities_List/peoria.png,US_Cities_List/leesburg.png,,,,,,,,,,,,,,,,,,
null,,rt_plussign_withcolor,447983,,,blue,,,,,null,US_Cities_List/peoria.png,US_Cities_List/leesburg.png,,,,,,,,,,,,,,,,,,
1186,,rt_thecrossant_black,448956,,,black_plus_sign,,,,,49,,,1,1,,,,,,,,,,,,,,,,
null,,color_black,449073,,,black_plus_sign,,,,,null,,,,,,,,,,,,,,,,,,,,
null,,learn_phase(without_color),452104,,,black_plus_sign,,,,,null,US_Cities_List/shreveport.png,US_Cities_List/newhope.png,,,,,,,,,,,,,,,,,,
null,,black_cross(without_color),453084,,,blue,,,,,null,US_Cities_List/shreveport.png,US_Cities_List/newhope.png,,,,,,,,,,,,,,,,,,
null,,rt_plussign_withcolor,453596,,,blue,,,,,null,US_Cities_List/shreveport.png,US_Cities_List/newhope.png,,,,,,,,,,,,,,,,,,
1397,,rt_thecrossant_black,454654,,,black_plus_sign,,,,,49,,,1,1,,,,,,,,,,,,,,,,
null,,color_black,454760,,,black_plus_sign,,,,,null,,,,,,,,,,,,,,,,,,,,
null,,learn_phase(without_color),457813,,,black_plus_sign,,,,,null,US_Cities_List/peoria.png,US_Cities_List/newhope.png,,,,,,,,,,,,,,,,,,
null,,black_cross(without_color),458817,,,blue,,,,,null,US_Cities_List/peoria.png,US_Cities_List/newhope.png,,,,,,,,,,,,,,,,,,
null,,rt_plussign_withcolor,459331,,,blue,,,,,null,US_Cities_List/peoria.png,US_Cities_List/newhope.png,,,,,,,,,,,,,,,,,,
1600,,rt_thecrossant_black,460354,,,black_plus_sign,,,,,49,,,1,1,,,,,,,,,,,,,,,,
null,,color_black,460462,,,black_plus_sign,,,,,null,,,,,,,,,,,,,,,,,,,,
null,,learn_phase(without_color),463480,,,black_plus_sign,,,,,null,US_Cities_List/boulder.png,US_Cities_List/huntsville.png,,,,,,,,,,,,,,,,,,
null,,black_cross(without_color),464184,,,blue,,,,,null,US_Cities_List/boulder.png,US_Cities_List/huntsville.png,,,,,,,,,,,,,,,,,,
null,,rt_plussign_withcolor,464691,,,blue,,,,,null,US_Cities_List/boulder.png,US_Cities_List/huntsville.png,,,,,,,,,,,,,,,,,,
1303,,rt_thecrossant_black,466011,,,black_plus_sign,,,,,49,,,1,1,,,,,,,,,,,,,,,,
null,,color_black,466125,,,black_plus_sign,,,,,null,,,,,,,,,,,,,,,,,,,,
null,,learn_phase(without_color),469154,,,black_plus_sign,,,,,null,US_Cities_List/shreveport.png,US_Cities_List/racine.png,,,,,,,,,,,,,,,,,,
null,,black_cross(without_color),469585,,,blue,,,,,null,US_Cities_List/shreveport.png,US_Cities_List/racine.png,,,,,,,,,,,,,,,,,,
null,,rt_plussign_withcolor,470093,,,blue,,,,,null,US_Cities_List/shreveport.png,US_Cities_List/racine.png,,,,,,,,,,,,,,,,,,
975,,rt_thecrossant_black,471689,,,black_plus_sign,,,,,49,,,1,1,,,,,,,,,,,,,,,,
null,,color_black,471793,,,black_plus_sign,,,,,null,,,,,,,,,,,,,,,,,,,,
null,,learn_phase(without_color),474821,,,black_plus_sign,,,,,null,US_Cities_List/racine.png,US_Cities_List/westpalmbeach.png,,,,,,,,,,,,,,,,,,
null,,black_cross(without_color),475848,,,yellow,,,,,null,US_Cities_List/racine.png,US_Cities_List/westpalmbeach.png,,,,,,,,,,,,,,,,,,
null,,rt_plussign_withcolor,476349,,,yellow,,,,,null,US_Cities_List/racine.png,US_Cities_List/westpalmbeach.png,,,,,,,,,,,,,,,,,,
772,,rt_thecrossant_black,477415,,,black_plus_sign,,,,,50,,,1,1,,,,,,,,,,,,,,,,
null,,color_black,477524,,,black_plus_sign,,,,,null,,,,,,,,,,,,,,,,,,,,
null,,learn_phase(without_color),480868,,,black_plus_sign,,,,,null,US_Cities_List/newhope.png,US_Cities_List/peoria.png,,,,,,,,,,,,,,,,,,
null,,black_cross(without_color),481290,,,blue,,,,,null,US_Cities_List/newhope.png,US_Cities_List/peoria.png,,,,,,,,,,,,,,,,,,
null,,rt_plussign_withcolor,481825,,,blue,,,,,null,US_Cities_List/newhope.png,US_Cities_List/peoria.png,,,,,,,,,,,,,,,,,,
1339,,rt_thecrossant_black,483420,,,black_plus_sign,,,,,49,,,1,1,,,,,,,,,,,,,,,,
null,,color_black,483530,,,black_plus_sign,,,,,null,,,,,,,,,,,,,,,,,,,,
null,,learn_phase(without_color),486559,,,black_plus_sign,,,,,null,US_Cities_List/racine.png,US_Cities_List/westpalmbeach.png,,,,,,,,,,,,,,,,,,
null,,black_cross(without_color),487344,,,yellow,,,,,null,US_Cities_List/racine.png,US_Cities_List/westpalmbeach.png,,,,,,,,,,,,,,,,,,
null,,rt_plussign_withcolor,487889,,,yellow,,,,,null,US_Cities_List/racine.png,US_Cities_List/westpalmbeach.png,,,,,,,,,,,,,,,,,,
865,,rt_thecrossant_black,489124,,,black_plus_sign,,,,,50,,,1,1,,,,,,,,,,,,,,,,
null,,color_black,489234,,,black_plus_sign,,,,,null,,,,,,,,,,,,,,,,,,,,
null,,learn_phase(without_color),492258,,,black_plus_sign,,,,,null,US_Cities_List/shreveport.png,US_Cities_List/newhope.png,,,,,,,,,,,,,,,,,,
null,,black_cross(without_color),493228,,,blue,,,,,null,US_Cities_List/shreveport.png,US_Cities_List/newhope.png,,,,,,,,,,,,,,,,,,
null,,rt_plussign_withcolor,493741,,,blue,,,,,null,US_Cities_List/shreveport.png,US_Cities_List/newhope.png,,,,,,,,,,,,,,,,,,
1165,,rt_thecrossant_black,494792,,,black_plus_sign,,,,,49,,,1,1,,,,,,,,,,,,,,,,
null,,color_black,494901,,,black_plus_sign,,,,,null,,,,,,,,,,,,,,,,,,,,
null,,learn_phase(without_color),498014,,,black_plus_sign,,,,,null,US_Cities_List/newhope.png,US_Cities_List/boulder.png,,,,,,,,,,,,,,,,,,
null,,black_cross(without_color),498723,,,yellow,,,,,null,US_Cities_List/newhope.png,US_Cities_List/boulder.png,,,,,,,,,,,,,,,,,,
null,,rt_plussign_withcolor,499229,,,yellow,,,,,null,US_Cities_List/newhope.png,US_Cities_List/boulder.png,,,,,,,,,,,,,,,,,,
1379,,rt_thecrossant_black,500551,,,black_plus_sign,,,,,50,,,1,1,,,,,,,,,,,,,,,,
null,,color_black,500657,,,black_plus_sign,,,,,null,,,,,,,,,,,,,,,,,,,,
null,,learn_phase(without_color),503768,,,black_plus_sign,,,,,null,US_Cities_List/shreveport.png,US_Cities_List/hotsprings.png,,,,,,,,,,,,,,,,,,
null,,black_cross(without_color),504504,,,yellow,,,,,null,US_Cities_List/shreveport.png,US_Cities_List/hotsprings.png,,,,,,,,,,,,,,,,,,
null,,rt_plussign_withcolor,505018,,,yellow,,,,,null,US_Cities_List/shreveport.png,US_Cities_List/hotsprings.png,,,,,,,,,,,,,,,,,,
1027,,rt_thecrossant_black,506310,,,black_plus_sign,,,,,50,,,1,1,,,,,,,,,,,,,,,,
null,,color_black,506418,,,black_plus_sign,,,,,null,,,,,,,,,,,,,,,,,,,,
null,,learn_phase(without_color),509517,,,black_plus_sign,,,,,null,US_Cities_List/peoria.png,US_Cities_List/shreveport.png,,,,,,,,,,,,,,,,,,
null,,black_cross(without_color),510684,,,blue,,,,,null,US_Cities_List/peoria.png,US_Cities_List/shreveport.png,,,,,,,,,,,,,,,,,,
null,,rt_plussign_withcolor,511195,,,blue,,,,,null,US_Cities_List/peoria.png,US_Cities_List/shreveport.png,,,,,,,,,,,,,,,,,,
1116,,rt_thecrossant_black,512160,,,black_plus_sign,,,,,49,,,1,1,,,,,,,,,,,,,,,,
null,,color_black,512270,,,black_plus_sign,,,,,null,,,,,,,,,,,,,,,,,,,,
null,,learn_phase(without_color),515302,,,black_plus_sign,,,,,null,US_Cities_List/newhope.png,US_Cities_List/shreveport.png,,,,,,,,,,,,,,,,,,
null,,black_cross(without_color),516052,,,yellow,,,,,null,US_Cities_List/newhope.png,US_Cities_List/shreveport.png,,,,,,,,,,,,,,,,,,
null,,rt_plussign_withcolor,516563,,,yellow,,,,,null,US_Cities_List/newhope.png,US_Cities_List/shreveport.png,,,,,,,,,,,,,,,,,,
1293,,rt_thecrossant_black,517886,,,black_plus_sign,,,,,50,,,1,1,,,,,,,,,,,,,,,,
null,,color_black,518003,,,black_plus_sign,,,,,null,,,,,,,,,,,,,,,,,,,,
null,,learn_phase(without_color),521364,,,black_plus_sign,,,,,null,US_Cities_List/gatlinburg.png,US_Cities_List/cornwall.png,,,,,,,,,,,,,,,,,,
null,,black_cross(without_color),521802,,,blue,,,,,null,US_Cities_List/gatlinburg.png,US_Cities_List/cornwall.png,,,,,,,,,,,,,,,,,,
null,,rt_plussign_withcolor,522312,,,blue,,,,,null,US_Cities_List/gatlinburg.png,US_Cities_List/cornwall.png,,,,,,,,,,,,,,,,,,
1251,,rt_thecrossant_black,523890,,,black_plus_sign,,,,,49,,,1,1,,,,,,,,,,,,,,,,
null,,color_black,523995,,,black_plus_sign,,,,,null,,,,,,,,,,,,,,,,,,,,
null,,learn_phase(without_color),527029,,,black_plus_sign,,,,,null,US_Cities_List/leesburg.png,US_Cities_List/peoria.png,,,,,,,,,,,,,,,,,,
null,,black_cross(without_color),528055,,,yellow,,,,,null,US_Cities_List/leesburg.png,US_Cities_List/peoria.png,,,,,,,,,,,,,,,,,,
null,,rt_plussign_withcolor,528569,,,yellow,,,,,null,US_Cities_List/leesburg.png,US_Cities_List/peoria.png,,,,,,,,,,,,,,,,,,
737,,rt_thecrossant_black,529564,,,black_plus_sign,,,,,50,,,1,1,,,,,,,,,,,,,,,,
null,,color_black,529671,,,black_plus_sign,,,,,null,,,,,,,,,,,,,,,,,,,,
null,,learn_phase(without_color),532740,,,black_plus_sign,,,,,null,US_Cities_List/huntsville.png,US_Cities_List/hanover.png,,,,,,,,,,,,,,,,,,
null,,black_cross(without_color),533524,,,yellow,,,,,null,US_Cities_List/huntsville.png,US_Cities_List/hanover.png,,,,,,,,,,,,,,,,,,
null,,rt_plussign_withcolor,534028,,,yellow,,,,,null,US_Cities_List/huntsville.png,US_Cities_List/hanover.png,,,,,,,,,,,,,,,,,,
1183,,rt_thecrossant_black,535261,,,black_plus_sign,,,,,50,,,1,1,,,,,,,,,,,,,,,,
null,,color_black,535370,,,black_plus_sign,,,,,null,,,,,,,,,,,,,,,,,,,,
null,,learn_phase(without_color),538400,,,black_plus_sign,,,,,null,US_Cities_List/boulder.png,US_Cities_List/huntsville.png,,,,,,,,,,,,,,,,,,
null,,black_cross(without_color),538856,,,yellow,,,,,null,US_Cities_List/boulder.png,US_Cities_List/huntsville.png,,,,,,,,,,,,,,,,,,
null,,rt_plussign_withcolor,539363,,,yellow,,,,,null,US_Cities_List/boulder.png,US_Cities_List/huntsville.png,,,,,,,,,,,,,,,,,,
1068,,rt_thecrossant_black,541034,,,black_plus_sign,,,,,50,,,1,1,,,,,,,,,,,,,,,,
null,,color_black,541149,,,black_plus_sign,,,,,null,,,,,,,,,,,,,,,,,,,,
null,,learn_phase(without_color),544182,,,black_plus_sign,,,,,null,US_Cities_List/cornwall.png,US_Cities_List/gatlinburg.png,,,,,,,,,,,,,,,,,,
null,,black_cross(without_color),544975,,,yellow,,,,,null,US_Cities_List/cornwall.png,US_Cities_List/gatlinburg.png,,,,,,,,,,,,,,,,,,
null,,rt_plussign_withcolor,545486,,,yellow,,,,,null,US_Cities_List/cornwall.png,US_Cities_List/gatlinburg.png,,,,,,,,,,,,,,,,,,
930,,rt_thecrossant_black,546709,,,black_plus_sign,,,,,50,,,1,1,,,,,,,,,,,,,,,,
null,,color_black,546816,,,black_plus_sign,,,,,null,,,,,,,,,,,,,,,,,,,,
null,,learn_phase(without_color),549846,,,black_plus_sign,,,,,null,US_Cities_List/boulder.png,US_Cities_List/hotsprings.png,,,,,,,,,,,,,,,,,,
null,,black_cross(without_color),550883,,,yellow,,,,,null,US_Cities_List/boulder.png,US_Cities_List/hotsprings.png,,,,,,,,,,,,,,,,,,
null,,rt_plussign_withcolor,551384,,,yellow,,,,,null,US_Cities_List/boulder.png,US_Cities_List/hotsprings.png,,,,,,,,,,,,,,,,,,
1258,,rt_thecrossant_black,552360,,,black_plus_sign,,,,,50,,,1,1,,,,,,,,,,,,,,,,
null,,color_black,552469,,,black_plus_sign,,,,,null,,,,,,,,,,,,,,,,,,,,
null,,learn_phase(without_color),555487,,,black_plus_sign,,,,,null,US_Cities_List/shreveport.png,US_Cities_List/peoria.png,,,,,,,,,,,,,,,,,,
null,,black_cross(without_color),555975,,,yellow,,,,,null,US_Cities_List/shreveport.png,US_Cities_List/peoria.png,,,,,,,,,,,,,,,,,,
null,,rt_plussign_withcolor,556480,,,yellow,,,,,null,US_Cities_List/shreveport.png,US_Cities_List/peoria.png,,,,,,,,,,,,,,,,,,
1311,,rt_thecrossant_black,558007,,,black_plus_sign,,,,,50,,,1,1,,,,,,,,,,,,,,,,
null,,color_black,558117,,,black_plus_sign,,,,,null,,,,,,,,,,,,,,,,,,,,
null,,learn_phase(without_color),561147,,,black_plus_sign,,,,,null,US_Cities_List/westpalmbeach.png,US_Cities_List/racine.png,,,,,,,,,,,,,,,,,,
null,,black_cross(without_color),561694,,,yellow,,,,,null,US_Cities_List/westpalmbeach.png,US_Cities_List/racine.png,,,,,,,,,,,,,,,,,,
null,,rt_plussign_withcolor,562198,,,yellow,,,,,null,US_Cities_List/westpalmbeach.png,US_Cities_List/racine.png,,,,,,,,,,,,,,,,,,
628,,rt_thecrossant_black,563683,,,black_plus_sign,,,,,50,,,1,1,,,,,,,,,,,,,,,,
null,,color_black,563793,,,black_plus_sign,,,,,null,,,,,,,,,,,,,,,,,,,,
null,,learn_phase(without_color),566831,,,black_plus_sign,,,,,null,US_Cities_List/cornwall.png,US_Cities_List/carmel.png,,,,,,,,,,,,,,,,,,
null,,black_cross(without_color),567717,,,blue,,,,,null,US_Cities_List/cornwall.png,US_Cities_List/carmel.png,,,,,,,,,,,,,,,,,,
null,,rt_plussign_withcolor,568230,,,blue,,,,,null,US_Cities_List/cornwall.png,US_Cities_List/carmel.png,,,,,,,,,,,,,,,,,,
1003,,rt_thecrossant_black,569355,,,black_plus_sign,,,,,49,,,1,1,,,,,,,,,,,,,,,,
null,,color_black,569464,,,black_plus_sign,,,,,null,,,,,,,,,,,,,,,,,,,,
null,,learn_phase(without_color),572722,,,black_plus_sign,,,,,null,US_Cities_List/boulder.png,US_Cities_List/hotsprings.png,,,,,,,,,,,,,,,,,,
null,,black_cross(without_color),573206,,,yellow,,,,,null,US_Cities_List/boulder.png,US_Cities_List/hotsprings.png,,,,,,,,,,,,,,,,,,
null,,rt_plussign_withcolor,573718,,,yellow,,,,,null,US_Cities_List/boulder.png,US_Cities_List/hotsprings.png,,,,,,,,,,,,,,,,,,
1088,,rt_thecrossant_black,575252,,,black_plus_sign,,,,,50,,,1,1,,,,,,,,,,,,,,,,
null,,color_black,575371,,,black_plus_sign,,,,,null,,,,,,,,,,,,,,,,,,,,
null,,learn_phase(without_color),578413,,,black_plus_sign,,,,,null,US_Cities_List/gatlinburg.png,US_Cities_List/cornwall.png,,,,,,,,,,,,,,,,,,
null,,black_cross(without_color),578929,,,blue,,,,,null,US_Cities_List/gatlinburg.png,US_Cities_List/cornwall.png,,,,,,,,,,,,,,,,,,
null,,rt_plussign_withcolor,579435,,,blue,,,,,null,US_Cities_List/gatlinburg.png,US_Cities_List/cornwall.png,,,,,,,,,,,,,,,,,,
936,,rt_thecrossant_black,580984,,,black_plus_sign,,,,,49,,,1,1,,,,,,,,,,,,,,,,
null,,color_black,581100,,,black_plus_sign,,,,,null,,,,,,,,,,,,,,,,,,,,
null,,learn_phase(without_color),584127,,,black_plus_sign,,,,,null,US_Cities_List/leesburg.png,US_Cities_List/peoria.png,,,,,,,,,,,,,,,,,,
null,,black_cross(without_color),584577,,,blue,,,,,null,US_Cities_List/leesburg.png,US_Cities_List/peoria.png,,,,,,,,,,,,,,,,,,
null,,rt_plussign_withcolor,585087,,,blue,,,,,null,US_Cities_List/leesburg.png,US_Cities_List/peoria.png,,,,,,,,,,,,,,,,,,
880,,rt_thecrossant_black,586663,,,black_plus_sign,,,,,49,,,1,1,,,,,,,,,,,,,,,,
null,,color_black,586779,,,black_plus_sign,,,,,null,,,,,,,,,,,,,,,,,,,,
null,,learn_phase(without_color),589801,,,black_plus_sign,,,,,null,US_Cities_List/hotsprings.png,US_Cities_List/shreveport.png,,,,,,,,,,,,,,,,,,
null,,black_cross(without_color),590364,,,yellow,,,,,null,US_Cities_List/hotsprings.png,US_Cities_List/shreveport.png,,,,,,,,,,,,,,,,,,
null,,rt_plussign_withcolor,590872,,,yellow,,,,,null,US_Cities_List/hotsprings.png,US_Cities_List/shreveport.png,,,,,,,,,,,,,,,,,,
723,,rt_thecrossant_black,592339,,,black_plus_sign,,,,,50,,,1,1,,,,,,,,,,,,,,,,
null,,color_black,592451,,,black_plus_sign,,,,,null,,,,,,,,,,,,,,,,,,,,
null,,learn_phase(without_color),595481,,,black_plus_sign,,,,,null,US_Cities_List/newhope.png,US_Cities_List/boulder.png,,,,,,,,,,,,,,,,,,
null,,black_cross(without_color),596172,,,yellow,,,,,null,US_Cities_List/newhope.png,US_Cities_List/boulder.png,,,,,,,,,,,,,,,,,,
null,,rt_plussign_withcolor,596688,,,yellow,,,,,null,US_Cities_List/newhope.png,US_Cities_List/boulder.png,,,,,,,,,,,,,,,,,,
808,,rt_thecrossant_black,598032,,,black_plus_sign,,,,,50,,,1,1,,,,,,,,,,,,,,,,
null,,color_black,598141,,,black_plus_sign,,,,,null,,,,,,,,,,,,,,,,,,,,
null,,learn_phase(without_color),601182,,,black_plus_sign,,,,,null,US_Cities_List/carmel.png,US_Cities_List/cornwall.png,,,,,,,,,,,,,,,,,,
null,,black_cross(without_color),601894,,,blue,,,,,null,US_Cities_List/carmel.png,US_Cities_List/cornwall.png,,,,,,,,,,,,,,,,,,
null,,rt_plussign_withcolor,602398,,,blue,,,,,null,US_Cities_List/carmel.png,US_Cities_List/cornwall.png,,,,,,,,,,,,,,,,,,
1052,,rt_thecrossant_black,603713,,,black_plus_sign,,,,,49,,,1,1,,,,,,,,,,,,,,,,
null,,color_black,603822,,,black_plus_sign,,,,,null,,,,,,,,,,,,,,,,,,,,
null,,learn_phase(without_color),606847,,,black_plus_sign,,,,,null,US_Cities_List/gatlinburg.png,US_Cities_List/hotsprings.png,,,,,,,,,,,,,,,,,,
null,,black_cross(without_color),607687,,,yellow,,,,,null,US_Cities_List/gatlinburg.png,US_Cities_List/hotsprings.png,,,,,,,,,,,,,,,,,,
null,,rt_plussign_withcolor,608200,,,yellow,,,,,null,US_Cities_List/gatlinburg.png,US_Cities_List/hotsprings.png,,,,,,,,,,,,,,,,,,
1288,,rt_thecrossant_black,609386,,,black_plus_sign,,,,,50,,,1,1,,,,,,,,,,,,,,,,
null,,color_black,609491,,,black_plus_sign,,,,,null,,,,,,,,,,,,,,,,,,,,
null,,learn_phase(without_color),612520,,,black_plus_sign,,,,,null,US_Cities_List/racine.png,US_Cities_List/shreveport.png,,,,,,,,,,,,,,,,,,
null,,black_cross(without_color),612965,,,blue,,,,,null,US_Cities_List/racine.png,US_Cities_List/shreveport.png,,,,,,,,,,,,,,,,,,
null,,rt_plussign_withcolor,613472,,,blue,,,,,null,US_Cities_List/racine.png,US_Cities_List/shreveport.png,,,,,,,,,,,,,,,,,,
1151,,rt_thecrossant_black,615048,,,black_plus_sign,,,,,49,,,1,1,,,,,,,,,,,,,,,,
null,,color_black,615169,,,black_plus_sign,,,,,null,,,,,,,,,,,,,,,,,,,,
null,,learn_phase(without_color),618213,,,black_plus_sign,,,,,null,US_Cities_List/cornwall.png,US_Cities_List/carmel.png,,,,,,,,,,,,,,,,,,
null,,black_cross(without_color),618642,,,yellow,,,,,null,US_Cities_List/cornwall.png,US_Cities_List/carmel.png,,,,,,,,,,,,,,,,,,
null,,rt_plussign_withcolor,619155,,,yellow,,,,,null,US_Cities_List/cornwall.png,US_Cities_List/carmel.png,,,,,,,,,,,,,,,,,,
946,,rt_thecrossant_black,620755,,,black_plus_sign,,,,,50,,,1,1,,,,,,,,,,,,,,,,
null,,color_black,620861,,,black_plus_sign,,,,,null,,,,,,,,,,,,,,,,,,,,
18812,,learn_break,639679,,,learn_break,,,,,32,,,,,,,,,,,,,,,,,,,,
null,,html-keyboard-response,640683,,,<p></p>,,,,,null,,,,,,,,,,,,,,,,,,,,
null,,learn_phase(without_color),643705,,,black_plus_sign,,,,,null,US_Cities_List/gatlinburg.png,US_Cities_List/hotsprings.png,,,,,,,,,,,,,,,,,,
null,,black_cross(without_color),644608,,,blue,,,,,null,US_Cities_List/gatlinburg.png,US_Cities_List/hotsprings.png,,,,,,,,,,,,,,,,,,
null,,rt_plussign_withcolor,645122,,,blue,,,,,null,US_Cities_List/gatlinburg.png,US_Cities_List/hotsprings.png,,,,,,,,,,,,,,,,,,
1172,,rt_thecrossant_black,646235,,,black_plus_sign,,,,,49,,,1,1,,,,,,,,,,,,,,,,
null,,color_black,646343,,,black_plus_sign,,,,,null,,,,,,,,,,,,,,,,,,,,
null,,learn_phase(without_color),649379,,,black_plus_sign,,,,,null,US_Cities_List/racine.png,US_Cities_List/shreveport.png,,,,,,,,,,,,,,,,,,
null,,black_cross(without_color),650109,,,yellow,,,,,null,US_Cities_List/racine.png,US_Cities_List/shreveport.png,,,,,,,,,,,,,,,,,,
null,,rt_plussign_withcolor,650614,,,yellow,,,,,null,US_Cities_List/racine.png,US_Cities_List/shreveport.png,,,,,,,,,,,,,,,,,,
1489,,rt_thecrossant_black,651907,,,black_plus_sign,,,,,50,,,1,1,,,,,,,,,,,,,,,,
null,,color_black,652016,,,black_plus_sign,,,,,null,,,,,,,,,,,,,,,,,,,,
null,,learn_phase(without_color),655044,,,black_plus_sign,,,,,null,US_Cities_List/shreveport.png,US_Cities_List/newhope.png,,,,,,,,,,,,,,,,,,
null,,black_cross(without_color),655683,,,yellow,,,,,null,US_Cities_List/shreveport.png,US_Cities_List/newhope.png,,,,,,,,,,,,,,,,,,
null,,rt_plussign_withcolor,656200,,,yellow,,,,,null,US_Cities_List/shreveport.png,US_Cities_List/newhope.png,,,,,,,,,,,,,,,,,,
1055,,rt_thecrossant_black,657579,,,black_plus_sign,,,,,50,,,1,1,,,,,,,,,,,,,,,,
null,,color_black,657687,,,black_plus_sign,,,,,null,,,,,,,,,,,,,,,,,,,,
null,,learn_phase(without_color),660713,,,black_plus_sign,,,,,null,US_Cities_List/cornwall.png,US_Cities_List/huntsville.png,,,,,,,,,,,,,,,,,,
null,,black_cross(without_color),661541,,,yellow,,,,,null,US_Cities_List/cornwall.png,US_Cities_List/huntsville.png,,,,,,,,,,,,,,,,,,
null,,rt_plussign_withcolor,662043,,,yellow,,,,,null,US_Cities_List/cornwall.png,US_Cities_List/huntsville.png,,,,,,,,,,,,,,,,,,
1531,,rt_thecrossant_black,663232,,,black_plus_sign,,,,,49,,,0.984375,0,,,,,,,,,,,,,,,,
null,,color_black,663339,,,black_plus_sign,,,,,null,,,,,,,,,,,,,,,,,,,,
null,,learn_phase(without_color),666371,,,black_plus_sign,,,,,null,US_Cities_List/newhope.png,US_Cities_List/peoria.png,,,,,,,,,,,,,,,,,,
null,,black_cross(without_color),667119,,,blue,,,,,null,US_Cities_List/newhope.png,US_Cities_List/peoria.png,,,,,,,,,,,,,,,,,,
null,,rt_plussign_withcolor,667624,,,blue,,,,,null,US_Cities_List/newhope.png,US_Cities_List/peoria.png,,,,,,,,,,,,,,,,,,
null,,rt_thecrossant_black,668905,,,black_plus_sign,,,,,null,,,0.984375,,,,,,,,,,,,,,,,,
null,,warning_page,671922,,,warning,,,,,null,,,,,,,,,,,,,,,,,,,,
null,,color_black,672032,,,black_plus_sign,,,,,null,,,,,,,,,,,,,,,,,,,,
null,,learn_phase(without_color),675059,,,black_plus_sign,,,,,null,US_Cities_List/leesburg.png,US_Cities_List/peoria.png,,,,,,,,,,,,,,,,,,
null,,black_cross(without_color),675722,,,blue,,,,,null,US_Cities_List/leesburg.png,US_Cities_List/peoria.png,,,,,,,,,,,,,,,,,,
null,,rt_plussign_withcolor,676228,,,blue,,,,,null,US_Cities_List/leesburg.png,US_Cities_List/peoria.png,,,,,,,,,,,,,,,,,,
1191,,rt_thecrossant_black,677588,,,black_plus_sign,,,,,49,,,0.9846153846153847,1,,,,,,,,,,,,,,,,
null,,color_black,677696,,,black_plus_sign,,,,,null,,,,,,,,,,,,,,,,,,,,
null,,learn_phase(without_color),680726,,,black_plus_sign,,,,,null,US_Cities_List/shreveport.png,US_Cities_List/newhope.png,,,,,,,,,,,,,,,,,,
null,,black_cross(without_color),681160,,,blue,,,,,null,US_Cities_List/shreveport.png,US_Cities_List/newhope.png,,,,,,,,,,,,,,,,,,
null,,rt_plussign_withcolor,681664,,,blue,,,,,null,US_Cities_List/shreveport.png,US_Cities_List/newhope.png,,,,,,,,,,,,,,,,,,
1009,,rt_thecrossant_black,683256,,,black_plus_sign,,,,,49,,,0.9848484848484849,1,,,,,,,,,,,,,,,,
null,,color_black,683364,,,black_plus_sign,,,,,null,,,,,,,,,,,,,,,,,,,,
null,,learn_phase(without_color),686414,,,black_plus_sign,,,,,null,US_Cities_List/shreveport.png,US_Cities_List/peoria.png,,,,,,,,,,,,,,,,,,
null,,black_cross(without_color),686991,,,blue,,,,,null,US_Cities_List/shreveport.png,US_Cities_List/peoria.png,,,,,,,,,,,,,,,,,,
null,,rt_plussign_withcolor,687494,,,blue,,,,,null,US_Cities_List/shreveport.png,US_Cities_List/peoria.png,,,,,,,,,,,,,,,,,,
672,,rt_thecrossant_black,688939,,,black_plus_sign,,,,,49,,,0.9850746268656716,1,,,,,,,,,,,,,,,,
null,,color_black,689052,,,black_plus_sign,,,,,null,,,,,,,,,,,,,,,,,,,,
null,,learn_phase(without_color),692083,,,black_plus_sign,,,,,null,US_Cities_List/hotsprings.png,US_Cities_List/boulder.png,,,,,,,,,,,,,,,,,,
null,,black_cross(without_color),692851,,,blue,,,,,null,US_Cities_List/hotsprings.png,US_Cities_List/boulder.png,,,,,,,,,,,,,,,,,,
null,,rt_plussign_withcolor,693364,,,blue,,,,,null,US_Cities_List/hotsprings.png,US_Cities_List/boulder.png,,,,,,,,,,,,,,,,,,
848,,rt_thecrossant_black,694673,,,black_plus_sign,,,,,49,,,0.9852941176470589,1,,,,,,,,,,,,,,,,
null,,color_black,694786,,,black_plus_sign,,,,,null,,,,,,,,,,,,,,,,,,,,
null,,learn_phase(without_color),697828,,,black_plus_sign,,,,,null,US_Cities_List/cornwall.png,US_Cities_List/gatlinburg.png,,,,,,,,,,,,,,,,,,
null,,black_cross(without_color),698486,,,yellow,,,,,null,US_Cities_List/cornwall.png,US_Cities_List/gatlinburg.png,,,,,,,,,,,,,,,,,,
null,,rt_plussign_withcolor,698995,,,yellow,,,,,null,US_Cities_List/cornwall.png,US_Cities_List/gatlinburg.png,,,,,,,,,,,,,,,,,,
973,,rt_thecrossant_black,700360,,,black_plus_sign,,,,,50,,,0.9855072463768116,1,,,,,,,,,,,,,,,,
null,,color_black,700469,,,black_plus_sign,,,,,null,,,,,,,,,,,,,,,,,,,,
null,,learn_phase(without_color),703505,,,black_plus_sign,,,,,null,US_Cities_List/peoria.png,US_Cities_List/newhope.png,,,,,,,,,,,,,,,,,,
null,,black_cross(without_color),704444,,,blue,,,,,null,US_Cities_List/peoria.png,US_Cities_List/newhope.png,,,,,,,,,,,,,,,,,,
null,,rt_plussign_withcolor,704958,,,blue,,,,,null,US_Cities_List/peoria.png,US_Cities_List/newhope.png,,,,,,,,,,,,,,,,,,
919,,rt_thecrossant_black,706039,,,black_plus_sign,,,,,49,,,0.9857142857142858,1,,,,,,,,,,,,,,,,
null,,color_black,706153,,,black_plus_sign,,,,,null,,,,,,,,,,,,,,,,,,,,
null,,learn_phase(without_color),709185,,,black_plus_sign,,,,,null,US_Cities_List/shreveport.png,US_Cities_List/hotsprings.png,,,,,,,,,,,,,,,,,,
null,,black_cross(without_color),710009,,,yellow,,,,,null,US_Cities_List/shreveport.png,US_Cities_List/hotsprings.png,,,,,,,,,,,,,,,,,,
null,,rt_plussign_withcolor,710518,,,yellow,,,,,null,US_Cities_List/shreveport.png,US_Cities_List/hotsprings.png,,,,,,,,,,,,,,,,,,
1327,,rt_thecrossant_black,711718,,,black_plus_sign,,,,,50,,,0.9859154929577465,1,,,,,,,,,,,,,,,,
null,,color_black,711831,,,black_plus_sign,,,,,null,,,,,,,,,,,,,,,,,,,,
null,,learn_phase(without_color),714900,,,black_plus_sign,,,,,null,US_Cities_List/shreveport.png,US_Cities_List/newhope.png,,,,,,,,,,,,,,,,,,
null,,black_cross(without_color),715550,,,yellow,,,,,null,US_Cities_List/shreveport.png,US_Cities_List/newhope.png,,,,,,,,,,,,,,,,,,
null,,rt_plussign_withcolor,716062,,,yellow,,,,,null,US_Cities_List/shreveport.png,US_Cities_List/newhope.png,,,,,,,,,,,,,,,,,,
1085,,rt_thecrossant_black,717435,,,black_plus_sign,,,,,50,,,0.9861111111111112,1,,,,,,,,,,,,,,,,
null,,color_black,717547,,,black_plus_sign,,,,,null,,,,,,,,,,,,,,,,,,,,
null,,learn_phase(without_color),720585,,,black_plus_sign,,,,,null,US_Cities_List/shreveport.png,US_Cities_List/peoria.png,,,,,,,,,,,,,,,,,,
null,,black_cross(without_color),721296,,,yellow,,,,,null,US_Cities_List/shreveport.png,US_Cities_List/peoria.png,,,,,,,,,,,,,,,,,,
null,,rt_plussign_withcolor,721799,,,yellow,,,,,null,US_Cities_List/shreveport.png,US_Cities_List/peoria.png,,,,,,,,,,,,,,,,,,
927,,rt_thecrossant_black,723103,,,black_plus_sign,,,,,50,,,0.9863013698630136,1,,,,,,,,,,,,,,,,
null,,color_black,723212,,,black_plus_sign,,,,,null,,,,,,,,,,,,,,,,,,,,
null,,learn_phase(without_color),726226,,,black_plus_sign,,,,,null,US_Cities_List/hanover.png,US_Cities_List/huntsville.png,,,,,,,,,,,,,,,,,,
null,,black_cross(without_color),727116,,,yellow,,,,,null,US_Cities_List/hanover.png,US_Cities_List/huntsville.png,,,,,,,,,,,,,,,,,,
null,,rt_plussign_withcolor,727620,,,yellow,,,,,null,US_Cities_List/hanover.png,US_Cities_List/huntsville.png,,,,,,,,,,,,,,,,,,
1204,,rt_thecrossant_black,728749,,,black_plus_sign,,,,,50,,,0.9864864864864865,1,,,,,,,,,,,,,,,,
null,,color_black,728861,,,black_plus_sign,,,,,null,,,,,,,,,,,,,,,,,,,,
null,,learn_phase(without_color),731949,,,black_plus_sign,,,,,null,US_Cities_List/hotsprings.png,US_Cities_List/gatlinburg.png,,,,,,,,,,,,,,,,,,
null,,black_cross(without_color),732902,,,blue,,,,,null,US_Cities_List/hotsprings.png,US_Cities_List/gatlinburg.png,,,,,,,,,,,,,,,,,,
null,,rt_plussign_withcolor,733414,,,blue,,,,,null,US_Cities_List/hotsprings.png,US_Cities_List/gatlinburg.png,,,,,,,,,,,,,,,,,,
1376,,rt_thecrossant_black,734489,,,black_plus_sign,,,,,49,,,0.9866666666666667,1,,,,,,,,,,,,,,,,
null,,color_black,734598,,,black_plus_sign,,,,,null,,,,,,,,,,,,,,,,,,,,
null,,learn_phase(without_color),737627,,,black_plus_sign,,,,,null,US_Cities_List/newhope.png,US_Cities_List/peoria.png,,,,,,,,,,,,,,,,,,
null,,black_cross(without_color),738108,,,blue,,,,,null,US_Cities_List/newhope.png,US_Cities_List/peoria.png,,,,,,,,,,,,,,,,,,
null,,rt_plussign_withcolor,738616,,,blue,,,,,null,US_Cities_List/newhope.png,US_Cities_List/peoria.png,,,,,,,,,,,,,,,,,,
1479,,rt_thecrossant_black,740157,,,black_plus_sign,,,,,49,,,0.9868421052631579,1,,,,,,,,,,,,,,,,
null,,color_black,740266,,,black_plus_sign,,,,,null,,,,,,,,,,,,,,,,,,,,
null,,learn_phase(without_color),743298,,,black_plus_sign,,,,,null,US_Cities_List/hotsprings.png,US_Cities_List/gatlinburg.png,,,,,,,,,,,,,,,,,,
null,,black_cross(without_color),743919,,,yellow,,,,,null,US_Cities_List/hotsprings.png,US_Cities_List/gatlinburg.png,,,,,,,,,,,,,,,,,,
null,,rt_plussign_withcolor,744428,,,yellow,,,,,null,US_Cities_List/hotsprings.png,US_Cities_List/gatlinburg.png,,,,,,,,,,,,,,,,,,
771,,rt_thecrossant_black,745821,,,black_plus_sign,,,,,50,,,0.987012987012987,1,,,,,,,,,,,,,,,,
null,,color_black,745933,,,black_plus_sign,,,,,null,,,,,,,,,,,,,,,,,,,,
null,,learn_phase(without_color),748972,,,black_plus_sign,,,,,null,US_Cities_List/peoria.png,US_Cities_List/newhope.png,,,,,,,,,,,,,,,,,,
null,,black_cross(without_color),749715,,,blue,,,,,null,US_Cities_List/peoria.png,US_Cities_List/newhope.png,,,,,,,,,,,,,,,,,,
null,,rt_plussign_withcolor,750220,,,blue,,,,,null,US_Cities_List/peoria.png,US_Cities_List/newhope.png,,,,,,,,,,,,,,,,,,
1104,,rt_thecrossant_black,751494,,,black_plus_sign,,,,,49,,,0.9871794871794872,1,,,,,,,,,,,,,,,,
null,,color_black,751607,,,black_plus_sign,,,,,null,,,,,,,,,,,,,,,,,,,,
null,,learn_phase(without_color),754637,,,black_plus_sign,,,,,null,US_Cities_List/hotsprings.png,US_Cities_List/gatlinburg.png,,,,,,,,,,,,,,,,,,
null,,black_cross(without_color),755624,,,yellow,,,,,null,US_Cities_List/hotsprings.png,US_Cities_List/gatlinburg.png,,,,,,,,,,,,,,,,,,
null,,rt_plussign_withcolor,756132,,,yellow,,,,,null,US_Cities_List/hotsprings.png,US_Cities_List/gatlinburg.png,,,,,,,,,,,,,,,,,,
1123,,rt_thecrossant_black,757161,,,black_plus_sign,,,,,50,,,0.9873417721518988,1,,,,,,,,,,,,,,,,
null,,color_black,757274,,,black_plus_sign,,,,,null,,,,,,,,,,,,,,,,,,,,
null,,learn_phase(without_color),760335,,,black_plus_sign,,,,,null,US_Cities_List/shreveport.png,US_Cities_List/hotsprings.png,,,,,,,,,,,,,,,,,,
null,,black_cross(without_color),761203,,,yellow,,,,,null,US_Cities_List/shreveport.png,US_Cities_List/hotsprings.png,,,,,,,,,,,,,,,,,,
null,,rt_plussign_withcolor,761714,,,yellow,,,,,null,US_Cities_List/shreveport.png,US_Cities_List/hotsprings.png,,,,,,,,,,,,,,,,,,
1537,,rt_thecrossant_black,762863,,,black_plus_sign,,,,,50,,,0.9875,1,,,,,,,,,,,,,,,,
null,,color_black,762982,,,black_plus_sign,,,,,null,,,,,,,,,,,,,,,,,,,,
null,,learn_phase(without_color),766024,,,black_plus_sign,,,,,null,US_Cities_List/cornwall.png,US_Cities_List/gatlinburg.png,,,,,,,,,,,,,,,,,,
null,,black_cross(without_color),766612,,,blue,,,,,null,US_Cities_List/cornwall.png,US_Cities_List/gatlinburg.png,,,,,,,,,,,,,,,,,,
null,,rt_plussign_withcolor,767118,,,blue,,,,,null,US_Cities_List/cornwall.png,US_Cities_List/gatlinburg.png,,,,,,,,,,,,,,,,,,
1331,,rt_thecrossant_black,768548,,,black_plus_sign,,,,,49,,,0.9876543209876543,1,,,,,,,,,,,,,,,,
null,,color_black,768664,,,black_plus_sign,,,,,null,,,,,,,,,,,,,,,,,,,,
null,,learn_phase(without_color),771687,,,black_plus_sign,,,,,null,US_Cities_List/peoria.png,US_Cities_List/shreveport.png,,,,,,,,,,,,,,,,,,
null,,black_cross(without_color),772416,,,yellow,,,,,null,US_Cities_List/peoria.png,US_Cities_List/shreveport.png,,,,,,,,,,,,,,,,,,
null,,rt_plussign_withcolor,772921,,,yellow,,,,,null,US_Cities_List/peoria.png,US_Cities_List/shreveport.png,,,,,,,,,,,,,,,,,,
840,,rt_thecrossant_black,774204,,,black_plus_sign,,,,,50,,,0.9878048780487805,1,,,,,,,,,,,,,,,,
null,,color_black,774316,,,black_plus_sign,,,,,null,,,,,,,,,,,,,,,,,,,,
null,,learn_phase(without_color),777437,,,black_plus_sign,,,,,null,US_Cities_List/shreveport.png,US_Cities_List/hotsprings.png,,,,,,,,,,,,,,,,,,
null,,black_cross(without_color),778496,,,yellow,,,,,null,US_Cities_List/shreveport.png,US_Cities_List/hotsprings.png,,,,,,,,,,,,,,,,,,
null,,rt_plussign_withcolor,779009,,,yellow,,,,,null,US_Cities_List/shreveport.png,US_Cities_List/hotsprings.png,,,,,,,,,,,,,,,,,,
1091,,rt_thecrossant_black,779972,,,black_plus_sign,,,,,50,,,0.9879518072289156,1,,,,,,,,,,,,,,,,
null,,color_black,780080,,,black_plus_sign,,,,,null,,,,,,,,,,,,,,,,,,,,
null,,learn_phase(without_color),783121,,,black_plus_sign,,,,,null,US_Cities_List/cornwall.png,US_Cities_List/gatlinburg.png,,,,,,,,,,,,,,,,,,
null,,black_cross(without_color),784124,,,blue,,,,,null,US_Cities_List/cornwall.png,US_Cities_List/gatlinburg.png,,,,,,,,,,,,,,,,,,
null,,rt_plussign_withcolor,784638,,,blue,,,,,null,US_Cities_List/cornwall.png,US_Cities_List/gatlinburg.png,,,,,,,,,,,,,,,,,,
1507,,rt_thecrossant_black,785653,,,black_plus_sign,,,,,49,,,0.9880952380952381,1,,,,,,,,,,,,,,,,
null,,color_black,785763,,,black_plus_sign,,,,,null,,,,,,,,,,,,,,,,,,,,
null,,learn_phase(without_color),788792,,,black_plus_sign,,,,,null,US_Cities_List/peoria.png,US_Cities_List/newhope.png,,,,,,,,,,,,,,,,,,
null,,black_cross(without_color),789358,,,yellow,,,,,null,US_Cities_List/peoria.png,US_Cities_List/newhope.png,,,,,,,,,,,,,,,,,,
null,,rt_plussign_withcolor,789868,,,yellow,,,,,null,US_Cities_List/peoria.png,US_Cities_List/newhope.png,,,,,,,,,,,,,,,,,,
1337,,rt_thecrossant_black,791330,,,black_plus_sign,,,,,50,,,0.9882352941176471,1,,,,,,,,,,,,,,,,
null,,color_black,791443,,,black_plus_sign,,,,,null,,,,,,,,,,,,,,,,,,,,
null,,learn_phase(without_color),794466,,,black_plus_sign,,,,,null,US_Cities_List/huntsville.png,US_Cities_List/boulder.png,,,,,,,,,,,,,,,,,,
null,,black_cross(without_color),795126,,,blue,,,,,null,US_Cities_List/huntsville.png,US_Cities_List/boulder.png,,,,,,,,,,,,,,,,,,
null,,rt_plussign_withcolor,795633,,,blue,,,,,null,US_Cities_List/huntsville.png,US_Cities_List/boulder.png,,,,,,,,,,,,,,,,,,
1042,,rt_thecrossant_black,797005,,,black_plus_sign,,,,,49,,,0.9883720930232558,1,,,,,,,,,,,,,,,,
null,,color_black,797114,,,black_plus_sign,,,,,null,,,,,,,,,,,,,,,,,,,,
null,,learn_phase(without_color),800147,,,black_plus_sign,,,,,null,US_Cities_List/huntsville.png,US_Cities_List/hanover.png,,,,,,,,,,,,,,,,,,
null,,black_cross(without_color),800734,,,blue,,,,,null,US_Cities_List/huntsville.png,US_Cities_List/hanover.png,,,,,,,,,,,,,,,,,,
null,,rt_plussign_withcolor,801245,,,blue,,,,,null,US_Cities_List/huntsville.png,US_Cities_List/hanover.png,,,,,,,,,,,,,,,,,,
995,,rt_thecrossant_black,802688,,,black_plus_sign,,,,,49,,,0.9885057471264368,1,,,,,,,,,,,,,,,,
null,,color_black,802797,,,black_plus_sign,,,,,null,,,,,,,,,,,,,,,,,,,,
null,,learn_phase(without_color),806195,,,black_plus_sign,,,,,null,US_Cities_List/hotsprings.png,US_Cities_List/shreveport.png,,,,,,,,,,,,,,,,,,
null,,black_cross(without_color),807087,,,yellow,,,,,null,US_Cities_List/hotsprings.png,US_Cities_List/shreveport.png,,,,,,,,,,,,,,,,,,
null,,rt_plussign_withcolor,807596,,,yellow,,,,,null,US_Cities_List/hotsprings.png,US_Cities_List/shreveport.png,,,,,,,,,,,,,,,,,,
817,,rt_thecrossant_black,808738,,,black_plus_sign,,,,,50,,,0.9886363636363636,1,,,,,,,,,,,,,,,,
null,,color_black,808849,,,black_plus_sign,,,,,null,,,,,,,,,,,,,,,,,,,,
null,,learn_phase(without_color),811885,,,black_plus_sign,,,,,null,US_Cities_List/racine.png,US_Cities_List/peoria.png,,,,,,,,,,,,,,,,,,
null,,black_cross(without_color),812451,,,yellow,,,,,null,US_Cities_List/racine.png,US_Cities_List/peoria.png,,,,,,,,,,,,,,,,,,
null,,rt_plussign_withcolor,812961,,,yellow,,,,,null,US_Cities_List/racine.png,US_Cities_List/peoria.png,,,,,,,,,,,,,,,,,,
null,,rt_thecrossant_black,814421,,,black_plus_sign,,,,,null,,,0.9886363636363636,,,,,,,,,,,,,,,,,
null,,color_black,814539,,,black_plus_sign,,,,,null,,,,,,,,,,,,,,,,,,,,
null,,learn_phase(without_color),817572,,,black_plus_sign,,,,,null,US_Cities_List/racine.png,US_Cities_List/peoria.png,,,,,,,,,,,,,,,,,,
null,,black_cross(without_color),818385,,,blue,,,,,null,US_Cities_List/racine.png,US_Cities_List/peoria.png,,,,,,,,,,,,,,,,,,
null,,rt_plussign_withcolor,818891,,,blue,,,,,null,US_Cities_List/racine.png,US_Cities_List/peoria.png,,,,,,,,,,,,,,,,,,
834,,rt_thecrossant_black,820100,,,black_plus_sign,,,,,49,,,0.9887640449438202,1,,,,,,,,,,,,,,,,
null,,color_black,820206,,,black_plus_sign,,,,,null,,,,,,,,,,,,,,,,,,,,
null,,learn_phase(without_color),823237,,,black_plus_sign,,,,,null,US_Cities_List/newhope.png,US_Cities_List/boulder.png,,,,,,,,,,,,,,,,,,
null,,black_cross(without_color),824261,,,blue,,,,,null,US_Cities_List/newhope.png,US_Cities_List/boulder.png,,,,,,,,,,,,,,,,,,
496,,rt_plussign_withcolor,824763,,,blue,,,,,49,US_Cities_List/newhope.png,US_Cities_List/boulder.png,,,,,,,,,,,,,,,,,,
null,,rt_thecrossant_black,825759,,,black_plus_sign,,,,,null,,,0.9888888888888889,1,,,,,,,,,,,,,,,,
null,,color_black,825871,,,black_plus_sign,,,,,null,,,,,,,,,,,,,,,,,,,,
null,,learn_phase(without_color),828907,,,black_plus_sign,,,,,null,US_Cities_List/newhope.png,US_Cities_List/boulder.png,,,,,,,,,,,,,,,,,,
null,,black_cross(without_color),829708,,,blue,,,,,null,US_Cities_List/newhope.png,US_Cities_List/boulder.png,,,,,,,,,,,,,,,,,,
null,,rt_plussign_withcolor,830214,,,blue,,,,,null,US_Cities_List/newhope.png,US_Cities_List/boulder.png,,,,,,,,,,,,,,,,,,
1161,,rt_thecrossant_black,831439,,,black_plus_sign,,,,,49,,,0.989010989010989,1,,,,,,,,,,,,,,,,
null,,color_black,831548,,,black_plus_sign,,,,,null,,,,,,,,,,,,,,,,,,,,
null,,learn_phase(without_color),834575,,,black_plus_sign,,,,,null,US_Cities_List/racine.png,US_Cities_List/westpalmbeach.png,,,,,,,,,,,,,,,,,,
null,,black_cross(without_color),835392,,,yellow,,,,,null,US_Cities_List/racine.png,US_Cities_List/westpalmbeach.png,,,,,,,,,,,,,,,,,,
null,,rt_plussign_withcolor,835907,,,yellow,,,,,null,US_Cities_List/racine.png,US_Cities_List/westpalmbeach.png,,,,,,,,,,,,,,,,,,
1397,,rt_thecrossant_black,837111,,,black_plus_sign,,,,,50,,,0.9891304347826086,1,,,,,,,,,,,,,,,,
null,,color_black,837215,,,black_plus_sign,,,,,null,,,,,,,,,,,,,,,,,,,,
null,,learn_phase(without_color),840241,,,black_plus_sign,,,,,null,US_Cities_List/cornwall.png,US_Cities_List/carmel.png,,,,,,,,,,,,,,,,,,
null,,black_cross(without_color),841077,,,yellow,,,,,null,US_Cities_List/cornwall.png,US_Cities_List/carmel.png,,,,,,,,,,,,,,,,,,
null,,rt_plussign_withcolor,841589,,,yellow,,,,,null,US_Cities_List/cornwall.png,US_Cities_List/carmel.png,,,,,,,,,,,,,,,,,,
1310,,rt_thecrossant_black,842767,,,black_plus_sign,,,,,50,,,0.989247311827957,1,,,,,,,,,,,,,,,,
null,,color_black,842880,,,black_plus_sign,,,,,null,,,,,,,,,,,,,,,,,,,,
null,,learn_phase(without_color),845919,,,black_plus_sign,,,,,null,US_Cities_List/cornwall.png,US_Cities_List/huntsville.png,,,,,,,,,,,,,,,,,,
null,,black_cross(without_color),846763,,,blue,,,,,null,US_Cities_List/cornwall.png,US_Cities_List/huntsville.png,,,,,,,,,,,,,,,,,,
null,,rt_plussign_withcolor,847268,,,blue,,,,,null,US_Cities_List/cornwall.png,US_Cities_List/huntsville.png,,,,,,,,,,,,,,,,,,
998,,rt_thecrossant_black,848454,,,black_plus_sign,,,,,49,,,0.9893617021276596,1,,,,,,,,,,,,,,,,
null,,color_black,848571,,,black_plus_sign,,,,,null,,,,,,,,,,,,,,,,,,,,
null,,learn_phase(without_color),851605,,,black_plus_sign,,,,,null,US_Cities_List/westpalmbeach.png,US_Cities_List/racine.png,,,,,,,,,,,,,,,,,,
null,,black_cross(without_color),852109,,,yellow,,,,,null,US_Cities_List/westpalmbeach.png,US_Cities_List/racine.png,,,,,,,,,,,,,,,,,,
null,,rt_plussign_withcolor,852610,,,yellow,,,,,null,US_Cities_List/westpalmbeach.png,US_Cities_List/racine.png,,,,,,,,,,,,,,,,,,
1271,,rt_thecrossant_black,854135,,,black_plus_sign,,,,,50,,,0.9894736842105263,1,,,,,,,,,,,,,,,,
null,,color_black,854243,,,black_plus_sign,,,,,null,,,,,,,,,,,,,,,,,,,,
null,,learn_phase(without_color),857488,,,black_plus_sign,,,,,null,US_Cities_List/cornwall.png,US_Cities_List/huntsville.png,,,,,,,,,,,,,,,,,,
null,,black_cross(without_color),858042,,,blue,,,,,null,US_Cities_List/cornwall.png,US_Cities_List/huntsville.png,,,,,,,,,,,,,,,,,,
null,,rt_plussign_withcolor,858551,,,blue,,,,,null,US_Cities_List/cornwall.png,US_Cities_List/huntsville.png,,,,,,,,,,,,,,,,,,
890,,rt_thecrossant_black,860027,,,black_plus_sign,,,,,49,,,0.9895833333333334,1,,,,,,,,,,,,,,,,
null,,color_black,860135,,,black_plus_sign,,,,,null,,,,,,,,,,,,,,,,,,,,
null,,learn_phase(without_color),863172,,,black_plus_sign,,,,,null,US_Cities_List/gatlinburg.png,US_Cities_List/cornwall.png,,,,,,,,,,,,,,,,,,
null,,black_cross(without_color),864167,,,blue,,,,,null,US_Cities_List/gatlinburg.png,US_Cities_List/cornwall.png,,,,,,,,,,,,,,,,,,
456,,rt_plussign_withcolor,864678,,,blue,,,,,49,US_Cities_List/gatlinburg.png,US_Cities_List/cornwall.png,,,,,,,,,,,,,,,,,,
null,,rt_thecrossant_black,865715,,,black_plus_sign,,,,,null,,,0.9896907216494846,1,,,,,,,,,,,,,,,,
null,,color_black,865820,,,black_plus_sign,,,,,null,,,,,,,,,,,,,,,,,,,,
null,,learn_phase(without_color),868868,,,black_plus_sign,,,,,null,US_Cities_List/cornwall.png,US_Cities_List/carmel.png,,,,,,,,,,,,,,,,,,
null,,black_cross(without_color),869881,,,blue,,,,,null,US_Cities_List/cornwall.png,US_Cities_List/carmel.png,,,,,,,,,,,,,,,,,,
null,,rt_plussign_withcolor,870384,,,blue,,,,,null,US_Cities_List/cornwall.png,US_Cities_List/carmel.png,,,,,,,,,,,,,,,,,,
1234,,rt_thecrossant_black,871459,,,black_plus_sign,,,,,49,,,0.9897959183673469,1,,,,,,,,,,,,,,,,
null,,color_black,871575,,,black_plus_sign,,,,,null,,,,,,,,,,,,,,,,,,,,
null,,learn_phase(without_color),874903,,,black_plus_sign,,,,,null,US_Cities_List/newhope.png,US_Cities_List/boulder.png,,,,,,,,,,,,,,,,,,
null,,black_cross(without_color),875821,,,yellow,,,,,null,US_Cities_List/newhope.png,US_Cities_List/boulder.png,,,,,,,,,,,,,,,,,,
null,,rt_plussign_withcolor,876338,,,yellow,,,,,null,US_Cities_List/newhope.png,US_Cities_List/boulder.png,,,,,,,,,,,,,,,,,,
1203,,rt_thecrossant_black,877435,,,black_plus_sign,,,,,50,,,0.98989898989899,1,,,,,,,,,,,,,,,,
null,,color_black,877548,,,black_plus_sign,,,,,null,,,,,,,,,,,,,,,,,,,,
null,,learn_phase(without_color),880572,,,black_plus_sign,,,,,null,US_Cities_List/huntsville.png,US_Cities_List/boulder.png,,,,,,,,,,,,,,,,,,
null,,black_cross(without_color),881243,,,yellow,,,,,null,US_Cities_List/huntsville.png,US_Cities_List/boulder.png,,,,,,,,,,,,,,,,,,
null,,rt_plussign_withcolor,881748,,,yellow,,,,,null,US_Cities_List/huntsville.png,US_Cities_List/boulder.png,,,,,,,,,,,,,,,,,,
1250,,rt_thecrossant_black,883092,,,black_plus_sign,,,,,50,,,0.99,1,,,,,,,,,,,,,,,,
null,,color_black,883198,,,black_plus_sign,,,,,null,,,,,,,,,,,,,,,,,,,,
null,,learn_phase(without_color),886224,,,black_plus_sign,,,,,null,US_Cities_List/shreveport.png,US_Cities_List/racine.png,,,,,,,,,,,,,,,,,,
null,,black_cross(without_color),886928,,,blue,,,,,null,US_Cities_List/shreveport.png,US_Cities_List/racine.png,,,,,,,,,,,,,,,,,,
null,,rt_plussign_withcolor,887440,,,blue,,,,,null,US_Cities_List/shreveport.png,US_Cities_List/racine.png,,,,,,,,,,,,,,,,,,
813,,rt_thecrossant_black,888752,,,black_plus_sign,,,,,49,,,0.9900990099009901,1,,,,,,,,,,,,,,,,
null,,color_black,888860,,,black_plus_sign,,,,,null,,,,,,,,,,,,,,,,,,,,
null,,learn_phase(without_color),891886,,,black_plus_sign,,,,,null,US_Cities_List/hotsprings.png,US_Cities_List/gatlinburg.png,,,,,,,,,,,,,,,,,,
null,,black_cross(without_color),892510,,,blue,,,,,null,US_Cities_List/hotsprings.png,US_Cities_List/gatlinburg.png,,,,,,,,,,,,,,,,,,
null,,rt_plussign_withcolor,893022,,,blue,,,,,null,US_Cities_List/hotsprings.png,US_Cities_List/gatlinburg.png,,,,,,,,,,,,,,,,,,
873,,rt_thecrossant_black,894422,,,black_plus_sign,,,,,49,,,0.9901960784313726,1,,,,,,,,,,,,,,,,
null,,color_black,894527,,,black_plus_sign,,,,,null,,,,,,,,,,,,,,,,,,,,
null,,learn_phase(without_color),897562,,,black_plus_sign,,,,,null,US_Cities_List/racine.png,US_Cities_List/westpalmbeach.png,,,,,,,,,,,,,,,,,,
null,,black_cross(without_color),898061,,,blue,,,,,null,US_Cities_List/racine.png,US_Cities_List/westpalmbeach.png,,,,,,,,,,,,,,,,,,
null,,rt_plussign_withcolor,898582,,,blue,,,,,null,US_Cities_List/racine.png,US_Cities_List/westpalmbeach.png,,,,,,,,,,,,,,,,,,
1160,,rt_thecrossant_black,900101,,,black_plus_sign,,,,,49,,,0.9902912621359223,1,,,,,,,,,,,,,,,,
null,,color_black,900216,,,black_plus_sign,,,,,null,,,,,,,,,,,,,,,,,,,,
null,,learn_phase(without_color),903601,,,black_plus_sign,,,,,null,US_Cities_List/shreveport.png,US_Cities_List/hotsprings.png,,,,,,,,,,,,,,,,,,
null,,black_cross(without_color),904432,,,yellow,,,,,null,US_Cities_List/shreveport.png,US_Cities_List/hotsprings.png,,,,,,,,,,,,,,,,,,
null,,rt_plussign_withcolor,904940,,,yellow,,,,,null,US_Cities_List/shreveport.png,US_Cities_List/hotsprings.png,,,,,,,,,,,,,,,,,,
677,,rt_thecrossant_black,906208,,,black_plus_sign,,,,,50,,,0.9903846153846154,1,,,,,,,,,,,,,,,,
null,,color_black,906320,,,black_plus_sign,,,,,null,,,,,,,,,,,,,,,,,,,,
null,,learn_phase(without_color),909355,,,black_plus_sign,,,,,null,US_Cities_List/boulder.png,US_Cities_List/hotsprings.png,,,,,,,,,,,,,,,,,,
null,,black_cross(without_color),909850,,,blue,,,,,null,US_Cities_List/boulder.png,US_Cities_List/hotsprings.png,,,,,,,,,,,,,,,,,,
null,,rt_plussign_withcolor,910366,,,blue,,,,,null,US_Cities_List/boulder.png,US_Cities_List/hotsprings.png,,,,,,,,,,,,,,,,,,
1184,,rt_thecrossant_black,911882,,,black_plus_sign,,,,,50,,,0.9809523809523809,0,,,,,,,,,,,,,,,,
null,,color_black,911995,,,black_plus_sign,,,,,null,,,,,,,,,,,,,,,,,,,,
null,,learn_phase(without_color),915034,,,black_plus_sign,,,,,null,US_Cities_List/cornwall.png,US_Cities_List/huntsville.png,,,,,,,,,,,,,,,,,,
null,,black_cross(without_color),915679,,,blue,,,,,null,US_Cities_List/cornwall.png,US_Cities_List/huntsville.png,,,,,,,,,,,,,,,,,,
null,,rt_plussign_withcolor,916184,,,blue,,,,,null,US_Cities_List/cornwall.png,US_Cities_List/huntsville.png,,,,,,,,,,,,,,,,,,
820,,rt_thecrossant_black,917573,,,black_plus_sign,,,,,49,,,0.9811320754716981,1,,,,,,,,,,,,,,,,
null,,color_black,917690,,,black_plus_sign,,,,,null,,,,,,,,,,,,,,,,,,,,
null,,learn_phase(without_color),920724,,,black_plus_sign,,,,,null,US_Cities_List/shreveport.png,US_Cities_List/newhope.png,,,,,,,,,,,,,,,,,,
null,,black_cross(without_color),921600,,,blue,,,,,null,US_Cities_List/shreveport.png,US_Cities_List/newhope.png,,,,,,,,,,,,,,,,,,
null,,rt_plussign_withcolor,922108,,,blue,,,,,null,US_Cities_List/shreveport.png,US_Cities_List/newhope.png,,,,,,,,,,,,,,,,,,
782,,rt_thecrossant_black,923255,,,black_plus_sign,,,,,49,,,0.9813084112149533,1,,,,,,,,,,,,,,,,
null,,color_black,923367,,,black_plus_sign,,,,,null,,,,,,,,,,,,,,,,,,,,
null,,learn_phase(without_color),926395,,,black_plus_sign,,,,,null,US_Cities_List/boulder.png,US_Cities_List/newhope.png,,,,,,,,,,,,,,,,,,
null,,black_cross(without_color),926967,,,blue,,,,,null,US_Cities_List/boulder.png,US_Cities_List/newhope.png,,,,,,,,,,,,,,,,,,
null,,rt_plussign_withcolor,927488,,,blue,,,,,null,US_Cities_List/boulder.png,US_Cities_List/newhope.png,,,,,,,,,,,,,,,,,,
959,,rt_thecrossant_black,928941,,,black_plus_sign,,,,,49,,,0.9814814814814815,1,,,,,,,,,,,,,,,,
null,,color_black,929045,,,black_plus_sign,,,,,null,,,,,,,,,,,,,,,,,,,,
null,,learn_phase(without_color),932071,,,black_plus_sign,,,,,null,US_Cities_List/leesburg.png,US_Cities_List/peoria.png,,,,,,,,,,,,,,,,,,
null,,black_cross(without_color),933030,,,yellow,,,,,null,US_Cities_List/leesburg.png,US_Cities_List/peoria.png,,,,,,,,,,,,,,,,,,
null,,rt_plussign_withcolor,933539,,,yellow,,,,,null,US_Cities_List/leesburg.png,US_Cities_List/peoria.png,,,,,,,,,,,,,,,,,,
1563,,rt_thecrossant_black,934590,,,black_plus_sign,,,,,50,,,0.981651376146789,1,,,,,,,,,,,,,,,,
null,,color_black,934700,,,black_plus_sign,,,,,null,,,,,,,,,,,,,,,,,,,,
null,,learn_phase(without_color),937725,,,black_plus_sign,,,,,null,US_Cities_List/racine.png,US_Cities_List/shreveport.png,,,,,,,,,,,,,,,,,,
null,,black_cross(without_color),938689,,,blue,,,,,null,US_Cities_List/racine.png,US_Cities_List/shreveport.png,,,,,,,,,,,,,,,,,,
null,,rt_plussign_withcolor,939192,,,blue,,,,,null,US_Cities_List/racine.png,US_Cities_List/shreveport.png,,,,,,,,,,,,,,,,,,
1239,,rt_thecrossant_black,940246,,,black_plus_sign,,,,,49,,,0.9818181818181818,1,,,,,,,,,,,,,,,,
null,,color_black,940355,,,black_plus_sign,,,,,null,,,,,,,,,,,,,,,,,,,,
null,,learn_phase(without_color),943389,,,black_plus_sign,,,,,null,US_Cities_List/peoria.png,US_Cities_List/shreveport.png,,,,,,,,,,,,,,,,,,
null,,black_cross(without_color),944072,,,blue,,,,,null,US_Cities_List/peoria.png,US_Cities_List/shreveport.png,,,,,,,,,,,,,,,,,,
null,,rt_plussign_withcolor,944585,,,blue,,,,,null,US_Cities_List/peoria.png,US_Cities_List/shreveport.png,,,,,,,,,,,,,,,,,,
1161,,rt_thecrossant_black,945947,,,black_plus_sign,,,,,49,,,0.9819819819819819,1,,,,,,,,,,,,,,,,
null,,color_black,946055,,,black_plus_sign,,,,,null,,,,,,,,,,,,,,,,,,,,
null,,learn_phase(without_color),949441,,,black_plus_sign,,,,,null,US_Cities_List/hanover.png,US_Cities_List/huntsville.png,,,,,,,,,,,,,,,,,,
null,,black_cross(without_color),950497,,,yellow,,,,,null,US_Cities_List/hanover.png,US_Cities_List/huntsville.png,,,,,,,,,,,,,,,,,,
null,,rt_plussign_withcolor,951005,,,yellow,,,,,null,US_Cities_List/hanover.png,US_Cities_List/huntsville.png,,,,,,,,,,,,,,,,,,
934,,rt_thecrossant_black,951973,,,black_plus_sign,,,,,50,,,0.9821428571428571,1,,,,,,,,,,,,,,,,
null,,color_black,952085,,,black_plus_sign,,,,,null,,,,,,,,,,,,,,,,,,,,
null,,learn_phase(without_color),955483,,,black_plus_sign,,,,,null,US_Cities_List/carmel.png,US_Cities_List/cornwall.png,,,,,,,,,,,,,,,,,,
null,,black_cross(without_color),956230,,,yellow,,,,,null,US_Cities_List/carmel.png,US_Cities_List/cornwall.png,,,,,,,,,,,,,,,,,,
null,,rt_plussign_withcolor,956744,,,yellow,,,,,null,US_Cities_List/carmel.png,US_Cities_List/cornwall.png,,,,,,,,,,,,,,,,,,
1621,,rt_thecrossant_black,958018,,,black_plus_sign,,,,,50,,,0.9823008849557522,1,,,,,,,,,,,,,,,,
null,,color_black,958126,,,black_plus_sign,,,,,null,,,,,,,,,,,,,,,,,,,,
null,,learn_phase(without_color),961155,,,black_plus_sign,,,,,null,US_Cities_List/hanover.png,US_Cities_List/huntsville.png,,,,,,,,,,,,,,,,,,
null,,black_cross(without_color),961766,,,blue,,,,,null,US_Cities_List/hanover.png,US_Cities_List/huntsville.png,,,,,,,,,,,,,,,,,,
null,,rt_plussign_withcolor,962281,,,blue,,,,,null,US_Cities_List/hanover.png,US_Cities_List/huntsville.png,,,,,,,,,,,,,,,,,,
1204,,rt_thecrossant_black,963692,,,black_plus_sign,,,,,49,,,0.9824561403508771,1,,,,,,,,,,,,,,,,
null,,color_black,963800,,,black_plus_sign,,,,,null,,,,,,,,,,,,,,,,,,,,
null,,learn_phase(without_color),966827,,,black_plus_sign,,,,,null,US_Cities_List/huntsville.png,US_Cities_List/hanover.png,,,,,,,,,,,,,,,,,,
null,,black_cross(without_color),967881,,,yellow,,,,,null,US_Cities_List/huntsville.png,US_Cities_List/hanover.png,,,,,,,,,,,,,,,,,,
null,,rt_plussign_withcolor,968397,,,yellow,,,,,null,US_Cities_List/huntsville.png,US_Cities_List/hanover.png,,,,,,,,,,,,,,,,,,
1116,,rt_thecrossant_black,969370,,,black_plus_sign,,,,,50,,,0.9826086956521739,1,,,,,,,,,,,,,,,,
null,,color_black,969478,,,black_plus_sign,,,,,null,,,,,,,,,,,,,,,,,,,,
null,,learn_phase(without_color),972516,,,black_plus_sign,,,,,null,US_Cities_List/boulder.png,US_Cities_List/hotsprings.png,,,,,,,,,,,,,,,,,,
null,,black_cross(without_color),973276,,,blue,,,,,null,US_Cities_List/boulder.png,US_Cities_List/hotsprings.png,,,,,,,,,,,,,,,,,,
null,,rt_plussign_withcolor,973781,,,blue,,,,,null,US_Cities_List/boulder.png,US_Cities_List/hotsprings.png,,,,,,,,,,,,,,,,,,
1690,,rt_thecrossant_black,975051,,,black_plus_sign,,,,,49,,,0.9827586206896551,1,,,,,,,,,,,,,,,,
null,,color_black,975161,,,black_plus_sign,,,,,null,,,,,,,,,,,,,,,,,,,,
null,,learn_phase(without_color),978192,,,black_plus_sign,,,,,null,US_Cities_List/peoria.png,US_Cities_List/racine.png,,,,,,,,,,,,,,,,,,
null,,black_cross(without_color),978964,,,blue,,,,,null,US_Cities_List/peoria.png,US_Cities_List/racine.png,,,,,,,,,,,,,,,,,,
494,,rt_plussign_withcolor,979474,,,blue,,,,,49,US_Cities_List/peoria.png,US_Cities_List/racine.png,,,,,,,,,,,,,,,,,,
null,,rt_thecrossant_black,980718,,,black_plus_sign,,,,,null,,,0.9829059829059829,1,,,,,,,,,,,,,,,,
null,,color_black,980834,,,black_plus_sign,,,,,null,,,,,,,,,,,,,,,,,,,,
null,,learn_phase(without_color),983868,,,black_plus_sign,,,,,null,US_Cities_List/huntsville.png,US_Cities_List/cornwall.png,,,,,,,,,,,,,,,,,,
null,,black_cross(without_color),985065,,,yellow,,,,,null,US_Cities_List/huntsville.png,US_Cities_List/cornwall.png,,,,,,,,,,,,,,,,,,
null,,rt_plussign_withcolor,985574,,,yellow,,,,,null,US_Cities_List/huntsville.png,US_Cities_List/cornwall.png,,,,,,,,,,,,,,,,,,
1128,,rt_thecrossant_black,986526,,,black_plus_sign,,,,,50,,,0.9830508474576272,1,,,,,,,,,,,,,,,,
null,,color_black,986636,,,black_plus_sign,,,,,null,,,,,,,,,,,,,,,,,,,,
null,,learn_phase(without_color),989664,,,black_plus_sign,,,,,null,US_Cities_List/hotsprings.png,US_Cities_List/gatlinburg.png,,,,,,,,,,,,,,,,,,
null,,black_cross(without_color),990461,,,blue,,,,,null,US_Cities_List/hotsprings.png,US_Cities_List/gatlinburg.png,,,,,,,,,,,,,,,,,,
null,,rt_plussign_withcolor,990975,,,blue,,,,,null,US_Cities_List/hotsprings.png,US_Cities_List/gatlinburg.png,,,,,,,,,,,,,,,,,,
1195,,rt_thecrossant_black,992191,,,black_plus_sign,,,,,49,,,0.9831932773109243,1,,,,,,,,,,,,,,,,
null,,color_black,992303,,,black_plus_sign,,,,,null,,,,,,,,,,,,,,,,,,,,
null,,learn_phase(without_color),995472,,,black_plus_sign,,,,,null,US_Cities_List/newhope.png,US_Cities_List/boulder.png,,,,,,,,,,,,,,,,,,
null,,black_cross(without_color),996436,,,yellow,,,,,null,US_Cities_List/newhope.png,US_Cities_List/boulder.png,,,,,,,,,,,,,,,,,,
null,,rt_plussign_withcolor,996940,,,yellow,,,,,null,US_Cities_List/newhope.png,US_Cities_List/boulder.png,,,,,,,,,,,,,,,,,,
1112,,rt_thecrossant_black,998003,,,black_plus_sign,,,,,50,,,0.9833333333333333,1,,,,,,,,,,,,,,,,
null,,color_black,998118,,,black_plus_sign,,,,,null,,,,,,,,,,,,,,,,,,,,
null,,learn_phase(without_color),1001150,,,black_plus_sign,,,,,null,US_Cities_List/racine.png,US_Cities_List/peoria.png,,,,,,,,,,,,,,,,,,
null,,black_cross(without_color),1001683,,,blue,,,,,null,US_Cities_List/racine.png,US_Cities_List/peoria.png,,,,,,,,,,,,,,,,,,
null,,rt_plussign_withcolor,1002190,,,blue,,,,,null,US_Cities_List/racine.png,US_Cities_List/peoria.png,,,,,,,,,,,,,,,,,,
1233,,rt_thecrossant_black,1003719,,,black_plus_sign,,,,,49,,,0.9834710743801653,1,,,,,,,,,,,,,,,,
null,,color_black,1003828,,,black_plus_sign,,,,,null,,,,,,,,,,,,,,,,,,,,
null,,learn_phase(without_color),1006865,,,black_plus_sign,,,,,null,US_Cities_List/huntsville.png,US_Cities_List/cornwall.png,,,,,,,,,,,,,,,,,,
null,,black_cross(without_color),1007943,,,blue,,,,,null,US_Cities_List/huntsville.png,US_Cities_List/cornwall.png,,,,,,,,,,,,,,,,,,
null,,rt_plussign_withcolor,1008448,,,blue,,,,,null,US_Cities_List/huntsville.png,US_Cities_List/cornwall.png,,,,,,,,,,,,,,,,,,
1100,,rt_thecrossant_black,1009385,,,black_plus_sign,,,,,49,,,0.9836065573770492,1,,,,,,,,,,,,,,,,
null,,color_black,1009491,,,black_plus_sign,,,,,null,,,,,,,,,,,,,,,,,,,,
17148,,learn_break,1026644,,,learn_break,,,,,32,,,,,,,,,,,,,,,,,,,,
14489,,intro_1,1041135,,,instruct,,,0,,,,,,,,,,,,,,,,,,,,,,
24593,,intro_2,1065731,,,instruct,,,1,Next,,,,,,,,,,,,,,,,,,,,,
5032,,directmemory_phase,1070805,,,../static/images/US_Cities_List/huntsville.png,,,,,51,,,1,1,../static/images/US_Cities_List/shreveport.png,../static/images/US_Cities_List/newhope.png,../static/images/US_Cities_List/cornwall.png,../static/images/US_Cities_List/cornwall.png,../static/images/US_Cities_List/newhope.png,../static/images/US_Cities_List/shreveport.png,1,,,,,,,,,
null,,html-keyboard-response,1071818,,,<p></p>,,,,,null,,,,,,,,,,,,,,,,,,,,
3640,,directmemory_phase,1075496,,,../static/images/US_Cities_List/hotsprings.png,,,,,49,,,1,1,../static/images/US_Cities_List/shreveport.png,../static/images/US_Cities_List/carmel.png,../static/images/US_Cities_List/peoria.png,../static/images/US_Cities_List/shreveport.png,../static/images/US_Cities_List/peoria.png,../static/images/US_Cities_List/carmel.png,1,,,,,,,,,
null,,html-keyboard-response,1076508,,,<p></p>,,,,,null,,,,,,,,,,,,,,,,,,,,
3811,,directmemory_phase,1080356,,,../static/images/US_Cities_List/huntsville.png,,,,,50,,,1,1,../static/images/US_Cities_List/newhope.png,../static/images/US_Cities_List/hanover.png,../static/images/US_Cities_List/peoria.png,../static/images/US_Cities_List/hanover.png,../static/images/US_Cities_List/newhope.png,../static/images/US_Cities_List/peoria.png,1,,,,,,,,,
null,,html-keyboard-response,1081365,,,<p></p>,,,,,null,,,,,,,,,,,,,,,,,,,,
3219,,directmemory_phase,1084622,,,../static/images/US_Cities_List/shreveport.png,,,,,49,,,1,1,../static/images/US_Cities_List/newhope.png,../static/images/US_Cities_List/carmel.png,../static/images/US_Cities_List/boulder.png,../static/images/US_Cities_List/newhope.png,../static/images/US_Cities_List/boulder.png,../static/images/US_Cities_List/carmel.png,1,,,,,,,,,
null,,html-keyboard-response,1085638,,,<p></p>,,,,,null,,,,,,,,,,,,,,,,,,,,
4024,,directmemory_phase,1089696,,,../static/images/US_Cities_List/hanover.png,,,,,51,,,1,1,../static/images/US_Cities_List/peoria.png,../static/images/US_Cities_List/boulder.png,../static/images/US_Cities_List/huntsville.png,../static/images/US_Cities_List/huntsville.png,../static/images/US_Cities_List/boulder.png,../static/images/US_Cities_List/peoria.png,1,,,,,,,,,
null,,html-keyboard-response,1090702,,,<p></p>,,,,,null,,,,,,,,,,,,,,,,,,,,
2479,,directmemory_phase,1093227,,,../static/images/US_Cities_List/boulder.png,,,,,51,,,0.8333333333333334,0,../static/images/US_Cities_List/cornwall.png,../static/images/US_Cities_List/newhope.png,../static/images/US_Cities_List/westpalmbeach.png,../static/images/US_Cities_List/newhope.png,../static/images/US_Cities_List/cornwall.png,../static/images/US_Cities_List/westpalmbeach.png,0.5,closer,,,,,,,,
null,,html-keyboard-response,1094237,,,<p></p>,,,,,null,,,,,,,,,,,,,,,,,,,,
2131,,directmemory_phase,1096412,,,../static/images/US_Cities_List/cornwall.png,,,,,50,,,0.7142857142857143,0,../static/images/US_Cities_List/shreveport.png,../static/images/US_Cities_List/hotsprings.png,../static/images/US_Cities_List/gatlinburg.png,../static/images/US_Cities_List/gatlinburg.png,../static/images/US_Cities_List/hotsprings.png,../static/images/US_Cities_List/shreveport.png,0.5,closer,,,,,,,,
null,,html-keyboard-response,1097471,,,<p></p>,,,,,null,,,,,,,,,,,,,,,,,,,,
3165,,directmemory_phase,1100674,,,../static/images/US_Cities_List/peoria.png,,,,,49,,,0.75,1,../static/images/US_Cities_List/shreveport.png,../static/images/US_Cities_List/hanover.png,../static/images/US_Cities_List/westpalmbeach.png,../static/images/US_Cities_List/shreveport.png,../static/images/US_Cities_List/westpalmbeach.png,../static/images/US_Cities_List/hanover.png,1,,,,,,,,,
null,,html-keyboard-response,1101685,,,<p></p>,,,,,null,,,,,,,,,,,,,,,,,,,,
4237,,directmemory_phase,1105968,,,../static/images/US_Cities_List/cornwall.png,,,,,50,,,0.6666666666666666,0,../static/images/US_Cities_List/carmel.png,../static/images/US_Cities_List/shreveport.png,../static/images/US_Cities_List/hanover.png,../static/images/US_Cities_List/carmel.png,../static/images/US_Cities_List/hanover.png,../static/images/US_Cities_List/shreveport.png,0.5,closer,,,,,,,,
null,,html-keyboard-response,1106977,,,<p></p>,,,,,null,,,,,,,,,,,,,,,,,,,,
2589,,directmemory_phase,1109610,,,../static/images/US_Cities_List/racine.png,,,,,51,,,0.7,1,../static/images/US_Cities_List/huntsville.png,../static/images/US_Cities_List/newhope.png,../static/images/US_Cities_List/peoria.png,../static/images/US_Cities_List/peoria.png,../static/images/US_Cities_List/newhope.png,../static/images/US_Cities_List/huntsville.png,1,,,,,,,,,
null,,html-keyboard-response,1110638,,,<p></p>,,,,,null,,,,,,,,,,,,,,,,,,,,
2299,,directmemory_phase,1112974,,,../static/images/US_Cities_List/newhope.png,,,,,50,,,0.6363636363636364,0,../static/images/US_Cities_List/hanover.png,../static/images/US_Cities_List/leesburg.png,../static/images/US_Cities_List/boulder.png,../static/images/US_Cities_List/boulder.png,../static/images/US_Cities_List/leesburg.png,../static/images/US_Cities_List/hanover.png,0.5,closer,,,,,,,,
null,,html-keyboard-response,1113982,,,<p></p>,,,,,null,,,,,,,,,,,,,,,,,,,,
1745,,directmemory_phase,1115766,,,../static/images/US_Cities_List/racine.png,,,,,49,,,0.6666666666666666,1,../static/images/US_Cities_List/shreveport.png,../static/images/US_Cities_List/huntsville.png,../static/images/US_Cities_List/newhope.png,../static/images/US_Cities_List/shreveport.png,../static/images/US_Cities_List/newhope.png,../static/images/US_Cities_List/huntsville.png,1,,,,,,,,,
null,,html-keyboard-response,1116773,,,<p></p>,,,,,null,,,,,,,,,,,,,,,,,,,,
2461,,directmemory_phase,1119274,,,../static/images/US_Cities_List/leesburg.png,,,,,51,,,0.6923076923076923,1,../static/images/US_Cities_List/gatlinburg.png,../static/images/US_Cities_List/shreveport.png,../static/images/US_Cities_List/peoria.png,../static/images/US_Cities_List/peoria.png,../static/images/US_Cities_List/shreveport.png,../static/images/US_Cities_List/gatlinburg.png,1,,,,,,,,,
null,,html-keyboard-response,1120287,,,<p></p>,,,,,null,,,,,,,,,,,,,,,,,,,,
1735,,directmemory_phase,1122068,,,../static/images/US_Cities_List/racine.png,,,,,51,,,0.7142857142857143,1,../static/images/US_Cities_List/gatlinburg.png,../static/images/US_Cities_List/leesburg.png,../static/images/US_Cities_List/westpalmbeach.png,../static/images/US_Cities_List/westpalmbeach.png,../static/images/US_Cities_List/leesburg.png,../static/images/US_Cities_List/gatlinburg.png,1,,,,,,,,,
null,,html-keyboard-response,1123082,,,<p></p>,,,,,null,,,,,,,,,,,,,,,,,,,,
2030,,directmemory_phase,1125156,,,../static/images/US_Cities_List/peoria.png,,,,,49,,,0.7333333333333333,1,../static/images/US_Cities_List/newhope.png,../static/images/US_Cities_List/hanover.png,../static/images/US_Cities_List/boulder.png,../static/images/US_Cities_List/newhope.png,../static/images/US_Cities_List/boulder.png,../static/images/US_Cities_List/hanover.png,1,,,,,,,,,
null,,html-keyboard-response,1126165,,,<p></p>,,,,,null,,,,,,,,,,,,,,,,,,,,
3806,,directmemory_phase,1130010,,,../static/images/US_Cities_List/shreveport.png,,,,,50,,,0.6875,0,../static/images/US_Cities_List/carmel.png,../static/images/US_Cities_List/boulder.png,../static/images/US_Cities_List/racine.png,../static/images/US_Cities_List/racine.png,../static/images/US_Cities_List/boulder.png,../static/images/US_Cities_List/carmel.png,0.5,closer,,,,,,,,
null,,html-keyboard-response,1131019,,,<p></p>,,,,,null,,,,,,,,,,,,,,,,,,,,
2041,,directmemory_phase,1133100,,,../static/images/US_Cities_List/gatlinburg.png,,,,,49,,,0.7058823529411765,1,../static/images/US_Cities_List/hotsprings.png,../static/images/US_Cities_List/newhope.png,../static/images/US_Cities_List/shreveport.png,../static/images/US_Cities_List/hotsprings.png,../static/images/US_Cities_List/shreveport.png,../static/images/US_Cities_List/newhope.png,1,,,,,,,,,
null,,html-keyboard-response,1134108,,,<p></p>,,,,,null,,,,,,,,,,,,,,,,,,,,
4891,,directmemory_phase,1139051,,,../static/images/US_Cities_List/peoria.png,,,,,49,,,0.7222222222222222,1,../static/images/US_Cities_List/leesburg.png,../static/images/US_Cities_List/cornwall.png,../static/images/US_Cities_List/hotsprings.png,../static/images/US_Cities_List/leesburg.png,../static/images/US_Cities_List/hotsprings.png,../static/images/US_Cities_List/cornwall.png,1,,,,,,,,,
null,,html-keyboard-response,1140068,,,<p></p>,,,,,null,,,,,,,,,,,,,,,,,,,,
3382,,directmemory_phase,1143492,,,../static/images/US_Cities_List/boulder.png,,,,,51,,,0.6842105263157895,0,../static/images/US_Cities_List/hotsprings.png,../static/images/US_Cities_List/leesburg.png,../static/images/US_Cities_List/peoria.png,../static/images/US_Cities_List/hotsprings.png,../static/images/US_Cities_List/peoria.png,../static/images/US_Cities_List/leesburg.png,0.5,closer,,,,,,,,
null,,html-keyboard-response,1144506,,,<p></p>,,,,,null,,,,,,,,,,,,,,,,,,,,
3683,,directmemory_phase,1148240,,,../static/images/US_Cities_List/newhope.png,,,,,51,,,0.65,0,../static/images/US_Cities_List/hotsprings.png,../static/images/US_Cities_List/peoria.png,../static/images/US_Cities_List/cornwall.png,../static/images/US_Cities_List/peoria.png,../static/images/US_Cities_List/hotsprings.png,../static/images/US_Cities_List/cornwall.png,0.5,closer,,,,,,,,
null,,html-keyboard-response,1149246,,,<p></p>,,,,,null,,,,,,,,,,,,,,,,,,,,
2230,,directmemory_phase,1151517,,,../static/images/US_Cities_List/cornwall.png,,,,,51,,,0.6190476190476191,0,../static/images/US_Cities_List/boulder.png,../static/images/US_Cities_List/huntsville.png,../static/images/US_Cities_List/newhope.png,../static/images/US_Cities_List/huntsville.png,../static/images/US_Cities_List/boulder.png,../static/images/US_Cities_List/newhope.png,0.5,closer,,,,,,,,
null,,html-keyboard-response,1152523,,,<p></p>,,,,,null,,,,,,,,,,,,,,,,,,,,
4787,,directmemory_phase,1157350,,,../static/images/US_Cities_List/shreveport.png,,,,,49,,,0.6363636363636364,1,../static/images/US_Cities_List/hotsprings.png,../static/images/US_Cities_List/cornwall.png,../static/images/US_Cities_List/westpalmbeach.png,../static/images/US_Cities_List/hotsprings.png,../static/images/US_Cities_List/westpalmbeach.png,../static/images/US_Cities_List/cornwall.png,1,,,,,,,,,
null,,html-keyboard-response,1158356,,,<p></p>,,,,,null,,,,,,,,,,,,,,,,,,,,
1988,,directmemory_phase,1160375,,,../static/images/US_Cities_List/huntsville.png,,,,,50,,,0.6521739130434783,1,../static/images/US_Cities_List/hotsprings.png,../static/images/US_Cities_List/boulder.png,../static/images/US_Cities_List/shreveport.png,../static/images/US_Cities_List/boulder.png,../static/images/US_Cities_List/hotsprings.png,../static/images/US_Cities_List/shreveport.png,1,,,,,,,,,
null,,html-keyboard-response,1161388,,,<p></p>,,,,,null,,,,,,,,,,,,,,,,,,,,
4716,,directmemory_phase,1166151,,,../static/images/US_Cities_List/gatlinburg.png,,,,,50,,,0.625,0,../static/images/US_Cities_List/leesburg.png,../static/images/US_Cities_List/boulder.png,../static/images/US_Cities_List/cornwall.png,../static/images/US_Cities_List/cornwall.png,../static/images/US_Cities_List/boulder.png,../static/images/US_Cities_List/leesburg.png,0.5,closer,,,,,,,,
null,,html-keyboard-response,1167166,,,<p></p>,,,,,null,,,,,,,,,,,,,,,,,,,,
4432,,directmemory_phase,1171631,,,../static/images/US_Cities_List/boulder.png,,,,,50,,,0.6,0,../static/images/US_Cities_List/carmel.png,../static/images/US_Cities_List/hanover.png,../static/images/US_Cities_List/huntsville.png,../static/images/US_Cities_List/huntsville.png,../static/images/US_Cities_List/hanover.png,../static/images/US_Cities_List/carmel.png,0.5,closer,,,,,,,,
null,,html-keyboard-response,1172639,,,<p></p>,,,,,null,,,,,,,,,,,,,,,,,,,,
2493,,directmemory_phase,1175166,,,../static/images/US_Cities_List/carmel.png,,,,,51,,,0.5769230769230769,0,../static/images/US_Cities_List/cornwall.png,../static/images/US_Cities_List/boulder.png,../static/images/US_Cities_List/huntsville.png,../static/images/US_Cities_List/cornwall.png,../static/images/US_Cities_List/huntsville.png,../static/images/US_Cities_List/boulder.png,0.5,closer,,,,,,,,
null,,html-keyboard-response,1176177,,,<p></p>,,,,,null,,,,,,,,,,,,,,,,,,,,
2406,,directmemory_phase,1178621,,,../static/images/US_Cities_List/hotsprings.png,,,,,49,,,0.5925925925925926,1,../static/images/US_Cities_List/gatlinburg.png,../static/images/US_Cities_List/westpalmbeach.png,../static/images/US_Cities_List/cornwall.png,../static/images/US_Cities_List/gatlinburg.png,../static/images/US_Cities_List/cornwall.png,../static/images/US_Cities_List/westpalmbeach.png,1,,,,,,,,,
null,,html-keyboard-response,1179650,,,<p></p>,,,,,null,,,,,,,,,,,,,,,,,,,,
3845,,directmemory_phase,1183520,,,../static/images/US_Cities_List/shreveport.png,,,,,50,,,0.6071428571428571,1,../static/images/US_Cities_List/westpalmbeach.png,../static/images/US_Cities_List/peoria.png,../static/images/US_Cities_List/huntsville.png,../static/images/US_Cities_List/peoria.png,../static/images/US_Cities_List/westpalmbeach.png,../static/images/US_Cities_List/huntsville.png,1,,,,,,,,,
null,,html-keyboard-response,1184539,,,<p></p>,,,,,null,,,,,,,,,,,,,,,,,,,,
3527,,directmemory_phase,1188105,,,../static/images/US_Cities_List/hotsprings.png,,,,,51,,,0.6206896551724138,1,../static/images/US_Cities_List/carmel.png,../static/images/US_Cities_List/newhope.png,../static/images/US_Cities_List/boulder.png,../static/images/US_Cities_List/boulder.png,../static/images/US_Cities_List/newhope.png,../static/images/US_Cities_List/carmel.png,1,,,,,,,,,
null,,html-keyboard-response,1189120,,,<p></p>,,,,,null,,,,,,,,,,,,,,,,,,,,
2161,,directmemory_phase,1191314,,,../static/images/US_Cities_List/peoria.png,,,,,51,,,0.6333333333333333,1,../static/images/US_Cities_List/gatlinburg.png,../static/images/US_Cities_List/boulder.png,../static/images/US_Cities_List/racine.png,../static/images/US_Cities_List/racine.png,../static/images/US_Cities_List/boulder.png,../static/images/US_Cities_List/gatlinburg.png,1,,,,,,,,,
null,,html-keyboard-response,1192320,,,<p></p>,,,,,null,,,,,,,,,,,,,,,,,,,,
2326,,directmemory_phase,1194688,,,../static/images/US_Cities_List/newhope.png,,,,,49,,,0.6451612903225806,1,../static/images/US_Cities_List/shreveport.png,../static/images/US_Cities_List/hanover.png,../static/images/US_Cities_List/racine.png,../static/images/US_Cities_List/shreveport.png,../static/images/US_Cities_List/racine.png,../static/images/US_Cities_List/hanover.png,1,,,,,,,,,
null,,html-keyboard-response,1195707,,,<p></p>,,,,,null,,,,,,,,,,,,,,,,,,,,
2006,,directmemory_phase,1197753,,,../static/images/US_Cities_List/westpalmbeach.png,,,,,49,,,0.65625,1,../static/images/US_Cities_List/racine.png,../static/images/US_Cities_List/hotsprings.png,../static/images/US_Cities_List/shreveport.png,../static/images/US_Cities_List/racine.png,../static/images/US_Cities_List/shreveport.png,../static/images/US_Cities_List/hotsprings.png,1,,,,,,,,,
null,,html-keyboard-response,1198757,,,<p></p>,,,,,null,,,,,,,,,,,,,,,,,,,,
10724,,intro_1,1209482,,,instruct,,,0,,,,,,,,,,,,,,,,,,,,,,
11342,,intro_2,1220828,,,instruct,,,1,Next,,,,,,,,,,,,,,,,,,,,,
7941,,intro_3,1228773,,,instruct,,,1,Next,,,,,,,,,,,,,,,,,,,,,
6172,,intro_4,1234951,,,instruct,,,1,Next,,,,,,,,,,,,,,,,,,,,,
5264,,intro_5,1240220,,,instruct,,,1,Next,,,,,,,,,,,,,,,,,,,,,
5302,,intro_6,1245525,,,instruct,,,1,Next,,,,,,,,,,,,,,,,,,,,,
4526,,intro_7,1250056,,,instruct,,,1,Next,,,,,,,,,,,,,,,,,,,,,
26200,,intro_8,1276259,,,instruct,,,1,Next,,,,,,,,,,,,,,,,,,,,,
2532,,intro_9,1278797,,,instruct,,,1,Next,,,,,,,,,,,,,,,,,,,,,
7507,,intro_10,1286309,,,instruct,,,1,Next,,,,,,,,,,,,,,,,,,,,,
11640,,intro_11,1297953,,,instruct,,,1,Next,,,,,,,,,,,,,,,,,,,,,
4611,,shortestpath_phase,1302583,,,../static/images/US_Cities_List/gatlinburg.png,,,,,50,../static/images/US_Cities_List/westpalmbeach.png,../static/images/US_Cities_List/huntsville.png,1,1,,,,../static/images/US_Cities_List/huntsville.png,,,,,Two Edge Diff,Two Edge Four Edge,,,,,,
null,,html-keyboard-response,1303589,,,<p></p>,,,,,null,,,,,,,,,,,,,,,,,,,,
3271,,shortestpath_phase,1306886,,,../static/images/US_Cities_List/carmel.png,,,,,49,../static/images/US_Cities_List/westpalmbeach.png,../static/images/US_Cities_List/newhope.png,0.5,0,,,,../static/images/US_Cities_List/newhope.png,,,,,Two Edge Diff,Four Edge Six Edge,,,,,,
null,,html-keyboard-response,1307979,,,<p></p>,,,,,null,,,,,,,,,,,,,,,,,,,,
2933,,shortestpath_phase,1310936,,,../static/images/US_Cities_List/westpalmbeach.png,,,,,49,../static/images/US_Cities_List/peoria.png,../static/images/US_Cities_List/hanover.png,0.6666666666666666,1,,,,../static/images/US_Cities_List/peoria.png,,,,,Four Edge Diff,Two Edge Six Edge,,,,,,
null,,html-keyboard-response,1311951,,,<p></p>,,,,,null,,,,,,,,,,,,,,,,,,,,
3027,,shortestpath_phase,1315000,,,../static/images/US_Cities_List/leesburg.png,,,,,49,../static/images/US_Cities_List/shreveport.png,../static/images/US_Cities_List/hotsprings.png,0.75,1,,,,../static/images/US_Cities_List/shreveport.png,,,,,One Edge Diff,Two Edge Three Edge,,,,,,
null,,html-keyboard-response,1316010,,,<p></p>,,,,,null,,,,,,,,,,,,,,,,,,,,
3649,,shortestpath_phase,1319695,,,../static/images/US_Cities_List/carmel.png,,,,,49,../static/images/US_Cities_List/peoria.png,../static/images/US_Cities_List/gatlinburg.png,0.6,0,,,,../static/images/US_Cities_List/gatlinburg.png,,,,,Three Edge Diff,Two Edge Five Edge,,,,,,
null,,html-keyboard-response,1320779,,,<p></p>,,,,,null,,,,,,,,,,,,,,,,,,,,
2663,,shortestpath_phase,1323470,,,../static/images/US_Cities_List/leesburg.png,,,,,50,../static/images/US_Cities_List/huntsville.png,../static/images/US_Cities_List/cornwall.png,0.5,0,,,,../static/images/US_Cities_List/huntsville.png,,,,,One Edge Diff,Four Edge Five Edge,,,,,,
null,,html-keyboard-response,1324483,,,<p></p>,,,,,null,,,,,,,,,,,,,,,,,,,,
2148,,shortestpath_phase,1326652,,,../static/images/US_Cities_List/westpalmbeach.png,,,,,49,../static/images/US_Cities_List/boulder.png,../static/images/US_Cities_List/shreveport.png,0.42857142857142855,0,,,,../static/images/US_Cities_List/shreveport.png,,,,,Two Edge Diff,Two Edge Four Edge,,,,,,
null,,html-keyboard-response,1327665,,,<p></p>,,,,,null,,,,,,,,,,,,,,,,,,,,
1829,,shortestpath_phase,1329523,,,../static/images/US_Cities_List/boulder.png,,,,,49,../static/images/US_Cities_List/westpalmbeach.png,../static/images/US_Cities_List/peoria.png,0.375,0,,,,../static/images/US_Cities_List/peoria.png,,,,,Two Edge Diff,Two Edge Four Edge,,,,,,
null,,html-keyboard-response,1330537,,,<p></p>,,,,,null,,,,,,,,,,,,,,,,,,,,
1446,,shortestpath_phase,1332013,,,../static/images/US_Cities_List/carmel.png,,,,,49,../static/images/US_Cities_List/shreveport.png,../static/images/US_Cities_List/leesburg.png,0.4444444444444444,1,,,,../static/images/US_Cities_List/shreveport.png,,,,,Two Edge Diff,Four Edge Six Edge,,,,,,
null,,html-keyboard-response,1333029,,,<p></p>,,,,,null,,,,,,,,,,,,,,,,,,,,
2273,,shortestpath_phase,1335324,,,../static/images/US_Cities_List/hanover.png,,,,,50,../static/images/US_Cities_List/westpalmbeach.png,../static/images/US_Cities_List/boulder.png,0.5,1,,,,../static/images/US_Cities_List/boulder.png,,,,,Four Edge Diff,Two Edge Six Edge,,,,,,
null,,html-keyboard-response,1336337,,,<p></p>,,,,,null,,,,,,,,,,,,,,,,,,,,
4086,,shortestpath_phase,1340456,,,../static/images/US_Cities_List/westpalmbeach.png,,,,,50,../static/images/US_Cities_List/gatlinburg.png,../static/images/US_Cities_List/hanover.png,0.45454545454545453,0,,,,../static/images/US_Cities_List/gatlinburg.png,,,,,Two Edge Diff,Four Edge Six Edge,,,,,,
null,,html-keyboard-response,1341474,,,<p></p>,,,,,null,,,,,,,,,,,,,,,,,,,,
3223,,shortestpath_phase,1344732,,,../static/images/US_Cities_List/leesburg.png,,,,,50,../static/images/US_Cities_List/carmel.png,../static/images/US_Cities_List/newhope.png,0.5,1,,,,../static/images/US_Cities_List/newhope.png,,,,,Four Edge Diff,Two Edge Six Edge,,,,,,
null,,html-keyboard-response,1345739,,,<p></p>,,,,,null,,,,,,,,,,,,,,,,,,,,
2142,,shortestpath_phase,1347914,,,../static/images/US_Cities_List/westpalmbeach.png,,,,,50,../static/images/US_Cities_List/carmel.png,../static/images/US_Cities_List/peoria.png,0.5384615384615384,1,,,,../static/images/US_Cities_List/peoria.png,,,,,Four Edge Diff,Two Edge Six Edge,,,,,,
null,,html-keyboard-response,1348931,,,<p></p>,,,,,null,,,,,,,,,,,,,,,,,,,,
2299,,shortestpath_phase,1351256,,,../static/images/US_Cities_List/hanover.png,,,,,49,../static/images/US_Cities_List/shreveport.png,../static/images/US_Cities_List/westpalmbeach.png,0.5714285714285714,1,,,,../static/images/US_Cities_List/shreveport.png,,,,,Two Edge Diff,Four Edge Six Edge,,,,,,
null,,html-keyboard-response,1352268,,,<p></p>,,,,,null,,,,,,,,,,,,,,,,,,,,
3142,,shortestpath_phase,1355438,,,../static/images/US_Cities_List/westpalmbeach.png,,,,,50,../static/images/US_Cities_List/gatlinburg.png,../static/images/US_Cities_List/carmel.png,0.5333333333333333,0,,,,../static/images/US_Cities_List/gatlinburg.png,,,,,Two Edge Diff,Four Edge Six Edge,,,,,,
null,,html-keyboard-response,1356444,,,<p></p>,,,,,null,,,,,,,,,,,,,,,,,,,,
1599,,shortestpath_phase,1358078,,,../static/images/US_Cities_List/hanover.png,,,,,50,../static/images/US_Cities_List/peoria.png,../static/images/US_Cities_List/westpalmbeach.png,0.5,0,,,,../static/images/US_Cities_List/peoria.png,,,,,Two Edge Diff,Four Edge Six Edge,,,,,,
null,,html-keyboard-response,1359095,,,<p></p>,,,,,null,,,,,,,,,,,,,,,,,,,,
1973,,shortestpath_phase,1361114,,,../static/images/US_Cities_List/newhope.png,,,,,49,../static/images/US_Cities_List/leesburg.png,../static/images/US_Cities_List/cornwall.png,0.5294117647058824,1,,,,../static/images/US_Cities_List/leesburg.png,,,,,One Edge Diff,Two Edge Three Edge,,,,,,
null,,html-keyboard-response,1362149,,,<p></p>,,,,,null,,,,,,,,,,,,,,,,,,,,
2377,,shortestpath_phase,1364558,,,../static/images/US_Cities_List/hanover.png,,,,,49,../static/images/US_Cities_List/racine.png,../static/images/US_Cities_List/cornwall.png,0.5,0,,,,../static/images/US_Cities_List/cornwall.png,,,,,Three Edge Diff,Three Edge Six Edge,,,,,,
null,,html-keyboard-response,1365562,,,<p></p>,,,,,null,,,,,,,,,,,,,,,,,,,,
