rt,responses,trial_type,time_elapsed,image_type,sequence,stimulus,cities,city_images,button_pressed,response,key_press,stimulus_left,stimulus_right,accuracy,cumulative_accuracy,stimulus_down_left,stimulus_down_mid,stimulus_down_right,stimulus_correct,stimulus_short,stimulus_far,weighted_accuracy,missedtrial,condition,specific_pairs,imgL_ID,imgR_ID,linedress,linedressed,linedressed_detor,detour_trial
9476.5,{worker_id:5d2e3cdf6835130001aa16f0},id_enter,9479,fictional,interleaved,flights,Cedarwyn; Hawthorne Bluffs; Riverlyn; Juniper Creek; Sunmere; North Arroya; Claywater; Baymarsh; Granton Ridge; Hollendale; Orchard Bend; New Verdan; Delaro Park,US_Cities_List/huntsville.png; US_Cities_List/shreveport.png; US_Cities_List/westpalmbeach.png; US_Cities_List/gatlinburg.png; US_Cities_List/hotsprings.png; US_Cities_List/newhope.png; US_Cities_List/boulder.png; US_Cities_List/leesburg.png; US_Cities_List/hanover.png; US_Cities_List/carmel.png; US_Cities_List/peoria.png; US_Cities_List/racine.png; US_Cities_List/cornwall.png,,,,,,,,,,,,,,,,,,,,,,,
18482.5,,fullscreen,27967,,,make_fullscreen,,,0,,,,,,,,,,,,,,,,,,,,,,
14038,,intro_1,42007,,,instruct,,,0,,,,,,,,,,,,,,,,,,,,,,
17343.5,,intro_2,59352,,,instruct,,,1,Next,,,,,,,,,,,,,,,,,,,,,
53467.90000000037,,intro_3,112822,,,instruct,,,1,Next,,,,,,,,,,,,,,,,,,,,,
20173.700000000186,,intro_4,132997,,,instruct,,,1,Next,,,,,,,,,,,,,,,,,,,,,
18146.5,,intro_5,151145,,,instruct,,,1,Next,,,,,,,,,,,,,,,,,,,,,
22272.400000000373,,intro_6,173419,,,instruct,,,1,Next,,,,,,,,,,,,,,,,,,,,,
10535.799999999814,,intro_7,183956,,,instruct,,,1,Next,,,,,,,,,,,,,,,,,,,,,
null,,learn_prac_1,186958,,,lean_prac_1,,,,,null,,,,,,,,,,,,,,,,,,,,
null,,html-keyboard-response,187960,,,<p></p>,,,,,null,,,,,,,,,,,,,,,,,,,,
19588,,intro_1,207549,,,instruct,,,0,,,,,,,,,,,,,,,,,,,,,,
15340.199999999255,,intro_2,222891,,,instruct,,,1,Next,,,,,,,,,,,,,,,,,,,,,
null,,learn_prac_2,225893,,,lean_prac_2,,,,,null,,,,,,,,,,,,,,,,,,,,
null,,html-keyboard-response,226895,,,<p></p>,,,,,null,,,,,,,,,,,,,,,,,,,,
13418.200000000186,,intro_1,240315,,,instruct,,,0,,,,,,,,,,,,,,,,,,,,,,
8366.699999999255,,intro_2,248682,,,instruct,,,1,Next,,,,,,,,,,,,,,,,,,,,,
27900.099999999627,,intro_3,276584,,,instruct,,,1,Next,,,,,,,,,,,,,,,,,,,,,
null,,prac_atten_color_black,277024,,,black_plus_sign,,,,,null,,,,,,,,,,,,,,,,,,,,
null,,prac_atten_color,277988,,,prac_stop_color,,,,,null,,,,,,,,,,,,,,,,,,,,
142.79999999981374,,prac_atten_color_black,279990,,,black_plus_sign,,,,,49,,,,,,,,,,,,,,,,,,,,
null,,prac_atten_color_black,280431,,,black_plus_sign,,,,,null,,,,,,,,,,,,,,,,,,,,
606,,prac_atten_color,281103,,,prac_stop_color,,,,,50,,,,,,,,,,,,,,,,,,,,
null,,prac_atten_color_black,283105,,,black_plus_sign,,,,,null,,,,,,,,,,,,,,,,,,,,
null,,prac_atten_color_black,283838,,,black_plus_sign,,,,,null,,,,,,,,,,,,,,,,,,,,
770.3999999994412,,prac_atten_color,284643,,,prac_stop_color,,,,,50,,,,,,,,,,,,,,,,,,,,
null,,prac_atten_color_black,286645,,,black_plus_sign,,,,,null,,,,,,,,,,,,,,,,,,,,
null,,prac_atten_color_black,287243,,,black_plus_sign,,,,,null,,,,,,,,,,,,,,,,,,,,
null,,prac_atten_color,287879,,,prac_stop_color,,,,,null,,,,,,,,,,,,,,,,,,,,
72.1000000005588,,prac_atten_color_black,289880,,,black_plus_sign,,,,,49,,,,,,,,,,,,,,,,,,,,
null,,prac_atten_color_black,290661,,,black_plus_sign,,,,,null,,,,,,,,,,,,,,,,,,,,
363.29999999981374,,prac_atten_color,291413,,,prac_stop_color,,,,,50,,,,,,,,,,,,,,,,,,,,
null,,prac_atten_color_black,293415,,,black_plus_sign,,,,,null,,,,,,,,,,,,,,,,,,,,
null,,prac_atten_color_black,294067,,,black_plus_sign,,,,,null,,,,,,,,,,,,,,,,,,,,
422.09999999962747,,prac_atten_color,294727,,,prac_stop_color,,,,,50,,,,,,,,,,,,,,,,,,,,
null,,prac_atten_color_black,296729,,,black_plus_sign,,,,,null,,,,,,,,,,,,,,,,,,,,
null,,prac_atten_color_black,297474,,,black_plus_sign,,,,,null,,,,,,,,,,,,,,,,,,,,
null,,prac_atten_color,298045,,,prac_stop_color,,,,,null,,,,,,,,,,,,,,,,,,,,
228.70000000018626,,prac_atten_color_black,300047,,,black_plus_sign,,,,,49,,,,,,,,,,,,,,,,,,,,
null,,prac_atten_color_black,300879,,,black_plus_sign,,,,,null,,,,,,,,,,,,,,,,,,,,
410.59999999962747,,prac_atten_color,301837,,,prac_stop_color,,,,,50,,,,,,,,,,,,,,,,,,,,
null,,prac_atten_color_black,303839,,,black_plus_sign,,,,,null,,,,,,,,,,,,,,,,,,,,
null,,prac_atten_color_black,304286,,,black_plus_sign,,,,,null,,,,,,,,,,,,,,,,,,,,
null,,prac_atten_color,304854,,,prac_stop_color,,,,,null,,,,,,,,,,,,,,,,,,,,
239.5,,prac_atten_color_black,306856,,,black_plus_sign,,,,,49,,,,,,,,,,,,,,,,,,,,
null,,prac_atten_color_black,307693,,,black_plus_sign,,,,,null,,,,,,,,,,,,,,,,,,,,
758.3000000007451,,prac_atten_color,308645,,,prac_stop_color,,,,,49,,,,,,,,,,,,,,,,,,,,
null,,prac_atten_color_black,310647,,,black_plus_sign,,,,,null,,,,,,,,,,,,,,,,,,,,
14287.799999999814,,attentioncheck_feedback,324937,,,cross_check_feedback,,,0,,,,,,,,,,,,,,,,,,,,,,
19245.10000000056,,last_instruct,344183,,,instruct,,,,,32,,,,,,,,,,,,,,,,,,,,
null,,learn_phase(without_color),347198,,,black_plus_sign,,,,,null,US_Cities_List/peoria.png,US_Cities_List/hanover.png,,,,,,,,,,,,,,,,,,
null,,black_cross(without_color),348163,,,yellow,,,,,null,US_Cities_List/peoria.png,US_Cities_List/hanover.png,,,,,,,,,,,,,,,,,,
null,,rt_plussign_withcolor,348665,,,yellow,,,,,null,US_Cities_List/peoria.png,US_Cities_List/hanover.png,,,,,,,,,,,,,,,,,,
905.5999999996275,,rt_thecrossant_black,349705,,,black_plus_sign,,,,,49,,,0,0,,,,,,,,,,,,,,,,
null,,color_black,349808,,,black_plus_sign,,,,,null,,,,,,,,,,,,,,,,,,,,
null,,learn_phase(without_color),352821,,,black_plus_sign,,,,,null,US_Cities_List/hanover.png,US_Cities_List/peoria.png,,,,,,,,,,,,,,,,,,
null,,black_cross(without_color),353698,,,yellow,,,,,null,US_Cities_List/hanover.png,US_Cities_List/peoria.png,,,,,,,,,,,,,,,,,,
null,,rt_plussign_withcolor,354200,,,yellow,,,,,null,US_Cities_List/hanover.png,US_Cities_List/peoria.png,,,,,,,,,,,,,,,,,,
1360.5999999996275,,rt_thecrossant_black,355333,,,black_plus_sign,,,,,50,,,1,0.5,,,,,,,,,,,,,,,,
null,,color_black,355436,,,black_plus_sign,,,,,null,,,,,,,,,,,,,,,,,,,,
null,,learn_phase(without_color),358453,,,black_plus_sign,,,,,null,US_Cities_List/westpalmbeach.png,US_Cities_List/peoria.png,,,,,,,,,,,,,,,,,,
null,,black_cross(without_color),358871,,,blue,,,,,null,US_Cities_List/westpalmbeach.png,US_Cities_List/peoria.png,,,,,,,,,,,,,,,,,,
null,,rt_plussign_withcolor,359373,,,blue,,,,,null,US_Cities_List/westpalmbeach.png,US_Cities_List/peoria.png,,,,,,,,,,,,,,,,,,
1432.2000000001863,,rt_thecrossant_black,360960,,,black_plus_sign,,,,,49,,,1,0.6666666666666666,,,,,,,,,,,,,,,,
null,,color_black,361062,,,black_plus_sign,,,,,null,,,,,,,,,,,,,,,,,,,,
null,,learn_phase(without_color),364077,,,black_plus_sign,,,,,null,US_Cities_List/carmel.png,US_Cities_List/leesburg.png,,,,,,,,,,,,,,,,,,
null,,black_cross(without_color),364580,,,yellow,,,,,null,US_Cities_List/carmel.png,US_Cities_List/leesburg.png,,,,,,,,,,,,,,,,,,
null,,rt_plussign_withcolor,365082,,,yellow,,,,,null,US_Cities_List/carmel.png,US_Cities_List/leesburg.png,,,,,,,,,,,,,,,,,,
751.3999999994412,,rt_thecrossant_black,366583,,,black_plus_sign,,,,,50,,,1,0.75,,,,,,,,,,,,,,,,
null,,color_black,366685,,,black_plus_sign,,,,,null,,,,,,,,,,,,,,,,,,,,
null,,learn_phase(without_color),369702,,,black_plus_sign,,,,,null,US_Cities_List/hanover.png,US_Cities_List/newhope.png,,,,,,,,,,,,,,,,,,
null,,black_cross(without_color),370271,,,yellow,,,,,null,US_Cities_List/hanover.png,US_Cities_List/newhope.png,,,,,,,,,,,,,,,,,,
null,,rt_plussign_withcolor,370772,,,yellow,,,,,null,US_Cities_List/hanover.png,US_Cities_List/newhope.png,,,,,,,,,,,,,,,,,,
1185.9000000003725,,rt_thecrossant_black,372207,,,black_plus_sign,,,,,50,,,1,0.8,,,,,,,,,,,,,,,,
null,,color_black,372309,,,black_plus_sign,,,,,null,,,,,,,,,,,,,,,,,,,,
null,,learn_phase(without_color),375325,,,black_plus_sign,,,,,null,US_Cities_List/leesburg.png,US_Cities_List/boulder.png,,,,,,,,,,,,,,,,,,
null,,black_cross(without_color),375850,,,yellow,,,,,null,US_Cities_List/leesburg.png,US_Cities_List/boulder.png,,,,,,,,,,,,,,,,,,
null,,rt_plussign_withcolor,376352,,,yellow,,,,,null,US_Cities_List/leesburg.png,US_Cities_List/boulder.png,,,,,,,,,,,,,,,,,,
1017.2999999998137,,rt_thecrossant_black,377831,,,black_plus_sign,,,,,50,,,1,0.8333333333333334,,,,,,,,,,,,,,,,
null,,color_black,377934,,,black_plus_sign,,,,,null,,,,,,,,,,,,,,,,,,,,
null,,learn_phase(without_color),380955,,,black_plus_sign,,,,,null,US_Cities_List/newhope.png,US_Cities_List/hanover.png,,,,,,,,,,,,,,,,,,
null,,black_cross(without_color),381736,,,yellow,,,,,null,US_Cities_List/newhope.png,US_Cities_List/hanover.png,,,,,,,,,,,,,,,,,,
null,,rt_plussign_withcolor,382238,,,yellow,,,,,null,US_Cities_List/newhope.png,US_Cities_List/hanover.png,,,,,,,,,,,,,,,,,,
838.7000000001863,,rt_thecrossant_black,383461,,,black_plus_sign,,,,,50,,,1,0.8571428571428571,,,,,,,,,,,,,,,,
null,,color_black,383562,,,black_plus_sign,,,,,null,,,,,,,,,,,,,,,,,,,,
null,,learn_phase(without_color),386577,,,black_plus_sign,,,,,null,US_Cities_List/westpalmbeach.png,US_Cities_List/shreveport.png,,,,,,,,,,,,,,,,,,
null,,black_cross(without_color),387103,,,blue,,,,,null,US_Cities_List/westpalmbeach.png,US_Cities_List/shreveport.png,,,,,,,,,,,,,,,,,,
null,,rt_plussign_withcolor,387605,,,blue,,,,,null,US_Cities_List/westpalmbeach.png,US_Cities_List/shreveport.png,,,,,,,,,,,,,,,,,,
1319,,rt_thecrossant_black,389084,,,black_plus_sign,,,,,49,,,1,0.875,,,,,,,,,,,,,,,,
null,,color_black,389186,,,black_plus_sign,,,,,null,,,,,,,,,,,,,,,,,,,,
null,,learn_phase(without_color),392202,,,black_plus_sign,,,,,null,US_Cities_List/peoria.png,US_Cities_List/racine.png,,,,,,,,,,,,,,,,,,
null,,black_cross(without_color),393100,,,yellow,,,,,null,US_Cities_List/peoria.png,US_Cities_List/racine.png,,,,,,,,,,,,,,,,,,
null,,rt_plussign_withcolor,393602,,,yellow,,,,,null,US_Cities_List/peoria.png,US_Cities_List/racine.png,,,,,,,,,,,,,,,,,,
697.7999999998137,,rt_thecrossant_black,394710,,,black_plus_sign,,,,,50,,,1,0.8888888888888888,,,,,,,,,,,,,,,,
null,,color_black,394812,,,black_plus_sign,,,,,null,,,,,,,,,,,,,,,,,,,,
null,,learn_phase(without_color),397826,,,black_plus_sign,,,,,null,US_Cities_List/boulder.png,US_Cities_List/hanover.png,,,,,,,,,,,,,,,,,,
null,,black_cross(without_color),398334,,,yellow,,,,,null,US_Cities_List/boulder.png,US_Cities_List/hanover.png,,,,,,,,,,,,,,,,,,
null,,rt_plussign_withcolor,398837,,,yellow,,,,,null,US_Cities_List/boulder.png,US_Cities_List/hanover.png,,,,,,,,,,,,,,,,,,
1328.6000000005588,,rt_thecrossant_black,400332,,,black_plus_sign,,,,,50,,,1,0.9,,,,,,,,,,,,,,,,
null,,color_black,400434,,,black_plus_sign,,,,,null,,,,,,,,,,,,,,,,,,,,
null,,learn_phase(without_color),403453,,,black_plus_sign,,,,,null,US_Cities_List/racine.png,US_Cities_List/peoria.png,,,,,,,,,,,,,,,,,,
null,,black_cross(without_color),404554,,,yellow,,,,,null,US_Cities_List/racine.png,US_Cities_List/peoria.png,,,,,,,,,,,,,,,,,,
null,,rt_plussign_withcolor,405055,,,yellow,,,,,null,US_Cities_List/racine.png,US_Cities_List/peoria.png,,,,,,,,,,,,,,,,,,
831.8999999994412,,rt_thecrossant_black,405958,,,black_plus_sign,,,,,50,,,1,0.9090909090909091,,,,,,,,,,,,,,,,
null,,color_black,406061,,,black_plus_sign,,,,,null,,,,,,,,,,,,,,,,,,,,
null,,learn_phase(without_color),409078,,,black_plus_sign,,,,,null,US_Cities_List/newhope.png,US_Cities_List/westpalmbeach.png,,,,,,,,,,,,,,,,,,
null,,black_cross(without_color),410051,,,yellow,,,,,null,US_Cities_List/newhope.png,US_Cities_List/westpalmbeach.png,,,,,,,,,,,,,,,,,,
495.70000000018626,,rt_plussign_withcolor,410552,,,yellow,,,,,50,US_Cities_List/newhope.png,US_Cities_List/westpalmbeach.png,,,,,,,,,,,,,,,,,,
null,,rt_thecrossant_black,411586,,,black_plus_sign,,,,,null,,,1,0.9166666666666666,,,,,,,,,,,,,,,,
null,,color_black,411688,,,black_plus_sign,,,,,null,,,,,,,,,,,,,,,,,,,,
null,,learn_phase(without_color),414704,,,black_plus_sign,,,,,null,US_Cities_List/leesburg.png,US_Cities_List/hanover.png,,,,,,,,,,,,,,,,,,
null,,black_cross(without_color),415616,,,yellow,,,,,null,US_Cities_List/leesburg.png,US_Cities_List/hanover.png,,,,,,,,,,,,,,,,,,
null,,rt_plussign_withcolor,416117,,,yellow,,,,,null,US_Cities_List/leesburg.png,US_Cities_List/hanover.png,,,,,,,,,,,,,,,,,,
1306.2999999998137,,rt_thecrossant_black,417210,,,black_plus_sign,,,,,50,,,1,0.9230769230769231,,,,,,,,,,,,,,,,
null,,color_black,417312,,,black_plus_sign,,,,,null,,,,,,,,,,,,,,,,,,,,
null,,learn_phase(without_color),420333,,,black_plus_sign,,,,,null,US_Cities_List/boulder.png,US_Cities_List/cornwall.png,,,,,,,,,,,,,,,,,,
null,,black_cross(without_color),421058,,,blue,,,,,null,US_Cities_List/boulder.png,US_Cities_List/cornwall.png,,,,,,,,,,,,,,,,,,
null,,rt_plussign_withcolor,421560,,,blue,,,,,null,US_Cities_List/boulder.png,US_Cities_List/cornwall.png,,,,,,,,,,,,,,,,,,
1291.2000000001863,,rt_thecrossant_black,422839,,,black_plus_sign,,,,,49,,,1,0.9285714285714286,,,,,,,,,,,,,,,,
null,,color_black,422941,,,black_plus_sign,,,,,null,,,,,,,,,,,,,,,,,,,,
null,,learn_phase(without_color),425965,,,black_plus_sign,,,,,null,US_Cities_List/westpalmbeach.png,US_Cities_List/newhope.png,,,,,,,,,,,,,,,,,,
null,,black_cross(without_color),426871,,,yellow,,,,,null,US_Cities_List/westpalmbeach.png,US_Cities_List/newhope.png,,,,,,,,,,,,,,,,,,
null,,rt_plussign_withcolor,427373,,,yellow,,,,,null,US_Cities_List/westpalmbeach.png,US_Cities_List/newhope.png,,,,,,,,,,,,,,,,,,
1008.1999999992549,,rt_thecrossant_black,428471,,,black_plus_sign,,,,,50,,,1,0.9333333333333333,,,,,,,,,,,,,,,,
null,,color_black,428573,,,black_plus_sign,,,,,null,,,,,,,,,,,,,,,,,,,,
null,,learn_phase(without_color),431591,,,black_plus_sign,,,,,null,US_Cities_List/carmel.png,US_Cities_List/leesburg.png,,,,,,,,,,,,,,,,,,
null,,black_cross(without_color),432586,,,yellow,,,,,null,US_Cities_List/carmel.png,US_Cities_List/leesburg.png,,,,,,,,,,,,,,,,,,
null,,rt_plussign_withcolor,433088,,,yellow,,,,,null,US_Cities_List/carmel.png,US_Cities_List/leesburg.png,,,,,,,,,,,,,,,,,,
1160.3999999994412,,rt_thecrossant_black,434096,,,black_plus_sign,,,,,50,,,1,0.9375,,,,,,,,,,,,,,,,
null,,color_black,434199,,,black_plus_sign,,,,,null,,,,,,,,,,,,,,,,,,,,
null,,learn_phase(without_color),437220,,,black_plus_sign,,,,,null,US_Cities_List/leesburg.png,US_Cities_List/carmel.png,,,,,,,,,,,,,,,,,,
null,,black_cross(without_color),437651,,,yellow,,,,,null,US_Cities_List/leesburg.png,US_Cities_List/carmel.png,,,,,,,,,,,,,,,,,,
null,,rt_plussign_withcolor,438153,,,yellow,,,,,null,US_Cities_List/leesburg.png,US_Cities_List/carmel.png,,,,,,,,,,,,,,,,,,
1195.5,,rt_thecrossant_black,439737,,,black_plus_sign,,,,,50,,,1,0.9411764705882353,,,,,,,,,,,,,,,,
null,,color_black,439839,,,black_plus_sign,,,,,null,,,,,,,,,,,,,,,,,,,,
null,,learn_phase(without_color),442857,,,black_plus_sign,,,,,null,US_Cities_List/boulder.png,US_Cities_List/leesburg.png,,,,,,,,,,,,,,,,,,
null,,black_cross(without_color),443895,,,blue,,,,,null,US_Cities_List/boulder.png,US_Cities_List/leesburg.png,,,,,,,,,,,,,,,,,,
null,,rt_plussign_withcolor,444397,,,blue,,,,,null,US_Cities_List/boulder.png,US_Cities_List/leesburg.png,,,,,,,,,,,,,,,,,,
983.6000000005588,,rt_thecrossant_black,445362,,,black_plus_sign,,,,,49,,,1,0.9444444444444444,,,,,,,,,,,,,,,,
null,,color_black,445464,,,black_plus_sign,,,,,null,,,,,,,,,,,,,,,,,,,,
null,,learn_phase(without_color),448479,,,black_plus_sign,,,,,null,US_Cities_List/westpalmbeach.png,US_Cities_List/peoria.png,,,,,,,,,,,,,,,,,,
null,,black_cross(without_color),449231,,,yellow,,,,,null,US_Cities_List/westpalmbeach.png,US_Cities_List/peoria.png,,,,,,,,,,,,,,,,,,
null,,rt_plussign_withcolor,449734,,,yellow,,,,,null,US_Cities_List/westpalmbeach.png,US_Cities_List/peoria.png,,,,,,,,,,,,,,,,,,
1551.7999999998137,,rt_thecrossant_black,450986,,,black_plus_sign,,,,,50,,,1,0.9473684210526315,,,,,,,,,,,,,,,,
null,,color_black,451088,,,black_plus_sign,,,,,null,,,,,,,,,,,,,,,,,,,,
null,,learn_phase(without_color),454100,,,black_plus_sign,,,,,null,US_Cities_List/shreveport.png,US_Cities_List/huntsville.png,,,,,,,,,,,,,,,,,,
null,,black_cross(without_color),454507,,,blue,,,,,null,US_Cities_List/shreveport.png,US_Cities_List/huntsville.png,,,,,,,,,,,,,,,,,,
null,,rt_plussign_withcolor,455009,,,blue,,,,,null,US_Cities_List/shreveport.png,US_Cities_List/huntsville.png,,,,,,,,,,,,,,,,,,
1000.2999999998137,,rt_thecrossant_black,456606,,,black_plus_sign,,,,,50,,,0,0.9,,,,,,,,,,,,,,,,
null,,color_black,456708,,,black_plus_sign,,,,,null,,,,,,,,,,,,,,,,,,,,
null,,learn_phase(without_color),459730,,,black_plus_sign,,,,,null,US_Cities_List/westpalmbeach.png,US_Cities_List/peoria.png,,,,,,,,,,,,,,,,,,
null,,black_cross(without_color),460474,,,blue,,,,,null,US_Cities_List/westpalmbeach.png,US_Cities_List/peoria.png,,,,,,,,,,,,,,,,,,
null,,rt_plussign_withcolor,460976,,,blue,,,,,null,US_Cities_List/westpalmbeach.png,US_Cities_List/peoria.png,,,,,,,,,,,,,,,,,,
949.8999999994412,,rt_thecrossant_black,462237,,,black_plus_sign,,,,,50,,,0,0.8571428571428571,,,,,,,,,,,,,,,,
null,,warning_page,465239,,,warning,,,,,null,,,,,,,,,,,,,,,,,,,,
null,,color_black,465354,,,black_plus_sign,,,,,null,,,,,,,,,,,,,,,,,,,,
null,,learn_phase(without_color),468369,,,black_plus_sign,,,,,null,US_Cities_List/hanover.png,US_Cities_List/boulder.png,,,,,,,,,,,,,,,,,,
null,,black_cross(without_color),469429,,,blue,,,,,null,US_Cities_List/hanover.png,US_Cities_List/boulder.png,,,,,,,,,,,,,,,,,,
null,,rt_plussign_withcolor,469931,,,blue,,,,,null,US_Cities_List/hanover.png,US_Cities_List/boulder.png,,,,,,,,,,,,,,,,,,
1479.7000000001863,,rt_thecrossant_black,470874,,,black_plus_sign,,,,,49,,,1,0.8636363636363636,,,,,,,,,,,,,,,,
null,,color_black,470977,,,black_plus_sign,,,,,null,,,,,,,,,,,,,,,,,,,,
null,,learn_phase(without_color),473995,,,black_plus_sign,,,,,null,US_Cities_List/leesburg.png,US_Cities_List/hanover.png,,,,,,,,,,,,,,,,,,
null,,black_cross(without_color),474814,,,blue,,,,,null,US_Cities_List/leesburg.png,US_Cities_List/hanover.png,,,,,,,,,,,,,,,,,,
420,,rt_plussign_withcolor,475316,,,blue,,,,,50,US_Cities_List/leesburg.png,US_Cities_List/hanover.png,,,,,,,,,,,,,,,,,,
null,,rt_thecrossant_black,476502,,,black_plus_sign,,,,,49,,,0,0.8260869565217391,,,,,,,,,,,,,,,,
null,,color_black,476604,,,black_plus_sign,,,,,null,,,,,,,,,,,,,,,,,,,,
null,,learn_phase(without_color),479622,,,black_plus_sign,,,,,null,US_Cities_List/gatlinburg.png,US_Cities_List/racine.png,,,,,,,,,,,,,,,,,,
null,,black_cross(without_color),480567,,,yellow,,,,,null,US_Cities_List/gatlinburg.png,US_Cities_List/racine.png,,,,,,,,,,,,,,,,,,
null,,rt_plussign_withcolor,481069,,,yellow,,,,,null,US_Cities_List/gatlinburg.png,US_Cities_List/racine.png,,,,,,,,,,,,,,,,,,
1090.2999999998137,,rt_thecrossant_black,482129,,,black_plus_sign,,,,,50,,,1,0.8333333333333334,,,,,,,,,,,,,,,,
null,,color_black,482231,,,black_plus_sign,,,,,null,,,,,,,,,,,,,,,,,,,,
null,,learn_phase(without_color),485248,,,black_plus_sign,,,,,null,US_Cities_List/newhope.png,US_Cities_List/boulder.png,,,,,,,,,,,,,,,,,,
null,,black_cross(without_color),486163,,,yellow,,,,,null,US_Cities_List/newhope.png,US_Cities_List/boulder.png,,,,,,,,,,,,,,,,,,
null,,rt_plussign_withcolor,486665,,,yellow,,,,,null,US_Cities_List/newhope.png,US_Cities_List/boulder.png,,,,,,,,,,,,,,,,,,
1076.8999999994412,,rt_thecrossant_black,487754,,,black_plus_sign,,,,,50,,,1,0.84,,,,,,,,,,,,,,,,
null,,color_black,487856,,,black_plus_sign,,,,,null,,,,,,,,,,,,,,,,,,,,
null,,learn_phase(without_color),490874,,,black_plus_sign,,,,,null,US_Cities_List/leesburg.png,US_Cities_List/carmel.png,,,,,,,,,,,,,,,,,,
null,,black_cross(without_color),491803,,,blue,,,,,null,US_Cities_List/leesburg.png,US_Cities_List/carmel.png,,,,,,,,,,,,,,,,,,
null,,rt_plussign_withcolor,492304,,,blue,,,,,null,US_Cities_List/leesburg.png,US_Cities_List/carmel.png,,,,,,,,,,,,,,,,,,
1254,,rt_thecrossant_black,493381,,,black_plus_sign,,,,,49,,,1,0.8461538461538461,,,,,,,,,,,,,,,,
null,,color_black,493483,,,black_plus_sign,,,,,null,,,,,,,,,,,,,,,,,,,,
null,,learn_phase(without_color),496498,,,black_plus_sign,,,,,null,US_Cities_List/newhope.png,US_Cities_List/hanover.png,,,,,,,,,,,,,,,,,,
null,,black_cross(without_color),497238,,,blue,,,,,null,US_Cities_List/newhope.png,US_Cities_List/hanover.png,,,,,,,,,,,,,,,,,,
null,,rt_plussign_withcolor,497740,,,blue,,,,,null,US_Cities_List/newhope.png,US_Cities_List/hanover.png,,,,,,,,,,,,,,,,,,
1267.300000000745,,rt_thecrossant_black,499003,,,black_plus_sign,,,,,49,,,1,0.8518518518518519,,,,,,,,,,,,,,,,
null,,color_black,499106,,,black_plus_sign,,,,,null,,,,,,,,,,,,,,,,,,,,
null,,learn_phase(without_color),502125,,,black_plus_sign,,,,,null,US_Cities_List/hanover.png,US_Cities_List/newhope.png,,,,,,,,,,,,,,,,,,
null,,black_cross(without_color),502705,,,yellow,,,,,null,US_Cities_List/hanover.png,US_Cities_List/newhope.png,,,,,,,,,,,,,,,,,,
null,,rt_plussign_withcolor,503206,,,yellow,,,,,null,US_Cities_List/hanover.png,US_Cities_List/newhope.png,,,,,,,,,,,,,,,,,,
1029.9000000003725,,rt_thecrossant_black,504631,,,black_plus_sign,,,,,50,,,1,0.8571428571428571,,,,,,,,,,,,,,,,
null,,color_black,504733,,,black_plus_sign,,,,,null,,,,,,,,,,,,,,,,,,,,
null,,learn_phase(without_color),507750,,,black_plus_sign,,,,,null,US_Cities_List/westpalmbeach.png,US_Cities_List/newhope.png,,,,,,,,,,,,,,,,,,
null,,black_cross(without_color),508173,,,blue,,,,,null,US_Cities_List/westpalmbeach.png,US_Cities_List/newhope.png,,,,,,,,,,,,,,,,,,
null,,rt_plussign_withcolor,508675,,,blue,,,,,null,US_Cities_List/westpalmbeach.png,US_Cities_List/newhope.png,,,,,,,,,,,,,,,,,,
687.5,,rt_thecrossant_black,510255,,,black_plus_sign,,,,,50,,,0,0.8275862068965517,,,,,,,,,,,,,,,,
null,,color_black,510357,,,black_plus_sign,,,,,null,,,,,,,,,,,,,,,,,,,,
null,,learn_phase(without_color),513373,,,black_plus_sign,,,,,null,US_Cities_List/leesburg.png,US_Cities_List/boulder.png,,,,,,,,,,,,,,,,,,
null,,black_cross(without_color),514287,,,blue,,,,,null,US_Cities_List/leesburg.png,US_Cities_List/boulder.png,,,,,,,,,,,,,,,,,,
null,,rt_plussign_withcolor,514789,,,blue,,,,,null,US_Cities_List/leesburg.png,US_Cities_List/boulder.png,,,,,,,,,,,,,,,,,,
926.3000000007451,,rt_thecrossant_black,515878,,,black_plus_sign,,,,,49,,,1,0.8333333333333334,,,,,,,,,,,,,,,,
null,,color_black,515981,,,black_plus_sign,,,,,null,,,,,,,,,,,,,,,,,,,,
null,,learn_phase(without_color),519012,,,black_plus_sign,,,,,null,US_Cities_List/leesburg.png,US_Cities_List/boulder.png,,,,,,,,,,,,,,,,,,
null,,black_cross(without_color),519785,,,yellow,,,,,null,US_Cities_List/leesburg.png,US_Cities_List/boulder.png,,,,,,,,,,,,,,,,,,
null,,rt_plussign_withcolor,520288,,,yellow,,,,,null,US_Cities_List/leesburg.png,US_Cities_List/boulder.png,,,,,,,,,,,,,,,,,,
1154.7999999998137,,rt_thecrossant_black,521517,,,black_plus_sign,,,,,50,,,1,0.8387096774193549,,,,,,,,,,,,,,,,
null,,color_black,521619,,,black_plus_sign,,,,,null,,,,,,,,,,,,,,,,,,,,
null,,learn_phase(without_color),524636,,,black_plus_sign,,,,,null,US_Cities_List/gatlinburg.png,US_Cities_List/racine.png,,,,,,,,,,,,,,,,,,
null,,black_cross(without_color),525090,,,yellow,,,,,null,US_Cities_List/gatlinburg.png,US_Cities_List/racine.png,,,,,,,,,,,,,,,,,,
null,,rt_plussign_withcolor,525605,,,yellow,,,,,null,US_Cities_List/gatlinburg.png,US_Cities_List/racine.png,,,,,,,,,,,,,,,,,,
1076.300000000745,,rt_thecrossant_black,527154,,,black_plus_sign,,,,,50,,,1,0.84375,,,,,,,,,,,,,,,,
null,,color_black,527255,,,black_plus_sign,,,,,null,,,,,,,,,,,,,,,,,,,,
null,,learn_phase(without_color),530275,,,black_plus_sign,,,,,null,US_Cities_List/peoria.png,US_Cities_List/westpalmbeach.png,,,,,,,,,,,,,,,,,,
null,,black_cross(without_color),530803,,,yellow,,,,,null,US_Cities_List/peoria.png,US_Cities_List/westpalmbeach.png,,,,,,,,,,,,,,,,,,
null,,rt_plussign_withcolor,531306,,,yellow,,,,,null,US_Cities_List/peoria.png,US_Cities_List/westpalmbeach.png,,,,,,,,,,,,,,,,,,
855.3999999994412,,rt_thecrossant_black,532783,,,black_plus_sign,,,,,50,,,1,0.8484848484848485,,,,,,,,,,,,,,,,
null,,color_black,532885,,,black_plus_sign,,,,,null,,,,,,,,,,,,,,,,,,,,
null,,learn_phase(without_color),535901,,,black_plus_sign,,,,,null,US_Cities_List/westpalmbeach.png,US_Cities_List/newhope.png,,,,,,,,,,,,,,,,,,
null,,black_cross(without_color),536517,,,blue,,,,,null,US_Cities_List/westpalmbeach.png,US_Cities_List/newhope.png,,,,,,,,,,,,,,,,,,
456.29999999981374,,rt_plussign_withcolor,537019,,,blue,,,,,49,US_Cities_List/westpalmbeach.png,US_Cities_List/newhope.png,,,,,,,,,,,,,,,,,,
null,,rt_thecrossant_black,538413,,,black_plus_sign,,,,,null,,,1,0.8529411764705882,,,,,,,,,,,,,,,,
null,,color_black,538516,,,black_plus_sign,,,,,null,,,,,,,,,,,,,,,,,,,,
null,,learn_phase(without_color),541528,,,black_plus_sign,,,,,null,US_Cities_List/boulder.png,US_Cities_List/leesburg.png,,,,,,,,,,,,,,,,,,
null,,black_cross(without_color),542135,,,blue,,,,,null,US_Cities_List/boulder.png,US_Cities_List/leesburg.png,,,,,,,,,,,,,,,,,,
null,,rt_plussign_withcolor,542649,,,blue,,,,,null,US_Cities_List/boulder.png,US_Cities_List/leesburg.png,,,,,,,,,,,,,,,,,,
940.7999999998137,,rt_thecrossant_black,544052,,,black_plus_sign,,,,,49,,,1,0.8571428571428571,,,,,,,,,,,,,,,,
null,,color_black,544155,,,black_plus_sign,,,,,null,,,,,,,,,,,,,,,,,,,,
null,,learn_phase(without_color),547170,,,black_plus_sign,,,,,null,US_Cities_List/gatlinburg.png,US_Cities_List/racine.png,,,,,,,,,,,,,,,,,,
null,,black_cross(without_color),548255,,,blue,,,,,null,US_Cities_List/gatlinburg.png,US_Cities_List/racine.png,,,,,,,,,,,,,,,,,,
null,,rt_plussign_withcolor,548757,,,blue,,,,,null,US_Cities_List/gatlinburg.png,US_Cities_List/racine.png,,,,,,,,,,,,,,,,,,
1022.9000000003725,,rt_thecrossant_black,549676,,,black_plus_sign,,,,,49,,,1,0.8611111111111112,,,,,,,,,,,,,,,,
null,,color_black,549778,,,black_plus_sign,,,,,null,,,,,,,,,,,,,,,,,,,,
null,,learn_phase(without_color),552795,,,black_plus_sign,,,,,null,US_Cities_List/newhope.png,US_Cities_List/hanover.png,,,,,,,,,,,,,,,,,,
null,,black_cross(without_color),553216,,,yellow,,,,,null,US_Cities_List/newhope.png,US_Cities_List/hanover.png,,,,,,,,,,,,,,,,,,
null,,rt_plussign_withcolor,553717,,,yellow,,,,,null,US_Cities_List/newhope.png,US_Cities_List/hanover.png,,,,,,,,,,,,,,,,,,
1481.7999999998137,,rt_thecrossant_black,555301,,,black_plus_sign,,,,,50,,,1,0.8648648648648649,,,,,,,,,,,,,,,,
null,,color_black,555403,,,black_plus_sign,,,,,null,,,,,,,,,,,,,,,,,,,,
null,,learn_phase(without_color),558420,,,black_plus_sign,,,,,null,US_Cities_List/peoria.png,US_Cities_List/westpalmbeach.png,,,,,,,,,,,,,,,,,,
null,,black_cross(without_color),558994,,,yellow,,,,,null,US_Cities_List/peoria.png,US_Cities_List/westpalmbeach.png,,,,,,,,,,,,,,,,,,
null,,rt_plussign_withcolor,559495,,,yellow,,,,,null,US_Cities_List/peoria.png,US_Cities_List/westpalmbeach.png,,,,,,,,,,,,,,,,,,
1265.7000000001863,,rt_thecrossant_black,560936,,,black_plus_sign,,,,,50,,,1,0.868421052631579,,,,,,,,,,,,,,,,
null,,color_black,561038,,,black_plus_sign,,,,,null,,,,,,,,,,,,,,,,,,,,
null,,learn_phase(without_color),564057,,,black_plus_sign,,,,,null,US_Cities_List/boulder.png,US_Cities_List/leesburg.png,,,,,,,,,,,,,,,,,,
null,,black_cross(without_color),564497,,,blue,,,,,null,US_Cities_List/boulder.png,US_Cities_List/leesburg.png,,,,,,,,,,,,,,,,,,
422.29999999981374,,rt_plussign_withcolor,564999,,,blue,,,,,49,US_Cities_List/boulder.png,US_Cities_List/leesburg.png,,,,,,,,,,,,,,,,,,
null,,rt_thecrossant_black,566563,,,black_plus_sign,,,,,null,,,1,0.8717948717948718,,,,,,,,,,,,,,,,
null,,color_black,566664,,,black_plus_sign,,,,,null,,,,,,,,,,,,,,,,,,,,
null,,learn_phase(without_color),569677,,,black_plus_sign,,,,,null,US_Cities_List/huntsville.png,US_Cities_List/shreveport.png,,,,,,,,,,,,,,,,,,
null,,black_cross(without_color),570590,,,blue,,,,,null,US_Cities_List/huntsville.png,US_Cities_List/shreveport.png,,,,,,,,,,,,,,,,,,
null,,rt_plussign_withcolor,571091,,,blue,,,,,null,US_Cities_List/huntsville.png,US_Cities_List/shreveport.png,,,,,,,,,,,,,,,,,,
716.6000000005588,,rt_thecrossant_black,572196,,,black_plus_sign,,,,,49,,,1,0.875,,,,,,,,,,,,,,,,
null,,color_black,572298,,,black_plus_sign,,,,,null,,,,,,,,,,,,,,,,,,,,
null,,learn_phase(without_color),575320,,,black_plus_sign,,,,,null,US_Cities_List/westpalmbeach.png,US_Cities_List/shreveport.png,,,,,,,,,,,,,,,,,,
null,,black_cross(without_color),576003,,,yellow,,,,,null,US_Cities_List/westpalmbeach.png,US_Cities_List/shreveport.png,,,,,,,,,,,,,,,,,,
null,,rt_plussign_withcolor,576505,,,yellow,,,,,null,US_Cities_List/westpalmbeach.png,US_Cities_List/shreveport.png,,,,,,,,,,,,,,,,,,
1101.5999999996275,,rt_thecrossant_black,577826,,,black_plus_sign,,,,,50,,,1,0.8780487804878049,,,,,,,,,,,,,,,,
null,,color_black,577928,,,black_plus_sign,,,,,null,,,,,,,,,,,,,,,,,,,,
null,,learn_phase(without_color),580944,,,black_plus_sign,,,,,null,US_Cities_List/leesburg.png,US_Cities_List/carmel.png,,,,,,,,,,,,,,,,,,
null,,black_cross(without_color),581372,,,blue,,,,,null,US_Cities_List/leesburg.png,US_Cities_List/carmel.png,,,,,,,,,,,,,,,,,,
null,,rt_plussign_withcolor,581874,,,blue,,,,,null,US_Cities_List/leesburg.png,US_Cities_List/carmel.png,,,,,,,,,,,,,,,,,,
1172.2999999998137,,rt_thecrossant_black,583460,,,black_plus_sign,,,,,50,,,0,0.8571428571428571,,,,,,,,,,,,,,,,
null,,color_black,583562,,,black_plus_sign,,,,,null,,,,,,,,,,,,,,,,,,,,
null,,learn_phase(without_color),586576,,,black_plus_sign,,,,,null,US_Cities_List/gatlinburg.png,US_Cities_List/hotsprings.png,,,,,,,,,,,,,,,,,,
null,,black_cross(without_color),587349,,,yellow,,,,,null,US_Cities_List/gatlinburg.png,US_Cities_List/hotsprings.png,,,,,,,,,,,,,,,,,,
null,,rt_plussign_withcolor,587851,,,yellow,,,,,null,US_Cities_List/gatlinburg.png,US_Cities_List/hotsprings.png,,,,,,,,,,,,,,,,,,
531.4000000003725,,rt_thecrossant_black,589082,,,black_plus_sign,,,,,50,,,1,0.8604651162790697,,,,,,,,,,,,,,,,
null,,color_black,589184,,,black_plus_sign,,,,,null,,,,,,,,,,,,,,,,,,,,
null,,learn_phase(without_color),592201,,,black_plus_sign,,,,,null,US_Cities_List/boulder.png,US_Cities_List/leesburg.png,,,,,,,,,,,,,,,,,,
null,,black_cross(without_color),593059,,,yellow,,,,,null,US_Cities_List/boulder.png,US_Cities_List/leesburg.png,,,,,,,,,,,,,,,,,,
null,,rt_plussign_withcolor,593561,,,yellow,,,,,null,US_Cities_List/boulder.png,US_Cities_List/leesburg.png,,,,,,,,,,,,,,,,,,
1100.7999999998137,,rt_thecrossant_black,594717,,,black_plus_sign,,,,,50,,,1,0.8636363636363636,,,,,,,,,,,,,,,,
null,,color_black,594820,,,black_plus_sign,,,,,null,,,,,,,,,,,,,,,,,,,,
null,,learn_phase(without_color),597836,,,black_plus_sign,,,,,null,US_Cities_List/peoria.png,US_Cities_List/hanover.png,,,,,,,,,,,,,,,,,,
null,,black_cross(without_color),598240,,,blue,,,,,null,US_Cities_List/peoria.png,US_Cities_List/hanover.png,,,,,,,,,,,,,,,,,,
null,,rt_plussign_withcolor,598741,,,blue,,,,,null,US_Cities_List/peoria.png,US_Cities_List/hanover.png,,,,,,,,,,,,,,,,,,
1254,,rt_thecrossant_black,600342,,,black_plus_sign,,,,,49,,,1,0.8666666666666667,,,,,,,,,,,,,,,,
null,,color_black,600444,,,black_plus_sign,,,,,null,,,,,,,,,,,,,,,,,,,,
null,,learn_phase(without_color),603463,,,black_plus_sign,,,,,null,US_Cities_List/newhope.png,US_Cities_List/westpalmbeach.png,,,,,,,,,,,,,,,,,,
null,,black_cross(without_color),604070,,,blue,,,,,null,US_Cities_List/newhope.png,US_Cities_List/westpalmbeach.png,,,,,,,,,,,,,,,,,,
null,,rt_plussign_withcolor,604573,,,blue,,,,,null,US_Cities_List/newhope.png,US_Cities_List/westpalmbeach.png,,,,,,,,,,,,,,,,,,
915,,rt_thecrossant_black,605969,,,black_plus_sign,,,,,49,,,1,0.8695652173913043,,,,,,,,,,,,,,,,
null,,color_black,606071,,,black_plus_sign,,,,,null,,,,,,,,,,,,,,,,,,,,
null,,learn_phase(without_color),609092,,,black_plus_sign,,,,,null,US_Cities_List/westpalmbeach.png,US_Cities_List/shreveport.png,,,,,,,,,,,,,,,,,,
null,,black_cross(without_color),609650,,,yellow,,,,,null,US_Cities_List/westpalmbeach.png,US_Cities_List/shreveport.png,,,,,,,,,,,,,,,,,,
null,,rt_plussign_withcolor,610152,,,yellow,,,,,null,US_Cities_List/westpalmbeach.png,US_Cities_List/shreveport.png,,,,,,,,,,,,,,,,,,
1030.1000000005588,,rt_thecrossant_black,611598,,,black_plus_sign,,,,,50,,,1,0.8723404255319149,,,,,,,,,,,,,,,,
null,,color_black,611700,,,black_plus_sign,,,,,null,,,,,,,,,,,,,,,,,,,,
null,,learn_phase(without_color),614717,,,black_plus_sign,,,,,null,US_Cities_List/shreveport.png,US_Cities_List/gatlinburg.png,,,,,,,,,,,,,,,,,,
null,,black_cross(without_color),615472,,,yellow,,,,,null,US_Cities_List/shreveport.png,US_Cities_List/gatlinburg.png,,,,,,,,,,,,,,,,,,
null,,rt_plussign_withcolor,615974,,,yellow,,,,,null,US_Cities_List/shreveport.png,US_Cities_List/gatlinburg.png,,,,,,,,,,,,,,,,,,
869.7000000001863,,rt_thecrossant_black,617223,,,black_plus_sign,,,,,50,,,1,0.875,,,,,,,,,,,,,,,,
null,,color_black,617325,,,black_plus_sign,,,,,null,,,,,,,,,,,,,,,,,,,,
null,,learn_phase(without_color),620340,,,black_plus_sign,,,,,null,US_Cities_List/gatlinburg.png,US_Cities_List/racine.png,,,,,,,,,,,,,,,,,,
null,,black_cross(without_color),621036,,,yellow,,,,,null,US_Cities_List/gatlinburg.png,US_Cities_List/racine.png,,,,,,,,,,,,,,,,,,
null,,rt_plussign_withcolor,621538,,,yellow,,,,,null,US_Cities_List/gatlinburg.png,US_Cities_List/racine.png,,,,,,,,,,,,,,,,,,
1042.5999999996275,,rt_thecrossant_black,622847,,,black_plus_sign,,,,,50,,,1,0.8775510204081632,,,,,,,,,,,,,,,,
null,,color_black,622948,,,black_plus_sign,,,,,null,,,,,,,,,,,,,,,,,,,,
null,,learn_phase(without_color),625963,,,black_plus_sign,,,,,null,US_Cities_List/carmel.png,US_Cities_List/leesburg.png,,,,,,,,,,,,,,,,,,
null,,black_cross(without_color),626861,,,yellow,,,,,null,US_Cities_List/carmel.png,US_Cities_List/leesburg.png,,,,,,,,,,,,,,,,,,
null,,rt_plussign_withcolor,627363,,,yellow,,,,,null,US_Cities_List/carmel.png,US_Cities_List/leesburg.png,,,,,,,,,,,,,,,,,,
807,,rt_thecrossant_black,628471,,,black_plus_sign,,,,,50,,,1,0.88,,,,,,,,,,,,,,,,
null,,color_black,628588,,,black_plus_sign,,,,,null,,,,,,,,,,,,,,,,,,,,
null,,learn_phase(without_color),631604,,,black_plus_sign,,,,,null,US_Cities_List/hanover.png,US_Cities_List/leesburg.png,,,,,,,,,,,,,,,,,,
null,,black_cross(without_color),632281,,,yellow,,,,,null,US_Cities_List/hanover.png,US_Cities_List/leesburg.png,,,,,,,,,,,,,,,,,,
null,,rt_plussign_withcolor,632784,,,yellow,,,,,null,US_Cities_List/hanover.png,US_Cities_List/leesburg.png,,,,,,,,,,,,,,,,,,
1162.2999999998137,,rt_thecrossant_black,634111,,,black_plus_sign,,,,,50,,,1,0.8823529411764706,,,,,,,,,,,,,,,,
null,,color_black,634213,,,black_plus_sign,,,,,null,,,,,,,,,,,,,,,,,,,,
null,,learn_phase(without_color),637229,,,black_plus_sign,,,,,null,US_Cities_List/racine.png,US_Cities_List/gatlinburg.png,,,,,,,,,,,,,,,,,,
null,,black_cross(without_color),637928,,,yellow,,,,,null,US_Cities_List/racine.png,US_Cities_List/gatlinburg.png,,,,,,,,,,,,,,,,,,
null,,rt_plussign_withcolor,638429,,,yellow,,,,,null,US_Cities_List/racine.png,US_Cities_List/gatlinburg.png,,,,,,,,,,,,,,,,,,
877,,rt_thecrossant_black,639735,,,black_plus_sign,,,,,50,,,1,0.8846153846153846,,,,,,,,,,,,,,,,
null,,color_black,639837,,,black_plus_sign,,,,,null,,,,,,,,,,,,,,,,,,,,
null,,learn_phase(without_color),642857,,,black_plus_sign,,,,,null,US_Cities_List/racine.png,US_Cities_List/peoria.png,,,,,,,,,,,,,,,,,,
null,,black_cross(without_color),643337,,,yellow,,,,,null,US_Cities_List/racine.png,US_Cities_List/peoria.png,,,,,,,,,,,,,,,,,,
461.70000000018626,,rt_plussign_withcolor,643838,,,yellow,,,,,50,US_Cities_List/racine.png,US_Cities_List/peoria.png,,,,,,,,,,,,,,,,,,
null,,rt_thecrossant_black,645362,,,black_plus_sign,,,,,null,,,1,0.8867924528301887,,,,,,,,,,,,,,,,
null,,color_black,645464,,,black_plus_sign,,,,,null,,,,,,,,,,,,,,,,,,,,
null,,learn_phase(without_color),648479,,,black_plus_sign,,,,,null,US_Cities_List/westpalmbeach.png,US_Cities_List/peoria.png,,,,,,,,,,,,,,,,,,
null,,black_cross(without_color),649083,,,yellow,,,,,null,US_Cities_List/westpalmbeach.png,US_Cities_List/peoria.png,,,,,,,,,,,,,,,,,,
450.29999999981374,,rt_plussign_withcolor,649585,,,yellow,,,,,50,US_Cities_List/westpalmbeach.png,US_Cities_List/peoria.png,,,,,,,,,,,,,,,,,,
null,,rt_thecrossant_black,650985,,,black_plus_sign,,,,,null,,,1,0.8888888888888888,,,,,,,,,,,,,,,,
null,,color_black,651087,,,black_plus_sign,,,,,null,,,,,,,,,,,,,,,,,,,,
null,,learn_phase(without_color),654105,,,black_plus_sign,,,,,null,US_Cities_List/gatlinburg.png,US_Cities_List/hotsprings.png,,,,,,,,,,,,,,,,,,
null,,black_cross(without_color),654792,,,yellow,,,,,null,US_Cities_List/gatlinburg.png,US_Cities_List/hotsprings.png,,,,,,,,,,,,,,,,,,
null,,rt_plussign_withcolor,655294,,,yellow,,,,,null,US_Cities_List/gatlinburg.png,US_Cities_List/hotsprings.png,,,,,,,,,,,,,,,,,,
870.7000000001863,,rt_thecrossant_black,656611,,,black_plus_sign,,,,,50,,,1,0.8909090909090909,,,,,,,,,,,,,,,,
null,,color_black,656713,,,black_plus_sign,,,,,null,,,,,,,,,,,,,,,,,,,,
null,,learn_phase(without_color),659736,,,black_plus_sign,,,,,null,US_Cities_List/racine.png,US_Cities_List/gatlinburg.png,,,,,,,,,,,,,,,,,,
null,,black_cross(without_color),660726,,,yellow,,,,,null,US_Cities_List/racine.png,US_Cities_List/gatlinburg.png,,,,,,,,,,,,,,,,,,
361.40000000037253,,rt_plussign_withcolor,661228,,,yellow,,,,,50,US_Cities_List/racine.png,US_Cities_List/gatlinburg.png,,,,,,,,,,,,,,,,,,
null,,rt_thecrossant_black,662258,,,black_plus_sign,,,,,null,,,1,0.8928571428571429,,,,,,,,,,,,,,,,
null,,color_black,662360,,,black_plus_sign,,,,,null,,,,,,,,,,,,,,,,,,,,
null,,learn_phase(without_color),665381,,,black_plus_sign,,,,,null,US_Cities_List/shreveport.png,US_Cities_List/gatlinburg.png,,,,,,,,,,,,,,,,,,
null,,black_cross(without_color),666030,,,blue,,,,,null,US_Cities_List/shreveport.png,US_Cities_List/gatlinburg.png,,,,,,,,,,,,,,,,,,
null,,rt_plussign_withcolor,666532,,,blue,,,,,null,US_Cities_List/shreveport.png,US_Cities_List/gatlinburg.png,,,,,,,,,,,,,,,,,,
1155.8999999994412,,rt_thecrossant_black,667893,,,black_plus_sign,,,,,49,,,1,0.8947368421052632,,,,,,,,,,,,,,,,
null,,color_black,667995,,,black_plus_sign,,,,,null,,,,,,,,,,,,,,,,,,,,
null,,learn_phase(without_color),671012,,,black_plus_sign,,,,,null,US_Cities_List/hotsprings.png,US_Cities_List/gatlinburg.png,,,,,,,,,,,,,,,,,,
null,,black_cross(without_color),671490,,,yellow,,,,,null,US_Cities_List/hotsprings.png,US_Cities_List/gatlinburg.png,,,,,,,,,,,,,,,,,,
null,,rt_plussign_withcolor,671992,,,yellow,,,,,null,US_Cities_List/hotsprings.png,US_Cities_List/gatlinburg.png,,,,,,,,,,,,,,,,,,
942.3999999994412,,rt_thecrossant_black,673518,,,black_plus_sign,,,,,50,,,1,0.896551724137931,,,,,,,,,,,,,,,,
null,,color_black,673620,,,black_plus_sign,,,,,null,,,,,,,,,,,,,,,,,,,,
null,,learn_phase(without_color),676637,,,black_plus_sign,,,,,null,US_Cities_List/westpalmbeach.png,US_Cities_List/shreveport.png,,,,,,,,,,,,,,,,,,
null,,black_cross(without_color),677540,,,blue,,,,,null,US_Cities_List/westpalmbeach.png,US_Cities_List/shreveport.png,,,,,,,,,,,,,,,,,,
null,,rt_plussign_withcolor,678041,,,blue,,,,,null,US_Cities_List/westpalmbeach.png,US_Cities_List/shreveport.png,,,,,,,,,,,,,,,,,,
806.9000000003725,,rt_thecrossant_black,679144,,,black_plus_sign,,,,,49,,,1,0.8983050847457628,,,,,,,,,,,,,,,,
null,,color_black,679245,,,black_plus_sign,,,,,null,,,,,,,,,,,,,,,,,,,,
null,,learn_phase(without_color),682261,,,black_plus_sign,,,,,null,US_Cities_List/hotsprings.png,US_Cities_List/gatlinburg.png,,,,,,,,,,,,,,,,,,
null,,black_cross(without_color),682839,,,blue,,,,,null,US_Cities_List/hotsprings.png,US_Cities_List/gatlinburg.png,,,,,,,,,,,,,,,,,,
null,,rt_plussign_withcolor,683341,,,blue,,,,,null,US_Cities_List/hotsprings.png,US_Cities_List/gatlinburg.png,,,,,,,,,,,,,,,,,,
1315.0999999996275,,rt_thecrossant_black,684768,,,black_plus_sign,,,,,49,,,1,0.9,,,,,,,,,,,,,,,,
null,,color_black,684870,,,black_plus_sign,,,,,null,,,,,,,,,,,,,,,,,,,,
null,,learn_phase(without_color),687886,,,black_plus_sign,,,,,null,US_Cities_List/shreveport.png,US_Cities_List/westpalmbeach.png,,,,,,,,,,,,,,,,,,
null,,black_cross(without_color),688796,,,yellow,,,,,null,US_Cities_List/shreveport.png,US_Cities_List/westpalmbeach.png,,,,,,,,,,,,,,,,,,
460.59999999962747,,rt_plussign_withcolor,689297,,,yellow,,,,,50,US_Cities_List/shreveport.png,US_Cities_List/westpalmbeach.png,,,,,,,,,,,,,,,,,,
null,,rt_thecrossant_black,690392,,,black_plus_sign,,,,,null,,,1,0.9016393442622951,,,,,,,,,,,,,,,,
null,,color_black,690495,,,black_plus_sign,,,,,null,,,,,,,,,,,,,,,,,,,,
null,,learn_phase(without_color),693517,,,black_plus_sign,,,,,null,US_Cities_List/boulder.png,US_Cities_List/newhope.png,,,,,,,,,,,,,,,,,,
null,,black_cross(without_color),693993,,,yellow,,,,,null,US_Cities_List/boulder.png,US_Cities_List/newhope.png,,,,,,,,,,,,,,,,,,
null,,rt_plussign_withcolor,694502,,,yellow,,,,,null,US_Cities_List/boulder.png,US_Cities_List/newhope.png,,,,,,,,,,,,,,,,,,
1165.9000000003725,,rt_thecrossant_black,696031,,,black_plus_sign,,,,,50,,,1,0.9032258064516129,,,,,,,,,,,,,,,,
null,,color_black,696132,,,black_plus_sign,,,,,null,,,,,,,,,,,,,,,,,,,,
null,,learn_phase(without_color),699149,,,black_plus_sign,,,,,null,US_Cities_List/westpalmbeach.png,US_Cities_List/shreveport.png,,,,,,,,,,,,,,,,,,
null,,black_cross(without_color),699760,,,yellow,,,,,null,US_Cities_List/westpalmbeach.png,US_Cities_List/shreveport.png,,,,,,,,,,,,,,,,,,
null,,rt_plussign_withcolor,700262,,,yellow,,,,,null,US_Cities_List/westpalmbeach.png,US_Cities_List/shreveport.png,,,,,,,,,,,,,,,,,,
780.8999999994412,,rt_thecrossant_black,701656,,,black_plus_sign,,,,,50,,,1,0.9047619047619048,,,,,,,,,,,,,,,,
null,,color_black,701757,,,black_plus_sign,,,,,null,,,,,,,,,,,,,,,,,,,,
null,,learn_phase(without_color),704775,,,black_plus_sign,,,,,null,US_Cities_List/newhope.png,US_Cities_List/hanover.png,,,,,,,,,,,,,,,,,,
null,,black_cross(without_color),705328,,,yellow,,,,,null,US_Cities_List/newhope.png,US_Cities_List/hanover.png,,,,,,,,,,,,,,,,,,
null,,rt_plussign_withcolor,705830,,,yellow,,,,,null,US_Cities_List/newhope.png,US_Cities_List/hanover.png,,,,,,,,,,,,,,,,,,
725.7000000001863,,rt_thecrossant_black,707291,,,black_plus_sign,,,,,50,,,1,0.90625,,,,,,,,,,,,,,,,
null,,color_black,707393,,,black_plus_sign,,,,,null,,,,,,,,,,,,,,,,,,,,
37970.5,,learn_break,745367,,,learn_break,,,,,32,,,,,,,,,,,,,,,,,,,,
null,,html-keyboard-response,746369,,,<p></p>,,,,,null,,,,,,,,,,,,,,,,,,,,
null,,learn_phase(without_color),749383,,,black_plus_sign,,,,,null,US_Cities_List/boulder.png,US_Cities_List/leesburg.png,,,,,,,,,,,,,,,,,,
null,,black_cross(without_color),749984,,,blue,,,,,null,US_Cities_List/boulder.png,US_Cities_List/leesburg.png,,,,,,,,,,,,,,,,,,
null,,rt_plussign_withcolor,750485,,,blue,,,,,null,US_Cities_List/boulder.png,US_Cities_List/leesburg.png,,,,,,,,,,,,,,,,,,
1255.2999999998137,,rt_thecrossant_black,751901,,,black_plus_sign,,,,,49,,,1,0.9076923076923077,,,,,,,,,,,,,,,,
null,,color_black,752003,,,black_plus_sign,,,,,null,,,,,,,,,,,,,,,,,,,,
null,,learn_phase(without_color),755020,,,black_plus_sign,,,,,null,US_Cities_List/boulder.png,US_Cities_List/hanover.png,,,,,,,,,,,,,,,,,,
null,,black_cross(without_color),755852,,,blue,,,,,null,US_Cities_List/boulder.png,US_Cities_List/hanover.png,,,,,,,,,,,,,,,,,,
null,,rt_plussign_withcolor,756353,,,blue,,,,,null,US_Cities_List/boulder.png,US_Cities_List/hanover.png,,,,,,,,,,,,,,,,,,
870,,rt_thecrossant_black,757527,,,black_plus_sign,,,,,50,,,0,0.8939393939393939,,,,,,,,,,,,,,,,
null,,color_black,757630,,,black_plus_sign,,,,,null,,,,,,,,,,,,,,,,,,,,
null,,learn_phase(without_color),760647,,,black_plus_sign,,,,,null,US_Cities_List/gatlinburg.png,US_Cities_List/shreveport.png,,,,,,,,,,,,,,,,,,
null,,black_cross(without_color),761179,,,blue,,,,,null,US_Cities_List/gatlinburg.png,US_Cities_List/shreveport.png,,,,,,,,,,,,,,,,,,
null,,rt_plussign_withcolor,761681,,,blue,,,,,null,US_Cities_List/gatlinburg.png,US_Cities_List/shreveport.png,,,,,,,,,,,,,,,,,,
1401.0999999996275,,rt_thecrossant_black,763154,,,black_plus_sign,,,,,49,,,1,0.8955223880597015,,,,,,,,,,,,,,,,
null,,color_black,763256,,,black_plus_sign,,,,,null,,,,,,,,,,,,,,,,,,,,
null,,learn_phase(without_color),766274,,,black_plus_sign,,,,,null,US_Cities_List/shreveport.png,US_Cities_List/gatlinburg.png,,,,,,,,,,,,,,,,,,
null,,black_cross(without_color),767232,,,blue,,,,,null,US_Cities_List/shreveport.png,US_Cities_List/gatlinburg.png,,,,,,,,,,,,,,,,,,
484.5,,rt_plussign_withcolor,767734,,,blue,,,,,50,US_Cities_List/shreveport.png,US_Cities_List/gatlinburg.png,,,,,,,,,,,,,,,,,,
null,,rt_thecrossant_black,768779,,,black_plus_sign,,,,,null,,,0,0.8823529411764706,,,,,,,,,,,,,,,,
null,,color_black,768893,,,black_plus_sign,,,,,null,,,,,,,,,,,,,,,,,,,,
null,,learn_phase(without_color),771904,,,black_plus_sign,,,,,null,US_Cities_List/gatlinburg.png,US_Cities_List/shreveport.png,,,,,,,,,,,,,,,,,,
null,,black_cross(without_color),772922,,,blue,,,,,null,US_Cities_List/gatlinburg.png,US_Cities_List/shreveport.png,,,,,,,,,,,,,,,,,,
null,,rt_plussign_withcolor,773426,,,blue,,,,,null,US_Cities_List/gatlinburg.png,US_Cities_List/shreveport.png,,,,,,,,,,,,,,,,,,
1316.7000000001863,,rt_thecrossant_black,774414,,,black_plus_sign,,,,,49,,,1,0.8840579710144928,,,,,,,,,,,,,,,,
null,,color_black,774516,,,black_plus_sign,,,,,null,,,,,,,,,,,,,,,,,,,,
null,,learn_phase(without_color),777533,,,black_plus_sign,,,,,null,US_Cities_List/hanover.png,US_Cities_List/boulder.png,,,,,,,,,,,,,,,,,,
null,,black_cross(without_color),778260,,,yellow,,,,,null,US_Cities_List/hanover.png,US_Cities_List/boulder.png,,,,,,,,,,,,,,,,,,
null,,rt_plussign_withcolor,778762,,,yellow,,,,,null,US_Cities_List/hanover.png,US_Cities_List/boulder.png,,,,,,,,,,,,,,,,,,
1179.5,,rt_thecrossant_black,780040,,,black_plus_sign,,,,,50,,,1,0.8857142857142857,,,,,,,,,,,,,,,,
null,,color_black,780142,,,black_plus_sign,,,,,null,,,,,,,,,,,,,,,,,,,,
null,,learn_phase(without_color),783157,,,black_plus_sign,,,,,null,US_Cities_List/shreveport.png,US_Cities_List/huntsville.png,,,,,,,,,,,,,,,,,,
null,,black_cross(without_color),783582,,,blue,,,,,null,US_Cities_List/shreveport.png,US_Cities_List/huntsville.png,,,,,,,,,,,,,,,,,,
null,,rt_plussign_withcolor,784084,,,blue,,,,,null,US_Cities_List/shreveport.png,US_Cities_List/huntsville.png,,,,,,,,,,,,,,,,,,
1420.9000000003725,,rt_thecrossant_black,785663,,,black_plus_sign,,,,,49,,,1,0.8873239436619719,,,,,,,,,,,,,,,,
null,,color_black,785765,,,black_plus_sign,,,,,null,,,,,,,,,,,,,,,,,,,,
null,,learn_phase(without_color),788786,,,black_plus_sign,,,,,null,US_Cities_List/leesburg.png,US_Cities_List/carmel.png,,,,,,,,,,,,,,,,,,
null,,black_cross(without_color),789291,,,yellow,,,,,null,US_Cities_List/leesburg.png,US_Cities_List/carmel.png,,,,,,,,,,,,,,,,,,
null,,rt_plussign_withcolor,789794,,,yellow,,,,,null,US_Cities_List/leesburg.png,US_Cities_List/carmel.png,,,,,,,,,,,,,,,,,,
782,,rt_thecrossant_black,791294,,,black_plus_sign,,,,,50,,,1,0.8888888888888888,,,,,,,,,,,,,,,,
null,,color_black,791396,,,black_plus_sign,,,,,null,,,,,,,,,,,,,,,,,,,,
null,,learn_phase(without_color),794415,,,black_plus_sign,,,,,null,US_Cities_List/hanover.png,US_Cities_List/leesburg.png,,,,,,,,,,,,,,,,,,
null,,black_cross(without_color),795289,,,yellow,,,,,null,US_Cities_List/hanover.png,US_Cities_List/leesburg.png,,,,,,,,,,,,,,,,,,
null,,rt_plussign_withcolor,795792,,,yellow,,,,,null,US_Cities_List/hanover.png,US_Cities_List/leesburg.png,,,,,,,,,,,,,,,,,,
611.4000000003725,,rt_thecrossant_black,796922,,,black_plus_sign,,,,,49,,,0,0.8767123287671232,,,,,,,,,,,,,,,,
null,,color_black,797024,,,black_plus_sign,,,,,null,,,,,,,,,,,,,,,,,,,,
null,,learn_phase(without_color),800041,,,black_plus_sign,,,,,null,US_Cities_List/westpalmbeach.png,US_Cities_List/newhope.png,,,,,,,,,,,,,,,,,,
null,,black_cross(without_color),800471,,,yellow,,,,,null,US_Cities_List/westpalmbeach.png,US_Cities_List/newhope.png,,,,,,,,,,,,,,,,,,
null,,rt_plussign_withcolor,800973,,,yellow,,,,,null,US_Cities_List/westpalmbeach.png,US_Cities_List/newhope.png,,,,,,,,,,,,,,,,,,
1340.1000000005588,,rt_thecrossant_black,802546,,,black_plus_sign,,,,,50,,,1,0.8783783783783784,,,,,,,,,,,,,,,,
null,,color_black,802647,,,black_plus_sign,,,,,null,,,,,,,,,,,,,,,,,,,,
null,,learn_phase(without_color),805660,,,black_plus_sign,,,,,null,US_Cities_List/shreveport.png,US_Cities_List/huntsville.png,,,,,,,,,,,,,,,,,,
null,,black_cross(without_color),806253,,,yellow,,,,,null,US_Cities_List/shreveport.png,US_Cities_List/huntsville.png,,,,,,,,,,,,,,,,,,
null,,rt_plussign_withcolor,806754,,,yellow,,,,,null,US_Cities_List/shreveport.png,US_Cities_List/huntsville.png,,,,,,,,,,,,,,,,,,
992,,rt_thecrossant_black,808164,,,black_plus_sign,,,,,50,,,1,0.88,,,,,,,,,,,,,,,,
null,,color_black,808267,,,black_plus_sign,,,,,null,,,,,,,,,,,,,,,,,,,,
null,,learn_phase(without_color),811289,,,black_plus_sign,,,,,null,US_Cities_List/newhope.png,US_Cities_List/hanover.png,,,,,,,,,,,,,,,,,,
null,,black_cross(without_color),812064,,,blue,,,,,null,US_Cities_List/newhope.png,US_Cities_List/hanover.png,,,,,,,,,,,,,,,,,,
null,,rt_plussign_withcolor,812566,,,blue,,,,,null,US_Cities_List/newhope.png,US_Cities_List/hanover.png,,,,,,,,,,,,,,,,,,
844.8999999994412,,rt_thecrossant_black,813795,,,black_plus_sign,,,,,49,,,1,0.881578947368421,,,,,,,,,,,,,,,,
null,,color_black,813897,,,black_plus_sign,,,,,null,,,,,,,,,,,,,,,,,,,,
null,,learn_phase(without_color),816914,,,black_plus_sign,,,,,null,US_Cities_List/hanover.png,US_Cities_List/leesburg.png,,,,,,,,,,,,,,,,,,
null,,black_cross(without_color),817430,,,yellow,,,,,null,US_Cities_List/hanover.png,US_Cities_List/leesburg.png,,,,,,,,,,,,,,,,,,
null,,rt_plussign_withcolor,817932,,,yellow,,,,,null,US_Cities_List/hanover.png,US_Cities_List/leesburg.png,,,,,,,,,,,,,,,,,,
1065.5,,rt_thecrossant_black,819421,,,black_plus_sign,,,,,50,,,1,0.8831168831168831,,,,,,,,,,,,,,,,
null,,color_black,819522,,,black_plus_sign,,,,,null,,,,,,,,,,,,,,,,,,,,
null,,learn_phase(without_color),822539,,,black_plus_sign,,,,,null,US_Cities_List/hanover.png,US_Cities_List/newhope.png,,,,,,,,,,,,,,,,,,
null,,black_cross(without_color),823618,,,yellow,,,,,null,US_Cities_List/hanover.png,US_Cities_List/newhope.png,,,,,,,,,,,,,,,,,,
null,,rt_plussign_withcolor,824128,,,yellow,,,,,null,US_Cities_List/hanover.png,US_Cities_List/newhope.png,,,,,,,,,,,,,,,,,,
790.3000000007451,,rt_thecrossant_black,825054,,,black_plus_sign,,,,,50,,,1,0.8846153846153846,,,,,,,,,,,,,,,,
null,,color_black,825156,,,black_plus_sign,,,,,null,,,,,,,,,,,,,,,,,,,,
null,,learn_phase(without_color),828171,,,black_plus_sign,,,,,null,US_Cities_List/shreveport.png,US_Cities_List/huntsville.png,,,,,,,,,,,,,,,,,,
null,,black_cross(without_color),829006,,,blue,,,,,null,US_Cities_List/shreveport.png,US_Cities_List/huntsville.png,,,,,,,,,,,,,,,,,,
null,,rt_plussign_withcolor,829507,,,blue,,,,,null,US_Cities_List/shreveport.png,US_Cities_List/huntsville.png,,,,,,,,,,,,,,,,,,
1645.5,,rt_thecrossant_black,830678,,,black_plus_sign,,,,,49,,,1,0.8860759493670886,,,,,,,,,,,,,,,,
null,,color_black,830780,,,black_plus_sign,,,,,null,,,,,,,,,,,,,,,,,,,,
null,,learn_phase(without_color),833797,,,black_plus_sign,,,,,null,US_Cities_List/huntsville.png,US_Cities_List/shreveport.png,,,,,,,,,,,,,,,,,,
null,,black_cross(without_color),834441,,,blue,,,,,null,US_Cities_List/huntsville.png,US_Cities_List/shreveport.png,,,,,,,,,,,,,,,,,,
null,,rt_plussign_withcolor,834942,,,blue,,,,,null,US_Cities_List/huntsville.png,US_Cities_List/shreveport.png,,,,,,,,,,,,,,,,,,
1267.5,,rt_thecrossant_black,836303,,,black_plus_sign,,,,,49,,,1,0.8875,,,,,,,,,,,,,,,,
null,,color_black,836405,,,black_plus_sign,,,,,null,,,,,,,,,,,,,,,,,,,,
null,,learn_phase(without_color),839424,,,black_plus_sign,,,,,null,US_Cities_List/hotsprings.png,US_Cities_List/gatlinburg.png,,,,,,,,,,,,,,,,,,
null,,black_cross(without_color),839875,,,blue,,,,,null,US_Cities_List/hotsprings.png,US_Cities_List/gatlinburg.png,,,,,,,,,,,,,,,,,,
null,,rt_plussign_withcolor,840377,,,blue,,,,,null,US_Cities_List/hotsprings.png,US_Cities_List/gatlinburg.png,,,,,,,,,,,,,,,,,,
1432.3999999994412,,rt_thecrossant_black,841932,,,black_plus_sign,,,,,49,,,1,0.8888888888888888,,,,,,,,,,,,,,,,
null,,color_black,842034,,,black_plus_sign,,,,,null,,,,,,,,,,,,,,,,,,,,
null,,learn_phase(without_color),845052,,,black_plus_sign,,,,,null,US_Cities_List/peoria.png,US_Cities_List/racine.png,,,,,,,,,,,,,,,,,,
null,,black_cross(without_color),845516,,,blue,,,,,null,US_Cities_List/peoria.png,US_Cities_List/racine.png,,,,,,,,,,,,,,,,,,
null,,rt_plussign_withcolor,846018,,,blue,,,,,null,US_Cities_List/peoria.png,US_Cities_List/racine.png,,,,,,,,,,,,,,,,,,
573.1999999992549,,rt_thecrossant_black,847559,,,black_plus_sign,,,,,49,,,1,0.8902439024390244,,,,,,,,,,,,,,,,
null,,color_black,847661,,,black_plus_sign,,,,,null,,,,,,,,,,,,,,,,,,,,
null,,learn_phase(without_color),850683,,,black_plus_sign,,,,,null,US_Cities_List/hotsprings.png,US_Cities_List/gatlinburg.png,,,,,,,,,,,,,,,,,,
null,,black_cross(without_color),851152,,,yellow,,,,,null,US_Cities_List/hotsprings.png,US_Cities_List/gatlinburg.png,,,,,,,,,,,,,,,,,,
null,,rt_plussign_withcolor,851654,,,yellow,,,,,null,US_Cities_List/hotsprings.png,US_Cities_List/gatlinburg.png,,,,,,,,,,,,,,,,,,
803.3000000007451,,rt_thecrossant_black,853203,,,black_plus_sign,,,,,50,,,1,0.891566265060241,,,,,,,,,,,,,,,,
null,,color_black,853305,,,black_plus_sign,,,,,null,,,,,,,,,,,,,,,,,,,,
null,,learn_phase(without_color),856321,,,black_plus_sign,,,,,null,US_Cities_List/carmel.png,US_Cities_List/leesburg.png,,,,,,,,,,,,,,,,,,
null,,black_cross(without_color),856824,,,blue,,,,,null,US_Cities_List/carmel.png,US_Cities_List/leesburg.png,,,,,,,,,,,,,,,,,,
null,,rt_plussign_withcolor,857326,,,blue,,,,,null,US_Cities_List/carmel.png,US_Cities_List/leesburg.png,,,,,,,,,,,,,,,,,,
969.0999999996275,,rt_thecrossant_black,858838,,,black_plus_sign,,,,,49,,,1,0.8928571428571429,,,,,,,,,,,,,,,,
null,,color_black,858940,,,black_plus_sign,,,,,null,,,,,,,,,,,,,,,,,,,,
null,,learn_phase(without_color),861954,,,black_plus_sign,,,,,null,US_Cities_List/westpalmbeach.png,US_Cities_List/shreveport.png,,,,,,,,,,,,,,,,,,
null,,black_cross(without_color),863004,,,blue,,,,,null,US_Cities_List/westpalmbeach.png,US_Cities_List/shreveport.png,,,,,,,,,,,,,,,,,,
null,,rt_plussign_withcolor,863505,,,blue,,,,,null,US_Cities_List/westpalmbeach.png,US_Cities_List/shreveport.png,,,,,,,,,,,,,,,,,,
894.7000000001863,,rt_thecrossant_black,864460,,,black_plus_sign,,,,,50,,,0,0.8823529411764706,,,,,,,,,,,,,,,,
null,,color_black,864563,,,black_plus_sign,,,,,null,,,,,,,,,,,,,,,,,,,,
null,,learn_phase(without_color),867581,,,black_plus_sign,,,,,null,US_Cities_List/leesburg.png,US_Cities_List/hanover.png,,,,,,,,,,,,,,,,,,
null,,black_cross(without_color),868627,,,blue,,,,,null,US_Cities_List/leesburg.png,US_Cities_List/hanover.png,,,,,,,,,,,,,,,,,,
null,,rt_plussign_withcolor,869128,,,blue,,,,,null,US_Cities_List/leesburg.png,US_Cities_List/hanover.png,,,,,,,,,,,,,,,,,,
1614.8999999994412,,rt_thecrossant_black,870102,,,black_plus_sign,,,,,49,,,1,0.8837209302325582,,,,,,,,,,,,,,,,
null,,color_black,870204,,,black_plus_sign,,,,,null,,,,,,,,,,,,,,,,,,,,
null,,learn_phase(without_color),873222,,,black_plus_sign,,,,,null,US_Cities_List/hotsprings.png,US_Cities_List/gatlinburg.png,,,,,,,,,,,,,,,,,,
null,,black_cross(without_color),873804,,,yellow,,,,,null,US_Cities_List/hotsprings.png,US_Cities_List/gatlinburg.png,,,,,,,,,,,,,,,,,,
null,,rt_plussign_withcolor,874312,,,yellow,,,,,null,US_Cities_List/hotsprings.png,US_Cities_List/gatlinburg.png,,,,,,,,,,,,,,,,,,
1647,,rt_thecrossant_black,875734,,,black_plus_sign,,,,,50,,,1,0.8850574712643678,,,,,,,,,,,,,,,,
null,,color_black,875837,,,black_plus_sign,,,,,null,,,,,,,,,,,,,,,,,,,,
null,,learn_phase(without_color),878856,,,black_plus_sign,,,,,null,US_Cities_List/hotsprings.png,US_Cities_List/gatlinburg.png,,,,,,,,,,,,,,,,,,
null,,black_cross(without_color),879813,,,yellow,,,,,null,US_Cities_List/hotsprings.png,US_Cities_List/gatlinburg.png,,,,,,,,,,,,,,,,,,
null,,rt_plussign_withcolor,880315,,,yellow,,,,,null,US_Cities_List/hotsprings.png,US_Cities_List/gatlinburg.png,,,,,,,,,,,,,,,,,,
791.9000000003725,,rt_thecrossant_black,881368,,,black_plus_sign,,,,,50,,,1,0.8863636363636364,,,,,,,,,,,,,,,,
null,,color_black,881470,,,black_plus_sign,,,,,null,,,,,,,,,,,,,,,,,,,,
null,,learn_phase(without_color),884487,,,black_plus_sign,,,,,null,US_Cities_List/racine.png,US_Cities_List/gatlinburg.png,,,,,,,,,,,,,,,,,,
null,,black_cross(without_color),885053,,,yellow,,,,,null,US_Cities_List/racine.png,US_Cities_List/gatlinburg.png,,,,,,,,,,,,,,,,,,
null,,rt_plussign_withcolor,885554,,,yellow,,,,,null,US_Cities_List/racine.png,US_Cities_List/gatlinburg.png,,,,,,,,,,,,,,,,,,
1247.5999999996275,,rt_thecrossant_black,886994,,,black_plus_sign,,,,,50,,,1,0.8876404494382022,,,,,,,,,,,,,,,,
null,,color_black,887096,,,black_plus_sign,,,,,null,,,,,,,,,,,,,,,,,,,,
null,,learn_phase(without_color),890112,,,black_plus_sign,,,,,null,US_Cities_List/peoria.png,US_Cities_List/hanover.png,,,,,,,,,,,,,,,,,,
null,,black_cross(without_color),890649,,,blue,,,,,null,US_Cities_List/peoria.png,US_Cities_List/hanover.png,,,,,,,,,,,,,,,,,,
null,,rt_plussign_withcolor,891151,,,blue,,,,,null,US_Cities_List/peoria.png,US_Cities_List/hanover.png,,,,,,,,,,,,,,,,,,
1024.4000000003725,,rt_thecrossant_black,892617,,,black_plus_sign,,,,,49,,,1,0.8888888888888888,,,,,,,,,,,,,,,,
null,,color_black,892720,,,black_plus_sign,,,,,null,,,,,,,,,,,,,,,,,,,,
null,,learn_phase(without_color),895739,,,black_plus_sign,,,,,null,US_Cities_List/shreveport.png,US_Cities_List/gatlinburg.png,,,,,,,,,,,,,,,,,,
null,,black_cross(without_color),896207,,,blue,,,,,null,US_Cities_List/shreveport.png,US_Cities_List/gatlinburg.png,,,,,,,,,,,,,,,,,,
null,,rt_plussign_withcolor,896708,,,blue,,,,,null,US_Cities_List/shreveport.png,US_Cities_List/gatlinburg.png,,,,,,,,,,,,,,,,,,
1084.2999999998137,,rt_thecrossant_black,898246,,,black_plus_sign,,,,,49,,,1,0.8901098901098901,,,,,,,,,,,,,,,,
null,,color_black,898347,,,black_plus_sign,,,,,null,,,,,,,,,,,,,,,,,,,,
null,,learn_phase(without_color),901366,,,black_plus_sign,,,,,null,US_Cities_List/boulder.png,US_Cities_List/cornwall.png,,,,,,,,,,,,,,,,,,
null,,black_cross(without_color),901905,,,yellow,,,,,null,US_Cities_List/boulder.png,US_Cities_List/cornwall.png,,,,,,,,,,,,,,,,,,
null,,rt_plussign_withcolor,902407,,,yellow,,,,,null,US_Cities_List/boulder.png,US_Cities_List/cornwall.png,,,,,,,,,,,,,,,,,,
1369.7999999998137,,rt_thecrossant_black,903872,,,black_plus_sign,,,,,50,,,1,0.8913043478260869,,,,,,,,,,,,,,,,
null,,color_black,903974,,,black_plus_sign,,,,,null,,,,,,,,,,,,,,,,,,,,
null,,learn_phase(without_color),906990,,,black_plus_sign,,,,,null,US_Cities_List/peoria.png,US_Cities_List/hanover.png,,,,,,,,,,,,,,,,,,
null,,black_cross(without_color),907716,,,yellow,,,,,null,US_Cities_List/peoria.png,US_Cities_List/hanover.png,,,,,,,,,,,,,,,,,,
null,,rt_plussign_withcolor,908217,,,yellow,,,,,null,US_Cities_List/peoria.png,US_Cities_List/hanover.png,,,,,,,,,,,,,,,,,,
865.0999999996275,,rt_thecrossant_black,909496,,,black_plus_sign,,,,,50,,,1,0.8924731182795699,,,,,,,,,,,,,,,,
null,,color_black,909597,,,black_plus_sign,,,,,null,,,,,,,,,,,,,,,,,,,,
null,,learn_phase(without_color),912614,,,black_plus_sign,,,,,null,US_Cities_List/hanover.png,US_Cities_List/peoria.png,,,,,,,,,,,,,,,,,,
null,,black_cross(without_color),913375,,,yellow,,,,,null,US_Cities_List/hanover.png,US_Cities_List/peoria.png,,,,,,,,,,,,,,,,,,
null,,rt_plussign_withcolor,913877,,,yellow,,,,,null,US_Cities_List/hanover.png,US_Cities_List/peoria.png,,,,,,,,,,,,,,,,,,
840.1999999992549,,rt_thecrossant_black,915121,,,black_plus_sign,,,,,50,,,1,0.8936170212765957,,,,,,,,,,,,,,,,
null,,color_black,915224,,,black_plus_sign,,,,,null,,,,,,,,,,,,,,,,,,,,
null,,learn_phase(without_color),918235,,,black_plus_sign,,,,,null,US_Cities_List/huntsville.png,US_Cities_List/shreveport.png,,,,,,,,,,,,,,,,,,
null,,black_cross(without_color),919148,,,yellow,,,,,null,US_Cities_List/huntsville.png,US_Cities_List/shreveport.png,,,,,,,,,,,,,,,,,,
null,,rt_plussign_withcolor,919650,,,yellow,,,,,null,US_Cities_List/huntsville.png,US_Cities_List/shreveport.png,,,,,,,,,,,,,,,,,,
949.7999999998137,,rt_thecrossant_black,920743,,,black_plus_sign,,,,,50,,,1,0.8947368421052632,,,,,,,,,,,,,,,,
null,,color_black,920846,,,black_plus_sign,,,,,null,,,,,,,,,,,,,,,,,,,,
null,,learn_phase(without_color),923861,,,black_plus_sign,,,,,null,US_Cities_List/boulder.png,US_Cities_List/newhope.png,,,,,,,,,,,,,,,,,,
null,,black_cross(without_color),924613,,,yellow,,,,,null,US_Cities_List/boulder.png,US_Cities_List/newhope.png,,,,,,,,,,,,,,,,,,
null,,rt_plussign_withcolor,925115,,,yellow,,,,,null,US_Cities_List/boulder.png,US_Cities_List/newhope.png,,,,,,,,,,,,,,,,,,
1410.5999999996275,,rt_thecrossant_black,926368,,,black_plus_sign,,,,,50,,,1,0.8958333333333334,,,,,,,,,,,,,,,,
null,,color_black,926471,,,black_plus_sign,,,,,null,,,,,,,,,,,,,,,,,,,,
null,,learn_phase(without_color),929485,,,black_plus_sign,,,,,null,US_Cities_List/peoria.png,US_Cities_List/hanover.png,,,,,,,,,,,,,,,,,,
null,,black_cross(without_color),930408,,,yellow,,,,,null,US_Cities_List/peoria.png,US_Cities_List/hanover.png,,,,,,,,,,,,,,,,,,
416,,rt_plussign_withcolor,930910,,,yellow,,,,,50,US_Cities_List/peoria.png,US_Cities_List/hanover.png,,,,,,,,,,,,,,,,,,
null,,rt_thecrossant_black,931991,,,black_plus_sign,,,,,null,,,1,0.8969072164948454,,,,,,,,,,,,,,,,
null,,color_black,932093,,,black_plus_sign,,,,,null,,,,,,,,,,,,,,,,,,,,
null,,learn_phase(without_color),935115,,,black_plus_sign,,,,,null,US_Cities_List/boulder.png,US_Cities_List/cornwall.png,,,,,,,,,,,,,,,,,,
null,,black_cross(without_color),936017,,,blue,,,,,null,US_Cities_List/boulder.png,US_Cities_List/cornwall.png,,,,,,,,,,,,,,,,,,
null,,rt_plussign_withcolor,936519,,,blue,,,,,null,US_Cities_List/boulder.png,US_Cities_List/cornwall.png,,,,,,,,,,,,,,,,,,
1666.2000000001863,,rt_thecrossant_black,937622,,,black_plus_sign,,,,,49,,,1,0.8979591836734694,,,,,,,,,,,,,,,,
null,,color_black,937724,,,black_plus_sign,,,,,null,,,,,,,,,,,,,,,,,,,,
null,,learn_phase(without_color),940739,,,black_plus_sign,,,,,null,US_Cities_List/hanover.png,US_Cities_List/leesburg.png,,,,,,,,,,,,,,,,,,
null,,black_cross(without_color),941703,,,blue,,,,,null,US_Cities_List/hanover.png,US_Cities_List/leesburg.png,,,,,,,,,,,,,,,,,,
null,,rt_plussign_withcolor,942205,,,blue,,,,,null,US_Cities_List/hanover.png,US_Cities_List/leesburg.png,,,,,,,,,,,,,,,,,,
1359.5,,rt_thecrossant_black,943247,,,black_plus_sign,,,,,49,,,1,0.898989898989899,,,,,,,,,,,,,,,,
null,,color_black,943350,,,black_plus_sign,,,,,null,,,,,,,,,,,,,,,,,,,,
null,,learn_phase(without_color),946366,,,black_plus_sign,,,,,null,US_Cities_List/westpalmbeach.png,US_Cities_List/shreveport.png,,,,,,,,,,,,,,,,,,
null,,black_cross(without_color),947467,,,yellow,,,,,null,US_Cities_List/westpalmbeach.png,US_Cities_List/shreveport.png,,,,,,,,,,,,,,,,,,
null,,rt_plussign_withcolor,947972,,,yellow,,,,,null,US_Cities_List/westpalmbeach.png,US_Cities_List/shreveport.png,,,,,,,,,,,,,,,,,,
1242.7000000001863,,rt_thecrossant_black,948875,,,black_plus_sign,,,,,50,,,1,0.9,,,,,,,,,,,,,,,,
null,,color_black,948977,,,black_plus_sign,,,,,null,,,,,,,,,,,,,,,,,,,,
null,,learn_phase(without_color),951998,,,black_plus_sign,,,,,null,US_Cities_List/boulder.png,US_Cities_List/newhope.png,,,,,,,,,,,,,,,,,,
null,,black_cross(without_color),952468,,,blue,,,,,null,US_Cities_List/boulder.png,US_Cities_List/newhope.png,,,,,,,,,,,,,,,,,,
null,,rt_plussign_withcolor,952970,,,blue,,,,,null,US_Cities_List/boulder.png,US_Cities_List/newhope.png,,,,,,,,,,,,,,,,,,
1488.2999999998137,,rt_thecrossant_black,954504,,,black_plus_sign,,,,,49,,,1,0.900990099009901,,,,,,,,,,,,,,,,
null,,color_black,954606,,,black_plus_sign,,,,,null,,,,,,,,,,,,,,,,,,,,
null,,learn_phase(without_color),957624,,,black_plus_sign,,,,,null,US_Cities_List/racine.png,US_Cities_List/gatlinburg.png,,,,,,,,,,,,,,,,,,
null,,black_cross(without_color),958703,,,yellow,,,,,null,US_Cities_List/racine.png,US_Cities_List/gatlinburg.png,,,,,,,,,,,,,,,,,,
null,,rt_plussign_withcolor,959205,,,yellow,,,,,null,US_Cities_List/racine.png,US_Cities_List/gatlinburg.png,,,,,,,,,,,,,,,,,,
709.2000000001863,,rt_thecrossant_black,960128,,,black_plus_sign,,,,,50,,,1,0.9019607843137255,,,,,,,,,,,,,,,,
null,,color_black,960230,,,black_plus_sign,,,,,null,,,,,,,,,,,,,,,,,,,,
null,,learn_phase(without_color),963245,,,black_plus_sign,,,,,null,US_Cities_List/boulder.png,US_Cities_List/hanover.png,,,,,,,,,,,,,,,,,,
null,,black_cross(without_color),964243,,,yellow,,,,,null,US_Cities_List/boulder.png,US_Cities_List/hanover.png,,,,,,,,,,,,,,,,,,
null,,rt_plussign_withcolor,964744,,,yellow,,,,,null,US_Cities_List/boulder.png,US_Cities_List/hanover.png,,,,,,,,,,,,,,,,,,
1872.4000000003725,,rt_thecrossant_black,965752,,,black_plus_sign,,,,,50,,,1,0.9029126213592233,,,,,,,,,,,,,,,,
null,,color_black,965859,,,black_plus_sign,,,,,null,,,,,,,,,,,,,,,,,,,,
null,,learn_phase(without_color),968880,,,black_plus_sign,,,,,null,US_Cities_List/boulder.png,US_Cities_List/cornwall.png,,,,,,,,,,,,,,,,,,
null,,black_cross(without_color),969579,,,yellow,,,,,null,US_Cities_List/boulder.png,US_Cities_List/cornwall.png,,,,,,,,,,,,,,,,,,
364.59999999962747,,rt_plussign_withcolor,970081,,,yellow,,,,,50,US_Cities_List/boulder.png,US_Cities_List/cornwall.png,,,,,,,,,,,,,,,,,,
null,,rt_thecrossant_black,971387,,,black_plus_sign,,,,,null,,,1,0.9038461538461539,,,,,,,,,,,,,,,,
null,,color_black,971490,,,black_plus_sign,,,,,null,,,,,,,,,,,,,,,,,,,,
null,,learn_phase(without_color),974503,,,black_plus_sign,,,,,null,US_Cities_List/boulder.png,US_Cities_List/newhope.png,,,,,,,,,,,,,,,,,,
null,,black_cross(without_color),975515,,,yellow,,,,,null,US_Cities_List/boulder.png,US_Cities_List/newhope.png,,,,,,,,,,,,,,,,,,
null,,rt_plussign_withcolor,976017,,,yellow,,,,,null,US_Cities_List/boulder.png,US_Cities_List/newhope.png,,,,,,,,,,,,,,,,,,
944.7000000001863,,rt_thecrossant_black,977009,,,black_plus_sign,,,,,50,,,1,0.9047619047619048,,,,,,,,,,,,,,,,
null,,color_black,977112,,,black_plus_sign,,,,,null,,,,,,,,,,,,,,,,,,,,
null,,learn_phase(without_color),980128,,,black_plus_sign,,,,,null,US_Cities_List/westpalmbeach.png,US_Cities_List/peoria.png,,,,,,,,,,,,,,,,,,
null,,black_cross(without_color),980847,,,yellow,,,,,null,US_Cities_List/westpalmbeach.png,US_Cities_List/peoria.png,,,,,,,,,,,,,,,,,,
null,,rt_plussign_withcolor,981349,,,yellow,,,,,null,US_Cities_List/westpalmbeach.png,US_Cities_List/peoria.png,,,,,,,,,,,,,,,,,,
1377.2999999998137,,rt_thecrossant_black,982634,,,black_plus_sign,,,,,50,,,1,0.9056603773584906,,,,,,,,,,,,,,,,
null,,color_black,982736,,,black_plus_sign,,,,,null,,,,,,,,,,,,,,,,,,,,
null,,learn_phase(without_color),985752,,,black_plus_sign,,,,,null,US_Cities_List/boulder.png,US_Cities_List/hanover.png,,,,,,,,,,,,,,,,,,
null,,black_cross(without_color),986751,,,yellow,,,,,null,US_Cities_List/boulder.png,US_Cities_List/hanover.png,,,,,,,,,,,,,,,,,,
null,,rt_plussign_withcolor,987253,,,yellow,,,,,null,US_Cities_List/boulder.png,US_Cities_List/hanover.png,,,,,,,,,,,,,,,,,,
1223.8999999994412,,rt_thecrossant_black,988259,,,black_plus_sign,,,,,50,,,1,0.9065420560747663,,,,,,,,,,,,,,,,
null,,color_black,988362,,,black_plus_sign,,,,,null,,,,,,,,,,,,,,,,,,,,
null,,learn_phase(without_color),991382,,,black_plus_sign,,,,,null,US_Cities_List/peoria.png,US_Cities_List/hanover.png,,,,,,,,,,,,,,,,,,
null,,black_cross(without_color),991859,,,yellow,,,,,null,US_Cities_List/peoria.png,US_Cities_List/hanover.png,,,,,,,,,,,,,,,,,,
null,,rt_plussign_withcolor,992361,,,yellow,,,,,null,US_Cities_List/peoria.png,US_Cities_List/hanover.png,,,,,,,,,,,,,,,,,,
1195.7999999998137,,rt_thecrossant_black,993888,,,black_plus_sign,,,,,50,,,1,0.9074074074074074,,,,,,,,,,,,,,,,
null,,color_black,993990,,,black_plus_sign,,,,,null,,,,,,,,,,,,,,,,,,,,
null,,learn_phase(without_color),997007,,,black_plus_sign,,,,,null,US_Cities_List/boulder.png,US_Cities_List/newhope.png,,,,,,,,,,,,,,,,,,
null,,black_cross(without_color),997916,,,yellow,,,,,null,US_Cities_List/boulder.png,US_Cities_List/newhope.png,,,,,,,,,,,,,,,,,,
484.5,,rt_plussign_withcolor,998417,,,yellow,,,,,50,US_Cities_List/boulder.png,US_Cities_List/newhope.png,,,,,,,,,,,,,,,,,,
null,,rt_thecrossant_black,999513,,,black_plus_sign,,,,,null,,,1,0.908256880733945,,,,,,,,,,,,,,,,
null,,color_black,999614,,,black_plus_sign,,,,,null,,,,,,,,,,,,,,,,,,,,
null,,learn_phase(without_color),1002631,,,black_plus_sign,,,,,null,US_Cities_List/leesburg.png,US_Cities_List/hanover.png,,,,,,,,,,,,,,,,,,
null,,black_cross(without_color),1003366,,,yellow,,,,,null,US_Cities_List/leesburg.png,US_Cities_List/hanover.png,,,,,,,,,,,,,,,,,,
null,,rt_plussign_withcolor,1003868,,,yellow,,,,,null,US_Cities_List/leesburg.png,US_Cities_List/hanover.png,,,,,,,,,,,,,,,,,,
1201.0999999996275,,rt_thecrossant_black,1005136,,,black_plus_sign,,,,,50,,,1,0.9090909090909091,,,,,,,,,,,,,,,,
null,,color_black,1005239,,,black_plus_sign,,,,,null,,,,,,,,,,,,,,,,,,,,
null,,learn_phase(without_color),1008254,,,black_plus_sign,,,,,null,US_Cities_List/boulder.png,US_Cities_List/hanover.png,,,,,,,,,,,,,,,,,,
null,,black_cross(without_color),1009140,,,yellow,,,,,null,US_Cities_List/boulder.png,US_Cities_List/hanover.png,,,,,,,,,,,,,,,,,,
null,,rt_plussign_withcolor,1009641,,,yellow,,,,,null,US_Cities_List/boulder.png,US_Cities_List/hanover.png,,,,,,,,,,,,,,,,,,
839,,rt_thecrossant_black,1010759,,,black_plus_sign,,,,,50,,,1,0.9099099099099099,,,,,,,,,,,,,,,,
null,,color_black,1010862,,,black_plus_sign,,,,,null,,,,,,,,,,,,,,,,,,,,
null,,learn_phase(without_color),1013880,,,black_plus_sign,,,,,null,US_Cities_List/peoria.png,US_Cities_List/racine.png,,,,,,,,,,,,,,,,,,
null,,black_cross(without_color),1014342,,,yellow,,,,,null,US_Cities_List/peoria.png,US_Cities_List/racine.png,,,,,,,,,,,,,,,,,,
420.30000000074506,,rt_plussign_withcolor,1014843,,,yellow,,,,,50,US_Cities_List/peoria.png,US_Cities_List/racine.png,,,,,,,,,,,,,,,,,,
null,,rt_thecrossant_black,1016394,,,black_plus_sign,,,,,null,,,1,0.9107142857142857,,,,,,,,,,,,,,,,
null,,color_black,1016497,,,black_plus_sign,,,,,null,,,,,,,,,,,,,,,,,,,,
null,,learn_phase(without_color),1019518,,,black_plus_sign,,,,,null,US_Cities_List/boulder.png,US_Cities_List/cornwall.png,,,,,,,,,,,,,,,,,,
null,,black_cross(without_color),1020198,,,yellow,,,,,null,US_Cities_List/boulder.png,US_Cities_List/cornwall.png,,,,,,,,,,,,,,,,,,
363.8999999994412,,rt_plussign_withcolor,1020699,,,yellow,,,,,50,US_Cities_List/boulder.png,US_Cities_List/cornwall.png,,,,,,,,,,,,,,,,,,
null,,rt_thecrossant_black,1022025,,,black_plus_sign,,,,,null,,,1,0.911504424778761,,,,,,,,,,,,,,,,
null,,color_black,1022127,,,black_plus_sign,,,,,null,,,,,,,,,,,,,,,,,,,,
null,,learn_phase(without_color),1025145,,,black_plus_sign,,,,,null,US_Cities_List/cornwall.png,US_Cities_List/boulder.png,,,,,,,,,,,,,,,,,,
null,,black_cross(without_color),1026105,,,blue,,,,,null,US_Cities_List/cornwall.png,US_Cities_List/boulder.png,,,,,,,,,,,,,,,,,,
null,,rt_plussign_withcolor,1026607,,,blue,,,,,null,US_Cities_List/cornwall.png,US_Cities_List/boulder.png,,,,,,,,,,,,,,,,,,
1264.7000000001863,,rt_thecrossant_black,1027652,,,black_plus_sign,,,,,49,,,1,0.9122807017543859,,,,,,,,,,,,,,,,
null,,color_black,1027753,,,black_plus_sign,,,,,null,,,,,,,,,,,,,,,,,,,,
null,,learn_phase(without_color),1030770,,,black_plus_sign,,,,,null,US_Cities_List/racine.png,US_Cities_List/peoria.png,,,,,,,,,,,,,,,,,,
null,,black_cross(without_color),1031401,,,yellow,,,,,null,US_Cities_List/racine.png,US_Cities_List/peoria.png,,,,,,,,,,,,,,,,,,
null,,rt_plussign_withcolor,1031902,,,yellow,,,,,null,US_Cities_List/racine.png,US_Cities_List/peoria.png,,,,,,,,,,,,,,,,,,
null,,rt_thecrossant_black,1033276,,,black_plus_sign,,,,,null,,,,0.9122807017543859,,,,,,,,,,,,,,,,
null,,color_black,1033378,,,black_plus_sign,,,,,null,,,,,,,,,,,,,,,,,,,,
null,,learn_phase(without_color),1036395,,,black_plus_sign,,,,,null,US_Cities_List/newhope.png,US_Cities_List/boulder.png,,,,,,,,,,,,,,,,,,
null,,black_cross(without_color),1037279,,,blue,,,,,null,US_Cities_List/newhope.png,US_Cities_List/boulder.png,,,,,,,,,,,,,,,,,,
null,,rt_plussign_withcolor,1037781,,,blue,,,,,null,US_Cities_List/newhope.png,US_Cities_List/boulder.png,,,,,,,,,,,,,,,,,,
892,,rt_thecrossant_black,1038901,,,black_plus_sign,,,,,49,,,1,0.9130434782608695,,,,,,,,,,,,,,,,
null,,color_black,1039003,,,black_plus_sign,,,,,null,,,,,,,,,,,,,,,,,,,,
null,,learn_phase(without_color),1042015,,,black_plus_sign,,,,,null,US_Cities_List/huntsville.png,US_Cities_List/shreveport.png,,,,,,,,,,,,,,,,,,
null,,black_cross(without_color),1042970,,,yellow,,,,,null,US_Cities_List/huntsville.png,US_Cities_List/shreveport.png,,,,,,,,,,,,,,,,,,
null,,rt_plussign_withcolor,1043472,,,yellow,,,,,null,US_Cities_List/huntsville.png,US_Cities_List/shreveport.png,,,,,,,,,,,,,,,,,,
1225.3999999994412,,rt_thecrossant_black,1044522,,,black_plus_sign,,,,,50,,,1,0.9137931034482759,,,,,,,,,,,,,,,,
null,,color_black,1044624,,,black_plus_sign,,,,,null,,,,,,,,,,,,,,,,,,,,
null,,learn_phase(without_color),1047642,,,black_plus_sign,,,,,null,US_Cities_List/gatlinburg.png,US_Cities_List/shreveport.png,,,,,,,,,,,,,,,,,,
null,,black_cross(without_color),1048403,,,yellow,,,,,null,US_Cities_List/gatlinburg.png,US_Cities_List/shreveport.png,,,,,,,,,,,,,,,,,,
457.70000000018626,,rt_plussign_withcolor,1048905,,,yellow,,,,,50,US_Cities_List/gatlinburg.png,US_Cities_List/shreveport.png,,,,,,,,,,,,,,,,,,
null,,rt_thecrossant_black,1050148,,,black_plus_sign,,,,,null,,,1,0.9145299145299145,,,,,,,,,,,,,,,,
null,,color_black,1050250,,,black_plus_sign,,,,,null,,,,,,,,,,,,,,,,,,,,
null,,learn_phase(without_color),1053263,,,black_plus_sign,,,,,null,US_Cities_List/hanover.png,US_Cities_List/boulder.png,,,,,,,,,,,,,,,,,,
null,,black_cross(without_color),1054189,,,blue,,,,,null,US_Cities_List/hanover.png,US_Cities_List/boulder.png,,,,,,,,,,,,,,,,,,
null,,rt_plussign_withcolor,1054691,,,blue,,,,,null,US_Cities_List/hanover.png,US_Cities_List/boulder.png,,,,,,,,,,,,,,,,,,
948.8999999994412,,rt_thecrossant_black,1055770,,,black_plus_sign,,,,,49,,,1,0.9152542372881356,,,,,,,,,,,,,,,,
null,,color_black,1055873,,,black_plus_sign,,,,,null,,,,,,,,,,,,,,,,,,,,
null,,learn_phase(without_color),1058893,,,black_plus_sign,,,,,null,US_Cities_List/gatlinburg.png,US_Cities_List/shreveport.png,,,,,,,,,,,,,,,,,,
null,,black_cross(without_color),1059859,,,yellow,,,,,null,US_Cities_List/gatlinburg.png,US_Cities_List/shreveport.png,,,,,,,,,,,,,,,,,,
null,,rt_plussign_withcolor,1060361,,,yellow,,,,,null,US_Cities_List/gatlinburg.png,US_Cities_List/shreveport.png,,,,,,,,,,,,,,,,,,
1240.6000000005588,,rt_thecrossant_black,1061399,,,black_plus_sign,,,,,50,,,1,0.9159663865546218,,,,,,,,,,,,,,,,
null,,color_black,1061501,,,black_plus_sign,,,,,null,,,,,,,,,,,,,,,,,,,,
null,,learn_phase(without_color),1064521,,,black_plus_sign,,,,,null,US_Cities_List/racine.png,US_Cities_List/peoria.png,,,,,,,,,,,,,,,,,,
null,,black_cross(without_color),1065427,,,yellow,,,,,null,US_Cities_List/racine.png,US_Cities_List/peoria.png,,,,,,,,,,,,,,,,,,
null,,rt_plussign_withcolor,1065930,,,yellow,,,,,null,US_Cities_List/racine.png,US_Cities_List/peoria.png,,,,,,,,,,,,,,,,,,
1363.7999999998137,,rt_thecrossant_black,1067027,,,black_plus_sign,,,,,50,,,1,0.9166666666666666,,,,,,,,,,,,,,,,
null,,color_black,1067130,,,black_plus_sign,,,,,null,,,,,,,,,,,,,,,,,,,,
null,,learn_phase(without_color),1070147,,,black_plus_sign,,,,,null,US_Cities_List/boulder.png,US_Cities_List/newhope.png,,,,,,,,,,,,,,,,,,
null,,black_cross(without_color),1070613,,,yellow,,,,,null,US_Cities_List/boulder.png,US_Cities_List/newhope.png,,,,,,,,,,,,,,,,,,
null,,rt_plussign_withcolor,1071115,,,yellow,,,,,null,US_Cities_List/boulder.png,US_Cities_List/newhope.png,,,,,,,,,,,,,,,,,,
1037.699999999255,,rt_thecrossant_black,1072653,,,black_plus_sign,,,,,50,,,1,0.9173553719008265,,,,,,,,,,,,,,,,
null,,color_black,1072754,,,black_plus_sign,,,,,null,,,,,,,,,,,,,,,,,,,,
null,,learn_phase(without_color),1075771,,,black_plus_sign,,,,,null,US_Cities_List/peoria.png,US_Cities_List/westpalmbeach.png,,,,,,,,,,,,,,,,,,
null,,black_cross(without_color),1076770,,,blue,,,,,null,US_Cities_List/peoria.png,US_Cities_List/westpalmbeach.png,,,,,,,,,,,,,,,,,,
null,,rt_plussign_withcolor,1077272,,,blue,,,,,null,US_Cities_List/peoria.png,US_Cities_List/westpalmbeach.png,,,,,,,,,,,,,,,,,,
692.4000000003725,,rt_thecrossant_black,1078278,,,black_plus_sign,,,,,49,,,1,0.9180327868852459,,,,,,,,,,,,,,,,
null,,color_black,1078380,,,black_plus_sign,,,,,null,,,,,,,,,,,,,,,,,,,,
null,,learn_phase(without_color),1081406,,,black_plus_sign,,,,,null,US_Cities_List/newhope.png,US_Cities_List/westpalmbeach.png,,,,,,,,,,,,,,,,,,
null,,black_cross(without_color),1082371,,,yellow,,,,,null,US_Cities_List/newhope.png,US_Cities_List/westpalmbeach.png,,,,,,,,,,,,,,,,,,
null,,rt_plussign_withcolor,1082873,,,yellow,,,,,null,US_Cities_List/newhope.png,US_Cities_List/westpalmbeach.png,,,,,,,,,,,,,,,,,,
1223.6000000005588,,rt_thecrossant_black,1083913,,,black_plus_sign,,,,,50,,,1,0.9186991869918699,,,,,,,,,,,,,,,,
null,,color_black,1084015,,,black_plus_sign,,,,,null,,,,,,,,,,,,,,,,,,,,
null,,learn_phase(without_color),1087035,,,black_plus_sign,,,,,null,US_Cities_List/boulder.png,US_Cities_List/cornwall.png,,,,,,,,,,,,,,,,,,
null,,black_cross(without_color),1087671,,,blue,,,,,null,US_Cities_List/boulder.png,US_Cities_List/cornwall.png,,,,,,,,,,,,,,,,,,
null,,rt_plussign_withcolor,1088174,,,blue,,,,,null,US_Cities_List/boulder.png,US_Cities_List/cornwall.png,,,,,,,,,,,,,,,,,,
1547.5,,rt_thecrossant_black,1089543,,,black_plus_sign,,,,,49,,,1,0.9193548387096774,,,,,,,,,,,,,,,,
null,,color_black,1089646,,,black_plus_sign,,,,,null,,,,,,,,,,,,,,,,,,,,
null,,learn_phase(without_color),1092662,,,black_plus_sign,,,,,null,US_Cities_List/newhope.png,US_Cities_List/westpalmbeach.png,,,,,,,,,,,,,,,,,,
null,,black_cross(without_color),1093359,,,blue,,,,,null,US_Cities_List/newhope.png,US_Cities_List/westpalmbeach.png,,,,,,,,,,,,,,,,,,
null,,rt_plussign_withcolor,1093861,,,blue,,,,,null,US_Cities_List/newhope.png,US_Cities_List/westpalmbeach.png,,,,,,,,,,,,,,,,,,
1370.7000000001863,,rt_thecrossant_black,1095168,,,black_plus_sign,,,,,49,,,1,0.92,,,,,,,,,,,,,,,,
null,,color_black,1095272,,,black_plus_sign,,,,,null,,,,,,,,,,,,,,,,,,,,
null,,learn_phase(without_color),1098295,,,black_plus_sign,,,,,null,US_Cities_List/peoria.png,US_Cities_List/racine.png,,,,,,,,,,,,,,,,,,
null,,black_cross(without_color),1099287,,,blue,,,,,null,US_Cities_List/peoria.png,US_Cities_List/racine.png,,,,,,,,,,,,,,,,,,
null,,rt_plussign_withcolor,1099790,,,blue,,,,,null,US_Cities_List/peoria.png,US_Cities_List/racine.png,,,,,,,,,,,,,,,,,,
989.1000000005588,,rt_thecrossant_black,1100803,,,black_plus_sign,,,,,49,,,1,0.9206349206349206,,,,,,,,,,,,,,,,
null,,color_black,1100906,,,black_plus_sign,,,,,null,,,,,,,,,,,,,,,,,,,,
null,,learn_phase(without_color),1103931,,,black_plus_sign,,,,,null,US_Cities_List/boulder.png,US_Cities_List/cornwall.png,,,,,,,,,,,,,,,,,,
null,,black_cross(without_color),1104489,,,blue,,,,,null,US_Cities_List/boulder.png,US_Cities_List/cornwall.png,,,,,,,,,,,,,,,,,,
null,,rt_plussign_withcolor,1104990,,,blue,,,,,null,US_Cities_List/boulder.png,US_Cities_List/cornwall.png,,,,,,,,,,,,,,,,,,
1840,,rt_thecrossant_black,1106436,,,black_plus_sign,,,,,49,,,1,0.9212598425196851,,,,,,,,,,,,,,,,
null,,color_black,1106539,,,black_plus_sign,,,,,null,,,,,,,,,,,,,,,,,,,,
49453.60000000056,,learn_break,1155995,,,learn_break,,,,,32,,,,,,,,,,,,,,,,,,,,
11431.899999999441,,intro_1,1167428,,,instruct,,,0,,,,,,,,,,,,,,,,,,,,,,
18219,,intro_2,1185649,,,instruct,,,1,Next,,,,,,,,,,,,,,,,,,,,,
4006.7999999998137,,directmemory_phase,1189694,,,../static/images/US_Cities_List/leesburg.png,,,,,51,,,1,1,../static/images/US_Cities_List/gatlinburg.png,../static/images/US_Cities_List/cornwall.png,../static/images/US_Cities_List/carmel.png,../static/images/US_Cities_List/carmel.png,../static/images/US_Cities_List/cornwall.png,../static/images/US_Cities_List/gatlinburg.png,1,,,,,,,,,
null,,html-keyboard-response,1190699,,,<p></p>,,,,,null,,,,,,,,,,,,,,,,,,,,
2412.4000000003725,,directmemory_phase,1193137,,,../static/images/US_Cities_List/gatlinburg.png,,,,,50,,,1,1,../static/images/US_Cities_List/westpalmbeach.png,../static/images/US_Cities_List/racine.png,../static/images/US_Cities_List/hanover.png,../static/images/US_Cities_List/racine.png,../static/images/US_Cities_List/westpalmbeach.png,../static/images/US_Cities_List/hanover.png,1,,,,,,,,,
null,,html-keyboard-response,1194141,,,<p></p>,,,,,null,,,,,,,,,,,,,,,,,,,,
4965.899999999441,,directmemory_phase,1199132,,,../static/images/US_Cities_List/hanover.png,,,,,50,,,1,1,../static/images/US_Cities_List/cornwall.png,../static/images/US_Cities_List/boulder.png,../static/images/US_Cities_List/huntsville.png,../static/images/US_Cities_List/boulder.png,../static/images/US_Cities_List/cornwall.png,../static/images/US_Cities_List/huntsville.png,1,,,,,,,,,
null,,html-keyboard-response,1200136,,,<p></p>,,,,,null,,,,,,,,,,,,,,,,,,,,
4390.799999999814,,directmemory_phase,1204550,,,../static/images/US_Cities_List/huntsville.png,,,,,51,,,1,1,../static/images/US_Cities_List/racine.png,../static/images/US_Cities_List/westpalmbeach.png,../static/images/US_Cities_List/shreveport.png,../static/images/US_Cities_List/shreveport.png,../static/images/US_Cities_List/westpalmbeach.png,../static/images/US_Cities_List/racine.png,1,,,,,,,,,
null,,html-keyboard-response,1205555,,,<p></p>,,,,,null,,,,,,,,,,,,,,,,,,,,
4260.799999999814,,directmemory_phase,1209842,,,../static/images/US_Cities_List/boulder.png,,,,,50,,,1,1,../static/images/US_Cities_List/carmel.png,../static/images/US_Cities_List/leesburg.png,../static/images/US_Cities_List/gatlinburg.png,../static/images/US_Cities_List/leesburg.png,../static/images/US_Cities_List/carmel.png,../static/images/US_Cities_List/gatlinburg.png,1,,,,,,,,,
null,,html-keyboard-response,1210846,,,<p></p>,,,,,null,,,,,,,,,,,,,,,,,,,,
4818.4000000003725,,directmemory_phase,1215691,,,../static/images/US_Cities_List/shreveport.png,,,,,49,,,1,1,../static/images/US_Cities_List/gatlinburg.png,../static/images/US_Cities_List/cornwall.png,../static/images/US_Cities_List/hotsprings.png,../static/images/US_Cities_List/gatlinburg.png,../static/images/US_Cities_List/hotsprings.png,../static/images/US_Cities_List/cornwall.png,1,,,,,,,,,
null,,html-keyboard-response,1216695,,,<p></p>,,,,,null,,,,,,,,,,,,,,,,,,,,
3558.2999999998137,,directmemory_phase,1220281,,,../static/images/US_Cities_List/newhope.png,,,,,51,,,1,1,../static/images/US_Cities_List/hotsprings.png,../static/images/US_Cities_List/leesburg.png,../static/images/US_Cities_List/hanover.png,../static/images/US_Cities_List/hanover.png,../static/images/US_Cities_List/leesburg.png,../static/images/US_Cities_List/hotsprings.png,1,,,,,,,,,
null,,html-keyboard-response,1221286,,,<p></p>,,,,,null,,,,,,,,,,,,,,,,,,,,
1807,,directmemory_phase,1223117,,,../static/images/US_Cities_List/racine.png,,,,,49,,,1,1,../static/images/US_Cities_List/peoria.png,../static/images/US_Cities_List/boulder.png,../static/images/US_Cities_List/shreveport.png,../static/images/US_Cities_List/peoria.png,../static/images/US_Cities_List/shreveport.png,../static/images/US_Cities_List/boulder.png,1,,,,,,,,,
null,,html-keyboard-response,1224121,,,<p></p>,,,,,null,,,,,,,,,,,,,,,,,,,,
5226.9000000003725,,directmemory_phase,1229373,,,../static/images/US_Cities_List/newhope.png,,,,,49,,,1,1,../static/images/US_Cities_List/boulder.png,../static/images/US_Cities_List/carmel.png,../static/images/US_Cities_List/shreveport.png,../static/images/US_Cities_List/boulder.png,../static/images/US_Cities_List/shreveport.png,../static/images/US_Cities_List/carmel.png,1,,,,,,,,,
null,,html-keyboard-response,1230377,,,<p></p>,,,,,null,,,,,,,,,,,,,,,,,,,,
2512.800000000745,,directmemory_phase,1232920,,,../static/images/US_Cities_List/westpalmbeach.png,,,,,51,,,1,1,../static/images/US_Cities_List/cornwall.png,../static/images/US_Cities_List/gatlinburg.png,../static/images/US_Cities_List/shreveport.png,../static/images/US_Cities_List/shreveport.png,../static/images/US_Cities_List/gatlinburg.png,../static/images/US_Cities_List/cornwall.png,1,,,,,,,,,
null,,html-keyboard-response,1233935,,,<p></p>,,,,,null,,,,,,,,,,,,,,,,,,,,
5107,,directmemory_phase,1239068,,,../static/images/US_Cities_List/boulder.png,,,,,49,,,1,1,../static/images/US_Cities_List/newhope.png,../static/images/US_Cities_List/shreveport.png,../static/images/US_Cities_List/carmel.png,../static/images/US_Cities_List/newhope.png,../static/images/US_Cities_List/carmel.png,../static/images/US_Cities_List/shreveport.png,1,,,,,,,,,
null,,html-keyboard-response,1240073,,,<p></p>,,,,,null,,,,,,,,,,,,,,,,,,,,
2669.899999999441,,directmemory_phase,1242774,,,../static/images/US_Cities_List/gatlinburg.png,,,,,51,,,1,1,../static/images/US_Cities_List/newhope.png,../static/images/US_Cities_List/westpalmbeach.png,../static/images/US_Cities_List/shreveport.png,../static/images/US_Cities_List/shreveport.png,../static/images/US_Cities_List/westpalmbeach.png,../static/images/US_Cities_List/newhope.png,1,,,,,,,,,
null,,html-keyboard-response,1243779,,,<p></p>,,,,,null,,,,,,,,,,,,,,,,,,,,
2703.899999999441,,directmemory_phase,1246509,,,../static/images/US_Cities_List/westpalmbeach.png,,,,,51,,,1,1,../static/images/US_Cities_List/carmel.png,../static/images/US_Cities_List/racine.png,../static/images/US_Cities_List/peoria.png,../static/images/US_Cities_List/peoria.png,../static/images/US_Cities_List/racine.png,../static/images/US_Cities_List/carmel.png,1,,,,,,,,,
null,,html-keyboard-response,1247512,,,<p></p>,,,,,null,,,,,,,,,,,,,,,,,,,,
2515.5,,directmemory_phase,1250056,,,../static/images/US_Cities_List/leesburg.png,,,,,51,,,1,1,../static/images/US_Cities_List/westpalmbeach.png,../static/images/US_Cities_List/peoria.png,../static/images/US_Cities_List/boulder.png,../static/images/US_Cities_List/boulder.png,../static/images/US_Cities_List/peoria.png,../static/images/US_Cities_List/westpalmbeach.png,1,,,,,,,,,
null,,html-keyboard-response,1251060,,,<p></p>,,,,,null,,,,,,,,,,,,,,,,,,,,
3858.5999999996275,,directmemory_phase,1254941,,,../static/images/US_Cities_List/shreveport.png,,,,,50,,,1,1,../static/images/US_Cities_List/peoria.png,../static/images/US_Cities_List/huntsville.png,../static/images/US_Cities_List/cornwall.png,../static/images/US_Cities_List/huntsville.png,../static/images/US_Cities_List/peoria.png,../static/images/US_Cities_List/cornwall.png,1,,,,,,,,,
null,,html-keyboard-response,1255947,,,<p></p>,,,,,null,,,,,,,,,,,,,,,,,,,,
3856.9000000003725,,directmemory_phase,1259834,,,../static/images/US_Cities_List/newhope.png,,,,,51,,,1,1,../static/images/US_Cities_List/gatlinburg.png,../static/images/US_Cities_List/cornwall.png,../static/images/US_Cities_List/westpalmbeach.png,../static/images/US_Cities_List/westpalmbeach.png,../static/images/US_Cities_List/cornwall.png,../static/images/US_Cities_List/gatlinburg.png,1,,,,,,,,,
null,,html-keyboard-response,1260840,,,<p></p>,,,,,null,,,,,,,,,,,,,,,,,,,,
2594.2999999998137,,directmemory_phase,1263458,,,../static/images/US_Cities_List/peoria.png,,,,,51,,,1,1,../static/images/US_Cities_List/hotsprings.png,../static/images/US_Cities_List/leesburg.png,../static/images/US_Cities_List/racine.png,../static/images/US_Cities_List/racine.png,../static/images/US_Cities_List/leesburg.png,../static/images/US_Cities_List/hotsprings.png,1,,,,,,,,,
null,,html-keyboard-response,1264464,,,<p></p>,,,,,null,,,,,,,,,,,,,,,,,,,,
2063.7000000001863,,directmemory_phase,1266552,,,../static/images/US_Cities_List/boulder.png,,,,,49,,,1,1,../static/images/US_Cities_List/hanover.png,../static/images/US_Cities_List/racine.png,../static/images/US_Cities_List/carmel.png,../static/images/US_Cities_List/hanover.png,../static/images/US_Cities_List/carmel.png,../static/images/US_Cities_List/racine.png,1,,,,,,,,,
null,,html-keyboard-response,1267555,,,<p></p>,,,,,null,,,,,,,,,,,,,,,,,,,,
3067.600000000559,,directmemory_phase,1270655,,,../static/images/US_Cities_List/racine.png,,,,,51,,,1,1,../static/images/US_Cities_List/cornwall.png,../static/images/US_Cities_List/hotsprings.png,../static/images/US_Cities_List/gatlinburg.png,../static/images/US_Cities_List/gatlinburg.png,../static/images/US_Cities_List/hotsprings.png,../static/images/US_Cities_List/cornwall.png,1,,,,,,,,,
null,,html-keyboard-response,1271659,,,<p></p>,,,,,null,,,,,,,,,,,,,,,,,,,,
1873.7999999998137,,directmemory_phase,1273560,,,../static/images/US_Cities_List/shreveport.png,,,,,51,,,1,1,../static/images/US_Cities_List/boulder.png,../static/images/US_Cities_List/peoria.png,../static/images/US_Cities_List/westpalmbeach.png,../static/images/US_Cities_List/westpalmbeach.png,../static/images/US_Cities_List/peoria.png,../static/images/US_Cities_List/boulder.png,1,,,,,,,,,
null,,html-keyboard-response,1274566,,,<p></p>,,,,,null,,,,,,,,,,,,,,,,,,,,
2959.600000000559,,directmemory_phase,1277558,,,../static/images/US_Cities_List/leesburg.png,,,,,51,,,1,1,../static/images/US_Cities_List/westpalmbeach.png,../static/images/US_Cities_List/cornwall.png,../static/images/US_Cities_List/hanover.png,../static/images/US_Cities_List/hanover.png,../static/images/US_Cities_List/cornwall.png,../static/images/US_Cities_List/westpalmbeach.png,1,,,,,,,,,
null,,html-keyboard-response,1278562,,,<p></p>,,,,,null,,,,,,,,,,,,,,,,,,,,
1969.9000000003725,,directmemory_phase,1280563,,,../static/images/US_Cities_List/peoria.png,,,,,49,,,1,1,../static/images/US_Cities_List/westpalmbeach.png,../static/images/US_Cities_List/carmel.png,../static/images/US_Cities_List/boulder.png,../static/images/US_Cities_List/westpalmbeach.png,../static/images/US_Cities_List/boulder.png,../static/images/US_Cities_List/carmel.png,1,,,,,,,,,
null,,html-keyboard-response,1281567,,,<p></p>,,,,,null,,,,,,,,,,,,,,,,,,,,
2572.2000000001863,,directmemory_phase,1284160,,,../static/images/US_Cities_List/carmel.png,,,,,51,,,1,1,../static/images/US_Cities_List/peoria.png,../static/images/US_Cities_List/boulder.png,../static/images/US_Cities_List/leesburg.png,../static/images/US_Cities_List/leesburg.png,../static/images/US_Cities_List/boulder.png,../static/images/US_Cities_List/peoria.png,1,,,,,,,,,
null,,html-keyboard-response,1285163,,,<p></p>,,,,,null,,,,,,,,,,,,,,,,,,,,
2110.399999999441,,directmemory_phase,1287297,,,../static/images/US_Cities_List/hanover.png,,,,,51,,,0,0.9583333333333334,../static/images/US_Cities_List/cornwall.png,../static/images/US_Cities_List/peoria.png,../static/images/US_Cities_List/shreveport.png,../static/images/US_Cities_List/peoria.png,../static/images/US_Cities_List/cornwall.png,../static/images/US_Cities_List/shreveport.png,0.5,closer,,,,,,,,
null,,html-keyboard-response,1288301,,,<p></p>,,,,,null,,,,,,,,,,,,,,,,,,,,
1450.7999999998137,,directmemory_phase,1289776,,,../static/images/US_Cities_List/hotsprings.png,,,,,50,,,1,0.96,../static/images/US_Cities_List/racine.png,../static/images/US_Cities_List/gatlinburg.png,../static/images/US_Cities_List/newhope.png,../static/images/US_Cities_List/gatlinburg.png,../static/images/US_Cities_List/racine.png,../static/images/US_Cities_List/newhope.png,1,,,,,,,,,
null,,html-keyboard-response,1290780,,,<p></p>,,,,,null,,,,,,,,,,,,,,,,,,,,
1783.6000000005588,,directmemory_phase,1292585,,,../static/images/US_Cities_List/peoria.png,,,,,49,,,1,0.9615384615384616,../static/images/US_Cities_List/hanover.png,../static/images/US_Cities_List/carmel.png,../static/images/US_Cities_List/boulder.png,../static/images/US_Cities_List/hanover.png,../static/images/US_Cities_List/boulder.png,../static/images/US_Cities_List/carmel.png,1,,,,,,,,,
null,,html-keyboard-response,1293589,,,<p></p>,,,,,null,,,,,,,,,,,,,,,,,,,,
1242.5,,directmemory_phase,1294858,,,../static/images/US_Cities_List/gatlinburg.png,,,,,51,,,1,0.9629629629629629,../static/images/US_Cities_List/hanover.png,../static/images/US_Cities_List/westpalmbeach.png,../static/images/US_Cities_List/hotsprings.png,../static/images/US_Cities_List/hotsprings.png,../static/images/US_Cities_List/westpalmbeach.png,../static/images/US_Cities_List/hanover.png,1,,,,,,,,,
null,,html-keyboard-response,1295863,,,<p></p>,,,,,null,,,,,,,,,,,,,,,,,,,,
4145.300000000745,,directmemory_phase,1300034,,,../static/images/US_Cities_List/hanover.png,,,,,50,,,0,0.9285714285714286,../static/images/US_Cities_List/leesburg.png,../static/images/US_Cities_List/shreveport.png,../static/images/US_Cities_List/racine.png,../static/images/US_Cities_List/leesburg.png,../static/images/US_Cities_List/racine.png,../static/images/US_Cities_List/shreveport.png,0.5,closer,,,,,,,,
null,,html-keyboard-response,1301040,,,<p></p>,,,,,null,,,,,,,,,,,,,,,,,,,,
4891.0999999996275,,directmemory_phase,1305960,,,../static/images/US_Cities_List/cornwall.png,,,,,50,,,0,0.896551724137931,../static/images/US_Cities_List/boulder.png,../static/images/US_Cities_List/shreveport.png,../static/images/US_Cities_List/newhope.png,../static/images/US_Cities_List/boulder.png,../static/images/US_Cities_List/newhope.png,../static/images/US_Cities_List/shreveport.png,0.5,closer,,,,,,,,
null,,html-keyboard-response,1306965,,,<p></p>,,,,,null,,,,,,,,,,,,,,,,,,,,
1951.2999999998137,,directmemory_phase,1308945,,,../static/images/US_Cities_List/hanover.png,,,,,49,,,1,0.9,../static/images/US_Cities_List/newhope.png,../static/images/US_Cities_List/shreveport.png,../static/images/US_Cities_List/westpalmbeach.png,../static/images/US_Cities_List/newhope.png,../static/images/US_Cities_List/westpalmbeach.png,../static/images/US_Cities_List/shreveport.png,1,,,,,,,,,
null,,html-keyboard-response,1309949,,,<p></p>,,,,,null,,,,,,,,,,,,,,,,,,,,
1837.0999999996275,,directmemory_phase,1311816,,,../static/images/US_Cities_List/boulder.png,,,,,51,,,0,0.8709677419354839,../static/images/US_Cities_List/cornwall.png,../static/images/US_Cities_List/shreveport.png,../static/images/US_Cities_List/carmel.png,../static/images/US_Cities_List/cornwall.png,../static/images/US_Cities_List/carmel.png,../static/images/US_Cities_List/shreveport.png,0.5,closer,,,,,,,,
null,,html-keyboard-response,1312820,,,<p></p>,,,,,null,,,,,,,,,,,,,,,,,,,,
3091,,directmemory_phase,1315945,,,../static/images/US_Cities_List/westpalmbeach.png,,,,,49,,,1,0.875,../static/images/US_Cities_List/newhope.png,../static/images/US_Cities_List/carmel.png,../static/images/US_Cities_List/racine.png,../static/images/US_Cities_List/newhope.png,../static/images/US_Cities_List/racine.png,../static/images/US_Cities_List/carmel.png,1,,,,,,,,,
null,,html-keyboard-response,1316948,,,<p></p>,,,,,null,,,,,,,,,,,,,,,,,,,,
11718.899999999441,,intro_1,1328669,,,instruct,,,0,,,,,,,,,,,,,,,,,,,,,,
38792.5,,intro_2,1367464,,,instruct,,,1,Next,,,,,,,,,,,,,,,,,,,,,
10005,,intro_3,1377477,,,instruct,,,1,Next,,,,,,,,,,,,,,,,,,,,,
9080,,intro_4,1386559,,,instruct,,,1,Next,,,,,,,,,,,,,,,,,,,,,
17454.200000000186,,intro_5,1404014,,,instruct,,,1,Next,,,,,,,,,,,,,,,,,,,,,
7716.9000000003725,,intro_6,1411733,,,instruct,,,1,Next,,,,,,,,,,,,,,,,,,,,,
13819.800000000745,,intro_7,1425555,,,instruct,,,1,Next,,,,,,,,,,,,,,,,,,,,,
7688.700000000186,,intro_8,1433245,,,instruct,,,1,Next,,,,,,,,,,,,,,,,,,,,,
2531.199999999255,,intro_9,1435778,,,instruct,,,1,Next,,,,,,,,,,,,,,,,,,,,,
17429.89999999944,,intro_10,1453210,,,instruct,,,1,Next,,,,,,,,,,,,,,,,,,,,,
10587,,intro_11,1463799,,,instruct,,,1,Next,,,,,,,,,,,,,,,,,,,,,
null,,shortestpath_phase,1471320,,,../static/images/US_Cities_List/huntsville.png,,,,,null,../static/images/US_Cities_List/gatlinburg.png,../static/images/US_Cities_List/carmel.png,0,0,,,,../static/images/US_Cities_List/gatlinburg.png,,,,,Four Edge Diff,Two Edge Six Edge,,,,,,
null,,warning_page,1474325,,,warning,,,,,null,,,,,,,,,,,,,,,,,,,,
null,,html-keyboard-response,1475326,,,<p></p>,,,,,null,,,,,,,,,,,,,,,,,,,,
2486.699999999255,,shortestpath_phase,1477830,,,../static/images/US_Cities_List/racine.png,,,,,50,../static/images/US_Cities_List/leesburg.png,../static/images/US_Cities_List/westpalmbeach.png,1,0.5,,,,../static/images/US_Cities_List/westpalmbeach.png,,,,,One Edge Diff,Two Edge Three Edge,,,,,,
null,,html-keyboard-response,1478834,,,<p></p>,,,,,null,,,,,,,,,,,,,,,,,,,,
3138.5,,shortestpath_phase,1481994,,,../static/images/US_Cities_List/gatlinburg.png,,,,,50,../static/images/US_Cities_List/boulder.png,../static/images/US_Cities_List/newhope.png,1,0.6666666666666666,,,,../static/images/US_Cities_List/newhope.png,,,,,One Edge Diff,Three Edge Four Edge,,,,,,
null,,html-keyboard-response,1482999,,,<p></p>,,,,,null,,,,,,,,,,,,,,,,,,,,
2465.7000000001863,,shortestpath_phase,1485488,,,../static/images/US_Cities_List/cornwall.png,,,,,49,../static/images/US_Cities_List/huntsville.png,../static/images/US_Cities_List/carmel.png,0,0.5,,,,../static/images/US_Cities_List/carmel.png,,,,,Two Edge Diff,Three Edge Five Edge,,,,,,
null,,html-keyboard-response,1486492,,,<p></p>,,,,,null,,,,,,,,,,,,,,,,,,,,
2759.2999999998137,,shortestpath_phase,1489275,,,../static/images/US_Cities_List/gatlinburg.png,,,,,49,../static/images/US_Cities_List/westpalmbeach.png,../static/images/US_Cities_List/cornwall.png,1,0.6,,,,../static/images/US_Cities_List/westpalmbeach.png,,,,,Three Edge Diff,Two Edge Five Edge,,,,,,
null,,html-keyboard-response,1490279,,,<p></p>,,,,,null,,,,,,,,,,,,,,,,,,,,
2766.5,,shortestpath_phase,1493063,,,../static/images/US_Cities_List/boulder.png,,,,,49,../static/images/US_Cities_List/peoria.png,../static/images/US_Cities_List/hotsprings.png,1,0.6666666666666666,,,,../static/images/US_Cities_List/peoria.png,,,,,Three Edge Diff,Three Edge Six Edge,,,,,,
null,,html-keyboard-response,1494068,,,<p></p>,,,,,null,,,,,,,,,,,,,,,,,,,,
1905.2999999998137,,shortestpath_phase,1495997,,,../static/images/US_Cities_List/gatlinburg.png,,,,,49,../static/images/US_Cities_List/carmel.png,../static/images/US_Cities_List/huntsville.png,0,0.5714285714285714,,,,../static/images/US_Cities_List/huntsville.png,,,,,Three Edge Diff,Three Edge Six Edge,,,,,,
null,,html-keyboard-response,1497002,,,<p></p>,,,,,null,,,,,,,,,,,,,,,,,,,,
2610.7999999998137,,shortestpath_phase,1499636,,,../static/images/US_Cities_List/leesburg.png,,,,,50,../static/images/US_Cities_List/newhope.png,../static/images/US_Cities_List/hotsprings.png,0,0.5,,,,../static/images/US_Cities_List/newhope.png,,,,,Three Edge Diff,Three Edge Six Edge,,,,,,
null,,html-keyboard-response,1500641,,,<p></p>,,,,,null,,,,,,,,,,,,,,,,,,,,
2765.600000000559,,shortestpath_phase,1503436,,,../static/images/US_Cities_List/gatlinburg.png,,,,,49,../static/images/US_Cities_List/peoria.png,../static/images/US_Cities_List/cornwall.png,1,0.5555555555555556,,,,../static/images/US_Cities_List/peoria.png,,,,,Three Edge Diff,Two Edge Five Edge,,,,,,
null,,html-keyboard-response,1504440,,,<p></p>,,,,,null,,,,,,,,,,,,,,,,,,,,
1687.7999999998137,,shortestpath_phase,1506151,,,../static/images/US_Cities_List/huntsville.png,,,,,50,../static/images/US_Cities_List/cornwall.png,../static/images/US_Cities_List/carmel.png,0,0.5,,,,../static/images/US_Cities_List/cornwall.png,,,,,One Edge Diff,Five Edge Six Edge,,,,,,
null,,html-keyboard-response,1507156,,,<p></p>,,,,,null,,,,,,,,,,,,,,,,,,,,
