rt,responses,trial_type,time_elapsed,image_type,sequence,stimulus,cities,city_images,button_pressed,response,key_press,stimulus_left,stimulus_right,accuracy,cumulative_accuracy,stimulus_down_left,stimulus_down_mid,stimulus_down_right,stimulus_correct,stimulus_short,stimulus_far,weighted_accuracy,missedtrial,condition,specific_pairs,imgL_ID,imgR_ID,linedress,linedressed,detour_trial,linedressed_detor
6520.699999988079,{worker_id:5e1e5c3c80e02e1c36679187},id_enter,6526,fictional,interleaved,flights,Hawthorne Bluffs; Claywater; Hollendale; Orchard Bend; North Arroya; Sunmere; Baymarsh; New Verdan; Granton Ridge; Cedarwyn; Juniper Creek; Delaro Park; Riverlyn,US_Cities_List/shreveport.png; US_Cities_List/boulder.png; US_Cities_List/carmel.png; US_Cities_List/peoria.png; US_Cities_List/newhope.png; US_Cities_List/hotsprings.png; US_Cities_List/leesburg.png; US_Cities_List/racine.png; US_Cities_List/hanover.png; US_Cities_List/huntsville.png; US_Cities_List/gatlinburg.png; US_Cities_List/cornwall.png; US_Cities_List/westpalmbeach.png,,,,,,,,,,,,,,,,,,,,,,,
100455.90000000596,,fullscreen,106990,,,make_fullscreen,,,0,,,,,,,,,,,,,,,,,,,,,,
18226.90000000596,,intro_1,125291,,,instruct,,,0,,,,,,,,,,,,,,,,,,,,,,
9292.39999999106,,intro_2,134586,,,instruct,,,1,Next,,,,,,,,,,,,,,,,,,,,,
41550.70000000298,,intro_3,176141,,,instruct,,,1,Next,,,,,,,,,,,,,,,,,,,,,
12203,,intro_4,188347,,,instruct,,,1,Next,,,,,,,,,,,,,,,,,,,,,
9413,,intro_5,197763,,,instruct,,,1,Next,,,,,,,,,,,,,,,,,,,,,
37983.60000000894,,intro_6,235749,,,instruct,,,1,Next,,,,,,,,,,,,,,,,,,,,,
11732.40000000596,,intro_7,247483,,,instruct,,,1,Next,,,,,,,,,,,,,,,,,,,,,
null,,learn_prac_1,250489,,,lean_prac_1,,,,,null,,,,,,,,,,,,,,,,,,,,
null,,html-keyboard-response,251492,,,<p></p>,,,,,null,,,,,,,,,,,,,,,,,,,,
31721,,intro_1,283214,,,instruct,,,0,,,,,,,,,,,,,,,,,,,,,,
8477.199999988079,,intro_2,291694,,,instruct,,,1,Next,,,,,,,,,,,,,,,,,,,,,
null,,learn_prac_2,294708,,,lean_prac_2,,,,,null,,,,,,,,,,,,,,,,,,,,
null,,html-keyboard-response,295711,,,<p></p>,,,,,null,,,,,,,,,,,,,,,,,,,,
531253.900000006,,intro_1,828406,,,instruct,,,0,,,,,,,,,,,,,,,,,,,,,,
7589.0999999940395,,intro_2,835997,,,instruct,,,1,Next,,,,,,,,,,,,,,,,,,,,,
1908784.200000003,,intro_3,2744784,,,instruct,,,1,Next,,,,,,,,,,,,,,,,,,,,,
null,,prac_atten_color_black,2745467,,,black_plus_sign,,,,,null,,,,,,,,,,,,,,,,,,,,
null,,prac_atten_color,2746192,,,prac_stop_color,,,,,null,,,,,,,,,,,,,,,,,,,,
363.5,,prac_atten_color_black,2748194,,,black_plus_sign,,,,,49,,,,,,,,,,,,,,,,,,,,
null,,prac_atten_color_black,2748877,,,black_plus_sign,,,,,null,,,,,,,,,,,,,,,,,,,,
null,,prac_atten_color,2749549,,,prac_stop_color,,,,,null,,,,,,,,,,,,,,,,,,,,
303.19999998807907,,prac_atten_color_black,2751551,,,black_plus_sign,,,,,50,,,,,,,,,,,,,,,,,,,,
null,,prac_atten_color_black,2752283,,,black_plus_sign,,,,,null,,,,,,,,,,,,,,,,,,,,
713.7000000029802,,prac_atten_color,2753342,,,prac_stop_color,,,,,50,,,,,,,,,,,,,,,,,,,,
null,,prac_atten_color_black,2755346,,,black_plus_sign,,,,,null,,,,,,,,,,,,,,,,,,,,
null,,prac_atten_color_black,2755692,,,black_plus_sign,,,,,null,,,,,,,,,,,,,,,,,,,,
687.8999999910593,,prac_atten_color,2756466,,,prac_stop_color,,,,,49,,,,,,,,,,,,,,,,,,,,
null,,prac_atten_color_black,2758468,,,black_plus_sign,,,,,null,,,,,,,,,,,,,,,,,,,,
null,,prac_atten_color_black,2759099,,,black_plus_sign,,,,,null,,,,,,,,,,,,,,,,,,,,
null,,prac_atten_color,2759787,,,prac_stop_color,,,,,null,,,,,,,,,,,,,,,,,,,,
57.5,,prac_atten_color_black,2761804,,,black_plus_sign,,,,,50,,,,,,,,,,,,,,,,,,,,
null,,prac_atten_color_black,2762532,,,black_plus_sign,,,,,null,,,,,,,,,,,,,,,,,,,,
718.0999999940395,,prac_atten_color,2763288,,,prac_stop_color,,,,,50,,,,,,,,,,,,,,,,,,,,
null,,prac_atten_color_black,2765290,,,black_plus_sign,,,,,null,,,,,,,,,,,,,,,,,,,,
null,,prac_atten_color_black,2765941,,,black_plus_sign,,,,,null,,,,,,,,,,,,,,,,,,,,
null,,prac_atten_color,2766521,,,prac_stop_color,,,,,null,,,,,,,,,,,,,,,,,,,,
167.70000000298023,,prac_atten_color_black,2768523,,,black_plus_sign,,,,,49,,,,,,,,,,,,,,,,,,,,
null,,prac_atten_color_black,2769350,,,black_plus_sign,,,,,null,,,,,,,,,,,,,,,,,,,,
null,,prac_atten_color,2770045,,,prac_stop_color,,,,,null,,,,,,,,,,,,,,,,,,,,
19.299999997019768,,prac_atten_color_black,2772056,,,black_plus_sign,,,,,50,,,,,,,,,,,,,,,,,,,,
null,,prac_atten_color_black,2772774,,,black_plus_sign,,,,,null,,,,,,,,,,,,,,,,,,,,
800,,prac_atten_color,2773791,,,prac_stop_color,,,,,49,,,,,,,,,,,,,,,,,,,,
null,,prac_atten_color_black,2775799,,,black_plus_sign,,,,,null,,,,,,,,,,,,,,,,,,,,
null,,prac_atten_color_black,2776189,,,black_plus_sign,,,,,null,,,,,,,,,,,,,,,,,,,,
839.5,,prac_atten_color,2777071,,,prac_stop_color,,,,,49,,,,,,,,,,,,,,,,,,,,
null,,prac_atten_color_black,2779073,,,black_plus_sign,,,,,null,,,,,,,,,,,,,,,,,,,,
8286.59999999404,,attentioncheck_feedback,2787362,,,cross_check_feedback,,,0,,,,,,,,,,,,,,,,,,,,,,
9135.20000000298,,last_instruct,2796499,,,instruct,,,,,32,,,,,,,,,,,,,,,,,,,,
null,,learn_phase(without_color),2799522,,,black_plus_sign,,,,,null,US_Cities_List/boulder.png,US_Cities_List/peoria.png,,,,,,,,,,,,,,,,,,
null,,black_cross(without_color),2800245,,,blue,,,,,null,US_Cities_List/boulder.png,US_Cities_List/peoria.png,,,,,,,,,,,,,,,,,,
null,,rt_plussign_withcolor,2800747,,,blue,,,,,null,US_Cities_List/boulder.png,US_Cities_List/peoria.png,,,,,,,,,,,,,,,,,,
1216.5,,rt_thecrossant_black,2802030,,,black_plus_sign,,,,,49,,,1,1,,,,,,,,,,,,,,,,
null,,color_black,2802133,,,black_plus_sign,,,,,null,,,,,,,,,,,,,,,,,,,,
null,,learn_phase(without_color),2805161,,,black_plus_sign,,,,,null,US_Cities_List/leesburg.png,US_Cities_List/westpalmbeach.png,,,,,,,,,,,,,,,,,,
null,,black_cross(without_color),2805764,,,yellow,,,,,null,US_Cities_List/leesburg.png,US_Cities_List/westpalmbeach.png,,,,,,,,,,,,,,,,,,
null,,rt_plussign_withcolor,2806266,,,yellow,,,,,null,US_Cities_List/leesburg.png,US_Cities_List/westpalmbeach.png,,,,,,,,,,,,,,,,,,
876.6000000089407,,rt_thecrossant_black,2807679,,,black_plus_sign,,,,,50,,,1,1,,,,,,,,,,,,,,,,
null,,color_black,2807781,,,black_plus_sign,,,,,null,,,,,,,,,,,,,,,,,,,,
null,,learn_phase(without_color),2810815,,,black_plus_sign,,,,,null,US_Cities_List/leesburg.png,US_Cities_List/racine.png,,,,,,,,,,,,,,,,,,
null,,black_cross(without_color),2811669,,,yellow,,,,,null,US_Cities_List/leesburg.png,US_Cities_List/racine.png,,,,,,,,,,,,,,,,,,
null,,rt_plussign_withcolor,2812182,,,yellow,,,,,null,US_Cities_List/leesburg.png,US_Cities_List/racine.png,,,,,,,,,,,,,,,,,,
1466.5,,rt_thecrossant_black,2813332,,,black_plus_sign,,,,,50,,,1,1,,,,,,,,,,,,,,,,
null,,color_black,2813434,,,black_plus_sign,,,,,null,,,,,,,,,,,,,,,,,,,,
null,,learn_phase(without_color),2816451,,,black_plus_sign,,,,,null,US_Cities_List/newhope.png,US_Cities_List/peoria.png,,,,,,,,,,,,,,,,,,
null,,black_cross(without_color),2817252,,,blue,,,,,null,US_Cities_List/newhope.png,US_Cities_List/peoria.png,,,,,,,,,,,,,,,,,,
null,,rt_plussign_withcolor,2817755,,,blue,,,,,null,US_Cities_List/newhope.png,US_Cities_List/peoria.png,,,,,,,,,,,,,,,,,,
1316.0999999940395,,rt_thecrossant_black,2818960,,,black_plus_sign,,,,,49,,,1,1,,,,,,,,,,,,,,,,
null,,color_black,2819063,,,black_plus_sign,,,,,null,,,,,,,,,,,,,,,,,,,,
null,,learn_phase(without_color),2822094,,,black_plus_sign,,,,,null,US_Cities_List/gatlinburg.png,US_Cities_List/cornwall.png,,,,,,,,,,,,,,,,,,
null,,black_cross(without_color),2822781,,,yellow,,,,,null,US_Cities_List/gatlinburg.png,US_Cities_List/cornwall.png,,,,,,,,,,,,,,,,,,
null,,rt_plussign_withcolor,2823283,,,yellow,,,,,null,US_Cities_List/gatlinburg.png,US_Cities_List/cornwall.png,,,,,,,,,,,,,,,,,,
1221.1000000089407,,rt_thecrossant_black,2824602,,,black_plus_sign,,,,,50,,,1,1,,,,,,,,,,,,,,,,
null,,color_black,2824705,,,black_plus_sign,,,,,null,,,,,,,,,,,,,,,,,,,,
null,,learn_phase(without_color),2827723,,,black_plus_sign,,,,,null,US_Cities_List/hanover.png,US_Cities_List/leesburg.png,,,,,,,,,,,,,,,,,,
null,,black_cross(without_color),2828512,,,yellow,,,,,null,US_Cities_List/hanover.png,US_Cities_List/leesburg.png,,,,,,,,,,,,,,,,,,
null,,rt_plussign_withcolor,2829014,,,yellow,,,,,null,US_Cities_List/hanover.png,US_Cities_List/leesburg.png,,,,,,,,,,,,,,,,,,
1101.7999999970198,,rt_thecrossant_black,2830231,,,black_plus_sign,,,,,50,,,1,1,,,,,,,,,,,,,,,,
null,,color_black,2830334,,,black_plus_sign,,,,,null,,,,,,,,,,,,,,,,,,,,
null,,learn_phase(without_color),2833371,,,black_plus_sign,,,,,null,US_Cities_List/leesburg.png,US_Cities_List/hotsprings.png,,,,,,,,,,,,,,,,,,
null,,black_cross(without_color),2833964,,,blue,,,,,null,US_Cities_List/leesburg.png,US_Cities_List/hotsprings.png,,,,,,,,,,,,,,,,,,
null,,rt_plussign_withcolor,2834467,,,blue,,,,,null,US_Cities_List/leesburg.png,US_Cities_List/hotsprings.png,,,,,,,,,,,,,,,,,,
1316.7000000029802,,rt_thecrossant_black,2835886,,,black_plus_sign,,,,,49,,,1,1,,,,,,,,,,,,,,,,
null,,color_black,2835988,,,black_plus_sign,,,,,null,,,,,,,,,,,,,,,,,,,,
null,,learn_phase(without_color),2839006,,,black_plus_sign,,,,,null,US_Cities_List/gatlinburg.png,US_Cities_List/hanover.png,,,,,,,,,,,,,,,,,,
null,,black_cross(without_color),2839912,,,yellow,,,,,null,US_Cities_List/gatlinburg.png,US_Cities_List/hanover.png,,,,,,,,,,,,,,,,,,
null,,rt_plussign_withcolor,2840414,,,yellow,,,,,null,US_Cities_List/gatlinburg.png,US_Cities_List/hanover.png,,,,,,,,,,,,,,,,,,
931.0999999940395,,rt_thecrossant_black,2841517,,,black_plus_sign,,,,,50,,,1,1,,,,,,,,,,,,,,,,
null,,color_black,2841620,,,black_plus_sign,,,,,null,,,,,,,,,,,,,,,,,,,,
null,,learn_phase(without_color),2844652,,,black_plus_sign,,,,,null,US_Cities_List/gatlinburg.png,US_Cities_List/carmel.png,,,,,,,,,,,,,,,,,,
null,,black_cross(without_color),2845083,,,blue,,,,,null,US_Cities_List/gatlinburg.png,US_Cities_List/carmel.png,,,,,,,,,,,,,,,,,,
null,,rt_plussign_withcolor,2845585,,,blue,,,,,null,US_Cities_List/gatlinburg.png,US_Cities_List/carmel.png,,,,,,,,,,,,,,,,,,
1275.8999999910593,,rt_thecrossant_black,2847162,,,black_plus_sign,,,,,49,,,1,1,,,,,,,,,,,,,,,,
null,,color_black,2847266,,,black_plus_sign,,,,,null,,,,,,,,,,,,,,,,,,,,
null,,learn_phase(without_color),2850291,,,black_plus_sign,,,,,null,US_Cities_List/carmel.png,US_Cities_List/boulder.png,,,,,,,,,,,,,,,,,,
null,,black_cross(without_color),2851206,,,blue,,,,,null,US_Cities_List/carmel.png,US_Cities_List/boulder.png,,,,,,,,,,,,,,,,,,
null,,rt_plussign_withcolor,2851709,,,blue,,,,,null,US_Cities_List/carmel.png,US_Cities_List/boulder.png,,,,,,,,,,,,,,,,,,
1059.4000000059605,,rt_thecrossant_black,2852799,,,black_plus_sign,,,,,49,,,1,1,,,,,,,,,,,,,,,,
null,,color_black,2852916,,,black_plus_sign,,,,,null,,,,,,,,,,,,,,,,,,,,
null,,learn_phase(without_color),2855967,,,black_plus_sign,,,,,null,US_Cities_List/cornwall.png,US_Cities_List/peoria.png,,,,,,,,,,,,,,,,,,
null,,black_cross(without_color),2856744,,,blue,,,,,null,US_Cities_List/cornwall.png,US_Cities_List/peoria.png,,,,,,,,,,,,,,,,,,
null,,rt_plussign_withcolor,2857247,,,blue,,,,,null,US_Cities_List/cornwall.png,US_Cities_List/peoria.png,,,,,,,,,,,,,,,,,,
1253.7000000029802,,rt_thecrossant_black,2858474,,,black_plus_sign,,,,,49,,,1,1,,,,,,,,,,,,,,,,
null,,color_black,2858576,,,black_plus_sign,,,,,null,,,,,,,,,,,,,,,,,,,,
null,,learn_phase(without_color),2861600,,,black_plus_sign,,,,,null,US_Cities_List/racine.png,US_Cities_List/leesburg.png,,,,,,,,,,,,,,,,,,
null,,black_cross(without_color),2862002,,,yellow,,,,,null,US_Cities_List/racine.png,US_Cities_List/leesburg.png,,,,,,,,,,,,,,,,,,
null,,rt_plussign_withcolor,2862504,,,yellow,,,,,null,US_Cities_List/racine.png,US_Cities_List/leesburg.png,,,,,,,,,,,,,,,,,,
1287.5999999940395,,rt_thecrossant_black,2864106,,,black_plus_sign,,,,,50,,,1,1,,,,,,,,,,,,,,,,
null,,color_black,2864209,,,black_plus_sign,,,,,null,,,,,,,,,,,,,,,,,,,,
null,,learn_phase(without_color),2867236,,,black_plus_sign,,,,,null,US_Cities_List/racine.png,US_Cities_List/leesburg.png,,,,,,,,,,,,,,,,,,
null,,black_cross(without_color),2867704,,,blue,,,,,null,US_Cities_List/racine.png,US_Cities_List/leesburg.png,,,,,,,,,,,,,,,,,,
null,,rt_plussign_withcolor,2868206,,,blue,,,,,null,US_Cities_List/racine.png,US_Cities_List/leesburg.png,,,,,,,,,,,,,,,,,,
841.2000000029802,,rt_thecrossant_black,2869752,,,black_plus_sign,,,,,49,,,1,1,,,,,,,,,,,,,,,,
null,,color_black,2869854,,,black_plus_sign,,,,,null,,,,,,,,,,,,,,,,,,,,
null,,learn_phase(without_color),2872921,,,black_plus_sign,,,,,null,US_Cities_List/leesburg.png,US_Cities_List/hotsprings.png,,,,,,,,,,,,,,,,,,
null,,black_cross(without_color),2873883,,,yellow,,,,,null,US_Cities_List/leesburg.png,US_Cities_List/hotsprings.png,,,,,,,,,,,,,,,,,,
null,,rt_plussign_withcolor,2874386,,,yellow,,,,,null,US_Cities_List/leesburg.png,US_Cities_List/hotsprings.png,,,,,,,,,,,,,,,,,,
976.1000000089407,,rt_thecrossant_black,2875446,,,black_plus_sign,,,,,50,,,1,1,,,,,,,,,,,,,,,,
null,,color_black,2875549,,,black_plus_sign,,,,,null,,,,,,,,,,,,,,,,,,,,
null,,learn_phase(without_color),2878581,,,black_plus_sign,,,,,null,US_Cities_List/hanover.png,US_Cities_List/racine.png,,,,,,,,,,,,,,,,,,
null,,black_cross(without_color),2879311,,,yellow,,,,,null,US_Cities_List/hanover.png,US_Cities_List/racine.png,,,,,,,,,,,,,,,,,,
null,,rt_plussign_withcolor,2879813,,,yellow,,,,,null,US_Cities_List/hanover.png,US_Cities_List/racine.png,,,,,,,,,,,,,,,,,,
1269.2999999970198,,rt_thecrossant_black,2881087,,,black_plus_sign,,,,,50,,,1,1,,,,,,,,,,,,,,,,
null,,color_black,2881198,,,black_plus_sign,,,,,null,,,,,,,,,,,,,,,,,,,,
null,,learn_phase(without_color),2884240,,,black_plus_sign,,,,,null,US_Cities_List/hotsprings.png,US_Cities_List/carmel.png,,,,,,,,,,,,,,,,,,
null,,black_cross(without_color),2885319,,,yellow,,,,,null,US_Cities_List/hotsprings.png,US_Cities_List/carmel.png,,,,,,,,,,,,,,,,,,
null,,rt_plussign_withcolor,2885821,,,yellow,,,,,null,US_Cities_List/hotsprings.png,US_Cities_List/carmel.png,,,,,,,,,,,,,,,,,,
1120.7999999970198,,rt_thecrossant_black,2886747,,,black_plus_sign,,,,,50,,,1,1,,,,,,,,,,,,,,,,
null,,color_black,2886850,,,black_plus_sign,,,,,null,,,,,,,,,,,,,,,,,,,,
null,,learn_phase(without_color),2889894,,,black_plus_sign,,,,,null,US_Cities_List/carmel.png,US_Cities_List/boulder.png,,,,,,,,,,,,,,,,,,
null,,black_cross(without_color),2890965,,,blue,,,,,null,US_Cities_List/carmel.png,US_Cities_List/boulder.png,,,,,,,,,,,,,,,,,,
null,,rt_plussign_withcolor,2891468,,,blue,,,,,null,US_Cities_List/carmel.png,US_Cities_List/boulder.png,,,,,,,,,,,,,,,,,,
1389.7000000029802,,rt_thecrossant_black,2892408,,,black_plus_sign,,,,,49,,,1,1,,,,,,,,,,,,,,,,
null,,color_black,2892510,,,black_plus_sign,,,,,null,,,,,,,,,,,,,,,,,,,,
null,,learn_phase(without_color),2895531,,,black_plus_sign,,,,,null,US_Cities_List/hanover.png,US_Cities_List/racine.png,,,,,,,,,,,,,,,,,,
null,,black_cross(without_color),2895971,,,blue,,,,,null,US_Cities_List/hanover.png,US_Cities_List/racine.png,,,,,,,,,,,,,,,,,,
null,,rt_plussign_withcolor,2896473,,,blue,,,,,null,US_Cities_List/hanover.png,US_Cities_List/racine.png,,,,,,,,,,,,,,,,,,
1431.4000000059605,,rt_thecrossant_black,2898047,,,black_plus_sign,,,,,49,,,1,1,,,,,,,,,,,,,,,,
null,,color_black,2898156,,,black_plus_sign,,,,,null,,,,,,,,,,,,,,,,,,,,
null,,learn_phase(without_color),2901175,,,black_plus_sign,,,,,null,US_Cities_List/hanover.png,US_Cities_List/gatlinburg.png,,,,,,,,,,,,,,,,,,
null,,black_cross(without_color),2902092,,,yellow,,,,,null,US_Cities_List/hanover.png,US_Cities_List/gatlinburg.png,,,,,,,,,,,,,,,,,,
null,,rt_plussign_withcolor,2902596,,,yellow,,,,,null,US_Cities_List/hanover.png,US_Cities_List/gatlinburg.png,,,,,,,,,,,,,,,,,,
834.9000000059605,,rt_thecrossant_black,2903684,,,black_plus_sign,,,,,50,,,1,1,,,,,,,,,,,,,,,,
null,,color_black,2903786,,,black_plus_sign,,,,,null,,,,,,,,,,,,,,,,,,,,
null,,learn_phase(without_color),2906803,,,black_plus_sign,,,,,null,US_Cities_List/carmel.png,US_Cities_List/gatlinburg.png,,,,,,,,,,,,,,,,,,
null,,black_cross(without_color),2907777,,,yellow,,,,,null,US_Cities_List/carmel.png,US_Cities_List/gatlinburg.png,,,,,,,,,,,,,,,,,,
null,,rt_plussign_withcolor,2908279,,,yellow,,,,,null,US_Cities_List/carmel.png,US_Cities_List/gatlinburg.png,,,,,,,,,,,,,,,,,,
1313.8999999910593,,rt_thecrossant_black,2909310,,,black_plus_sign,,,,,50,,,1,1,,,,,,,,,,,,,,,,
null,,color_black,2909412,,,black_plus_sign,,,,,null,,,,,,,,,,,,,,,,,,,,
null,,learn_phase(without_color),2912427,,,black_plus_sign,,,,,null,US_Cities_List/hotsprings.png,US_Cities_List/hanover.png,,,,,,,,,,,,,,,,,,
null,,black_cross(without_color),2913302,,,blue,,,,,null,US_Cities_List/hotsprings.png,US_Cities_List/hanover.png,,,,,,,,,,,,,,,,,,
null,,rt_plussign_withcolor,2913804,,,blue,,,,,null,US_Cities_List/hotsprings.png,US_Cities_List/hanover.png,,,,,,,,,,,,,,,,,,
1588.3999999910593,,rt_thecrossant_black,2914945,,,black_plus_sign,,,,,49,,,1,1,,,,,,,,,,,,,,,,
null,,color_black,2915047,,,black_plus_sign,,,,,null,,,,,,,,,,,,,,,,,,,,
null,,learn_phase(without_color),2918077,,,black_plus_sign,,,,,null,US_Cities_List/gatlinburg.png,US_Cities_List/carmel.png,,,,,,,,,,,,,,,,,,
null,,black_cross(without_color),2918931,,,blue,,,,,null,US_Cities_List/gatlinburg.png,US_Cities_List/carmel.png,,,,,,,,,,,,,,,,,,
null,,rt_plussign_withcolor,2919433,,,blue,,,,,null,US_Cities_List/gatlinburg.png,US_Cities_List/carmel.png,,,,,,,,,,,,,,,,,,
1161.2999999970198,,rt_thecrossant_black,2920591,,,black_plus_sign,,,,,49,,,1,1,,,,,,,,,,,,,,,,
null,,color_black,2920693,,,black_plus_sign,,,,,null,,,,,,,,,,,,,,,,,,,,
null,,learn_phase(without_color),2923726,,,black_plus_sign,,,,,null,US_Cities_List/hotsprings.png,US_Cities_List/leesburg.png,,,,,,,,,,,,,,,,,,
null,,black_cross(without_color),2924775,,,blue,,,,,null,US_Cities_List/hotsprings.png,US_Cities_List/leesburg.png,,,,,,,,,,,,,,,,,,
null,,rt_plussign_withcolor,2925277,,,blue,,,,,null,US_Cities_List/hotsprings.png,US_Cities_List/leesburg.png,,,,,,,,,,,,,,,,,,
1225,,rt_thecrossant_black,2926246,,,black_plus_sign,,,,,49,,,1,1,,,,,,,,,,,,,,,,
null,,color_black,2926355,,,black_plus_sign,,,,,null,,,,,,,,,,,,,,,,,,,,
null,,learn_phase(without_color),2929380,,,black_plus_sign,,,,,null,US_Cities_List/shreveport.png,US_Cities_List/boulder.png,,,,,,,,,,,,,,,,,,
null,,black_cross(without_color),2930047,,,yellow,,,,,null,US_Cities_List/shreveport.png,US_Cities_List/boulder.png,,,,,,,,,,,,,,,,,,
null,,rt_plussign_withcolor,2930549,,,yellow,,,,,null,US_Cities_List/shreveport.png,US_Cities_List/boulder.png,,,,,,,,,,,,,,,,,,
1378.4000000059605,,rt_thecrossant_black,2931898,,,black_plus_sign,,,,,50,,,1,1,,,,,,,,,,,,,,,,
null,,color_black,2932009,,,black_plus_sign,,,,,null,,,,,,,,,,,,,,,,,,,,
null,,learn_phase(without_color),2935029,,,black_plus_sign,,,,,null,US_Cities_List/leesburg.png,US_Cities_List/hanover.png,,,,,,,,,,,,,,,,,,
null,,black_cross(without_color),2935693,,,yellow,,,,,null,US_Cities_List/leesburg.png,US_Cities_List/hanover.png,,,,,,,,,,,,,,,,,,
null,,rt_plussign_withcolor,2936206,,,yellow,,,,,null,US_Cities_List/leesburg.png,US_Cities_List/hanover.png,,,,,,,,,,,,,,,,,,
1054.3999999910593,,rt_thecrossant_black,2937546,,,black_plus_sign,,,,,50,,,1,1,,,,,,,,,,,,,,,,
null,,color_black,2937648,,,black_plus_sign,,,,,null,,,,,,,,,,,,,,,,,,,,
null,,learn_phase(without_color),2940679,,,black_plus_sign,,,,,null,US_Cities_List/westpalmbeach.png,US_Cities_List/leesburg.png,,,,,,,,,,,,,,,,,,
null,,black_cross(without_color),2941643,,,blue,,,,,null,US_Cities_List/westpalmbeach.png,US_Cities_List/leesburg.png,,,,,,,,,,,,,,,,,,
null,,rt_plussign_withcolor,2942145,,,blue,,,,,null,US_Cities_List/westpalmbeach.png,US_Cities_List/leesburg.png,,,,,,,,,,,,,,,,,,
1150.2999999970198,,rt_thecrossant_black,2943187,,,black_plus_sign,,,,,49,,,1,1,,,,,,,,,,,,,,,,
null,,color_black,2943304,,,black_plus_sign,,,,,null,,,,,,,,,,,,,,,,,,,,
null,,learn_phase(without_color),2946335,,,black_plus_sign,,,,,null,US_Cities_List/peoria.png,US_Cities_List/newhope.png,,,,,,,,,,,,,,,,,,
null,,black_cross(without_color),2946878,,,yellow,,,,,null,US_Cities_List/peoria.png,US_Cities_List/newhope.png,,,,,,,,,,,,,,,,,,
null,,rt_plussign_withcolor,2947380,,,yellow,,,,,null,US_Cities_List/peoria.png,US_Cities_List/newhope.png,,,,,,,,,,,,,,,,,,
1547.8999999910593,,rt_thecrossant_black,2948853,,,black_plus_sign,,,,,50,,,1,1,,,,,,,,,,,,,,,,
null,,color_black,2948956,,,black_plus_sign,,,,,null,,,,,,,,,,,,,,,,,,,,
null,,learn_phase(without_color),2951975,,,black_plus_sign,,,,,null,US_Cities_List/hotsprings.png,US_Cities_List/carmel.png,,,,,,,,,,,,,,,,,,
null,,black_cross(without_color),2952529,,,yellow,,,,,null,US_Cities_List/hotsprings.png,US_Cities_List/carmel.png,,,,,,,,,,,,,,,,,,
null,,rt_plussign_withcolor,2953032,,,yellow,,,,,null,US_Cities_List/hotsprings.png,US_Cities_List/carmel.png,,,,,,,,,,,,,,,,,,
801.2999999970198,,rt_thecrossant_black,2954482,,,black_plus_sign,,,,,50,,,1,1,,,,,,,,,,,,,,,,
null,,color_black,2954585,,,black_plus_sign,,,,,null,,,,,,,,,,,,,,,,,,,,
null,,learn_phase(without_color),2957608,,,black_plus_sign,,,,,null,US_Cities_List/huntsville.png,US_Cities_List/racine.png,,,,,,,,,,,,,,,,,,
null,,black_cross(without_color),2958577,,,yellow,,,,,null,US_Cities_List/huntsville.png,US_Cities_List/racine.png,,,,,,,,,,,,,,,,,,
null,,rt_plussign_withcolor,2959078,,,yellow,,,,,null,US_Cities_List/huntsville.png,US_Cities_List/racine.png,,,,,,,,,,,,,,,,,,
845.9000000059605,,rt_thecrossant_black,2960114,,,black_plus_sign,,,,,50,,,1,1,,,,,,,,,,,,,,,,
null,,color_black,2960216,,,black_plus_sign,,,,,null,,,,,,,,,,,,,,,,,,,,
null,,learn_phase(without_color),2963240,,,black_plus_sign,,,,,null,US_Cities_List/peoria.png,US_Cities_List/boulder.png,,,,,,,,,,,,,,,,,,
null,,black_cross(without_color),2964147,,,blue,,,,,null,US_Cities_List/peoria.png,US_Cities_List/boulder.png,,,,,,,,,,,,,,,,,,
null,,rt_plussign_withcolor,2964649,,,blue,,,,,null,US_Cities_List/peoria.png,US_Cities_List/boulder.png,,,,,,,,,,,,,,,,,,
1219.1000000089407,,rt_thecrossant_black,2965747,,,black_plus_sign,,,,,49,,,1,1,,,,,,,,,,,,,,,,
null,,color_black,2965851,,,black_plus_sign,,,,,null,,,,,,,,,,,,,,,,,,,,
null,,learn_phase(without_color),2968885,,,black_plus_sign,,,,,null,US_Cities_List/peoria.png,US_Cities_List/newhope.png,,,,,,,,,,,,,,,,,,
null,,black_cross(without_color),2969340,,,yellow,,,,,null,US_Cities_List/peoria.png,US_Cities_List/newhope.png,,,,,,,,,,,,,,,,,,
null,,rt_plussign_withcolor,2969842,,,yellow,,,,,null,US_Cities_List/peoria.png,US_Cities_List/newhope.png,,,,,,,,,,,,,,,,,,
1368.5,,rt_thecrossant_black,2971392,,,black_plus_sign,,,,,50,,,1,1,,,,,,,,,,,,,,,,
null,,color_black,2971495,,,black_plus_sign,,,,,null,,,,,,,,,,,,,,,,,,,,
null,,learn_phase(without_color),2974514,,,black_plus_sign,,,,,null,US_Cities_List/leesburg.png,US_Cities_List/hotsprings.png,,,,,,,,,,,,,,,,,,
null,,black_cross(without_color),2975401,,,blue,,,,,null,US_Cities_List/leesburg.png,US_Cities_List/hotsprings.png,,,,,,,,,,,,,,,,,,
null,,rt_plussign_withcolor,2975909,,,blue,,,,,null,US_Cities_List/leesburg.png,US_Cities_List/hotsprings.png,,,,,,,,,,,,,,,,,,
875.7000000029802,,rt_thecrossant_black,2977028,,,black_plus_sign,,,,,49,,,1,1,,,,,,,,,,,,,,,,
null,,color_black,2977130,,,black_plus_sign,,,,,null,,,,,,,,,,,,,,,,,,,,
null,,learn_phase(without_color),2980157,,,black_plus_sign,,,,,null,US_Cities_List/boulder.png,US_Cities_List/carmel.png,,,,,,,,,,,,,,,,,,
null,,black_cross(without_color),2980992,,,yellow,,,,,null,US_Cities_List/boulder.png,US_Cities_List/carmel.png,,,,,,,,,,,,,,,,,,
null,,rt_plussign_withcolor,2981493,,,yellow,,,,,null,US_Cities_List/boulder.png,US_Cities_List/carmel.png,,,,,,,,,,,,,,,,,,
1080.7000000029802,,rt_thecrossant_black,2982664,,,black_plus_sign,,,,,50,,,1,1,,,,,,,,,,,,,,,,
null,,color_black,2982766,,,black_plus_sign,,,,,null,,,,,,,,,,,,,,,,,,,,
null,,learn_phase(without_color),2985801,,,black_plus_sign,,,,,null,US_Cities_List/hotsprings.png,US_Cities_List/leesburg.png,,,,,,,,,,,,,,,,,,
null,,black_cross(without_color),2986877,,,yellow,,,,,null,US_Cities_List/hotsprings.png,US_Cities_List/leesburg.png,,,,,,,,,,,,,,,,,,
null,,rt_plussign_withcolor,2987379,,,yellow,,,,,null,US_Cities_List/hotsprings.png,US_Cities_List/leesburg.png,,,,,,,,,,,,,,,,,,
1147.6000000089407,,rt_thecrossant_black,2988309,,,black_plus_sign,,,,,50,,,1,1,,,,,,,,,,,,,,,,
null,,color_black,2988412,,,black_plus_sign,,,,,null,,,,,,,,,,,,,,,,,,,,
null,,learn_phase(without_color),2991443,,,black_plus_sign,,,,,null,US_Cities_List/hanover.png,US_Cities_List/hotsprings.png,,,,,,,,,,,,,,,,,,
null,,black_cross(without_color),2992549,,,yellow,,,,,null,US_Cities_List/hanover.png,US_Cities_List/hotsprings.png,,,,,,,,,,,,,,,,,,
null,,rt_plussign_withcolor,2993051,,,yellow,,,,,null,US_Cities_List/hanover.png,US_Cities_List/hotsprings.png,,,,,,,,,,,,,,,,,,
1382,,rt_thecrossant_black,2993964,,,black_plus_sign,,,,,50,,,1,1,,,,,,,,,,,,,,,,
null,,color_black,2994067,,,black_plus_sign,,,,,null,,,,,,,,,,,,,,,,,,,,
null,,learn_phase(without_color),2997090,,,black_plus_sign,,,,,null,US_Cities_List/cornwall.png,US_Cities_List/peoria.png,,,,,,,,,,,,,,,,,,
null,,black_cross(without_color),2997851,,,yellow,,,,,null,US_Cities_List/cornwall.png,US_Cities_List/peoria.png,,,,,,,,,,,,,,,,,,
null,,rt_plussign_withcolor,2998354,,,yellow,,,,,null,US_Cities_List/cornwall.png,US_Cities_List/peoria.png,,,,,,,,,,,,,,,,,,
1485.7000000029802,,rt_thecrossant_black,2999599,,,black_plus_sign,,,,,50,,,1,1,,,,,,,,,,,,,,,,
null,,color_black,2999702,,,black_plus_sign,,,,,null,,,,,,,,,,,,,,,,,,,,
null,,learn_phase(without_color),3002731,,,black_plus_sign,,,,,null,US_Cities_List/gatlinburg.png,US_Cities_List/carmel.png,,,,,,,,,,,,,,,,,,
null,,black_cross(without_color),3003606,,,blue,,,,,null,US_Cities_List/gatlinburg.png,US_Cities_List/carmel.png,,,,,,,,,,,,,,,,,,
null,,rt_plussign_withcolor,3004109,,,blue,,,,,null,US_Cities_List/gatlinburg.png,US_Cities_List/carmel.png,,,,,,,,,,,,,,,,,,
1084.2000000029802,,rt_thecrossant_black,3005238,,,black_plus_sign,,,,,49,,,1,1,,,,,,,,,,,,,,,,
null,,color_black,3005341,,,black_plus_sign,,,,,null,,,,,,,,,,,,,,,,,,,,
null,,learn_phase(without_color),3008364,,,black_plus_sign,,,,,null,US_Cities_List/hanover.png,US_Cities_List/hotsprings.png,,,,,,,,,,,,,,,,,,
null,,black_cross(without_color),3009417,,,yellow,,,,,null,US_Cities_List/hanover.png,US_Cities_List/hotsprings.png,,,,,,,,,,,,,,,,,,
null,,rt_plussign_withcolor,3009926,,,yellow,,,,,null,US_Cities_List/hanover.png,US_Cities_List/hotsprings.png,,,,,,,,,,,,,,,,,,
1160.1000000089407,,rt_thecrossant_black,3010879,,,black_plus_sign,,,,,50,,,1,1,,,,,,,,,,,,,,,,
null,,color_black,3010983,,,black_plus_sign,,,,,null,,,,,,,,,,,,,,,,,,,,
null,,learn_phase(without_color),3013998,,,black_plus_sign,,,,,null,US_Cities_List/westpalmbeach.png,US_Cities_List/leesburg.png,,,,,,,,,,,,,,,,,,
null,,black_cross(without_color),3014581,,,blue,,,,,null,US_Cities_List/westpalmbeach.png,US_Cities_List/leesburg.png,,,,,,,,,,,,,,,,,,
null,,rt_plussign_withcolor,3015083,,,blue,,,,,null,US_Cities_List/westpalmbeach.png,US_Cities_List/leesburg.png,,,,,,,,,,,,,,,,,,
1398.8999999910593,,rt_thecrossant_black,3016504,,,black_plus_sign,,,,,49,,,1,1,,,,,,,,,,,,,,,,
null,,color_black,3016607,,,black_plus_sign,,,,,null,,,,,,,,,,,,,,,,,,,,
null,,learn_phase(without_color),3019634,,,black_plus_sign,,,,,null,US_Cities_List/peoria.png,US_Cities_List/boulder.png,,,,,,,,,,,,,,,,,,
null,,black_cross(without_color),3020345,,,yellow,,,,,null,US_Cities_List/peoria.png,US_Cities_List/boulder.png,,,,,,,,,,,,,,,,,,
null,,rt_plussign_withcolor,3020847,,,yellow,,,,,null,US_Cities_List/peoria.png,US_Cities_List/boulder.png,,,,,,,,,,,,,,,,,,
807.7999999970198,,rt_thecrossant_black,3022142,,,black_plus_sign,,,,,50,,,1,1,,,,,,,,,,,,,,,,
null,,color_black,3022245,,,black_plus_sign,,,,,null,,,,,,,,,,,,,,,,,,,,
null,,learn_phase(without_color),3025276,,,black_plus_sign,,,,,null,US_Cities_List/boulder.png,US_Cities_List/peoria.png,,,,,,,,,,,,,,,,,,
null,,black_cross(without_color),3025931,,,blue,,,,,null,US_Cities_List/boulder.png,US_Cities_List/peoria.png,,,,,,,,,,,,,,,,,,
null,,rt_plussign_withcolor,3026436,,,blue,,,,,null,US_Cities_List/boulder.png,US_Cities_List/peoria.png,,,,,,,,,,,,,,,,,,
943,,rt_thecrossant_black,3027798,,,black_plus_sign,,,,,49,,,1,1,,,,,,,,,,,,,,,,
null,,color_black,3027911,,,black_plus_sign,,,,,null,,,,,,,,,,,,,,,,,,,,
null,,learn_phase(without_color),3030965,,,black_plus_sign,,,,,null,US_Cities_List/hotsprings.png,US_Cities_List/hanover.png,,,,,,,,,,,,,,,,,,
null,,black_cross(without_color),3032045,,,blue,,,,,null,US_Cities_List/hotsprings.png,US_Cities_List/hanover.png,,,,,,,,,,,,,,,,,,
null,,rt_plussign_withcolor,3032548,,,blue,,,,,null,US_Cities_List/hotsprings.png,US_Cities_List/hanover.png,,,,,,,,,,,,,,,,,,
1346.7000000029802,,rt_thecrossant_black,3033476,,,black_plus_sign,,,,,49,,,1,1,,,,,,,,,,,,,,,,
null,,color_black,3033578,,,black_plus_sign,,,,,null,,,,,,,,,,,,,,,,,,,,
null,,learn_phase(without_color),3036599,,,black_plus_sign,,,,,null,US_Cities_List/boulder.png,US_Cities_List/shreveport.png,,,,,,,,,,,,,,,,,,
null,,black_cross(without_color),3037453,,,yellow,,,,,null,US_Cities_List/boulder.png,US_Cities_List/shreveport.png,,,,,,,,,,,,,,,,,,
null,,rt_plussign_withcolor,3037969,,,yellow,,,,,null,US_Cities_List/boulder.png,US_Cities_List/shreveport.png,,,,,,,,,,,,,,,,,,
1398.7999999970198,,rt_thecrossant_black,3039121,,,black_plus_sign,,,,,50,,,1,1,,,,,,,,,,,,,,,,
null,,color_black,3039224,,,black_plus_sign,,,,,null,,,,,,,,,,,,,,,,,,,,
null,,learn_phase(without_color),3042266,,,black_plus_sign,,,,,null,US_Cities_List/leesburg.png,US_Cities_List/hanover.png,,,,,,,,,,,,,,,,,,
null,,black_cross(without_color),3042699,,,yellow,,,,,null,US_Cities_List/leesburg.png,US_Cities_List/hanover.png,,,,,,,,,,,,,,,,,,
null,,rt_plussign_withcolor,3043203,,,yellow,,,,,null,US_Cities_List/leesburg.png,US_Cities_List/hanover.png,,,,,,,,,,,,,,,,,,
1271.5,,rt_thecrossant_black,3044776,,,black_plus_sign,,,,,50,,,1,1,,,,,,,,,,,,,,,,
null,,color_black,3044878,,,black_plus_sign,,,,,null,,,,,,,,,,,,,,,,,,,,
null,,learn_phase(without_color),3047915,,,black_plus_sign,,,,,null,US_Cities_List/hotsprings.png,US_Cities_List/carmel.png,,,,,,,,,,,,,,,,,,
null,,black_cross(without_color),3048607,,,yellow,,,,,null,US_Cities_List/hotsprings.png,US_Cities_List/carmel.png,,,,,,,,,,,,,,,,,,
null,,rt_plussign_withcolor,3049109,,,yellow,,,,,null,US_Cities_List/hotsprings.png,US_Cities_List/carmel.png,,,,,,,,,,,,,,,,,,
655.2999999970198,,rt_thecrossant_black,3050424,,,black_plus_sign,,,,,50,,,1,1,,,,,,,,,,,,,,,,
null,,color_black,3050526,,,black_plus_sign,,,,,null,,,,,,,,,,,,,,,,,,,,
null,,learn_phase(without_color),3053558,,,black_plus_sign,,,,,null,US_Cities_List/hanover.png,US_Cities_List/gatlinburg.png,,,,,,,,,,,,,,,,,,
null,,black_cross(without_color),3054343,,,yellow,,,,,null,US_Cities_List/hanover.png,US_Cities_List/gatlinburg.png,,,,,,,,,,,,,,,,,,
null,,rt_plussign_withcolor,3054845,,,yellow,,,,,null,US_Cities_List/hanover.png,US_Cities_List/gatlinburg.png,,,,,,,,,,,,,,,,,,
1033.7000000029802,,rt_thecrossant_black,3056066,,,black_plus_sign,,,,,50,,,1,1,,,,,,,,,,,,,,,,
null,,color_black,3056169,,,black_plus_sign,,,,,null,,,,,,,,,,,,,,,,,,,,
null,,learn_phase(without_color),3059190,,,black_plus_sign,,,,,null,US_Cities_List/hanover.png,US_Cities_List/gatlinburg.png,,,,,,,,,,,,,,,,,,
null,,black_cross(without_color),3060099,,,blue,,,,,null,US_Cities_List/hanover.png,US_Cities_List/gatlinburg.png,,,,,,,,,,,,,,,,,,
null,,rt_plussign_withcolor,3060601,,,blue,,,,,null,US_Cities_List/hanover.png,US_Cities_List/gatlinburg.png,,,,,,,,,,,,,,,,,,
1128.7000000029802,,rt_thecrossant_black,3061698,,,black_plus_sign,,,,,49,,,1,1,,,,,,,,,,,,,,,,
null,,color_black,3061801,,,black_plus_sign,,,,,null,,,,,,,,,,,,,,,,,,,,
null,,learn_phase(without_color),3064816,,,black_plus_sign,,,,,null,US_Cities_List/boulder.png,US_Cities_List/carmel.png,,,,,,,,,,,,,,,,,,
null,,black_cross(without_color),3065778,,,blue,,,,,null,US_Cities_List/boulder.png,US_Cities_List/carmel.png,,,,,,,,,,,,,,,,,,
null,,rt_plussign_withcolor,3066281,,,blue,,,,,null,US_Cities_List/boulder.png,US_Cities_List/carmel.png,,,,,,,,,,,,,,,,,,
1200.3999999910593,,rt_thecrossant_black,3067324,,,black_plus_sign,,,,,49,,,1,1,,,,,,,,,,,,,,,,
null,,color_black,3067427,,,black_plus_sign,,,,,null,,,,,,,,,,,,,,,,,,,,
null,,learn_phase(without_color),3070468,,,black_plus_sign,,,,,null,US_Cities_List/gatlinburg.png,US_Cities_List/cornwall.png,,,,,,,,,,,,,,,,,,
null,,black_cross(without_color),3070881,,,yellow,,,,,null,US_Cities_List/gatlinburg.png,US_Cities_List/cornwall.png,,,,,,,,,,,,,,,,,,
null,,rt_plussign_withcolor,3071385,,,yellow,,,,,null,US_Cities_List/gatlinburg.png,US_Cities_List/cornwall.png,,,,,,,,,,,,,,,,,,
1364.7999999970198,,rt_thecrossant_black,3072982,,,black_plus_sign,,,,,50,,,1,1,,,,,,,,,,,,,,,,
null,,color_black,3073084,,,black_plus_sign,,,,,null,,,,,,,,,,,,,,,,,,,,
null,,learn_phase(without_color),3076116,,,black_plus_sign,,,,,null,US_Cities_List/peoria.png,US_Cities_List/newhope.png,,,,,,,,,,,,,,,,,,
null,,black_cross(without_color),3076866,,,yellow,,,,,null,US_Cities_List/peoria.png,US_Cities_List/newhope.png,,,,,,,,,,,,,,,,,,
null,,rt_plussign_withcolor,3077370,,,yellow,,,,,null,US_Cities_List/peoria.png,US_Cities_List/newhope.png,,,,,,,,,,,,,,,,,,
661.2000000029802,,rt_thecrossant_black,3078625,,,black_plus_sign,,,,,50,,,1,1,,,,,,,,,,,,,,,,
null,,color_black,3078728,,,black_plus_sign,,,,,null,,,,,,,,,,,,,,,,,,,,
null,,learn_phase(without_color),3081764,,,black_plus_sign,,,,,null,US_Cities_List/peoria.png,US_Cities_List/boulder.png,,,,,,,,,,,,,,,,,,
null,,black_cross(without_color),3082721,,,yellow,,,,,null,US_Cities_List/peoria.png,US_Cities_List/boulder.png,,,,,,,,,,,,,,,,,,
null,,rt_plussign_withcolor,3083223,,,yellow,,,,,null,US_Cities_List/peoria.png,US_Cities_List/boulder.png,,,,,,,,,,,,,,,,,,
1169,,rt_thecrossant_black,3084283,,,black_plus_sign,,,,,50,,,1,1,,,,,,,,,,,,,,,,
null,,color_black,3084385,,,black_plus_sign,,,,,null,,,,,,,,,,,,,,,,,,,,
null,,learn_phase(without_color),3087418,,,black_plus_sign,,,,,null,US_Cities_List/leesburg.png,US_Cities_List/racine.png,,,,,,,,,,,,,,,,,,
null,,black_cross(without_color),3088488,,,yellow,,,,,null,US_Cities_List/leesburg.png,US_Cities_List/racine.png,,,,,,,,,,,,,,,,,,
null,,rt_plussign_withcolor,3088993,,,yellow,,,,,null,US_Cities_List/leesburg.png,US_Cities_List/racine.png,,,,,,,,,,,,,,,,,,
1275.2999999970198,,rt_thecrossant_black,3089929,,,black_plus_sign,,,,,50,,,1,1,,,,,,,,,,,,,,,,
null,,color_black,3090032,,,black_plus_sign,,,,,null,,,,,,,,,,,,,,,,,,,,
null,,learn_phase(without_color),3093056,,,black_plus_sign,,,,,null,US_Cities_List/leesburg.png,US_Cities_List/racine.png,,,,,,,,,,,,,,,,,,
null,,black_cross(without_color),3093806,,,blue,,,,,null,US_Cities_List/leesburg.png,US_Cities_List/racine.png,,,,,,,,,,,,,,,,,,
null,,rt_plussign_withcolor,3094308,,,blue,,,,,null,US_Cities_List/leesburg.png,US_Cities_List/racine.png,,,,,,,,,,,,,,,,,,
1311.7999999970198,,rt_thecrossant_black,3095563,,,black_plus_sign,,,,,49,,,1,1,,,,,,,,,,,,,,,,
null,,color_black,3095667,,,black_plus_sign,,,,,null,,,,,,,,,,,,,,,,,,,,
null,,learn_phase(without_color),3098694,,,black_plus_sign,,,,,null,US_Cities_List/westpalmbeach.png,US_Cities_List/leesburg.png,,,,,,,,,,,,,,,,,,
null,,black_cross(without_color),3099630,,,blue,,,,,null,US_Cities_List/westpalmbeach.png,US_Cities_List/leesburg.png,,,,,,,,,,,,,,,,,,
null,,rt_plussign_withcolor,3100132,,,blue,,,,,null,US_Cities_List/westpalmbeach.png,US_Cities_List/leesburg.png,,,,,,,,,,,,,,,,,,
1161.2000000029802,,rt_thecrossant_black,3101201,,,black_plus_sign,,,,,49,,,1,1,,,,,,,,,,,,,,,,
null,,color_black,3101303,,,black_plus_sign,,,,,null,,,,,,,,,,,,,,,,,,,,
null,,learn_phase(without_color),3104324,,,black_plus_sign,,,,,null,US_Cities_List/westpalmbeach.png,US_Cities_List/leesburg.png,,,,,,,,,,,,,,,,,,
null,,black_cross(without_color),3105040,,,blue,,,,,null,US_Cities_List/westpalmbeach.png,US_Cities_List/leesburg.png,,,,,,,,,,,,,,,,,,
null,,rt_plussign_withcolor,3105542,,,blue,,,,,null,US_Cities_List/westpalmbeach.png,US_Cities_List/leesburg.png,,,,,,,,,,,,,,,,,,
1361.7000000029802,,rt_thecrossant_black,3106830,,,black_plus_sign,,,,,49,,,1,1,,,,,,,,,,,,,,,,
null,,color_black,3106934,,,black_plus_sign,,,,,null,,,,,,,,,,,,,,,,,,,,
null,,learn_phase(without_color),3109975,,,black_plus_sign,,,,,null,US_Cities_List/carmel.png,US_Cities_List/gatlinburg.png,,,,,,,,,,,,,,,,,,
null,,black_cross(without_color),3110758,,,blue,,,,,null,US_Cities_List/carmel.png,US_Cities_List/gatlinburg.png,,,,,,,,,,,,,,,,,,
null,,rt_plussign_withcolor,3111261,,,blue,,,,,null,US_Cities_List/carmel.png,US_Cities_List/gatlinburg.png,,,,,,,,,,,,,,,,,,
1050.5,,rt_thecrossant_black,3112482,,,black_plus_sign,,,,,49,,,1,1,,,,,,,,,,,,,,,,
null,,color_black,3112585,,,black_plus_sign,,,,,null,,,,,,,,,,,,,,,,,,,,
null,,learn_phase(without_color),3115602,,,black_plus_sign,,,,,null,US_Cities_List/hanover.png,US_Cities_List/leesburg.png,,,,,,,,,,,,,,,,,,
null,,black_cross(without_color),3116553,,,yellow,,,,,null,US_Cities_List/hanover.png,US_Cities_List/leesburg.png,,,,,,,,,,,,,,,,,,
null,,rt_plussign_withcolor,3117056,,,yellow,,,,,null,US_Cities_List/hanover.png,US_Cities_List/leesburg.png,,,,,,,,,,,,,,,,,,
1058,,rt_thecrossant_black,3118110,,,black_plus_sign,,,,,50,,,1,1,,,,,,,,,,,,,,,,
null,,color_black,3118212,,,black_plus_sign,,,,,null,,,,,,,,,,,,,,,,,,,,
null,,learn_phase(without_color),3121245,,,black_plus_sign,,,,,null,US_Cities_List/hanover.png,US_Cities_List/racine.png,,,,,,,,,,,,,,,,,,
null,,black_cross(without_color),3121897,,,blue,,,,,null,US_Cities_List/hanover.png,US_Cities_List/racine.png,,,,,,,,,,,,,,,,,,
null,,rt_plussign_withcolor,3122401,,,blue,,,,,null,US_Cities_List/hanover.png,US_Cities_List/racine.png,,,,,,,,,,,,,,,,,,
1453.4000000059605,,rt_thecrossant_black,3123754,,,black_plus_sign,,,,,49,,,1,1,,,,,,,,,,,,,,,,
null,,color_black,3123857,,,black_plus_sign,,,,,null,,,,,,,,,,,,,,,,,,,,
null,,learn_phase(without_color),3126890,,,black_plus_sign,,,,,null,US_Cities_List/hanover.png,US_Cities_List/leesburg.png,,,,,,,,,,,,,,,,,,
null,,black_cross(without_color),3127324,,,yellow,,,,,null,US_Cities_List/hanover.png,US_Cities_List/leesburg.png,,,,,,,,,,,,,,,,,,
null,,rt_plussign_withcolor,3127833,,,yellow,,,,,null,US_Cities_List/hanover.png,US_Cities_List/leesburg.png,,,,,,,,,,,,,,,,,,
965.2000000029802,,rt_thecrossant_black,3129404,,,black_plus_sign,,,,,50,,,1,1,,,,,,,,,,,,,,,,
null,,color_black,3129507,,,black_plus_sign,,,,,null,,,,,,,,,,,,,,,,,,,,
null,,learn_phase(without_color),3132540,,,black_plus_sign,,,,,null,US_Cities_List/hotsprings.png,US_Cities_List/hanover.png,,,,,,,,,,,,,,,,,,
null,,black_cross(without_color),3133040,,,blue,,,,,null,US_Cities_List/hotsprings.png,US_Cities_List/hanover.png,,,,,,,,,,,,,,,,,,
null,,rt_plussign_withcolor,3133543,,,blue,,,,,null,US_Cities_List/hotsprings.png,US_Cities_List/hanover.png,,,,,,,,,,,,,,,,,,
828.7000000029802,,rt_thecrossant_black,3135057,,,black_plus_sign,,,,,49,,,1,1,,,,,,,,,,,,,,,,
null,,color_black,3135166,,,black_plus_sign,,,,,null,,,,,,,,,,,,,,,,,,,,
null,,learn_phase(without_color),3138201,,,black_plus_sign,,,,,null,US_Cities_List/leesburg.png,US_Cities_List/hotsprings.png,,,,,,,,,,,,,,,,,,
null,,black_cross(without_color),3139303,,,blue,,,,,null,US_Cities_List/leesburg.png,US_Cities_List/hotsprings.png,,,,,,,,,,,,,,,,,,
null,,rt_plussign_withcolor,3139806,,,blue,,,,,null,US_Cities_List/leesburg.png,US_Cities_List/hotsprings.png,,,,,,,,,,,,,,,,,,
873.5,,rt_thecrossant_black,3140708,,,black_plus_sign,,,,,49,,,1,1,,,,,,,,,,,,,,,,
null,,color_black,3140811,,,black_plus_sign,,,,,null,,,,,,,,,,,,,,,,,,,,
null,,learn_phase(without_color),3143844,,,black_plus_sign,,,,,null,US_Cities_List/hanover.png,US_Cities_List/racine.png,,,,,,,,,,,,,,,,,,
null,,black_cross(without_color),3144855,,,yellow,,,,,null,US_Cities_List/hanover.png,US_Cities_List/racine.png,,,,,,,,,,,,,,,,,,
null,,rt_plussign_withcolor,3145358,,,yellow,,,,,null,US_Cities_List/hanover.png,US_Cities_List/racine.png,,,,,,,,,,,,,,,,,,
1467.8999999910593,,rt_thecrossant_black,3146353,,,black_plus_sign,,,,,50,,,1,1,,,,,,,,,,,,,,,,
null,,color_black,3146455,,,black_plus_sign,,,,,null,,,,,,,,,,,,,,,,,,,,
null,,learn_phase(without_color),3149483,,,black_plus_sign,,,,,null,US_Cities_List/leesburg.png,US_Cities_List/hanover.png,,,,,,,,,,,,,,,,,,
null,,black_cross(without_color),3150165,,,blue,,,,,null,US_Cities_List/leesburg.png,US_Cities_List/hanover.png,,,,,,,,,,,,,,,,,,
null,,rt_plussign_withcolor,3150668,,,blue,,,,,null,US_Cities_List/leesburg.png,US_Cities_List/hanover.png,,,,,,,,,,,,,,,,,,
1545.7999999970198,,rt_thecrossant_black,3152014,,,black_plus_sign,,,,,49,,,1,1,,,,,,,,,,,,,,,,
null,,color_black,3152123,,,black_plus_sign,,,,,null,,,,,,,,,,,,,,,,,,,,
null,,learn_phase(without_color),3155136,,,black_plus_sign,,,,,null,US_Cities_List/peoria.png,US_Cities_List/boulder.png,,,,,,,,,,,,,,,,,,
null,,black_cross(without_color),3155852,,,blue,,,,,null,US_Cities_List/peoria.png,US_Cities_List/boulder.png,,,,,,,,,,,,,,,,,,
null,,rt_plussign_withcolor,3156354,,,blue,,,,,null,US_Cities_List/peoria.png,US_Cities_List/boulder.png,,,,,,,,,,,,,,,,,,
962.2000000029802,,rt_thecrossant_black,3157643,,,black_plus_sign,,,,,49,,,1,1,,,,,,,,,,,,,,,,
null,,color_black,3157746,,,black_plus_sign,,,,,null,,,,,,,,,,,,,,,,,,,,
21259.40000000596,,learn_break,3179009,,,learn_break,,,,,32,,,,,,,,,,,,,,,,,,,,
null,,html-keyboard-response,3180013,,,<p></p>,,,,,null,,,,,,,,,,,,,,,,,,,,
null,,learn_phase(without_color),3183053,,,black_plus_sign,,,,,null,US_Cities_List/gatlinburg.png,US_Cities_List/hanover.png,,,,,,,,,,,,,,,,,,
null,,black_cross(without_color),3183959,,,blue,,,,,null,US_Cities_List/gatlinburg.png,US_Cities_List/hanover.png,,,,,,,,,,,,,,,,,,
null,,rt_plussign_withcolor,3184462,,,blue,,,,,null,US_Cities_List/gatlinburg.png,US_Cities_List/hanover.png,,,,,,,,,,,,,,,,,,
951.7999999970198,,rt_thecrossant_black,3185561,,,black_plus_sign,,,,,49,,,1,1,,,,,,,,,,,,,,,,
null,,color_black,3185664,,,black_plus_sign,,,,,null,,,,,,,,,,,,,,,,,,,,
null,,learn_phase(without_color),3188698,,,black_plus_sign,,,,,null,US_Cities_List/peoria.png,US_Cities_List/cornwall.png,,,,,,,,,,,,,,,,,,
null,,black_cross(without_color),3189215,,,yellow,,,,,null,US_Cities_List/peoria.png,US_Cities_List/cornwall.png,,,,,,,,,,,,,,,,,,
null,,rt_plussign_withcolor,3189718,,,yellow,,,,,null,US_Cities_List/peoria.png,US_Cities_List/cornwall.png,,,,,,,,,,,,,,,,,,
1272.199999988079,,rt_thecrossant_black,3191206,,,black_plus_sign,,,,,50,,,1,1,,,,,,,,,,,,,,,,
null,,color_black,3191309,,,black_plus_sign,,,,,null,,,,,,,,,,,,,,,,,,,,
null,,learn_phase(without_color),3194331,,,black_plus_sign,,,,,null,US_Cities_List/shreveport.png,US_Cities_List/boulder.png,,,,,,,,,,,,,,,,,,
null,,black_cross(without_color),3195236,,,blue,,,,,null,US_Cities_List/shreveport.png,US_Cities_List/boulder.png,,,,,,,,,,,,,,,,,,
null,,rt_plussign_withcolor,3195738,,,blue,,,,,null,US_Cities_List/shreveport.png,US_Cities_List/boulder.png,,,,,,,,,,,,,,,,,,
804,,rt_thecrossant_black,3196838,,,black_plus_sign,,,,,49,,,1,1,,,,,,,,,,,,,,,,
null,,color_black,3196941,,,black_plus_sign,,,,,null,,,,,,,,,,,,,,,,,,,,
null,,learn_phase(without_color),3199972,,,black_plus_sign,,,,,null,US_Cities_List/peoria.png,US_Cities_List/newhope.png,,,,,,,,,,,,,,,,,,
null,,black_cross(without_color),3200624,,,blue,,,,,null,US_Cities_List/peoria.png,US_Cities_List/newhope.png,,,,,,,,,,,,,,,,,,
null,,rt_plussign_withcolor,3201129,,,blue,,,,,null,US_Cities_List/peoria.png,US_Cities_List/newhope.png,,,,,,,,,,,,,,,,,,
1144.2000000029802,,rt_thecrossant_black,3202492,,,black_plus_sign,,,,,49,,,1,1,,,,,,,,,,,,,,,,
null,,color_black,3202594,,,black_plus_sign,,,,,null,,,,,,,,,,,,,,,,,,,,
null,,learn_phase(without_color),3205622,,,black_plus_sign,,,,,null,US_Cities_List/leesburg.png,US_Cities_List/westpalmbeach.png,,,,,,,,,,,,,,,,,,
null,,black_cross(without_color),3206072,,,yellow,,,,,null,US_Cities_List/leesburg.png,US_Cities_List/westpalmbeach.png,,,,,,,,,,,,,,,,,,
null,,rt_plussign_withcolor,3206574,,,yellow,,,,,null,US_Cities_List/leesburg.png,US_Cities_List/westpalmbeach.png,,,,,,,,,,,,,,,,,,
1084.5,,rt_thecrossant_black,3208145,,,black_plus_sign,,,,,50,,,1,1,,,,,,,,,,,,,,,,
null,,color_black,3208247,,,black_plus_sign,,,,,null,,,,,,,,,,,,,,,,,,,,
null,,learn_phase(without_color),3211281,,,black_plus_sign,,,,,null,US_Cities_List/racine.png,US_Cities_List/leesburg.png,,,,,,,,,,,,,,,,,,
null,,black_cross(without_color),3211955,,,blue,,,,,null,US_Cities_List/racine.png,US_Cities_List/leesburg.png,,,,,,,,,,,,,,,,,,
null,,rt_plussign_withcolor,3212457,,,blue,,,,,null,US_Cities_List/racine.png,US_Cities_List/leesburg.png,,,,,,,,,,,,,,,,,,
852.2999999970198,,rt_thecrossant_black,3213789,,,black_plus_sign,,,,,49,,,1,1,,,,,,,,,,,,,,,,
null,,color_black,3213892,,,black_plus_sign,,,,,null,,,,,,,,,,,,,,,,,,,,
null,,learn_phase(without_color),3216920,,,black_plus_sign,,,,,null,US_Cities_List/huntsville.png,US_Cities_List/racine.png,,,,,,,,,,,,,,,,,,
null,,black_cross(without_color),3217851,,,blue,,,,,null,US_Cities_List/huntsville.png,US_Cities_List/racine.png,,,,,,,,,,,,,,,,,,
null,,rt_plussign_withcolor,3218353,,,blue,,,,,null,US_Cities_List/huntsville.png,US_Cities_List/racine.png,,,,,,,,,,,,,,,,,,
957.5,,rt_thecrossant_black,3219427,,,black_plus_sign,,,,,49,,,1,1,,,,,,,,,,,,,,,,
null,,color_black,3219530,,,black_plus_sign,,,,,null,,,,,,,,,,,,,,,,,,,,
null,,learn_phase(without_color),3222567,,,black_plus_sign,,,,,null,US_Cities_List/cornwall.png,US_Cities_List/peoria.png,,,,,,,,,,,,,,,,,,
null,,black_cross(without_color),3223539,,,yellow,,,,,null,US_Cities_List/cornwall.png,US_Cities_List/peoria.png,,,,,,,,,,,,,,,,,,
null,,rt_plussign_withcolor,3224043,,,yellow,,,,,null,US_Cities_List/cornwall.png,US_Cities_List/peoria.png,,,,,,,,,,,,,,,,,,
1234.7999999970198,,rt_thecrossant_black,3225092,,,black_plus_sign,,,,,50,,,1,1,,,,,,,,,,,,,,,,
null,,color_black,3225196,,,black_plus_sign,,,,,null,,,,,,,,,,,,,,,,,,,,
null,,learn_phase(without_color),3228230,,,black_plus_sign,,,,,null,US_Cities_List/newhope.png,US_Cities_List/peoria.png,,,,,,,,,,,,,,,,,,
null,,black_cross(without_color),3229286,,,blue,,,,,null,US_Cities_List/newhope.png,US_Cities_List/peoria.png,,,,,,,,,,,,,,,,,,
null,,rt_plussign_withcolor,3229788,,,blue,,,,,null,US_Cities_List/newhope.png,US_Cities_List/peoria.png,,,,,,,,,,,,,,,,,,
1320.8999999910593,,rt_thecrossant_black,3230738,,,black_plus_sign,,,,,49,,,1,1,,,,,,,,,,,,,,,,
null,,color_black,3230841,,,black_plus_sign,,,,,null,,,,,,,,,,,,,,,,,,,,
null,,learn_phase(without_color),3233868,,,black_plus_sign,,,,,null,US_Cities_List/peoria.png,US_Cities_List/newhope.png,,,,,,,,,,,,,,,,,,
null,,black_cross(without_color),3234289,,,yellow,,,,,null,US_Cities_List/peoria.png,US_Cities_List/newhope.png,,,,,,,,,,,,,,,,,,
null,,rt_plussign_withcolor,3234799,,,yellow,,,,,null,US_Cities_List/peoria.png,US_Cities_List/newhope.png,,,,,,,,,,,,,,,,,,
1429.7999999970198,,rt_thecrossant_black,3236398,,,black_plus_sign,,,,,50,,,1,1,,,,,,,,,,,,,,,,
null,,color_black,3236506,,,black_plus_sign,,,,,null,,,,,,,,,,,,,,,,,,,,
null,,learn_phase(without_color),3239533,,,black_plus_sign,,,,,null,US_Cities_List/cornwall.png,US_Cities_List/gatlinburg.png,,,,,,,,,,,,,,,,,,
null,,black_cross(without_color),3240041,,,blue,,,,,null,US_Cities_List/cornwall.png,US_Cities_List/gatlinburg.png,,,,,,,,,,,,,,,,,,
null,,rt_plussign_withcolor,3240544,,,blue,,,,,null,US_Cities_List/cornwall.png,US_Cities_List/gatlinburg.png,,,,,,,,,,,,,,,,,,
912.2000000029802,,rt_thecrossant_black,3242041,,,black_plus_sign,,,,,49,,,1,1,,,,,,,,,,,,,,,,
null,,color_black,3242175,,,black_plus_sign,,,,,null,,,,,,,,,,,,,,,,,,,,
null,,learn_phase(without_color),3245189,,,black_plus_sign,,,,,null,US_Cities_List/carmel.png,US_Cities_List/boulder.png,,,,,,,,,,,,,,,,,,
null,,black_cross(without_color),3245917,,,blue,,,,,null,US_Cities_List/carmel.png,US_Cities_List/boulder.png,,,,,,,,,,,,,,,,,,
null,,rt_plussign_withcolor,3246420,,,blue,,,,,null,US_Cities_List/carmel.png,US_Cities_List/boulder.png,,,,,,,,,,,,,,,,,,
864.2000000029802,,rt_thecrossant_black,3247702,,,black_plus_sign,,,,,49,,,1,1,,,,,,,,,,,,,,,,
null,,color_black,3247806,,,black_plus_sign,,,,,null,,,,,,,,,,,,,,,,,,,,
null,,learn_phase(without_color),3250832,,,black_plus_sign,,,,,null,US_Cities_List/shreveport.png,US_Cities_List/boulder.png,,,,,,,,,,,,,,,,,,
null,,black_cross(without_color),3251739,,,blue,,,,,null,US_Cities_List/shreveport.png,US_Cities_List/boulder.png,,,,,,,,,,,,,,,,,,
null,,rt_plussign_withcolor,3252247,,,blue,,,,,null,US_Cities_List/shreveport.png,US_Cities_List/boulder.png,,,,,,,,,,,,,,,,,,
941.4000000059605,,rt_thecrossant_black,3253348,,,black_plus_sign,,,,,49,,,1,1,,,,,,,,,,,,,,,,
null,,color_black,3253450,,,black_plus_sign,,,,,null,,,,,,,,,,,,,,,,,,,,
null,,learn_phase(without_color),3256480,,,black_plus_sign,,,,,null,US_Cities_List/cornwall.png,US_Cities_List/peoria.png,,,,,,,,,,,,,,,,,,
null,,black_cross(without_color),3257068,,,yellow,,,,,null,US_Cities_List/cornwall.png,US_Cities_List/peoria.png,,,,,,,,,,,,,,,,,,
null,,rt_plussign_withcolor,3257570,,,yellow,,,,,null,US_Cities_List/cornwall.png,US_Cities_List/peoria.png,,,,,,,,,,,,,,,,,,
1078.5,,rt_thecrossant_black,3258988,,,black_plus_sign,,,,,50,,,1,1,,,,,,,,,,,,,,,,
null,,color_black,3259092,,,black_plus_sign,,,,,null,,,,,,,,,,,,,,,,,,,,
null,,learn_phase(without_color),3262143,,,black_plus_sign,,,,,null,US_Cities_List/racine.png,US_Cities_List/huntsville.png,,,,,,,,,,,,,,,,,,
null,,black_cross(without_color),3262981,,,blue,,,,,null,US_Cities_List/racine.png,US_Cities_List/huntsville.png,,,,,,,,,,,,,,,,,,
null,,rt_plussign_withcolor,3263482,,,blue,,,,,null,US_Cities_List/racine.png,US_Cities_List/huntsville.png,,,,,,,,,,,,,,,,,,
888.6999999880791,,rt_thecrossant_black,3264650,,,black_plus_sign,,,,,49,,,1,1,,,,,,,,,,,,,,,,
null,,color_black,3264753,,,black_plus_sign,,,,,null,,,,,,,,,,,,,,,,,,,,
null,,learn_phase(without_color),3267781,,,black_plus_sign,,,,,null,US_Cities_List/hanover.png,US_Cities_List/leesburg.png,,,,,,,,,,,,,,,,,,
null,,black_cross(without_color),3268522,,,yellow,,,,,null,US_Cities_List/hanover.png,US_Cities_List/leesburg.png,,,,,,,,,,,,,,,,,,
null,,rt_plussign_withcolor,3269024,,,yellow,,,,,null,US_Cities_List/hanover.png,US_Cities_List/leesburg.png,,,,,,,,,,,,,,,,,,
1040.800000011921,,rt_thecrossant_black,3270290,,,black_plus_sign,,,,,50,,,1,1,,,,,,,,,,,,,,,,
null,,color_black,3270396,,,black_plus_sign,,,,,null,,,,,,,,,,,,,,,,,,,,
null,,learn_phase(without_color),3273417,,,black_plus_sign,,,,,null,US_Cities_List/shreveport.png,US_Cities_List/boulder.png,,,,,,,,,,,,,,,,,,
null,,black_cross(without_color),3274343,,,yellow,,,,,null,US_Cities_List/shreveport.png,US_Cities_List/boulder.png,,,,,,,,,,,,,,,,,,
null,,rt_plussign_withcolor,3274845,,,yellow,,,,,null,US_Cities_List/shreveport.png,US_Cities_List/boulder.png,,,,,,,,,,,,,,,,,,
1097,,rt_thecrossant_black,3275924,,,black_plus_sign,,,,,50,,,1,1,,,,,,,,,,,,,,,,
null,,color_black,3276026,,,black_plus_sign,,,,,null,,,,,,,,,,,,,,,,,,,,
null,,learn_phase(without_color),3279065,,,black_plus_sign,,,,,null,US_Cities_List/cornwall.png,US_Cities_List/peoria.png,,,,,,,,,,,,,,,,,,
null,,black_cross(without_color),3280035,,,blue,,,,,null,US_Cities_List/cornwall.png,US_Cities_List/peoria.png,,,,,,,,,,,,,,,,,,
null,,rt_plussign_withcolor,3280537,,,blue,,,,,null,US_Cities_List/cornwall.png,US_Cities_List/peoria.png,,,,,,,,,,,,,,,,,,
1235,,rt_thecrossant_black,3281573,,,black_plus_sign,,,,,49,,,1,1,,,,,,,,,,,,,,,,
null,,color_black,3281676,,,black_plus_sign,,,,,null,,,,,,,,,,,,,,,,,,,,
null,,learn_phase(without_color),3284704,,,black_plus_sign,,,,,null,US_Cities_List/hanover.png,US_Cities_List/gatlinburg.png,,,,,,,,,,,,,,,,,,
null,,black_cross(without_color),3285481,,,blue,,,,,null,US_Cities_List/hanover.png,US_Cities_List/gatlinburg.png,,,,,,,,,,,,,,,,,,
null,,rt_plussign_withcolor,3285983,,,blue,,,,,null,US_Cities_List/hanover.png,US_Cities_List/gatlinburg.png,,,,,,,,,,,,,,,,,,
1292.4000000059605,,rt_thecrossant_black,3287211,,,black_plus_sign,,,,,49,,,1,1,,,,,,,,,,,,,,,,
null,,color_black,3287313,,,black_plus_sign,,,,,null,,,,,,,,,,,,,,,,,,,,
null,,learn_phase(without_color),3290347,,,black_plus_sign,,,,,null,US_Cities_List/cornwall.png,US_Cities_List/gatlinburg.png,,,,,,,,,,,,,,,,,,
null,,black_cross(without_color),3291339,,,blue,,,,,null,US_Cities_List/cornwall.png,US_Cities_List/gatlinburg.png,,,,,,,,,,,,,,,,,,
null,,rt_plussign_withcolor,3291842,,,blue,,,,,null,US_Cities_List/cornwall.png,US_Cities_List/gatlinburg.png,,,,,,,,,,,,,,,,,,
1099.0999999940395,,rt_thecrossant_black,3292856,,,black_plus_sign,,,,,49,,,1,1,,,,,,,,,,,,,,,,
null,,color_black,3292959,,,black_plus_sign,,,,,null,,,,,,,,,,,,,,,,,,,,
null,,learn_phase(without_color),3295989,,,black_plus_sign,,,,,null,US_Cities_List/hotsprings.png,US_Cities_List/leesburg.png,,,,,,,,,,,,,,,,,,
null,,black_cross(without_color),3296614,,,blue,,,,,null,US_Cities_List/hotsprings.png,US_Cities_List/leesburg.png,,,,,,,,,,,,,,,,,,
null,,rt_plussign_withcolor,3297121,,,blue,,,,,null,US_Cities_List/hotsprings.png,US_Cities_List/leesburg.png,,,,,,,,,,,,,,,,,,
1311,,rt_thecrossant_black,3298501,,,black_plus_sign,,,,,49,,,1,1,,,,,,,,,,,,,,,,
null,,color_black,3298604,,,black_plus_sign,,,,,null,,,,,,,,,,,,,,,,,,,,
null,,learn_phase(without_color),3301653,,,black_plus_sign,,,,,null,US_Cities_List/cornwall.png,US_Cities_List/gatlinburg.png,,,,,,,,,,,,,,,,,,
null,,black_cross(without_color),3302707,,,blue,,,,,null,US_Cities_List/cornwall.png,US_Cities_List/gatlinburg.png,,,,,,,,,,,,,,,,,,
null,,rt_plussign_withcolor,3303222,,,blue,,,,,null,US_Cities_List/cornwall.png,US_Cities_List/gatlinburg.png,,,,,,,,,,,,,,,,,,
951.2000000029802,,rt_thecrossant_black,3304180,,,black_plus_sign,,,,,49,,,1,1,,,,,,,,,,,,,,,,
null,,color_black,3304283,,,black_plus_sign,,,,,null,,,,,,,,,,,,,,,,,,,,
null,,learn_phase(without_color),3307304,,,black_plus_sign,,,,,null,US_Cities_List/racine.png,US_Cities_List/huntsville.png,,,,,,,,,,,,,,,,,,
null,,black_cross(without_color),3307808,,,yellow,,,,,null,US_Cities_List/racine.png,US_Cities_List/huntsville.png,,,,,,,,,,,,,,,,,,
null,,rt_plussign_withcolor,3308311,,,yellow,,,,,null,US_Cities_List/racine.png,US_Cities_List/huntsville.png,,,,,,,,,,,,,,,,,,
1382.5999999940395,,rt_thecrossant_black,3309813,,,black_plus_sign,,,,,50,,,1,1,,,,,,,,,,,,,,,,
null,,color_black,3309916,,,black_plus_sign,,,,,null,,,,,,,,,,,,,,,,,,,,
null,,learn_phase(without_color),3312947,,,black_plus_sign,,,,,null,US_Cities_List/racine.png,US_Cities_List/huntsville.png,,,,,,,,,,,,,,,,,,
null,,black_cross(without_color),3313889,,,yellow,,,,,null,US_Cities_List/racine.png,US_Cities_List/huntsville.png,,,,,,,,,,,,,,,,,,
null,,rt_plussign_withcolor,3314392,,,yellow,,,,,null,US_Cities_List/racine.png,US_Cities_List/huntsville.png,,,,,,,,,,,,,,,,,,
883.2999999970198,,rt_thecrossant_black,3315456,,,black_plus_sign,,,,,50,,,1,1,,,,,,,,,,,,,,,,
null,,color_black,3315560,,,black_plus_sign,,,,,null,,,,,,,,,,,,,,,,,,,,
null,,learn_phase(without_color),3318587,,,black_plus_sign,,,,,null,US_Cities_List/carmel.png,US_Cities_List/boulder.png,,,,,,,,,,,,,,,,,,
null,,black_cross(without_color),3319623,,,blue,,,,,null,US_Cities_List/carmel.png,US_Cities_List/boulder.png,,,,,,,,,,,,,,,,,,
null,,rt_plussign_withcolor,3320133,,,blue,,,,,null,US_Cities_List/carmel.png,US_Cities_List/boulder.png,,,,,,,,,,,,,,,,,,
1445.0999999940395,,rt_thecrossant_black,3321105,,,black_plus_sign,,,,,49,,,1,1,,,,,,,,,,,,,,,,
null,,color_black,3321218,,,black_plus_sign,,,,,null,,,,,,,,,,,,,,,,,,,,
null,,learn_phase(without_color),3324234,,,black_plus_sign,,,,,null,US_Cities_List/boulder.png,US_Cities_List/carmel.png,,,,,,,,,,,,,,,,,,
null,,black_cross(without_color),3324984,,,yellow,,,,,null,US_Cities_List/boulder.png,US_Cities_List/carmel.png,,,,,,,,,,,,,,,,,,
null,,rt_plussign_withcolor,3325487,,,yellow,,,,,null,US_Cities_List/boulder.png,US_Cities_List/carmel.png,,,,,,,,,,,,,,,,,,
1423.9000000059605,,rt_thecrossant_black,3326747,,,black_plus_sign,,,,,50,,,1,1,,,,,,,,,,,,,,,,
null,,color_black,3326850,,,black_plus_sign,,,,,null,,,,,,,,,,,,,,,,,,,,
null,,learn_phase(without_color),3329881,,,black_plus_sign,,,,,null,US_Cities_List/hanover.png,US_Cities_List/gatlinburg.png,,,,,,,,,,,,,,,,,,
null,,black_cross(without_color),3330508,,,blue,,,,,null,US_Cities_List/hanover.png,US_Cities_List/gatlinburg.png,,,,,,,,,,,,,,,,,,
null,,rt_plussign_withcolor,3331011,,,blue,,,,,null,US_Cities_List/hanover.png,US_Cities_List/gatlinburg.png,,,,,,,,,,,,,,,,,,
1208.4000000059605,,rt_thecrossant_black,3332397,,,black_plus_sign,,,,,49,,,1,1,,,,,,,,,,,,,,,,
null,,color_black,3332500,,,black_plus_sign,,,,,null,,,,,,,,,,,,,,,,,,,,
null,,learn_phase(without_color),3335541,,,black_plus_sign,,,,,null,US_Cities_List/gatlinburg.png,US_Cities_List/cornwall.png,,,,,,,,,,,,,,,,,,
null,,black_cross(without_color),3336109,,,blue,,,,,null,US_Cities_List/gatlinburg.png,US_Cities_List/cornwall.png,,,,,,,,,,,,,,,,,,
null,,rt_plussign_withcolor,3336611,,,blue,,,,,null,US_Cities_List/gatlinburg.png,US_Cities_List/cornwall.png,,,,,,,,,,,,,,,,,,
980.9000000059605,,rt_thecrossant_black,3338050,,,black_plus_sign,,,,,49,,,1,1,,,,,,,,,,,,,,,,
null,,color_black,3338160,,,black_plus_sign,,,,,null,,,,,,,,,,,,,,,,,,,,
null,,learn_phase(without_color),3341187,,,black_plus_sign,,,,,null,US_Cities_List/hotsprings.png,US_Cities_List/hanover.png,,,,,,,,,,,,,,,,,,
null,,black_cross(without_color),3342231,,,yellow,,,,,null,US_Cities_List/hotsprings.png,US_Cities_List/hanover.png,,,,,,,,,,,,,,,,,,
null,,rt_plussign_withcolor,3342733,,,yellow,,,,,null,US_Cities_List/hotsprings.png,US_Cities_List/hanover.png,,,,,,,,,,,,,,,,,,
914.7999999970198,,rt_thecrossant_black,3343694,,,black_plus_sign,,,,,50,,,1,1,,,,,,,,,,,,,,,,
null,,color_black,3343797,,,black_plus_sign,,,,,null,,,,,,,,,,,,,,,,,,,,
null,,learn_phase(without_color),3346810,,,black_plus_sign,,,,,null,US_Cities_List/boulder.png,US_Cities_List/peoria.png,,,,,,,,,,,,,,,,,,
null,,black_cross(without_color),3347464,,,blue,,,,,null,US_Cities_List/boulder.png,US_Cities_List/peoria.png,,,,,,,,,,,,,,,,,,
null,,rt_plussign_withcolor,3347966,,,blue,,,,,null,US_Cities_List/boulder.png,US_Cities_List/peoria.png,,,,,,,,,,,,,,,,,,
1668.199999988079,,rt_thecrossant_black,3349317,,,black_plus_sign,,,,,49,,,1,1,,,,,,,,,,,,,,,,
null,,color_black,3349421,,,black_plus_sign,,,,,null,,,,,,,,,,,,,,,,,,,,
null,,learn_phase(without_color),3352463,,,black_plus_sign,,,,,null,US_Cities_List/cornwall.png,US_Cities_List/peoria.png,,,,,,,,,,,,,,,,,,
null,,black_cross(without_color),3353350,,,blue,,,,,null,US_Cities_List/cornwall.png,US_Cities_List/peoria.png,,,,,,,,,,,,,,,,,,
null,,rt_plussign_withcolor,3353853,,,blue,,,,,null,US_Cities_List/cornwall.png,US_Cities_List/peoria.png,,,,,,,,,,,,,,,,,,
955.2000000029802,,rt_thecrossant_black,3354972,,,black_plus_sign,,,,,49,,,1,1,,,,,,,,,,,,,,,,
null,,color_black,3355074,,,black_plus_sign,,,,,null,,,,,,,,,,,,,,,,,,,,
null,,learn_phase(without_color),3358093,,,black_plus_sign,,,,,null,US_Cities_List/hotsprings.png,US_Cities_List/hanover.png,,,,,,,,,,,,,,,,,,
null,,black_cross(without_color),3359005,,,blue,,,,,null,US_Cities_List/hotsprings.png,US_Cities_List/hanover.png,,,,,,,,,,,,,,,,,,
null,,rt_plussign_withcolor,3359507,,,blue,,,,,null,US_Cities_List/hotsprings.png,US_Cities_List/hanover.png,,,,,,,,,,,,,,,,,,
1227.5,,rt_thecrossant_black,3360602,,,black_plus_sign,,,,,49,,,1,1,,,,,,,,,,,,,,,,
null,,color_black,3360705,,,black_plus_sign,,,,,null,,,,,,,,,,,,,,,,,,,,
null,,learn_phase(without_color),3363737,,,black_plus_sign,,,,,null,US_Cities_List/leesburg.png,US_Cities_List/racine.png,,,,,,,,,,,,,,,,,,
null,,black_cross(without_color),3364726,,,blue,,,,,null,US_Cities_List/leesburg.png,US_Cities_List/racine.png,,,,,,,,,,,,,,,,,,
null,,rt_plussign_withcolor,3365230,,,blue,,,,,null,US_Cities_List/leesburg.png,US_Cities_List/racine.png,,,,,,,,,,,,,,,,,,
1445.7000000029802,,rt_thecrossant_black,3366259,,,black_plus_sign,,,,,49,,,1,1,,,,,,,,,,,,,,,,
null,,color_black,3366362,,,black_plus_sign,,,,,null,,,,,,,,,,,,,,,,,,,,
null,,learn_phase(without_color),3369391,,,black_plus_sign,,,,,null,US_Cities_List/peoria.png,US_Cities_List/cornwall.png,,,,,,,,,,,,,,,,,,
null,,black_cross(without_color),3370201,,,yellow,,,,,null,US_Cities_List/peoria.png,US_Cities_List/cornwall.png,,,,,,,,,,,,,,,,,,
null,,rt_plussign_withcolor,3370702,,,yellow,,,,,null,US_Cities_List/peoria.png,US_Cities_List/cornwall.png,,,,,,,,,,,,,,,,,,
1281.7999999970198,,rt_thecrossant_black,3371904,,,black_plus_sign,,,,,50,,,1,1,,,,,,,,,,,,,,,,
null,,color_black,3372006,,,black_plus_sign,,,,,null,,,,,,,,,,,,,,,,,,,,
null,,learn_phase(without_color),3375027,,,black_plus_sign,,,,,null,US_Cities_List/leesburg.png,US_Cities_List/hotsprings.png,,,,,,,,,,,,,,,,,,
null,,black_cross(without_color),3375681,,,blue,,,,,null,US_Cities_List/leesburg.png,US_Cities_List/hotsprings.png,,,,,,,,,,,,,,,,,,
null,,rt_plussign_withcolor,3376192,,,blue,,,,,null,US_Cities_List/leesburg.png,US_Cities_List/hotsprings.png,,,,,,,,,,,,,,,,,,
1071.9000000059605,,rt_thecrossant_black,3377544,,,black_plus_sign,,,,,49,,,1,1,,,,,,,,,,,,,,,,
null,,color_black,3377647,,,black_plus_sign,,,,,null,,,,,,,,,,,,,,,,,,,,
null,,learn_phase(without_color),3380669,,,black_plus_sign,,,,,null,US_Cities_List/shreveport.png,US_Cities_List/boulder.png,,,,,,,,,,,,,,,,,,
null,,black_cross(without_color),3381130,,,blue,,,,,null,US_Cities_List/shreveport.png,US_Cities_List/boulder.png,,,,,,,,,,,,,,,,,,
null,,rt_plussign_withcolor,3381633,,,blue,,,,,null,US_Cities_List/shreveport.png,US_Cities_List/boulder.png,,,,,,,,,,,,,,,,,,
1172.8999999910593,,rt_thecrossant_black,3383185,,,black_plus_sign,,,,,49,,,1,1,,,,,,,,,,,,,,,,
null,,color_black,3383287,,,black_plus_sign,,,,,null,,,,,,,,,,,,,,,,,,,,
null,,learn_phase(without_color),3386305,,,black_plus_sign,,,,,null,US_Cities_List/hotsprings.png,US_Cities_List/carmel.png,,,,,,,,,,,,,,,,,,
null,,black_cross(without_color),3387046,,,yellow,,,,,null,US_Cities_List/hotsprings.png,US_Cities_List/carmel.png,,,,,,,,,,,,,,,,,,
null,,rt_plussign_withcolor,3387548,,,yellow,,,,,null,US_Cities_List/hotsprings.png,US_Cities_List/carmel.png,,,,,,,,,,,,,,,,,,
774.7000000029802,,rt_thecrossant_black,3388828,,,black_plus_sign,,,,,50,,,1,1,,,,,,,,,,,,,,,,
null,,color_black,3388931,,,black_plus_sign,,,,,null,,,,,,,,,,,,,,,,,,,,
null,,learn_phase(without_color),3391969,,,black_plus_sign,,,,,null,US_Cities_List/carmel.png,US_Cities_List/hotsprings.png,,,,,,,,,,,,,,,,,,
null,,black_cross(without_color),3393045,,,yellow,,,,,null,US_Cities_List/carmel.png,US_Cities_List/hotsprings.png,,,,,,,,,,,,,,,,,,
null,,rt_plussign_withcolor,3393548,,,yellow,,,,,null,US_Cities_List/carmel.png,US_Cities_List/hotsprings.png,,,,,,,,,,,,,,,,,,
968.7000000029802,,rt_thecrossant_black,3394476,,,black_plus_sign,,,,,50,,,1,1,,,,,,,,,,,,,,,,
null,,color_black,3394580,,,black_plus_sign,,,,,null,,,,,,,,,,,,,,,,,,,,
null,,learn_phase(without_color),3397610,,,black_plus_sign,,,,,null,US_Cities_List/carmel.png,US_Cities_List/gatlinburg.png,,,,,,,,,,,,,,,,,,
null,,black_cross(without_color),3398675,,,yellow,,,,,null,US_Cities_List/carmel.png,US_Cities_List/gatlinburg.png,,,,,,,,,,,,,,,,,,
null,,rt_plussign_withcolor,3399195,,,yellow,,,,,null,US_Cities_List/carmel.png,US_Cities_List/gatlinburg.png,,,,,,,,,,,,,,,,,,
1442.9000000059605,,rt_thecrossant_black,3400136,,,black_plus_sign,,,,,50,,,1,1,,,,,,,,,,,,,,,,
null,,color_black,3400240,,,black_plus_sign,,,,,null,,,,,,,,,,,,,,,,,,,,
null,,learn_phase(without_color),3403256,,,black_plus_sign,,,,,null,US_Cities_List/racine.png,US_Cities_List/huntsville.png,,,,,,,,,,,,,,,,,,
null,,black_cross(without_color),3403860,,,blue,,,,,null,US_Cities_List/racine.png,US_Cities_List/huntsville.png,,,,,,,,,,,,,,,,,,
null,,rt_plussign_withcolor,3404363,,,blue,,,,,null,US_Cities_List/racine.png,US_Cities_List/huntsville.png,,,,,,,,,,,,,,,,,,
1538.7999999970198,,rt_thecrossant_black,3405765,,,black_plus_sign,,,,,49,,,1,1,,,,,,,,,,,,,,,,
null,,color_black,3405868,,,black_plus_sign,,,,,null,,,,,,,,,,,,,,,,,,,,
null,,learn_phase(without_color),3408894,,,black_plus_sign,,,,,null,US_Cities_List/racine.png,US_Cities_List/huntsville.png,,,,,,,,,,,,,,,,,,
null,,black_cross(without_color),3409811,,,yellow,,,,,null,US_Cities_List/racine.png,US_Cities_List/huntsville.png,,,,,,,,,,,,,,,,,,
null,,rt_plussign_withcolor,3410313,,,yellow,,,,,null,US_Cities_List/racine.png,US_Cities_List/huntsville.png,,,,,,,,,,,,,,,,,,
941.2999999970198,,rt_thecrossant_black,3411401,,,black_plus_sign,,,,,50,,,1,1,,,,,,,,,,,,,,,,
null,,color_black,3411506,,,black_plus_sign,,,,,null,,,,,,,,,,,,,,,,,,,,
null,,learn_phase(without_color),3414527,,,black_plus_sign,,,,,null,US_Cities_List/hanover.png,US_Cities_List/hotsprings.png,,,,,,,,,,,,,,,,,,
null,,black_cross(without_color),3415196,,,yellow,,,,,null,US_Cities_List/hanover.png,US_Cities_List/hotsprings.png,,,,,,,,,,,,,,,,,,
null,,rt_plussign_withcolor,3415697,,,yellow,,,,,null,US_Cities_List/hanover.png,US_Cities_List/hotsprings.png,,,,,,,,,,,,,,,,,,
1270.7999999970198,,rt_thecrossant_black,3417040,,,black_plus_sign,,,,,50,,,1,1,,,,,,,,,,,,,,,,
null,,color_black,3417143,,,black_plus_sign,,,,,null,,,,,,,,,,,,,,,,,,,,
null,,learn_phase(without_color),3420171,,,black_plus_sign,,,,,null,US_Cities_List/gatlinburg.png,US_Cities_List/hanover.png,,,,,,,,,,,,,,,,,,
null,,black_cross(without_color),3421024,,,blue,,,,,null,US_Cities_List/gatlinburg.png,US_Cities_List/hanover.png,,,,,,,,,,,,,,,,,,
null,,rt_plussign_withcolor,3421526,,,blue,,,,,null,US_Cities_List/gatlinburg.png,US_Cities_List/hanover.png,,,,,,,,,,,,,,,,,,
954.2000000029802,,rt_thecrossant_black,3422678,,,black_plus_sign,,,,,49,,,1,1,,,,,,,,,,,,,,,,
null,,color_black,3422782,,,black_plus_sign,,,,,null,,,,,,,,,,,,,,,,,,,,
null,,learn_phase(without_color),3425812,,,black_plus_sign,,,,,null,US_Cities_List/shreveport.png,US_Cities_List/boulder.png,,,,,,,,,,,,,,,,,,
null,,black_cross(without_color),3426484,,,yellow,,,,,null,US_Cities_List/shreveport.png,US_Cities_List/boulder.png,,,,,,,,,,,,,,,,,,
null,,rt_plussign_withcolor,3426986,,,yellow,,,,,null,US_Cities_List/shreveport.png,US_Cities_List/boulder.png,,,,,,,,,,,,,,,,,,
1146.4000000059605,,rt_thecrossant_black,3428339,,,black_plus_sign,,,,,50,,,1,1,,,,,,,,,,,,,,,,
null,,color_black,3428443,,,black_plus_sign,,,,,null,,,,,,,,,,,,,,,,,,,,
null,,learn_phase(without_color),3431461,,,black_plus_sign,,,,,null,US_Cities_List/peoria.png,US_Cities_List/newhope.png,,,,,,,,,,,,,,,,,,
null,,black_cross(without_color),3432330,,,blue,,,,,null,US_Cities_List/peoria.png,US_Cities_List/newhope.png,,,,,,,,,,,,,,,,,,
null,,rt_plussign_withcolor,3432834,,,blue,,,,,null,US_Cities_List/peoria.png,US_Cities_List/newhope.png,,,,,,,,,,,,,,,,,,
1152.7999999970198,,rt_thecrossant_black,3433972,,,black_plus_sign,,,,,49,,,1,1,,,,,,,,,,,,,,,,
null,,color_black,3434075,,,black_plus_sign,,,,,null,,,,,,,,,,,,,,,,,,,,
null,,learn_phase(without_color),3437105,,,black_plus_sign,,,,,null,US_Cities_List/hanover.png,US_Cities_List/racine.png,,,,,,,,,,,,,,,,,,
null,,black_cross(without_color),3437758,,,blue,,,,,null,US_Cities_List/hanover.png,US_Cities_List/racine.png,,,,,,,,,,,,,,,,,,
null,,rt_plussign_withcolor,3438260,,,blue,,,,,null,US_Cities_List/hanover.png,US_Cities_List/racine.png,,,,,,,,,,,,,,,,,,
1181.0999999940395,,rt_thecrossant_black,3439611,,,black_plus_sign,,,,,49,,,1,1,,,,,,,,,,,,,,,,
null,,color_black,3439714,,,black_plus_sign,,,,,null,,,,,,,,,,,,,,,,,,,,
null,,learn_phase(without_color),3442732,,,black_plus_sign,,,,,null,US_Cities_List/leesburg.png,US_Cities_List/westpalmbeach.png,,,,,,,,,,,,,,,,,,
null,,black_cross(without_color),3443804,,,yellow,,,,,null,US_Cities_List/leesburg.png,US_Cities_List/westpalmbeach.png,,,,,,,,,,,,,,,,,,
null,,rt_plussign_withcolor,3444306,,,yellow,,,,,null,US_Cities_List/leesburg.png,US_Cities_List/westpalmbeach.png,,,,,,,,,,,,,,,,,,
1094.2000000029802,,rt_thecrossant_black,3445239,,,black_plus_sign,,,,,50,,,1,1,,,,,,,,,,,,,,,,
null,,color_black,3445342,,,black_plus_sign,,,,,null,,,,,,,,,,,,,,,,,,,,
null,,learn_phase(without_color),3448366,,,black_plus_sign,,,,,null,US_Cities_List/boulder.png,US_Cities_List/peoria.png,,,,,,,,,,,,,,,,,,
null,,black_cross(without_color),3449069,,,yellow,,,,,null,US_Cities_List/boulder.png,US_Cities_List/peoria.png,,,,,,,,,,,,,,,,,,
null,,rt_plussign_withcolor,3449572,,,yellow,,,,,null,US_Cities_List/boulder.png,US_Cities_List/peoria.png,,,,,,,,,,,,,,,,,,
1519.4000000059605,,rt_thecrossant_black,3450874,,,black_plus_sign,,,,,50,,,1,1,,,,,,,,,,,,,,,,
null,,color_black,3450977,,,black_plus_sign,,,,,null,,,,,,,,,,,,,,,,,,,,
null,,learn_phase(without_color),3454004,,,black_plus_sign,,,,,null,US_Cities_List/shreveport.png,US_Cities_List/boulder.png,,,,,,,,,,,,,,,,,,
null,,black_cross(without_color),3454886,,,blue,,,,,null,US_Cities_List/shreveport.png,US_Cities_List/boulder.png,,,,,,,,,,,,,,,,,,
null,,rt_plussign_withcolor,3455388,,,blue,,,,,null,US_Cities_List/shreveport.png,US_Cities_List/boulder.png,,,,,,,,,,,,,,,,,,
976.0999999940395,,rt_thecrossant_black,3456513,,,black_plus_sign,,,,,49,,,1,1,,,,,,,,,,,,,,,,
null,,color_black,3456615,,,black_plus_sign,,,,,null,,,,,,,,,,,,,,,,,,,,
null,,learn_phase(without_color),3459648,,,black_plus_sign,,,,,null,US_Cities_List/leesburg.png,US_Cities_List/hanover.png,,,,,,,,,,,,,,,,,,
null,,black_cross(without_color),3460575,,,blue,,,,,null,US_Cities_List/leesburg.png,US_Cities_List/hanover.png,,,,,,,,,,,,,,,,,,
null,,rt_plussign_withcolor,3461077,,,blue,,,,,null,US_Cities_List/leesburg.png,US_Cities_List/hanover.png,,,,,,,,,,,,,,,,,,
1150.1000000089407,,rt_thecrossant_black,3462165,,,black_plus_sign,,,,,49,,,1,1,,,,,,,,,,,,,,,,
null,,color_black,3462267,,,black_plus_sign,,,,,null,,,,,,,,,,,,,,,,,,,,
null,,learn_phase(without_color),3465287,,,black_plus_sign,,,,,null,US_Cities_List/hanover.png,US_Cities_List/racine.png,,,,,,,,,,,,,,,,,,
null,,black_cross(without_color),3465943,,,blue,,,,,null,US_Cities_List/hanover.png,US_Cities_List/racine.png,,,,,,,,,,,,,,,,,,
null,,rt_plussign_withcolor,3466446,,,blue,,,,,null,US_Cities_List/hanover.png,US_Cities_List/racine.png,,,,,,,,,,,,,,,,,,
1201.3999999910593,,rt_thecrossant_black,3467796,,,black_plus_sign,,,,,49,,,1,1,,,,,,,,,,,,,,,,
null,,color_black,3467913,,,black_plus_sign,,,,,null,,,,,,,,,,,,,,,,,,,,
null,,learn_phase(without_color),3470927,,,black_plus_sign,,,,,null,US_Cities_List/carmel.png,US_Cities_List/hotsprings.png,,,,,,,,,,,,,,,,,,
null,,black_cross(without_color),3471918,,,blue,,,,,null,US_Cities_List/carmel.png,US_Cities_List/hotsprings.png,,,,,,,,,,,,,,,,,,
null,,rt_plussign_withcolor,3472421,,,blue,,,,,null,US_Cities_List/carmel.png,US_Cities_List/hotsprings.png,,,,,,,,,,,,,,,,,,
1074.7999999970198,,rt_thecrossant_black,3473436,,,black_plus_sign,,,,,49,,,1,1,,,,,,,,,,,,,,,,
null,,color_black,3473539,,,black_plus_sign,,,,,null,,,,,,,,,,,,,,,,,,,,
null,,learn_phase(without_color),3476567,,,black_plus_sign,,,,,null,US_Cities_List/huntsville.png,US_Cities_List/racine.png,,,,,,,,,,,,,,,,,,
null,,black_cross(without_color),3477490,,,blue,,,,,null,US_Cities_List/huntsville.png,US_Cities_List/racine.png,,,,,,,,,,,,,,,,,,
null,,rt_plussign_withcolor,3478004,,,blue,,,,,null,US_Cities_List/huntsville.png,US_Cities_List/racine.png,,,,,,,,,,,,,,,,,,
1323.2999999970198,,rt_thecrossant_black,3479087,,,black_plus_sign,,,,,49,,,1,1,,,,,,,,,,,,,,,,
null,,color_black,3479190,,,black_plus_sign,,,,,null,,,,,,,,,,,,,,,,,,,,
null,,learn_phase(without_color),3482219,,,black_plus_sign,,,,,null,US_Cities_List/carmel.png,US_Cities_List/hotsprings.png,,,,,,,,,,,,,,,,,,
null,,black_cross(without_color),3483146,,,yellow,,,,,null,US_Cities_List/carmel.png,US_Cities_List/hotsprings.png,,,,,,,,,,,,,,,,,,
null,,rt_plussign_withcolor,3483648,,,yellow,,,,,null,US_Cities_List/carmel.png,US_Cities_List/hotsprings.png,,,,,,,,,,,,,,,,,,
1322.1000000089407,,rt_thecrossant_black,3484727,,,black_plus_sign,,,,,50,,,1,1,,,,,,,,,,,,,,,,
null,,color_black,3484831,,,black_plus_sign,,,,,null,,,,,,,,,,,,,,,,,,,,
null,,learn_phase(without_color),3487852,,,black_plus_sign,,,,,null,US_Cities_List/leesburg.png,US_Cities_List/westpalmbeach.png,,,,,,,,,,,,,,,,,,
null,,black_cross(without_color),3488520,,,yellow,,,,,null,US_Cities_List/leesburg.png,US_Cities_List/westpalmbeach.png,,,,,,,,,,,,,,,,,,
null,,rt_plussign_withcolor,3489022,,,yellow,,,,,null,US_Cities_List/leesburg.png,US_Cities_List/westpalmbeach.png,,,,,,,,,,,,,,,,,,
1287,,rt_thecrossant_black,3490361,,,black_plus_sign,,,,,50,,,1,1,,,,,,,,,,,,,,,,
null,,color_black,3490465,,,black_plus_sign,,,,,null,,,,,,,,,,,,,,,,,,,,
null,,learn_phase(without_color),3493490,,,black_plus_sign,,,,,null,US_Cities_List/leesburg.png,US_Cities_List/racine.png,,,,,,,,,,,,,,,,,,
null,,black_cross(without_color),3494009,,,blue,,,,,null,US_Cities_List/leesburg.png,US_Cities_List/racine.png,,,,,,,,,,,,,,,,,,
null,,rt_plussign_withcolor,3494512,,,blue,,,,,null,US_Cities_List/leesburg.png,US_Cities_List/racine.png,,,,,,,,,,,,,,,,,,
1135,,rt_thecrossant_black,3495999,,,black_plus_sign,,,,,49,,,1,1,,,,,,,,,,,,,,,,
null,,color_black,3496101,,,black_plus_sign,,,,,null,,,,,,,,,,,,,,,,,,,,
null,,learn_phase(without_color),3499121,,,black_plus_sign,,,,,null,US_Cities_List/hanover.png,US_Cities_List/racine.png,,,,,,,,,,,,,,,,,,
null,,black_cross(without_color),3499943,,,blue,,,,,null,US_Cities_List/hanover.png,US_Cities_List/racine.png,,,,,,,,,,,,,,,,,,
null,,rt_plussign_withcolor,3500445,,,blue,,,,,null,US_Cities_List/hanover.png,US_Cities_List/racine.png,,,,,,,,,,,,,,,,,,
842.2000000029802,,rt_thecrossant_black,3501628,,,black_plus_sign,,,,,49,,,1,1,,,,,,,,,,,,,,,,
null,,color_black,3501731,,,black_plus_sign,,,,,null,,,,,,,,,,,,,,,,,,,,
null,,learn_phase(without_color),3504771,,,black_plus_sign,,,,,null,US_Cities_List/gatlinburg.png,US_Cities_List/cornwall.png,,,,,,,,,,,,,,,,,,
null,,black_cross(without_color),3505400,,,blue,,,,,null,US_Cities_List/gatlinburg.png,US_Cities_List/cornwall.png,,,,,,,,,,,,,,,,,,
null,,rt_plussign_withcolor,3505902,,,blue,,,,,null,US_Cities_List/gatlinburg.png,US_Cities_List/cornwall.png,,,,,,,,,,,,,,,,,,
1199.2000000029802,,rt_thecrossant_black,3507284,,,black_plus_sign,,,,,49,,,1,1,,,,,,,,,,,,,,,,
null,,color_black,3507388,,,black_plus_sign,,,,,null,,,,,,,,,,,,,,,,,,,,
null,,learn_phase(without_color),3510423,,,black_plus_sign,,,,,null,US_Cities_List/carmel.png,US_Cities_List/gatlinburg.png,,,,,,,,,,,,,,,,,,
null,,black_cross(without_color),3511273,,,blue,,,,,null,US_Cities_List/carmel.png,US_Cities_List/gatlinburg.png,,,,,,,,,,,,,,,,,,
null,,rt_plussign_withcolor,3511776,,,blue,,,,,null,US_Cities_List/carmel.png,US_Cities_List/gatlinburg.png,,,,,,,,,,,,,,,,,,
958.3999999910593,,rt_thecrossant_black,3512949,,,black_plus_sign,,,,,49,,,1,1,,,,,,,,,,,,,,,,
null,,color_black,3513051,,,black_plus_sign,,,,,null,,,,,,,,,,,,,,,,,,,,
null,,learn_phase(without_color),3516083,,,black_plus_sign,,,,,null,US_Cities_List/cornwall.png,US_Cities_List/gatlinburg.png,,,,,,,,,,,,,,,,,,
null,,black_cross(without_color),3516970,,,blue,,,,,null,US_Cities_List/cornwall.png,US_Cities_List/gatlinburg.png,,,,,,,,,,,,,,,,,,
null,,rt_plussign_withcolor,3517472,,,blue,,,,,null,US_Cities_List/cornwall.png,US_Cities_List/gatlinburg.png,,,,,,,,,,,,,,,,,,
1158.7000000029802,,rt_thecrossant_black,3518591,,,black_plus_sign,,,,,49,,,1,1,,,,,,,,,,,,,,,,
null,,color_black,3518694,,,black_plus_sign,,,,,null,,,,,,,,,,,,,,,,,,,,
null,,learn_phase(without_color),3521727,,,black_plus_sign,,,,,null,US_Cities_List/carmel.png,US_Cities_List/gatlinburg.png,,,,,,,,,,,,,,,,,,
null,,black_cross(without_color),3522335,,,yellow,,,,,null,US_Cities_List/carmel.png,US_Cities_List/gatlinburg.png,,,,,,,,,,,,,,,,,,
null,,rt_plussign_withcolor,3522837,,,yellow,,,,,null,US_Cities_List/carmel.png,US_Cities_List/gatlinburg.png,,,,,,,,,,,,,,,,,,
1197.2000000029802,,rt_thecrossant_black,3524242,,,black_plus_sign,,,,,50,,,1,1,,,,,,,,,,,,,,,,
null,,color_black,3524347,,,black_plus_sign,,,,,null,,,,,,,,,,,,,,,,,,,,
null,,learn_phase(without_color),3527364,,,black_plus_sign,,,,,null,US_Cities_List/carmel.png,US_Cities_List/hotsprings.png,,,,,,,,,,,,,,,,,,
null,,black_cross(without_color),3528262,,,yellow,,,,,null,US_Cities_List/carmel.png,US_Cities_List/hotsprings.png,,,,,,,,,,,,,,,,,,
null,,rt_plussign_withcolor,3528765,,,yellow,,,,,null,US_Cities_List/carmel.png,US_Cities_List/hotsprings.png,,,,,,,,,,,,,,,,,,
952.6000000089407,,rt_thecrossant_black,3529891,,,black_plus_sign,,,,,50,,,1,1,,,,,,,,,,,,,,,,
null,,color_black,3529993,,,black_plus_sign,,,,,null,,,,,,,,,,,,,,,,,,,,
null,,learn_phase(without_color),3533023,,,black_plus_sign,,,,,null,US_Cities_List/boulder.png,US_Cities_List/carmel.png,,,,,,,,,,,,,,,,,,
null,,black_cross(without_color),3534064,,,yellow,,,,,null,US_Cities_List/boulder.png,US_Cities_List/carmel.png,,,,,,,,,,,,,,,,,,
null,,rt_plussign_withcolor,3534567,,,yellow,,,,,null,US_Cities_List/boulder.png,US_Cities_List/carmel.png,,,,,,,,,,,,,,,,,,
1170.5,,rt_thecrossant_black,3535537,,,black_plus_sign,,,,,50,,,1,1,,,,,,,,,,,,,,,,
null,,color_black,3535640,,,black_plus_sign,,,,,null,,,,,,,,,,,,,,,,,,,,
null,,learn_phase(without_color),3538662,,,black_plus_sign,,,,,null,US_Cities_List/hanover.png,US_Cities_List/racine.png,,,,,,,,,,,,,,,,,,
null,,black_cross(without_color),3539236,,,yellow,,,,,null,US_Cities_List/hanover.png,US_Cities_List/racine.png,,,,,,,,,,,,,,,,,,
null,,rt_plussign_withcolor,3539738,,,yellow,,,,,null,US_Cities_List/hanover.png,US_Cities_List/racine.png,,,,,,,,,,,,,,,,,,
1486.9000000059605,,rt_thecrossant_black,3541184,,,black_plus_sign,,,,,50,,,1,1,,,,,,,,,,,,,,,,
null,,color_black,3541288,,,black_plus_sign,,,,,null,,,,,,,,,,,,,,,,,,,,
15788.89999999106,,learn_break,3557079,,,learn_break,,,,,32,,,,,,,,,,,,,,,,,,,,
14504.10000000894,,intro_1,3571585,,,instruct,,,0,,,,,,,,,,,,,,,,,,,,,,
21986.60000000894,,intro_2,3593575,,,instruct,,,1,Next,,,,,,,,,,,,,,,,,,,,,
2759.6000000089407,,directmemory_phase,3596361,,,../static/images/US_Cities_List/peoria.png,,,,,49,,,1,1,../static/images/US_Cities_List/boulder.png,../static/images/US_Cities_List/racine.png,../static/images/US_Cities_List/gatlinburg.png,../static/images/US_Cities_List/boulder.png,../static/images/US_Cities_List/gatlinburg.png,../static/images/US_Cities_List/racine.png,1,,,,,,,,,
null,,html-keyboard-response,3597372,,,<p></p>,,,,,null,,,,,,,,,,,,,,,,,,,,
2192.7000000029802,,directmemory_phase,3599596,,,../static/images/US_Cities_List/leesburg.png,,,,,51,,,1,1,../static/images/US_Cities_List/peoria.png,../static/images/US_Cities_List/gatlinburg.png,../static/images/US_Cities_List/hanover.png,../static/images/US_Cities_List/hanover.png,../static/images/US_Cities_List/gatlinburg.png,../static/images/US_Cities_List/peoria.png,1,,,,,,,,,
null,,html-keyboard-response,3600602,,,<p></p>,,,,,null,,,,,,,,,,,,,,,,,,,,
2464.5999999940395,,directmemory_phase,3603110,,,../static/images/US_Cities_List/carmel.png,,,,,49,,,1,1,../static/images/US_Cities_List/gatlinburg.png,../static/images/US_Cities_List/westpalmbeach.png,../static/images/US_Cities_List/cornwall.png,../static/images/US_Cities_List/gatlinburg.png,../static/images/US_Cities_List/cornwall.png,../static/images/US_Cities_List/westpalmbeach.png,1,,,,,,,,,
null,,html-keyboard-response,3604119,,,<p></p>,,,,,null,,,,,,,,,,,,,,,,,,,,
1909.7000000029802,,directmemory_phase,3606079,,,../static/images/US_Cities_List/leesburg.png,,,,,50,,,1,1,../static/images/US_Cities_List/carmel.png,../static/images/US_Cities_List/westpalmbeach.png,../static/images/US_Cities_List/shreveport.png,../static/images/US_Cities_List/westpalmbeach.png,../static/images/US_Cities_List/carmel.png,../static/images/US_Cities_List/shreveport.png,1,,,,,,,,,
null,,html-keyboard-response,3607085,,,<p></p>,,,,,null,,,,,,,,,,,,,,,,,,,,
2636.9000000059605,,directmemory_phase,3609777,,,../static/images/US_Cities_List/hanover.png,,,,,49,,,1,1,../static/images/US_Cities_List/racine.png,../static/images/US_Cities_List/shreveport.png,../static/images/US_Cities_List/carmel.png,../static/images/US_Cities_List/racine.png,../static/images/US_Cities_List/carmel.png,../static/images/US_Cities_List/shreveport.png,1,,,,,,,,,
null,,html-keyboard-response,3610782,,,<p></p>,,,,,null,,,,,,,,,,,,,,,,,,,,
1765.7000000029802,,directmemory_phase,3612598,,,../static/images/US_Cities_List/westpalmbeach.png,,,,,49,,,1,1,../static/images/US_Cities_List/leesburg.png,../static/images/US_Cities_List/gatlinburg.png,../static/images/US_Cities_List/hotsprings.png,../static/images/US_Cities_List/leesburg.png,../static/images/US_Cities_List/hotsprings.png,../static/images/US_Cities_List/gatlinburg.png,1,,,,,,,,,
null,,html-keyboard-response,3613603,,,<p></p>,,,,,null,,,,,,,,,,,,,,,,,,,,
1556.7000000029802,,directmemory_phase,3615215,,,../static/images/US_Cities_List/gatlinburg.png,,,,,51,,,1,1,../static/images/US_Cities_List/huntsville.png,../static/images/US_Cities_List/leesburg.png,../static/images/US_Cities_List/cornwall.png,../static/images/US_Cities_List/cornwall.png,../static/images/US_Cities_List/leesburg.png,../static/images/US_Cities_List/huntsville.png,1,,,,,,,,,
null,,html-keyboard-response,3616231,,,<p></p>,,,,,null,,,,,,,,,,,,,,,,,,,,
2450,,directmemory_phase,3618717,,,../static/images/US_Cities_List/hanover.png,,,,,51,,,1,1,../static/images/US_Cities_List/peoria.png,../static/images/US_Cities_List/carmel.png,../static/images/US_Cities_List/leesburg.png,../static/images/US_Cities_List/leesburg.png,../static/images/US_Cities_List/carmel.png,../static/images/US_Cities_List/peoria.png,1,,,,,,,,,
null,,html-keyboard-response,3619723,,,<p></p>,,,,,null,,,,,,,,,,,,,,,,,,,,
3360.9000000059605,,directmemory_phase,3623128,,,../static/images/US_Cities_List/boulder.png,,,,,51,,,1,1,../static/images/US_Cities_List/racine.png,../static/images/US_Cities_List/gatlinburg.png,../static/images/US_Cities_List/peoria.png,../static/images/US_Cities_List/peoria.png,../static/images/US_Cities_List/gatlinburg.png,../static/images/US_Cities_List/racine.png,1,,,,,,,,,
null,,html-keyboard-response,3624136,,,<p></p>,,,,,null,,,,,,,,,,,,,,,,,,,,
1769.5,,directmemory_phase,3625947,,,../static/images/US_Cities_List/racine.png,,,,,51,,,1,1,../static/images/US_Cities_List/peoria.png,../static/images/US_Cities_List/gatlinburg.png,../static/images/US_Cities_List/leesburg.png,../static/images/US_Cities_List/leesburg.png,../static/images/US_Cities_List/gatlinburg.png,../static/images/US_Cities_List/peoria.png,1,,,,,,,,,
null,,html-keyboard-response,3626952,,,<p></p>,,,,,null,,,,,,,,,,,,,,,,,,,,
2179.8999999910593,,directmemory_phase,3629164,,,../static/images/US_Cities_List/hotsprings.png,,,,,49,,,1,1,../static/images/US_Cities_List/hanover.png,../static/images/US_Cities_List/peoria.png,../static/images/US_Cities_List/racine.png,../static/images/US_Cities_List/hanover.png,../static/images/US_Cities_List/racine.png,../static/images/US_Cities_List/peoria.png,1,,,,,,,,,
null,,html-keyboard-response,3630171,,,<p></p>,,,,,null,,,,,,,,,,,,,,,,,,,,
1629.2000000029802,,directmemory_phase,3631829,,,../static/images/US_Cities_List/shreveport.png,,,,,51,,,1,1,../static/images/US_Cities_List/gatlinburg.png,../static/images/US_Cities_List/carmel.png,../static/images/US_Cities_List/boulder.png,../static/images/US_Cities_List/boulder.png,../static/images/US_Cities_List/carmel.png,../static/images/US_Cities_List/gatlinburg.png,1,,,,,,,,,
null,,html-keyboard-response,3632835,,,<p></p>,,,,,null,,,,,,,,,,,,,,,,,,,,
2519.7999999970198,,directmemory_phase,3635384,,,../static/images/US_Cities_List/racine.png,,,,,51,,,1,1,../static/images/US_Cities_List/boulder.png,../static/images/US_Cities_List/hotsprings.png,../static/images/US_Cities_List/huntsville.png,../static/images/US_Cities_List/huntsville.png,../static/images/US_Cities_List/hotsprings.png,../static/images/US_Cities_List/boulder.png,1,,,,,,,,,
null,,html-keyboard-response,3636392,,,<p></p>,,,,,null,,,,,,,,,,,,,,,,,,,,
2009.5,,directmemory_phase,3638468,,,../static/images/US_Cities_List/boulder.png,,,,,49,,,1,1,../static/images/US_Cities_List/shreveport.png,../static/images/US_Cities_List/racine.png,../static/images/US_Cities_List/hotsprings.png,../static/images/US_Cities_List/shreveport.png,../static/images/US_Cities_List/hotsprings.png,../static/images/US_Cities_List/racine.png,1,,,,,,,,,
null,,html-keyboard-response,3639474,,,<p></p>,,,,,null,,,,,,,,,,,,,,,,,,,,
1958.9000000059605,,directmemory_phase,3641476,,,../static/images/US_Cities_List/leesburg.png,,,,,49,,,1,1,../static/images/US_Cities_List/hotsprings.png,../static/images/US_Cities_List/peoria.png,../static/images/US_Cities_List/huntsville.png,../static/images/US_Cities_List/hotsprings.png,../static/images/US_Cities_List/huntsville.png,../static/images/US_Cities_List/peoria.png,1,,,,,,,,,
null,,html-keyboard-response,3642483,,,<p></p>,,,,,null,,,,,,,,,,,,,,,,,,,,
1941.199999988079,,directmemory_phase,3644485,,,../static/images/US_Cities_List/racine.png,,,,,51,,,1,1,../static/images/US_Cities_List/cornwall.png,../static/images/US_Cities_List/hotsprings.png,../static/images/US_Cities_List/hanover.png,../static/images/US_Cities_List/hanover.png,../static/images/US_Cities_List/hotsprings.png,../static/images/US_Cities_List/cornwall.png,1,,,,,,,,,
null,,html-keyboard-response,3645493,,,<p></p>,,,,,null,,,,,,,,,,,,,,,,,,,,
1852.0999999940395,,directmemory_phase,3647408,,,../static/images/US_Cities_List/carmel.png,,,,,50,,,1,1,../static/images/US_Cities_List/cornwall.png,../static/images/US_Cities_List/hotsprings.png,../static/images/US_Cities_List/racine.png,../static/images/US_Cities_List/hotsprings.png,../static/images/US_Cities_List/cornwall.png,../static/images/US_Cities_List/racine.png,1,,,,,,,,,
null,,html-keyboard-response,3648413,,,<p></p>,,,,,null,,,,,,,,,,,,,,,,,,,,
2090,,directmemory_phase,3650545,,,../static/images/US_Cities_List/peoria.png,,,,,49,,,1,1,../static/images/US_Cities_List/newhope.png,../static/images/US_Cities_List/leesburg.png,../static/images/US_Cities_List/shreveport.png,../static/images/US_Cities_List/newhope.png,../static/images/US_Cities_List/shreveport.png,../static/images/US_Cities_List/leesburg.png,1,,,,,,,,,
null,,html-keyboard-response,3651553,,,<p></p>,,,,,null,,,,,,,,,,,,,,,,,,,,
5388.399999991059,,directmemory_phase,3656969,,,../static/images/US_Cities_List/hanover.png,,,,,51,,,1,1,../static/images/US_Cities_List/boulder.png,../static/images/US_Cities_List/carmel.png,../static/images/US_Cities_List/gatlinburg.png,../static/images/US_Cities_List/gatlinburg.png,../static/images/US_Cities_List/carmel.png,../static/images/US_Cities_List/boulder.png,1,,,,,,,,,
null,,html-keyboard-response,3657974,,,<p></p>,,,,,null,,,,,,,,,,,,,,,,,,,,
2107.0999999940395,,directmemory_phase,3660117,,,../static/images/US_Cities_List/hotsprings.png,,,,,51,,,1,1,../static/images/US_Cities_List/cornwall.png,../static/images/US_Cities_List/westpalmbeach.png,../static/images/US_Cities_List/leesburg.png,../static/images/US_Cities_List/leesburg.png,../static/images/US_Cities_List/westpalmbeach.png,../static/images/US_Cities_List/cornwall.png,1,,,,,,,,,
null,,html-keyboard-response,3661122,,,<p></p>,,,,,null,,,,,,,,,,,,,,,,,,,,
1878.199999988079,,directmemory_phase,3663039,,,../static/images/US_Cities_List/carmel.png,,,,,51,,,1,1,../static/images/US_Cities_List/racine.png,../static/images/US_Cities_List/shreveport.png,../static/images/US_Cities_List/boulder.png,../static/images/US_Cities_List/boulder.png,../static/images/US_Cities_List/shreveport.png,../static/images/US_Cities_List/racine.png,1,,,,,,,,,
null,,html-keyboard-response,3664047,,,<p></p>,,,,,null,,,,,,,,,,,,,,,,,,,,
1574.7999999970198,,directmemory_phase,3665675,,,../static/images/US_Cities_List/gatlinburg.png,,,,,51,,,1,1,../static/images/US_Cities_List/newhope.png,../static/images/US_Cities_List/racine.png,../static/images/US_Cities_List/hanover.png,../static/images/US_Cities_List/hanover.png,../static/images/US_Cities_List/racine.png,../static/images/US_Cities_List/newhope.png,1,,,,,,,,,
null,,html-keyboard-response,3666683,,,<p></p>,,,,,null,,,,,,,,,,,,,,,,,,,,
1406.2999999970198,,directmemory_phase,3668137,,,../static/images/US_Cities_List/boulder.png,,,,,51,,,0,0.9565217391304348,../static/images/US_Cities_List/carmel.png,../static/images/US_Cities_List/leesburg.png,../static/images/US_Cities_List/gatlinburg.png,../static/images/US_Cities_List/carmel.png,../static/images/US_Cities_List/gatlinburg.png,../static/images/US_Cities_List/leesburg.png,0.5,closer,,,,,,,,
null,,html-keyboard-response,3669144,,,<p></p>,,,,,null,,,,,,,,,,,,,,,,,,,,
1779,,directmemory_phase,3670971,,,../static/images/US_Cities_List/cornwall.png,,,,,51,,,1,0.9583333333333334,../static/images/US_Cities_List/westpalmbeach.png,../static/images/US_Cities_List/hanover.png,../static/images/US_Cities_List/peoria.png,../static/images/US_Cities_List/peoria.png,../static/images/US_Cities_List/hanover.png,../static/images/US_Cities_List/westpalmbeach.png,1,,,,,,,,,
null,,html-keyboard-response,3671978,,,<p></p>,,,,,null,,,,,,,,,,,,,,,,,,,,
1303.8999999910593,,directmemory_phase,3673330,,,../static/images/US_Cities_List/huntsville.png,,,,,49,,,1,0.96,../static/images/US_Cities_List/racine.png,../static/images/US_Cities_List/gatlinburg.png,../static/images/US_Cities_List/hanover.png,../static/images/US_Cities_List/racine.png,../static/images/US_Cities_List/hanover.png,../static/images/US_Cities_List/gatlinburg.png,1,,,,,,,,,
null,,html-keyboard-response,3674335,,,<p></p>,,,,,null,,,,,,,,,,,,,,,,,,,,
2287.2999999970198,,directmemory_phase,3676661,,,../static/images/US_Cities_List/peoria.png,,,,,51,,,1,0.9615384615384616,../static/images/US_Cities_List/hanover.png,../static/images/US_Cities_List/shreveport.png,../static/images/US_Cities_List/cornwall.png,../static/images/US_Cities_List/cornwall.png,../static/images/US_Cities_List/shreveport.png,../static/images/US_Cities_List/hanover.png,1,,,,,,,,,
null,,html-keyboard-response,3677668,,,<p></p>,,,,,null,,,,,,,,,,,,,,,,,,,,
1320.5999999940395,,directmemory_phase,3679027,,,../static/images/US_Cities_List/hanover.png,,,,,51,,,1,0.9629629629629629,../static/images/US_Cities_List/shreveport.png,../static/images/US_Cities_List/westpalmbeach.png,../static/images/US_Cities_List/hotsprings.png,../static/images/US_Cities_List/hotsprings.png,../static/images/US_Cities_List/westpalmbeach.png,../static/images/US_Cities_List/shreveport.png,1,,,,,,,,,
null,,html-keyboard-response,3680034,,,<p></p>,,,,,null,,,,,,,,,,,,,,,,,,,,
2079.7000000029802,,directmemory_phase,3682163,,,../static/images/US_Cities_List/cornwall.png,,,,,50,,,1,0.9642857142857143,../static/images/US_Cities_List/boulder.png,../static/images/US_Cities_List/gatlinburg.png,../static/images/US_Cities_List/racine.png,../static/images/US_Cities_List/gatlinburg.png,../static/images/US_Cities_List/boulder.png,../static/images/US_Cities_List/racine.png,1,,,,,,,,,
null,,html-keyboard-response,3683168,,,<p></p>,,,,,null,,,,,,,,,,,,,,,,,,,,
2204.300000011921,,directmemory_phase,3685426,,,../static/images/US_Cities_List/hotsprings.png,,,,,49,,,1,0.9655172413793104,../static/images/US_Cities_List/carmel.png,../static/images/US_Cities_List/newhope.png,../static/images/US_Cities_List/racine.png,../static/images/US_Cities_List/carmel.png,../static/images/US_Cities_List/racine.png,../static/images/US_Cities_List/newhope.png,1,,,,,,,,,
null,,html-keyboard-response,3686433,,,<p></p>,,,,,null,,,,,,,,,,,,,,,,,,,,
2186,,directmemory_phase,3688675,,,../static/images/US_Cities_List/leesburg.png,,,,,49,,,1,0.9666666666666667,../static/images/US_Cities_List/racine.png,../static/images/US_Cities_List/cornwall.png,../static/images/US_Cities_List/carmel.png,../static/images/US_Cities_List/racine.png,../static/images/US_Cities_List/carmel.png,../static/images/US_Cities_List/cornwall.png,1,,,,,,,,,
null,,html-keyboard-response,3689682,,,<p></p>,,,,,null,,,,,,,,,,,,,,,,,,,,
2383.2999999970198,,directmemory_phase,3692115,,,../static/images/US_Cities_List/gatlinburg.png,,,,,49,,,1,0.967741935483871,../static/images/US_Cities_List/carmel.png,../static/images/US_Cities_List/westpalmbeach.png,../static/images/US_Cities_List/hotsprings.png,../static/images/US_Cities_List/carmel.png,../static/images/US_Cities_List/hotsprings.png,../static/images/US_Cities_List/westpalmbeach.png,1,,,,,,,,,
null,,html-keyboard-response,3693126,,,<p></p>,,,,,null,,,,,,,,,,,,,,,,,,,,
1399.7999999970198,,directmemory_phase,3694554,,,../static/images/US_Cities_List/newhope.png,,,,,49,,,1,0.96875,../static/images/US_Cities_List/peoria.png,../static/images/US_Cities_List/shreveport.png,../static/images/US_Cities_List/cornwall.png,../static/images/US_Cities_List/peoria.png,../static/images/US_Cities_List/cornwall.png,../static/images/US_Cities_List/shreveport.png,1,,,,,,,,,
null,,html-keyboard-response,3695557,,,<p></p>,,,,,null,,,,,,,,,,,,,,,,,,,,
16304.90000000596,,intro_1,3711863,,,instruct,,,0,,,,,,,,,,,,,,,,,,,,,,
16010.90000000596,,intro_2,3727877,,,instruct,,,1,Next,,,,,,,,,,,,,,,,,,,,,
13178.79999999702,,intro_3,3741059,,,instruct,,,1,Next,,,,,,,,,,,,,,,,,,,,,
15283.40000000596,,intro_4,3756345,,,instruct,,,1,Next,,,,,,,,,,,,,,,,,,,,,
21577.79999999702,,intro_5,3777926,,,instruct,,,1,Next,,,,,,,,,,,,,,,,,,,,,
2289.2999999970198,,intro_6,3780218,,,instruct,,,1,Next,,,,,,,,,,,,,,,,,,,,,
3279.4000000059605,,intro_7,3783501,,,instruct,,,1,Next,,,,,,,,,,,,,,,,,,,,,
5340.4000000059605,,intro_8,3788845,,,instruct,,,1,Next,,,,,,,,,,,,,,,,,,,,,
4436.5,,intro_9,3793284,,,instruct,,,1,Next,,,,,,,,,,,,,,,,,,,,,
4189,,intro_10,3797476,,,instruct,,,1,Next,,,,,,,,,,,,,,,,,,,,,
11666.40000000596,,intro_11,3809146,,,instruct,,,1,Next,,,,,,,,,,,,,,,,,,,,,
null,,shortestpath_phase,3816678,,,../static/images/US_Cities_List/shreveport.png,,,,,null,../static/images/US_Cities_List/peoria.png,../static/images/US_Cities_List/gatlinburg.png,0,0,,,,../static/images/US_Cities_List/peoria.png,,,,,One Edge Diff,Two Edge Three Edge,,,,,,
null,,warning_page,3819684,,,warning,,,,,null,,,,,,,,,,,,,,,,,,,,
null,,html-keyboard-response,3820686,,,<p></p>,,,,,null,,,,,,,,,,,,,,,,,,,,
2778,,shortestpath_phase,3823506,,,../static/images/US_Cities_List/newhope.png,,,,,49,../static/images/US_Cities_List/westpalmbeach.png,../static/images/US_Cities_List/hanover.png,0,0,,,,../static/images/US_Cities_List/hanover.png,,,,,Two Edge Diff,Four Edge Six Edge,,,,,,
null,,html-keyboard-response,3824511,,,<p></p>,,,,,null,,,,,,,,,,,,,,,,,,,,
4346.600000008941,,shortestpath_phase,3828898,,,../static/images/US_Cities_List/westpalmbeach.png,,,,,50,../static/images/US_Cities_List/shreveport.png,../static/images/US_Cities_List/hotsprings.png,1,0.3333333333333333,,,,../static/images/US_Cities_List/hotsprings.png,,,,,Three Edge Diff,Three Edge Six Edge,,,,,,
null,,html-keyboard-response,3829910,,,<p></p>,,,,,null,,,,,,,,,,,,,,,,,,,,
null,,shortestpath_phase,3837441,,,../static/images/US_Cities_List/boulder.png,,,,,null,../static/images/US_Cities_List/huntsville.png,../static/images/US_Cities_List/racine.png,0,0.25,,,,../static/images/US_Cities_List/racine.png,,,,,One Edge Diff,Four Edge Five Edge,,,,,,
null,,warning_page,3840451,,,warning,,,,,null,,,,,,,,,,,,,,,,,,,,
null,,html-keyboard-response,3841455,,,<p></p>,,,,,null,,,,,,,,,,,,,,,,,,,,
4293.100000008941,,shortestpath_phase,3845778,,,../static/images/US_Cities_List/huntsville.png,,,,,50,../static/images/US_Cities_List/carmel.png,../static/images/US_Cities_List/peoria.png,0,0.2,,,,../static/images/US_Cities_List/carmel.png,,,,,One Edge Diff,Four Edge Five Edge,,,,,,
null,,html-keyboard-response,3846783,,,<p></p>,,,,,null,,,,,,,,,,,,,,,,,,,,
3769.7999999970198,,shortestpath_phase,3850586,,,../static/images/US_Cities_List/westpalmbeach.png,,,,,50,../static/images/US_Cities_List/newhope.png,../static/images/US_Cities_List/peoria.png,1,0.3333333333333333,,,,../static/images/US_Cities_List/peoria.png,,,,,One Edge Diff,Five Edge Six Edge,,,,,,
null,,html-keyboard-response,3851592,,,<p></p>,,,,,null,,,,,,,,,,,,,,,,,,,,
4907.70000000298,,shortestpath_phase,3856517,,,../static/images/US_Cities_List/shreveport.png,,,,,50,../static/images/US_Cities_List/carmel.png,../static/images/US_Cities_List/huntsville.png,0,0.2857142857142857,,,,../static/images/US_Cities_List/carmel.png,,,,,Four Edge Diff,Two Edge Six Edge,,,,,,
null,,html-keyboard-response,3857525,,,<p></p>,,,,,null,,,,,,,,,,,,,,,,,,,,
4791.79999999702,,shortestpath_phase,3862360,,,../static/images/US_Cities_List/newhope.png,,,,,50,../static/images/US_Cities_List/huntsville.png,../static/images/US_Cities_List/hanover.png,1,0.375,,,,../static/images/US_Cities_List/hanover.png,,,,,Two Edge Diff,Four Edge Six Edge,,,,,,
null,,html-keyboard-response,3863364,,,<p></p>,,,,,null,,,,,,,,,,,,,,,,,,,,
3727.5,,shortestpath_phase,3867115,,,../static/images/US_Cities_List/boulder.png,,,,,50,../static/images/US_Cities_List/westpalmbeach.png,../static/images/US_Cities_List/leesburg.png,1,0.4444444444444444,,,,../static/images/US_Cities_List/leesburg.png,,,,,One Edge Diff,Three Edge Four Edge,,,,,,
null,,html-keyboard-response,3868121,,,<p></p>,,,,,null,,,,,,,,,,,,,,,,,,,,
3175.7999999970198,,shortestpath_phase,3871332,,,../static/images/US_Cities_List/newhope.png,,,,,49,../static/images/US_Cities_List/cornwall.png,../static/images/US_Cities_List/huntsville.png,1,0.5,,,,../static/images/US_Cities_List/cornwall.png,,,,,Four Edge Diff,Two Edge Six Edge,,,,,,
null,,html-keyboard-response,3872340,,,<p></p>,,,,,null,,,,,,,,,,,,,,,,,,,,
3265.7000000029802,,shortestpath_phase,3875641,,,../static/images/US_Cities_List/westpalmbeach.png,,,,,49,../static/images/US_Cities_List/hanover.png,../static/images/US_Cities_List/carmel.png,1,0.5454545454545454,,,,../static/images/US_Cities_List/hanover.png,,,,,One Edge Diff,Two Edge Three Edge,,,,,,
null,,html-keyboard-response,3876646,,,<p></p>,,,,,null,,,,,,,,,,,,,,,,,,,,
3514.5,,shortestpath_phase,3880186,,,../static/images/US_Cities_List/newhope.png,,,,,49,../static/images/US_Cities_List/hotsprings.png,../static/images/US_Cities_List/gatlinburg.png,0,0.5,,,,../static/images/US_Cities_List/gatlinburg.png,,,,,One Edge Diff,Three Edge Four Edge,,,,,,
null,,html-keyboard-response,3881190,,,<p></p>,,,,,null,,,,,,,,,,,,,,,,,,,,
2045.6000000089407,,shortestpath_phase,3883258,,,../static/images/US_Cities_List/boulder.png,,,,,50,../static/images/US_Cities_List/huntsville.png,../static/images/US_Cities_List/hotsprings.png,1,0.5384615384615384,,,,../static/images/US_Cities_List/hotsprings.png,,,,,Three Edge Diff,Three Edge Six Edge,,,,,,
null,,html-keyboard-response,3884264,,,<p></p>,,,,,null,,,,,,,,,,,,,,,,,,,,
4457.70000000298,,shortestpath_phase,3888758,,,../static/images/US_Cities_List/huntsville.png,,,,,49,../static/images/US_Cities_List/carmel.png,../static/images/US_Cities_List/newhope.png,1,0.5714285714285714,,,,../static/images/US_Cities_List/carmel.png,,,,,Two Edge Diff,Four Edge Six Edge,,,,,,
null,,html-keyboard-response,3889763,,,<p></p>,,,,,null,,,,,,,,,,,,,,,,,,,,
