rt,responses,trial_type,time_elapsed,image_type,sequence,stimulus,cities,city_images,button_pressed,response,key_press,stimulus_left,stimulus_right,accuracy,cumulative_accuracy,stimulus_down_left,stimulus_down_mid,stimulus_down_right,stimulus_correct,stimulus_short,stimulus_far,weighted_accuracy,missedtrial,condition,specific_pairs,imgL_ID,imgR_ID,linedress,linedressed,detour_trial,linedressed_detor
9233.20000000298,{worker_id:62ceeffea6d9872b4adeee6f},id_enter,9236,fictional,interleaved,flights,Cedarwyn; New Verdan; Baymarsh; Claywater; Orchard Bend; Delaro Park; Hollendale; Hawthorne Bluffs; Juniper Creek; Sunmere; North Arroya; Granton Ridge; Riverlyn,US_Cities_List/huntsville.png; US_Cities_List/racine.png; US_Cities_List/leesburg.png; US_Cities_List/boulder.png; US_Cities_List/peoria.png; US_Cities_List/cornwall.png; US_Cities_List/carmel.png; US_Cities_List/shreveport.png; US_Cities_List/gatlinburg.png; US_Cities_List/hotsprings.png; US_Cities_List/newhope.png; US_Cities_List/hanover.png; US_Cities_List/westpalmbeach.png,,,,,,,,,,,,,,,,,,,,,,,
3675.2000000029802,,fullscreen,12917,,,make_fullscreen,,,0,,,,,,,,,,,,,,,,,,,,,,
11333.5,,intro_1,24252,,,instruct,,,0,,,,,,,,,,,,,,,,,,,,,,
12231.89999999851,,intro_2,36485,,,instruct,,,1,Next,,,,,,,,,,,,,,,,,,,,,
13213,,intro_3,49701,,,instruct,,,1,Next,,,,,,,,,,,,,,,,,,,,,
9698.79999999702,,intro_4,59402,,,instruct,,,1,Next,,,,,,,,,,,,,,,,,,,,,
13497.39999999851,,intro_5,72901,,,instruct,,,1,Next,,,,,,,,,,,,,,,,,,,,,
22497.80000000447,,intro_6,95401,,,instruct,,,1,Next,,,,,,,,,,,,,,,,,,,,,
14664.5,,intro_7,110067,,,instruct,,,1,Next,,,,,,,,,,,,,,,,,,,,,
null,,learn_prac_1,113071,,,lean_prac_1,,,,,null,,,,,,,,,,,,,,,,,,,,
null,,html-keyboard-response,114075,,,<p></p>,,,,,null,,,,,,,,,,,,,,,,,,,,
3242.89999999851,,intro_1,117320,,,instruct,,,0,,,,,,,,,,,,,,,,,,,,,,
14996.09999999404,,intro_2,132318,,,instruct,,,1,Next,,,,,,,,,,,,,,,,,,,,,
null,,learn_prac_2,135321,,,lean_prac_2,,,,,null,,,,,,,,,,,,,,,,,,,,
null,,html-keyboard-response,136325,,,<p></p>,,,,,null,,,,,,,,,,,,,,,,,,,,
5373.79999999702,,intro_1,141701,,,instruct,,,0,,,,,,,,,,,,,,,,,,,,,,
6231.5,,intro_2,147934,,,instruct,,,1,Next,,,,,,,,,,,,,,,,,,,,,
25515,,intro_3,173451,,,instruct,,,1,Next,,,,,,,,,,,,,,,,,,,,,
null,,prac_atten_color_black,173775,,,black_plus_sign,,,,,null,,,,,,,,,,,,,,,,,,,,
482.6000000014901,,prac_atten_color,174858,,,prac_stop_color,,,,,49,,,,,,,,,,,,,,,,,,,,
null,,prac_atten_color_black,176861,,,black_plus_sign,,,,,null,,,,,,,,,,,,,,,,,,,,
null,,prac_atten_color_black,177187,,,black_plus_sign,,,,,null,,,,,,,,,,,,,,,,,,,,
446.5,,prac_atten_color,177743,,,prac_stop_color,,,,,50,,,,,,,,,,,,,,,,,,,,
null,,prac_atten_color_black,179747,,,black_plus_sign,,,,,null,,,,,,,,,,,,,,,,,,,,
null,,prac_atten_color_black,180597,,,black_plus_sign,,,,,null,,,,,,,,,,,,,,,,,,,,
542,,prac_atten_color,181300,,,prac_stop_color,,,,,49,,,,,,,,,,,,,,,,,,,,
null,,prac_atten_color_black,183303,,,black_plus_sign,,,,,null,,,,,,,,,,,,,,,,,,,,
3914.7000000029802,,attentioncheck_help,187220,,,instruct,,,,,32,,,,,,,,,,,,,,,,,,,,
null,,prac_atten_color_black,187925,,,black_plus_sign,,,,,null,,,,,,,,,,,,,,,,,,,,
588.6999999955297,,prac_atten_color,188984,,,prac_stop_color,,,,,49,,,,,,,,,,,,,,,,,,,,
null,,prac_atten_color_black,190987,,,black_plus_sign,,,,,null,,,,,,,,,,,,,,,,,,,,
null,,prac_atten_color_black,191336,,,black_plus_sign,,,,,null,,,,,,,,,,,,,,,,,,,,
586,,prac_atten_color,192014,,,prac_stop_color,,,,,50,,,,,,,,,,,,,,,,,,,,
null,,prac_atten_color_black,194017,,,black_plus_sign,,,,,null,,,,,,,,,,,,,,,,,,,,
null,,prac_atten_color_black,194746,,,black_plus_sign,,,,,null,,,,,,,,,,,,,,,,,,,,
619.1999999955297,,prac_atten_color,195783,,,prac_stop_color,,,,,50,,,,,,,,,,,,,,,,,,,,
null,,prac_atten_color_black,197786,,,black_plus_sign,,,,,null,,,,,,,,,,,,,,,,,,,,
null,,prac_atten_color_black,198157,,,black_plus_sign,,,,,null,,,,,,,,,,,,,,,,,,,,
651.3000000044703,,prac_atten_color,199193,,,prac_stop_color,,,,,49,,,,,,,,,,,,,,,,,,,,
null,,prac_atten_color_black,201196,,,black_plus_sign,,,,,null,,,,,,,,,,,,,,,,,,,,
null,,prac_atten_color_black,201568,,,black_plus_sign,,,,,null,,,,,,,,,,,,,,,,,,,,
652.2999999970198,,prac_atten_color,202225,,,prac_stop_color,,,,,50,,,,,,,,,,,,,,,,,,,,
null,,prac_atten_color_black,204227,,,black_plus_sign,,,,,null,,,,,,,,,,,,,,,,,,,,
null,,prac_atten_color_black,204977,,,black_plus_sign,,,,,null,,,,,,,,,,,,,,,,,,,,
615.3000000044703,,prac_atten_color,205695,,,prac_stop_color,,,,,49,,,,,,,,,,,,,,,,,,,,
null,,prac_atten_color_black,207698,,,black_plus_sign,,,,,null,,,,,,,,,,,,,,,,,,,,
null,,prac_atten_color_black,208388,,,black_plus_sign,,,,,null,,,,,,,,,,,,,,,,,,,,
699.2000000029802,,prac_atten_color,209185,,,prac_stop_color,,,,,49,,,,,,,,,,,,,,,,,,,,
null,,prac_atten_color_black,211188,,,black_plus_sign,,,,,null,,,,,,,,,,,,,,,,,,,,
5226.60000000149,,attentioncheck_feedback,216417,,,cross_check_feedback,,,0,,,,,,,,,,,,,,,,,,,,,,
9254.10000000149,,last_instruct,225671,,,instruct,,,,,32,,,,,,,,,,,,,,,,,,,,
null,,learn_phase(without_color),228685,,,black_plus_sign,,,,,null,US_Cities_List/carmel.png,US_Cities_List/cornwall.png,,,,,,,,,,,,,,,,,,
null,,black_cross(without_color),229768,,,yellow,,,,,null,US_Cities_List/carmel.png,US_Cities_List/cornwall.png,,,,,,,,,,,,,,,,,,
null,,rt_plussign_withcolor,230271,,,yellow,,,,,null,US_Cities_List/carmel.png,US_Cities_List/cornwall.png,,,,,,,,,,,,,,,,,,
1048.8999999985099,,rt_thecrossant_black,231196,,,black_plus_sign,,,,,49,,,0,0,,,,,,,,,,,,,,,,
null,,color_black,231300,,,black_plus_sign,,,,,null,,,,,,,,,,,,,,,,,,,,
null,,learn_phase(without_color),234312,,,black_plus_sign,,,,,null,US_Cities_List/shreveport.png,US_Cities_List/hotsprings.png,,,,,,,,,,,,,,,,,,
null,,black_cross(without_color),235071,,,yellow,,,,,null,US_Cities_List/shreveport.png,US_Cities_List/hotsprings.png,,,,,,,,,,,,,,,,,,
null,,rt_plussign_withcolor,235575,,,yellow,,,,,null,US_Cities_List/shreveport.png,US_Cities_List/hotsprings.png,,,,,,,,,,,,,,,,,,
1168.7000000029802,,rt_thecrossant_black,236821,,,black_plus_sign,,,,,50,,,1,0.5,,,,,,,,,,,,,,,,
null,,color_black,236926,,,black_plus_sign,,,,,null,,,,,,,,,,,,,,,,,,,,
null,,learn_phase(without_color),239940,,,black_plus_sign,,,,,null,US_Cities_List/shreveport.png,US_Cities_List/carmel.png,,,,,,,,,,,,,,,,,,
null,,black_cross(without_color),240442,,,blue,,,,,null,US_Cities_List/shreveport.png,US_Cities_List/carmel.png,,,,,,,,,,,,,,,,,,
null,,rt_plussign_withcolor,240945,,,blue,,,,,null,US_Cities_List/shreveport.png,US_Cities_List/carmel.png,,,,,,,,,,,,,,,,,,
950.5,,rt_thecrossant_black,242449,,,black_plus_sign,,,,,49,,,1,0.6666666666666666,,,,,,,,,,,,,,,,
null,,color_black,242553,,,black_plus_sign,,,,,null,,,,,,,,,,,,,,,,,,,,
null,,learn_phase(without_color),245569,,,black_plus_sign,,,,,null,US_Cities_List/leesburg.png,US_Cities_List/cornwall.png,,,,,,,,,,,,,,,,,,
null,,black_cross(without_color),246374,,,blue,,,,,null,US_Cities_List/leesburg.png,US_Cities_List/cornwall.png,,,,,,,,,,,,,,,,,,
null,,rt_plussign_withcolor,246877,,,blue,,,,,null,US_Cities_List/leesburg.png,US_Cities_List/cornwall.png,,,,,,,,,,,,,,,,,,
628.3999999985099,,rt_thecrossant_black,248079,,,black_plus_sign,,,,,49,,,1,0.75,,,,,,,,,,,,,,,,
null,,color_black,248183,,,black_plus_sign,,,,,null,,,,,,,,,,,,,,,,,,,,
null,,learn_phase(without_color),251199,,,black_plus_sign,,,,,null,US_Cities_List/gatlinburg.png,US_Cities_List/newhope.png,,,,,,,,,,,,,,,,,,
null,,black_cross(without_color),252020,,,yellow,,,,,null,US_Cities_List/gatlinburg.png,US_Cities_List/newhope.png,,,,,,,,,,,,,,,,,,
null,,rt_plussign_withcolor,252523,,,yellow,,,,,null,US_Cities_List/gatlinburg.png,US_Cities_List/newhope.png,,,,,,,,,,,,,,,,,,
952.6000000014901,,rt_thecrossant_black,253708,,,black_plus_sign,,,,,50,,,1,0.8,,,,,,,,,,,,,,,,
null,,color_black,253812,,,black_plus_sign,,,,,null,,,,,,,,,,,,,,,,,,,,
null,,learn_phase(without_color),256831,,,black_plus_sign,,,,,null,US_Cities_List/gatlinburg.png,US_Cities_List/cornwall.png,,,,,,,,,,,,,,,,,,
null,,black_cross(without_color),257742,,,yellow,,,,,null,US_Cities_List/gatlinburg.png,US_Cities_List/cornwall.png,,,,,,,,,,,,,,,,,,
null,,rt_plussign_withcolor,258245,,,yellow,,,,,null,US_Cities_List/gatlinburg.png,US_Cities_List/cornwall.png,,,,,,,,,,,,,,,,,,
1003,,rt_thecrossant_black,259341,,,black_plus_sign,,,,,50,,,1,0.8333333333333334,,,,,,,,,,,,,,,,
null,,color_black,259444,,,black_plus_sign,,,,,null,,,,,,,,,,,,,,,,,,,,
null,,learn_phase(without_color),262465,,,black_plus_sign,,,,,null,US_Cities_List/cornwall.png,US_Cities_List/leesburg.png,,,,,,,,,,,,,,,,,,
null,,black_cross(without_color),263019,,,blue,,,,,null,US_Cities_List/cornwall.png,US_Cities_List/leesburg.png,,,,,,,,,,,,,,,,,,
null,,rt_plussign_withcolor,263521,,,blue,,,,,null,US_Cities_List/cornwall.png,US_Cities_List/leesburg.png,,,,,,,,,,,,,,,,,,
1036.3999999985099,,rt_thecrossant_black,264973,,,black_plus_sign,,,,,49,,,1,0.8571428571428571,,,,,,,,,,,,,,,,
null,,color_black,265076,,,black_plus_sign,,,,,null,,,,,,,,,,,,,,,,,,,,
null,,learn_phase(without_color),268091,,,black_plus_sign,,,,,null,US_Cities_List/newhope.png,US_Cities_List/gatlinburg.png,,,,,,,,,,,,,,,,,,
null,,black_cross(without_color),268512,,,yellow,,,,,null,US_Cities_List/newhope.png,US_Cities_List/gatlinburg.png,,,,,,,,,,,,,,,,,,
null,,rt_plussign_withcolor,269014,,,yellow,,,,,null,US_Cities_List/newhope.png,US_Cities_List/gatlinburg.png,,,,,,,,,,,,,,,,,,
739.9000000059605,,rt_thecrossant_black,270601,,,black_plus_sign,,,,,50,,,1,0.875,,,,,,,,,,,,,,,,
null,,color_black,270704,,,black_plus_sign,,,,,null,,,,,,,,,,,,,,,,,,,,
null,,learn_phase(without_color),273719,,,black_plus_sign,,,,,null,US_Cities_List/racine.png,US_Cities_List/leesburg.png,,,,,,,,,,,,,,,,,,
null,,black_cross(without_color),274482,,,yellow,,,,,null,US_Cities_List/racine.png,US_Cities_List/leesburg.png,,,,,,,,,,,,,,,,,,
null,,rt_plussign_withcolor,274985,,,yellow,,,,,null,US_Cities_List/racine.png,US_Cities_List/leesburg.png,,,,,,,,,,,,,,,,,,
565.1999999955297,,rt_thecrossant_black,276228,,,black_plus_sign,,,,,50,,,1,0.8888888888888888,,,,,,,,,,,,,,,,
null,,color_black,276331,,,black_plus_sign,,,,,null,,,,,,,,,,,,,,,,,,,,
null,,learn_phase(without_color),279348,,,black_plus_sign,,,,,null,US_Cities_List/cornwall.png,US_Cities_List/carmel.png,,,,,,,,,,,,,,,,,,
null,,black_cross(without_color),280004,,,blue,,,,,null,US_Cities_List/cornwall.png,US_Cities_List/carmel.png,,,,,,,,,,,,,,,,,,
484.3999999985099,,rt_plussign_withcolor,280507,,,blue,,,,,49,US_Cities_List/cornwall.png,US_Cities_List/carmel.png,,,,,,,,,,,,,,,,,,
null,,rt_thecrossant_black,281857,,,black_plus_sign,,,,,null,,,1,0.9,,,,,,,,,,,,,,,,
null,,color_black,281960,,,black_plus_sign,,,,,null,,,,,,,,,,,,,,,,,,,,
null,,learn_phase(without_color),284974,,,black_plus_sign,,,,,null,US_Cities_List/gatlinburg.png,US_Cities_List/shreveport.png,,,,,,,,,,,,,,,,,,
null,,black_cross(without_color),285728,,,blue,,,,,null,US_Cities_List/gatlinburg.png,US_Cities_List/shreveport.png,,,,,,,,,,,,,,,,,,
null,,rt_plussign_withcolor,286231,,,blue,,,,,null,US_Cities_List/gatlinburg.png,US_Cities_List/shreveport.png,,,,,,,,,,,,,,,,,,
921.8999999985099,,rt_thecrossant_black,287483,,,black_plus_sign,,,,,49,,,1,0.9090909090909091,,,,,,,,,,,,,,,,
null,,color_black,287586,,,black_plus_sign,,,,,null,,,,,,,,,,,,,,,,,,,,
null,,learn_phase(without_color),290599,,,black_plus_sign,,,,,null,US_Cities_List/hotsprings.png,US_Cities_List/shreveport.png,,,,,,,,,,,,,,,,,,
null,,black_cross(without_color),291702,,,blue,,,,,null,US_Cities_List/hotsprings.png,US_Cities_List/shreveport.png,,,,,,,,,,,,,,,,,,
null,,rt_plussign_withcolor,292205,,,blue,,,,,null,US_Cities_List/hotsprings.png,US_Cities_List/shreveport.png,,,,,,,,,,,,,,,,,,
891.1000000014901,,rt_thecrossant_black,293109,,,black_plus_sign,,,,,49,,,1,0.9166666666666666,,,,,,,,,,,,,,,,
null,,color_black,293212,,,black_plus_sign,,,,,null,,,,,,,,,,,,,,,,,,,,
null,,learn_phase(without_color),296227,,,black_plus_sign,,,,,null,US_Cities_List/gatlinburg.png,US_Cities_List/shreveport.png,,,,,,,,,,,,,,,,,,
null,,black_cross(without_color),296749,,,yellow,,,,,null,US_Cities_List/gatlinburg.png,US_Cities_List/shreveport.png,,,,,,,,,,,,,,,,,,
null,,rt_plussign_withcolor,297252,,,yellow,,,,,null,US_Cities_List/gatlinburg.png,US_Cities_List/shreveport.png,,,,,,,,,,,,,,,,,,
1320.3999999985099,,rt_thecrossant_black,298736,,,black_plus_sign,,,,,50,,,1,0.9230769230769231,,,,,,,,,,,,,,,,
null,,color_black,298840,,,black_plus_sign,,,,,null,,,,,,,,,,,,,,,,,,,,
null,,learn_phase(without_color),301851,,,black_plus_sign,,,,,null,US_Cities_List/boulder.png,US_Cities_List/hanover.png,,,,,,,,,,,,,,,,,,
null,,black_cross(without_color),302619,,,yellow,,,,,null,US_Cities_List/boulder.png,US_Cities_List/hanover.png,,,,,,,,,,,,,,,,,,
null,,rt_plussign_withcolor,303120,,,yellow,,,,,null,US_Cities_List/boulder.png,US_Cities_List/hanover.png,,,,,,,,,,,,,,,,,,
1303.2999999970198,,rt_thecrossant_black,304359,,,black_plus_sign,,,,,50,,,1,0.9285714285714286,,,,,,,,,,,,,,,,
null,,color_black,304463,,,black_plus_sign,,,,,null,,,,,,,,,,,,,,,,,,,,
null,,learn_phase(without_color),307479,,,black_plus_sign,,,,,null,US_Cities_List/racine.png,US_Cities_List/leesburg.png,,,,,,,,,,,,,,,,,,
null,,black_cross(without_color),308407,,,blue,,,,,null,US_Cities_List/racine.png,US_Cities_List/leesburg.png,,,,,,,,,,,,,,,,,,
416,,rt_plussign_withcolor,308910,,,blue,,,,,49,US_Cities_List/racine.png,US_Cities_List/leesburg.png,,,,,,,,,,,,,,,,,,
null,,rt_thecrossant_black,309989,,,black_plus_sign,,,,,null,,,1,0.9333333333333333,,,,,,,,,,,,,,,,
null,,color_black,310092,,,black_plus_sign,,,,,null,,,,,,,,,,,,,,,,,,,,
null,,learn_phase(without_color),313105,,,black_plus_sign,,,,,null,US_Cities_List/carmel.png,US_Cities_List/westpalmbeach.png,,,,,,,,,,,,,,,,,,
null,,black_cross(without_color),313867,,,blue,,,,,null,US_Cities_List/carmel.png,US_Cities_List/westpalmbeach.png,,,,,,,,,,,,,,,,,,
null,,rt_plussign_withcolor,314370,,,blue,,,,,null,US_Cities_List/carmel.png,US_Cities_List/westpalmbeach.png,,,,,,,,,,,,,,,,,,
1334.7000000029802,,rt_thecrossant_black,315614,,,black_plus_sign,,,,,49,,,1,0.9375,,,,,,,,,,,,,,,,
null,,color_black,315717,,,black_plus_sign,,,,,null,,,,,,,,,,,,,,,,,,,,
null,,learn_phase(without_color),318730,,,black_plus_sign,,,,,null,US_Cities_List/gatlinburg.png,US_Cities_List/carmel.png,,,,,,,,,,,,,,,,,,
null,,black_cross(without_color),319174,,,blue,,,,,null,US_Cities_List/gatlinburg.png,US_Cities_List/carmel.png,,,,,,,,,,,,,,,,,,
474.1000000014901,,rt_plussign_withcolor,319678,,,blue,,,,,49,US_Cities_List/gatlinburg.png,US_Cities_List/carmel.png,,,,,,,,,,,,,,,,,,
null,,rt_thecrossant_black,321240,,,black_plus_sign,,,,,null,,,1,0.9411764705882353,,,,,,,,,,,,,,,,
null,,color_black,321344,,,black_plus_sign,,,,,null,,,,,,,,,,,,,,,,,,,,
null,,learn_phase(without_color),324357,,,black_plus_sign,,,,,null,US_Cities_List/hotsprings.png,US_Cities_List/shreveport.png,,,,,,,,,,,,,,,,,,
null,,black_cross(without_color),325156,,,yellow,,,,,null,US_Cities_List/hotsprings.png,US_Cities_List/shreveport.png,,,,,,,,,,,,,,,,,,
null,,rt_plussign_withcolor,325659,,,yellow,,,,,null,US_Cities_List/hotsprings.png,US_Cities_List/shreveport.png,,,,,,,,,,,,,,,,,,
594.2000000029802,,rt_thecrossant_black,326867,,,black_plus_sign,,,,,50,,,1,0.9444444444444444,,,,,,,,,,,,,,,,
null,,color_black,326970,,,black_plus_sign,,,,,null,,,,,,,,,,,,,,,,,,,,
null,,learn_phase(without_color),329985,,,black_plus_sign,,,,,null,US_Cities_List/gatlinburg.png,US_Cities_List/newhope.png,,,,,,,,,,,,,,,,,,
null,,black_cross(without_color),330926,,,blue,,,,,null,US_Cities_List/gatlinburg.png,US_Cities_List/newhope.png,,,,,,,,,,,,,,,,,,
null,,rt_plussign_withcolor,331429,,,blue,,,,,null,US_Cities_List/gatlinburg.png,US_Cities_List/newhope.png,,,,,,,,,,,,,,,,,,
926.6000000014901,,rt_thecrossant_black,332495,,,black_plus_sign,,,,,49,,,1,0.9473684210526315,,,,,,,,,,,,,,,,
null,,color_black,332599,,,black_plus_sign,,,,,null,,,,,,,,,,,,,,,,,,,,
null,,learn_phase(without_color),335613,,,black_plus_sign,,,,,null,US_Cities_List/leesburg.png,US_Cities_List/racine.png,,,,,,,,,,,,,,,,,,
null,,black_cross(without_color),336502,,,blue,,,,,null,US_Cities_List/leesburg.png,US_Cities_List/racine.png,,,,,,,,,,,,,,,,,,
496.70000000298023,,rt_plussign_withcolor,337005,,,blue,,,,,49,US_Cities_List/leesburg.png,US_Cities_List/racine.png,,,,,,,,,,,,,,,,,,
null,,rt_thecrossant_black,338122,,,black_plus_sign,,,,,null,,,1,0.95,,,,,,,,,,,,,,,,
null,,color_black,338226,,,black_plus_sign,,,,,null,,,,,,,,,,,,,,,,,,,,
null,,learn_phase(without_color),341236,,,black_plus_sign,,,,,null,US_Cities_List/boulder.png,US_Cities_List/hanover.png,,,,,,,,,,,,,,,,,,
null,,black_cross(without_color),341643,,,yellow,,,,,null,US_Cities_List/boulder.png,US_Cities_List/hanover.png,,,,,,,,,,,,,,,,,,
null,,rt_plussign_withcolor,342146,,,yellow,,,,,null,US_Cities_List/boulder.png,US_Cities_List/hanover.png,,,,,,,,,,,,,,,,,,
1032.5,,rt_thecrossant_black,343746,,,black_plus_sign,,,,,50,,,1,0.9523809523809523,,,,,,,,,,,,,,,,
null,,color_black,343848,,,black_plus_sign,,,,,null,,,,,,,,,,,,,,,,,,,,
null,,learn_phase(without_color),346868,,,black_plus_sign,,,,,null,US_Cities_List/leesburg.png,US_Cities_List/newhope.png,,,,,,,,,,,,,,,,,,
null,,black_cross(without_color),347892,,,blue,,,,,null,US_Cities_List/leesburg.png,US_Cities_List/newhope.png,,,,,,,,,,,,,,,,,,
null,,rt_plussign_withcolor,348395,,,blue,,,,,null,US_Cities_List/leesburg.png,US_Cities_List/newhope.png,,,,,,,,,,,,,,,,,,
537.6000000014901,,rt_thecrossant_black,349378,,,black_plus_sign,,,,,49,,,1,0.9545454545454546,,,,,,,,,,,,,,,,
null,,color_black,349482,,,black_plus_sign,,,,,null,,,,,,,,,,,,,,,,,,,,
null,,learn_phase(without_color),352499,,,black_plus_sign,,,,,null,US_Cities_List/hanover.png,US_Cities_List/newhope.png,,,,,,,,,,,,,,,,,,
null,,black_cross(without_color),353570,,,blue,,,,,null,US_Cities_List/hanover.png,US_Cities_List/newhope.png,,,,,,,,,,,,,,,,,,
null,,rt_plussign_withcolor,354073,,,blue,,,,,null,US_Cities_List/hanover.png,US_Cities_List/newhope.png,,,,,,,,,,,,,,,,,,
1361,,rt_thecrossant_black,355009,,,black_plus_sign,,,,,50,,,0,0.9130434782608695,,,,,,,,,,,,,,,,
null,,color_black,355112,,,black_plus_sign,,,,,null,,,,,,,,,,,,,,,,,,,,
null,,learn_phase(without_color),358128,,,black_plus_sign,,,,,null,US_Cities_List/racine.png,US_Cities_List/boulder.png,,,,,,,,,,,,,,,,,,
null,,black_cross(without_color),358832,,,yellow,,,,,null,US_Cities_List/racine.png,US_Cities_List/boulder.png,,,,,,,,,,,,,,,,,,
null,,rt_plussign_withcolor,359335,,,yellow,,,,,null,US_Cities_List/racine.png,US_Cities_List/boulder.png,,,,,,,,,,,,,,,,,,
1223,,rt_thecrossant_black,360637,,,black_plus_sign,,,,,50,,,1,0.9166666666666666,,,,,,,,,,,,,,,,
null,,color_black,360739,,,black_plus_sign,,,,,null,,,,,,,,,,,,,,,,,,,,
null,,learn_phase(without_color),363752,,,black_plus_sign,,,,,null,US_Cities_List/newhope.png,US_Cities_List/hanover.png,,,,,,,,,,,,,,,,,,
null,,black_cross(without_color),364750,,,blue,,,,,null,US_Cities_List/newhope.png,US_Cities_List/hanover.png,,,,,,,,,,,,,,,,,,
null,,rt_plussign_withcolor,365253,,,blue,,,,,null,US_Cities_List/newhope.png,US_Cities_List/hanover.png,,,,,,,,,,,,,,,,,,
868.4000000059605,,rt_thecrossant_black,366262,,,black_plus_sign,,,,,49,,,1,0.92,,,,,,,,,,,,,,,,
null,,color_black,366366,,,black_plus_sign,,,,,null,,,,,,,,,,,,,,,,,,,,
null,,learn_phase(without_color),369382,,,black_plus_sign,,,,,null,US_Cities_List/hotsprings.png,US_Cities_List/shreveport.png,,,,,,,,,,,,,,,,,,
null,,black_cross(without_color),370060,,,blue,,,,,null,US_Cities_List/hotsprings.png,US_Cities_List/shreveport.png,,,,,,,,,,,,,,,,,,
491.69999999552965,,rt_plussign_withcolor,370562,,,blue,,,,,49,US_Cities_List/hotsprings.png,US_Cities_List/shreveport.png,,,,,,,,,,,,,,,,,,
null,,rt_thecrossant_black,371891,,,black_plus_sign,,,,,null,,,1,0.9230769230769231,,,,,,,,,,,,,,,,
null,,color_black,371995,,,black_plus_sign,,,,,null,,,,,,,,,,,,,,,,,,,,
null,,learn_phase(without_color),375008,,,black_plus_sign,,,,,null,US_Cities_List/carmel.png,US_Cities_List/shreveport.png,,,,,,,,,,,,,,,,,,
null,,black_cross(without_color),375515,,,yellow,,,,,null,US_Cities_List/carmel.png,US_Cities_List/shreveport.png,,,,,,,,,,,,,,,,,,
null,,rt_plussign_withcolor,376016,,,yellow,,,,,null,US_Cities_List/carmel.png,US_Cities_List/shreveport.png,,,,,,,,,,,,,,,,,,
825.5,,rt_thecrossant_black,377516,,,black_plus_sign,,,,,50,,,1,0.9259259259259259,,,,,,,,,,,,,,,,
null,,color_black,377619,,,black_plus_sign,,,,,null,,,,,,,,,,,,,,,,,,,,
null,,learn_phase(without_color),380634,,,black_plus_sign,,,,,null,US_Cities_List/hanover.png,US_Cities_List/newhope.png,,,,,,,,,,,,,,,,,,
null,,black_cross(without_color),381519,,,yellow,,,,,null,US_Cities_List/hanover.png,US_Cities_List/newhope.png,,,,,,,,,,,,,,,,,,
477.5,,rt_plussign_withcolor,382022,,,yellow,,,,,50,US_Cities_List/hanover.png,US_Cities_List/newhope.png,,,,,,,,,,,,,,,,,,
null,,rt_thecrossant_black,383144,,,black_plus_sign,,,,,null,,,1,0.9285714285714286,,,,,,,,,,,,,,,,
null,,color_black,383247,,,black_plus_sign,,,,,null,,,,,,,,,,,,,,,,,,,,
null,,learn_phase(without_color),386261,,,black_plus_sign,,,,,null,US_Cities_List/shreveport.png,US_Cities_List/gatlinburg.png,,,,,,,,,,,,,,,,,,
null,,black_cross(without_color),386739,,,yellow,,,,,null,US_Cities_List/shreveport.png,US_Cities_List/gatlinburg.png,,,,,,,,,,,,,,,,,,
null,,rt_plussign_withcolor,387242,,,yellow,,,,,null,US_Cities_List/shreveport.png,US_Cities_List/gatlinburg.png,,,,,,,,,,,,,,,,,,
1043.4000000059605,,rt_thecrossant_black,388771,,,black_plus_sign,,,,,50,,,1,0.9310344827586207,,,,,,,,,,,,,,,,
null,,color_black,388875,,,black_plus_sign,,,,,null,,,,,,,,,,,,,,,,,,,,
null,,learn_phase(without_color),391892,,,black_plus_sign,,,,,null,US_Cities_List/carmel.png,US_Cities_List/cornwall.png,,,,,,,,,,,,,,,,,,
null,,black_cross(without_color),392886,,,blue,,,,,null,US_Cities_List/carmel.png,US_Cities_List/cornwall.png,,,,,,,,,,,,,,,,,,
null,,rt_plussign_withcolor,393389,,,blue,,,,,null,US_Cities_List/carmel.png,US_Cities_List/cornwall.png,,,,,,,,,,,,,,,,,,
787.3999999985099,,rt_thecrossant_black,394401,,,black_plus_sign,,,,,49,,,1,0.9333333333333333,,,,,,,,,,,,,,,,
null,,color_black,394503,,,black_plus_sign,,,,,null,,,,,,,,,,,,,,,,,,,,
null,,learn_phase(without_color),397525,,,black_plus_sign,,,,,null,US_Cities_List/cornwall.png,US_Cities_List/gatlinburg.png,,,,,,,,,,,,,,,,,,
null,,black_cross(without_color),398189,,,yellow,,,,,null,US_Cities_List/cornwall.png,US_Cities_List/gatlinburg.png,,,,,,,,,,,,,,,,,,
null,,rt_plussign_withcolor,398692,,,yellow,,,,,null,US_Cities_List/cornwall.png,US_Cities_List/gatlinburg.png,,,,,,,,,,,,,,,,,,
1091.6000000014901,,rt_thecrossant_black,400034,,,black_plus_sign,,,,,50,,,1,0.9354838709677419,,,,,,,,,,,,,,,,
null,,color_black,400137,,,black_plus_sign,,,,,null,,,,,,,,,,,,,,,,,,,,
null,,learn_phase(without_color),403151,,,black_plus_sign,,,,,null,US_Cities_List/leesburg.png,US_Cities_List/racine.png,,,,,,,,,,,,,,,,,,
null,,black_cross(without_color),403602,,,yellow,,,,,null,US_Cities_List/leesburg.png,US_Cities_List/racine.png,,,,,,,,,,,,,,,,,,
465.1000000014901,,rt_plussign_withcolor,404105,,,yellow,,,,,50,US_Cities_List/leesburg.png,US_Cities_List/racine.png,,,,,,,,,,,,,,,,,,
null,,rt_thecrossant_black,405662,,,black_plus_sign,,,,,null,,,1,0.9375,,,,,,,,,,,,,,,,
null,,color_black,405766,,,black_plus_sign,,,,,null,,,,,,,,,,,,,,,,,,,,
null,,learn_phase(without_color),408780,,,black_plus_sign,,,,,null,US_Cities_List/boulder.png,US_Cities_List/racine.png,,,,,,,,,,,,,,,,,,
null,,black_cross(without_color),409337,,,blue,,,,,null,US_Cities_List/boulder.png,US_Cities_List/racine.png,,,,,,,,,,,,,,,,,,
null,,rt_plussign_withcolor,409840,,,blue,,,,,null,US_Cities_List/boulder.png,US_Cities_List/racine.png,,,,,,,,,,,,,,,,,,
698.8999999985099,,rt_thecrossant_black,411289,,,black_plus_sign,,,,,49,,,1,0.9393939393939394,,,,,,,,,,,,,,,,
null,,color_black,411393,,,black_plus_sign,,,,,null,,,,,,,,,,,,,,,,,,,,
null,,learn_phase(without_color),414408,,,black_plus_sign,,,,,null,US_Cities_List/cornwall.png,US_Cities_List/carmel.png,,,,,,,,,,,,,,,,,,
null,,black_cross(without_color),415019,,,yellow,,,,,null,US_Cities_List/cornwall.png,US_Cities_List/carmel.png,,,,,,,,,,,,,,,,,,
null,,rt_plussign_withcolor,415522,,,yellow,,,,,null,US_Cities_List/cornwall.png,US_Cities_List/carmel.png,,,,,,,,,,,,,,,,,,
878.2000000029802,,rt_thecrossant_black,416919,,,black_plus_sign,,,,,50,,,1,0.9411764705882353,,,,,,,,,,,,,,,,
null,,color_black,417022,,,black_plus_sign,,,,,null,,,,,,,,,,,,,,,,,,,,
null,,learn_phase(without_color),420034,,,black_plus_sign,,,,,null,US_Cities_List/boulder.png,US_Cities_List/racine.png,,,,,,,,,,,,,,,,,,
null,,black_cross(without_color),420877,,,blue,,,,,null,US_Cities_List/boulder.png,US_Cities_List/racine.png,,,,,,,,,,,,,,,,,,
null,,rt_plussign_withcolor,421381,,,blue,,,,,null,US_Cities_List/boulder.png,US_Cities_List/racine.png,,,,,,,,,,,,,,,,,,
747.8999999985099,,rt_thecrossant_black,422544,,,black_plus_sign,,,,,49,,,1,0.9428571428571428,,,,,,,,,,,,,,,,
null,,color_black,422648,,,black_plus_sign,,,,,null,,,,,,,,,,,,,,,,,,,,
null,,learn_phase(without_color),425667,,,black_plus_sign,,,,,null,US_Cities_List/gatlinburg.png,US_Cities_List/cornwall.png,,,,,,,,,,,,,,,,,,
null,,black_cross(without_color),426091,,,yellow,,,,,null,US_Cities_List/gatlinburg.png,US_Cities_List/cornwall.png,,,,,,,,,,,,,,,,,,
null,,rt_plussign_withcolor,426594,,,yellow,,,,,null,US_Cities_List/gatlinburg.png,US_Cities_List/cornwall.png,,,,,,,,,,,,,,,,,,
1210.7999999970198,,rt_thecrossant_black,428177,,,black_plus_sign,,,,,50,,,1,0.9444444444444444,,,,,,,,,,,,,,,,
null,,color_black,428281,,,black_plus_sign,,,,,null,,,,,,,,,,,,,,,,,,,,
null,,learn_phase(without_color),431294,,,black_plus_sign,,,,,null,US_Cities_List/carmel.png,US_Cities_List/westpalmbeach.png,,,,,,,,,,,,,,,,,,
null,,black_cross(without_color),431753,,,yellow,,,,,null,US_Cities_List/carmel.png,US_Cities_List/westpalmbeach.png,,,,,,,,,,,,,,,,,,
null,,rt_plussign_withcolor,432256,,,yellow,,,,,null,US_Cities_List/carmel.png,US_Cities_List/westpalmbeach.png,,,,,,,,,,,,,,,,,,
952.6000000014901,,rt_thecrossant_black,433804,,,black_plus_sign,,,,,50,,,1,0.9459459459459459,,,,,,,,,,,,,,,,
null,,color_black,433908,,,black_plus_sign,,,,,null,,,,,,,,,,,,,,,,,,,,
null,,learn_phase(without_color),436921,,,black_plus_sign,,,,,null,US_Cities_List/hanover.png,US_Cities_List/boulder.png,,,,,,,,,,,,,,,,,,
null,,black_cross(without_color),437466,,,yellow,,,,,null,US_Cities_List/hanover.png,US_Cities_List/boulder.png,,,,,,,,,,,,,,,,,,
null,,rt_plussign_withcolor,437969,,,yellow,,,,,null,US_Cities_List/hanover.png,US_Cities_List/boulder.png,,,,,,,,,,,,,,,,,,
1169.7000000029802,,rt_thecrossant_black,439431,,,black_plus_sign,,,,,50,,,1,0.9473684210526315,,,,,,,,,,,,,,,,
null,,color_black,439535,,,black_plus_sign,,,,,null,,,,,,,,,,,,,,,,,,,,
null,,learn_phase(without_color),442548,,,black_plus_sign,,,,,null,US_Cities_List/carmel.png,US_Cities_List/shreveport.png,,,,,,,,,,,,,,,,,,
null,,black_cross(without_color),442989,,,blue,,,,,null,US_Cities_List/carmel.png,US_Cities_List/shreveport.png,,,,,,,,,,,,,,,,,,
null,,rt_plussign_withcolor,443493,,,blue,,,,,null,US_Cities_List/carmel.png,US_Cities_List/shreveport.png,,,,,,,,,,,,,,,,,,
971.6999999955297,,rt_thecrossant_black,445058,,,black_plus_sign,,,,,49,,,1,0.9487179487179487,,,,,,,,,,,,,,,,
null,,color_black,445162,,,black_plus_sign,,,,,null,,,,,,,,,,,,,,,,,,,,
null,,learn_phase(without_color),448176,,,black_plus_sign,,,,,null,US_Cities_List/hanover.png,US_Cities_List/newhope.png,,,,,,,,,,,,,,,,,,
null,,black_cross(without_color),449271,,,blue,,,,,null,US_Cities_List/hanover.png,US_Cities_List/newhope.png,,,,,,,,,,,,,,,,,,
null,,rt_plussign_withcolor,449773,,,blue,,,,,null,US_Cities_List/hanover.png,US_Cities_List/newhope.png,,,,,,,,,,,,,,,,,,
940.7000000029802,,rt_thecrossant_black,450685,,,black_plus_sign,,,,,49,,,1,0.95,,,,,,,,,,,,,,,,
null,,color_black,450789,,,black_plus_sign,,,,,null,,,,,,,,,,,,,,,,,,,,
null,,learn_phase(without_color),453804,,,black_plus_sign,,,,,null,US_Cities_List/boulder.png,US_Cities_List/racine.png,,,,,,,,,,,,,,,,,,
null,,black_cross(without_color),454843,,,blue,,,,,null,US_Cities_List/boulder.png,US_Cities_List/racine.png,,,,,,,,,,,,,,,,,,
null,,rt_plussign_withcolor,455347,,,blue,,,,,null,US_Cities_List/boulder.png,US_Cities_List/racine.png,,,,,,,,,,,,,,,,,,
1442.5,,rt_thecrossant_black,456316,,,black_plus_sign,,,,,49,,,1,0.9512195121951219,,,,,,,,,,,,,,,,
null,,color_black,456420,,,black_plus_sign,,,,,null,,,,,,,,,,,,,,,,,,,,
null,,learn_phase(without_color),459436,,,black_plus_sign,,,,,null,US_Cities_List/cornwall.png,US_Cities_List/leesburg.png,,,,,,,,,,,,,,,,,,
null,,black_cross(without_color),459947,,,yellow,,,,,null,US_Cities_List/cornwall.png,US_Cities_List/leesburg.png,,,,,,,,,,,,,,,,,,
null,,rt_plussign_withcolor,460450,,,yellow,,,,,null,US_Cities_List/cornwall.png,US_Cities_List/leesburg.png,,,,,,,,,,,,,,,,,,
1374.6000000014901,,rt_thecrossant_black,461946,,,black_plus_sign,,,,,50,,,1,0.9523809523809523,,,,,,,,,,,,,,,,
null,,color_black,462050,,,black_plus_sign,,,,,null,,,,,,,,,,,,,,,,,,,,
null,,learn_phase(without_color),465067,,,black_plus_sign,,,,,null,US_Cities_List/newhope.png,US_Cities_List/leesburg.png,,,,,,,,,,,,,,,,,,
null,,black_cross(without_color),465510,,,blue,,,,,null,US_Cities_List/newhope.png,US_Cities_List/leesburg.png,,,,,,,,,,,,,,,,,,
null,,rt_plussign_withcolor,466013,,,blue,,,,,null,US_Cities_List/newhope.png,US_Cities_List/leesburg.png,,,,,,,,,,,,,,,,,,
826.3999999985099,,rt_thecrossant_black,467578,,,black_plus_sign,,,,,49,,,1,0.9534883720930233,,,,,,,,,,,,,,,,
null,,color_black,467683,,,black_plus_sign,,,,,null,,,,,,,,,,,,,,,,,,,,
null,,learn_phase(without_color),470701,,,black_plus_sign,,,,,null,US_Cities_List/cornwall.png,US_Cities_List/leesburg.png,,,,,,,,,,,,,,,,,,
null,,black_cross(without_color),471548,,,blue,,,,,null,US_Cities_List/cornwall.png,US_Cities_List/leesburg.png,,,,,,,,,,,,,,,,,,
null,,rt_plussign_withcolor,472051,,,blue,,,,,null,US_Cities_List/cornwall.png,US_Cities_List/leesburg.png,,,,,,,,,,,,,,,,,,
757.1000000014901,,rt_thecrossant_black,473210,,,black_plus_sign,,,,,49,,,1,0.9545454545454546,,,,,,,,,,,,,,,,
null,,color_black,473313,,,black_plus_sign,,,,,null,,,,,,,,,,,,,,,,,,,,
null,,learn_phase(without_color),476328,,,black_plus_sign,,,,,null,US_Cities_List/peoria.png,US_Cities_List/boulder.png,,,,,,,,,,,,,,,,,,
null,,black_cross(without_color),476784,,,yellow,,,,,null,US_Cities_List/peoria.png,US_Cities_List/boulder.png,,,,,,,,,,,,,,,,,,
null,,rt_plussign_withcolor,477287,,,yellow,,,,,null,US_Cities_List/peoria.png,US_Cities_List/boulder.png,,,,,,,,,,,,,,,,,,
1019.7000000029802,,rt_thecrossant_black,478838,,,black_plus_sign,,,,,50,,,1,0.9555555555555556,,,,,,,,,,,,,,,,
null,,color_black,478941,,,black_plus_sign,,,,,null,,,,,,,,,,,,,,,,,,,,
null,,learn_phase(without_color),481956,,,black_plus_sign,,,,,null,US_Cities_List/boulder.png,US_Cities_List/hanover.png,,,,,,,,,,,,,,,,,,
null,,black_cross(without_color),482668,,,blue,,,,,null,US_Cities_List/boulder.png,US_Cities_List/hanover.png,,,,,,,,,,,,,,,,,,
null,,rt_plussign_withcolor,483171,,,blue,,,,,null,US_Cities_List/boulder.png,US_Cities_List/hanover.png,,,,,,,,,,,,,,,,,,
677.2000000029802,,rt_thecrossant_black,484466,,,black_plus_sign,,,,,49,,,1,0.9565217391304348,,,,,,,,,,,,,,,,
null,,color_black,484569,,,black_plus_sign,,,,,null,,,,,,,,,,,,,,,,,,,,
null,,learn_phase(without_color),487587,,,black_plus_sign,,,,,null,US_Cities_List/cornwall.png,US_Cities_List/gatlinburg.png,,,,,,,,,,,,,,,,,,
null,,black_cross(without_color),488199,,,yellow,,,,,null,US_Cities_List/cornwall.png,US_Cities_List/gatlinburg.png,,,,,,,,,,,,,,,,,,
null,,rt_plussign_withcolor,488702,,,yellow,,,,,null,US_Cities_List/cornwall.png,US_Cities_List/gatlinburg.png,,,,,,,,,,,,,,,,,,
831.1000000014901,,rt_thecrossant_black,490098,,,black_plus_sign,,,,,50,,,1,0.9574468085106383,,,,,,,,,,,,,,,,
null,,color_black,490202,,,black_plus_sign,,,,,null,,,,,,,,,,,,,,,,,,,,
null,,learn_phase(without_color),493220,,,black_plus_sign,,,,,null,US_Cities_List/leesburg.png,US_Cities_List/newhope.png,,,,,,,,,,,,,,,,,,
null,,black_cross(without_color),493655,,,yellow,,,,,null,US_Cities_List/leesburg.png,US_Cities_List/newhope.png,,,,,,,,,,,,,,,,,,
415.79999999701977,,rt_plussign_withcolor,494158,,,yellow,,,,,50,US_Cities_List/leesburg.png,US_Cities_List/newhope.png,,,,,,,,,,,,,,,,,,
null,,rt_thecrossant_black,495729,,,black_plus_sign,,,,,null,,,1,0.9583333333333334,,,,,,,,,,,,,,,,
null,,color_black,495834,,,black_plus_sign,,,,,null,,,,,,,,,,,,,,,,,,,,
null,,learn_phase(without_color),498848,,,black_plus_sign,,,,,null,US_Cities_List/gatlinburg.png,US_Cities_List/shreveport.png,,,,,,,,,,,,,,,,,,
null,,black_cross(without_color),499502,,,blue,,,,,null,US_Cities_List/gatlinburg.png,US_Cities_List/shreveport.png,,,,,,,,,,,,,,,,,,
null,,rt_plussign_withcolor,500006,,,blue,,,,,null,US_Cities_List/gatlinburg.png,US_Cities_List/shreveport.png,,,,,,,,,,,,,,,,,,
659.5999999940395,,rt_thecrossant_black,501358,,,black_plus_sign,,,,,49,,,1,0.9591836734693877,,,,,,,,,,,,,,,,
null,,color_black,501462,,,black_plus_sign,,,,,null,,,,,,,,,,,,,,,,,,,,
null,,learn_phase(without_color),504480,,,black_plus_sign,,,,,null,US_Cities_List/gatlinburg.png,US_Cities_List/cornwall.png,,,,,,,,,,,,,,,,,,
null,,black_cross(without_color),505048,,,yellow,,,,,null,US_Cities_List/gatlinburg.png,US_Cities_List/cornwall.png,,,,,,,,,,,,,,,,,,
null,,rt_plussign_withcolor,505552,,,yellow,,,,,null,US_Cities_List/gatlinburg.png,US_Cities_List/cornwall.png,,,,,,,,,,,,,,,,,,
925.5,,rt_thecrossant_black,506992,,,black_plus_sign,,,,,50,,,1,0.96,,,,,,,,,,,,,,,,
null,,color_black,507096,,,black_plus_sign,,,,,null,,,,,,,,,,,,,,,,,,,,
null,,learn_phase(without_color),510112,,,black_plus_sign,,,,,null,US_Cities_List/leesburg.png,US_Cities_List/cornwall.png,,,,,,,,,,,,,,,,,,
null,,black_cross(without_color),511021,,,yellow,,,,,null,US_Cities_List/leesburg.png,US_Cities_List/cornwall.png,,,,,,,,,,,,,,,,,,
497.6000000014901,,rt_plussign_withcolor,511523,,,yellow,,,,,50,US_Cities_List/leesburg.png,US_Cities_List/cornwall.png,,,,,,,,,,,,,,,,,,
null,,rt_thecrossant_black,512621,,,black_plus_sign,,,,,null,,,1,0.9607843137254902,,,,,,,,,,,,,,,,
null,,color_black,512725,,,black_plus_sign,,,,,null,,,,,,,,,,,,,,,,,,,,
null,,learn_phase(without_color),515738,,,black_plus_sign,,,,,null,US_Cities_List/carmel.png,US_Cities_List/shreveport.png,,,,,,,,,,,,,,,,,,
null,,black_cross(without_color),516641,,,yellow,,,,,null,US_Cities_List/carmel.png,US_Cities_List/shreveport.png,,,,,,,,,,,,,,,,,,
401.90000000596046,,rt_plussign_withcolor,517144,,,yellow,,,,,50,US_Cities_List/carmel.png,US_Cities_List/shreveport.png,,,,,,,,,,,,,,,,,,
null,,rt_thecrossant_black,518248,,,black_plus_sign,,,,,null,,,1,0.9615384615384616,,,,,,,,,,,,,,,,
null,,color_black,518351,,,black_plus_sign,,,,,null,,,,,,,,,,,,,,,,,,,,
null,,learn_phase(without_color),521366,,,black_plus_sign,,,,,null,US_Cities_List/gatlinburg.png,US_Cities_List/carmel.png,,,,,,,,,,,,,,,,,,
null,,black_cross(without_color),522196,,,blue,,,,,null,US_Cities_List/gatlinburg.png,US_Cities_List/carmel.png,,,,,,,,,,,,,,,,,,
null,,rt_plussign_withcolor,522699,,,blue,,,,,null,US_Cities_List/gatlinburg.png,US_Cities_List/carmel.png,,,,,,,,,,,,,,,,,,
1029.8000000044703,,rt_thecrossant_black,523876,,,black_plus_sign,,,,,49,,,1,0.9622641509433962,,,,,,,,,,,,,,,,
null,,color_black,523979,,,black_plus_sign,,,,,null,,,,,,,,,,,,,,,,,,,,
null,,learn_phase(without_color),526993,,,black_plus_sign,,,,,null,US_Cities_List/carmel.png,US_Cities_List/shreveport.png,,,,,,,,,,,,,,,,,,
null,,black_cross(without_color),527853,,,yellow,,,,,null,US_Cities_List/carmel.png,US_Cities_List/shreveport.png,,,,,,,,,,,,,,,,,,
492.90000000596046,,rt_plussign_withcolor,528356,,,yellow,,,,,50,US_Cities_List/carmel.png,US_Cities_List/shreveport.png,,,,,,,,,,,,,,,,,,
null,,rt_thecrossant_black,529504,,,black_plus_sign,,,,,null,,,1,0.9629629629629629,,,,,,,,,,,,,,,,
null,,color_black,529608,,,black_plus_sign,,,,,null,,,,,,,,,,,,,,,,,,,,
null,,learn_phase(without_color),532623,,,black_plus_sign,,,,,null,US_Cities_List/carmel.png,US_Cities_List/westpalmbeach.png,,,,,,,,,,,,,,,,,,
null,,black_cross(without_color),533037,,,blue,,,,,null,US_Cities_List/carmel.png,US_Cities_List/westpalmbeach.png,,,,,,,,,,,,,,,,,,
null,,rt_plussign_withcolor,533541,,,blue,,,,,null,US_Cities_List/carmel.png,US_Cities_List/westpalmbeach.png,,,,,,,,,,,,,,,,,,
1028.9000000059605,,rt_thecrossant_black,535133,,,black_plus_sign,,,,,49,,,1,0.9636363636363636,,,,,,,,,,,,,,,,
null,,color_black,535237,,,black_plus_sign,,,,,null,,,,,,,,,,,,,,,,,,,,
null,,learn_phase(without_color),538252,,,black_plus_sign,,,,,null,US_Cities_List/carmel.png,US_Cities_List/gatlinburg.png,,,,,,,,,,,,,,,,,,
null,,black_cross(without_color),539131,,,blue,,,,,null,US_Cities_List/carmel.png,US_Cities_List/gatlinburg.png,,,,,,,,,,,,,,,,,,
null,,rt_plussign_withcolor,539634,,,blue,,,,,null,US_Cities_List/carmel.png,US_Cities_List/gatlinburg.png,,,,,,,,,,,,,,,,,,
526.8999999985099,,rt_thecrossant_black,540762,,,black_plus_sign,,,,,49,,,1,0.9642857142857143,,,,,,,,,,,,,,,,
null,,color_black,540867,,,black_plus_sign,,,,,null,,,,,,,,,,,,,,,,,,,,
null,,learn_phase(without_color),543884,,,black_plus_sign,,,,,null,US_Cities_List/carmel.png,US_Cities_List/gatlinburg.png,,,,,,,,,,,,,,,,,,
null,,black_cross(without_color),544484,,,yellow,,,,,null,US_Cities_List/carmel.png,US_Cities_List/gatlinburg.png,,,,,,,,,,,,,,,,,,
453.8999999985099,,rt_plussign_withcolor,544987,,,yellow,,,,,50,US_Cities_List/carmel.png,US_Cities_List/gatlinburg.png,,,,,,,,,,,,,,,,,,
null,,rt_thecrossant_black,546395,,,black_plus_sign,,,,,null,,,1,0.9649122807017544,,,,,,,,,,,,,,,,
null,,color_black,546498,,,black_plus_sign,,,,,null,,,,,,,,,,,,,,,,,,,,
null,,learn_phase(without_color),549512,,,black_plus_sign,,,,,null,US_Cities_List/hotsprings.png,US_Cities_List/shreveport.png,,,,,,,,,,,,,,,,,,
null,,black_cross(without_color),550072,,,blue,,,,,null,US_Cities_List/hotsprings.png,US_Cities_List/shreveport.png,,,,,,,,,,,,,,,,,,
null,,rt_plussign_withcolor,550576,,,blue,,,,,null,US_Cities_List/hotsprings.png,US_Cities_List/shreveport.png,,,,,,,,,,,,,,,,,,
994.2000000029802,,rt_thecrossant_black,552024,,,black_plus_sign,,,,,49,,,1,0.9655172413793104,,,,,,,,,,,,,,,,
null,,color_black,552129,,,black_plus_sign,,,,,null,,,,,,,,,,,,,,,,,,,,
null,,learn_phase(without_color),555145,,,black_plus_sign,,,,,null,US_Cities_List/carmel.png,US_Cities_List/cornwall.png,,,,,,,,,,,,,,,,,,
null,,black_cross(without_color),555886,,,blue,,,,,null,US_Cities_List/carmel.png,US_Cities_List/cornwall.png,,,,,,,,,,,,,,,,,,
null,,rt_plussign_withcolor,556389,,,blue,,,,,null,US_Cities_List/carmel.png,US_Cities_List/cornwall.png,,,,,,,,,,,,,,,,,,
689,,rt_thecrossant_black,557655,,,black_plus_sign,,,,,49,,,1,0.9661016949152542,,,,,,,,,,,,,,,,
null,,color_black,557759,,,black_plus_sign,,,,,null,,,,,,,,,,,,,,,,,,,,
null,,learn_phase(without_color),560777,,,black_plus_sign,,,,,null,US_Cities_List/cornwall.png,US_Cities_List/leesburg.png,,,,,,,,,,,,,,,,,,
null,,black_cross(without_color),561544,,,yellow,,,,,null,US_Cities_List/cornwall.png,US_Cities_List/leesburg.png,,,,,,,,,,,,,,,,,,
422.5,,rt_plussign_withcolor,562048,,,yellow,,,,,50,US_Cities_List/cornwall.png,US_Cities_List/leesburg.png,,,,,,,,,,,,,,,,,,
null,,rt_thecrossant_black,563288,,,black_plus_sign,,,,,null,,,1,0.9666666666666667,,,,,,,,,,,,,,,,
null,,color_black,563392,,,black_plus_sign,,,,,null,,,,,,,,,,,,,,,,,,,,
null,,learn_phase(without_color),566407,,,black_plus_sign,,,,,null,US_Cities_List/racine.png,US_Cities_List/leesburg.png,,,,,,,,,,,,,,,,,,
null,,black_cross(without_color),566929,,,blue,,,,,null,US_Cities_List/racine.png,US_Cities_List/leesburg.png,,,,,,,,,,,,,,,,,,
null,,rt_plussign_withcolor,567432,,,blue,,,,,null,US_Cities_List/racine.png,US_Cities_List/leesburg.png,,,,,,,,,,,,,,,,,,
929.7000000029802,,rt_thecrossant_black,568918,,,black_plus_sign,,,,,50,,,0,0.9508196721311475,,,,,,,,,,,,,,,,
null,,color_black,569021,,,black_plus_sign,,,,,null,,,,,,,,,,,,,,,,,,,,
null,,learn_phase(without_color),572039,,,black_plus_sign,,,,,null,US_Cities_List/cornwall.png,US_Cities_List/carmel.png,,,,,,,,,,,,,,,,,,
null,,black_cross(without_color),572891,,,yellow,,,,,null,US_Cities_List/cornwall.png,US_Cities_List/carmel.png,,,,,,,,,,,,,,,,,,
null,,rt_plussign_withcolor,573394,,,yellow,,,,,null,US_Cities_List/cornwall.png,US_Cities_List/carmel.png,,,,,,,,,,,,,,,,,,
686.8000000044703,,rt_thecrossant_black,574549,,,black_plus_sign,,,,,50,,,1,0.9516129032258065,,,,,,,,,,,,,,,,
null,,color_black,574652,,,black_plus_sign,,,,,null,,,,,,,,,,,,,,,,,,,,
null,,learn_phase(without_color),577666,,,black_plus_sign,,,,,null,US_Cities_List/leesburg.png,US_Cities_List/newhope.png,,,,,,,,,,,,,,,,,,
null,,black_cross(without_color),578344,,,blue,,,,,null,US_Cities_List/leesburg.png,US_Cities_List/newhope.png,,,,,,,,,,,,,,,,,,
null,,rt_plussign_withcolor,578847,,,blue,,,,,null,US_Cities_List/leesburg.png,US_Cities_List/newhope.png,,,,,,,,,,,,,,,,,,
1256.9000000059605,,rt_thecrossant_black,580176,,,black_plus_sign,,,,,49,,,1,0.9523809523809523,,,,,,,,,,,,,,,,
null,,color_black,580280,,,black_plus_sign,,,,,null,,,,,,,,,,,,,,,,,,,,
null,,learn_phase(without_color),583299,,,black_plus_sign,,,,,null,US_Cities_List/cornwall.png,US_Cities_List/gatlinburg.png,,,,,,,,,,,,,,,,,,
null,,black_cross(without_color),584080,,,yellow,,,,,null,US_Cities_List/cornwall.png,US_Cities_List/gatlinburg.png,,,,,,,,,,,,,,,,,,
null,,rt_plussign_withcolor,584583,,,yellow,,,,,null,US_Cities_List/cornwall.png,US_Cities_List/gatlinburg.png,,,,,,,,,,,,,,,,,,
803.3999999985099,,rt_thecrossant_black,585810,,,black_plus_sign,,,,,50,,,1,0.953125,,,,,,,,,,,,,,,,
null,,color_black,585914,,,black_plus_sign,,,,,null,,,,,,,,,,,,,,,,,,,,
null,,learn_break,645919,,,learn_break,,,,,null,,,,,,,,,,,,,,,,,,,,
null,,html-keyboard-response,646923,,,<p></p>,,,,,null,,,,,,,,,,,,,,,,,,,,
null,,learn_phase(without_color),649937,,,black_plus_sign,,,,,null,US_Cities_List/leesburg.png,US_Cities_List/newhope.png,,,,,,,,,,,,,,,,,,
null,,black_cross(without_color),650921,,,yellow,,,,,null,US_Cities_List/leesburg.png,US_Cities_List/newhope.png,,,,,,,,,,,,,,,,,,
null,,rt_plussign_withcolor,651424,,,yellow,,,,,null,US_Cities_List/leesburg.png,US_Cities_List/newhope.png,,,,,,,,,,,,,,,,,,
877.1000000014901,,rt_thecrossant_black,652448,,,black_plus_sign,,,,,50,,,1,0.9538461538461539,,,,,,,,,,,,,,,,
null,,color_black,652551,,,black_plus_sign,,,,,null,,,,,,,,,,,,,,,,,,,,
null,,learn_phase(without_color),655563,,,black_plus_sign,,,,,null,US_Cities_List/huntsville.png,US_Cities_List/racine.png,,,,,,,,,,,,,,,,,,
null,,black_cross(without_color),656351,,,yellow,,,,,null,US_Cities_List/huntsville.png,US_Cities_List/racine.png,,,,,,,,,,,,,,,,,,
null,,rt_plussign_withcolor,656855,,,yellow,,,,,null,US_Cities_List/huntsville.png,US_Cities_List/racine.png,,,,,,,,,,,,,,,,,,
1576.6000000014901,,rt_thecrossant_black,658075,,,black_plus_sign,,,,,50,,,1,0.9545454545454546,,,,,,,,,,,,,,,,
null,,color_black,658179,,,black_plus_sign,,,,,null,,,,,,,,,,,,,,,,,,,,
null,,learn_phase(without_color),661191,,,black_plus_sign,,,,,null,US_Cities_List/boulder.png,US_Cities_List/peoria.png,,,,,,,,,,,,,,,,,,
null,,black_cross(without_color),661733,,,blue,,,,,null,US_Cities_List/boulder.png,US_Cities_List/peoria.png,,,,,,,,,,,,,,,,,,
null,,rt_plussign_withcolor,662236,,,blue,,,,,null,US_Cities_List/boulder.png,US_Cities_List/peoria.png,,,,,,,,,,,,,,,,,,
989.1999999955297,,rt_thecrossant_black,663702,,,black_plus_sign,,,,,49,,,1,0.9552238805970149,,,,,,,,,,,,,,,,
null,,color_black,663806,,,black_plus_sign,,,,,null,,,,,,,,,,,,,,,,,,,,
null,,learn_phase(without_color),666822,,,black_plus_sign,,,,,null,US_Cities_List/leesburg.png,US_Cities_List/cornwall.png,,,,,,,,,,,,,,,,,,
null,,black_cross(without_color),667672,,,yellow,,,,,null,US_Cities_List/leesburg.png,US_Cities_List/cornwall.png,,,,,,,,,,,,,,,,,,
null,,rt_plussign_withcolor,668175,,,yellow,,,,,null,US_Cities_List/leesburg.png,US_Cities_List/cornwall.png,,,,,,,,,,,,,,,,,,
713.5,,rt_thecrossant_black,669333,,,black_plus_sign,,,,,50,,,1,0.9558823529411765,,,,,,,,,,,,,,,,
null,,color_black,669437,,,black_plus_sign,,,,,null,,,,,,,,,,,,,,,,,,,,
null,,learn_phase(without_color),672451,,,black_plus_sign,,,,,null,US_Cities_List/boulder.png,US_Cities_List/peoria.png,,,,,,,,,,,,,,,,,,
null,,black_cross(without_color),673109,,,yellow,,,,,null,US_Cities_List/boulder.png,US_Cities_List/peoria.png,,,,,,,,,,,,,,,,,,
null,,rt_plussign_withcolor,673613,,,yellow,,,,,null,US_Cities_List/boulder.png,US_Cities_List/peoria.png,,,,,,,,,,,,,,,,,,
975.8999999985099,,rt_thecrossant_black,674962,,,black_plus_sign,,,,,50,,,1,0.9565217391304348,,,,,,,,,,,,,,,,
null,,color_black,675066,,,black_plus_sign,,,,,null,,,,,,,,,,,,,,,,,,,,
null,,learn_phase(without_color),678079,,,black_plus_sign,,,,,null,US_Cities_List/carmel.png,US_Cities_List/westpalmbeach.png,,,,,,,,,,,,,,,,,,
null,,black_cross(without_color),679116,,,blue,,,,,null,US_Cities_List/carmel.png,US_Cities_List/westpalmbeach.png,,,,,,,,,,,,,,,,,,
null,,rt_plussign_withcolor,679619,,,blue,,,,,null,US_Cities_List/carmel.png,US_Cities_List/westpalmbeach.png,,,,,,,,,,,,,,,,,,
1023.3999999985099,,rt_thecrossant_black,680590,,,black_plus_sign,,,,,50,,,0,0.9428571428571428,,,,,,,,,,,,,,,,
null,,color_black,680695,,,black_plus_sign,,,,,null,,,,,,,,,,,,,,,,,,,,
null,,learn_phase(without_color),683711,,,black_plus_sign,,,,,null,US_Cities_List/racine.png,US_Cities_List/boulder.png,,,,,,,,,,,,,,,,,,
null,,black_cross(without_color),684272,,,blue,,,,,null,US_Cities_List/racine.png,US_Cities_List/boulder.png,,,,,,,,,,,,,,,,,,
null,,rt_plussign_withcolor,684775,,,blue,,,,,null,US_Cities_List/racine.png,US_Cities_List/boulder.png,,,,,,,,,,,,,,,,,,
1331,,rt_thecrossant_black,686222,,,black_plus_sign,,,,,49,,,1,0.9436619718309859,,,,,,,,,,,,,,,,
null,,color_black,686326,,,black_plus_sign,,,,,null,,,,,,,,,,,,,,,,,,,,
null,,learn_phase(without_color),689347,,,black_plus_sign,,,,,null,US_Cities_List/carmel.png,US_Cities_List/cornwall.png,,,,,,,,,,,,,,,,,,
null,,black_cross(without_color),689932,,,yellow,,,,,null,US_Cities_List/carmel.png,US_Cities_List/cornwall.png,,,,,,,,,,,,,,,,,,
null,,rt_plussign_withcolor,690435,,,yellow,,,,,null,US_Cities_List/carmel.png,US_Cities_List/cornwall.png,,,,,,,,,,,,,,,,,,
759.5999999940395,,rt_thecrossant_black,691857,,,black_plus_sign,,,,,50,,,1,0.9444444444444444,,,,,,,,,,,,,,,,
null,,color_black,691961,,,black_plus_sign,,,,,null,,,,,,,,,,,,,,,,,,,,
null,,learn_phase(without_color),694975,,,black_plus_sign,,,,,null,US_Cities_List/huntsville.png,US_Cities_List/racine.png,,,,,,,,,,,,,,,,,,
null,,black_cross(without_color),695947,,,blue,,,,,null,US_Cities_List/huntsville.png,US_Cities_List/racine.png,,,,,,,,,,,,,,,,,,
null,,rt_plussign_withcolor,696450,,,blue,,,,,null,US_Cities_List/huntsville.png,US_Cities_List/racine.png,,,,,,,,,,,,,,,,,,
712.8999999985099,,rt_thecrossant_black,697485,,,black_plus_sign,,,,,49,,,1,0.9452054794520548,,,,,,,,,,,,,,,,
null,,color_black,697589,,,black_plus_sign,,,,,null,,,,,,,,,,,,,,,,,,,,
null,,learn_phase(without_color),700604,,,black_plus_sign,,,,,null,US_Cities_List/leesburg.png,US_Cities_List/racine.png,,,,,,,,,,,,,,,,,,
null,,black_cross(without_color),701063,,,blue,,,,,null,US_Cities_List/leesburg.png,US_Cities_List/racine.png,,,,,,,,,,,,,,,,,,
null,,rt_plussign_withcolor,701567,,,blue,,,,,null,US_Cities_List/leesburg.png,US_Cities_List/racine.png,,,,,,,,,,,,,,,,,,
1620.8999999985099,,rt_thecrossant_black,703115,,,black_plus_sign,,,,,49,,,1,0.9459459459459459,,,,,,,,,,,,,,,,
null,,color_black,703219,,,black_plus_sign,,,,,null,,,,,,,,,,,,,,,,,,,,
null,,learn_phase(without_color),706235,,,black_plus_sign,,,,,null,US_Cities_List/racine.png,US_Cities_List/boulder.png,,,,,,,,,,,,,,,,,,
null,,black_cross(without_color),706656,,,yellow,,,,,null,US_Cities_List/racine.png,US_Cities_List/boulder.png,,,,,,,,,,,,,,,,,,
null,,rt_plussign_withcolor,707159,,,yellow,,,,,null,US_Cities_List/racine.png,US_Cities_List/boulder.png,,,,,,,,,,,,,,,,,,
814.5999999940395,,rt_thecrossant_black,708747,,,black_plus_sign,,,,,50,,,1,0.9466666666666667,,,,,,,,,,,,,,,,
null,,color_black,708851,,,black_plus_sign,,,,,null,,,,,,,,,,,,,,,,,,,,
null,,learn_phase(without_color),711864,,,black_plus_sign,,,,,null,US_Cities_List/peoria.png,US_Cities_List/boulder.png,,,,,,,,,,,,,,,,,,
null,,black_cross(without_color),712490,,,yellow,,,,,null,US_Cities_List/peoria.png,US_Cities_List/boulder.png,,,,,,,,,,,,,,,,,,
null,,rt_plussign_withcolor,712993,,,yellow,,,,,null,US_Cities_List/peoria.png,US_Cities_List/boulder.png,,,,,,,,,,,,,,,,,,
578.2999999970198,,rt_thecrossant_black,714375,,,black_plus_sign,,,,,50,,,1,0.9473684210526315,,,,,,,,,,,,,,,,
null,,color_black,714479,,,black_plus_sign,,,,,null,,,,,,,,,,,,,,,,,,,,
null,,learn_phase(without_color),717493,,,black_plus_sign,,,,,null,US_Cities_List/hanover.png,US_Cities_List/newhope.png,,,,,,,,,,,,,,,,,,
null,,black_cross(without_color),718317,,,yellow,,,,,null,US_Cities_List/hanover.png,US_Cities_List/newhope.png,,,,,,,,,,,,,,,,,,
null,,rt_plussign_withcolor,718820,,,yellow,,,,,null,US_Cities_List/hanover.png,US_Cities_List/newhope.png,,,,,,,,,,,,,,,,,,
1233.6000000014901,,rt_thecrossant_black,720003,,,black_plus_sign,,,,,50,,,1,0.948051948051948,,,,,,,,,,,,,,,,
null,,color_black,720107,,,black_plus_sign,,,,,null,,,,,,,,,,,,,,,,,,,,
null,,learn_phase(without_color),723120,,,black_plus_sign,,,,,null,US_Cities_List/shreveport.png,US_Cities_List/gatlinburg.png,,,,,,,,,,,,,,,,,,
null,,black_cross(without_color),723530,,,yellow,,,,,null,US_Cities_List/shreveport.png,US_Cities_List/gatlinburg.png,,,,,,,,,,,,,,,,,,
null,,rt_plussign_withcolor,724034,,,yellow,,,,,null,US_Cities_List/shreveport.png,US_Cities_List/gatlinburg.png,,,,,,,,,,,,,,,,,,
1114.8000000044703,,rt_thecrossant_black,725631,,,black_plus_sign,,,,,50,,,1,0.9487179487179487,,,,,,,,,,,,,,,,
null,,color_black,725735,,,black_plus_sign,,,,,null,,,,,,,,,,,,,,,,,,,,
null,,learn_phase(without_color),728751,,,black_plus_sign,,,,,null,US_Cities_List/cornwall.png,US_Cities_List/carmel.png,,,,,,,,,,,,,,,,,,
null,,black_cross(without_color),729784,,,blue,,,,,null,US_Cities_List/cornwall.png,US_Cities_List/carmel.png,,,,,,,,,,,,,,,,,,
377.59999999403954,,rt_plussign_withcolor,730287,,,blue,,,,,49,US_Cities_List/cornwall.png,US_Cities_List/carmel.png,,,,,,,,,,,,,,,,,,
null,,rt_thecrossant_black,731262,,,black_plus_sign,,,,,null,,,1,0.9493670886075949,,,,,,,,,,,,,,,,
null,,color_black,731366,,,black_plus_sign,,,,,null,,,,,,,,,,,,,,,,,,,,
null,,learn_phase(without_color),734381,,,black_plus_sign,,,,,null,US_Cities_List/racine.png,US_Cities_List/huntsville.png,,,,,,,,,,,,,,,,,,
null,,black_cross(without_color),735047,,,blue,,,,,null,US_Cities_List/racine.png,US_Cities_List/huntsville.png,,,,,,,,,,,,,,,,,,
null,,rt_plussign_withcolor,735550,,,blue,,,,,null,US_Cities_List/racine.png,US_Cities_List/huntsville.png,,,,,,,,,,,,,,,,,,
1631.8999999985099,,rt_thecrossant_black,736892,,,black_plus_sign,,,,,49,,,1,0.95,,,,,,,,,,,,,,,,
null,,color_black,736997,,,black_plus_sign,,,,,null,,,,,,,,,,,,,,,,,,,,
null,,learn_phase(without_color),740011,,,black_plus_sign,,,,,null,US_Cities_List/hanover.png,US_Cities_List/boulder.png,,,,,,,,,,,,,,,,,,
null,,black_cross(without_color),740784,,,blue,,,,,null,US_Cities_List/hanover.png,US_Cities_List/boulder.png,,,,,,,,,,,,,,,,,,
null,,rt_plussign_withcolor,741288,,,blue,,,,,null,US_Cities_List/hanover.png,US_Cities_List/boulder.png,,,,,,,,,,,,,,,,,,
1409.3999999985099,,rt_thecrossant_black,742522,,,black_plus_sign,,,,,49,,,1,0.9506172839506173,,,,,,,,,,,,,,,,
null,,color_black,742625,,,black_plus_sign,,,,,null,,,,,,,,,,,,,,,,,,,,
null,,learn_phase(without_color),745638,,,black_plus_sign,,,,,null,US_Cities_List/shreveport.png,US_Cities_List/carmel.png,,,,,,,,,,,,,,,,,,
null,,black_cross(without_color),746404,,,blue,,,,,null,US_Cities_List/shreveport.png,US_Cities_List/carmel.png,,,,,,,,,,,,,,,,,,
null,,rt_plussign_withcolor,746907,,,blue,,,,,null,US_Cities_List/shreveport.png,US_Cities_List/carmel.png,,,,,,,,,,,,,,,,,,
966.7999999970198,,rt_thecrossant_black,748149,,,black_plus_sign,,,,,49,,,1,0.9512195121951219,,,,,,,,,,,,,,,,
null,,color_black,748253,,,black_plus_sign,,,,,null,,,,,,,,,,,,,,,,,,,,
null,,learn_phase(without_color),751269,,,black_plus_sign,,,,,null,US_Cities_List/boulder.png,US_Cities_List/racine.png,,,,,,,,,,,,,,,,,,
null,,black_cross(without_color),751759,,,yellow,,,,,null,US_Cities_List/boulder.png,US_Cities_List/racine.png,,,,,,,,,,,,,,,,,,
null,,rt_plussign_withcolor,752263,,,yellow,,,,,null,US_Cities_List/boulder.png,US_Cities_List/racine.png,,,,,,,,,,,,,,,,,,
892.8999999985099,,rt_thecrossant_black,753780,,,black_plus_sign,,,,,50,,,1,0.9518072289156626,,,,,,,,,,,,,,,,
null,,color_black,753884,,,black_plus_sign,,,,,null,,,,,,,,,,,,,,,,,,,,
null,,learn_phase(without_color),756898,,,black_plus_sign,,,,,null,US_Cities_List/gatlinburg.png,US_Cities_List/carmel.png,,,,,,,,,,,,,,,,,,
null,,black_cross(without_color),757620,,,blue,,,,,null,US_Cities_List/gatlinburg.png,US_Cities_List/carmel.png,,,,,,,,,,,,,,,,,,
null,,rt_plussign_withcolor,758124,,,blue,,,,,null,US_Cities_List/gatlinburg.png,US_Cities_List/carmel.png,,,,,,,,,,,,,,,,,,
675.1000000014901,,rt_thecrossant_black,759410,,,black_plus_sign,,,,,49,,,1,0.9523809523809523,,,,,,,,,,,,,,,,
null,,color_black,759514,,,black_plus_sign,,,,,null,,,,,,,,,,,,,,,,,,,,
null,,learn_phase(without_color),762533,,,black_plus_sign,,,,,null,US_Cities_List/gatlinburg.png,US_Cities_List/newhope.png,,,,,,,,,,,,,,,,,,
null,,black_cross(without_color),763330,,,blue,,,,,null,US_Cities_List/gatlinburg.png,US_Cities_List/newhope.png,,,,,,,,,,,,,,,,,,
445.5,,rt_plussign_withcolor,763833,,,blue,,,,,49,US_Cities_List/gatlinburg.png,US_Cities_List/newhope.png,,,,,,,,,,,,,,,,,,
null,,rt_thecrossant_black,765044,,,black_plus_sign,,,,,null,,,1,0.9529411764705882,,,,,,,,,,,,,,,,
null,,color_black,765148,,,black_plus_sign,,,,,null,,,,,,,,,,,,,,,,,,,,
null,,learn_phase(without_color),768163,,,black_plus_sign,,,,,null,US_Cities_List/gatlinburg.png,US_Cities_List/carmel.png,,,,,,,,,,,,,,,,,,
null,,black_cross(without_color),768882,,,yellow,,,,,null,US_Cities_List/gatlinburg.png,US_Cities_List/carmel.png,,,,,,,,,,,,,,,,,,
null,,rt_plussign_withcolor,769385,,,yellow,,,,,null,US_Cities_List/gatlinburg.png,US_Cities_List/carmel.png,,,,,,,,,,,,,,,,,,
962.8000000044703,,rt_thecrossant_black,770674,,,black_plus_sign,,,,,50,,,1,0.9534883720930233,,,,,,,,,,,,,,,,
null,,color_black,770778,,,black_plus_sign,,,,,null,,,,,,,,,,,,,,,,,,,,
null,,learn_phase(without_color),773791,,,black_plus_sign,,,,,null,US_Cities_List/racine.png,US_Cities_List/huntsville.png,,,,,,,,,,,,,,,,,,
null,,black_cross(without_color),774331,,,blue,,,,,null,US_Cities_List/racine.png,US_Cities_List/huntsville.png,,,,,,,,,,,,,,,,,,
null,,rt_plussign_withcolor,774835,,,blue,,,,,null,US_Cities_List/racine.png,US_Cities_List/huntsville.png,,,,,,,,,,,,,,,,,,
856.9000000059605,,rt_thecrossant_black,776303,,,black_plus_sign,,,,,49,,,1,0.9540229885057471,,,,,,,,,,,,,,,,
null,,color_black,776407,,,black_plus_sign,,,,,null,,,,,,,,,,,,,,,,,,,,
null,,learn_phase(without_color),779420,,,black_plus_sign,,,,,null,US_Cities_List/hanover.png,US_Cities_List/boulder.png,,,,,,,,,,,,,,,,,,
null,,black_cross(without_color),779824,,,blue,,,,,null,US_Cities_List/hanover.png,US_Cities_List/boulder.png,,,,,,,,,,,,,,,,,,
null,,rt_plussign_withcolor,780328,,,blue,,,,,null,US_Cities_List/hanover.png,US_Cities_List/boulder.png,,,,,,,,,,,,,,,,,,
919.5,,rt_thecrossant_black,781932,,,black_plus_sign,,,,,49,,,1,0.9545454545454546,,,,,,,,,,,,,,,,
null,,color_black,782036,,,black_plus_sign,,,,,null,,,,,,,,,,,,,,,,,,,,
null,,learn_phase(without_color),785051,,,black_plus_sign,,,,,null,US_Cities_List/shreveport.png,US_Cities_List/gatlinburg.png,,,,,,,,,,,,,,,,,,
null,,black_cross(without_color),785833,,,blue,,,,,null,US_Cities_List/shreveport.png,US_Cities_List/gatlinburg.png,,,,,,,,,,,,,,,,,,
null,,rt_plussign_withcolor,786336,,,blue,,,,,null,US_Cities_List/shreveport.png,US_Cities_List/gatlinburg.png,,,,,,,,,,,,,,,,,,
586.3000000044703,,rt_thecrossant_black,787563,,,black_plus_sign,,,,,49,,,1,0.9550561797752809,,,,,,,,,,,,,,,,
null,,color_black,787667,,,black_plus_sign,,,,,null,,,,,,,,,,,,,,,,,,,,
null,,learn_phase(without_color),790681,,,black_plus_sign,,,,,null,US_Cities_List/leesburg.png,US_Cities_List/newhope.png,,,,,,,,,,,,,,,,,,
null,,black_cross(without_color),791583,,,blue,,,,,null,US_Cities_List/leesburg.png,US_Cities_List/newhope.png,,,,,,,,,,,,,,,,,,
376.1000000014901,,rt_plussign_withcolor,792087,,,blue,,,,,49,US_Cities_List/leesburg.png,US_Cities_List/newhope.png,,,,,,,,,,,,,,,,,,
null,,rt_thecrossant_black,793192,,,black_plus_sign,,,,,null,,,1,0.9555555555555556,,,,,,,,,,,,,,,,
null,,color_black,793296,,,black_plus_sign,,,,,null,,,,,,,,,,,,,,,,,,,,
null,,learn_phase(without_color),796310,,,black_plus_sign,,,,,null,US_Cities_List/carmel.png,US_Cities_List/gatlinburg.png,,,,,,,,,,,,,,,,,,
null,,black_cross(without_color),797135,,,blue,,,,,null,US_Cities_List/carmel.png,US_Cities_List/gatlinburg.png,,,,,,,,,,,,,,,,,,
null,,rt_plussign_withcolor,797638,,,blue,,,,,null,US_Cities_List/carmel.png,US_Cities_List/gatlinburg.png,,,,,,,,,,,,,,,,,,
1075.7000000029802,,rt_thecrossant_black,798821,,,black_plus_sign,,,,,49,,,1,0.9560439560439561,,,,,,,,,,,,,,,,
null,,color_black,798925,,,black_plus_sign,,,,,null,,,,,,,,,,,,,,,,,,,,
null,,learn_phase(without_color),801936,,,black_plus_sign,,,,,null,US_Cities_List/huntsville.png,US_Cities_List/racine.png,,,,,,,,,,,,,,,,,,
null,,black_cross(without_color),802866,,,yellow,,,,,null,US_Cities_List/huntsville.png,US_Cities_List/racine.png,,,,,,,,,,,,,,,,,,
null,,rt_plussign_withcolor,803370,,,yellow,,,,,null,US_Cities_List/huntsville.png,US_Cities_List/racine.png,,,,,,,,,,,,,,,,,,
1042.8999999985099,,rt_thecrossant_black,804447,,,black_plus_sign,,,,,50,,,1,0.9565217391304348,,,,,,,,,,,,,,,,
null,,color_black,804551,,,black_plus_sign,,,,,null,,,,,,,,,,,,,,,,,,,,
null,,learn_phase(without_color),807568,,,black_plus_sign,,,,,null,US_Cities_List/leesburg.png,US_Cities_List/newhope.png,,,,,,,,,,,,,,,,,,
null,,black_cross(without_color),808604,,,blue,,,,,null,US_Cities_List/leesburg.png,US_Cities_List/newhope.png,,,,,,,,,,,,,,,,,,
null,,rt_plussign_withcolor,809107,,,blue,,,,,null,US_Cities_List/leesburg.png,US_Cities_List/newhope.png,,,,,,,,,,,,,,,,,,
1125.6000000014901,,rt_thecrossant_black,810078,,,black_plus_sign,,,,,49,,,1,0.956989247311828,,,,,,,,,,,,,,,,
null,,color_black,810181,,,black_plus_sign,,,,,null,,,,,,,,,,,,,,,,,,,,
null,,learn_phase(without_color),813194,,,black_plus_sign,,,,,null,US_Cities_List/boulder.png,US_Cities_List/hanover.png,,,,,,,,,,,,,,,,,,
null,,black_cross(without_color),813927,,,yellow,,,,,null,US_Cities_List/boulder.png,US_Cities_List/hanover.png,,,,,,,,,,,,,,,,,,
470.70000000298023,,rt_plussign_withcolor,814430,,,yellow,,,,,50,US_Cities_List/boulder.png,US_Cities_List/hanover.png,,,,,,,,,,,,,,,,,,
null,,rt_thecrossant_black,815705,,,black_plus_sign,,,,,null,,,1,0.9574468085106383,,,,,,,,,,,,,,,,
null,,color_black,815809,,,black_plus_sign,,,,,null,,,,,,,,,,,,,,,,,,,,
null,,learn_phase(without_color),818824,,,black_plus_sign,,,,,null,US_Cities_List/boulder.png,US_Cities_List/peoria.png,,,,,,,,,,,,,,,,,,
null,,black_cross(without_color),819435,,,yellow,,,,,null,US_Cities_List/boulder.png,US_Cities_List/peoria.png,,,,,,,,,,,,,,,,,,
456.8999999985099,,rt_plussign_withcolor,819938,,,yellow,,,,,50,US_Cities_List/boulder.png,US_Cities_List/peoria.png,,,,,,,,,,,,,,,,,,
null,,rt_thecrossant_black,821334,,,black_plus_sign,,,,,null,,,1,0.9578947368421052,,,,,,,,,,,,,,,,
null,,color_black,821438,,,black_plus_sign,,,,,null,,,,,,,,,,,,,,,,,,,,
null,,learn_phase(without_color),824452,,,black_plus_sign,,,,,null,US_Cities_List/boulder.png,US_Cities_List/hanover.png,,,,,,,,,,,,,,,,,,
null,,black_cross(without_color),825462,,,blue,,,,,null,US_Cities_List/boulder.png,US_Cities_List/hanover.png,,,,,,,,,,,,,,,,,,
null,,rt_plussign_withcolor,825966,,,blue,,,,,null,US_Cities_List/boulder.png,US_Cities_List/hanover.png,,,,,,,,,,,,,,,,,,
824.1999999955297,,rt_thecrossant_black,826963,,,black_plus_sign,,,,,49,,,1,0.9583333333333334,,,,,,,,,,,,,,,,
null,,color_black,827067,,,black_plus_sign,,,,,null,,,,,,,,,,,,,,,,,,,,
null,,learn_phase(without_color),830082,,,black_plus_sign,,,,,null,US_Cities_List/huntsville.png,US_Cities_List/racine.png,,,,,,,,,,,,,,,,,,
null,,black_cross(without_color),830792,,,yellow,,,,,null,US_Cities_List/huntsville.png,US_Cities_List/racine.png,,,,,,,,,,,,,,,,,,
null,,rt_plussign_withcolor,831295,,,yellow,,,,,null,US_Cities_List/huntsville.png,US_Cities_List/racine.png,,,,,,,,,,,,,,,,,,
1107.2000000029802,,rt_thecrossant_black,832593,,,black_plus_sign,,,,,50,,,1,0.9587628865979382,,,,,,,,,,,,,,,,
null,,color_black,832696,,,black_plus_sign,,,,,null,,,,,,,,,,,,,,,,,,,,
null,,learn_phase(without_color),835712,,,black_plus_sign,,,,,null,US_Cities_List/westpalmbeach.png,US_Cities_List/carmel.png,,,,,,,,,,,,,,,,,,
null,,black_cross(without_color),836153,,,blue,,,,,null,US_Cities_List/westpalmbeach.png,US_Cities_List/carmel.png,,,,,,,,,,,,,,,,,,
490.29999999701977,,rt_plussign_withcolor,836657,,,blue,,,,,50,US_Cities_List/westpalmbeach.png,US_Cities_List/carmel.png,,,,,,,,,,,,,,,,,,
null,,rt_thecrossant_black,838223,,,black_plus_sign,,,,,49,,,0,0.9489795918367347,,,,,,,,,,,,,,,,
null,,color_black,838327,,,black_plus_sign,,,,,null,,,,,,,,,,,,,,,,,,,,
null,,learn_phase(without_color),841340,,,black_plus_sign,,,,,null,US_Cities_List/shreveport.png,US_Cities_List/hotsprings.png,,,,,,,,,,,,,,,,,,
null,,black_cross(without_color),842024,,,blue,,,,,null,US_Cities_List/shreveport.png,US_Cities_List/hotsprings.png,,,,,,,,,,,,,,,,,,
null,,rt_plussign_withcolor,842528,,,blue,,,,,null,US_Cities_List/shreveport.png,US_Cities_List/hotsprings.png,,,,,,,,,,,,,,,,,,
964.6000000014901,,rt_thecrossant_black,843852,,,black_plus_sign,,,,,49,,,1,0.9494949494949495,,,,,,,,,,,,,,,,
null,,color_black,843956,,,black_plus_sign,,,,,null,,,,,,,,,,,,,,,,,,,,
null,,learn_phase(without_color),846970,,,black_plus_sign,,,,,null,US_Cities_List/newhope.png,US_Cities_List/hanover.png,,,,,,,,,,,,,,,,,,
null,,black_cross(without_color),847778,,,blue,,,,,null,US_Cities_List/newhope.png,US_Cities_List/hanover.png,,,,,,,,,,,,,,,,,,
488.70000000298023,,rt_plussign_withcolor,848281,,,blue,,,,,49,US_Cities_List/newhope.png,US_Cities_List/hanover.png,,,,,,,,,,,,,,,,,,
null,,rt_thecrossant_black,849481,,,black_plus_sign,,,,,null,,,1,0.95,,,,,,,,,,,,,,,,
null,,color_black,849586,,,black_plus_sign,,,,,null,,,,,,,,,,,,,,,,,,,,
null,,learn_phase(without_color),852599,,,black_plus_sign,,,,,null,US_Cities_List/carmel.png,US_Cities_List/westpalmbeach.png,,,,,,,,,,,,,,,,,,
null,,black_cross(without_color),853281,,,yellow,,,,,null,US_Cities_List/carmel.png,US_Cities_List/westpalmbeach.png,,,,,,,,,,,,,,,,,,
null,,rt_plussign_withcolor,853785,,,yellow,,,,,null,US_Cities_List/carmel.png,US_Cities_List/westpalmbeach.png,,,,,,,,,,,,,,,,,,
996.7999999970198,,rt_thecrossant_black,855111,,,black_plus_sign,,,,,50,,,1,0.9504950495049505,,,,,,,,,,,,,,,,
null,,color_black,855215,,,black_plus_sign,,,,,null,,,,,,,,,,,,,,,,,,,,
null,,learn_phase(without_color),858231,,,black_plus_sign,,,,,null,US_Cities_List/shreveport.png,US_Cities_List/carmel.png,,,,,,,,,,,,,,,,,,
null,,black_cross(without_color),859176,,,yellow,,,,,null,US_Cities_List/shreveport.png,US_Cities_List/carmel.png,,,,,,,,,,,,,,,,,,
null,,rt_plussign_withcolor,859680,,,yellow,,,,,null,US_Cities_List/shreveport.png,US_Cities_List/carmel.png,,,,,,,,,,,,,,,,,,
992.7000000029802,,rt_thecrossant_black,860744,,,black_plus_sign,,,,,50,,,1,0.9509803921568627,,,,,,,,,,,,,,,,
null,,color_black,860848,,,black_plus_sign,,,,,null,,,,,,,,,,,,,,,,,,,,
null,,learn_phase(without_color),863863,,,black_plus_sign,,,,,null,US_Cities_List/shreveport.png,US_Cities_List/gatlinburg.png,,,,,,,,,,,,,,,,,,
null,,black_cross(without_color),864809,,,blue,,,,,null,US_Cities_List/shreveport.png,US_Cities_List/gatlinburg.png,,,,,,,,,,,,,,,,,,
376.79999999701977,,rt_plussign_withcolor,865312,,,blue,,,,,49,US_Cities_List/shreveport.png,US_Cities_List/gatlinburg.png,,,,,,,,,,,,,,,,,,
null,,rt_thecrossant_black,866375,,,black_plus_sign,,,,,null,,,1,0.9514563106796117,,,,,,,,,,,,,,,,
null,,color_black,866479,,,black_plus_sign,,,,,null,,,,,,,,,,,,,,,,,,,,
null,,learn_phase(without_color),869496,,,black_plus_sign,,,,,null,US_Cities_List/shreveport.png,US_Cities_List/gatlinburg.png,,,,,,,,,,,,,,,,,,
null,,black_cross(without_color),870007,,,yellow,,,,,null,US_Cities_List/shreveport.png,US_Cities_List/gatlinburg.png,,,,,,,,,,,,,,,,,,
null,,rt_plussign_withcolor,870510,,,yellow,,,,,null,US_Cities_List/shreveport.png,US_Cities_List/gatlinburg.png,,,,,,,,,,,,,,,,,,
1069.7999999970198,,rt_thecrossant_black,872007,,,black_plus_sign,,,,,50,,,1,0.9519230769230769,,,,,,,,,,,,,,,,
null,,color_black,872112,,,black_plus_sign,,,,,null,,,,,,,,,,,,,,,,,,,,
null,,learn_phase(without_color),875127,,,black_plus_sign,,,,,null,US_Cities_List/newhope.png,US_Cities_List/gatlinburg.png,,,,,,,,,,,,,,,,,,
null,,black_cross(without_color),875924,,,yellow,,,,,null,US_Cities_List/newhope.png,US_Cities_List/gatlinburg.png,,,,,,,,,,,,,,,,,,
468,,rt_plussign_withcolor,876427,,,yellow,,,,,50,US_Cities_List/newhope.png,US_Cities_List/gatlinburg.png,,,,,,,,,,,,,,,,,,
null,,rt_thecrossant_black,877639,,,black_plus_sign,,,,,null,,,1,0.9523809523809523,,,,,,,,,,,,,,,,
null,,color_black,877743,,,black_plus_sign,,,,,null,,,,,,,,,,,,,,,,,,,,
null,,learn_phase(without_color),880763,,,black_plus_sign,,,,,null,US_Cities_List/gatlinburg.png,US_Cities_List/cornwall.png,,,,,,,,,,,,,,,,,,
null,,black_cross(without_color),881588,,,yellow,,,,,null,US_Cities_List/gatlinburg.png,US_Cities_List/cornwall.png,,,,,,,,,,,,,,,,,,
380.3999999985099,,rt_plussign_withcolor,882091,,,yellow,,,,,50,US_Cities_List/gatlinburg.png,US_Cities_List/cornwall.png,,,,,,,,,,,,,,,,,,
null,,rt_thecrossant_black,883275,,,black_plus_sign,,,,,null,,,1,0.9528301886792453,,,,,,,,,,,,,,,,
null,,color_black,883380,,,black_plus_sign,,,,,null,,,,,,,,,,,,,,,,,,,,
null,,learn_phase(without_color),886396,,,black_plus_sign,,,,,null,US_Cities_List/hanover.png,US_Cities_List/newhope.png,,,,,,,,,,,,,,,,,,
null,,black_cross(without_color),886815,,,yellow,,,,,null,US_Cities_List/hanover.png,US_Cities_List/newhope.png,,,,,,,,,,,,,,,,,,
379.3999999985099,,rt_plussign_withcolor,887319,,,yellow,,,,,50,US_Cities_List/hanover.png,US_Cities_List/newhope.png,,,,,,,,,,,,,,,,,,
null,,rt_thecrossant_black,888908,,,black_plus_sign,,,,,null,,,1,0.9532710280373832,,,,,,,,,,,,,,,,
null,,color_black,889013,,,black_plus_sign,,,,,null,,,,,,,,,,,,,,,,,,,,
null,,learn_phase(without_color),892028,,,black_plus_sign,,,,,null,US_Cities_List/leesburg.png,US_Cities_List/racine.png,,,,,,,,,,,,,,,,,,
null,,black_cross(without_color),892516,,,blue,,,,,null,US_Cities_List/leesburg.png,US_Cities_List/racine.png,,,,,,,,,,,,,,,,,,
null,,rt_plussign_withcolor,893019,,,blue,,,,,null,US_Cities_List/leesburg.png,US_Cities_List/racine.png,,,,,,,,,,,,,,,,,,
689.3000000044703,,rt_thecrossant_black,894539,,,black_plus_sign,,,,,49,,,1,0.9537037037037037,,,,,,,,,,,,,,,,
null,,color_black,894644,,,black_plus_sign,,,,,null,,,,,,,,,,,,,,,,,,,,
null,,learn_phase(without_color),897658,,,black_plus_sign,,,,,null,US_Cities_List/shreveport.png,US_Cities_List/hotsprings.png,,,,,,,,,,,,,,,,,,
null,,black_cross(without_color),898495,,,yellow,,,,,null,US_Cities_List/shreveport.png,US_Cities_List/hotsprings.png,,,,,,,,,,,,,,,,,,
361.20000000298023,,rt_plussign_withcolor,898998,,,yellow,,,,,50,US_Cities_List/shreveport.png,US_Cities_List/hotsprings.png,,,,,,,,,,,,,,,,,,
null,,rt_thecrossant_black,900169,,,black_plus_sign,,,,,null,,,1,0.9541284403669725,,,,,,,,,,,,,,,,
null,,color_black,900273,,,black_plus_sign,,,,,null,,,,,,,,,,,,,,,,,,,,
null,,learn_phase(without_color),903290,,,black_plus_sign,,,,,null,US_Cities_List/newhope.png,US_Cities_List/gatlinburg.png,,,,,,,,,,,,,,,,,,
null,,black_cross(without_color),903999,,,blue,,,,,null,US_Cities_List/newhope.png,US_Cities_List/gatlinburg.png,,,,,,,,,,,,,,,,,,
null,,rt_plussign_withcolor,904503,,,blue,,,,,null,US_Cities_List/newhope.png,US_Cities_List/gatlinburg.png,,,,,,,,,,,,,,,,,,
1029.1000000014901,,rt_thecrossant_black,905802,,,black_plus_sign,,,,,49,,,1,0.9545454545454546,,,,,,,,,,,,,,,,
null,,color_black,905906,,,black_plus_sign,,,,,null,,,,,,,,,,,,,,,,,,,,
null,,learn_phase(without_color),908923,,,black_plus_sign,,,,,null,US_Cities_List/hotsprings.png,US_Cities_List/shreveport.png,,,,,,,,,,,,,,,,,,
null,,black_cross(without_color),909758,,,yellow,,,,,null,US_Cities_List/hotsprings.png,US_Cities_List/shreveport.png,,,,,,,,,,,,,,,,,,
null,,rt_plussign_withcolor,910262,,,yellow,,,,,null,US_Cities_List/hotsprings.png,US_Cities_List/shreveport.png,,,,,,,,,,,,,,,,,,
1184.6000000014901,,rt_thecrossant_black,911434,,,black_plus_sign,,,,,50,,,1,0.954954954954955,,,,,,,,,,,,,,,,
null,,color_black,911538,,,black_plus_sign,,,,,null,,,,,,,,,,,,,,,,,,,,
null,,learn_phase(without_color),914551,,,black_plus_sign,,,,,null,US_Cities_List/boulder.png,US_Cities_List/peoria.png,,,,,,,,,,,,,,,,,,
null,,black_cross(without_color),915216,,,blue,,,,,null,US_Cities_List/boulder.png,US_Cities_List/peoria.png,,,,,,,,,,,,,,,,,,
null,,rt_plussign_withcolor,915719,,,blue,,,,,null,US_Cities_List/boulder.png,US_Cities_List/peoria.png,,,,,,,,,,,,,,,,,,
1120.7999999970198,,rt_thecrossant_black,917063,,,black_plus_sign,,,,,49,,,1,0.9553571428571429,,,,,,,,,,,,,,,,
null,,color_black,917167,,,black_plus_sign,,,,,null,,,,,,,,,,,,,,,,,,,,
null,,learn_phase(without_color),920183,,,black_plus_sign,,,,,null,US_Cities_List/peoria.png,US_Cities_List/boulder.png,,,,,,,,,,,,,,,,,,
null,,black_cross(without_color),920858,,,blue,,,,,null,US_Cities_List/peoria.png,US_Cities_List/boulder.png,,,,,,,,,,,,,,,,,,
null,,rt_plussign_withcolor,921362,,,blue,,,,,null,US_Cities_List/peoria.png,US_Cities_List/boulder.png,,,,,,,,,,,,,,,,,,
1085,,rt_thecrossant_black,922694,,,black_plus_sign,,,,,49,,,1,0.9557522123893806,,,,,,,,,,,,,,,,
null,,color_black,922798,,,black_plus_sign,,,,,null,,,,,,,,,,,,,,,,,,,,
null,,learn_phase(without_color),925816,,,black_plus_sign,,,,,null,US_Cities_List/cornwall.png,US_Cities_List/gatlinburg.png,,,,,,,,,,,,,,,,,,
null,,black_cross(without_color),926344,,,yellow,,,,,null,US_Cities_List/cornwall.png,US_Cities_List/gatlinburg.png,,,,,,,,,,,,,,,,,,
null,,rt_plussign_withcolor,926847,,,yellow,,,,,null,US_Cities_List/cornwall.png,US_Cities_List/gatlinburg.png,,,,,,,,,,,,,,,,,,
810.3999999985099,,rt_thecrossant_black,928328,,,black_plus_sign,,,,,50,,,1,0.956140350877193,,,,,,,,,,,,,,,,
null,,color_black,928432,,,black_plus_sign,,,,,null,,,,,,,,,,,,,,,,,,,,
null,,learn_phase(without_color),931446,,,black_plus_sign,,,,,null,US_Cities_List/huntsville.png,US_Cities_List/racine.png,,,,,,,,,,,,,,,,,,
null,,black_cross(without_color),931976,,,yellow,,,,,null,US_Cities_List/huntsville.png,US_Cities_List/racine.png,,,,,,,,,,,,,,,,,,
null,,rt_plussign_withcolor,932480,,,yellow,,,,,null,US_Cities_List/huntsville.png,US_Cities_List/racine.png,,,,,,,,,,,,,,,,,,
899.3999999985099,,rt_thecrossant_black,933958,,,black_plus_sign,,,,,50,,,1,0.9565217391304348,,,,,,,,,,,,,,,,
null,,color_black,934063,,,black_plus_sign,,,,,null,,,,,,,,,,,,,,,,,,,,
null,,learn_phase(without_color),937076,,,black_plus_sign,,,,,null,US_Cities_List/westpalmbeach.png,US_Cities_List/carmel.png,,,,,,,,,,,,,,,,,,
null,,black_cross(without_color),937573,,,yellow,,,,,null,US_Cities_List/westpalmbeach.png,US_Cities_List/carmel.png,,,,,,,,,,,,,,,,,,
431,,rt_plussign_withcolor,938076,,,yellow,,,,,50,US_Cities_List/westpalmbeach.png,US_Cities_List/carmel.png,,,,,,,,,,,,,,,,,,
null,,rt_thecrossant_black,939587,,,black_plus_sign,,,,,null,,,1,0.9568965517241379,,,,,,,,,,,,,,,,
null,,color_black,939691,,,black_plus_sign,,,,,null,,,,,,,,,,,,,,,,,,,,
null,,learn_phase(without_color),942708,,,black_plus_sign,,,,,null,US_Cities_List/racine.png,US_Cities_List/leesburg.png,,,,,,,,,,,,,,,,,,
null,,black_cross(without_color),943396,,,blue,,,,,null,US_Cities_List/racine.png,US_Cities_List/leesburg.png,,,,,,,,,,,,,,,,,,
null,,rt_plussign_withcolor,943899,,,blue,,,,,null,US_Cities_List/racine.png,US_Cities_List/leesburg.png,,,,,,,,,,,,,,,,,,
757.5999999940395,,rt_thecrossant_black,945220,,,black_plus_sign,,,,,49,,,1,0.9572649572649573,,,,,,,,,,,,,,,,
null,,color_black,945325,,,black_plus_sign,,,,,null,,,,,,,,,,,,,,,,,,,,
null,,learn_phase(without_color),948343,,,black_plus_sign,,,,,null,US_Cities_List/newhope.png,US_Cities_List/gatlinburg.png,,,,,,,,,,,,,,,,,,
null,,black_cross(without_color),949370,,,blue,,,,,null,US_Cities_List/newhope.png,US_Cities_List/gatlinburg.png,,,,,,,,,,,,,,,,,,
null,,rt_plussign_withcolor,949874,,,blue,,,,,null,US_Cities_List/newhope.png,US_Cities_List/gatlinburg.png,,,,,,,,,,,,,,,,,,
864.5,,rt_thecrossant_black,950854,,,black_plus_sign,,,,,49,,,1,0.9576271186440678,,,,,,,,,,,,,,,,
null,,color_black,950957,,,black_plus_sign,,,,,null,,,,,,,,,,,,,,,,,,,,
null,,learn_phase(without_color),953973,,,black_plus_sign,,,,,null,US_Cities_List/boulder.png,US_Cities_List/peoria.png,,,,,,,,,,,,,,,,,,
null,,black_cross(without_color),954550,,,blue,,,,,null,US_Cities_List/boulder.png,US_Cities_List/peoria.png,,,,,,,,,,,,,,,,,,
null,,rt_plussign_withcolor,955054,,,blue,,,,,null,US_Cities_List/boulder.png,US_Cities_List/peoria.png,,,,,,,,,,,,,,,,,,
1175,,rt_thecrossant_black,956485,,,black_plus_sign,,,,,49,,,1,0.957983193277311,,,,,,,,,,,,,,,,
null,,color_black,956589,,,black_plus_sign,,,,,null,,,,,,,,,,,,,,,,,,,,
null,,learn_phase(without_color),959604,,,black_plus_sign,,,,,null,US_Cities_List/newhope.png,US_Cities_List/leesburg.png,,,,,,,,,,,,,,,,,,
null,,black_cross(without_color),960215,,,yellow,,,,,null,US_Cities_List/newhope.png,US_Cities_List/leesburg.png,,,,,,,,,,,,,,,,,,
null,,rt_plussign_withcolor,960719,,,yellow,,,,,null,US_Cities_List/newhope.png,US_Cities_List/leesburg.png,,,,,,,,,,,,,,,,,,
725.6999999955297,,rt_thecrossant_black,962117,,,black_plus_sign,,,,,50,,,1,0.9583333333333334,,,,,,,,,,,,,,,,
null,,color_black,962222,,,black_plus_sign,,,,,null,,,,,,,,,,,,,,,,,,,,
null,,learn_phase(without_color),965233,,,black_plus_sign,,,,,null,US_Cities_List/racine.png,US_Cities_List/huntsville.png,,,,,,,,,,,,,,,,,,
null,,black_cross(without_color),966074,,,yellow,,,,,null,US_Cities_List/racine.png,US_Cities_List/huntsville.png,,,,,,,,,,,,,,,,,,
null,,rt_plussign_withcolor,966578,,,yellow,,,,,null,US_Cities_List/racine.png,US_Cities_List/huntsville.png,,,,,,,,,,,,,,,,,,
785.6000000014901,,rt_thecrossant_black,967745,,,black_plus_sign,,,,,50,,,1,0.9586776859504132,,,,,,,,,,,,,,,,
null,,color_black,967850,,,black_plus_sign,,,,,null,,,,,,,,,,,,,,,,,,,,
null,,learn_phase(without_color),970863,,,black_plus_sign,,,,,null,US_Cities_List/carmel.png,US_Cities_List/shreveport.png,,,,,,,,,,,,,,,,,,
null,,black_cross(without_color),971832,,,yellow,,,,,null,US_Cities_List/carmel.png,US_Cities_List/shreveport.png,,,,,,,,,,,,,,,,,,
null,,rt_plussign_withcolor,972336,,,yellow,,,,,null,US_Cities_List/carmel.png,US_Cities_List/shreveport.png,,,,,,,,,,,,,,,,,,
954.0999999940395,,rt_thecrossant_black,973375,,,black_plus_sign,,,,,50,,,1,0.9590163934426229,,,,,,,,,,,,,,,,
null,,color_black,973479,,,black_plus_sign,,,,,null,,,,,,,,,,,,,,,,,,,,
null,,learn_phase(without_color),976496,,,black_plus_sign,,,,,null,US_Cities_List/gatlinburg.png,US_Cities_List/carmel.png,,,,,,,,,,,,,,,,,,
null,,black_cross(without_color),977511,,,blue,,,,,null,US_Cities_List/gatlinburg.png,US_Cities_List/carmel.png,,,,,,,,,,,,,,,,,,
null,,rt_plussign_withcolor,978015,,,blue,,,,,null,US_Cities_List/gatlinburg.png,US_Cities_List/carmel.png,,,,,,,,,,,,,,,,,,
1115.2000000029802,,rt_thecrossant_black,979008,,,black_plus_sign,,,,,49,,,1,0.959349593495935,,,,,,,,,,,,,,,,
null,,color_black,979113,,,black_plus_sign,,,,,null,,,,,,,,,,,,,,,,,,,,
null,,learn_phase(without_color),982127,,,black_plus_sign,,,,,null,US_Cities_List/newhope.png,US_Cities_List/hanover.png,,,,,,,,,,,,,,,,,,
null,,black_cross(without_color),983052,,,yellow,,,,,null,US_Cities_List/newhope.png,US_Cities_List/hanover.png,,,,,,,,,,,,,,,,,,
null,,rt_plussign_withcolor,983555,,,yellow,,,,,null,US_Cities_List/newhope.png,US_Cities_List/hanover.png,,,,,,,,,,,,,,,,,,
1165.8999999985099,,rt_thecrossant_black,984639,,,black_plus_sign,,,,,50,,,1,0.9596774193548387,,,,,,,,,,,,,,,,
null,,color_black,984743,,,black_plus_sign,,,,,null,,,,,,,,,,,,,,,,,,,,
null,,learn_phase(without_color),987763,,,black_plus_sign,,,,,null,US_Cities_List/newhope.png,US_Cities_List/gatlinburg.png,,,,,,,,,,,,,,,,,,
null,,black_cross(without_color),988621,,,yellow,,,,,null,US_Cities_List/newhope.png,US_Cities_List/gatlinburg.png,,,,,,,,,,,,,,,,,,
463,,rt_plussign_withcolor,989125,,,yellow,,,,,50,US_Cities_List/newhope.png,US_Cities_List/gatlinburg.png,,,,,,,,,,,,,,,,,,
null,,rt_thecrossant_black,990276,,,black_plus_sign,,,,,null,,,1,0.96,,,,,,,,,,,,,,,,
null,,color_black,990380,,,black_plus_sign,,,,,null,,,,,,,,,,,,,,,,,,,,
null,,learn_phase(without_color),993396,,,black_plus_sign,,,,,null,US_Cities_List/boulder.png,US_Cities_List/racine.png,,,,,,,,,,,,,,,,,,
null,,black_cross(without_color),994211,,,yellow,,,,,null,US_Cities_List/boulder.png,US_Cities_List/racine.png,,,,,,,,,,,,,,,,,,
354.8999999985099,,rt_plussign_withcolor,994714,,,yellow,,,,,50,US_Cities_List/boulder.png,US_Cities_List/racine.png,,,,,,,,,,,,,,,,,,
null,,rt_thecrossant_black,995908,,,black_plus_sign,,,,,null,,,1,0.9603174603174603,,,,,,,,,,,,,,,,
null,,color_black,996013,,,black_plus_sign,,,,,null,,,,,,,,,,,,,,,,,,,,
null,,learn_phase(without_color),999028,,,black_plus_sign,,,,,null,US_Cities_List/westpalmbeach.png,US_Cities_List/carmel.png,,,,,,,,,,,,,,,,,,
null,,black_cross(without_color),999880,,,blue,,,,,null,US_Cities_List/westpalmbeach.png,US_Cities_List/carmel.png,,,,,,,,,,,,,,,,,,
null,,rt_plussign_withcolor,1000384,,,blue,,,,,null,US_Cities_List/westpalmbeach.png,US_Cities_List/carmel.png,,,,,,,,,,,,,,,,,,
997.2999999970198,,rt_thecrossant_black,1001540,,,black_plus_sign,,,,,49,,,1,0.9606299212598425,,,,,,,,,,,,,,,,
null,,color_black,1001644,,,black_plus_sign,,,,,null,,,,,,,,,,,,,,,,,,,,
null,,learn_phase(without_color),1004661,,,black_plus_sign,,,,,null,US_Cities_List/leesburg.png,US_Cities_List/cornwall.png,,,,,,,,,,,,,,,,,,
null,,black_cross(without_color),1005664,,,blue,,,,,null,US_Cities_List/leesburg.png,US_Cities_List/cornwall.png,,,,,,,,,,,,,,,,,,
null,,rt_plussign_withcolor,1006168,,,blue,,,,,null,US_Cities_List/leesburg.png,US_Cities_List/cornwall.png,,,,,,,,,,,,,,,,,,
972.3000000044703,,rt_thecrossant_black,1007173,,,black_plus_sign,,,,,49,,,1,0.9609375,,,,,,,,,,,,,,,,
null,,color_black,1007277,,,black_plus_sign,,,,,null,,,,,,,,,,,,,,,,,,,,
21859.10000000149,,learn_break,1029140,,,learn_break,,,,,32,,,,,,,,,,,,,,,,,,,,
6559.80000000447,,intro_1,1035702,,,instruct,,,0,,,,,,,,,,,,,,,,,,,,,,
13479.60000000149,,intro_2,1049185,,,instruct,,,1,Next,,,,,,,,,,,,,,,,,,,,,
2208.39999999851,,directmemory_phase,1051416,,,../static/images/US_Cities_List/newhope.png,,,,,51,,,1,1,../static/images/US_Cities_List/hotsprings.png,../static/images/US_Cities_List/racine.png,../static/images/US_Cities_List/gatlinburg.png,../static/images/US_Cities_List/gatlinburg.png,../static/images/US_Cities_List/racine.png,../static/images/US_Cities_List/hotsprings.png,1,,,,,,,,,
null,,html-keyboard-response,1052423,,,<p></p>,,,,,null,,,,,,,,,,,,,,,,,,,,
2071.1999999955297,,directmemory_phase,1054510,,,../static/images/US_Cities_List/carmel.png,,,,,50,,,1,1,../static/images/US_Cities_List/leesburg.png,../static/images/US_Cities_List/westpalmbeach.png,../static/images/US_Cities_List/hanover.png,../static/images/US_Cities_List/westpalmbeach.png,../static/images/US_Cities_List/leesburg.png,../static/images/US_Cities_List/hanover.png,1,,,,,,,,,
null,,html-keyboard-response,1055516,,,<p></p>,,,,,null,,,,,,,,,,,,,,,,,,,,
2385.0999999940395,,directmemory_phase,1057921,,,../static/images/US_Cities_List/cornwall.png,,,,,51,,,1,1,../static/images/US_Cities_List/huntsville.png,../static/images/US_Cities_List/newhope.png,../static/images/US_Cities_List/leesburg.png,../static/images/US_Cities_List/leesburg.png,../static/images/US_Cities_List/newhope.png,../static/images/US_Cities_List/huntsville.png,1,,,,,,,,,
null,,html-keyboard-response,1058927,,,<p></p>,,,,,null,,,,,,,,,,,,,,,,,,,,
2677.10000000149,,directmemory_phase,1061624,,,../static/images/US_Cities_List/shreveport.png,,,,,50,,,0,0.75,../static/images/US_Cities_List/hotsprings.png,../static/images/US_Cities_List/racine.png,../static/images/US_Cities_List/westpalmbeach.png,../static/images/US_Cities_List/hotsprings.png,../static/images/US_Cities_List/westpalmbeach.png,../static/images/US_Cities_List/racine.png,0.5,closer,,,,,,,,
null,,html-keyboard-response,1062628,,,<p></p>,,,,,null,,,,,,,,,,,,,,,,,,,,
1334.1000000014901,,directmemory_phase,1063982,,,../static/images/US_Cities_List/boulder.png,,,,,49,,,0,0.6,../static/images/US_Cities_List/huntsville.png,../static/images/US_Cities_List/hanover.png,../static/images/US_Cities_List/cornwall.png,../static/images/US_Cities_List/hanover.png,../static/images/US_Cities_List/huntsville.png,../static/images/US_Cities_List/cornwall.png,0.5,closer,,,,,,,,
null,,html-keyboard-response,1064987,,,<p></p>,,,,,null,,,,,,,,,,,,,,,,,,,,
3024.39999999851,,directmemory_phase,1068032,,,../static/images/US_Cities_List/racine.png,,,,,49,,,1,0.6666666666666666,../static/images/US_Cities_List/huntsville.png,../static/images/US_Cities_List/westpalmbeach.png,../static/images/US_Cities_List/cornwall.png,../static/images/US_Cities_List/huntsville.png,../static/images/US_Cities_List/cornwall.png,../static/images/US_Cities_List/westpalmbeach.png,1,,,,,,,,,
null,,html-keyboard-response,1069038,,,<p></p>,,,,,null,,,,,,,,,,,,,,,,,,,,
3423.7000000029802,,directmemory_phase,1072481,,,../static/images/US_Cities_List/hotsprings.png,,,,,51,,,0,0.5714285714285714,../static/images/US_Cities_List/gatlinburg.png,../static/images/US_Cities_List/shreveport.png,../static/images/US_Cities_List/hanover.png,../static/images/US_Cities_List/shreveport.png,../static/images/US_Cities_List/gatlinburg.png,../static/images/US_Cities_List/hanover.png,0.5,closer,,,,,,,,
null,,html-keyboard-response,1073485,,,<p></p>,,,,,null,,,,,,,,,,,,,,,,,,,,
1801.5,,directmemory_phase,1075310,,,../static/images/US_Cities_List/cornwall.png,,,,,51,,,1,0.625,../static/images/US_Cities_List/boulder.png,../static/images/US_Cities_List/westpalmbeach.png,../static/images/US_Cities_List/gatlinburg.png,../static/images/US_Cities_List/gatlinburg.png,../static/images/US_Cities_List/westpalmbeach.png,../static/images/US_Cities_List/boulder.png,1,,,,,,,,,
null,,html-keyboard-response,1076316,,,<p></p>,,,,,null,,,,,,,,,,,,,,,,,,,,
6250.89999999851,,directmemory_phase,1082591,,,../static/images/US_Cities_List/racine.png,,,,,49,,,0,0.5555555555555556,../static/images/US_Cities_List/shreveport.png,../static/images/US_Cities_List/newhope.png,../static/images/US_Cities_List/boulder.png,../static/images/US_Cities_List/boulder.png,../static/images/US_Cities_List/newhope.png,../static/images/US_Cities_List/shreveport.png,0.5,closer,,,,,,,,
null,,html-keyboard-response,1083597,,,<p></p>,,,,,null,,,,,,,,,,,,,,,,,,,,
3159.39999999851,,directmemory_phase,1086780,,,../static/images/US_Cities_List/cornwall.png,,,,,50,,,1,0.6,../static/images/US_Cities_List/racine.png,../static/images/US_Cities_List/carmel.png,../static/images/US_Cities_List/hotsprings.png,../static/images/US_Cities_List/carmel.png,../static/images/US_Cities_List/racine.png,../static/images/US_Cities_List/hotsprings.png,1,,,,,,,,,
null,,html-keyboard-response,1087785,,,<p></p>,,,,,null,,,,,,,,,,,,,,,,,,,,
2387.6999999955297,,directmemory_phase,1090194,,,../static/images/US_Cities_List/leesburg.png,,,,,51,,,0,0.5454545454545454,../static/images/US_Cities_List/racine.png,../static/images/US_Cities_List/westpalmbeach.png,../static/images/US_Cities_List/hanover.png,../static/images/US_Cities_List/racine.png,../static/images/US_Cities_List/hanover.png,../static/images/US_Cities_List/westpalmbeach.png,0.5,closer,,,,,,,,
null,,html-keyboard-response,1091200,,,<p></p>,,,,,null,,,,,,,,,,,,,,,,,,,,
2207.7999999970198,,directmemory_phase,1093424,,,../static/images/US_Cities_List/gatlinburg.png,,,,,51,,,1,0.5833333333333334,../static/images/US_Cities_List/huntsville.png,../static/images/US_Cities_List/hotsprings.png,../static/images/US_Cities_List/carmel.png,../static/images/US_Cities_List/carmel.png,../static/images/US_Cities_List/hotsprings.png,../static/images/US_Cities_List/huntsville.png,1,,,,,,,,,
null,,html-keyboard-response,1094429,,,<p></p>,,,,,null,,,,,,,,,,,,,,,,,,,,
3470.2999999970198,,directmemory_phase,1097918,,,../static/images/US_Cities_List/hanover.png,,,,,50,,,0,0.5384615384615384,../static/images/US_Cities_List/westpalmbeach.png,../static/images/US_Cities_List/leesburg.png,../static/images/US_Cities_List/newhope.png,../static/images/US_Cities_List/newhope.png,../static/images/US_Cities_List/leesburg.png,../static/images/US_Cities_List/westpalmbeach.png,0.5,closer,,,,,,,,
null,,html-keyboard-response,1098924,,,<p></p>,,,,,null,,,,,,,,,,,,,,,,,,,,
3674.8000000044703,,directmemory_phase,1102622,,,../static/images/US_Cities_List/carmel.png,,,,,49,,,1,0.5714285714285714,../static/images/US_Cities_List/shreveport.png,../static/images/US_Cities_List/huntsville.png,../static/images/US_Cities_List/leesburg.png,../static/images/US_Cities_List/shreveport.png,../static/images/US_Cities_List/leesburg.png,../static/images/US_Cities_List/huntsville.png,1,,,,,,,,,
null,,html-keyboard-response,1103627,,,<p></p>,,,,,null,,,,,,,,,,,,,,,,,,,,
3859.39999999851,,directmemory_phase,1107510,,,../static/images/US_Cities_List/leesburg.png,,,,,50,,,0,0.5333333333333333,../static/images/US_Cities_List/westpalmbeach.png,../static/images/US_Cities_List/boulder.png,../static/images/US_Cities_List/cornwall.png,../static/images/US_Cities_List/cornwall.png,../static/images/US_Cities_List/boulder.png,../static/images/US_Cities_List/westpalmbeach.png,0.5,closer,,,,,,,,
null,,html-keyboard-response,1108515,,,<p></p>,,,,,null,,,,,,,,,,,,,,,,,,,,
3991.6999999955297,,directmemory_phase,1112525,,,../static/images/US_Cities_List/boulder.png,,,,,50,,,1,0.5625,../static/images/US_Cities_List/huntsville.png,../static/images/US_Cities_List/racine.png,../static/images/US_Cities_List/gatlinburg.png,../static/images/US_Cities_List/racine.png,../static/images/US_Cities_List/huntsville.png,../static/images/US_Cities_List/gatlinburg.png,1,,,,,,,,,
null,,html-keyboard-response,1113531,,,<p></p>,,,,,null,,,,,,,,,,,,,,,,,,,,
1723.3999999985099,,directmemory_phase,1115274,,,../static/images/US_Cities_List/westpalmbeach.png,,,,,51,,,1,0.5882352941176471,../static/images/US_Cities_List/leesburg.png,../static/images/US_Cities_List/gatlinburg.png,../static/images/US_Cities_List/carmel.png,../static/images/US_Cities_List/carmel.png,../static/images/US_Cities_List/gatlinburg.png,../static/images/US_Cities_List/leesburg.png,1,,,,,,,,,
null,,html-keyboard-response,1116279,,,<p></p>,,,,,null,,,,,,,,,,,,,,,,,,,,
1663.7999999970198,,directmemory_phase,1117967,,,../static/images/US_Cities_List/gatlinburg.png,,,,,49,,,1,0.6111111111111112,../static/images/US_Cities_List/cornwall.png,../static/images/US_Cities_List/huntsville.png,../static/images/US_Cities_List/leesburg.png,../static/images/US_Cities_List/cornwall.png,../static/images/US_Cities_List/leesburg.png,../static/images/US_Cities_List/huntsville.png,1,,,,,,,,,
null,,html-keyboard-response,1118972,,,<p></p>,,,,,null,,,,,,,,,,,,,,,,,,,,
1532,,directmemory_phase,1120527,,,../static/images/US_Cities_List/shreveport.png,,,,,50,,,1,0.631578947368421,../static/images/US_Cities_List/westpalmbeach.png,../static/images/US_Cities_List/carmel.png,../static/images/US_Cities_List/boulder.png,../static/images/US_Cities_List/carmel.png,../static/images/US_Cities_List/westpalmbeach.png,../static/images/US_Cities_List/boulder.png,1,,,,,,,,,
null,,html-keyboard-response,1121532,,,<p></p>,,,,,null,,,,,,,,,,,,,,,,,,,,
2835.5999999940395,,directmemory_phase,1124387,,,../static/images/US_Cities_List/huntsville.png,,,,,51,,,1,0.65,../static/images/US_Cities_List/gatlinburg.png,../static/images/US_Cities_List/leesburg.png,../static/images/US_Cities_List/racine.png,../static/images/US_Cities_List/racine.png,../static/images/US_Cities_List/leesburg.png,../static/images/US_Cities_List/gatlinburg.png,1,,,,,,,,,
null,,html-keyboard-response,1125392,,,<p></p>,,,,,null,,,,,,,,,,,,,,,,,,,,
2115.89999999851,,directmemory_phase,1127530,,,../static/images/US_Cities_List/carmel.png,,,,,51,,,1,0.6666666666666666,../static/images/US_Cities_List/hanover.png,../static/images/US_Cities_List/newhope.png,../static/images/US_Cities_List/cornwall.png,../static/images/US_Cities_List/cornwall.png,../static/images/US_Cities_List/newhope.png,../static/images/US_Cities_List/hanover.png,1,,,,,,,,,
null,,html-keyboard-response,1128535,,,<p></p>,,,,,null,,,,,,,,,,,,,,,,,,,,
4429.80000000447,,directmemory_phase,1132983,,,../static/images/US_Cities_List/newhope.png,,,,,49,,,1,0.6818181818181818,../static/images/US_Cities_List/leesburg.png,../static/images/US_Cities_List/westpalmbeach.png,../static/images/US_Cities_List/boulder.png,../static/images/US_Cities_List/leesburg.png,../static/images/US_Cities_List/boulder.png,../static/images/US_Cities_List/westpalmbeach.png,1,,,,,,,,,
null,,html-keyboard-response,1133988,,,<p></p>,,,,,null,,,,,,,,,,,,,,,,,,,,
4112,,directmemory_phase,1138123,,,../static/images/US_Cities_List/shreveport.png,,,,,50,,,1,0.6956521739130435,../static/images/US_Cities_List/cornwall.png,../static/images/US_Cities_List/gatlinburg.png,../static/images/US_Cities_List/racine.png,../static/images/US_Cities_List/gatlinburg.png,../static/images/US_Cities_List/cornwall.png,../static/images/US_Cities_List/racine.png,1,,,,,,,,,
null,,html-keyboard-response,1139127,,,<p></p>,,,,,null,,,,,,,,,,,,,,,,,,,,
3252.8000000044703,,directmemory_phase,1142402,,,../static/images/US_Cities_List/leesburg.png,,,,,51,,,1,0.7083333333333334,../static/images/US_Cities_List/shreveport.png,../static/images/US_Cities_List/gatlinburg.png,../static/images/US_Cities_List/newhope.png,../static/images/US_Cities_List/newhope.png,../static/images/US_Cities_List/gatlinburg.png,../static/images/US_Cities_List/shreveport.png,1,,,,,,,,,
null,,html-keyboard-response,1143408,,,<p></p>,,,,,null,,,,,,,,,,,,,,,,,,,,
3182.89999999851,,directmemory_phase,1146611,,,../static/images/US_Cities_List/gatlinburg.png,,,,,51,,,1,0.72,../static/images/US_Cities_List/huntsville.png,../static/images/US_Cities_List/hotsprings.png,../static/images/US_Cities_List/shreveport.png,../static/images/US_Cities_List/shreveport.png,../static/images/US_Cities_List/hotsprings.png,../static/images/US_Cities_List/huntsville.png,1,,,,,,,,,
null,,html-keyboard-response,1147616,,,<p></p>,,,,,null,,,,,,,,,,,,,,,,,,,,
3008.10000000149,,directmemory_phase,1150648,,,../static/images/US_Cities_List/racine.png,,,,,49,,,1,0.7307692307692307,../static/images/US_Cities_List/leesburg.png,../static/images/US_Cities_List/shreveport.png,../static/images/US_Cities_List/cornwall.png,../static/images/US_Cities_List/leesburg.png,../static/images/US_Cities_List/cornwall.png,../static/images/US_Cities_List/shreveport.png,1,,,,,,,,,
null,,html-keyboard-response,1151654,,,<p></p>,,,,,null,,,,,,,,,,,,,,,,,,,,
3867.2999999970198,,directmemory_phase,1155539,,,../static/images/US_Cities_List/newhope.png,,,,,51,,,1,0.7407407407407407,../static/images/US_Cities_List/westpalmbeach.png,../static/images/US_Cities_List/boulder.png,../static/images/US_Cities_List/hanover.png,../static/images/US_Cities_List/hanover.png,../static/images/US_Cities_List/boulder.png,../static/images/US_Cities_List/westpalmbeach.png,1,,,,,,,,,
null,,html-keyboard-response,1156544,,,<p></p>,,,,,null,,,,,,,,,,,,,,,,,,,,
1737.6000000014901,,directmemory_phase,1158302,,,../static/images/US_Cities_List/boulder.png,,,,,49,,,1,0.75,../static/images/US_Cities_List/peoria.png,../static/images/US_Cities_List/carmel.png,../static/images/US_Cities_List/newhope.png,../static/images/US_Cities_List/peoria.png,../static/images/US_Cities_List/newhope.png,../static/images/US_Cities_List/carmel.png,1,,,,,,,,,
null,,html-keyboard-response,1159309,,,<p></p>,,,,,null,,,,,,,,,,,,,,,,,,,,
2409.2000000029802,,directmemory_phase,1161742,,,../static/images/US_Cities_List/gatlinburg.png,,,,,49,,,1,0.7586206896551724,../static/images/US_Cities_List/newhope.png,../static/images/US_Cities_List/racine.png,../static/images/US_Cities_List/hotsprings.png,../static/images/US_Cities_List/newhope.png,../static/images/US_Cities_List/hotsprings.png,../static/images/US_Cities_List/racine.png,1,,,,,,,,,
null,,html-keyboard-response,1162747,,,<p></p>,,,,,null,,,,,,,,,,,,,,,,,,,,
1452.8999999985099,,directmemory_phase,1164220,,,../static/images/US_Cities_List/peoria.png,,,,,49,,,1,0.7666666666666667,../static/images/US_Cities_List/boulder.png,../static/images/US_Cities_List/leesburg.png,../static/images/US_Cities_List/racine.png,../static/images/US_Cities_List/boulder.png,../static/images/US_Cities_List/racine.png,../static/images/US_Cities_List/leesburg.png,1,,,,,,,,,
null,,html-keyboard-response,1165225,,,<p></p>,,,,,null,,,,,,,,,,,,,,,,,,,,
2153.7000000029802,,directmemory_phase,1167399,,,../static/images/US_Cities_List/carmel.png,,,,,51,,,1,0.7741935483870968,../static/images/US_Cities_List/hanover.png,../static/images/US_Cities_List/newhope.png,../static/images/US_Cities_List/gatlinburg.png,../static/images/US_Cities_List/gatlinburg.png,../static/images/US_Cities_List/newhope.png,../static/images/US_Cities_List/hanover.png,1,,,,,,,,,
null,,html-keyboard-response,1168405,,,<p></p>,,,,,null,,,,,,,,,,,,,,,,,,,,
5382.70000000298,,directmemory_phase,1173807,,,../static/images/US_Cities_List/hanover.png,,,,,49,,,1,0.78125,../static/images/US_Cities_List/boulder.png,../static/images/US_Cities_List/hotsprings.png,../static/images/US_Cities_List/peoria.png,../static/images/US_Cities_List/boulder.png,../static/images/US_Cities_List/peoria.png,../static/images/US_Cities_List/hotsprings.png,1,,,,,,,,,
null,,html-keyboard-response,1174812,,,<p></p>,,,,,null,,,,,,,,,,,,,,,,,,,,
7947.10000000149,,intro_1,1182762,,,instruct,,,0,,,,,,,,,,,,,,,,,,,,,,
5762.5999999940395,,intro_2,1188529,,,instruct,,,1,Next,,,,,,,,,,,,,,,,,,,,,
5463.10000000149,,intro_3,1193996,,,instruct,,,1,Next,,,,,,,,,,,,,,,,,,,,,
9229.70000000298,,intro_4,1203229,,,instruct,,,1,Next,,,,,,,,,,,,,,,,,,,,,
4596.10000000149,,intro_5,1207829,,,instruct,,,1,Next,,,,,,,,,,,,,,,,,,,,,
3245.7000000029802,,intro_6,1211079,,,instruct,,,1,Next,,,,,,,,,,,,,,,,,,,,,
3862.10000000149,,intro_7,1214944,,,instruct,,,1,Next,,,,,,,,,,,,,,,,,,,,,
1698.8000000044703,,intro_8,1216646,,,instruct,,,0,Previous,,,,,,,,,,,,,,,,,,,,,
2612.7000000029802,,intro_7,1219262,,,instruct,,,1,Next,,,,,,,,,,,,,,,,,,,,,
9713.19999999553,,intro_8,1228979,,,instruct,,,1,Next,,,,,,,,,,,,,,,,,,,,,
8179.89999999851,,intro_9,1237162,,,instruct,,,1,Next,,,,,,,,,,,,,,,,,,,,,
8080.19999999553,,intro_10,1245246,,,instruct,,,1,Next,,,,,,,,,,,,,,,,,,,,,
6397.30000000447,,intro_11,1251648,,,instruct,,,1,Next,,,,,,,,,,,,,,,,,,,,,
2499.2999999970198,,shortestpath_phase,1254163,,,../static/images/US_Cities_List/boulder.png,,,,,49,../static/images/US_Cities_List/newhope.png,../static/images/US_Cities_List/hotsprings.png,1,1,,,,../static/images/US_Cities_List/newhope.png,,,,,Three Edge Diff,Three Edge Six Edge,,,,,,
null,,html-keyboard-response,1255169,,,<p></p>,,,,,null,,,,,,,,,,,,,,,,,,,,
2757,,shortestpath_phase,1257941,,,../static/images/US_Cities_List/carmel.png,,,,,49,../static/images/US_Cities_List/hotsprings.png,../static/images/US_Cities_List/peoria.png,1,1,,,,../static/images/US_Cities_List/hotsprings.png,,,,,Three Edge Diff,Two Edge Five Edge,,,,,,
null,,html-keyboard-response,1258946,,,<p></p>,,,,,null,,,,,,,,,,,,,,,,,,,,
1729.2999999970198,,shortestpath_phase,1260693,,,../static/images/US_Cities_List/cornwall.png,,,,,50,../static/images/US_Cities_List/peoria.png,../static/images/US_Cities_List/shreveport.png,1,1,,,,../static/images/US_Cities_List/shreveport.png,,,,,Two Edge Diff,Two Edge Four Edge,,,,,,
null,,html-keyboard-response,1261699,,,<p></p>,,,,,null,,,,,,,,,,,,,,,,,,,,
3521,,shortestpath_phase,1265232,,,../static/images/US_Cities_List/boulder.png,,,,,49,../static/images/US_Cities_List/shreveport.png,../static/images/US_Cities_List/huntsville.png,0,0.75,,,,../static/images/US_Cities_List/huntsville.png,,,,,Two Edge Diff,Two Edge Four Edge,,,,,,
null,,html-keyboard-response,1266238,,,<p></p>,,,,,null,,,,,,,,,,,,,,,,,,,,
2285.2000000029802,,shortestpath_phase,1268540,,,../static/images/US_Cities_List/westpalmbeach.png,,,,,50,../static/images/US_Cities_List/boulder.png,../static/images/US_Cities_List/cornwall.png,1,0.8,,,,../static/images/US_Cities_List/cornwall.png,,,,,Three Edge Diff,Two Edge Five Edge,,,,,,
null,,html-keyboard-response,1269545,,,<p></p>,,,,,null,,,,,,,,,,,,,,,,,,,,
2993.60000000149,,shortestpath_phase,1272554,,,../static/images/US_Cities_List/hanover.png,,,,,49,../static/images/US_Cities_List/westpalmbeach.png,../static/images/US_Cities_List/shreveport.png,0,0.6666666666666666,,,,../static/images/US_Cities_List/shreveport.png,,,,,One Edge Diff,Three Edge Four Edge,,,,,,
null,,html-keyboard-response,1273560,,,<p></p>,,,,,null,,,,,,,,,,,,,,,,,,,,
2592.89999999851,,shortestpath_phase,1276166,,,../static/images/US_Cities_List/huntsville.png,,,,,50,../static/images/US_Cities_List/leesburg.png,../static/images/US_Cities_List/peoria.png,0,0.5714285714285714,,,,../static/images/US_Cities_List/leesburg.png,,,,,One Edge Diff,Two Edge Three Edge,,,,,,
null,,html-keyboard-response,1277172,,,<p></p>,,,,,null,,,,,,,,,,,,,,,,,,,,
1845.1000000014901,,shortestpath_phase,1279034,,,../static/images/US_Cities_List/shreveport.png,,,,,50,../static/images/US_Cities_List/huntsville.png,../static/images/US_Cities_List/cornwall.png,1,0.625,,,,../static/images/US_Cities_List/cornwall.png,,,,,Three Edge Diff,Three Edge Six Edge,,,,,,
null,,html-keyboard-response,1280039,,,<p></p>,,,,,null,,,,,,,,,,,,,,,,,,,,
5080.5,,shortestpath_phase,1285140,,,../static/images/US_Cities_List/peoria.png,,,,,49,../static/images/US_Cities_List/racine.png,../static/images/US_Cities_List/hotsprings.png,1,0.6666666666666666,,,,../static/images/US_Cities_List/racine.png,,,,,Four Edge Diff,Two Edge Six Edge,,,,,,
null,,html-keyboard-response,1286145,,,<p></p>,,,,,null,,,,,,,,,,,,,,,,,,,,
3829.10000000149,,shortestpath_phase,1289995,,,../static/images/US_Cities_List/hotsprings.png,,,,,50,../static/images/US_Cities_List/peoria.png,../static/images/US_Cities_List/hanover.png,1,0.7,,,,../static/images/US_Cities_List/hanover.png,,,,,Two Edge Diff,Four Edge Six Edge,,,,,,
