rt,responses,trial_type,time_elapsed,image_type,sequence,stimulus,cities,city_images,button_pressed,response,key_press,stimulus_left,stimulus_right,accuracy,cumulative_accuracy,stimulus_down_left,stimulus_down_mid,stimulus_down_right,stimulus_correct,stimulus_short,stimulus_far,weighted_accuracy,missedtrial,condition,specific_pairs,imgL_ID,imgR_ID,linedress,linedressed,detour_trial,linedressed_detor
5360.800000000745,{worker_id:62a74fec726aac54b9e43d75},id_enter,5362,fictional,interleaved,flights,Hollendale; Hawthorne Bluffs; North Arroya; Baymarsh; Sunmere; New Verdan; Delaro Park; Riverlyn; Cedarwyn; Juniper Creek; Claywater; Granton Ridge; Orchard Bend,US_Cities_List/carmel.png; US_Cities_List/shreveport.png; US_Cities_List/newhope.png; US_Cities_List/leesburg.png; US_Cities_List/hotsprings.png; US_Cities_List/racine.png; US_Cities_List/cornwall.png; US_Cities_List/westpalmbeach.png; US_Cities_List/huntsville.png; US_Cities_List/gatlinburg.png; US_Cities_List/boulder.png; US_Cities_List/hanover.png; US_Cities_List/peoria.png,,,,,,,,,,,,,,,,,,,,,,,
34445.199999999255,,fullscreen,39811,,,make_fullscreen,,,0,,,,,,,,,,,,,,,,,,,,,,
33579.800000000745,,intro_1,73391,,,instruct,,,0,,,,,,,,,,,,,,,,,,,,,,
17271,,intro_2,90663,,,instruct,,,1,Next,,,,,,,,,,,,,,,,,,,,,
22629,,intro_3,113294,,,instruct,,,1,Next,,,,,,,,,,,,,,,,,,,,,
20798.900000002235,,intro_4,134093,,,instruct,,,1,Next,,,,,,,,,,,,,,,,,,,,,
16319.10000000149,,intro_5,150413,,,instruct,,,1,Next,,,,,,,,,,,,,,,,,,,,,
34287.89999999851,,intro_6,184702,,,instruct,,,1,Next,,,,,,,,,,,,,,,,,,,,,
12707,,intro_7,197410,,,instruct,,,1,Next,,,,,,,,,,,,,,,,,,,,,
null,,learn_prac_1,200412,,,lean_prac_1,,,,,null,,,,,,,,,,,,,,,,,,,,
null,,html-keyboard-response,201414,,,<p></p>,,,,,null,,,,,,,,,,,,,,,,,,,,
8310.599999997765,,intro_1,209725,,,instruct,,,0,,,,,,,,,,,,,,,,,,,,,,
17660.199999999255,,intro_2,227386,,,instruct,,,1,Next,,,,,,,,,,,,,,,,,,,,,
null,,learn_prac_2,230387,,,lean_prac_2,,,,,null,,,,,,,,,,,,,,,,,,,,
null,,html-keyboard-response,231388,,,<p></p>,,,,,null,,,,,,,,,,,,,,,,,,,,
8479.89999999851,,intro_1,239869,,,instruct,,,0,,,,,,,,,,,,,,,,,,,,,,
31077.300000000745,,intro_2,270947,,,instruct,,,1,Next,,,,,,,,,,,,,,,,,,,,,
49103,,intro_3,320051,,,instruct,,,1,Next,,,,,,,,,,,,,,,,,,,,,
null,,prac_atten_color_black,320946,,,black_plus_sign,,,,,null,,,,,,,,,,,,,,,,,,,,
null,,prac_atten_color,321453,,,prac_stop_color,,,,,null,,,,,,,,,,,,,,,,,,,,
312,,prac_atten_color_black,323454,,,black_plus_sign,,,,,49,,,,,,,,,,,,,,,,,,,,
null,,prac_atten_color_black,324349,,,black_plus_sign,,,,,null,,,,,,,,,,,,,,,,,,,,
463.0999999977648,,prac_atten_color,325380,,,prac_stop_color,,,,,50,,,,,,,,,,,,,,,,,,,,
null,,prac_atten_color_black,327381,,,black_plus_sign,,,,,null,,,,,,,,,,,,,,,,,,,,
null,,prac_atten_color_black,327754,,,black_plus_sign,,,,,null,,,,,,,,,,,,,,,,,,,,
586.6999999992549,,prac_atten_color,328707,,,prac_stop_color,,,,,50,,,,,,,,,,,,,,,,,,,,
null,,prac_atten_color_black,330708,,,black_plus_sign,,,,,null,,,,,,,,,,,,,,,,,,,,
null,,prac_atten_color_black,331157,,,black_plus_sign,,,,,null,,,,,,,,,,,,,,,,,,,,
511.30000000074506,,prac_atten_color,331999,,,prac_stop_color,,,,,49,,,,,,,,,,,,,,,,,,,,
null,,prac_atten_color_black,334000,,,black_plus_sign,,,,,null,,,,,,,,,,,,,,,,,,,,
null,,prac_atten_color_black,334562,,,black_plus_sign,,,,,null,,,,,,,,,,,,,,,,,,,,
null,,prac_atten_color,335005,,,prac_stop_color,,,,,null,,,,,,,,,,,,,,,,,,,,
87.59999999776483,,prac_atten_color_black,337006,,,black_plus_sign,,,,,50,,,,,,,,,,,,,,,,,,,,
null,,prac_atten_color_black,337966,,,black_plus_sign,,,,,null,,,,,,,,,,,,,,,,,,,,
574.6000000014901,,prac_atten_color,339044,,,prac_stop_color,,,,,50,,,,,,,,,,,,,,,,,,,,
null,,prac_atten_color_black,341045,,,black_plus_sign,,,,,null,,,,,,,,,,,,,,,,,,,,
null,,prac_atten_color_black,341370,,,black_plus_sign,,,,,null,,,,,,,,,,,,,,,,,,,,
498.3999999985099,,prac_atten_color,341981,,,prac_stop_color,,,,,49,,,,,,,,,,,,,,,,,,,,
null,,prac_atten_color_black,343982,,,black_plus_sign,,,,,null,,,,,,,,,,,,,,,,,,,,
null,,prac_atten_color_black,344773,,,black_plus_sign,,,,,null,,,,,,,,,,,,,,,,,,,,
431.4000000022352,,prac_atten_color,345645,,,prac_stop_color,,,,,50,,,,,,,,,,,,,,,,,,,,
null,,prac_atten_color_black,347647,,,black_plus_sign,,,,,null,,,,,,,,,,,,,,,,,,,,
null,,prac_atten_color_black,348178,,,black_plus_sign,,,,,null,,,,,,,,,,,,,,,,,,,,
618.4000000022352,,prac_atten_color,349008,,,prac_stop_color,,,,,49,,,,,,,,,,,,,,,,,,,,
null,,prac_atten_color_black,351009,,,black_plus_sign,,,,,null,,,,,,,,,,,,,,,,,,,,
null,,prac_atten_color_black,351582,,,black_plus_sign,,,,,null,,,,,,,,,,,,,,,,,,,,
null,,prac_atten_color,352080,,,prac_stop_color,,,,,null,,,,,,,,,,,,,,,,,,,,
164.60000000149012,,prac_atten_color_black,354081,,,black_plus_sign,,,,,49,,,,,,,,,,,,,,,,,,,,
9839.400000002235,,attentioncheck_feedback,363921,,,cross_check_feedback,,,0,,,,,,,,,,,,,,,,,,,,,,
19995.800000000745,,last_instruct,383917,,,instruct,,,,,32,,,,,,,,,,,,,,,,,,,,
null,,learn_phase(without_color),386925,,,black_plus_sign,,,,,null,US_Cities_List/huntsville.png,US_Cities_List/cornwall.png,,,,,,,,,,,,,,,,,,
null,,black_cross(without_color),387433,,,blue,,,,,null,US_Cities_List/huntsville.png,US_Cities_List/cornwall.png,,,,,,,,,,,,,,,,,,
null,,rt_plussign_withcolor,387934,,,blue,,,,,null,US_Cities_List/huntsville.png,US_Cities_List/cornwall.png,,,,,,,,,,,,,,,,,,
1608.4000000022352,,rt_thecrossant_black,389429,,,black_plus_sign,,,,,49,,,1,1,,,,,,,,,,,,,,,,
null,,color_black,389530,,,black_plus_sign,,,,,null,,,,,,,,,,,,,,,,,,,,
null,,learn_phase(without_color),392538,,,black_plus_sign,,,,,null,US_Cities_List/racine.png,US_Cities_List/newhope.png,,,,,,,,,,,,,,,,,,
null,,black_cross(without_color),393074,,,yellow,,,,,null,US_Cities_List/racine.png,US_Cities_List/newhope.png,,,,,,,,,,,,,,,,,,
null,,rt_plussign_withcolor,393575,,,yellow,,,,,null,US_Cities_List/racine.png,US_Cities_List/newhope.png,,,,,,,,,,,,,,,,,,
1556.9000000022352,,rt_thecrossant_black,395042,,,black_plus_sign,,,,,50,,,1,1,,,,,,,,,,,,,,,,
null,,color_black,395144,,,black_plus_sign,,,,,null,,,,,,,,,,,,,,,,,,,,
null,,learn_phase(without_color),398151,,,black_plus_sign,,,,,null,US_Cities_List/leesburg.png,US_Cities_List/shreveport.png,,,,,,,,,,,,,,,,,,
null,,black_cross(without_color),398729,,,yellow,,,,,null,US_Cities_List/leesburg.png,US_Cities_List/shreveport.png,,,,,,,,,,,,,,,,,,
null,,rt_plussign_withcolor,399230,,,yellow,,,,,null,US_Cities_List/leesburg.png,US_Cities_List/shreveport.png,,,,,,,,,,,,,,,,,,
1416.3999999985099,,rt_thecrossant_black,400654,,,black_plus_sign,,,,,50,,,1,1,,,,,,,,,,,,,,,,
null,,color_black,400755,,,black_plus_sign,,,,,null,,,,,,,,,,,,,,,,,,,,
null,,learn_phase(without_color),403760,,,black_plus_sign,,,,,null,US_Cities_List/boulder.png,US_Cities_List/huntsville.png,,,,,,,,,,,,,,,,,,
null,,black_cross(without_color),404427,,,yellow,,,,,null,US_Cities_List/boulder.png,US_Cities_List/huntsville.png,,,,,,,,,,,,,,,,,,
497.80000000074506,,rt_plussign_withcolor,404928,,,yellow,,,,,50,US_Cities_List/boulder.png,US_Cities_List/huntsville.png,,,,,,,,,,,,,,,,,,
null,,rt_thecrossant_black,406264,,,black_plus_sign,,,,,null,,,1,1,,,,,,,,,,,,,,,,
null,,color_black,406366,,,black_plus_sign,,,,,null,,,,,,,,,,,,,,,,,,,,
null,,learn_phase(without_color),409375,,,black_plus_sign,,,,,null,US_Cities_List/leesburg.png,US_Cities_List/shreveport.png,,,,,,,,,,,,,,,,,,
null,,black_cross(without_color),410333,,,blue,,,,,null,US_Cities_List/leesburg.png,US_Cities_List/shreveport.png,,,,,,,,,,,,,,,,,,
null,,rt_plussign_withcolor,410834,,,blue,,,,,null,US_Cities_List/leesburg.png,US_Cities_List/shreveport.png,,,,,,,,,,,,,,,,,,
959,,rt_thecrossant_black,411879,,,black_plus_sign,,,,,49,,,1,1,,,,,,,,,,,,,,,,
null,,color_black,411980,,,black_plus_sign,,,,,null,,,,,,,,,,,,,,,,,,,,
null,,learn_phase(without_color),414987,,,black_plus_sign,,,,,null,US_Cities_List/boulder.png,US_Cities_List/hanover.png,,,,,,,,,,,,,,,,,,
null,,black_cross(without_color),415983,,,yellow,,,,,null,US_Cities_List/boulder.png,US_Cities_List/hanover.png,,,,,,,,,,,,,,,,,,
null,,rt_plussign_withcolor,416485,,,yellow,,,,,null,US_Cities_List/boulder.png,US_Cities_List/hanover.png,,,,,,,,,,,,,,,,,,
1192.1000000014901,,rt_thecrossant_black,417492,,,black_plus_sign,,,,,50,,,1,1,,,,,,,,,,,,,,,,
null,,color_black,417593,,,black_plus_sign,,,,,null,,,,,,,,,,,,,,,,,,,,
null,,learn_phase(without_color),420601,,,black_plus_sign,,,,,null,US_Cities_List/cornwall.png,US_Cities_List/huntsville.png,,,,,,,,,,,,,,,,,,
null,,black_cross(without_color),421223,,,yellow,,,,,null,US_Cities_List/cornwall.png,US_Cities_List/huntsville.png,,,,,,,,,,,,,,,,,,
null,,rt_plussign_withcolor,421724,,,yellow,,,,,null,US_Cities_List/cornwall.png,US_Cities_List/huntsville.png,,,,,,,,,,,,,,,,,,
1207.300000000745,,rt_thecrossant_black,423106,,,black_plus_sign,,,,,50,,,1,1,,,,,,,,,,,,,,,,
null,,color_black,423207,,,black_plus_sign,,,,,null,,,,,,,,,,,,,,,,,,,,
null,,learn_phase(without_color),426216,,,black_plus_sign,,,,,null,US_Cities_List/newhope.png,US_Cities_List/boulder.png,,,,,,,,,,,,,,,,,,
null,,black_cross(without_color),426858,,,blue,,,,,null,US_Cities_List/newhope.png,US_Cities_List/boulder.png,,,,,,,,,,,,,,,,,,
null,,rt_plussign_withcolor,427359,,,blue,,,,,null,US_Cities_List/newhope.png,US_Cities_List/boulder.png,,,,,,,,,,,,,,,,,,
828.8999999985099,,rt_thecrossant_black,428721,,,black_plus_sign,,,,,49,,,1,1,,,,,,,,,,,,,,,,
null,,color_black,428823,,,black_plus_sign,,,,,null,,,,,,,,,,,,,,,,,,,,
null,,learn_phase(without_color),431832,,,black_plus_sign,,,,,null,US_Cities_List/huntsville.png,US_Cities_List/racine.png,,,,,,,,,,,,,,,,,,
null,,black_cross(without_color),432519,,,yellow,,,,,null,US_Cities_List/huntsville.png,US_Cities_List/racine.png,,,,,,,,,,,,,,,,,,
null,,rt_plussign_withcolor,433021,,,yellow,,,,,null,US_Cities_List/huntsville.png,US_Cities_List/racine.png,,,,,,,,,,,,,,,,,,
1066.800000000745,,rt_thecrossant_black,434337,,,black_plus_sign,,,,,50,,,1,1,,,,,,,,,,,,,,,,
null,,color_black,434438,,,black_plus_sign,,,,,null,,,,,,,,,,,,,,,,,,,,
null,,learn_phase(without_color),437449,,,black_plus_sign,,,,,null,US_Cities_List/newhope.png,US_Cities_List/racine.png,,,,,,,,,,,,,,,,,,
null,,black_cross(without_color),438406,,,blue,,,,,null,US_Cities_List/newhope.png,US_Cities_List/racine.png,,,,,,,,,,,,,,,,,,
null,,rt_plussign_withcolor,438907,,,blue,,,,,null,US_Cities_List/newhope.png,US_Cities_List/racine.png,,,,,,,,,,,,,,,,,,
1323.699999999255,,rt_thecrossant_black,439960,,,black_plus_sign,,,,,49,,,1,1,,,,,,,,,,,,,,,,
null,,color_black,440061,,,black_plus_sign,,,,,null,,,,,,,,,,,,,,,,,,,,
null,,learn_phase(without_color),443075,,,black_plus_sign,,,,,null,US_Cities_List/cornwall.png,US_Cities_List/peoria.png,,,,,,,,,,,,,,,,,,
null,,black_cross(without_color),444074,,,blue,,,,,null,US_Cities_List/cornwall.png,US_Cities_List/peoria.png,,,,,,,,,,,,,,,,,,
null,,rt_plussign_withcolor,444575,,,blue,,,,,null,US_Cities_List/cornwall.png,US_Cities_List/peoria.png,,,,,,,,,,,,,,,,,,
1092.800000000745,,rt_thecrossant_black,445579,,,black_plus_sign,,,,,49,,,1,1,,,,,,,,,,,,,,,,
null,,color_black,445680,,,black_plus_sign,,,,,null,,,,,,,,,,,,,,,,,,,,
null,,learn_phase(without_color),448689,,,black_plus_sign,,,,,null,US_Cities_List/leesburg.png,US_Cities_List/hanover.png,,,,,,,,,,,,,,,,,,
null,,black_cross(without_color),449643,,,yellow,,,,,null,US_Cities_List/leesburg.png,US_Cities_List/hanover.png,,,,,,,,,,,,,,,,,,
null,,rt_plussign_withcolor,450145,,,yellow,,,,,null,US_Cities_List/leesburg.png,US_Cities_List/hanover.png,,,,,,,,,,,,,,,,,,
1229.3999999985099,,rt_thecrossant_black,451193,,,black_plus_sign,,,,,50,,,1,1,,,,,,,,,,,,,,,,
null,,color_black,451294,,,black_plus_sign,,,,,null,,,,,,,,,,,,,,,,,,,,
null,,learn_phase(without_color),454301,,,black_plus_sign,,,,,null,US_Cities_List/carmel.png,US_Cities_List/shreveport.png,,,,,,,,,,,,,,,,,,
null,,black_cross(without_color),454798,,,yellow,,,,,null,US_Cities_List/carmel.png,US_Cities_List/shreveport.png,,,,,,,,,,,,,,,,,,
null,,rt_plussign_withcolor,455299,,,yellow,,,,,null,US_Cities_List/carmel.png,US_Cities_List/shreveport.png,,,,,,,,,,,,,,,,,,
1613.7000000029802,,rt_thecrossant_black,456807,,,black_plus_sign,,,,,50,,,1,1,,,,,,,,,,,,,,,,
null,,color_black,456909,,,black_plus_sign,,,,,null,,,,,,,,,,,,,,,,,,,,
null,,learn_phase(without_color),459919,,,black_plus_sign,,,,,null,US_Cities_List/peoria.png,US_Cities_List/cornwall.png,,,,,,,,,,,,,,,,,,
null,,black_cross(without_color),460360,,,yellow,,,,,null,US_Cities_List/peoria.png,US_Cities_List/cornwall.png,,,,,,,,,,,,,,,,,,
null,,rt_plussign_withcolor,460861,,,yellow,,,,,null,US_Cities_List/peoria.png,US_Cities_List/cornwall.png,,,,,,,,,,,,,,,,,,
939.5,,rt_thecrossant_black,462422,,,black_plus_sign,,,,,50,,,1,1,,,,,,,,,,,,,,,,
null,,color_black,462524,,,black_plus_sign,,,,,null,,,,,,,,,,,,,,,,,,,,
null,,learn_phase(without_color),465535,,,black_plus_sign,,,,,null,US_Cities_List/cornwall.png,US_Cities_List/huntsville.png,,,,,,,,,,,,,,,,,,
null,,black_cross(without_color),466131,,,yellow,,,,,null,US_Cities_List/cornwall.png,US_Cities_List/huntsville.png,,,,,,,,,,,,,,,,,,
null,,rt_plussign_withcolor,466632,,,yellow,,,,,null,US_Cities_List/cornwall.png,US_Cities_List/huntsville.png,,,,,,,,,,,,,,,,,,
543.6000000014901,,rt_thecrossant_black,468039,,,black_plus_sign,,,,,50,,,1,1,,,,,,,,,,,,,,,,
null,,color_black,468141,,,black_plus_sign,,,,,null,,,,,,,,,,,,,,,,,,,,
null,,learn_phase(without_color),471154,,,black_plus_sign,,,,,null,US_Cities_List/racine.png,US_Cities_List/cornwall.png,,,,,,,,,,,,,,,,,,
null,,black_cross(without_color),471777,,,blue,,,,,null,US_Cities_List/racine.png,US_Cities_List/cornwall.png,,,,,,,,,,,,,,,,,,
null,,rt_plussign_withcolor,472278,,,blue,,,,,null,US_Cities_List/racine.png,US_Cities_List/cornwall.png,,,,,,,,,,,,,,,,,,
925.1999999992549,,rt_thecrossant_black,473658,,,black_plus_sign,,,,,49,,,1,1,,,,,,,,,,,,,,,,
null,,color_black,473759,,,black_plus_sign,,,,,null,,,,,,,,,,,,,,,,,,,,
null,,learn_phase(without_color),476773,,,black_plus_sign,,,,,null,US_Cities_List/cornwall.png,US_Cities_List/racine.png,,,,,,,,,,,,,,,,,,
null,,black_cross(without_color),477849,,,blue,,,,,null,US_Cities_List/cornwall.png,US_Cities_List/racine.png,,,,,,,,,,,,,,,,,,
null,,rt_plussign_withcolor,478350,,,blue,,,,,null,US_Cities_List/cornwall.png,US_Cities_List/racine.png,,,,,,,,,,,,,,,,,,
823.8000000007451,,rt_thecrossant_black,479276,,,black_plus_sign,,,,,49,,,1,1,,,,,,,,,,,,,,,,
null,,color_black,479378,,,black_plus_sign,,,,,null,,,,,,,,,,,,,,,,,,,,
null,,learn_phase(without_color),482386,,,black_plus_sign,,,,,null,US_Cities_List/huntsville.png,US_Cities_List/racine.png,,,,,,,,,,,,,,,,,,
null,,black_cross(without_color),482787,,,blue,,,,,null,US_Cities_List/huntsville.png,US_Cities_List/racine.png,,,,,,,,,,,,,,,,,,
null,,rt_plussign_withcolor,483288,,,blue,,,,,null,US_Cities_List/huntsville.png,US_Cities_List/racine.png,,,,,,,,,,,,,,,,,,
1331.2000000029802,,rt_thecrossant_black,484890,,,black_plus_sign,,,,,49,,,1,1,,,,,,,,,,,,,,,,
null,,color_black,484992,,,black_plus_sign,,,,,null,,,,,,,,,,,,,,,,,,,,
null,,learn_phase(without_color),488001,,,black_plus_sign,,,,,null,US_Cities_List/newhope.png,US_Cities_List/racine.png,,,,,,,,,,,,,,,,,,
null,,black_cross(without_color),488708,,,yellow,,,,,null,US_Cities_List/newhope.png,US_Cities_List/racine.png,,,,,,,,,,,,,,,,,,
null,,rt_plussign_withcolor,489209,,,yellow,,,,,null,US_Cities_List/newhope.png,US_Cities_List/racine.png,,,,,,,,,,,,,,,,,,
919.1999999992549,,rt_thecrossant_black,490505,,,black_plus_sign,,,,,50,,,1,1,,,,,,,,,,,,,,,,
null,,color_black,490607,,,black_plus_sign,,,,,null,,,,,,,,,,,,,,,,,,,,
null,,learn_phase(without_color),493613,,,black_plus_sign,,,,,null,US_Cities_List/racine.png,US_Cities_List/huntsville.png,,,,,,,,,,,,,,,,,,
null,,black_cross(without_color),494616,,,yellow,,,,,null,US_Cities_List/racine.png,US_Cities_List/huntsville.png,,,,,,,,,,,,,,,,,,
null,,rt_plussign_withcolor,495116,,,yellow,,,,,null,US_Cities_List/racine.png,US_Cities_List/huntsville.png,,,,,,,,,,,,,,,,,,
1037.5,,rt_thecrossant_black,496116,,,black_plus_sign,,,,,50,,,1,1,,,,,,,,,,,,,,,,
null,,color_black,496218,,,black_plus_sign,,,,,null,,,,,,,,,,,,,,,,,,,,
null,,learn_phase(without_color),499226,,,black_plus_sign,,,,,null,US_Cities_List/shreveport.png,US_Cities_List/carmel.png,,,,,,,,,,,,,,,,,,
null,,black_cross(without_color),500158,,,yellow,,,,,null,US_Cities_List/shreveport.png,US_Cities_List/carmel.png,,,,,,,,,,,,,,,,,,
null,,rt_plussign_withcolor,500660,,,yellow,,,,,null,US_Cities_List/shreveport.png,US_Cities_List/carmel.png,,,,,,,,,,,,,,,,,,
1134.2999999970198,,rt_thecrossant_black,501729,,,black_plus_sign,,,,,50,,,1,1,,,,,,,,,,,,,,,,
null,,color_black,501831,,,black_plus_sign,,,,,null,,,,,,,,,,,,,,,,,,,,
null,,learn_phase(without_color),504836,,,black_plus_sign,,,,,null,US_Cities_List/westpalmbeach.png,US_Cities_List/huntsville.png,,,,,,,,,,,,,,,,,,
null,,black_cross(without_color),505601,,,blue,,,,,null,US_Cities_List/westpalmbeach.png,US_Cities_List/huntsville.png,,,,,,,,,,,,,,,,,,
null,,rt_plussign_withcolor,506102,,,blue,,,,,null,US_Cities_List/westpalmbeach.png,US_Cities_List/huntsville.png,,,,,,,,,,,,,,,,,,
1381.300000000745,,rt_thecrossant_black,507340,,,black_plus_sign,,,,,49,,,1,1,,,,,,,,,,,,,,,,
null,,color_black,507442,,,black_plus_sign,,,,,null,,,,,,,,,,,,,,,,,,,,
null,,learn_phase(without_color),510451,,,black_plus_sign,,,,,null,US_Cities_List/racine.png,US_Cities_List/newhope.png,,,,,,,,,,,,,,,,,,
null,,black_cross(without_color),510909,,,yellow,,,,,null,US_Cities_List/racine.png,US_Cities_List/newhope.png,,,,,,,,,,,,,,,,,,
null,,rt_plussign_withcolor,511410,,,yellow,,,,,null,US_Cities_List/racine.png,US_Cities_List/newhope.png,,,,,,,,,,,,,,,,,,
1144.6000000014901,,rt_thecrossant_black,512953,,,black_plus_sign,,,,,50,,,1,1,,,,,,,,,,,,,,,,
null,,color_black,513055,,,black_plus_sign,,,,,null,,,,,,,,,,,,,,,,,,,,
null,,learn_phase(without_color),516065,,,black_plus_sign,,,,,null,US_Cities_List/boulder.png,US_Cities_List/newhope.png,,,,,,,,,,,,,,,,,,
null,,black_cross(without_color),516487,,,yellow,,,,,null,US_Cities_List/boulder.png,US_Cities_List/newhope.png,,,,,,,,,,,,,,,,,,
null,,rt_plussign_withcolor,516988,,,yellow,,,,,null,US_Cities_List/boulder.png,US_Cities_List/newhope.png,,,,,,,,,,,,,,,,,,
606.1000000014901,,rt_thecrossant_black,518569,,,black_plus_sign,,,,,50,,,1,1,,,,,,,,,,,,,,,,
null,,color_black,518671,,,black_plus_sign,,,,,null,,,,,,,,,,,,,,,,,,,,
null,,learn_phase(without_color),521680,,,black_plus_sign,,,,,null,US_Cities_List/shreveport.png,US_Cities_List/carmel.png,,,,,,,,,,,,,,,,,,
null,,black_cross(without_color),522452,,,yellow,,,,,null,US_Cities_List/shreveport.png,US_Cities_List/carmel.png,,,,,,,,,,,,,,,,,,
null,,rt_plussign_withcolor,522953,,,yellow,,,,,null,US_Cities_List/shreveport.png,US_Cities_List/carmel.png,,,,,,,,,,,,,,,,,,
891.1000000014901,,rt_thecrossant_black,524183,,,black_plus_sign,,,,,50,,,1,1,,,,,,,,,,,,,,,,
null,,color_black,524291,,,black_plus_sign,,,,,null,,,,,,,,,,,,,,,,,,,,
null,,learn_phase(without_color),527299,,,black_plus_sign,,,,,null,US_Cities_List/shreveport.png,US_Cities_List/leesburg.png,,,,,,,,,,,,,,,,,,
null,,black_cross(without_color),527718,,,yellow,,,,,null,US_Cities_List/shreveport.png,US_Cities_List/leesburg.png,,,,,,,,,,,,,,,,,,
null,,rt_plussign_withcolor,528220,,,yellow,,,,,null,US_Cities_List/shreveport.png,US_Cities_List/leesburg.png,,,,,,,,,,,,,,,,,,
975.2000000029802,,rt_thecrossant_black,529802,,,black_plus_sign,,,,,50,,,1,1,,,,,,,,,,,,,,,,
null,,color_black,529907,,,black_plus_sign,,,,,null,,,,,,,,,,,,,,,,,,,,
null,,learn_phase(without_color),532916,,,black_plus_sign,,,,,null,US_Cities_List/leesburg.png,US_Cities_List/hotsprings.png,,,,,,,,,,,,,,,,,,
null,,black_cross(without_color),533694,,,yellow,,,,,null,US_Cities_List/leesburg.png,US_Cities_List/hotsprings.png,,,,,,,,,,,,,,,,,,
null,,rt_plussign_withcolor,534195,,,yellow,,,,,null,US_Cities_List/leesburg.png,US_Cities_List/hotsprings.png,,,,,,,,,,,,,,,,,,
535.8999999985099,,rt_thecrossant_black,535421,,,black_plus_sign,,,,,50,,,1,1,,,,,,,,,,,,,,,,
null,,color_black,535522,,,black_plus_sign,,,,,null,,,,,,,,,,,,,,,,,,,,
null,,learn_phase(without_color),538531,,,black_plus_sign,,,,,null,US_Cities_List/leesburg.png,US_Cities_List/hanover.png,,,,,,,,,,,,,,,,,,
null,,black_cross(without_color),539323,,,yellow,,,,,null,US_Cities_List/leesburg.png,US_Cities_List/hanover.png,,,,,,,,,,,,,,,,,,
489,,rt_plussign_withcolor,539824,,,yellow,,,,,50,US_Cities_List/leesburg.png,US_Cities_List/hanover.png,,,,,,,,,,,,,,,,,,
null,,rt_thecrossant_black,541034,,,black_plus_sign,,,,,null,,,1,1,,,,,,,,,,,,,,,,
null,,color_black,541135,,,black_plus_sign,,,,,null,,,,,,,,,,,,,,,,,,,,
null,,learn_phase(without_color),544142,,,black_plus_sign,,,,,null,US_Cities_List/boulder.png,US_Cities_List/huntsville.png,,,,,,,,,,,,,,,,,,
null,,black_cross(without_color),544917,,,blue,,,,,null,US_Cities_List/boulder.png,US_Cities_List/huntsville.png,,,,,,,,,,,,,,,,,,
494.80000000074506,,rt_plussign_withcolor,545419,,,blue,,,,,49,US_Cities_List/boulder.png,US_Cities_List/huntsville.png,,,,,,,,,,,,,,,,,,
null,,rt_thecrossant_black,546647,,,black_plus_sign,,,,,null,,,1,1,,,,,,,,,,,,,,,,
null,,color_black,546748,,,black_plus_sign,,,,,null,,,,,,,,,,,,,,,,,,,,
null,,learn_phase(without_color),549759,,,black_plus_sign,,,,,null,US_Cities_List/cornwall.png,US_Cities_List/westpalmbeach.png,,,,,,,,,,,,,,,,,,
null,,black_cross(without_color),550189,,,yellow,,,,,null,US_Cities_List/cornwall.png,US_Cities_List/westpalmbeach.png,,,,,,,,,,,,,,,,,,
null,,rt_plussign_withcolor,550691,,,yellow,,,,,null,US_Cities_List/cornwall.png,US_Cities_List/westpalmbeach.png,,,,,,,,,,,,,,,,,,
1098.800000000745,,rt_thecrossant_black,552263,,,black_plus_sign,,,,,50,,,1,1,,,,,,,,,,,,,,,,
null,,color_black,552365,,,black_plus_sign,,,,,null,,,,,,,,,,,,,,,,,,,,
null,,learn_phase(without_color),555378,,,black_plus_sign,,,,,null,US_Cities_List/cornwall.png,US_Cities_List/westpalmbeach.png,,,,,,,,,,,,,,,,,,
null,,black_cross(without_color),556102,,,blue,,,,,null,US_Cities_List/cornwall.png,US_Cities_List/westpalmbeach.png,,,,,,,,,,,,,,,,,,
null,,rt_plussign_withcolor,556604,,,blue,,,,,null,US_Cities_List/cornwall.png,US_Cities_List/westpalmbeach.png,,,,,,,,,,,,,,,,,,
825.3999999985099,,rt_thecrossant_black,557882,,,black_plus_sign,,,,,49,,,1,1,,,,,,,,,,,,,,,,
null,,color_black,557983,,,black_plus_sign,,,,,null,,,,,,,,,,,,,,,,,,,,
null,,learn_phase(without_color),560991,,,black_plus_sign,,,,,null,US_Cities_List/leesburg.png,US_Cities_List/hotsprings.png,,,,,,,,,,,,,,,,,,
null,,black_cross(without_color),561467,,,blue,,,,,null,US_Cities_List/leesburg.png,US_Cities_List/hotsprings.png,,,,,,,,,,,,,,,,,,
null,,rt_plussign_withcolor,561968,,,blue,,,,,null,US_Cities_List/leesburg.png,US_Cities_List/hotsprings.png,,,,,,,,,,,,,,,,,,
1115.2999999970198,,rt_thecrossant_black,563495,,,black_plus_sign,,,,,49,,,1,1,,,,,,,,,,,,,,,,
null,,color_black,563596,,,black_plus_sign,,,,,null,,,,,,,,,,,,,,,,,,,,
null,,learn_phase(without_color),566606,,,black_plus_sign,,,,,null,US_Cities_List/gatlinburg.png,US_Cities_List/westpalmbeach.png,,,,,,,,,,,,,,,,,,
null,,black_cross(without_color),567115,,,yellow,,,,,null,US_Cities_List/gatlinburg.png,US_Cities_List/westpalmbeach.png,,,,,,,,,,,,,,,,,,
null,,rt_plussign_withcolor,567616,,,yellow,,,,,null,US_Cities_List/gatlinburg.png,US_Cities_List/westpalmbeach.png,,,,,,,,,,,,,,,,,,
834.5999999977648,,rt_thecrossant_black,569111,,,black_plus_sign,,,,,50,,,1,1,,,,,,,,,,,,,,,,
null,,color_black,569212,,,black_plus_sign,,,,,null,,,,,,,,,,,,,,,,,,,,
null,,learn_phase(without_color),572225,,,black_plus_sign,,,,,null,US_Cities_List/westpalmbeach.png,US_Cities_List/cornwall.png,,,,,,,,,,,,,,,,,,
null,,black_cross(without_color),572683,,,blue,,,,,null,US_Cities_List/westpalmbeach.png,US_Cities_List/cornwall.png,,,,,,,,,,,,,,,,,,
null,,rt_plussign_withcolor,573184,,,blue,,,,,null,US_Cities_List/westpalmbeach.png,US_Cities_List/cornwall.png,,,,,,,,,,,,,,,,,,
795.2999999970198,,rt_thecrossant_black,574728,,,black_plus_sign,,,,,49,,,1,1,,,,,,,,,,,,,,,,
null,,color_black,574829,,,black_plus_sign,,,,,null,,,,,,,,,,,,,,,,,,,,
null,,learn_phase(without_color),577841,,,black_plus_sign,,,,,null,US_Cities_List/peoria.png,US_Cities_List/cornwall.png,,,,,,,,,,,,,,,,,,
null,,black_cross(without_color),578795,,,yellow,,,,,null,US_Cities_List/peoria.png,US_Cities_List/cornwall.png,,,,,,,,,,,,,,,,,,
null,,rt_plussign_withcolor,579296,,,yellow,,,,,null,US_Cities_List/peoria.png,US_Cities_List/cornwall.png,,,,,,,,,,,,,,,,,,
632.7999999970198,,rt_thecrossant_black,580346,,,black_plus_sign,,,,,50,,,1,1,,,,,,,,,,,,,,,,
null,,color_black,580447,,,black_plus_sign,,,,,null,,,,,,,,,,,,,,,,,,,,
null,,learn_phase(without_color),583454,,,black_plus_sign,,,,,null,US_Cities_List/huntsville.png,US_Cities_List/westpalmbeach.png,,,,,,,,,,,,,,,,,,
null,,black_cross(without_color),583867,,,blue,,,,,null,US_Cities_List/huntsville.png,US_Cities_List/westpalmbeach.png,,,,,,,,,,,,,,,,,,
null,,rt_plussign_withcolor,584368,,,blue,,,,,null,US_Cities_List/huntsville.png,US_Cities_List/westpalmbeach.png,,,,,,,,,,,,,,,,,,
1103.9000000022352,,rt_thecrossant_black,585958,,,black_plus_sign,,,,,49,,,1,1,,,,,,,,,,,,,,,,
null,,color_black,586059,,,black_plus_sign,,,,,null,,,,,,,,,,,,,,,,,,,,
null,,learn_phase(without_color),589066,,,black_plus_sign,,,,,null,US_Cities_List/leesburg.png,US_Cities_List/hanover.png,,,,,,,,,,,,,,,,,,
null,,black_cross(without_color),589660,,,blue,,,,,null,US_Cities_List/leesburg.png,US_Cities_List/hanover.png,,,,,,,,,,,,,,,,,,
null,,rt_plussign_withcolor,590161,,,blue,,,,,null,US_Cities_List/leesburg.png,US_Cities_List/hanover.png,,,,,,,,,,,,,,,,,,
514.1000000014901,,rt_thecrossant_black,591570,,,black_plus_sign,,,,,49,,,1,1,,,,,,,,,,,,,,,,
null,,color_black,591671,,,black_plus_sign,,,,,null,,,,,,,,,,,,,,,,,,,,
null,,learn_phase(without_color),594681,,,black_plus_sign,,,,,null,US_Cities_List/leesburg.png,US_Cities_List/hanover.png,,,,,,,,,,,,,,,,,,
null,,black_cross(without_color),595722,,,blue,,,,,null,US_Cities_List/leesburg.png,US_Cities_List/hanover.png,,,,,,,,,,,,,,,,,,
458.0999999977648,,rt_plussign_withcolor,596223,,,blue,,,,,49,US_Cities_List/leesburg.png,US_Cities_List/hanover.png,,,,,,,,,,,,,,,,,,
null,,rt_thecrossant_black,597196,,,black_plus_sign,,,,,null,,,1,1,,,,,,,,,,,,,,,,
null,,color_black,597298,,,black_plus_sign,,,,,null,,,,,,,,,,,,,,,,,,,,
null,,learn_phase(without_color),600306,,,black_plus_sign,,,,,null,US_Cities_List/boulder.png,US_Cities_List/hanover.png,,,,,,,,,,,,,,,,,,
null,,black_cross(without_color),600983,,,blue,,,,,null,US_Cities_List/boulder.png,US_Cities_List/hanover.png,,,,,,,,,,,,,,,,,,
null,,rt_plussign_withcolor,601485,,,blue,,,,,null,US_Cities_List/boulder.png,US_Cities_List/hanover.png,,,,,,,,,,,,,,,,,,
1168.1000000014901,,rt_thecrossant_black,602810,,,black_plus_sign,,,,,49,,,1,1,,,,,,,,,,,,,,,,
null,,color_black,602911,,,black_plus_sign,,,,,null,,,,,,,,,,,,,,,,,,,,
null,,learn_phase(without_color),605920,,,black_plus_sign,,,,,null,US_Cities_List/newhope.png,US_Cities_List/boulder.png,,,,,,,,,,,,,,,,,,
null,,black_cross(without_color),606951,,,yellow,,,,,null,US_Cities_List/newhope.png,US_Cities_List/boulder.png,,,,,,,,,,,,,,,,,,
null,,rt_plussign_withcolor,607453,,,yellow,,,,,null,US_Cities_List/newhope.png,US_Cities_List/boulder.png,,,,,,,,,,,,,,,,,,
1103.199999999255,,rt_thecrossant_black,608423,,,black_plus_sign,,,,,50,,,1,1,,,,,,,,,,,,,,,,
null,,color_black,608535,,,black_plus_sign,,,,,null,,,,,,,,,,,,,,,,,,,,
null,,learn_phase(without_color),611545,,,black_plus_sign,,,,,null,US_Cities_List/racine.png,US_Cities_List/cornwall.png,,,,,,,,,,,,,,,,,,
null,,black_cross(without_color),612097,,,yellow,,,,,null,US_Cities_List/racine.png,US_Cities_List/cornwall.png,,,,,,,,,,,,,,,,,,
null,,rt_plussign_withcolor,612598,,,yellow,,,,,null,US_Cities_List/racine.png,US_Cities_List/cornwall.png,,,,,,,,,,,,,,,,,,
1504,,rt_thecrossant_black,614049,,,black_plus_sign,,,,,50,,,1,1,,,,,,,,,,,,,,,,
null,,color_black,614150,,,black_plus_sign,,,,,null,,,,,,,,,,,,,,,,,,,,
null,,learn_phase(without_color),617158,,,black_plus_sign,,,,,null,US_Cities_List/hanover.png,US_Cities_List/boulder.png,,,,,,,,,,,,,,,,,,
null,,black_cross(without_color),617780,,,yellow,,,,,null,US_Cities_List/hanover.png,US_Cities_List/boulder.png,,,,,,,,,,,,,,,,,,
null,,rt_plussign_withcolor,618291,,,yellow,,,,,null,US_Cities_List/hanover.png,US_Cities_List/boulder.png,,,,,,,,,,,,,,,,,,
1043.5,,rt_thecrossant_black,619673,,,black_plus_sign,,,,,50,,,1,1,,,,,,,,,,,,,,,,
null,,color_black,619775,,,black_plus_sign,,,,,null,,,,,,,,,,,,,,,,,,,,
null,,learn_phase(without_color),622782,,,black_plus_sign,,,,,null,US_Cities_List/carmel.png,US_Cities_List/shreveport.png,,,,,,,,,,,,,,,,,,
null,,black_cross(without_color),623212,,,yellow,,,,,null,US_Cities_List/carmel.png,US_Cities_List/shreveport.png,,,,,,,,,,,,,,,,,,
null,,rt_plussign_withcolor,623713,,,yellow,,,,,null,US_Cities_List/carmel.png,US_Cities_List/shreveport.png,,,,,,,,,,,,,,,,,,
1338.699999999255,,rt_thecrossant_black,625287,,,black_plus_sign,,,,,50,,,1,1,,,,,,,,,,,,,,,,
null,,color_black,625388,,,black_plus_sign,,,,,null,,,,,,,,,,,,,,,,,,,,
null,,learn_phase(without_color),628396,,,black_plus_sign,,,,,null,US_Cities_List/shreveport.png,US_Cities_List/newhope.png,,,,,,,,,,,,,,,,,,
null,,black_cross(without_color),629088,,,yellow,,,,,null,US_Cities_List/shreveport.png,US_Cities_List/newhope.png,,,,,,,,,,,,,,,,,,
null,,rt_plussign_withcolor,629590,,,yellow,,,,,null,US_Cities_List/shreveport.png,US_Cities_List/newhope.png,,,,,,,,,,,,,,,,,,
638.1999999992549,,rt_thecrossant_black,630901,,,black_plus_sign,,,,,50,,,1,1,,,,,,,,,,,,,,,,
null,,color_black,631002,,,black_plus_sign,,,,,null,,,,,,,,,,,,,,,,,,,,
null,,learn_phase(without_color),634010,,,black_plus_sign,,,,,null,US_Cities_List/leesburg.png,US_Cities_List/shreveport.png,,,,,,,,,,,,,,,,,,
null,,black_cross(without_color),635103,,,yellow,,,,,null,US_Cities_List/leesburg.png,US_Cities_List/shreveport.png,,,,,,,,,,,,,,,,,,
null,,rt_plussign_withcolor,635605,,,yellow,,,,,null,US_Cities_List/leesburg.png,US_Cities_List/shreveport.png,,,,,,,,,,,,,,,,,,
804.5,,rt_thecrossant_black,636516,,,black_plus_sign,,,,,50,,,1,1,,,,,,,,,,,,,,,,
null,,color_black,636617,,,black_plus_sign,,,,,null,,,,,,,,,,,,,,,,,,,,
null,,learn_phase(without_color),639625,,,black_plus_sign,,,,,null,US_Cities_List/gatlinburg.png,US_Cities_List/westpalmbeach.png,,,,,,,,,,,,,,,,,,
null,,black_cross(without_color),640508,,,yellow,,,,,null,US_Cities_List/gatlinburg.png,US_Cities_List/westpalmbeach.png,,,,,,,,,,,,,,,,,,
null,,rt_plussign_withcolor,641009,,,yellow,,,,,null,US_Cities_List/gatlinburg.png,US_Cities_List/westpalmbeach.png,,,,,,,,,,,,,,,,,,
1697.5999999977648,,rt_thecrossant_black,642128,,,black_plus_sign,,,,,50,,,1,1,,,,,,,,,,,,,,,,
null,,color_black,642230,,,black_plus_sign,,,,,null,,,,,,,,,,,,,,,,,,,,
null,,learn_phase(without_color),645237,,,black_plus_sign,,,,,null,US_Cities_List/boulder.png,US_Cities_List/hanover.png,,,,,,,,,,,,,,,,,,
null,,black_cross(without_color),645727,,,yellow,,,,,null,US_Cities_List/boulder.png,US_Cities_List/hanover.png,,,,,,,,,,,,,,,,,,
null,,rt_plussign_withcolor,646228,,,yellow,,,,,null,US_Cities_List/boulder.png,US_Cities_List/hanover.png,,,,,,,,,,,,,,,,,,
1278,,rt_thecrossant_black,647740,,,black_plus_sign,,,,,50,,,1,1,,,,,,,,,,,,,,,,
null,,color_black,647842,,,black_plus_sign,,,,,null,,,,,,,,,,,,,,,,,,,,
null,,learn_phase(without_color),650852,,,black_plus_sign,,,,,null,US_Cities_List/boulder.png,US_Cities_List/newhope.png,,,,,,,,,,,,,,,,,,
null,,black_cross(without_color),651415,,,blue,,,,,null,US_Cities_List/boulder.png,US_Cities_List/newhope.png,,,,,,,,,,,,,,,,,,
null,,rt_plussign_withcolor,651917,,,blue,,,,,null,US_Cities_List/boulder.png,US_Cities_List/newhope.png,,,,,,,,,,,,,,,,,,
1052.1000000014901,,rt_thecrossant_black,653356,,,black_plus_sign,,,,,49,,,1,1,,,,,,,,,,,,,,,,
null,,color_black,653457,,,black_plus_sign,,,,,null,,,,,,,,,,,,,,,,,,,,
null,,learn_phase(without_color),656465,,,black_plus_sign,,,,,null,US_Cities_List/cornwall.png,US_Cities_List/huntsville.png,,,,,,,,,,,,,,,,,,
null,,black_cross(without_color),657375,,,blue,,,,,null,US_Cities_List/cornwall.png,US_Cities_List/huntsville.png,,,,,,,,,,,,,,,,,,
null,,rt_plussign_withcolor,657876,,,blue,,,,,null,US_Cities_List/cornwall.png,US_Cities_List/huntsville.png,,,,,,,,,,,,,,,,,,
998.5,,rt_thecrossant_black,658969,,,black_plus_sign,,,,,49,,,1,1,,,,,,,,,,,,,,,,
null,,color_black,659070,,,black_plus_sign,,,,,null,,,,,,,,,,,,,,,,,,,,
null,,learn_phase(without_color),662084,,,black_plus_sign,,,,,null,US_Cities_List/cornwall.png,US_Cities_List/westpalmbeach.png,,,,,,,,,,,,,,,,,,
null,,black_cross(without_color),663155,,,blue,,,,,null,US_Cities_List/cornwall.png,US_Cities_List/westpalmbeach.png,,,,,,,,,,,,,,,,,,
null,,rt_plussign_withcolor,663656,,,blue,,,,,null,US_Cities_List/cornwall.png,US_Cities_List/westpalmbeach.png,,,,,,,,,,,,,,,,,,
1412.4000000022352,,rt_thecrossant_black,664589,,,black_plus_sign,,,,,49,,,1,1,,,,,,,,,,,,,,,,
null,,color_black,664691,,,black_plus_sign,,,,,null,,,,,,,,,,,,,,,,,,,,
null,,learn_phase(without_color),667698,,,black_plus_sign,,,,,null,US_Cities_List/newhope.png,US_Cities_List/shreveport.png,,,,,,,,,,,,,,,,,,
null,,black_cross(without_color),668434,,,yellow,,,,,null,US_Cities_List/newhope.png,US_Cities_List/shreveport.png,,,,,,,,,,,,,,,,,,
null,,rt_plussign_withcolor,668935,,,yellow,,,,,null,US_Cities_List/newhope.png,US_Cities_List/shreveport.png,,,,,,,,,,,,,,,,,,
1261.300000000745,,rt_thecrossant_black,670203,,,black_plus_sign,,,,,50,,,1,1,,,,,,,,,,,,,,,,
null,,color_black,670305,,,black_plus_sign,,,,,null,,,,,,,,,,,,,,,,,,,,
null,,learn_phase(without_color),673315,,,black_plus_sign,,,,,null,US_Cities_List/peoria.png,US_Cities_List/cornwall.png,,,,,,,,,,,,,,,,,,
null,,black_cross(without_color),673767,,,yellow,,,,,null,US_Cities_List/peoria.png,US_Cities_List/cornwall.png,,,,,,,,,,,,,,,,,,
null,,rt_plussign_withcolor,674268,,,yellow,,,,,null,US_Cities_List/peoria.png,US_Cities_List/cornwall.png,,,,,,,,,,,,,,,,,,
1234,,rt_thecrossant_black,675819,,,black_plus_sign,,,,,50,,,1,1,,,,,,,,,,,,,,,,
null,,color_black,675920,,,black_plus_sign,,,,,null,,,,,,,,,,,,,,,,,,,,
null,,learn_phase(without_color),678926,,,black_plus_sign,,,,,null,US_Cities_List/boulder.png,US_Cities_List/huntsville.png,,,,,,,,,,,,,,,,,,
null,,black_cross(without_color),679848,,,yellow,,,,,null,US_Cities_List/boulder.png,US_Cities_List/huntsville.png,,,,,,,,,,,,,,,,,,
499.80000000074506,,rt_plussign_withcolor,680349,,,yellow,,,,,50,US_Cities_List/boulder.png,US_Cities_List/huntsville.png,,,,,,,,,,,,,,,,,,
null,,rt_thecrossant_black,681429,,,black_plus_sign,,,,,null,,,1,1,,,,,,,,,,,,,,,,
null,,color_black,681530,,,black_plus_sign,,,,,null,,,,,,,,,,,,,,,,,,,,
null,,learn_phase(without_color),684542,,,black_plus_sign,,,,,null,US_Cities_List/racine.png,US_Cities_List/cornwall.png,,,,,,,,,,,,,,,,,,
null,,black_cross(without_color),685295,,,blue,,,,,null,US_Cities_List/racine.png,US_Cities_List/cornwall.png,,,,,,,,,,,,,,,,,,
null,,rt_plussign_withcolor,685796,,,blue,,,,,null,US_Cities_List/racine.png,US_Cities_List/cornwall.png,,,,,,,,,,,,,,,,,,
1092.699999999255,,rt_thecrossant_black,687047,,,black_plus_sign,,,,,49,,,1,1,,,,,,,,,,,,,,,,
null,,color_black,687148,,,black_plus_sign,,,,,null,,,,,,,,,,,,,,,,,,,,
null,,learn_phase(without_color),690158,,,black_plus_sign,,,,,null,US_Cities_List/newhope.png,US_Cities_List/racine.png,,,,,,,,,,,,,,,,,,
null,,black_cross(without_color),691067,,,yellow,,,,,null,US_Cities_List/newhope.png,US_Cities_List/racine.png,,,,,,,,,,,,,,,,,,
null,,rt_plussign_withcolor,691568,,,yellow,,,,,null,US_Cities_List/newhope.png,US_Cities_List/racine.png,,,,,,,,,,,,,,,,,,
1142.3999999985099,,rt_thecrossant_black,692661,,,black_plus_sign,,,,,50,,,1,1,,,,,,,,,,,,,,,,
null,,color_black,692763,,,black_plus_sign,,,,,null,,,,,,,,,,,,,,,,,,,,
null,,learn_phase(without_color),695770,,,black_plus_sign,,,,,null,US_Cities_List/hanover.png,US_Cities_List/boulder.png,,,,,,,,,,,,,,,,,,
null,,black_cross(without_color),696802,,,blue,,,,,null,US_Cities_List/hanover.png,US_Cities_List/boulder.png,,,,,,,,,,,,,,,,,,
null,,rt_plussign_withcolor,697307,,,blue,,,,,null,US_Cities_List/hanover.png,US_Cities_List/boulder.png,,,,,,,,,,,,,,,,,,
1209.199999999255,,rt_thecrossant_black,698277,,,black_plus_sign,,,,,49,,,1,1,,,,,,,,,,,,,,,,
null,,color_black,698378,,,black_plus_sign,,,,,null,,,,,,,,,,,,,,,,,,,,
null,,learn_phase(without_color),701392,,,black_plus_sign,,,,,null,US_Cities_List/cornwall.png,US_Cities_List/peoria.png,,,,,,,,,,,,,,,,,,
null,,black_cross(without_color),702203,,,blue,,,,,null,US_Cities_List/cornwall.png,US_Cities_List/peoria.png,,,,,,,,,,,,,,,,,,
null,,rt_plussign_withcolor,702705,,,blue,,,,,null,US_Cities_List/cornwall.png,US_Cities_List/peoria.png,,,,,,,,,,,,,,,,,,
1165.199999999255,,rt_thecrossant_black,703897,,,black_plus_sign,,,,,49,,,1,1,,,,,,,,,,,,,,,,
null,,color_black,703999,,,black_plus_sign,,,,,null,,,,,,,,,,,,,,,,,,,,
null,,learn_phase(without_color),707011,,,black_plus_sign,,,,,null,US_Cities_List/cornwall.png,US_Cities_List/racine.png,,,,,,,,,,,,,,,,,,
null,,black_cross(without_color),707973,,,yellow,,,,,null,US_Cities_List/cornwall.png,US_Cities_List/racine.png,,,,,,,,,,,,,,,,,,
null,,rt_plussign_withcolor,708474,,,yellow,,,,,null,US_Cities_List/cornwall.png,US_Cities_List/racine.png,,,,,,,,,,,,,,,,,,
927.5,,rt_thecrossant_black,709516,,,black_plus_sign,,,,,50,,,1,1,,,,,,,,,,,,,,,,
null,,color_black,709618,,,black_plus_sign,,,,,null,,,,,,,,,,,,,,,,,,,,
null,,learn_phase(without_color),712628,,,black_plus_sign,,,,,null,US_Cities_List/racine.png,US_Cities_List/newhope.png,,,,,,,,,,,,,,,,,,
null,,black_cross(without_color),713672,,,blue,,,,,null,US_Cities_List/racine.png,US_Cities_List/newhope.png,,,,,,,,,,,,,,,,,,
null,,rt_plussign_withcolor,714173,,,blue,,,,,null,US_Cities_List/racine.png,US_Cities_List/newhope.png,,,,,,,,,,,,,,,,,,
1073.6000000014901,,rt_thecrossant_black,715132,,,black_plus_sign,,,,,49,,,1,1,,,,,,,,,,,,,,,,
null,,color_black,715235,,,black_plus_sign,,,,,null,,,,,,,,,,,,,,,,,,,,
null,,learn_phase(without_color),718241,,,black_plus_sign,,,,,null,US_Cities_List/huntsville.png,US_Cities_List/boulder.png,,,,,,,,,,,,,,,,,,
null,,black_cross(without_color),719144,,,blue,,,,,null,US_Cities_List/huntsville.png,US_Cities_List/boulder.png,,,,,,,,,,,,,,,,,,
null,,rt_plussign_withcolor,719646,,,blue,,,,,null,US_Cities_List/huntsville.png,US_Cities_List/boulder.png,,,,,,,,,,,,,,,,,,
1172.2999999970198,,rt_thecrossant_black,720744,,,black_plus_sign,,,,,49,,,1,1,,,,,,,,,,,,,,,,
null,,color_black,720846,,,black_plus_sign,,,,,null,,,,,,,,,,,,,,,,,,,,
null,,learn_phase(without_color),723855,,,black_plus_sign,,,,,null,US_Cities_List/shreveport.png,US_Cities_List/newhope.png,,,,,,,,,,,,,,,,,,
null,,black_cross(without_color),724381,,,yellow,,,,,null,US_Cities_List/shreveport.png,US_Cities_List/newhope.png,,,,,,,,,,,,,,,,,,
null,,rt_plussign_withcolor,724882,,,yellow,,,,,null,US_Cities_List/shreveport.png,US_Cities_List/newhope.png,,,,,,,,,,,,,,,,,,
1347.0999999977648,,rt_thecrossant_black,726359,,,black_plus_sign,,,,,50,,,1,1,,,,,,,,,,,,,,,,
null,,color_black,726460,,,black_plus_sign,,,,,null,,,,,,,,,,,,,,,,,,,,
null,,learn_phase(without_color),729468,,,black_plus_sign,,,,,null,US_Cities_List/hotsprings.png,US_Cities_List/leesburg.png,,,,,,,,,,,,,,,,,,
null,,black_cross(without_color),730433,,,blue,,,,,null,US_Cities_List/hotsprings.png,US_Cities_List/leesburg.png,,,,,,,,,,,,,,,,,,
null,,rt_plussign_withcolor,730935,,,blue,,,,,null,US_Cities_List/hotsprings.png,US_Cities_List/leesburg.png,,,,,,,,,,,,,,,,,,
876.7999999970198,,rt_thecrossant_black,731974,,,black_plus_sign,,,,,49,,,1,1,,,,,,,,,,,,,,,,
null,,color_black,732076,,,black_plus_sign,,,,,null,,,,,,,,,,,,,,,,,,,,
null,,learn_phase(without_color),735089,,,black_plus_sign,,,,,null,US_Cities_List/cornwall.png,US_Cities_List/peoria.png,,,,,,,,,,,,,,,,,,
null,,black_cross(without_color),735506,,,blue,,,,,null,US_Cities_List/cornwall.png,US_Cities_List/peoria.png,,,,,,,,,,,,,,,,,,
null,,rt_plussign_withcolor,736007,,,blue,,,,,null,US_Cities_List/cornwall.png,US_Cities_List/peoria.png,,,,,,,,,,,,,,,,,,
1139.6000000014901,,rt_thecrossant_black,737593,,,black_plus_sign,,,,,49,,,1,1,,,,,,,,,,,,,,,,
null,,color_black,737694,,,black_plus_sign,,,,,null,,,,,,,,,,,,,,,,,,,,
null,,learn_phase(without_color),740707,,,black_plus_sign,,,,,null,US_Cities_List/cornwall.png,US_Cities_List/peoria.png,,,,,,,,,,,,,,,,,,
null,,black_cross(without_color),741238,,,blue,,,,,null,US_Cities_List/cornwall.png,US_Cities_List/peoria.png,,,,,,,,,,,,,,,,,,
null,,rt_plussign_withcolor,741738,,,blue,,,,,null,US_Cities_List/cornwall.png,US_Cities_List/peoria.png,,,,,,,,,,,,,,,,,,
693.3000000007451,,rt_thecrossant_black,743211,,,black_plus_sign,,,,,49,,,1,1,,,,,,,,,,,,,,,,
null,,color_black,743312,,,black_plus_sign,,,,,null,,,,,,,,,,,,,,,,,,,,
null,,learn_break,803314,,,learn_break,,,,,null,,,,,,,,,,,,,,,,,,,,
null,,html-keyboard-response,804315,,,<p></p>,,,,,null,,,,,,,,,,,,,,,,,,,,
null,,learn_phase(without_color),807322,,,black_plus_sign,,,,,null,US_Cities_List/hotsprings.png,US_Cities_List/leesburg.png,,,,,,,,,,,,,,,,,,
null,,black_cross(without_color),808108,,,blue,,,,,null,US_Cities_List/hotsprings.png,US_Cities_List/leesburg.png,,,,,,,,,,,,,,,,,,
null,,rt_plussign_withcolor,808609,,,blue,,,,,null,US_Cities_List/hotsprings.png,US_Cities_List/leesburg.png,,,,,,,,,,,,,,,,,,
1207.9000000022352,,rt_thecrossant_black,809826,,,black_plus_sign,,,,,49,,,1,1,,,,,,,,,,,,,,,,
null,,color_black,809928,,,black_plus_sign,,,,,null,,,,,,,,,,,,,,,,,,,,
null,,learn_phase(without_color),812936,,,black_plus_sign,,,,,null,US_Cities_List/huntsville.png,US_Cities_List/cornwall.png,,,,,,,,,,,,,,,,,,
null,,black_cross(without_color),813378,,,yellow,,,,,null,US_Cities_List/huntsville.png,US_Cities_List/cornwall.png,,,,,,,,,,,,,,,,,,
null,,rt_plussign_withcolor,813879,,,yellow,,,,,null,US_Cities_List/huntsville.png,US_Cities_List/cornwall.png,,,,,,,,,,,,,,,,,,
1296.0999999977648,,rt_thecrossant_black,815439,,,black_plus_sign,,,,,50,,,1,1,,,,,,,,,,,,,,,,
null,,color_black,815541,,,black_plus_sign,,,,,null,,,,,,,,,,,,,,,,,,,,
null,,learn_phase(without_color),818549,,,black_plus_sign,,,,,null,US_Cities_List/shreveport.png,US_Cities_List/leesburg.png,,,,,,,,,,,,,,,,,,
null,,black_cross(without_color),819013,,,yellow,,,,,null,US_Cities_List/shreveport.png,US_Cities_List/leesburg.png,,,,,,,,,,,,,,,,,,
null,,rt_plussign_withcolor,819515,,,yellow,,,,,null,US_Cities_List/shreveport.png,US_Cities_List/leesburg.png,,,,,,,,,,,,,,,,,,
829,,rt_thecrossant_black,821053,,,black_plus_sign,,,,,50,,,1,1,,,,,,,,,,,,,,,,
null,,color_black,821156,,,black_plus_sign,,,,,null,,,,,,,,,,,,,,,,,,,,
null,,learn_phase(without_color),824164,,,black_plus_sign,,,,,null,US_Cities_List/hanover.png,US_Cities_List/leesburg.png,,,,,,,,,,,,,,,,,,
null,,black_cross(without_color),825020,,,blue,,,,,null,US_Cities_List/hanover.png,US_Cities_List/leesburg.png,,,,,,,,,,,,,,,,,,
null,,rt_plussign_withcolor,825521,,,blue,,,,,null,US_Cities_List/hanover.png,US_Cities_List/leesburg.png,,,,,,,,,,,,,,,,,,
845.5,,rt_thecrossant_black,826667,,,black_plus_sign,,,,,49,,,1,1,,,,,,,,,,,,,,,,
null,,color_black,826769,,,black_plus_sign,,,,,null,,,,,,,,,,,,,,,,,,,,
null,,learn_phase(without_color),829776,,,black_plus_sign,,,,,null,US_Cities_List/carmel.png,US_Cities_List/shreveport.png,,,,,,,,,,,,,,,,,,
null,,black_cross(without_color),830368,,,blue,,,,,null,US_Cities_List/carmel.png,US_Cities_List/shreveport.png,,,,,,,,,,,,,,,,,,
null,,rt_plussign_withcolor,830869,,,blue,,,,,null,US_Cities_List/carmel.png,US_Cities_List/shreveport.png,,,,,,,,,,,,,,,,,,
1241.6000000014901,,rt_thecrossant_black,832280,,,black_plus_sign,,,,,49,,,1,1,,,,,,,,,,,,,,,,
null,,color_black,832382,,,black_plus_sign,,,,,null,,,,,,,,,,,,,,,,,,,,
null,,learn_phase(without_color),835390,,,black_plus_sign,,,,,null,US_Cities_List/gatlinburg.png,US_Cities_List/westpalmbeach.png,,,,,,,,,,,,,,,,,,
null,,black_cross(without_color),836039,,,blue,,,,,null,US_Cities_List/gatlinburg.png,US_Cities_List/westpalmbeach.png,,,,,,,,,,,,,,,,,,
null,,rt_plussign_withcolor,836540,,,blue,,,,,null,US_Cities_List/gatlinburg.png,US_Cities_List/westpalmbeach.png,,,,,,,,,,,,,,,,,,
920.8999999985099,,rt_thecrossant_black,837896,,,black_plus_sign,,,,,49,,,1,1,,,,,,,,,,,,,,,,
null,,color_black,837998,,,black_plus_sign,,,,,null,,,,,,,,,,,,,,,,,,,,
null,,learn_phase(without_color),841006,,,black_plus_sign,,,,,null,US_Cities_List/newhope.png,US_Cities_List/boulder.png,,,,,,,,,,,,,,,,,,
null,,black_cross(without_color),841872,,,blue,,,,,null,US_Cities_List/newhope.png,US_Cities_List/boulder.png,,,,,,,,,,,,,,,,,,
459.5,,rt_plussign_withcolor,842373,,,blue,,,,,49,US_Cities_List/newhope.png,US_Cities_List/boulder.png,,,,,,,,,,,,,,,,,,
null,,rt_thecrossant_black,843509,,,black_plus_sign,,,,,null,,,1,1,,,,,,,,,,,,,,,,
null,,color_black,843609,,,black_plus_sign,,,,,null,,,,,,,,,,,,,,,,,,,,
null,,learn_phase(without_color),846617,,,black_plus_sign,,,,,null,US_Cities_List/hotsprings.png,US_Cities_List/leesburg.png,,,,,,,,,,,,,,,,,,
null,,black_cross(without_color),847414,,,yellow,,,,,null,US_Cities_List/hotsprings.png,US_Cities_List/leesburg.png,,,,,,,,,,,,,,,,,,
null,,rt_plussign_withcolor,847915,,,yellow,,,,,null,US_Cities_List/hotsprings.png,US_Cities_List/leesburg.png,,,,,,,,,,,,,,,,,,
1149,,rt_thecrossant_black,849121,,,black_plus_sign,,,,,50,,,1,1,,,,,,,,,,,,,,,,
null,,color_black,849223,,,black_plus_sign,,,,,null,,,,,,,,,,,,,,,,,,,,
null,,learn_phase(without_color),852229,,,black_plus_sign,,,,,null,US_Cities_List/westpalmbeach.png,US_Cities_List/huntsville.png,,,,,,,,,,,,,,,,,,
null,,black_cross(without_color),852950,,,yellow,,,,,null,US_Cities_List/westpalmbeach.png,US_Cities_List/huntsville.png,,,,,,,,,,,,,,,,,,
null,,rt_plussign_withcolor,853451,,,yellow,,,,,null,US_Cities_List/westpalmbeach.png,US_Cities_List/huntsville.png,,,,,,,,,,,,,,,,,,
920.1999999992549,,rt_thecrossant_black,854733,,,black_plus_sign,,,,,50,,,1,1,,,,,,,,,,,,,,,,
null,,color_black,854834,,,black_plus_sign,,,,,null,,,,,,,,,,,,,,,,,,,,
null,,learn_phase(without_color),857842,,,black_plus_sign,,,,,null,US_Cities_List/westpalmbeach.png,US_Cities_List/huntsville.png,,,,,,,,,,,,,,,,,,
null,,black_cross(without_color),858921,,,blue,,,,,null,US_Cities_List/westpalmbeach.png,US_Cities_List/huntsville.png,,,,,,,,,,,,,,,,,,
null,,rt_plussign_withcolor,859423,,,blue,,,,,null,US_Cities_List/westpalmbeach.png,US_Cities_List/huntsville.png,,,,,,,,,,,,,,,,,,
879.4000000022352,,rt_thecrossant_black,860346,,,black_plus_sign,,,,,49,,,1,1,,,,,,,,,,,,,,,,
null,,color_black,860448,,,black_plus_sign,,,,,null,,,,,,,,,,,,,,,,,,,,
null,,learn_phase(without_color),863459,,,black_plus_sign,,,,,null,US_Cities_List/racine.png,US_Cities_List/cornwall.png,,,,,,,,,,,,,,,,,,
null,,black_cross(without_color),864253,,,blue,,,,,null,US_Cities_List/racine.png,US_Cities_List/cornwall.png,,,,,,,,,,,,,,,,,,
null,,rt_plussign_withcolor,864754,,,blue,,,,,null,US_Cities_List/racine.png,US_Cities_List/cornwall.png,,,,,,,,,,,,,,,,,,
1259.199999999255,,rt_thecrossant_black,865963,,,black_plus_sign,,,,,49,,,1,1,,,,,,,,,,,,,,,,
null,,color_black,866069,,,black_plus_sign,,,,,null,,,,,,,,,,,,,,,,,,,,
null,,learn_phase(without_color),869082,,,black_plus_sign,,,,,null,US_Cities_List/cornwall.png,US_Cities_List/westpalmbeach.png,,,,,,,,,,,,,,,,,,
null,,black_cross(without_color),869537,,,yellow,,,,,null,US_Cities_List/cornwall.png,US_Cities_List/westpalmbeach.png,,,,,,,,,,,,,,,,,,
null,,rt_plussign_withcolor,870038,,,yellow,,,,,null,US_Cities_List/cornwall.png,US_Cities_List/westpalmbeach.png,,,,,,,,,,,,,,,,,,
null,,rt_thecrossant_black,871586,,,black_plus_sign,,,,,null,,,,1,,,,,,,,,,,,,,,,
null,,color_black,871688,,,black_plus_sign,,,,,null,,,,,,,,,,,,,,,,,,,,
null,,learn_phase(without_color),874702,,,black_plus_sign,,,,,null,US_Cities_List/cornwall.png,US_Cities_List/racine.png,,,,,,,,,,,,,,,,,,
null,,black_cross(without_color),875336,,,blue,,,,,null,US_Cities_List/cornwall.png,US_Cities_List/racine.png,,,,,,,,,,,,,,,,,,
null,,rt_plussign_withcolor,875837,,,blue,,,,,null,US_Cities_List/cornwall.png,US_Cities_List/racine.png,,,,,,,,,,,,,,,,,,
1128.0999999977648,,rt_thecrossant_black,877205,,,black_plus_sign,,,,,49,,,1,1,,,,,,,,,,,,,,,,
null,,color_black,877307,,,black_plus_sign,,,,,null,,,,,,,,,,,,,,,,,,,,
null,,learn_phase(without_color),880316,,,black_plus_sign,,,,,null,US_Cities_List/racine.png,US_Cities_List/huntsville.png,,,,,,,,,,,,,,,,,,
null,,black_cross(without_color),881357,,,blue,,,,,null,US_Cities_List/racine.png,US_Cities_List/huntsville.png,,,,,,,,,,,,,,,,,,
null,,rt_plussign_withcolor,881858,,,blue,,,,,null,US_Cities_List/racine.png,US_Cities_List/huntsville.png,,,,,,,,,,,,,,,,,,
885.8000000007451,,rt_thecrossant_black,882820,,,black_plus_sign,,,,,49,,,1,1,,,,,,,,,,,,,,,,
null,,color_black,882922,,,black_plus_sign,,,,,null,,,,,,,,,,,,,,,,,,,,
null,,learn_phase(without_color),885928,,,black_plus_sign,,,,,null,US_Cities_List/westpalmbeach.png,US_Cities_List/huntsville.png,,,,,,,,,,,,,,,,,,
null,,black_cross(without_color),886683,,,blue,,,,,null,US_Cities_List/westpalmbeach.png,US_Cities_List/huntsville.png,,,,,,,,,,,,,,,,,,
null,,rt_plussign_withcolor,887185,,,blue,,,,,null,US_Cities_List/westpalmbeach.png,US_Cities_List/huntsville.png,,,,,,,,,,,,,,,,,,
1590.199999999255,,rt_thecrossant_black,888432,,,black_plus_sign,,,,,49,,,1,1,,,,,,,,,,,,,,,,
null,,color_black,888533,,,black_plus_sign,,,,,null,,,,,,,,,,,,,,,,,,,,
null,,learn_phase(without_color),891541,,,black_plus_sign,,,,,null,US_Cities_List/hanover.png,US_Cities_List/leesburg.png,,,,,,,,,,,,,,,,,,
null,,black_cross(without_color),892196,,,blue,,,,,null,US_Cities_List/hanover.png,US_Cities_List/leesburg.png,,,,,,,,,,,,,,,,,,
null,,rt_plussign_withcolor,892697,,,blue,,,,,null,US_Cities_List/hanover.png,US_Cities_List/leesburg.png,,,,,,,,,,,,,,,,,,
960.4000000022352,,rt_thecrossant_black,894045,,,black_plus_sign,,,,,49,,,1,1,,,,,,,,,,,,,,,,
null,,color_black,894147,,,black_plus_sign,,,,,null,,,,,,,,,,,,,,,,,,,,
null,,learn_phase(without_color),897156,,,black_plus_sign,,,,,null,US_Cities_List/cornwall.png,US_Cities_List/huntsville.png,,,,,,,,,,,,,,,,,,
null,,black_cross(without_color),897836,,,blue,,,,,null,US_Cities_List/cornwall.png,US_Cities_List/huntsville.png,,,,,,,,,,,,,,,,,,
null,,rt_plussign_withcolor,898337,,,blue,,,,,null,US_Cities_List/cornwall.png,US_Cities_List/huntsville.png,,,,,,,,,,,,,,,,,,
795.8999999985099,,rt_thecrossant_black,899660,,,black_plus_sign,,,,,49,,,1,1,,,,,,,,,,,,,,,,
null,,color_black,899761,,,black_plus_sign,,,,,null,,,,,,,,,,,,,,,,,,,,
null,,learn_phase(without_color),902771,,,black_plus_sign,,,,,null,US_Cities_List/hotsprings.png,US_Cities_List/leesburg.png,,,,,,,,,,,,,,,,,,
null,,black_cross(without_color),903458,,,yellow,,,,,null,US_Cities_List/hotsprings.png,US_Cities_List/leesburg.png,,,,,,,,,,,,,,,,,,
457,,rt_plussign_withcolor,903959,,,yellow,,,,,50,US_Cities_List/hotsprings.png,US_Cities_List/leesburg.png,,,,,,,,,,,,,,,,,,
null,,rt_thecrossant_black,905274,,,black_plus_sign,,,,,null,,,1,1,,,,,,,,,,,,,,,,
null,,color_black,905375,,,black_plus_sign,,,,,null,,,,,,,,,,,,,,,,,,,,
null,,learn_phase(without_color),908383,,,black_plus_sign,,,,,null,US_Cities_List/shreveport.png,US_Cities_List/newhope.png,,,,,,,,,,,,,,,,,,
null,,black_cross(without_color),909418,,,blue,,,,,null,US_Cities_List/shreveport.png,US_Cities_List/newhope.png,,,,,,,,,,,,,,,,,,
null,,rt_plussign_withcolor,909920,,,blue,,,,,null,US_Cities_List/shreveport.png,US_Cities_List/newhope.png,,,,,,,,,,,,,,,,,,
845.2999999970198,,rt_thecrossant_black,910888,,,black_plus_sign,,,,,49,,,1,1,,,,,,,,,,,,,,,,
null,,color_black,910990,,,black_plus_sign,,,,,null,,,,,,,,,,,,,,,,,,,,
null,,learn_phase(without_color),914000,,,black_plus_sign,,,,,null,US_Cities_List/newhope.png,US_Cities_List/shreveport.png,,,,,,,,,,,,,,,,,,
null,,black_cross(without_color),914875,,,yellow,,,,,null,US_Cities_List/newhope.png,US_Cities_List/shreveport.png,,,,,,,,,,,,,,,,,,
496.1000000014901,,rt_plussign_withcolor,915376,,,yellow,,,,,50,US_Cities_List/newhope.png,US_Cities_List/shreveport.png,,,,,,,,,,,,,,,,,,
null,,rt_thecrossant_black,916505,,,black_plus_sign,,,,,null,,,1,1,,,,,,,,,,,,,,,,
null,,color_black,916606,,,black_plus_sign,,,,,null,,,,,,,,,,,,,,,,,,,,
null,,learn_phase(without_color),919619,,,black_plus_sign,,,,,null,US_Cities_List/peoria.png,US_Cities_List/cornwall.png,,,,,,,,,,,,,,,,,,
null,,black_cross(without_color),920165,,,yellow,,,,,null,US_Cities_List/peoria.png,US_Cities_List/cornwall.png,,,,,,,,,,,,,,,,,,
null,,rt_plussign_withcolor,920667,,,yellow,,,,,null,US_Cities_List/peoria.png,US_Cities_List/cornwall.png,,,,,,,,,,,,,,,,,,
973.7999999970198,,rt_thecrossant_black,922123,,,black_plus_sign,,,,,50,,,1,1,,,,,,,,,,,,,,,,
null,,color_black,922226,,,black_plus_sign,,,,,null,,,,,,,,,,,,,,,,,,,,
null,,learn_phase(without_color),925233,,,black_plus_sign,,,,,null,US_Cities_List/huntsville.png,US_Cities_List/racine.png,,,,,,,,,,,,,,,,,,
null,,black_cross(without_color),926297,,,blue,,,,,null,US_Cities_List/huntsville.png,US_Cities_List/racine.png,,,,,,,,,,,,,,,,,,
null,,rt_plussign_withcolor,926798,,,blue,,,,,null,US_Cities_List/huntsville.png,US_Cities_List/racine.png,,,,,,,,,,,,,,,,,,
802.4000000022352,,rt_thecrossant_black,927736,,,black_plus_sign,,,,,49,,,1,1,,,,,,,,,,,,,,,,
null,,color_black,927838,,,black_plus_sign,,,,,null,,,,,,,,,,,,,,,,,,,,
null,,learn_phase(without_color),930852,,,black_plus_sign,,,,,null,US_Cities_List/cornwall.png,US_Cities_List/racine.png,,,,,,,,,,,,,,,,,,
null,,black_cross(without_color),931806,,,yellow,,,,,null,US_Cities_List/cornwall.png,US_Cities_List/racine.png,,,,,,,,,,,,,,,,,,
null,,rt_plussign_withcolor,932308,,,yellow,,,,,null,US_Cities_List/cornwall.png,US_Cities_List/racine.png,,,,,,,,,,,,,,,,,,
1410.6000000014901,,rt_thecrossant_black,933356,,,black_plus_sign,,,,,50,,,1,1,,,,,,,,,,,,,,,,
null,,color_black,933458,,,black_plus_sign,,,,,null,,,,,,,,,,,,,,,,,,,,
null,,learn_phase(without_color),936465,,,black_plus_sign,,,,,null,US_Cities_List/hanover.png,US_Cities_List/leesburg.png,,,,,,,,,,,,,,,,,,
null,,black_cross(without_color),936995,,,blue,,,,,null,US_Cities_List/hanover.png,US_Cities_List/leesburg.png,,,,,,,,,,,,,,,,,,
null,,rt_plussign_withcolor,937497,,,blue,,,,,null,US_Cities_List/hanover.png,US_Cities_List/leesburg.png,,,,,,,,,,,,,,,,,,
1359.699999999255,,rt_thecrossant_black,938970,,,black_plus_sign,,,,,49,,,1,1,,,,,,,,,,,,,,,,
null,,color_black,939072,,,black_plus_sign,,,,,null,,,,,,,,,,,,,,,,,,,,
null,,learn_phase(without_color),942080,,,black_plus_sign,,,,,null,US_Cities_List/gatlinburg.png,US_Cities_List/westpalmbeach.png,,,,,,,,,,,,,,,,,,
null,,black_cross(without_color),942704,,,yellow,,,,,null,US_Cities_List/gatlinburg.png,US_Cities_List/westpalmbeach.png,,,,,,,,,,,,,,,,,,
null,,rt_plussign_withcolor,943206,,,yellow,,,,,null,US_Cities_List/gatlinburg.png,US_Cities_List/westpalmbeach.png,,,,,,,,,,,,,,,,,,
961.5,,rt_thecrossant_black,944586,,,black_plus_sign,,,,,50,,,1,1,,,,,,,,,,,,,,,,
null,,color_black,944687,,,black_plus_sign,,,,,null,,,,,,,,,,,,,,,,,,,,
null,,learn_phase(without_color),947696,,,black_plus_sign,,,,,null,US_Cities_List/hotsprings.png,US_Cities_List/leesburg.png,,,,,,,,,,,,,,,,,,
null,,black_cross(without_color),948296,,,yellow,,,,,null,US_Cities_List/hotsprings.png,US_Cities_List/leesburg.png,,,,,,,,,,,,,,,,,,
null,,rt_plussign_withcolor,948797,,,yellow,,,,,null,US_Cities_List/hotsprings.png,US_Cities_List/leesburg.png,,,,,,,,,,,,,,,,,,
744.1999999992549,,rt_thecrossant_black,950199,,,black_plus_sign,,,,,50,,,1,1,,,,,,,,,,,,,,,,
null,,color_black,950300,,,black_plus_sign,,,,,null,,,,,,,,,,,,,,,,,,,,
null,,learn_phase(without_color),953315,,,black_plus_sign,,,,,null,US_Cities_List/hanover.png,US_Cities_List/boulder.png,,,,,,,,,,,,,,,,,,
null,,black_cross(without_color),954381,,,blue,,,,,null,US_Cities_List/hanover.png,US_Cities_List/boulder.png,,,,,,,,,,,,,,,,,,
null,,rt_plussign_withcolor,954882,,,blue,,,,,null,US_Cities_List/hanover.png,US_Cities_List/boulder.png,,,,,,,,,,,,,,,,,,
812.3000000007451,,rt_thecrossant_black,955820,,,black_plus_sign,,,,,49,,,1,1,,,,,,,,,,,,,,,,
null,,color_black,955921,,,black_plus_sign,,,,,null,,,,,,,,,,,,,,,,,,,,
null,,learn_phase(without_color),958929,,,black_plus_sign,,,,,null,US_Cities_List/newhope.png,US_Cities_List/shreveport.png,,,,,,,,,,,,,,,,,,
null,,black_cross(without_color),959543,,,blue,,,,,null,US_Cities_List/newhope.png,US_Cities_List/shreveport.png,,,,,,,,,,,,,,,,,,
null,,rt_plussign_withcolor,960045,,,blue,,,,,null,US_Cities_List/newhope.png,US_Cities_List/shreveport.png,,,,,,,,,,,,,,,,,,
1513.699999999255,,rt_thecrossant_black,961434,,,black_plus_sign,,,,,49,,,1,1,,,,,,,,,,,,,,,,
null,,color_black,961536,,,black_plus_sign,,,,,null,,,,,,,,,,,,,,,,,,,,
null,,learn_phase(without_color),964550,,,black_plus_sign,,,,,null,US_Cities_List/westpalmbeach.png,US_Cities_List/cornwall.png,,,,,,,,,,,,,,,,,,
null,,black_cross(without_color),965541,,,yellow,,,,,null,US_Cities_List/westpalmbeach.png,US_Cities_List/cornwall.png,,,,,,,,,,,,,,,,,,
null,,rt_plussign_withcolor,966056,,,yellow,,,,,null,US_Cities_List/westpalmbeach.png,US_Cities_List/cornwall.png,,,,,,,,,,,,,,,,,,
1155.5,,rt_thecrossant_black,967067,,,black_plus_sign,,,,,50,,,1,1,,,,,,,,,,,,,,,,
null,,color_black,967169,,,black_plus_sign,,,,,null,,,,,,,,,,,,,,,,,,,,
null,,learn_phase(without_color),970178,,,black_plus_sign,,,,,null,US_Cities_List/shreveport.png,US_Cities_List/carmel.png,,,,,,,,,,,,,,,,,,
null,,black_cross(without_color),971250,,,yellow,,,,,null,US_Cities_List/shreveport.png,US_Cities_List/carmel.png,,,,,,,,,,,,,,,,,,
null,,rt_plussign_withcolor,971752,,,yellow,,,,,null,US_Cities_List/shreveport.png,US_Cities_List/carmel.png,,,,,,,,,,,,,,,,,,
1349.199999999255,,rt_thecrossant_black,972682,,,black_plus_sign,,,,,50,,,1,1,,,,,,,,,,,,,,,,
null,,color_black,972784,,,black_plus_sign,,,,,null,,,,,,,,,,,,,,,,,,,,
null,,learn_phase(without_color),975794,,,black_plus_sign,,,,,null,US_Cities_List/shreveport.png,US_Cities_List/leesburg.png,,,,,,,,,,,,,,,,,,
null,,black_cross(without_color),976683,,,yellow,,,,,null,US_Cities_List/shreveport.png,US_Cities_List/leesburg.png,,,,,,,,,,,,,,,,,,
null,,rt_plussign_withcolor,977184,,,yellow,,,,,null,US_Cities_List/shreveport.png,US_Cities_List/leesburg.png,,,,,,,,,,,,,,,,,,
1710.5,,rt_thecrossant_black,978298,,,black_plus_sign,,,,,50,,,1,1,,,,,,,,,,,,,,,,
null,,color_black,978400,,,black_plus_sign,,,,,null,,,,,,,,,,,,,,,,,,,,
null,,learn_phase(without_color),981408,,,black_plus_sign,,,,,null,US_Cities_List/cornwall.png,US_Cities_List/huntsville.png,,,,,,,,,,,,,,,,,,
null,,black_cross(without_color),982480,,,yellow,,,,,null,US_Cities_List/cornwall.png,US_Cities_List/huntsville.png,,,,,,,,,,,,,,,,,,
null,,rt_plussign_withcolor,982981,,,yellow,,,,,null,US_Cities_List/cornwall.png,US_Cities_List/huntsville.png,,,,,,,,,,,,,,,,,,
1033.199999999255,,rt_thecrossant_black,983912,,,black_plus_sign,,,,,50,,,1,1,,,,,,,,,,,,,,,,
null,,color_black,984013,,,black_plus_sign,,,,,null,,,,,,,,,,,,,,,,,,,,
null,,learn_phase(without_color),987018,,,black_plus_sign,,,,,null,US_Cities_List/boulder.png,US_Cities_List/huntsville.png,,,,,,,,,,,,,,,,,,
null,,black_cross(without_color),987798,,,yellow,,,,,null,US_Cities_List/boulder.png,US_Cities_List/huntsville.png,,,,,,,,,,,,,,,,,,
null,,rt_plussign_withcolor,988299,,,yellow,,,,,null,US_Cities_List/boulder.png,US_Cities_List/huntsville.png,,,,,,,,,,,,,,,,,,
1539,,rt_thecrossant_black,989521,,,black_plus_sign,,,,,50,,,1,1,,,,,,,,,,,,,,,,
null,,color_black,989622,,,black_plus_sign,,,,,null,,,,,,,,,,,,,,,,,,,,
null,,learn_phase(without_color),992631,,,black_plus_sign,,,,,null,US_Cities_List/newhope.png,US_Cities_List/shreveport.png,,,,,,,,,,,,,,,,,,
null,,black_cross(without_color),993096,,,yellow,,,,,null,US_Cities_List/newhope.png,US_Cities_List/shreveport.png,,,,,,,,,,,,,,,,,,
null,,rt_plussign_withcolor,993598,,,yellow,,,,,null,US_Cities_List/newhope.png,US_Cities_List/shreveport.png,,,,,,,,,,,,,,,,,,
916.5,,rt_thecrossant_black,995135,,,black_plus_sign,,,,,50,,,1,1,,,,,,,,,,,,,,,,
null,,color_black,995237,,,black_plus_sign,,,,,null,,,,,,,,,,,,,,,,,,,,
null,,learn_phase(without_color),998245,,,black_plus_sign,,,,,null,US_Cities_List/huntsville.png,US_Cities_List/racine.png,,,,,,,,,,,,,,,,,,
null,,black_cross(without_color),998772,,,yellow,,,,,null,US_Cities_List/huntsville.png,US_Cities_List/racine.png,,,,,,,,,,,,,,,,,,
null,,rt_plussign_withcolor,999273,,,yellow,,,,,null,US_Cities_List/huntsville.png,US_Cities_List/racine.png,,,,,,,,,,,,,,,,,,
1197.699999999255,,rt_thecrossant_black,1000748,,,black_plus_sign,,,,,50,,,1,1,,,,,,,,,,,,,,,,
null,,color_black,1000850,,,black_plus_sign,,,,,null,,,,,,,,,,,,,,,,,,,,
null,,learn_phase(without_color),1003858,,,black_plus_sign,,,,,null,US_Cities_List/westpalmbeach.png,US_Cities_List/gatlinburg.png,,,,,,,,,,,,,,,,,,
null,,black_cross(without_color),1004520,,,yellow,,,,,null,US_Cities_List/westpalmbeach.png,US_Cities_List/gatlinburg.png,,,,,,,,,,,,,,,,,,
null,,rt_plussign_withcolor,1005022,,,yellow,,,,,null,US_Cities_List/westpalmbeach.png,US_Cities_List/gatlinburg.png,,,,,,,,,,,,,,,,,,
655.1000000014901,,rt_thecrossant_black,1006363,,,black_plus_sign,,,,,50,,,1,1,,,,,,,,,,,,,,,,
null,,color_black,1006476,,,black_plus_sign,,,,,null,,,,,,,,,,,,,,,,,,,,
null,,learn_phase(without_color),1009482,,,black_plus_sign,,,,,null,US_Cities_List/boulder.png,US_Cities_List/huntsville.png,,,,,,,,,,,,,,,,,,
null,,black_cross(without_color),1009943,,,yellow,,,,,null,US_Cities_List/boulder.png,US_Cities_List/huntsville.png,,,,,,,,,,,,,,,,,,
467.80000000074506,,rt_plussign_withcolor,1010445,,,yellow,,,,,50,US_Cities_List/boulder.png,US_Cities_List/huntsville.png,,,,,,,,,,,,,,,,,,
null,,rt_thecrossant_black,1011986,,,black_plus_sign,,,,,null,,,1,1,,,,,,,,,,,,,,,,
null,,color_black,1012088,,,black_plus_sign,,,,,null,,,,,,,,,,,,,,,,,,,,
null,,learn_phase(without_color),1015099,,,black_plus_sign,,,,,null,US_Cities_List/cornwall.png,US_Cities_List/westpalmbeach.png,,,,,,,,,,,,,,,,,,
null,,black_cross(without_color),1015748,,,blue,,,,,null,US_Cities_List/cornwall.png,US_Cities_List/westpalmbeach.png,,,,,,,,,,,,,,,,,,
470.6000000014901,,rt_plussign_withcolor,1016250,,,blue,,,,,49,US_Cities_List/cornwall.png,US_Cities_List/westpalmbeach.png,,,,,,,,,,,,,,,,,,
null,,rt_thecrossant_black,1017603,,,black_plus_sign,,,,,null,,,1,1,,,,,,,,,,,,,,,,
null,,color_black,1017711,,,black_plus_sign,,,,,null,,,,,,,,,,,,,,,,,,,,
null,,learn_phase(without_color),1020718,,,black_plus_sign,,,,,null,US_Cities_List/huntsville.png,US_Cities_List/westpalmbeach.png,,,,,,,,,,,,,,,,,,
null,,black_cross(without_color),1021724,,,yellow,,,,,null,US_Cities_List/huntsville.png,US_Cities_List/westpalmbeach.png,,,,,,,,,,,,,,,,,,
null,,rt_plussign_withcolor,1022225,,,yellow,,,,,null,US_Cities_List/huntsville.png,US_Cities_List/westpalmbeach.png,,,,,,,,,,,,,,,,,,
798.3000000007451,,rt_thecrossant_black,1023223,,,black_plus_sign,,,,,50,,,1,1,,,,,,,,,,,,,,,,
null,,color_black,1023332,,,black_plus_sign,,,,,null,,,,,,,,,,,,,,,,,,,,
null,,learn_phase(without_color),1026339,,,black_plus_sign,,,,,null,US_Cities_List/hotsprings.png,US_Cities_List/leesburg.png,,,,,,,,,,,,,,,,,,
null,,black_cross(without_color),1027232,,,blue,,,,,null,US_Cities_List/hotsprings.png,US_Cities_List/leesburg.png,,,,,,,,,,,,,,,,,,
null,,rt_plussign_withcolor,1027733,,,blue,,,,,null,US_Cities_List/hotsprings.png,US_Cities_List/leesburg.png,,,,,,,,,,,,,,,,,,
1742.199999999255,,rt_thecrossant_black,1028844,,,black_plus_sign,,,,,49,,,1,1,,,,,,,,,,,,,,,,
null,,color_black,1028946,,,black_plus_sign,,,,,null,,,,,,,,,,,,,,,,,,,,
null,,learn_phase(without_color),1031959,,,black_plus_sign,,,,,null,US_Cities_List/racine.png,US_Cities_List/newhope.png,,,,,,,,,,,,,,,,,,
null,,black_cross(without_color),1032630,,,blue,,,,,null,US_Cities_List/racine.png,US_Cities_List/newhope.png,,,,,,,,,,,,,,,,,,
null,,rt_plussign_withcolor,1033132,,,blue,,,,,null,US_Cities_List/racine.png,US_Cities_List/newhope.png,,,,,,,,,,,,,,,,,,
1404.699999999255,,rt_thecrossant_black,1034464,,,black_plus_sign,,,,,49,,,1,1,,,,,,,,,,,,,,,,
null,,color_black,1034566,,,black_plus_sign,,,,,null,,,,,,,,,,,,,,,,,,,,
null,,learn_phase(without_color),1037572,,,black_plus_sign,,,,,null,US_Cities_List/racine.png,US_Cities_List/huntsville.png,,,,,,,,,,,,,,,,,,
null,,black_cross(without_color),1038034,,,yellow,,,,,null,US_Cities_List/racine.png,US_Cities_List/huntsville.png,,,,,,,,,,,,,,,,,,
null,,rt_plussign_withcolor,1038535,,,yellow,,,,,null,US_Cities_List/racine.png,US_Cities_List/huntsville.png,,,,,,,,,,,,,,,,,,
1190.1000000014901,,rt_thecrossant_black,1040076,,,black_plus_sign,,,,,50,,,1,1,,,,,,,,,,,,,,,,
null,,color_black,1040178,,,black_plus_sign,,,,,null,,,,,,,,,,,,,,,,,,,,
null,,learn_phase(without_color),1043185,,,black_plus_sign,,,,,null,US_Cities_List/leesburg.png,US_Cities_List/shreveport.png,,,,,,,,,,,,,,,,,,
null,,black_cross(without_color),1043856,,,yellow,,,,,null,US_Cities_List/leesburg.png,US_Cities_List/shreveport.png,,,,,,,,,,,,,,,,,,
null,,rt_plussign_withcolor,1044357,,,yellow,,,,,null,US_Cities_List/leesburg.png,US_Cities_List/shreveport.png,,,,,,,,,,,,,,,,,,
830.3000000007451,,rt_thecrossant_black,1045690,,,black_plus_sign,,,,,50,,,1,1,,,,,,,,,,,,,,,,
null,,color_black,1045791,,,black_plus_sign,,,,,null,,,,,,,,,,,,,,,,,,,,
null,,learn_phase(without_color),1048801,,,black_plus_sign,,,,,null,US_Cities_List/huntsville.png,US_Cities_List/cornwall.png,,,,,,,,,,,,,,,,,,
null,,black_cross(without_color),1049635,,,blue,,,,,null,US_Cities_List/huntsville.png,US_Cities_List/cornwall.png,,,,,,,,,,,,,,,,,,
null,,rt_plussign_withcolor,1050137,,,blue,,,,,null,US_Cities_List/huntsville.png,US_Cities_List/cornwall.png,,,,,,,,,,,,,,,,,,
779.0999999977648,,rt_thecrossant_black,1051306,,,black_plus_sign,,,,,49,,,1,1,,,,,,,,,,,,,,,,
null,,color_black,1051407,,,black_plus_sign,,,,,null,,,,,,,,,,,,,,,,,,,,
null,,learn_phase(without_color),1054415,,,black_plus_sign,,,,,null,US_Cities_List/newhope.png,US_Cities_List/boulder.png,,,,,,,,,,,,,,,,,,
null,,black_cross(without_color),1055100,,,blue,,,,,null,US_Cities_List/newhope.png,US_Cities_List/boulder.png,,,,,,,,,,,,,,,,,,
null,,rt_plussign_withcolor,1055601,,,blue,,,,,null,US_Cities_List/newhope.png,US_Cities_List/boulder.png,,,,,,,,,,,,,,,,,,
1462.699999999255,,rt_thecrossant_black,1056919,,,black_plus_sign,,,,,50,,,0,0.9907407407407407,,,,,,,,,,,,,,,,
null,,color_black,1057021,,,black_plus_sign,,,,,null,,,,,,,,,,,,,,,,,,,,
null,,learn_phase(without_color),1060027,,,black_plus_sign,,,,,null,US_Cities_List/boulder.png,US_Cities_List/huntsville.png,,,,,,,,,,,,,,,,,,
null,,black_cross(without_color),1060753,,,yellow,,,,,null,US_Cities_List/boulder.png,US_Cities_List/huntsville.png,,,,,,,,,,,,,,,,,,
null,,rt_plussign_withcolor,1061254,,,yellow,,,,,null,US_Cities_List/boulder.png,US_Cities_List/huntsville.png,,,,,,,,,,,,,,,,,,
899.3000000007451,,rt_thecrossant_black,1062532,,,black_plus_sign,,,,,50,,,1,0.9908256880733946,,,,,,,,,,,,,,,,
null,,color_black,1062633,,,black_plus_sign,,,,,null,,,,,,,,,,,,,,,,,,,,
null,,learn_phase(without_color),1065642,,,black_plus_sign,,,,,null,US_Cities_List/racine.png,US_Cities_List/huntsville.png,,,,,,,,,,,,,,,,,,
null,,black_cross(without_color),1066502,,,yellow,,,,,null,US_Cities_List/racine.png,US_Cities_List/huntsville.png,,,,,,,,,,,,,,,,,,
null,,rt_plussign_withcolor,1067003,,,yellow,,,,,null,US_Cities_List/racine.png,US_Cities_List/huntsville.png,,,,,,,,,,,,,,,,,,
847.7999999970198,,rt_thecrossant_black,1068145,,,black_plus_sign,,,,,50,,,1,0.990909090909091,,,,,,,,,,,,,,,,
null,,color_black,1068247,,,black_plus_sign,,,,,null,,,,,,,,,,,,,,,,,,,,
null,,learn_phase(without_color),1071255,,,black_plus_sign,,,,,null,US_Cities_List/shreveport.png,US_Cities_List/carmel.png,,,,,,,,,,,,,,,,,,
null,,black_cross(without_color),1071735,,,yellow,,,,,null,US_Cities_List/shreveport.png,US_Cities_List/carmel.png,,,,,,,,,,,,,,,,,,
null,,rt_plussign_withcolor,1072236,,,yellow,,,,,null,US_Cities_List/shreveport.png,US_Cities_List/carmel.png,,,,,,,,,,,,,,,,,,
1189.6000000014901,,rt_thecrossant_black,1073759,,,black_plus_sign,,,,,50,,,1,0.990990990990991,,,,,,,,,,,,,,,,
null,,color_black,1073860,,,black_plus_sign,,,,,null,,,,,,,,,,,,,,,,,,,,
null,,learn_phase(without_color),1076869,,,black_plus_sign,,,,,null,US_Cities_List/hanover.png,US_Cities_List/leesburg.png,,,,,,,,,,,,,,,,,,
null,,black_cross(without_color),1077609,,,yellow,,,,,null,US_Cities_List/hanover.png,US_Cities_List/leesburg.png,,,,,,,,,,,,,,,,,,
null,,rt_plussign_withcolor,1078110,,,yellow,,,,,null,US_Cities_List/hanover.png,US_Cities_List/leesburg.png,,,,,,,,,,,,,,,,,,
624.3999999985099,,rt_thecrossant_black,1079372,,,black_plus_sign,,,,,50,,,1,0.9910714285714286,,,,,,,,,,,,,,,,
null,,color_black,1079474,,,black_plus_sign,,,,,null,,,,,,,,,,,,,,,,,,,,
null,,learn_phase(without_color),1082485,,,black_plus_sign,,,,,null,US_Cities_List/shreveport.png,US_Cities_List/newhope.png,,,,,,,,,,,,,,,,,,
null,,black_cross(without_color),1083283,,,yellow,,,,,null,US_Cities_List/shreveport.png,US_Cities_List/newhope.png,,,,,,,,,,,,,,,,,,
null,,rt_plussign_withcolor,1083784,,,yellow,,,,,null,US_Cities_List/shreveport.png,US_Cities_List/newhope.png,,,,,,,,,,,,,,,,,,
937.6000000014901,,rt_thecrossant_black,1084989,,,black_plus_sign,,,,,50,,,1,0.9911504424778761,,,,,,,,,,,,,,,,
null,,color_black,1085090,,,black_plus_sign,,,,,null,,,,,,,,,,,,,,,,,,,,
null,,learn_phase(without_color),1088097,,,black_plus_sign,,,,,null,US_Cities_List/westpalmbeach.png,US_Cities_List/huntsville.png,,,,,,,,,,,,,,,,,,
null,,black_cross(without_color),1089175,,,blue,,,,,null,US_Cities_List/westpalmbeach.png,US_Cities_List/huntsville.png,,,,,,,,,,,,,,,,,,
null,,rt_plussign_withcolor,1089676,,,blue,,,,,null,US_Cities_List/westpalmbeach.png,US_Cities_List/huntsville.png,,,,,,,,,,,,,,,,,,
911.8000000007451,,rt_thecrossant_black,1090602,,,black_plus_sign,,,,,49,,,1,0.9912280701754386,,,,,,,,,,,,,,,,
null,,color_black,1090705,,,black_plus_sign,,,,,null,,,,,,,,,,,,,,,,,,,,
null,,learn_phase(without_color),1093714,,,black_plus_sign,,,,,null,US_Cities_List/westpalmbeach.png,US_Cities_List/gatlinburg.png,,,,,,,,,,,,,,,,,,
null,,black_cross(without_color),1094337,,,yellow,,,,,null,US_Cities_List/westpalmbeach.png,US_Cities_List/gatlinburg.png,,,,,,,,,,,,,,,,,,
null,,rt_plussign_withcolor,1094839,,,yellow,,,,,null,US_Cities_List/westpalmbeach.png,US_Cities_List/gatlinburg.png,,,,,,,,,,,,,,,,,,
1228.199999999255,,rt_thecrossant_black,1096218,,,black_plus_sign,,,,,50,,,1,0.991304347826087,,,,,,,,,,,,,,,,
null,,color_black,1096320,,,black_plus_sign,,,,,null,,,,,,,,,,,,,,,,,,,,
null,,learn_phase(without_color),1099326,,,black_plus_sign,,,,,null,US_Cities_List/westpalmbeach.png,US_Cities_List/huntsville.png,,,,,,,,,,,,,,,,,,
null,,black_cross(without_color),1100040,,,blue,,,,,null,US_Cities_List/westpalmbeach.png,US_Cities_List/huntsville.png,,,,,,,,,,,,,,,,,,
null,,rt_plussign_withcolor,1100541,,,blue,,,,,null,US_Cities_List/westpalmbeach.png,US_Cities_List/huntsville.png,,,,,,,,,,,,,,,,,,
982.1999999992549,,rt_thecrossant_black,1101831,,,black_plus_sign,,,,,49,,,1,0.9913793103448276,,,,,,,,,,,,,,,,
null,,color_black,1101933,,,black_plus_sign,,,,,null,,,,,,,,,,,,,,,,,,,,
null,,learn_phase(without_color),1104940,,,black_plus_sign,,,,,null,US_Cities_List/boulder.png,US_Cities_List/huntsville.png,,,,,,,,,,,,,,,,,,
null,,black_cross(without_color),1105939,,,blue,,,,,null,US_Cities_List/boulder.png,US_Cities_List/huntsville.png,,,,,,,,,,,,,,,,,,
null,,rt_plussign_withcolor,1106441,,,blue,,,,,null,US_Cities_List/boulder.png,US_Cities_List/huntsville.png,,,,,,,,,,,,,,,,,,
814.3999999985099,,rt_thecrossant_black,1107444,,,black_plus_sign,,,,,49,,,1,0.9914529914529915,,,,,,,,,,,,,,,,
null,,color_black,1107546,,,black_plus_sign,,,,,null,,,,,,,,,,,,,,,,,,,,
null,,learn_phase(without_color),1110558,,,black_plus_sign,,,,,null,US_Cities_List/westpalmbeach.png,US_Cities_List/cornwall.png,,,,,,,,,,,,,,,,,,
null,,black_cross(without_color),1111595,,,blue,,,,,null,US_Cities_List/westpalmbeach.png,US_Cities_List/cornwall.png,,,,,,,,,,,,,,,,,,
495.8999999985099,,rt_plussign_withcolor,1112096,,,blue,,,,,49,US_Cities_List/westpalmbeach.png,US_Cities_List/cornwall.png,,,,,,,,,,,,,,,,,,
null,,rt_thecrossant_black,1113061,,,black_plus_sign,,,,,null,,,1,0.9915254237288136,,,,,,,,,,,,,,,,
null,,color_black,1113162,,,black_plus_sign,,,,,null,,,,,,,,,,,,,,,,,,,,
null,,learn_phase(without_color),1116171,,,black_plus_sign,,,,,null,US_Cities_List/newhope.png,US_Cities_List/boulder.png,,,,,,,,,,,,,,,,,,
null,,black_cross(without_color),1116894,,,yellow,,,,,null,US_Cities_List/newhope.png,US_Cities_List/boulder.png,,,,,,,,,,,,,,,,,,
null,,rt_plussign_withcolor,1117396,,,yellow,,,,,null,US_Cities_List/newhope.png,US_Cities_List/boulder.png,,,,,,,,,,,,,,,,,,
1191.300000000745,,rt_thecrossant_black,1118676,,,black_plus_sign,,,,,50,,,1,0.9915966386554622,,,,,,,,,,,,,,,,
null,,color_black,1118778,,,black_plus_sign,,,,,null,,,,,,,,,,,,,,,,,,,,
null,,learn_phase(without_color),1121790,,,black_plus_sign,,,,,null,US_Cities_List/racine.png,US_Cities_List/newhope.png,,,,,,,,,,,,,,,,,,
null,,black_cross(without_color),1122670,,,yellow,,,,,null,US_Cities_List/racine.png,US_Cities_List/newhope.png,,,,,,,,,,,,,,,,,,
null,,rt_plussign_withcolor,1123171,,,yellow,,,,,null,US_Cities_List/racine.png,US_Cities_List/newhope.png,,,,,,,,,,,,,,,,,,
837.8999999985099,,rt_thecrossant_black,1124303,,,black_plus_sign,,,,,50,,,1,0.9916666666666667,,,,,,,,,,,,,,,,
null,,color_black,1124411,,,black_plus_sign,,,,,null,,,,,,,,,,,,,,,,,,,,
null,,learn_phase(without_color),1127419,,,black_plus_sign,,,,,null,US_Cities_List/boulder.png,US_Cities_List/hanover.png,,,,,,,,,,,,,,,,,,
null,,black_cross(without_color),1128356,,,yellow,,,,,null,US_Cities_List/boulder.png,US_Cities_List/hanover.png,,,,,,,,,,,,,,,,,,
null,,rt_plussign_withcolor,1128857,,,yellow,,,,,null,US_Cities_List/boulder.png,US_Cities_List/hanover.png,,,,,,,,,,,,,,,,,,
1035.4000000022352,,rt_thecrossant_black,1129922,,,black_plus_sign,,,,,50,,,1,0.9917355371900827,,,,,,,,,,,,,,,,
null,,color_black,1130023,,,black_plus_sign,,,,,null,,,,,,,,,,,,,,,,,,,,
null,,learn_phase(without_color),1133033,,,black_plus_sign,,,,,null,US_Cities_List/gatlinburg.png,US_Cities_List/westpalmbeach.png,,,,,,,,,,,,,,,,,,
null,,black_cross(without_color),1133733,,,blue,,,,,null,US_Cities_List/gatlinburg.png,US_Cities_List/westpalmbeach.png,,,,,,,,,,,,,,,,,,
null,,rt_plussign_withcolor,1134236,,,blue,,,,,null,US_Cities_List/gatlinburg.png,US_Cities_List/westpalmbeach.png,,,,,,,,,,,,,,,,,,
1099.800000000745,,rt_thecrossant_black,1135538,,,black_plus_sign,,,,,49,,,1,0.9918032786885246,,,,,,,,,,,,,,,,
null,,color_black,1135641,,,black_plus_sign,,,,,null,,,,,,,,,,,,,,,,,,,,
null,,learn_phase(without_color),1138651,,,black_plus_sign,,,,,null,US_Cities_List/westpalmbeach.png,US_Cities_List/gatlinburg.png,,,,,,,,,,,,,,,,,,
null,,black_cross(without_color),1139239,,,yellow,,,,,null,US_Cities_List/westpalmbeach.png,US_Cities_List/gatlinburg.png,,,,,,,,,,,,,,,,,,
null,,rt_plussign_withcolor,1139741,,,yellow,,,,,null,US_Cities_List/westpalmbeach.png,US_Cities_List/gatlinburg.png,,,,,,,,,,,,,,,,,,
1245,,rt_thecrossant_black,1141155,,,black_plus_sign,,,,,50,,,1,0.991869918699187,,,,,,,,,,,,,,,,
null,,color_black,1141257,,,black_plus_sign,,,,,null,,,,,,,,,,,,,,,,,,,,
null,,learn_phase(without_color),1144265,,,black_plus_sign,,,,,null,US_Cities_List/hanover.png,US_Cities_List/boulder.png,,,,,,,,,,,,,,,,,,
null,,black_cross(without_color),1145365,,,blue,,,,,null,US_Cities_List/hanover.png,US_Cities_List/boulder.png,,,,,,,,,,,,,,,,,,
null,,rt_plussign_withcolor,1145867,,,blue,,,,,null,US_Cities_List/hanover.png,US_Cities_List/boulder.png,,,,,,,,,,,,,,,,,,
799.1000000014901,,rt_thecrossant_black,1146770,,,black_plus_sign,,,,,49,,,1,0.9919354838709677,,,,,,,,,,,,,,,,
null,,color_black,1146872,,,black_plus_sign,,,,,null,,,,,,,,,,,,,,,,,,,,
null,,learn_phase(without_color),1149883,,,black_plus_sign,,,,,null,US_Cities_List/boulder.png,US_Cities_List/newhope.png,,,,,,,,,,,,,,,,,,
null,,black_cross(without_color),1150923,,,blue,,,,,null,US_Cities_List/boulder.png,US_Cities_List/newhope.png,,,,,,,,,,,,,,,,,,
null,,rt_plussign_withcolor,1151424,,,blue,,,,,null,US_Cities_List/boulder.png,US_Cities_List/newhope.png,,,,,,,,,,,,,,,,,,
1456.699999999255,,rt_thecrossant_black,1152387,,,black_plus_sign,,,,,49,,,1,0.992,,,,,,,,,,,,,,,,
null,,color_black,1152489,,,black_plus_sign,,,,,null,,,,,,,,,,,,,,,,,,,,
null,,learn_phase(without_color),1155496,,,black_plus_sign,,,,,null,US_Cities_List/shreveport.png,US_Cities_List/carmel.png,,,,,,,,,,,,,,,,,,
null,,black_cross(without_color),1156057,,,blue,,,,,null,US_Cities_List/shreveport.png,US_Cities_List/carmel.png,,,,,,,,,,,,,,,,,,
null,,rt_plussign_withcolor,1156558,,,blue,,,,,null,US_Cities_List/shreveport.png,US_Cities_List/carmel.png,,,,,,,,,,,,,,,,,,
1247.699999999255,,rt_thecrossant_black,1158001,,,black_plus_sign,,,,,49,,,1,0.9920634920634921,,,,,,,,,,,,,,,,
null,,color_black,1158103,,,black_plus_sign,,,,,null,,,,,,,,,,,,,,,,,,,,
null,,learn_phase(without_color),1161112,,,black_plus_sign,,,,,null,US_Cities_List/leesburg.png,US_Cities_List/shreveport.png,,,,,,,,,,,,,,,,,,
null,,black_cross(without_color),1161748,,,yellow,,,,,null,US_Cities_List/leesburg.png,US_Cities_List/shreveport.png,,,,,,,,,,,,,,,,,,
null,,rt_plussign_withcolor,1162249,,,yellow,,,,,null,US_Cities_List/leesburg.png,US_Cities_List/shreveport.png,,,,,,,,,,,,,,,,,,
747.6999999992549,,rt_thecrossant_black,1163616,,,black_plus_sign,,,,,50,,,1,0.9921259842519685,,,,,,,,,,,,,,,,
null,,color_black,1163719,,,black_plus_sign,,,,,null,,,,,,,,,,,,,,,,,,,,
null,,learn_break,1223722,,,learn_break,,,,,null,,,,,,,,,,,,,,,,,,,,
24773.5,,intro_1,1248496,,,instruct,,,0,,,,,,,,,,,,,,,,,,,,,,
33997.5,,intro_2,1282495,,,instruct,,,1,Next,,,,,,,,,,,,,,,,,,,,,
2296.800000000745,,directmemory_phase,1284803,,,../static/images/US_Cities_List/hanover.png,,,,,51,,,1,1,../static/images/US_Cities_List/westpalmbeach.png,../static/images/US_Cities_List/hotsprings.png,../static/images/US_Cities_List/boulder.png,../static/images/US_Cities_List/boulder.png,../static/images/US_Cities_List/hotsprings.png,../static/images/US_Cities_List/westpalmbeach.png,1,,,,,,,,,
null,,html-keyboard-response,1285806,,,<p></p>,,,,,null,,,,,,,,,,,,,,,,,,,,
1508.699999999255,,directmemory_phase,1287331,,,../static/images/US_Cities_List/cornwall.png,,,,,49,,,1,1,../static/images/US_Cities_List/westpalmbeach.png,../static/images/US_Cities_List/leesburg.png,../static/images/US_Cities_List/newhope.png,../static/images/US_Cities_List/westpalmbeach.png,../static/images/US_Cities_List/newhope.png,../static/images/US_Cities_List/leesburg.png,1,,,,,,,,,
null,,html-keyboard-response,1288334,,,<p></p>,,,,,null,,,,,,,,,,,,,,,,,,,,
2081,,directmemory_phase,1290427,,,../static/images/US_Cities_List/huntsville.png,,,,,49,,,1,1,../static/images/US_Cities_List/boulder.png,../static/images/US_Cities_List/hotsprings.png,../static/images/US_Cities_List/hanover.png,../static/images/US_Cities_List/boulder.png,../static/images/US_Cities_List/hanover.png,../static/images/US_Cities_List/hotsprings.png,1,,,,,,,,,
null,,html-keyboard-response,1291429,,,<p></p>,,,,,null,,,,,,,,,,,,,,,,,,,,
2763,,directmemory_phase,1294203,,,../static/images/US_Cities_List/hanover.png,,,,,51,,,1,1,../static/images/US_Cities_List/carmel.png,../static/images/US_Cities_List/shreveport.png,../static/images/US_Cities_List/leesburg.png,../static/images/US_Cities_List/leesburg.png,../static/images/US_Cities_List/shreveport.png,../static/images/US_Cities_List/carmel.png,1,,,,,,,,,
null,,html-keyboard-response,1295205,,,<p></p>,,,,,null,,,,,,,,,,,,,,,,,,,,
3235.199999999255,,directmemory_phase,1298451,,,../static/images/US_Cities_List/boulder.png,,,,,50,,,1,1,../static/images/US_Cities_List/racine.png,../static/images/US_Cities_List/huntsville.png,../static/images/US_Cities_List/hotsprings.png,../static/images/US_Cities_List/huntsville.png,../static/images/US_Cities_List/racine.png,../static/images/US_Cities_List/hotsprings.png,1,,,,,,,,,
null,,html-keyboard-response,1299465,,,<p></p>,,,,,null,,,,,,,,,,,,,,,,,,,,
2523.199999999255,,directmemory_phase,1302003,,,../static/images/US_Cities_List/newhope.png,,,,,50,,,1,1,../static/images/US_Cities_List/cornwall.png,../static/images/US_Cities_List/shreveport.png,../static/images/US_Cities_List/westpalmbeach.png,../static/images/US_Cities_List/shreveport.png,../static/images/US_Cities_List/cornwall.png,../static/images/US_Cities_List/westpalmbeach.png,1,,,,,,,,,
null,,html-keyboard-response,1303005,,,<p></p>,,,,,null,,,,,,,,,,,,,,,,,,,,
1711,,directmemory_phase,1304731,,,../static/images/US_Cities_List/boulder.png,,,,,50,,,1,1,../static/images/US_Cities_List/cornwall.png,../static/images/US_Cities_List/hanover.png,../static/images/US_Cities_List/carmel.png,../static/images/US_Cities_List/hanover.png,../static/images/US_Cities_List/cornwall.png,../static/images/US_Cities_List/carmel.png,1,,,,,,,,,
null,,html-keyboard-response,1305734,,,<p></p>,,,,,null,,,,,,,,,,,,,,,,,,,,
1869.800000000745,,directmemory_phase,1307619,,,../static/images/US_Cities_List/cornwall.png,,,,,51,,,1,1,../static/images/US_Cities_List/leesburg.png,../static/images/US_Cities_List/gatlinburg.png,../static/images/US_Cities_List/huntsville.png,../static/images/US_Cities_List/huntsville.png,../static/images/US_Cities_List/gatlinburg.png,../static/images/US_Cities_List/leesburg.png,1,,,,,,,,,
null,,html-keyboard-response,1308622,,,<p></p>,,,,,null,,,,,,,,,,,,,,,,,,,,
1295,,directmemory_phase,1309931,,,../static/images/US_Cities_List/leesburg.png,,,,,50,,,1,1,../static/images/US_Cities_List/newhope.png,../static/images/US_Cities_List/hotsprings.png,../static/images/US_Cities_List/huntsville.png,../static/images/US_Cities_List/hotsprings.png,../static/images/US_Cities_List/newhope.png,../static/images/US_Cities_List/huntsville.png,1,,,,,,,,,
null,,html-keyboard-response,1310934,,,<p></p>,,,,,null,,,,,,,,,,,,,,,,,,,,
2978.400000002235,,directmemory_phase,1313931,,,../static/images/US_Cities_List/huntsville.png,,,,,50,,,0,0.9,../static/images/US_Cities_List/cornwall.png,../static/images/US_Cities_List/hotsprings.png,../static/images/US_Cities_List/newhope.png,../static/images/US_Cities_List/cornwall.png,../static/images/US_Cities_List/newhope.png,../static/images/US_Cities_List/hotsprings.png,0.5,closer,,,,,,,,
null,,html-keyboard-response,1314933,,,<p></p>,,,,,null,,,,,,,,,,,,,,,,,,,,
1858.699999999255,,directmemory_phase,1316811,,,../static/images/US_Cities_List/shreveport.png,,,,,51,,,1,0.9090909090909091,../static/images/US_Cities_List/cornwall.png,../static/images/US_Cities_List/boulder.png,../static/images/US_Cities_List/leesburg.png,../static/images/US_Cities_List/leesburg.png,../static/images/US_Cities_List/boulder.png,../static/images/US_Cities_List/cornwall.png,1,,,,,,,,,
null,,html-keyboard-response,1317814,,,<p></p>,,,,,null,,,,,,,,,,,,,,,,,,,,
1518.699999999255,,directmemory_phase,1319347,,,../static/images/US_Cities_List/huntsville.png,,,,,49,,,1,0.9166666666666666,../static/images/US_Cities_List/westpalmbeach.png,../static/images/US_Cities_List/carmel.png,../static/images/US_Cities_List/gatlinburg.png,../static/images/US_Cities_List/westpalmbeach.png,../static/images/US_Cities_List/gatlinburg.png,../static/images/US_Cities_List/carmel.png,1,,,,,,,,,
null,,html-keyboard-response,1320349,,,<p></p>,,,,,null,,,,,,,,,,,,,,,,,,,,
1993.699999999255,,directmemory_phase,1322363,,,../static/images/US_Cities_List/cornwall.png,,,,,49,,,1,0.9230769230769231,../static/images/US_Cities_List/racine.png,../static/images/US_Cities_List/leesburg.png,../static/images/US_Cities_List/newhope.png,../static/images/US_Cities_List/racine.png,../static/images/US_Cities_List/newhope.png,../static/images/US_Cities_List/leesburg.png,1,,,,,,,,,
null,,html-keyboard-response,1323366,,,<p></p>,,,,,null,,,,,,,,,,,,,,,,,,,,
2165.39999999851,,directmemory_phase,1325547,,,../static/images/US_Cities_List/shreveport.png,,,,,51,,,1,0.9285714285714286,../static/images/US_Cities_List/westpalmbeach.png,../static/images/US_Cities_List/racine.png,../static/images/US_Cities_List/newhope.png,../static/images/US_Cities_List/newhope.png,../static/images/US_Cities_List/racine.png,../static/images/US_Cities_List/westpalmbeach.png,1,,,,,,,,,
null,,html-keyboard-response,1326550,,,<p></p>,,,,,null,,,,,,,,,,,,,,,,,,,,
2555.199999999255,,directmemory_phase,1329115,,,../static/images/US_Cities_List/westpalmbeach.png,,,,,51,,,1,0.9333333333333333,../static/images/US_Cities_List/hanover.png,../static/images/US_Cities_List/boulder.png,../static/images/US_Cities_List/huntsville.png,../static/images/US_Cities_List/huntsville.png,../static/images/US_Cities_List/boulder.png,../static/images/US_Cities_List/hanover.png,1,,,,,,,,,
null,,html-keyboard-response,1330117,,,<p></p>,,,,,null,,,,,,,,,,,,,,,,,,,,
1772.7000000029802,,directmemory_phase,1331907,,,../static/images/US_Cities_List/racine.png,,,,,51,,,1,0.9375,../static/images/US_Cities_List/carmel.png,../static/images/US_Cities_List/westpalmbeach.png,../static/images/US_Cities_List/newhope.png,../static/images/US_Cities_List/newhope.png,../static/images/US_Cities_List/westpalmbeach.png,../static/images/US_Cities_List/carmel.png,1,,,,,,,,,
null,,html-keyboard-response,1332910,,,<p></p>,,,,,null,,,,,,,,,,,,,,,,,,,,
2129.199999999255,,directmemory_phase,1335051,,,../static/images/US_Cities_List/leesburg.png,,,,,51,,,1,0.9411764705882353,../static/images/US_Cities_List/westpalmbeach.png,../static/images/US_Cities_List/boulder.png,../static/images/US_Cities_List/shreveport.png,../static/images/US_Cities_List/shreveport.png,../static/images/US_Cities_List/boulder.png,../static/images/US_Cities_List/westpalmbeach.png,1,,,,,,,,,
null,,html-keyboard-response,1336053,,,<p></p>,,,,,null,,,,,,,,,,,,,,,,,,,,
1551.4000000022352,,directmemory_phase,1337619,,,../static/images/US_Cities_List/racine.png,,,,,49,,,1,0.9444444444444444,../static/images/US_Cities_List/huntsville.png,../static/images/US_Cities_List/carmel.png,../static/images/US_Cities_List/westpalmbeach.png,../static/images/US_Cities_List/huntsville.png,../static/images/US_Cities_List/westpalmbeach.png,../static/images/US_Cities_List/carmel.png,1,,,,,,,,,
null,,html-keyboard-response,1338621,,,<p></p>,,,,,null,,,,,,,,,,,,,,,,,,,,
1919,,directmemory_phase,1340555,,,../static/images/US_Cities_List/shreveport.png,,,,,51,,,0,0.8947368421052632,../static/images/US_Cities_List/carmel.png,../static/images/US_Cities_List/westpalmbeach.png,../static/images/US_Cities_List/boulder.png,../static/images/US_Cities_List/carmel.png,../static/images/US_Cities_List/boulder.png,../static/images/US_Cities_List/westpalmbeach.png,0.5,closer,,,,,,,,
null,,html-keyboard-response,1341558,,,<p></p>,,,,,null,,,,,,,,,,,,,,,,,,,,
1542.199999999255,,directmemory_phase,1343115,,,../static/images/US_Cities_List/newhope.png,,,,,51,,,1,0.9,../static/images/US_Cities_List/peoria.png,../static/images/US_Cities_List/hanover.png,../static/images/US_Cities_List/racine.png,../static/images/US_Cities_List/racine.png,../static/images/US_Cities_List/hanover.png,../static/images/US_Cities_List/peoria.png,1,,,,,,,,,
null,,html-keyboard-response,1344118,,,<p></p>,,,,,null,,,,,,,,,,,,,,,,,,,,
2348.2000000029802,,directmemory_phase,1346483,,,../static/images/US_Cities_List/leesburg.png,,,,,51,,,1,0.9047619047619048,../static/images/US_Cities_List/westpalmbeach.png,../static/images/US_Cities_List/newhope.png,../static/images/US_Cities_List/hanover.png,../static/images/US_Cities_List/hanover.png,../static/images/US_Cities_List/newhope.png,../static/images/US_Cities_List/westpalmbeach.png,1,,,,,,,,,
null,,html-keyboard-response,1347485,,,<p></p>,,,,,null,,,,,,,,,,,,,,,,,,,,
2580,,directmemory_phase,1350083,,,../static/images/US_Cities_List/gatlinburg.png,,,,,50,,,1,0.9090909090909091,../static/images/US_Cities_List/cornwall.png,../static/images/US_Cities_List/westpalmbeach.png,../static/images/US_Cities_List/newhope.png,../static/images/US_Cities_List/westpalmbeach.png,../static/images/US_Cities_List/cornwall.png,../static/images/US_Cities_List/newhope.png,1,,,,,,,,,
null,,html-keyboard-response,1351086,,,<p></p>,,,,,null,,,,,,,,,,,,,,,,,,,,
2728.800000000745,,directmemory_phase,1353835,,,../static/images/US_Cities_List/racine.png,,,,,51,,,1,0.9130434782608695,../static/images/US_Cities_List/hanover.png,../static/images/US_Cities_List/boulder.png,../static/images/US_Cities_List/cornwall.png,../static/images/US_Cities_List/cornwall.png,../static/images/US_Cities_List/boulder.png,../static/images/US_Cities_List/hanover.png,1,,,,,,,,,
null,,html-keyboard-response,1354837,,,<p></p>,,,,,null,,,,,,,,,,,,,,,,,,,,
2204.89999999851,,directmemory_phase,1357059,,,../static/images/US_Cities_List/westpalmbeach.png,,,,,49,,,1,0.9166666666666666,../static/images/US_Cities_List/gatlinburg.png,../static/images/US_Cities_List/leesburg.png,../static/images/US_Cities_List/peoria.png,../static/images/US_Cities_List/gatlinburg.png,../static/images/US_Cities_List/peoria.png,../static/images/US_Cities_List/leesburg.png,1,,,,,,,,,
null,,html-keyboard-response,1358061,,,<p></p>,,,,,null,,,,,,,,,,,,,,,,,,,,
2066.5,,directmemory_phase,1360139,,,../static/images/US_Cities_List/hotsprings.png,,,,,51,,,1,0.92,../static/images/US_Cities_List/boulder.png,../static/images/US_Cities_List/shreveport.png,../static/images/US_Cities_List/leesburg.png,../static/images/US_Cities_List/leesburg.png,../static/images/US_Cities_List/shreveport.png,../static/images/US_Cities_List/boulder.png,1,,,,,,,,,
null,,html-keyboard-response,1361142,,,<p></p>,,,,,null,,,,,,,,,,,,,,,,,,,,
2703.400000002235,,directmemory_phase,1363859,,,../static/images/US_Cities_List/boulder.png,,,,,50,,,1,0.9230769230769231,../static/images/US_Cities_List/westpalmbeach.png,../static/images/US_Cities_List/newhope.png,../static/images/US_Cities_List/hotsprings.png,../static/images/US_Cities_List/newhope.png,../static/images/US_Cities_List/westpalmbeach.png,../static/images/US_Cities_List/hotsprings.png,1,,,,,,,,,
null,,html-keyboard-response,1364862,,,<p></p>,,,,,null,,,,,,,,,,,,,,,,,,,,
2421.800000000745,,directmemory_phase,1367299,,,../static/images/US_Cities_List/westpalmbeach.png,,,,,49,,,0,0.8888888888888888,../static/images/US_Cities_List/boulder.png,../static/images/US_Cities_List/cornwall.png,../static/images/US_Cities_List/hanover.png,../static/images/US_Cities_List/cornwall.png,../static/images/US_Cities_List/boulder.png,../static/images/US_Cities_List/hanover.png,0.5,closer,,,,,,,,
null,,html-keyboard-response,1368302,,,<p></p>,,,,,null,,,,,,,,,,,,,,,,,,,,
2328.300000000745,,directmemory_phase,1370643,,,../static/images/US_Cities_List/newhope.png,,,,,51,,,1,0.8928571428571429,../static/images/US_Cities_List/gatlinburg.png,../static/images/US_Cities_List/carmel.png,../static/images/US_Cities_List/boulder.png,../static/images/US_Cities_List/boulder.png,../static/images/US_Cities_List/carmel.png,../static/images/US_Cities_List/gatlinburg.png,1,,,,,,,,,
null,,html-keyboard-response,1371647,,,<p></p>,,,,,null,,,,,,,,,,,,,,,,,,,,
1370.5,,directmemory_phase,1373035,,,../static/images/US_Cities_List/peoria.png,,,,,50,,,1,0.896551724137931,../static/images/US_Cities_List/racine.png,../static/images/US_Cities_List/cornwall.png,../static/images/US_Cities_List/boulder.png,../static/images/US_Cities_List/cornwall.png,../static/images/US_Cities_List/racine.png,../static/images/US_Cities_List/boulder.png,1,,,,,,,,,
null,,html-keyboard-response,1374038,,,<p></p>,,,,,null,,,,,,,,,,,,,,,,,,,,
1150.5,,directmemory_phase,1375203,,,../static/images/US_Cities_List/carmel.png,,,,,51,,,1,0.9,../static/images/US_Cities_List/hotsprings.png,../static/images/US_Cities_List/newhope.png,../static/images/US_Cities_List/shreveport.png,../static/images/US_Cities_List/shreveport.png,../static/images/US_Cities_List/newhope.png,../static/images/US_Cities_List/hotsprings.png,1,,,,,,,,,
null,,html-keyboard-response,1376218,,,<p></p>,,,,,null,,,,,,,,,,,,,,,,,,,,
1260.5999999977648,,directmemory_phase,1377499,,,../static/images/US_Cities_List/cornwall.png,,,,,50,,,1,0.9032258064516129,../static/images/US_Cities_List/boulder.png,../static/images/US_Cities_List/peoria.png,../static/images/US_Cities_List/carmel.png,../static/images/US_Cities_List/peoria.png,../static/images/US_Cities_List/boulder.png,../static/images/US_Cities_List/carmel.png,1,,,,,,,,,
null,,html-keyboard-response,1378501,,,<p></p>,,,,,null,,,,,,,,,,,,,,,,,,,,
1408.300000000745,,directmemory_phase,1379923,,,../static/images/US_Cities_List/huntsville.png,,,,,50,,,1,0.90625,../static/images/US_Cities_List/hanover.png,../static/images/US_Cities_List/racine.png,../static/images/US_Cities_List/shreveport.png,../static/images/US_Cities_List/racine.png,../static/images/US_Cities_List/hanover.png,../static/images/US_Cities_List/shreveport.png,1,,,,,,,,,
null,,html-keyboard-response,1380924,,,<p></p>,,,,,null,,,,,,,,,,,,,,,,,,,,
23506.699999999255,,intro_1,1404432,,,instruct,,,0,,,,,,,,,,,,,,,,,,,,,,
15176.599999997765,,intro_2,1419610,,,instruct,,,1,Next,,,,,,,,,,,,,,,,,,,,,
17562.800000000745,,intro_3,1437174,,,instruct,,,1,Next,,,,,,,,,,,,,,,,,,,,,
15853.800000000745,,intro_4,1453029,,,instruct,,,1,Next,,,,,,,,,,,,,,,,,,,,,
39652.89999999851,,intro_5,1492683,,,instruct,,,1,Next,,,,,,,,,,,,,,,,,,,,,
10672.39999999851,,intro_6,1503357,,,instruct,,,1,Next,,,,,,,,,,,,,,,,,,,,,
35841.60000000149,,intro_7,1539200,,,instruct,,,1,Next,,,,,,,,,,,,,,,,,,,,,
35118.39999999851,,intro_8,1574319,,,instruct,,,1,Next,,,,,,,,,,,,,,,,,,,,,
43864.699999999255,,intro_9,1618185,,,instruct,,,1,Next,,,,,,,,,,,,,,,,,,,,,
44348.699999999255,,intro_10,1662535,,,instruct,,,1,Next,,,,,,,,,,,,,,,,,,,,,
23114.39999999851,,intro_11,1685651,,,instruct,,,1,Next,,,,,,,,,,,,,,,,,,,,,
4181.599999997765,,shortestpath_phase,1689842,,,../static/images/US_Cities_List/westpalmbeach.png,,,,,49,../static/images/US_Cities_List/boulder.png,../static/images/US_Cities_List/hotsprings.png,1,1,,,,../static/images/US_Cities_List/boulder.png,,,,,Three Edge Diff,Two Edge Five Edge,,,,,,
null,,html-keyboard-response,1690845,,,<p></p>,,,,,null,,,,,,,,,,,,,,,,,,,,
3209.900000002235,,shortestpath_phase,1694067,,,../static/images/US_Cities_List/hotsprings.png,,,,,50,../static/images/US_Cities_List/peoria.png,../static/images/US_Cities_List/racine.png,1,1,,,,../static/images/US_Cities_List/racine.png,,,,,Two Edge Diff,Four Edge Six Edge,,,,,,
null,,html-keyboard-response,1695070,,,<p></p>,,,,,null,,,,,,,,,,,,,,,,,,,,
3010.300000000745,,shortestpath_phase,1698091,,,../static/images/US_Cities_List/leesburg.png,,,,,50,../static/images/US_Cities_List/carmel.png,../static/images/US_Cities_List/gatlinburg.png,0,0.6666666666666666,,,,../static/images/US_Cities_List/carmel.png,,,,,Three Edge Diff,Two Edge Five Edge,,,,,,
null,,html-keyboard-response,1699093,,,<p></p>,,,,,null,,,,,,,,,,,,,,,,,,,,
3465.7999999970198,,shortestpath_phase,1702570,,,../static/images/US_Cities_List/gatlinburg.png,,,,,50,../static/images/US_Cities_List/hanover.png,../static/images/US_Cities_List/carmel.png,0,0.5,,,,../static/images/US_Cities_List/hanover.png,,,,,Two Edge Diff,Four Edge Six Edge,,,,,,
null,,html-keyboard-response,1703574,,,<p></p>,,,,,null,,,,,,,,,,,,,,,,,,,,
2746.89999999851,,shortestpath_phase,1706330,,,../static/images/US_Cities_List/leesburg.png,,,,,50,../static/images/US_Cities_List/gatlinburg.png,../static/images/US_Cities_List/carmel.png,1,0.6,,,,../static/images/US_Cities_List/carmel.png,,,,,Three Edge Diff,Three Edge Six Edge,,,,,,
null,,html-keyboard-response,1707332,,,<p></p>,,,,,null,,,,,,,,,,,,,,,,,,,,
3271.300000000745,,shortestpath_phase,1710619,,,../static/images/US_Cities_List/gatlinburg.png,,,,,49,../static/images/US_Cities_List/cornwall.png,../static/images/US_Cities_List/carmel.png,1,0.6666666666666666,,,,../static/images/US_Cities_List/cornwall.png,,,,,Four Edge Diff,Two Edge Six Edge,,,,,,
null,,html-keyboard-response,1711621,,,<p></p>,,,,,null,,,,,,,,,,,,,,,,,,,,
3163,,shortestpath_phase,1714794,,,../static/images/US_Cities_List/carmel.png,,,,,49,../static/images/US_Cities_List/boulder.png,../static/images/US_Cities_List/peoria.png,1,0.7142857142857143,,,,../static/images/US_Cities_List/boulder.png,,,,,Two Edge Diff,Three Edge Five Edge,,,,,,
null,,html-keyboard-response,1715796,,,<p></p>,,,,,null,,,,,,,,,,,,,,,,,,,,
2821.39999999851,,shortestpath_phase,1718626,,,../static/images/US_Cities_List/gatlinburg.png,,,,,50,../static/images/US_Cities_List/shreveport.png,../static/images/US_Cities_List/huntsville.png,1,0.75,,,,../static/images/US_Cities_List/huntsville.png,,,,,Three Edge Diff,Three Edge Six Edge,,,,,,
null,,html-keyboard-response,1719628,,,<p></p>,,,,,null,,,,,,,,,,,,,,,,,,,,
2277,,shortestpath_phase,1721922,,,../static/images/US_Cities_List/carmel.png,,,,,49,../static/images/US_Cities_List/gatlinburg.png,../static/images/US_Cities_List/cornwall.png,0,0.6666666666666666,,,,../static/images/US_Cities_List/cornwall.png,,,,,Two Edge Diff,Four Edge Six Edge,,,,,,
null,,html-keyboard-response,1722925,,,<p></p>,,,,,null,,,,,,,,,,,,,,,,,,,,
1898.8999999985099,,shortestpath_phase,1724834,,,../static/images/US_Cities_List/gatlinburg.png,,,,,50,../static/images/US_Cities_List/hotsprings.png,../static/images/US_Cities_List/hanover.png,1,0.7,,,,../static/images/US_Cities_List/hanover.png,,,,,Two Edge Diff,Four Edge Six Edge,,,,,,
null,,html-keyboard-response,1725837,,,<p></p>,,,,,null,,,,,,,,,,,,,,,,,,,,
1761.1000000014901,,shortestpath_phase,1727610,,,../static/images/US_Cities_List/peoria.png,,,,,50,../static/images/US_Cities_List/hotsprings.png,../static/images/US_Cities_List/racine.png,1,0.7272727272727273,,,,../static/images/US_Cities_List/racine.png,,,,,Four Edge Diff,Two Edge Six Edge,,,,,,
null,,html-keyboard-response,1728613,,,<p></p>,,,,,null,,,,,,,,,,,,,,,,,,,,
3338.10000000149,,shortestpath_phase,1731962,,,../static/images/US_Cities_List/gatlinburg.png,,,,,50,../static/images/US_Cities_List/leesburg.png,../static/images/US_Cities_List/huntsville.png,1,0.75,,,,../static/images/US_Cities_List/huntsville.png,,,,,Three Edge Diff,Two Edge Five Edge,,,,,,
null,,html-keyboard-response,1732974,,,<p></p>,,,,,null,,,,,,,,,,,,,,,,,,,,
2613.89999999851,,shortestpath_phase,1735602,,,../static/images/US_Cities_List/hotsprings.png,,,,,49,../static/images/US_Cities_List/gatlinburg.png,../static/images/US_Cities_List/racine.png,0,0.6923076923076923,,,,../static/images/US_Cities_List/racine.png,,,,,Two Edge Diff,Four Edge Six Edge,,,,,,
null,,html-keyboard-response,1736605,,,<p></p>,,,,,null,,,,,,,,,,,,,,,,,,,,
3008.199999999255,,shortestpath_phase,1739626,,,../static/images/US_Cities_List/gatlinburg.png,,,,,50,../static/images/US_Cities_List/newhope.png,../static/images/US_Cities_List/leesburg.png,0,0.6428571428571429,,,,../static/images/US_Cities_List/newhope.png,,,,,One Edge Diff,Four Edge Five Edge,,,,,,
