rt,responses,trial_type,time_elapsed,image_type,sequence,stimulus,cities,city_images,button_pressed,response,key_press,stimulus_left,stimulus_right,cumulative_accuracy,accuracy,stimulus_down_left,stimulus_down_mid,stimulus_down_right,stimulus_correct,stimulus_short,stimulus_far,weighted_accuracy,missedtrial,condition,specific_pairs,imgL_ID,imgR_ID,linedress,linedressed,linedressed_detor,detour_trial
4276.899999976158,{worker_id:63af557b3d4f219c3226b7d6},id_enter,4279,fictional,interleaved,flights,North Arroya; Delaro Park; Hawthorne Bluffs; Claywater; Sunmere; Riverlyn; New Verdan; Granton Ridge; Orchard Bend; Baymarsh; Hollendale; Cedarwyn; Juniper Creek,US_Cities_List/newhope.png; US_Cities_List/cornwall.png; US_Cities_List/shreveport.png; US_Cities_List/boulder.png; US_Cities_List/hotsprings.png; US_Cities_List/westpalmbeach.png; US_Cities_List/racine.png; US_Cities_List/hanover.png; US_Cities_List/peoria.png; US_Cities_List/leesburg.png; US_Cities_List/carmel.png; US_Cities_List/huntsville.png; US_Cities_List/gatlinburg.png,,,,,,,,,,,,,,,,,,,,,,,
4203.5,,fullscreen,8489,,,make_fullscreen,,,0,,,,,,,,,,,,,,,,,,,,,,
5879.5999999940395,,intro_1,14375,,,instruct,,,0,,,,,,,,,,,,,,,,,,,,,,
7871.0999999940395,,intro_2,22251,,,instruct,,,1,Next,,,,,,,,,,,,,,,,,,,,,
13543.600000023842,,intro_3,35800,,,instruct,,,1,Next,,,,,,,,,,,,,,,,,,,,,
7159.9000000059605,,intro_4,42964,,,instruct,,,1,Next,,,,,,,,,,,,,,,,,,,,,
15657.199999988079,,intro_5,58624,,,instruct,,,1,Next,,,,,,,,,,,,,,,,,,,,,
29445.19999998808,,intro_6,88076,,,instruct,,,1,Next,,,,,,,,,,,,,,,,,,,,,
16027.5,,intro_7,104106,,,instruct,,,1,Next,,,,,,,,,,,,,,,,,,,,,
null,,learn_prac_1,107113,,,lean_prac_1,,,,,null,,,,,,,,,,,,,,,,,,,,
null,,html-keyboard-response,108121,,,<p></p>,,,,,null,,,,,,,,,,,,,,,,,,,,
12685.09999999404,,intro_1,120808,,,instruct,,,0,,,,,,,,,,,,,,,,,,,,,,
6648.799999982119,,intro_2,127465,,,instruct,,,1,Next,,,,,,,,,,,,,,,,,,,,,
null,,learn_prac_2,130479,,,lean_prac_2,,,,,null,,,,,,,,,,,,,,,,,,,,
null,,html-keyboard-response,131493,,,<p></p>,,,,,null,,,,,,,,,,,,,,,,,,,,
10969.90000000596,,intro_1,142465,,,instruct,,,0,,,,,,,,,,,,,,,,,,,,,,
3577.0999999940395,,intro_2,146047,,,instruct,,,1,Next,,,,,,,,,,,,,,,,,,,,,
13320.90000000596,,intro_3,159372,,,instruct,,,1,Next,,,,,,,,,,,,,,,,,,,,,
null,,prac_atten_color_black,159983,,,black_plus_sign,,,,,null,,,,,,,,,,,,,,,,,,,,
708.3000000119209,,prac_atten_color,160782,,,prac_stop_color,,,,,49,,,,,,,,,,,,,,,,,,,,
null,,prac_atten_color_black,162787,,,black_plus_sign,,,,,null,,,,,,,,,,,,,,,,,,,,
null,,prac_atten_color_black,163399,,,black_plus_sign,,,,,null,,,,,,,,,,,,,,,,,,,,
556,,prac_atten_color,164187,,,prac_stop_color,,,,,50,,,,,,,,,,,,,,,,,,,,
null,,prac_atten_color_black,166196,,,black_plus_sign,,,,,null,,,,,,,,,,,,,,,,,,,,
null,,prac_atten_color_black,166829,,,black_plus_sign,,,,,null,,,,,,,,,,,,,,,,,,,,
513.8000000119209,,prac_atten_color,167731,,,prac_stop_color,,,,,50,,,,,,,,,,,,,,,,,,,,
null,,prac_atten_color_black,169739,,,black_plus_sign,,,,,null,,,,,,,,,,,,,,,,,,,,
null,,prac_atten_color_black,170259,,,black_plus_sign,,,,,null,,,,,,,,,,,,,,,,,,,,
452.2999999821186,,prac_atten_color,171123,,,prac_stop_color,,,,,49,,,,,,,,,,,,,,,,,,,,
null,,prac_atten_color_black,173137,,,black_plus_sign,,,,,null,,,,,,,,,,,,,,,,,,,,
null,,prac_atten_color_black,173704,,,black_plus_sign,,,,,null,,,,,,,,,,,,,,,,,,,,
470.90000000596046,,prac_atten_color,174590,,,prac_stop_color,,,,,50,,,,,,,,,,,,,,,,,,,,
null,,prac_atten_color_black,176597,,,black_plus_sign,,,,,null,,,,,,,,,,,,,,,,,,,,
null,,prac_atten_color_black,177140,,,black_plus_sign,,,,,null,,,,,,,,,,,,,,,,,,,,
479.2999999821186,,prac_atten_color,177901,,,prac_stop_color,,,,,50,,,,,,,,,,,,,,,,,,,,
null,,prac_atten_color_black,179903,,,black_plus_sign,,,,,null,,,,,,,,,,,,,,,,,,,,
null,,prac_atten_color_black,180551,,,black_plus_sign,,,,,null,,,,,,,,,,,,,,,,,,,,
378.7999999821186,,prac_atten_color,181325,,,prac_stop_color,,,,,49,,,,,,,,,,,,,,,,,,,,
null,,prac_atten_color_black,183333,,,black_plus_sign,,,,,null,,,,,,,,,,,,,,,,,,,,
null,,prac_atten_color_black,183981,,,black_plus_sign,,,,,null,,,,,,,,,,,,,,,,,,,,
424.5,,prac_atten_color,184982,,,prac_stop_color,,,,,50,,,,,,,,,,,,,,,,,,,,
null,,prac_atten_color_black,186987,,,black_plus_sign,,,,,null,,,,,,,,,,,,,,,,,,,,
null,,prac_atten_color_black,187406,,,black_plus_sign,,,,,null,,,,,,,,,,,,,,,,,,,,
557.5,,prac_atten_color,188112,,,prac_stop_color,,,,,50,,,,,,,,,,,,,,,,,,,,
null,,prac_atten_color_black,190131,,,black_plus_sign,,,,,null,,,,,,,,,,,,,,,,,,,,
4000.2999999821186,,attentioncheck_help,194133,,,instruct,,,,,32,,,,,,,,,,,,,,,,,,,,
null,,prac_atten_color_black,194837,,,black_plus_sign,,,,,null,,,,,,,,,,,,,,,,,,,,
null,,prac_atten_color,195470,,,prac_stop_color,,,,,null,,,,,,,,,,,,,,,,,,,,
362.2000000178814,,prac_atten_color_black,197481,,,black_plus_sign,,,,,49,,,,,,,,,,,,,,,,,,,,
4602.4000000059605,,attentioncheck_feedback,202088,,,cross_check_feedback,,,0,,,,,,,,,,,,,,,,,,,,,,
6419,,last_instruct,208510,,,instruct,,,,,32,,,,,,,,,,,,,,,,,,,,
null,,learn_phase(without_color),211529,,,black_plus_sign,,,,,null,US_Cities_List/carmel.png,US_Cities_List/peoria.png,,,,,,,,,,,,,,,,,,
null,,black_cross(without_color),212334,,,blue,,,,,null,US_Cities_List/carmel.png,US_Cities_List/peoria.png,,,,,,,,,,,,,,,,,,
null,,rt_plussign_withcolor,212842,,,blue,,,,,null,US_Cities_List/carmel.png,US_Cities_List/peoria.png,,,,,,,,,,,,,,,,,,
null,,rt_thecrossant_black,214053,,,black_plus_sign,,,,,null,,,NaN,,,,,,,,,,,,,,,,,
null,,color_black,214169,,,black_plus_sign,,,,,null,,,,,,,,,,,,,,,,,,,,
null,,learn_phase(without_color),217190,,,black_plus_sign,,,,,null,US_Cities_List/cornwall.png,US_Cities_List/newhope.png,,,,,,,,,,,,,,,,,,
null,,black_cross(without_color),217727,,,yellow,,,,,null,US_Cities_List/cornwall.png,US_Cities_List/newhope.png,,,,,,,,,,,,,,,,,,
null,,rt_plussign_withcolor,218229,,,yellow,,,,,null,US_Cities_List/cornwall.png,US_Cities_List/newhope.png,,,,,,,,,,,,,,,,,,
null,,rt_thecrossant_black,219707,,,black_plus_sign,,,,,null,,,NaN,,,,,,,,,,,,,,,,,
null,,warning_page,222715,,,warning,,,,,null,,,,,,,,,,,,,,,,,,,,
null,,color_black,222823,,,black_plus_sign,,,,,null,,,,,,,,,,,,,,,,,,,,
null,,learn_phase(without_color),225841,,,black_plus_sign,,,,,null,US_Cities_List/huntsville.png,US_Cities_List/carmel.png,,,,,,,,,,,,,,,,,,
null,,black_cross(without_color),226257,,,blue,,,,,null,US_Cities_List/huntsville.png,US_Cities_List/carmel.png,,,,,,,,,,,,,,,,,,
null,,rt_plussign_withcolor,226763,,,blue,,,,,null,US_Cities_List/huntsville.png,US_Cities_List/carmel.png,,,,,,,,,,,,,,,,,,
777.5,,rt_thecrossant_black,228369,,,black_plus_sign,,,,,50,,,0,0,,,,,,,,,,,,,,,,
null,,warning_page,231373,,,warning,,,,,null,,,,,,,,,,,,,,,,,,,,
null,,color_black,231479,,,black_plus_sign,,,,,null,,,,,,,,,,,,,,,,,,,,
null,,learn_phase(without_color),234497,,,black_plus_sign,,,,,null,US_Cities_List/shreveport.png,US_Cities_List/westpalmbeach.png,,,,,,,,,,,,,,,,,,
null,,black_cross(without_color),235057,,,blue,,,,,null,US_Cities_List/shreveport.png,US_Cities_List/westpalmbeach.png,,,,,,,,,,,,,,,,,,
null,,rt_plussign_withcolor,235565,,,blue,,,,,null,US_Cities_List/shreveport.png,US_Cities_List/westpalmbeach.png,,,,,,,,,,,,,,,,,,
539.4000000059605,,rt_thecrossant_black,237022,,,black_plus_sign,,,,,49,,,0.5,1,,,,,,,,,,,,,,,,
null,,color_black,237131,,,black_plus_sign,,,,,null,,,,,,,,,,,,,,,,,,,,
null,,learn_phase(without_color),240149,,,black_plus_sign,,,,,null,US_Cities_List/racine.png,US_Cities_List/peoria.png,,,,,,,,,,,,,,,,,,
null,,black_cross(without_color),241016,,,blue,,,,,null,US_Cities_List/racine.png,US_Cities_List/peoria.png,,,,,,,,,,,,,,,,,,
null,,rt_plussign_withcolor,241523,,,blue,,,,,null,US_Cities_List/racine.png,US_Cities_List/peoria.png,,,,,,,,,,,,,,,,,,
699,,rt_thecrossant_black,242673,,,black_plus_sign,,,,,49,,,0.6666666666666666,1,,,,,,,,,,,,,,,,
null,,color_black,242789,,,black_plus_sign,,,,,null,,,,,,,,,,,,,,,,,,,,
null,,learn_phase(without_color),245809,,,black_plus_sign,,,,,null,US_Cities_List/racine.png,US_Cities_List/westpalmbeach.png,,,,,,,,,,,,,,,,,,
null,,black_cross(without_color),246338,,,blue,,,,,null,US_Cities_List/racine.png,US_Cities_List/westpalmbeach.png,,,,,,,,,,,,,,,,,,
457.80000001192093,,rt_plussign_withcolor,246842,,,blue,,,,,49,US_Cities_List/racine.png,US_Cities_List/westpalmbeach.png,,,,,,,,,,,,,,,,,,
null,,rt_thecrossant_black,248320,,,black_plus_sign,,,,,null,,,0.75,1,,,,,,,,,,,,,,,,
null,,color_black,248426,,,black_plus_sign,,,,,null,,,,,,,,,,,,,,,,,,,,
null,,learn_phase(without_color),251448,,,black_plus_sign,,,,,null,US_Cities_List/newhope.png,US_Cities_List/cornwall.png,,,,,,,,,,,,,,,,,,
null,,black_cross(without_color),252449,,,yellow,,,,,null,US_Cities_List/newhope.png,US_Cities_List/cornwall.png,,,,,,,,,,,,,,,,,,
316.5,,rt_plussign_withcolor,252955,,,yellow,,,,,50,US_Cities_List/newhope.png,US_Cities_List/cornwall.png,,,,,,,,,,,,,,,,,,
null,,rt_thecrossant_black,253971,,,black_plus_sign,,,,,null,,,0.8,1,,,,,,,,,,,,,,,,
null,,color_black,254087,,,black_plus_sign,,,,,null,,,,,,,,,,,,,,,,,,,,
null,,learn_phase(without_color),257115,,,black_plus_sign,,,,,null,US_Cities_List/peoria.png,US_Cities_List/westpalmbeach.png,,,,,,,,,,,,,,,,,,
null,,black_cross(without_color),258129,,,yellow,,,,,null,US_Cities_List/peoria.png,US_Cities_List/westpalmbeach.png,,,,,,,,,,,,,,,,,,
null,,rt_plussign_withcolor,258633,,,yellow,,,,,null,US_Cities_List/peoria.png,US_Cities_List/westpalmbeach.png,,,,,,,,,,,,,,,,,,
1321.5,,rt_thecrossant_black,259631,,,black_plus_sign,,,,,50,,,0.8333333333333334,1,,,,,,,,,,,,,,,,
null,,color_black,259740,,,black_plus_sign,,,,,null,,,,,,,,,,,,,,,,,,,,
null,,learn_phase(without_color),262753,,,black_plus_sign,,,,,null,US_Cities_List/hotsprings.png,US_Cities_List/boulder.png,,,,,,,,,,,,,,,,,,
null,,black_cross(without_color),263205,,,blue,,,,,null,US_Cities_List/hotsprings.png,US_Cities_List/boulder.png,,,,,,,,,,,,,,,,,,
410.59999999403954,,rt_plussign_withcolor,263709,,,blue,,,,,49,US_Cities_List/hotsprings.png,US_Cities_List/boulder.png,,,,,,,,,,,,,,,,,,
null,,rt_thecrossant_black,265281,,,black_plus_sign,,,,,null,,,0.8571428571428571,1,,,,,,,,,,,,,,,,
null,,color_black,265389,,,black_plus_sign,,,,,null,,,,,,,,,,,,,,,,,,,,
null,,learn_phase(without_color),268406,,,black_plus_sign,,,,,null,US_Cities_List/peoria.png,US_Cities_List/carmel.png,,,,,,,,,,,,,,,,,,
null,,black_cross(without_color),269449,,,blue,,,,,null,US_Cities_List/peoria.png,US_Cities_List/carmel.png,,,,,,,,,,,,,,,,,,
375.40000000596046,,rt_plussign_withcolor,269956,,,blue,,,,,49,US_Cities_List/peoria.png,US_Cities_List/carmel.png,,,,,,,,,,,,,,,,,,
null,,rt_thecrossant_black,270923,,,black_plus_sign,,,,,null,,,0.875,1,,,,,,,,,,,,,,,,
null,,color_black,271039,,,black_plus_sign,,,,,null,,,,,,,,,,,,,,,,,,,,
null,,learn_phase(without_color),274064,,,black_plus_sign,,,,,null,US_Cities_List/westpalmbeach.png,US_Cities_List/peoria.png,,,,,,,,,,,,,,,,,,
null,,black_cross(without_color),274810,,,blue,,,,,null,US_Cities_List/westpalmbeach.png,US_Cities_List/peoria.png,,,,,,,,,,,,,,,,,,
481.80000001192093,,rt_plussign_withcolor,275315,,,blue,,,,,49,US_Cities_List/westpalmbeach.png,US_Cities_List/peoria.png,,,,,,,,,,,,,,,,,,
null,,rt_thecrossant_black,276581,,,black_plus_sign,,,,,null,,,0.8888888888888888,1,,,,,,,,,,,,,,,,
null,,color_black,276690,,,black_plus_sign,,,,,null,,,,,,,,,,,,,,,,,,,,
null,,learn_phase(without_color),279716,,,black_plus_sign,,,,,null,US_Cities_List/cornwall.png,US_Cities_List/newhope.png,,,,,,,,,,,,,,,,,,
null,,black_cross(without_color),280779,,,yellow,,,,,null,US_Cities_List/cornwall.png,US_Cities_List/newhope.png,,,,,,,,,,,,,,,,,,
487.7000000178814,,rt_plussign_withcolor,281289,,,yellow,,,,,50,US_Cities_List/cornwall.png,US_Cities_List/newhope.png,,,,,,,,,,,,,,,,,,
null,,rt_thecrossant_black,282254,,,black_plus_sign,,,,,null,,,0.9,1,,,,,,,,,,,,,,,,
null,,color_black,282369,,,black_plus_sign,,,,,null,,,,,,,,,,,,,,,,,,,,
null,,learn_phase(without_color),285388,,,black_plus_sign,,,,,null,US_Cities_List/peoria.png,US_Cities_List/westpalmbeach.png,,,,,,,,,,,,,,,,,,
null,,black_cross(without_color),286339,,,blue,,,,,null,US_Cities_List/peoria.png,US_Cities_List/westpalmbeach.png,,,,,,,,,,,,,,,,,,
342.2000000178814,,rt_plussign_withcolor,286850,,,blue,,,,,49,US_Cities_List/peoria.png,US_Cities_List/westpalmbeach.png,,,,,,,,,,,,,,,,,,
null,,rt_thecrossant_black,287932,,,black_plus_sign,,,,,null,,,0.9090909090909091,1,,,,,,,,,,,,,,,,
null,,color_black,288039,,,black_plus_sign,,,,,null,,,,,,,,,,,,,,,,,,,,
null,,learn_phase(without_color),291057,,,black_plus_sign,,,,,null,US_Cities_List/peoria.png,US_Cities_List/carmel.png,,,,,,,,,,,,,,,,,,
null,,black_cross(without_color),291833,,,blue,,,,,null,US_Cities_List/peoria.png,US_Cities_List/carmel.png,,,,,,,,,,,,,,,,,,
null,,rt_plussign_withcolor,292339,,,blue,,,,,null,US_Cities_List/peoria.png,US_Cities_List/carmel.png,,,,,,,,,,,,,,,,,,
1146,,rt_thecrossant_black,293573,,,black_plus_sign,,,,,49,,,0.9166666666666666,1,,,,,,,,,,,,,,,,
null,,color_black,293683,,,black_plus_sign,,,,,null,,,,,,,,,,,,,,,,,,,,
null,,learn_phase(without_color),296698,,,black_plus_sign,,,,,null,US_Cities_List/peoria.png,US_Cities_List/hanover.png,,,,,,,,,,,,,,,,,,
null,,black_cross(without_color),297172,,,yellow,,,,,null,US_Cities_List/peoria.png,US_Cities_List/hanover.png,,,,,,,,,,,,,,,,,,
344.5,,rt_plussign_withcolor,297685,,,yellow,,,,,50,US_Cities_List/peoria.png,US_Cities_List/hanover.png,,,,,,,,,,,,,,,,,,
null,,rt_thecrossant_black,299223,,,black_plus_sign,,,,,null,,,0.9230769230769231,1,,,,,,,,,,,,,,,,
null,,color_black,299332,,,black_plus_sign,,,,,null,,,,,,,,,,,,,,,,,,,,
null,,learn_phase(without_color),302347,,,black_plus_sign,,,,,null,US_Cities_List/hanover.png,US_Cities_List/leesburg.png,,,,,,,,,,,,,,,,,,
null,,black_cross(without_color),302790,,,yellow,,,,,null,US_Cities_List/hanover.png,US_Cities_List/leesburg.png,,,,,,,,,,,,,,,,,,
null,,rt_plussign_withcolor,303307,,,yellow,,,,,null,US_Cities_List/hanover.png,US_Cities_List/leesburg.png,,,,,,,,,,,,,,,,,,
731.5,,rt_thecrossant_black,304873,,,black_plus_sign,,,,,50,,,0.9285714285714286,1,,,,,,,,,,,,,,,,
null,,color_black,304982,,,black_plus_sign,,,,,null,,,,,,,,,,,,,,,,,,,,
null,,learn_phase(without_color),307998,,,black_plus_sign,,,,,null,US_Cities_List/shreveport.png,US_Cities_List/carmel.png,,,,,,,,,,,,,,,,,,
null,,black_cross(without_color),308458,,,blue,,,,,null,US_Cities_List/shreveport.png,US_Cities_List/carmel.png,,,,,,,,,,,,,,,,,,
null,,rt_plussign_withcolor,308964,,,blue,,,,,null,US_Cities_List/shreveport.png,US_Cities_List/carmel.png,,,,,,,,,,,,,,,,,,
607.6999999880791,,rt_thecrossant_black,310515,,,black_plus_sign,,,,,49,,,0.9333333333333333,1,,,,,,,,,,,,,,,,
null,,color_black,310624,,,black_plus_sign,,,,,null,,,,,,,,,,,,,,,,,,,,
null,,learn_phase(without_color),313645,,,black_plus_sign,,,,,null,US_Cities_List/racine.png,US_Cities_List/peoria.png,,,,,,,,,,,,,,,,,,
null,,black_cross(without_color),314121,,,yellow,,,,,null,US_Cities_List/racine.png,US_Cities_List/peoria.png,,,,,,,,,,,,,,,,,,
457.69999998807907,,rt_plussign_withcolor,314624,,,yellow,,,,,50,US_Cities_List/racine.png,US_Cities_List/peoria.png,,,,,,,,,,,,,,,,,,
null,,rt_thecrossant_black,316165,,,black_plus_sign,,,,,null,,,0.9375,1,,,,,,,,,,,,,,,,
null,,color_black,316280,,,black_plus_sign,,,,,null,,,,,,,,,,,,,,,,,,,,
null,,learn_phase(without_color),319298,,,black_plus_sign,,,,,null,US_Cities_List/peoria.png,US_Cities_List/carmel.png,,,,,,,,,,,,,,,,,,
null,,black_cross(without_color),320034,,,blue,,,,,null,US_Cities_List/peoria.png,US_Cities_List/carmel.png,,,,,,,,,,,,,,,,,,
null,,rt_plussign_withcolor,320552,,,blue,,,,,null,US_Cities_List/peoria.png,US_Cities_List/carmel.png,,,,,,,,,,,,,,,,,,
697.8999999761581,,rt_thecrossant_black,321832,,,black_plus_sign,,,,,49,,,0.9411764705882353,1,,,,,,,,,,,,,,,,
null,,color_black,321940,,,black_plus_sign,,,,,null,,,,,,,,,,,,,,,,,,,,
null,,learn_phase(without_color),324957,,,black_plus_sign,,,,,null,US_Cities_List/peoria.png,US_Cities_List/westpalmbeach.png,,,,,,,,,,,,,,,,,,
null,,black_cross(without_color),325482,,,blue,,,,,null,US_Cities_List/peoria.png,US_Cities_List/westpalmbeach.png,,,,,,,,,,,,,,,,,,
null,,rt_plussign_withcolor,325994,,,blue,,,,,null,US_Cities_List/peoria.png,US_Cities_List/westpalmbeach.png,,,,,,,,,,,,,,,,,,
1029.7999999523163,,rt_thecrossant_black,327482,,,black_plus_sign,,,,,49,,,0.9444444444444444,1,,,,,,,,,,,,,,,,
null,,color_black,327591,,,black_plus_sign,,,,,null,,,,,,,,,,,,,,,,,,,,
null,,learn_phase(without_color),330615,,,black_plus_sign,,,,,null,US_Cities_List/cornwall.png,US_Cities_List/newhope.png,,,,,,,,,,,,,,,,,,
null,,black_cross(without_color),331132,,,yellow,,,,,null,US_Cities_List/cornwall.png,US_Cities_List/newhope.png,,,,,,,,,,,,,,,,,,
500.39999997615814,,rt_plussign_withcolor,331634,,,yellow,,,,,50,US_Cities_List/cornwall.png,US_Cities_List/newhope.png,,,,,,,,,,,,,,,,,,
null,,rt_thecrossant_black,333125,,,black_plus_sign,,,,,null,,,0.9473684210526315,1,,,,,,,,,,,,,,,,
null,,color_black,333242,,,black_plus_sign,,,,,null,,,,,,,,,,,,,,,,,,,,
null,,learn_phase(without_color),336258,,,black_plus_sign,,,,,null,US_Cities_List/leesburg.png,US_Cities_List/hanover.png,,,,,,,,,,,,,,,,,,
null,,black_cross(without_color),336839,,,yellow,,,,,null,US_Cities_List/leesburg.png,US_Cities_List/hanover.png,,,,,,,,,,,,,,,,,,
null,,rt_plussign_withcolor,337341,,,yellow,,,,,null,US_Cities_List/leesburg.png,US_Cities_List/hanover.png,,,,,,,,,,,,,,,,,,
693.2999999523163,,rt_thecrossant_black,338790,,,black_plus_sign,,,,,50,,,0.95,1,,,,,,,,,,,,,,,,
null,,color_black,338891,,,black_plus_sign,,,,,null,,,,,,,,,,,,,,,,,,,,
null,,learn_phase(without_color),341916,,,black_plus_sign,,,,,null,US_Cities_List/carmel.png,US_Cities_List/shreveport.png,,,,,,,,,,,,,,,,,,
null,,black_cross(without_color),342358,,,yellow,,,,,null,US_Cities_List/carmel.png,US_Cities_List/shreveport.png,,,,,,,,,,,,,,,,,,
null,,rt_plussign_withcolor,342865,,,yellow,,,,,null,US_Cities_List/carmel.png,US_Cities_List/shreveport.png,,,,,,,,,,,,,,,,,,
1006.7000000476837,,rt_thecrossant_black,344434,,,black_plus_sign,,,,,50,,,0.9523809523809523,1,,,,,,,,,,,,,,,,
null,,color_black,344545,,,black_plus_sign,,,,,null,,,,,,,,,,,,,,,,,,,,
null,,learn_phase(without_color),347569,,,black_plus_sign,,,,,null,US_Cities_List/peoria.png,US_Cities_List/hanover.png,,,,,,,,,,,,,,,,,,
null,,black_cross(without_color),348389,,,yellow,,,,,null,US_Cities_List/peoria.png,US_Cities_List/hanover.png,,,,,,,,,,,,,,,,,,
441.30000001192093,,rt_plussign_withcolor,348891,,,yellow,,,,,50,US_Cities_List/peoria.png,US_Cities_List/hanover.png,,,,,,,,,,,,,,,,,,
null,,rt_thecrossant_black,350095,,,black_plus_sign,,,,,null,,,0.9545454545454546,1,,,,,,,,,,,,,,,,
null,,color_black,350202,,,black_plus_sign,,,,,null,,,,,,,,,,,,,,,,,,,,
null,,learn_phase(without_color),353217,,,black_plus_sign,,,,,null,US_Cities_List/carmel.png,US_Cities_List/huntsville.png,,,,,,,,,,,,,,,,,,
null,,black_cross(without_color),353648,,,yellow,,,,,null,US_Cities_List/carmel.png,US_Cities_List/huntsville.png,,,,,,,,,,,,,,,,,,
null,,rt_plussign_withcolor,354161,,,yellow,,,,,null,US_Cities_List/carmel.png,US_Cities_List/huntsville.png,,,,,,,,,,,,,,,,,,
992.5,,rt_thecrossant_black,355752,,,black_plus_sign,,,,,50,,,0.9565217391304348,1,,,,,,,,,,,,,,,,
null,,color_black,355859,,,black_plus_sign,,,,,null,,,,,,,,,,,,,,,,,,,,
null,,learn_phase(without_color),358874,,,black_plus_sign,,,,,null,US_Cities_List/shreveport.png,US_Cities_List/westpalmbeach.png,,,,,,,,,,,,,,,,,,
null,,black_cross(without_color),359706,,,blue,,,,,null,US_Cities_List/shreveport.png,US_Cities_List/westpalmbeach.png,,,,,,,,,,,,,,,,,,
378.80000001192093,,rt_plussign_withcolor,360218,,,blue,,,,,49,US_Cities_List/shreveport.png,US_Cities_List/westpalmbeach.png,,,,,,,,,,,,,,,,,,
null,,rt_thecrossant_black,361408,,,black_plus_sign,,,,,null,,,0.9583333333333334,1,,,,,,,,,,,,,,,,
null,,color_black,361510,,,black_plus_sign,,,,,null,,,,,,,,,,,,,,,,,,,,
null,,learn_phase(without_color),364525,,,black_plus_sign,,,,,null,US_Cities_List/huntsville.png,US_Cities_List/carmel.png,,,,,,,,,,,,,,,,,,
null,,black_cross(without_color),365578,,,yellow,,,,,null,US_Cities_List/huntsville.png,US_Cities_List/carmel.png,,,,,,,,,,,,,,,,,,
null,,rt_plussign_withcolor,366085,,,yellow,,,,,null,US_Cities_List/huntsville.png,US_Cities_List/carmel.png,,,,,,,,,,,,,,,,,,
1046.3999999761581,,rt_thecrossant_black,367051,,,black_plus_sign,,,,,50,,,0.96,1,,,,,,,,,,,,,,,,
null,,color_black,367162,,,black_plus_sign,,,,,null,,,,,,,,,,,,,,,,,,,,
null,,learn_phase(without_color),370176,,,black_plus_sign,,,,,null,US_Cities_List/hanover.png,US_Cities_List/peoria.png,,,,,,,,,,,,,,,,,,
null,,black_cross(without_color),371115,,,yellow,,,,,null,US_Cities_List/hanover.png,US_Cities_List/peoria.png,,,,,,,,,,,,,,,,,,
null,,rt_plussign_withcolor,371633,,,yellow,,,,,null,US_Cities_List/hanover.png,US_Cities_List/peoria.png,,,,,,,,,,,,,,,,,,
1169.6000000238419,,rt_thecrossant_black,372709,,,black_plus_sign,,,,,50,,,0.9615384615384616,1,,,,,,,,,,,,,,,,
null,,color_black,372818,,,black_plus_sign,,,,,null,,,,,,,,,,,,,,,,,,,,
null,,learn_phase(without_color),375834,,,black_plus_sign,,,,,null,US_Cities_List/shreveport.png,US_Cities_List/carmel.png,,,,,,,,,,,,,,,,,,
null,,black_cross(without_color),376509,,,yellow,,,,,null,US_Cities_List/shreveport.png,US_Cities_List/carmel.png,,,,,,,,,,,,,,,,,,
442.30000001192093,,rt_plussign_withcolor,377010,,,yellow,,,,,50,US_Cities_List/shreveport.png,US_Cities_List/carmel.png,,,,,,,,,,,,,,,,,,
null,,rt_thecrossant_black,378343,,,black_plus_sign,,,,,null,,,0.9629629629629629,1,,,,,,,,,,,,,,,,
null,,color_black,378460,,,black_plus_sign,,,,,null,,,,,,,,,,,,,,,,,,,,
null,,learn_phase(without_color),381476,,,black_plus_sign,,,,,null,US_Cities_List/westpalmbeach.png,US_Cities_List/shreveport.png,,,,,,,,,,,,,,,,,,
null,,black_cross(without_color),382299,,,yellow,,,,,null,US_Cities_List/westpalmbeach.png,US_Cities_List/shreveport.png,,,,,,,,,,,,,,,,,,
485.4000000357628,,rt_plussign_withcolor,382801,,,yellow,,,,,50,US_Cities_List/westpalmbeach.png,US_Cities_List/shreveport.png,,,,,,,,,,,,,,,,,,
null,,rt_thecrossant_black,383998,,,black_plus_sign,,,,,null,,,0.9642857142857143,1,,,,,,,,,,,,,,,,
null,,color_black,384108,,,black_plus_sign,,,,,null,,,,,,,,,,,,,,,,,,,,
null,,learn_phase(without_color),387125,,,black_plus_sign,,,,,null,US_Cities_List/racine.png,US_Cities_List/hanover.png,,,,,,,,,,,,,,,,,,
null,,black_cross(without_color),387742,,,blue,,,,,null,US_Cities_List/racine.png,US_Cities_List/hanover.png,,,,,,,,,,,,,,,,,,
null,,rt_plussign_withcolor,388251,,,blue,,,,,null,US_Cities_List/racine.png,US_Cities_List/hanover.png,,,,,,,,,,,,,,,,,,
1202.699999988079,,rt_thecrossant_black,389642,,,black_plus_sign,,,,,49,,,0.9655172413793104,1,,,,,,,,,,,,,,,,
null,,color_black,389751,,,black_plus_sign,,,,,null,,,,,,,,,,,,,,,,,,,,
null,,learn_phase(without_color),392768,,,black_plus_sign,,,,,null,US_Cities_List/boulder.png,US_Cities_List/hotsprings.png,,,,,,,,,,,,,,,,,,
null,,black_cross(without_color),393718,,,blue,,,,,null,US_Cities_List/boulder.png,US_Cities_List/hotsprings.png,,,,,,,,,,,,,,,,,,
null,,rt_plussign_withcolor,394234,,,blue,,,,,null,US_Cities_List/boulder.png,US_Cities_List/hotsprings.png,,,,,,,,,,,,,,,,,,
864.5999999642372,,rt_thecrossant_black,395304,,,black_plus_sign,,,,,49,,,0.9666666666666667,1,,,,,,,,,,,,,,,,
null,,color_black,395411,,,black_plus_sign,,,,,null,,,,,,,,,,,,,,,,,,,,
null,,learn_phase(without_color),398435,,,black_plus_sign,,,,,null,US_Cities_List/peoria.png,US_Cities_List/hanover.png,,,,,,,,,,,,,,,,,,
null,,black_cross(without_color),399060,,,yellow,,,,,null,US_Cities_List/peoria.png,US_Cities_List/hanover.png,,,,,,,,,,,,,,,,,,
null,,rt_plussign_withcolor,399567,,,yellow,,,,,null,US_Cities_List/peoria.png,US_Cities_List/hanover.png,,,,,,,,,,,,,,,,,,
1107.7000000476837,,rt_thecrossant_black,400957,,,black_plus_sign,,,,,50,,,0.967741935483871,1,,,,,,,,,,,,,,,,
null,,color_black,401064,,,black_plus_sign,,,,,null,,,,,,,,,,,,,,,,,,,,
null,,learn_phase(without_color),404075,,,black_plus_sign,,,,,null,US_Cities_List/boulder.png,US_Cities_List/huntsville.png,,,,,,,,,,,,,,,,,,
null,,black_cross(without_color),405102,,,blue,,,,,null,US_Cities_List/boulder.png,US_Cities_List/huntsville.png,,,,,,,,,,,,,,,,,,
null,,rt_plussign_withcolor,405618,,,blue,,,,,null,US_Cities_List/boulder.png,US_Cities_List/huntsville.png,,,,,,,,,,,,,,,,,,
830.2999999523163,,rt_thecrossant_black,406618,,,black_plus_sign,,,,,49,,,0.96875,1,,,,,,,,,,,,,,,,
null,,color_black,406725,,,black_plus_sign,,,,,null,,,,,,,,,,,,,,,,,,,,
null,,learn_phase(without_color),409750,,,black_plus_sign,,,,,null,US_Cities_List/huntsville.png,US_Cities_List/boulder.png,,,,,,,,,,,,,,,,,,
null,,black_cross(without_color),410492,,,yellow,,,,,null,US_Cities_List/huntsville.png,US_Cities_List/boulder.png,,,,,,,,,,,,,,,,,,
393.5,,rt_plussign_withcolor,411008,,,yellow,,,,,50,US_Cities_List/huntsville.png,US_Cities_List/boulder.png,,,,,,,,,,,,,,,,,,
null,,rt_thecrossant_black,412290,,,black_plus_sign,,,,,null,,,0.9696969696969697,1,,,,,,,,,,,,,,,,
null,,color_black,412398,,,black_plus_sign,,,,,null,,,,,,,,,,,,,,,,,,,,
null,,learn_phase(without_color),415418,,,black_plus_sign,,,,,null,US_Cities_List/cornwall.png,US_Cities_List/boulder.png,,,,,,,,,,,,,,,,,,
null,,black_cross(without_color),416294,,,yellow,,,,,null,US_Cities_List/cornwall.png,US_Cities_List/boulder.png,,,,,,,,,,,,,,,,,,
407.0999999642372,,rt_plussign_withcolor,416808,,,yellow,,,,,50,US_Cities_List/cornwall.png,US_Cities_List/boulder.png,,,,,,,,,,,,,,,,,,
null,,rt_thecrossant_black,417950,,,black_plus_sign,,,,,null,,,0.9705882352941176,1,,,,,,,,,,,,,,,,
null,,color_black,418059,,,black_plus_sign,,,,,null,,,,,,,,,,,,,,,,,,,,
null,,learn_phase(without_color),421076,,,black_plus_sign,,,,,null,US_Cities_List/leesburg.png,US_Cities_List/hanover.png,,,,,,,,,,,,,,,,,,
null,,black_cross(without_color),421700,,,yellow,,,,,null,US_Cities_List/leesburg.png,US_Cities_List/hanover.png,,,,,,,,,,,,,,,,,,
361,,rt_plussign_withcolor,422208,,,yellow,,,,,50,US_Cities_List/leesburg.png,US_Cities_List/hanover.png,,,,,,,,,,,,,,,,,,
null,,rt_thecrossant_black,423609,,,black_plus_sign,,,,,null,,,0.9714285714285714,1,,,,,,,,,,,,,,,,
null,,color_black,423717,,,black_plus_sign,,,,,null,,,,,,,,,,,,,,,,,,,,
null,,learn_phase(without_color),426734,,,black_plus_sign,,,,,null,US_Cities_List/cornwall.png,US_Cities_List/shreveport.png,,,,,,,,,,,,,,,,,,
null,,black_cross(without_color),427284,,,yellow,,,,,null,US_Cities_List/cornwall.png,US_Cities_List/shreveport.png,,,,,,,,,,,,,,,,,,
null,,rt_plussign_withcolor,427793,,,yellow,,,,,null,US_Cities_List/cornwall.png,US_Cities_List/shreveport.png,,,,,,,,,,,,,,,,,,
773.8000000119209,,rt_thecrossant_black,429259,,,black_plus_sign,,,,,50,,,0.9722222222222222,1,,,,,,,,,,,,,,,,
null,,color_black,429368,,,black_plus_sign,,,,,null,,,,,,,,,,,,,,,,,,,,
null,,learn_phase(without_color),432386,,,black_plus_sign,,,,,null,US_Cities_List/hotsprings.png,US_Cities_List/boulder.png,,,,,,,,,,,,,,,,,,
null,,black_cross(without_color),433109,,,yellow,,,,,null,US_Cities_List/hotsprings.png,US_Cities_List/boulder.png,,,,,,,,,,,,,,,,,,
449.0999999642372,,rt_plussign_withcolor,433618,,,yellow,,,,,50,US_Cities_List/hotsprings.png,US_Cities_List/boulder.png,,,,,,,,,,,,,,,,,,
null,,rt_thecrossant_black,434901,,,black_plus_sign,,,,,null,,,0.972972972972973,1,,,,,,,,,,,,,,,,
null,,color_black,435009,,,black_plus_sign,,,,,null,,,,,,,,,,,,,,,,,,,,
null,,learn_phase(without_color),438035,,,black_plus_sign,,,,,null,US_Cities_List/shreveport.png,US_Cities_List/cornwall.png,,,,,,,,,,,,,,,,,,
null,,black_cross(without_color),438493,,,blue,,,,,null,US_Cities_List/shreveport.png,US_Cities_List/cornwall.png,,,,,,,,,,,,,,,,,,
null,,rt_plussign_withcolor,438995,,,blue,,,,,null,US_Cities_List/shreveport.png,US_Cities_List/cornwall.png,,,,,,,,,,,,,,,,,,
992.1000000238419,,rt_thecrossant_black,440559,,,black_plus_sign,,,,,49,,,0.9736842105263158,1,,,,,,,,,,,,,,,,
null,,color_black,440668,,,black_plus_sign,,,,,null,,,,,,,,,,,,,,,,,,,,
null,,learn_phase(without_color),443684,,,black_plus_sign,,,,,null,US_Cities_List/gatlinburg.png,US_Cities_List/racine.png,,,,,,,,,,,,,,,,,,
null,,black_cross(without_color),444351,,,blue,,,,,null,US_Cities_List/gatlinburg.png,US_Cities_List/racine.png,,,,,,,,,,,,,,,,,,
null,,rt_plussign_withcolor,444859,,,blue,,,,,null,US_Cities_List/gatlinburg.png,US_Cities_List/racine.png,,,,,,,,,,,,,,,,,,
685,,rt_thecrossant_black,446217,,,black_plus_sign,,,,,49,,,0.9743589743589743,1,,,,,,,,,,,,,,,,
null,,color_black,446327,,,black_plus_sign,,,,,null,,,,,,,,,,,,,,,,,,,,
null,,learn_phase(without_color),449349,,,black_plus_sign,,,,,null,US_Cities_List/racine.png,US_Cities_List/gatlinburg.png,,,,,,,,,,,,,,,,,,
null,,black_cross(without_color),449860,,,blue,,,,,null,US_Cities_List/racine.png,US_Cities_List/gatlinburg.png,,,,,,,,,,,,,,,,,,
null,,rt_plussign_withcolor,450376,,,blue,,,,,null,US_Cities_List/racine.png,US_Cities_List/gatlinburg.png,,,,,,,,,,,,,,,,,,
763.7000000476837,,rt_thecrossant_black,451893,,,black_plus_sign,,,,,49,,,0.975,1,,,,,,,,,,,,,,,,
null,,color_black,452009,,,black_plus_sign,,,,,null,,,,,,,,,,,,,,,,,,,,
null,,learn_phase(without_color),455026,,,black_plus_sign,,,,,null,US_Cities_List/carmel.png,US_Cities_List/peoria.png,,,,,,,,,,,,,,,,,,
null,,black_cross(without_color),456067,,,yellow,,,,,null,US_Cities_List/carmel.png,US_Cities_List/peoria.png,,,,,,,,,,,,,,,,,,
null,,rt_plussign_withcolor,456576,,,yellow,,,,,null,US_Cities_List/carmel.png,US_Cities_List/peoria.png,,,,,,,,,,,,,,,,,,
599.8000000119209,,rt_thecrossant_black,457551,,,black_plus_sign,,,,,50,,,0.975609756097561,1,,,,,,,,,,,,,,,,
null,,color_black,457659,,,black_plus_sign,,,,,null,,,,,,,,,,,,,,,,,,,,
null,,learn_phase(without_color),460677,,,black_plus_sign,,,,,null,US_Cities_List/hotsprings.png,US_Cities_List/boulder.png,,,,,,,,,,,,,,,,,,
null,,black_cross(without_color),461626,,,yellow,,,,,null,US_Cities_List/hotsprings.png,US_Cities_List/boulder.png,,,,,,,,,,,,,,,,,,
null,,rt_plussign_withcolor,462135,,,yellow,,,,,null,US_Cities_List/hotsprings.png,US_Cities_List/boulder.png,,,,,,,,,,,,,,,,,,
1179.199999988079,,rt_thecrossant_black,463200,,,black_plus_sign,,,,,50,,,0.9761904761904762,1,,,,,,,,,,,,,,,,
null,,color_black,463312,,,black_plus_sign,,,,,null,,,,,,,,,,,,,,,,,,,,
null,,learn_phase(without_color),466326,,,black_plus_sign,,,,,null,US_Cities_List/carmel.png,US_Cities_List/shreveport.png,,,,,,,,,,,,,,,,,,
null,,black_cross(without_color),467035,,,yellow,,,,,null,US_Cities_List/carmel.png,US_Cities_List/shreveport.png,,,,,,,,,,,,,,,,,,
397,,rt_plussign_withcolor,467540,,,yellow,,,,,50,US_Cities_List/carmel.png,US_Cities_List/shreveport.png,,,,,,,,,,,,,,,,,,
null,,rt_thecrossant_black,468860,,,black_plus_sign,,,,,null,,,0.9767441860465116,1,,,,,,,,,,,,,,,,
null,,color_black,468968,,,black_plus_sign,,,,,null,,,,,,,,,,,,,,,,,,,,
null,,learn_phase(without_color),471984,,,black_plus_sign,,,,,null,US_Cities_List/hanover.png,US_Cities_List/racine.png,,,,,,,,,,,,,,,,,,
null,,black_cross(without_color),472787,,,yellow,,,,,null,US_Cities_List/hanover.png,US_Cities_List/racine.png,,,,,,,,,,,,,,,,,,
null,,rt_plussign_withcolor,473293,,,yellow,,,,,null,US_Cities_List/hanover.png,US_Cities_List/racine.png,,,,,,,,,,,,,,,,,,
824,,rt_thecrossant_black,474519,,,black_plus_sign,,,,,50,,,0.9772727272727273,1,,,,,,,,,,,,,,,,
null,,color_black,474627,,,black_plus_sign,,,,,null,,,,,,,,,,,,,,,,,,,,
null,,learn_phase(without_color),477644,,,black_plus_sign,,,,,null,US_Cities_List/hanover.png,US_Cities_List/leesburg.png,,,,,,,,,,,,,,,,,,
null,,black_cross(without_color),478287,,,yellow,,,,,null,US_Cities_List/hanover.png,US_Cities_List/leesburg.png,,,,,,,,,,,,,,,,,,
null,,rt_plussign_withcolor,478804,,,yellow,,,,,null,US_Cities_List/hanover.png,US_Cities_List/leesburg.png,,,,,,,,,,,,,,,,,,
989,,rt_thecrossant_black,480186,,,black_plus_sign,,,,,50,,,0.9777777777777777,1,,,,,,,,,,,,,,,,
null,,color_black,480300,,,black_plus_sign,,,,,null,,,,,,,,,,,,,,,,,,,,
null,,learn_phase(without_color),483319,,,black_plus_sign,,,,,null,US_Cities_List/boulder.png,US_Cities_List/cornwall.png,,,,,,,,,,,,,,,,,,
null,,black_cross(without_color),483954,,,yellow,,,,,null,US_Cities_List/boulder.png,US_Cities_List/cornwall.png,,,,,,,,,,,,,,,,,,
425.5,,rt_plussign_withcolor,484471,,,yellow,,,,,50,US_Cities_List/boulder.png,US_Cities_List/cornwall.png,,,,,,,,,,,,,,,,,,
null,,rt_thecrossant_black,485853,,,black_plus_sign,,,,,null,,,0.9782608695652174,1,,,,,,,,,,,,,,,,
null,,color_black,485962,,,black_plus_sign,,,,,null,,,,,,,,,,,,,,,,,,,,
null,,learn_phase(without_color),488977,,,black_plus_sign,,,,,null,US_Cities_List/huntsville.png,US_Cities_List/carmel.png,,,,,,,,,,,,,,,,,,
null,,black_cross(without_color),489777,,,blue,,,,,null,US_Cities_List/huntsville.png,US_Cities_List/carmel.png,,,,,,,,,,,,,,,,,,
null,,rt_plussign_withcolor,490287,,,blue,,,,,null,US_Cities_List/huntsville.png,US_Cities_List/carmel.png,,,,,,,,,,,,,,,,,,
903.5,,rt_thecrossant_black,491494,,,black_plus_sign,,,,,49,,,0.9787234042553191,1,,,,,,,,,,,,,,,,
null,,color_black,491604,,,black_plus_sign,,,,,null,,,,,,,,,,,,,,,,,,,,
null,,learn_phase(without_color),494626,,,black_plus_sign,,,,,null,US_Cities_List/peoria.png,US_Cities_List/racine.png,,,,,,,,,,,,,,,,,,
null,,black_cross(without_color),495376,,,blue,,,,,null,US_Cities_List/peoria.png,US_Cities_List/racine.png,,,,,,,,,,,,,,,,,,
null,,rt_plussign_withcolor,495894,,,blue,,,,,null,US_Cities_List/peoria.png,US_Cities_List/racine.png,,,,,,,,,,,,,,,,,,
940.5,,rt_thecrossant_black,497150,,,black_plus_sign,,,,,49,,,0.9791666666666666,1,,,,,,,,,,,,,,,,
null,,color_black,497260,,,black_plus_sign,,,,,null,,,,,,,,,,,,,,,,,,,,
null,,learn_phase(without_color),500287,,,black_plus_sign,,,,,null,US_Cities_List/leesburg.png,US_Cities_List/hanover.png,,,,,,,,,,,,,,,,,,
null,,black_cross(without_color),500894,,,blue,,,,,null,US_Cities_List/leesburg.png,US_Cities_List/hanover.png,,,,,,,,,,,,,,,,,,
481.5999999642372,,rt_plussign_withcolor,501399,,,blue,,,,,49,US_Cities_List/leesburg.png,US_Cities_List/hanover.png,,,,,,,,,,,,,,,,,,
null,,rt_thecrossant_black,502803,,,black_plus_sign,,,,,null,,,0.9795918367346939,1,,,,,,,,,,,,,,,,
null,,color_black,502914,,,black_plus_sign,,,,,null,,,,,,,,,,,,,,,,,,,,
null,,learn_phase(without_color),505936,,,black_plus_sign,,,,,null,US_Cities_List/racine.png,US_Cities_List/westpalmbeach.png,,,,,,,,,,,,,,,,,,
null,,black_cross(without_color),506704,,,blue,,,,,null,US_Cities_List/racine.png,US_Cities_List/westpalmbeach.png,,,,,,,,,,,,,,,,,,
null,,rt_plussign_withcolor,507208,,,blue,,,,,null,US_Cities_List/racine.png,US_Cities_List/westpalmbeach.png,,,,,,,,,,,,,,,,,,
794.1000000238419,,rt_thecrossant_black,508474,,,black_plus_sign,,,,,49,,,0.98,1,,,,,,,,,,,,,,,,
null,,color_black,508579,,,black_plus_sign,,,,,null,,,,,,,,,,,,,,,,,,,,
null,,learn_phase(without_color),511596,,,black_plus_sign,,,,,null,US_Cities_List/shreveport.png,US_Cities_List/carmel.png,,,,,,,,,,,,,,,,,,
null,,black_cross(without_color),512448,,,blue,,,,,null,US_Cities_List/shreveport.png,US_Cities_List/carmel.png,,,,,,,,,,,,,,,,,,
505.5,,rt_plussign_withcolor,512957,,,blue,,,,,49,US_Cities_List/shreveport.png,US_Cities_List/carmel.png,,,,,,,,,,,,,,,,,,
null,,rt_thecrossant_black,514136,,,black_plus_sign,,,,,null,,,0.9803921568627451,1,,,,,,,,,,,,,,,,
null,,color_black,514249,,,black_plus_sign,,,,,null,,,,,,,,,,,,,,,,,,,,
null,,learn_phase(without_color),517271,,,black_plus_sign,,,,,null,US_Cities_List/racine.png,US_Cities_List/westpalmbeach.png,,,,,,,,,,,,,,,,,,
null,,black_cross(without_color),517941,,,yellow,,,,,null,US_Cities_List/racine.png,US_Cities_List/westpalmbeach.png,,,,,,,,,,,,,,,,,,
448.80000001192093,,rt_plussign_withcolor,518459,,,yellow,,,,,50,US_Cities_List/racine.png,US_Cities_List/westpalmbeach.png,,,,,,,,,,,,,,,,,,
null,,rt_thecrossant_black,519810,,,black_plus_sign,,,,,null,,,0.9807692307692307,1,,,,,,,,,,,,,,,,
null,,color_black,519912,,,black_plus_sign,,,,,null,,,,,,,,,,,,,,,,,,,,
null,,learn_phase(without_color),522929,,,black_plus_sign,,,,,null,US_Cities_List/leesburg.png,US_Cities_List/hanover.png,,,,,,,,,,,,,,,,,,
null,,black_cross(without_color),523759,,,yellow,,,,,null,US_Cities_List/leesburg.png,US_Cities_List/hanover.png,,,,,,,,,,,,,,,,,,
null,,rt_plussign_withcolor,524266,,,yellow,,,,,null,US_Cities_List/leesburg.png,US_Cities_List/hanover.png,,,,,,,,,,,,,,,,,,
865.6000000238419,,rt_thecrossant_black,525445,,,black_plus_sign,,,,,50,,,0.9811320754716981,1,,,,,,,,,,,,,,,,
null,,color_black,525561,,,black_plus_sign,,,,,null,,,,,,,,,,,,,,,,,,,,
null,,learn_phase(without_color),528590,,,black_plus_sign,,,,,null,US_Cities_List/westpalmbeach.png,US_Cities_List/racine.png,,,,,,,,,,,,,,,,,,
null,,black_cross(without_color),529571,,,yellow,,,,,null,US_Cities_List/westpalmbeach.png,US_Cities_List/racine.png,,,,,,,,,,,,,,,,,,
null,,rt_plussign_withcolor,530077,,,yellow,,,,,null,US_Cities_List/westpalmbeach.png,US_Cities_List/racine.png,,,,,,,,,,,,,,,,,,
1159.1000000238419,,rt_thecrossant_black,531112,,,black_plus_sign,,,,,50,,,0.9814814814814815,1,,,,,,,,,,,,,,,,
null,,color_black,531221,,,black_plus_sign,,,,,null,,,,,,,,,,,,,,,,,,,,
null,,learn_phase(without_color),534239,,,black_plus_sign,,,,,null,US_Cities_List/carmel.png,US_Cities_List/shreveport.png,,,,,,,,,,,,,,,,,,
null,,black_cross(without_color),535003,,,blue,,,,,null,US_Cities_List/carmel.png,US_Cities_List/shreveport.png,,,,,,,,,,,,,,,,,,
null,,rt_plussign_withcolor,535512,,,blue,,,,,null,US_Cities_List/carmel.png,US_Cities_List/shreveport.png,,,,,,,,,,,,,,,,,,
1084.3999999761581,,rt_thecrossant_black,536770,,,black_plus_sign,,,,,49,,,0.9818181818181818,1,,,,,,,,,,,,,,,,
null,,color_black,536879,,,black_plus_sign,,,,,null,,,,,,,,,,,,,,,,,,,,
null,,learn_phase(without_color),539896,,,black_plus_sign,,,,,null,US_Cities_List/racine.png,US_Cities_List/hanover.png,,,,,,,,,,,,,,,,,,
null,,black_cross(without_color),540896,,,yellow,,,,,null,US_Cities_List/racine.png,US_Cities_List/hanover.png,,,,,,,,,,,,,,,,,,
null,,rt_plussign_withcolor,541400,,,yellow,,,,,null,US_Cities_List/racine.png,US_Cities_List/hanover.png,,,,,,,,,,,,,,,,,,
901.3000000119209,,rt_thecrossant_black,542417,,,black_plus_sign,,,,,50,,,0.9821428571428571,1,,,,,,,,,,,,,,,,
null,,color_black,542526,,,black_plus_sign,,,,,null,,,,,,,,,,,,,,,,,,,,
null,,learn_phase(without_color),545539,,,black_plus_sign,,,,,null,US_Cities_List/carmel.png,US_Cities_List/huntsville.png,,,,,,,,,,,,,,,,,,
null,,black_cross(without_color),546103,,,blue,,,,,null,US_Cities_List/carmel.png,US_Cities_List/huntsville.png,,,,,,,,,,,,,,,,,,
null,,rt_plussign_withcolor,546607,,,blue,,,,,null,US_Cities_List/carmel.png,US_Cities_List/huntsville.png,,,,,,,,,,,,,,,,,,
1292.7999999523163,,rt_thecrossant_black,548054,,,black_plus_sign,,,,,49,,,0.9824561403508771,1,,,,,,,,,,,,,,,,
null,,color_black,548161,,,black_plus_sign,,,,,null,,,,,,,,,,,,,,,,,,,,
null,,learn_phase(without_color),551180,,,black_plus_sign,,,,,null,US_Cities_List/carmel.png,US_Cities_List/huntsville.png,,,,,,,,,,,,,,,,,,
null,,black_cross(without_color),551921,,,yellow,,,,,null,US_Cities_List/carmel.png,US_Cities_List/huntsville.png,,,,,,,,,,,,,,,,,,
null,,rt_plussign_withcolor,552435,,,yellow,,,,,null,US_Cities_List/carmel.png,US_Cities_List/huntsville.png,,,,,,,,,,,,,,,,,,
670.9000000357628,,rt_thecrossant_black,553713,,,black_plus_sign,,,,,50,,,0.9827586206896551,1,,,,,,,,,,,,,,,,
null,,color_black,553821,,,black_plus_sign,,,,,null,,,,,,,,,,,,,,,,,,,,
null,,learn_phase(without_color),556844,,,black_plus_sign,,,,,null,US_Cities_List/hanover.png,US_Cities_List/racine.png,,,,,,,,,,,,,,,,,,
null,,black_cross(without_color),557545,,,yellow,,,,,null,US_Cities_List/hanover.png,US_Cities_List/racine.png,,,,,,,,,,,,,,,,,,
null,,rt_plussign_withcolor,558055,,,yellow,,,,,null,US_Cities_List/hanover.png,US_Cities_List/racine.png,,,,,,,,,,,,,,,,,,
938.8000000119209,,rt_thecrossant_black,559371,,,black_plus_sign,,,,,50,,,0.9830508474576272,1,,,,,,,,,,,,,,,,
null,,color_black,559477,,,black_plus_sign,,,,,null,,,,,,,,,,,,,,,,,,,,
null,,learn_phase(without_color),562497,,,black_plus_sign,,,,,null,US_Cities_List/shreveport.png,US_Cities_List/cornwall.png,,,,,,,,,,,,,,,,,,
null,,black_cross(without_color),563388,,,blue,,,,,null,US_Cities_List/shreveport.png,US_Cities_List/cornwall.png,,,,,,,,,,,,,,,,,,
406.30000001192093,,rt_plussign_withcolor,563896,,,blue,,,,,49,US_Cities_List/shreveport.png,US_Cities_List/cornwall.png,,,,,,,,,,,,,,,,,,
null,,rt_thecrossant_black,565022,,,black_plus_sign,,,,,null,,,0.9833333333333333,1,,,,,,,,,,,,,,,,
null,,color_black,565132,,,black_plus_sign,,,,,null,,,,,,,,,,,,,,,,,,,,
null,,learn_phase(without_color),568147,,,black_plus_sign,,,,,null,US_Cities_List/hotsprings.png,US_Cities_List/boulder.png,,,,,,,,,,,,,,,,,,
null,,black_cross(without_color),568836,,,yellow,,,,,null,US_Cities_List/hotsprings.png,US_Cities_List/boulder.png,,,,,,,,,,,,,,,,,,
371.4000000357628,,rt_plussign_withcolor,569345,,,yellow,,,,,50,US_Cities_List/hotsprings.png,US_Cities_List/boulder.png,,,,,,,,,,,,,,,,,,
null,,rt_thecrossant_black,570677,,,black_plus_sign,,,,,null,,,0.9836065573770492,1,,,,,,,,,,,,,,,,
null,,color_black,570780,,,black_plus_sign,,,,,null,,,,,,,,,,,,,,,,,,,,
null,,learn_phase(without_color),573796,,,black_plus_sign,,,,,null,US_Cities_List/carmel.png,US_Cities_List/huntsville.png,,,,,,,,,,,,,,,,,,
null,,black_cross(without_color),574764,,,blue,,,,,null,US_Cities_List/carmel.png,US_Cities_List/huntsville.png,,,,,,,,,,,,,,,,,,
398.30000001192093,,rt_plussign_withcolor,575278,,,blue,,,,,49,US_Cities_List/carmel.png,US_Cities_List/huntsville.png,,,,,,,,,,,,,,,,,,
null,,rt_thecrossant_black,576316,,,black_plus_sign,,,,,null,,,0.9838709677419355,1,,,,,,,,,,,,,,,,
null,,color_black,576419,,,black_plus_sign,,,,,null,,,,,,,,,,,,,,,,,,,,
null,,learn_break,636430,,,learn_break,,,,,null,,,,,,,,,,,,,,,,,,,,
null,,html-keyboard-response,637438,,,<p></p>,,,,,null,,,,,,,,,,,,,,,,,,,,
null,,learn_phase(without_color),640456,,,black_plus_sign,,,,,null,US_Cities_List/cornwall.png,US_Cities_List/newhope.png,,,,,,,,,,,,,,,,,,
null,,black_cross(without_color),641356,,,yellow,,,,,null,US_Cities_List/cornwall.png,US_Cities_List/newhope.png,,,,,,,,,,,,,,,,,,
null,,rt_plussign_withcolor,641864,,,yellow,,,,,null,US_Cities_List/cornwall.png,US_Cities_List/newhope.png,,,,,,,,,,,,,,,,,,
1065.199999988079,,rt_thecrossant_black,642981,,,black_plus_sign,,,,,50,,,0.9841269841269841,1,,,,,,,,,,,,,,,,
null,,color_black,643087,,,black_plus_sign,,,,,null,,,,,,,,,,,,,,,,,,,,
null,,learn_phase(without_color),646107,,,black_plus_sign,,,,,null,US_Cities_List/peoria.png,US_Cities_List/westpalmbeach.png,,,,,,,,,,,,,,,,,,
null,,black_cross(without_color),647174,,,blue,,,,,null,US_Cities_List/peoria.png,US_Cities_List/westpalmbeach.png,,,,,,,,,,,,,,,,,,
null,,rt_plussign_withcolor,647681,,,blue,,,,,null,US_Cities_List/peoria.png,US_Cities_List/westpalmbeach.png,,,,,,,,,,,,,,,,,,
1091.5,,rt_thecrossant_black,648637,,,black_plus_sign,,,,,49,,,0.984375,1,,,,,,,,,,,,,,,,
null,,color_black,648746,,,black_plus_sign,,,,,null,,,,,,,,,,,,,,,,,,,,
null,,learn_phase(without_color),651765,,,black_plus_sign,,,,,null,US_Cities_List/westpalmbeach.png,US_Cities_List/peoria.png,,,,,,,,,,,,,,,,,,
null,,black_cross(without_color),652331,,,yellow,,,,,null,US_Cities_List/westpalmbeach.png,US_Cities_List/peoria.png,,,,,,,,,,,,,,,,,,
365,,rt_plussign_withcolor,652840,,,yellow,,,,,50,US_Cities_List/westpalmbeach.png,US_Cities_List/peoria.png,,,,,,,,,,,,,,,,,,
null,,rt_thecrossant_black,654297,,,black_plus_sign,,,,,null,,,0.9846153846153847,1,,,,,,,,,,,,,,,,
null,,color_black,654405,,,black_plus_sign,,,,,null,,,,,,,,,,,,,,,,,,,,
null,,learn_phase(without_color),657422,,,black_plus_sign,,,,,null,US_Cities_List/peoria.png,US_Cities_List/westpalmbeach.png,,,,,,,,,,,,,,,,,,
null,,black_cross(without_color),658044,,,yellow,,,,,null,US_Cities_List/peoria.png,US_Cities_List/westpalmbeach.png,,,,,,,,,,,,,,,,,,
null,,rt_plussign_withcolor,658546,,,yellow,,,,,null,US_Cities_List/peoria.png,US_Cities_List/westpalmbeach.png,,,,,,,,,,,,,,,,,,
801.5,,rt_thecrossant_black,659955,,,black_plus_sign,,,,,50,,,0.9848484848484849,1,,,,,,,,,,,,,,,,
null,,color_black,660063,,,black_plus_sign,,,,,null,,,,,,,,,,,,,,,,,,,,
null,,learn_phase(without_color),663078,,,black_plus_sign,,,,,null,US_Cities_List/racine.png,US_Cities_List/hanover.png,,,,,,,,,,,,,,,,,,
null,,black_cross(without_color),663631,,,blue,,,,,null,US_Cities_List/racine.png,US_Cities_List/hanover.png,,,,,,,,,,,,,,,,,,
449.7999999523163,,rt_plussign_withcolor,664137,,,blue,,,,,49,US_Cities_List/racine.png,US_Cities_List/hanover.png,,,,,,,,,,,,,,,,,,
null,,rt_thecrossant_black,665597,,,black_plus_sign,,,,,null,,,0.9850746268656716,1,,,,,,,,,,,,,,,,
null,,color_black,665705,,,black_plus_sign,,,,,null,,,,,,,,,,,,,,,,,,,,
null,,learn_phase(without_color),668722,,,black_plus_sign,,,,,null,US_Cities_List/hotsprings.png,US_Cities_List/boulder.png,,,,,,,,,,,,,,,,,,
null,,black_cross(without_color),669505,,,yellow,,,,,null,US_Cities_List/hotsprings.png,US_Cities_List/boulder.png,,,,,,,,,,,,,,,,,,
451.30000001192093,,rt_plussign_withcolor,670014,,,yellow,,,,,50,US_Cities_List/hotsprings.png,US_Cities_List/boulder.png,,,,,,,,,,,,,,,,,,
null,,rt_thecrossant_black,671254,,,black_plus_sign,,,,,null,,,0.9852941176470589,1,,,,,,,,,,,,,,,,
null,,color_black,671373,,,black_plus_sign,,,,,null,,,,,,,,,,,,,,,,,,,,
null,,learn_phase(without_color),674405,,,black_plus_sign,,,,,null,US_Cities_List/westpalmbeach.png,US_Cities_List/racine.png,,,,,,,,,,,,,,,,,,
null,,black_cross(without_color),674813,,,yellow,,,,,null,US_Cities_List/westpalmbeach.png,US_Cities_List/racine.png,,,,,,,,,,,,,,,,,,
null,,rt_plussign_withcolor,675331,,,yellow,,,,,null,US_Cities_List/westpalmbeach.png,US_Cities_List/racine.png,,,,,,,,,,,,,,,,,,
1392.199999988079,,rt_thecrossant_black,676939,,,black_plus_sign,,,,,50,,,0.9855072463768116,1,,,,,,,,,,,,,,,,
null,,color_black,677047,,,black_plus_sign,,,,,null,,,,,,,,,,,,,,,,,,,,
null,,learn_phase(without_color),680077,,,black_plus_sign,,,,,null,US_Cities_List/peoria.png,US_Cities_List/racine.png,,,,,,,,,,,,,,,,,,
null,,black_cross(without_color),680589,,,yellow,,,,,null,US_Cities_List/peoria.png,US_Cities_List/racine.png,,,,,,,,,,,,,,,,,,
null,,rt_plussign_withcolor,681100,,,yellow,,,,,null,US_Cities_List/peoria.png,US_Cities_List/racine.png,,,,,,,,,,,,,,,,,,
1052.6000000238419,,rt_thecrossant_black,682607,,,black_plus_sign,,,,,50,,,0.9857142857142858,1,,,,,,,,,,,,,,,,
null,,color_black,682709,,,black_plus_sign,,,,,null,,,,,,,,,,,,,,,,,,,,
null,,learn_phase(without_color),685722,,,black_plus_sign,,,,,null,US_Cities_List/boulder.png,US_Cities_List/huntsville.png,,,,,,,,,,,,,,,,,,
null,,black_cross(without_color),686260,,,yellow,,,,,null,US_Cities_List/boulder.png,US_Cities_List/huntsville.png,,,,,,,,,,,,,,,,,,
null,,rt_plussign_withcolor,686764,,,yellow,,,,,null,US_Cities_List/boulder.png,US_Cities_List/huntsville.png,,,,,,,,,,,,,,,,,,
888.1000000238419,,rt_thecrossant_black,688243,,,black_plus_sign,,,,,50,,,0.9859154929577465,1,,,,,,,,,,,,,,,,
null,,color_black,688347,,,black_plus_sign,,,,,null,,,,,,,,,,,,,,,,,,,,
null,,learn_phase(without_color),691367,,,black_plus_sign,,,,,null,US_Cities_List/boulder.png,US_Cities_List/cornwall.png,,,,,,,,,,,,,,,,,,
null,,black_cross(without_color),691914,,,yellow,,,,,null,US_Cities_List/boulder.png,US_Cities_List/cornwall.png,,,,,,,,,,,,,,,,,,
null,,rt_plussign_withcolor,692420,,,yellow,,,,,null,US_Cities_List/boulder.png,US_Cities_List/cornwall.png,,,,,,,,,,,,,,,,,,
732.8000000119209,,rt_thecrossant_black,693897,,,black_plus_sign,,,,,50,,,0.9861111111111112,1,,,,,,,,,,,,,,,,
null,,color_black,694015,,,black_plus_sign,,,,,null,,,,,,,,,,,,,,,,,,,,
null,,learn_phase(without_color),697029,,,black_plus_sign,,,,,null,US_Cities_List/gatlinburg.png,US_Cities_List/racine.png,,,,,,,,,,,,,,,,,,
null,,black_cross(without_color),698014,,,yellow,,,,,null,US_Cities_List/gatlinburg.png,US_Cities_List/racine.png,,,,,,,,,,,,,,,,,,
384.60000002384186,,rt_plussign_withcolor,698523,,,yellow,,,,,50,US_Cities_List/gatlinburg.png,US_Cities_List/racine.png,,,,,,,,,,,,,,,,,,
null,,rt_thecrossant_black,699549,,,black_plus_sign,,,,,null,,,0.9863013698630136,1,,,,,,,,,,,,,,,,
null,,color_black,699668,,,black_plus_sign,,,,,null,,,,,,,,,,,,,,,,,,,,
null,,learn_phase(without_color),702691,,,black_plus_sign,,,,,null,US_Cities_List/cornwall.png,US_Cities_List/boulder.png,,,,,,,,,,,,,,,,,,
null,,black_cross(without_color),703702,,,yellow,,,,,null,US_Cities_List/cornwall.png,US_Cities_List/boulder.png,,,,,,,,,,,,,,,,,,
null,,rt_plussign_withcolor,704207,,,yellow,,,,,null,US_Cities_List/cornwall.png,US_Cities_List/boulder.png,,,,,,,,,,,,,,,,,,
1079.6000000238419,,rt_thecrossant_black,705218,,,black_plus_sign,,,,,50,,,0.9864864864864865,1,,,,,,,,,,,,,,,,
null,,color_black,705328,,,black_plus_sign,,,,,null,,,,,,,,,,,,,,,,,,,,
null,,learn_phase(without_color),708348,,,black_plus_sign,,,,,null,US_Cities_List/cornwall.png,US_Cities_List/shreveport.png,,,,,,,,,,,,,,,,,,
null,,black_cross(without_color),709127,,,blue,,,,,null,US_Cities_List/cornwall.png,US_Cities_List/shreveport.png,,,,,,,,,,,,,,,,,,
null,,rt_plussign_withcolor,709630,,,blue,,,,,null,US_Cities_List/cornwall.png,US_Cities_List/shreveport.png,,,,,,,,,,,,,,,,,,
1283.1000000238419,,rt_thecrossant_black,710860,,,black_plus_sign,,,,,49,,,0.9866666666666667,1,,,,,,,,,,,,,,,,
null,,color_black,710963,,,black_plus_sign,,,,,null,,,,,,,,,,,,,,,,,,,,
null,,learn_phase(without_color),713983,,,black_plus_sign,,,,,null,US_Cities_List/westpalmbeach.png,US_Cities_List/shreveport.png,,,,,,,,,,,,,,,,,,
null,,black_cross(without_color),714979,,,blue,,,,,null,US_Cities_List/westpalmbeach.png,US_Cities_List/shreveport.png,,,,,,,,,,,,,,,,,,
null,,rt_plussign_withcolor,715485,,,blue,,,,,null,US_Cities_List/westpalmbeach.png,US_Cities_List/shreveport.png,,,,,,,,,,,,,,,,,,
1198,,rt_thecrossant_black,716516,,,black_plus_sign,,,,,49,,,0.9868421052631579,1,,,,,,,,,,,,,,,,
null,,color_black,716627,,,black_plus_sign,,,,,null,,,,,,,,,,,,,,,,,,,,
null,,learn_phase(without_color),719656,,,black_plus_sign,,,,,null,US_Cities_List/shreveport.png,US_Cities_List/cornwall.png,,,,,,,,,,,,,,,,,,
null,,black_cross(without_color),720658,,,blue,,,,,null,US_Cities_List/shreveport.png,US_Cities_List/cornwall.png,,,,,,,,,,,,,,,,,,
460,,rt_plussign_withcolor,721167,,,blue,,,,,49,US_Cities_List/shreveport.png,US_Cities_List/cornwall.png,,,,,,,,,,,,,,,,,,
null,,rt_thecrossant_black,722183,,,black_plus_sign,,,,,null,,,0.987012987012987,1,,,,,,,,,,,,,,,,
null,,color_black,722292,,,black_plus_sign,,,,,null,,,,,,,,,,,,,,,,,,,,
null,,learn_phase(without_color),725315,,,black_plus_sign,,,,,null,US_Cities_List/peoria.png,US_Cities_List/hanover.png,,,,,,,,,,,,,,,,,,
null,,black_cross(without_color),726193,,,yellow,,,,,null,US_Cities_List/peoria.png,US_Cities_List/hanover.png,,,,,,,,,,,,,,,,,,
446.80000001192093,,rt_plussign_withcolor,726702,,,yellow,,,,,50,US_Cities_List/peoria.png,US_Cities_List/hanover.png,,,,,,,,,,,,,,,,,,
null,,rt_thecrossant_black,727838,,,black_plus_sign,,,,,null,,,0.9871794871794872,1,,,,,,,,,,,,,,,,
null,,color_black,727946,,,black_plus_sign,,,,,null,,,,,,,,,,,,,,,,,,,,
null,,learn_phase(without_color),730967,,,black_plus_sign,,,,,null,US_Cities_List/newhope.png,US_Cities_List/cornwall.png,,,,,,,,,,,,,,,,,,
null,,black_cross(without_color),731433,,,yellow,,,,,null,US_Cities_List/newhope.png,US_Cities_List/cornwall.png,,,,,,,,,,,,,,,,,,
null,,rt_plussign_withcolor,731950,,,yellow,,,,,null,US_Cities_List/newhope.png,US_Cities_List/cornwall.png,,,,,,,,,,,,,,,,,,
1071.4000000357628,,rt_thecrossant_black,733500,,,black_plus_sign,,,,,50,,,0.9873417721518988,1,,,,,,,,,,,,,,,,
null,,color_black,733610,,,black_plus_sign,,,,,null,,,,,,,,,,,,,,,,,,,,
null,,learn_phase(without_color),736634,,,black_plus_sign,,,,,null,US_Cities_List/racine.png,US_Cities_List/peoria.png,,,,,,,,,,,,,,,,,,
null,,black_cross(without_color),737334,,,blue,,,,,null,US_Cities_List/racine.png,US_Cities_List/peoria.png,,,,,,,,,,,,,,,,,,
436.80000001192093,,rt_plussign_withcolor,737841,,,blue,,,,,49,US_Cities_List/racine.png,US_Cities_List/peoria.png,,,,,,,,,,,,,,,,,,
null,,rt_thecrossant_black,739149,,,black_plus_sign,,,,,null,,,0.9875,1,,,,,,,,,,,,,,,,
null,,color_black,739258,,,black_plus_sign,,,,,null,,,,,,,,,,,,,,,,,,,,
null,,learn_phase(without_color),742275,,,black_plus_sign,,,,,null,US_Cities_List/racine.png,US_Cities_List/gatlinburg.png,,,,,,,,,,,,,,,,,,
null,,black_cross(without_color),742925,,,blue,,,,,null,US_Cities_List/racine.png,US_Cities_List/gatlinburg.png,,,,,,,,,,,,,,,,,,
null,,rt_plussign_withcolor,743442,,,blue,,,,,null,US_Cities_List/racine.png,US_Cities_List/gatlinburg.png,,,,,,,,,,,,,,,,,,
864.8000000119209,,rt_thecrossant_black,744820,,,black_plus_sign,,,,,49,,,0.9876543209876543,1,,,,,,,,,,,,,,,,
null,,color_black,744931,,,black_plus_sign,,,,,null,,,,,,,,,,,,,,,,,,,,
null,,learn_phase(without_color),747947,,,black_plus_sign,,,,,null,US_Cities_List/peoria.png,US_Cities_List/hanover.png,,,,,,,,,,,,,,,,,,
null,,black_cross(without_color),748631,,,yellow,,,,,null,US_Cities_List/peoria.png,US_Cities_List/hanover.png,,,,,,,,,,,,,,,,,,
510.10000002384186,,rt_plussign_withcolor,749144,,,yellow,,,,,50,US_Cities_List/peoria.png,US_Cities_List/hanover.png,,,,,,,,,,,,,,,,,,
null,,rt_thecrossant_black,750475,,,black_plus_sign,,,,,null,,,0.9878048780487805,1,,,,,,,,,,,,,,,,
null,,color_black,750592,,,black_plus_sign,,,,,null,,,,,,,,,,,,,,,,,,,,
null,,learn_phase(without_color),753608,,,black_plus_sign,,,,,null,US_Cities_List/westpalmbeach.png,US_Cities_List/shreveport.png,,,,,,,,,,,,,,,,,,
null,,black_cross(without_color),754466,,,yellow,,,,,null,US_Cities_List/westpalmbeach.png,US_Cities_List/shreveport.png,,,,,,,,,,,,,,,,,,
351.9000000357628,,rt_plussign_withcolor,754969,,,yellow,,,,,50,US_Cities_List/westpalmbeach.png,US_Cities_List/shreveport.png,,,,,,,,,,,,,,,,,,
null,,rt_thecrossant_black,756125,,,black_plus_sign,,,,,null,,,0.9879518072289156,1,,,,,,,,,,,,,,,,
null,,color_black,756233,,,black_plus_sign,,,,,null,,,,,,,,,,,,,,,,,,,,
null,,learn_phase(without_color),759243,,,black_plus_sign,,,,,null,US_Cities_List/huntsville.png,US_Cities_List/boulder.png,,,,,,,,,,,,,,,,,,
null,,black_cross(without_color),759738,,,yellow,,,,,null,US_Cities_List/huntsville.png,US_Cities_List/boulder.png,,,,,,,,,,,,,,,,,,
null,,rt_plussign_withcolor,760247,,,yellow,,,,,null,US_Cities_List/huntsville.png,US_Cities_List/boulder.png,,,,,,,,,,,,,,,,,,
1058.300000011921,,rt_thecrossant_black,761783,,,black_plus_sign,,,,,50,,,0.9880952380952381,1,,,,,,,,,,,,,,,,
null,,color_black,761898,,,black_plus_sign,,,,,null,,,,,,,,,,,,,,,,,,,,
null,,learn_phase(without_color),764915,,,black_plus_sign,,,,,null,US_Cities_List/shreveport.png,US_Cities_List/westpalmbeach.png,,,,,,,,,,,,,,,,,,
null,,black_cross(without_color),765366,,,yellow,,,,,null,US_Cities_List/shreveport.png,US_Cities_List/westpalmbeach.png,,,,,,,,,,,,,,,,,,
null,,rt_plussign_withcolor,765873,,,yellow,,,,,null,US_Cities_List/shreveport.png,US_Cities_List/westpalmbeach.png,,,,,,,,,,,,,,,,,,
970.9000000357628,,rt_thecrossant_black,767432,,,black_plus_sign,,,,,50,,,0.9882352941176471,1,,,,,,,,,,,,,,,,
null,,color_black,767549,,,black_plus_sign,,,,,null,,,,,,,,,,,,,,,,,,,,
null,,learn_phase(without_color),770574,,,black_plus_sign,,,,,null,US_Cities_List/peoria.png,US_Cities_List/hanover.png,,,,,,,,,,,,,,,,,,
null,,black_cross(without_color),771325,,,blue,,,,,null,US_Cities_List/peoria.png,US_Cities_List/hanover.png,,,,,,,,,,,,,,,,,,
null,,rt_plussign_withcolor,771833,,,blue,,,,,null,US_Cities_List/peoria.png,US_Cities_List/hanover.png,,,,,,,,,,,,,,,,,,
651.5,,rt_thecrossant_black,773107,,,black_plus_sign,,,,,49,,,0.9883720930232558,1,,,,,,,,,,,,,,,,
null,,color_black,773216,,,black_plus_sign,,,,,null,,,,,,,,,,,,,,,,,,,,
null,,learn_phase(without_color),776232,,,black_plus_sign,,,,,null,US_Cities_List/peoria.png,US_Cities_List/hanover.png,,,,,,,,,,,,,,,,,,
null,,black_cross(without_color),776923,,,yellow,,,,,null,US_Cities_List/peoria.png,US_Cities_List/hanover.png,,,,,,,,,,,,,,,,,,
429.0999999642372,,rt_plussign_withcolor,777431,,,yellow,,,,,50,US_Cities_List/peoria.png,US_Cities_List/hanover.png,,,,,,,,,,,,,,,,,,
null,,rt_thecrossant_black,778758,,,black_plus_sign,,,,,null,,,0.9885057471264368,1,,,,,,,,,,,,,,,,
null,,color_black,778867,,,black_plus_sign,,,,,null,,,,,,,,,,,,,,,,,,,,
null,,learn_phase(without_color),781892,,,black_plus_sign,,,,,null,US_Cities_List/westpalmbeach.png,US_Cities_List/racine.png,,,,,,,,,,,,,,,,,,
null,,black_cross(without_color),782752,,,yellow,,,,,null,US_Cities_List/westpalmbeach.png,US_Cities_List/racine.png,,,,,,,,,,,,,,,,,,
489.30000001192093,,rt_plussign_withcolor,783255,,,yellow,,,,,50,US_Cities_List/westpalmbeach.png,US_Cities_List/racine.png,,,,,,,,,,,,,,,,,,
null,,rt_thecrossant_black,784407,,,black_plus_sign,,,,,null,,,0.9886363636363636,1,,,,,,,,,,,,,,,,
null,,color_black,784524,,,black_plus_sign,,,,,null,,,,,,,,,,,,,,,,,,,,
null,,learn_phase(without_color),787533,,,black_plus_sign,,,,,null,US_Cities_List/huntsville.png,US_Cities_List/boulder.png,,,,,,,,,,,,,,,,,,
null,,black_cross(without_color),788484,,,blue,,,,,null,US_Cities_List/huntsville.png,US_Cities_List/boulder.png,,,,,,,,,,,,,,,,,,
458.69999998807907,,rt_plussign_withcolor,788991,,,blue,,,,,49,US_Cities_List/huntsville.png,US_Cities_List/boulder.png,,,,,,,,,,,,,,,,,,
null,,rt_thecrossant_black,790052,,,black_plus_sign,,,,,null,,,0.9887640449438202,1,,,,,,,,,,,,,,,,
null,,color_black,790156,,,black_plus_sign,,,,,null,,,,,,,,,,,,,,,,,,,,
null,,learn_phase(without_color),793175,,,black_plus_sign,,,,,null,US_Cities_List/gatlinburg.png,US_Cities_List/racine.png,,,,,,,,,,,,,,,,,,
null,,black_cross(without_color),793699,,,blue,,,,,null,US_Cities_List/gatlinburg.png,US_Cities_List/racine.png,,,,,,,,,,,,,,,,,,
436.5999999642372,,rt_plussign_withcolor,794209,,,blue,,,,,49,US_Cities_List/gatlinburg.png,US_Cities_List/racine.png,,,,,,,,,,,,,,,,,,
null,,rt_thecrossant_black,795716,,,black_plus_sign,,,,,null,,,0.9888888888888889,1,,,,,,,,,,,,,,,,
null,,color_black,795833,,,black_plus_sign,,,,,null,,,,,,,,,,,,,,,,,,,,
null,,learn_phase(without_color),798857,,,black_plus_sign,,,,,null,US_Cities_List/hanover.png,US_Cities_List/leesburg.png,,,,,,,,,,,,,,,,,,
null,,black_cross(without_color),799633,,,blue,,,,,null,US_Cities_List/hanover.png,US_Cities_List/leesburg.png,,,,,,,,,,,,,,,,,,
452.30000001192093,,rt_plussign_withcolor,800139,,,blue,,,,,49,US_Cities_List/hanover.png,US_Cities_List/leesburg.png,,,,,,,,,,,,,,,,,,
null,,rt_thecrossant_black,801380,,,black_plus_sign,,,,,null,,,0.989010989010989,1,,,,,,,,,,,,,,,,
null,,color_black,801486,,,black_plus_sign,,,,,null,,,,,,,,,,,,,,,,,,,,
null,,learn_phase(without_color),804508,,,black_plus_sign,,,,,null,US_Cities_List/racine.png,US_Cities_List/peoria.png,,,,,,,,,,,,,,,,,,
null,,black_cross(without_color),805372,,,blue,,,,,null,US_Cities_List/racine.png,US_Cities_List/peoria.png,,,,,,,,,,,,,,,,,,
406.89999997615814,,rt_plussign_withcolor,805880,,,blue,,,,,49,US_Cities_List/racine.png,US_Cities_List/peoria.png,,,,,,,,,,,,,,,,,,
null,,rt_thecrossant_black,807040,,,black_plus_sign,,,,,null,,,0.9891304347826086,1,,,,,,,,,,,,,,,,
null,,color_black,807150,,,black_plus_sign,,,,,null,,,,,,,,,,,,,,,,,,,,
null,,learn_phase(without_color),810174,,,black_plus_sign,,,,,null,US_Cities_List/gatlinburg.png,US_Cities_List/racine.png,,,,,,,,,,,,,,,,,,
null,,black_cross(without_color),811005,,,yellow,,,,,null,US_Cities_List/gatlinburg.png,US_Cities_List/racine.png,,,,,,,,,,,,,,,,,,
491.10000002384186,,rt_plussign_withcolor,811511,,,yellow,,,,,50,US_Cities_List/gatlinburg.png,US_Cities_List/racine.png,,,,,,,,,,,,,,,,,,
null,,rt_thecrossant_black,812703,,,black_plus_sign,,,,,null,,,0.989247311827957,1,,,,,,,,,,,,,,,,
null,,color_black,812815,,,black_plus_sign,,,,,null,,,,,,,,,,,,,,,,,,,,
null,,learn_phase(without_color),815833,,,black_plus_sign,,,,,null,US_Cities_List/peoria.png,US_Cities_List/racine.png,,,,,,,,,,,,,,,,,,
null,,black_cross(without_color),816567,,,blue,,,,,null,US_Cities_List/peoria.png,US_Cities_List/racine.png,,,,,,,,,,,,,,,,,,
375.60000002384186,,rt_plussign_withcolor,817070,,,blue,,,,,49,US_Cities_List/peoria.png,US_Cities_List/racine.png,,,,,,,,,,,,,,,,,,
null,,rt_thecrossant_black,818349,,,black_plus_sign,,,,,null,,,0.9893617021276596,1,,,,,,,,,,,,,,,,
null,,color_black,818458,,,black_plus_sign,,,,,null,,,,,,,,,,,,,,,,,,,,
null,,learn_phase(without_color),821475,,,black_plus_sign,,,,,null,US_Cities_List/westpalmbeach.png,US_Cities_List/shreveport.png,,,,,,,,,,,,,,,,,,
null,,black_cross(without_color),822075,,,blue,,,,,null,US_Cities_List/westpalmbeach.png,US_Cities_List/shreveport.png,,,,,,,,,,,,,,,,,,
null,,rt_plussign_withcolor,822583,,,blue,,,,,null,US_Cities_List/westpalmbeach.png,US_Cities_List/shreveport.png,,,,,,,,,,,,,,,,,,
1017.2999999523163,,rt_thecrossant_black,824000,,,black_plus_sign,,,,,49,,,0.9894736842105263,1,,,,,,,,,,,,,,,,
null,,color_black,824108,,,black_plus_sign,,,,,null,,,,,,,,,,,,,,,,,,,,
null,,learn_phase(without_color),827125,,,black_plus_sign,,,,,null,US_Cities_List/boulder.png,US_Cities_List/cornwall.png,,,,,,,,,,,,,,,,,,
null,,black_cross(without_color),827700,,,blue,,,,,null,US_Cities_List/boulder.png,US_Cities_List/cornwall.png,,,,,,,,,,,,,,,,,,
null,,rt_plussign_withcolor,828209,,,blue,,,,,null,US_Cities_List/boulder.png,US_Cities_List/cornwall.png,,,,,,,,,,,,,,,,,,
739.3000000119209,,rt_thecrossant_black,829647,,,black_plus_sign,,,,,49,,,0.9895833333333334,1,,,,,,,,,,,,,,,,
null,,color_black,829758,,,black_plus_sign,,,,,null,,,,,,,,,,,,,,,,,,,,
null,,learn_phase(without_color),832776,,,black_plus_sign,,,,,null,US_Cities_List/huntsville.png,US_Cities_List/boulder.png,,,,,,,,,,,,,,,,,,
null,,black_cross(without_color),833593,,,yellow,,,,,null,US_Cities_List/huntsville.png,US_Cities_List/boulder.png,,,,,,,,,,,,,,,,,,
425,,rt_plussign_withcolor,834100,,,yellow,,,,,50,US_Cities_List/huntsville.png,US_Cities_List/boulder.png,,,,,,,,,,,,,,,,,,
null,,rt_thecrossant_black,835304,,,black_plus_sign,,,,,null,,,0.9896907216494846,1,,,,,,,,,,,,,,,,
null,,color_black,835409,,,black_plus_sign,,,,,null,,,,,,,,,,,,,,,,,,,,
null,,learn_phase(without_color),838423,,,black_plus_sign,,,,,null,US_Cities_List/carmel.png,US_Cities_List/peoria.png,,,,,,,,,,,,,,,,,,
null,,black_cross(without_color),839010,,,blue,,,,,null,US_Cities_List/carmel.png,US_Cities_List/peoria.png,,,,,,,,,,,,,,,,,,
481.69999998807907,,rt_plussign_withcolor,839516,,,blue,,,,,49,US_Cities_List/carmel.png,US_Cities_List/peoria.png,,,,,,,,,,,,,,,,,,
null,,rt_thecrossant_black,840943,,,black_plus_sign,,,,,null,,,0.9897959183673469,1,,,,,,,,,,,,,,,,
null,,color_black,841055,,,black_plus_sign,,,,,null,,,,,,,,,,,,,,,,,,,,
null,,learn_phase(without_color),844067,,,black_plus_sign,,,,,null,US_Cities_List/carmel.png,US_Cities_List/huntsville.png,,,,,,,,,,,,,,,,,,
null,,black_cross(without_color),844960,,,blue,,,,,null,US_Cities_List/carmel.png,US_Cities_List/huntsville.png,,,,,,,,,,,,,,,,,,
null,,rt_plussign_withcolor,845467,,,blue,,,,,null,US_Cities_List/carmel.png,US_Cities_List/huntsville.png,,,,,,,,,,,,,,,,,,
903.4000000357628,,rt_thecrossant_black,846593,,,black_plus_sign,,,,,49,,,0.98989898989899,1,,,,,,,,,,,,,,,,
null,,color_black,846710,,,black_plus_sign,,,,,null,,,,,,,,,,,,,,,,,,,,
null,,learn_phase(without_color),849728,,,black_plus_sign,,,,,null,US_Cities_List/boulder.png,US_Cities_List/cornwall.png,,,,,,,,,,,,,,,,,,
null,,black_cross(without_color),850317,,,yellow,,,,,null,US_Cities_List/boulder.png,US_Cities_List/cornwall.png,,,,,,,,,,,,,,,,,,
null,,rt_plussign_withcolor,850827,,,yellow,,,,,null,US_Cities_List/boulder.png,US_Cities_List/cornwall.png,,,,,,,,,,,,,,,,,,
1084.5,,rt_thecrossant_black,852259,,,black_plus_sign,,,,,50,,,0.99,1,,,,,,,,,,,,,,,,
null,,color_black,852369,,,black_plus_sign,,,,,null,,,,,,,,,,,,,,,,,,,,
null,,learn_phase(without_color),855385,,,black_plus_sign,,,,,null,US_Cities_List/huntsville.png,US_Cities_List/boulder.png,,,,,,,,,,,,,,,,,,
null,,black_cross(without_color),855851,,,blue,,,,,null,US_Cities_List/huntsville.png,US_Cities_List/boulder.png,,,,,,,,,,,,,,,,,,
null,,rt_plussign_withcolor,856365,,,blue,,,,,null,US_Cities_List/huntsville.png,US_Cities_List/boulder.png,,,,,,,,,,,,,,,,,,
746.3000000119209,,rt_thecrossant_black,857926,,,black_plus_sign,,,,,49,,,0.9900990099009901,1,,,,,,,,,,,,,,,,
null,,color_black,858034,,,black_plus_sign,,,,,null,,,,,,,,,,,,,,,,,,,,
null,,learn_phase(without_color),861054,,,black_plus_sign,,,,,null,US_Cities_List/boulder.png,US_Cities_List/huntsville.png,,,,,,,,,,,,,,,,,,
null,,black_cross(without_color),861645,,,blue,,,,,null,US_Cities_List/boulder.png,US_Cities_List/huntsville.png,,,,,,,,,,,,,,,,,,
null,,rt_plussign_withcolor,862156,,,blue,,,,,null,US_Cities_List/boulder.png,US_Cities_List/huntsville.png,,,,,,,,,,,,,,,,,,
736.3000000119209,,rt_thecrossant_black,863583,,,black_plus_sign,,,,,49,,,0.9901960784313726,1,,,,,,,,,,,,,,,,
null,,color_black,863694,,,black_plus_sign,,,,,null,,,,,,,,,,,,,,,,,,,,
null,,learn_phase(without_color),866728,,,black_plus_sign,,,,,null,US_Cities_List/cornwall.png,US_Cities_List/boulder.png,,,,,,,,,,,,,,,,,,
null,,black_cross(without_color),867779,,,blue,,,,,null,US_Cities_List/cornwall.png,US_Cities_List/boulder.png,,,,,,,,,,,,,,,,,,
null,,rt_plussign_withcolor,868287,,,blue,,,,,null,US_Cities_List/cornwall.png,US_Cities_List/boulder.png,,,,,,,,,,,,,,,,,,
788.2999999523163,,rt_thecrossant_black,869255,,,black_plus_sign,,,,,49,,,0.9902912621359223,1,,,,,,,,,,,,,,,,
null,,color_black,869365,,,black_plus_sign,,,,,null,,,,,,,,,,,,,,,,,,,,
null,,learn_phase(without_color),872384,,,black_plus_sign,,,,,null,US_Cities_List/racine.png,US_Cities_List/hanover.png,,,,,,,,,,,,,,,,,,
null,,black_cross(without_color),873022,,,blue,,,,,null,US_Cities_List/racine.png,US_Cities_List/hanover.png,,,,,,,,,,,,,,,,,,
null,,rt_plussign_withcolor,873539,,,blue,,,,,null,US_Cities_List/racine.png,US_Cities_List/hanover.png,,,,,,,,,,,,,,,,,,
1695.2999999523163,,rt_thecrossant_black,874936,,,black_plus_sign,,,,,49,,,0.9903846153846154,1,,,,,,,,,,,,,,,,
null,,color_black,875043,,,black_plus_sign,,,,,null,,,,,,,,,,,,,,,,,,,,
null,,learn_phase(without_color),878056,,,black_plus_sign,,,,,null,US_Cities_List/peoria.png,US_Cities_List/westpalmbeach.png,,,,,,,,,,,,,,,,,,
null,,black_cross(without_color),878965,,,yellow,,,,,null,US_Cities_List/peoria.png,US_Cities_List/westpalmbeach.png,,,,,,,,,,,,,,,,,,
327.5,,rt_plussign_withcolor,879467,,,yellow,,,,,50,US_Cities_List/peoria.png,US_Cities_List/westpalmbeach.png,,,,,,,,,,,,,,,,,,
null,,rt_thecrossant_black,880571,,,black_plus_sign,,,,,null,,,0.9904761904761905,1,,,,,,,,,,,,,,,,
null,,color_black,880677,,,black_plus_sign,,,,,null,,,,,,,,,,,,,,,,,,,,
null,,learn_phase(without_color),883699,,,black_plus_sign,,,,,null,US_Cities_List/peoria.png,US_Cities_List/carmel.png,,,,,,,,,,,,,,,,,,
null,,black_cross(without_color),884784,,,blue,,,,,null,US_Cities_List/peoria.png,US_Cities_List/carmel.png,,,,,,,,,,,,,,,,,,
null,,rt_plussign_withcolor,885288,,,blue,,,,,null,US_Cities_List/peoria.png,US_Cities_List/carmel.png,,,,,,,,,,,,,,,,,,
1213.800000011921,,rt_thecrossant_black,886227,,,black_plus_sign,,,,,49,,,0.9905660377358491,1,,,,,,,,,,,,,,,,
null,,color_black,886346,,,black_plus_sign,,,,,null,,,,,,,,,,,,,,,,,,,,
null,,learn_phase(without_color),889367,,,black_plus_sign,,,,,null,US_Cities_List/shreveport.png,US_Cities_List/cornwall.png,,,,,,,,,,,,,,,,,,
null,,black_cross(without_color),890034,,,yellow,,,,,null,US_Cities_List/shreveport.png,US_Cities_List/cornwall.png,,,,,,,,,,,,,,,,,,
null,,rt_plussign_withcolor,890553,,,yellow,,,,,null,US_Cities_List/shreveport.png,US_Cities_List/cornwall.png,,,,,,,,,,,,,,,,,,
1703.699999988079,,rt_thecrossant_black,891895,,,black_plus_sign,,,,,50,,,0.9906542056074766,1,,,,,,,,,,,,,,,,
null,,color_black,892006,,,black_plus_sign,,,,,null,,,,,,,,,,,,,,,,,,,,
null,,learn_phase(without_color),895017,,,black_plus_sign,,,,,null,US_Cities_List/hotsprings.png,US_Cities_List/boulder.png,,,,,,,,,,,,,,,,,,
null,,black_cross(without_color),895506,,,blue,,,,,null,US_Cities_List/hotsprings.png,US_Cities_List/boulder.png,,,,,,,,,,,,,,,,,,
null,,rt_plussign_withcolor,896020,,,blue,,,,,null,US_Cities_List/hotsprings.png,US_Cities_List/boulder.png,,,,,,,,,,,,,,,,,,
1120.8999999761581,,rt_thecrossant_black,897550,,,black_plus_sign,,,,,49,,,0.9907407407407407,1,,,,,,,,,,,,,,,,
null,,color_black,897661,,,black_plus_sign,,,,,null,,,,,,,,,,,,,,,,,,,,
null,,learn_phase(without_color),900682,,,black_plus_sign,,,,,null,US_Cities_List/cornwall.png,US_Cities_List/boulder.png,,,,,,,,,,,,,,,,,,
null,,black_cross(without_color),901785,,,yellow,,,,,null,US_Cities_List/cornwall.png,US_Cities_List/boulder.png,,,,,,,,,,,,,,,,,,
null,,rt_plussign_withcolor,902300,,,yellow,,,,,null,US_Cities_List/cornwall.png,US_Cities_List/boulder.png,,,,,,,,,,,,,,,,,,
726.8999999761581,,rt_thecrossant_black,903208,,,black_plus_sign,,,,,50,,,0.9908256880733946,1,,,,,,,,,,,,,,,,
null,,color_black,903325,,,black_plus_sign,,,,,null,,,,,,,,,,,,,,,,,,,,
null,,learn_phase(without_color),906352,,,black_plus_sign,,,,,null,US_Cities_List/shreveport.png,US_Cities_List/cornwall.png,,,,,,,,,,,,,,,,,,
null,,black_cross(without_color),907104,,,blue,,,,,null,US_Cities_List/shreveport.png,US_Cities_List/cornwall.png,,,,,,,,,,,,,,,,,,
418.30000001192093,,rt_plussign_withcolor,907615,,,blue,,,,,49,US_Cities_List/shreveport.png,US_Cities_List/cornwall.png,,,,,,,,,,,,,,,,,,
null,,rt_thecrossant_black,908884,,,black_plus_sign,,,,,null,,,0.990909090909091,1,,,,,,,,,,,,,,,,
null,,color_black,908995,,,black_plus_sign,,,,,null,,,,,,,,,,,,,,,,,,,,
null,,learn_phase(without_color),912014,,,black_plus_sign,,,,,null,US_Cities_List/gatlinburg.png,US_Cities_List/racine.png,,,,,,,,,,,,,,,,,,
null,,black_cross(without_color),912862,,,blue,,,,,null,US_Cities_List/gatlinburg.png,US_Cities_List/racine.png,,,,,,,,,,,,,,,,,,
null,,rt_plussign_withcolor,913378,,,blue,,,,,null,US_Cities_List/gatlinburg.png,US_Cities_List/racine.png,,,,,,,,,,,,,,,,,,
891,,rt_thecrossant_black,914544,,,black_plus_sign,,,,,49,,,0.990990990990991,1,,,,,,,,,,,,,,,,
null,,color_black,914653,,,black_plus_sign,,,,,null,,,,,,,,,,,,,,,,,,,,
null,,learn_phase(without_color),917670,,,black_plus_sign,,,,,null,US_Cities_List/racine.png,US_Cities_List/westpalmbeach.png,,,,,,,,,,,,,,,,,,
null,,black_cross(without_color),918403,,,blue,,,,,null,US_Cities_List/racine.png,US_Cities_List/westpalmbeach.png,,,,,,,,,,,,,,,,,,
null,,rt_plussign_withcolor,918909,,,blue,,,,,null,US_Cities_List/racine.png,US_Cities_List/westpalmbeach.png,,,,,,,,,,,,,,,,,,
1081.300000011921,,rt_thecrossant_black,920203,,,black_plus_sign,,,,,49,,,0.9910714285714286,1,,,,,,,,,,,,,,,,
null,,color_black,920312,,,black_plus_sign,,,,,null,,,,,,,,,,,,,,,,,,,,
null,,learn_phase(without_color),923331,,,black_plus_sign,,,,,null,US_Cities_List/racine.png,US_Cities_List/hanover.png,,,,,,,,,,,,,,,,,,
null,,black_cross(without_color),924437,,,yellow,,,,,null,US_Cities_List/racine.png,US_Cities_List/hanover.png,,,,,,,,,,,,,,,,,,
394.39999997615814,,rt_plussign_withcolor,924954,,,yellow,,,,,50,US_Cities_List/racine.png,US_Cities_List/hanover.png,,,,,,,,,,,,,,,,,,
null,,rt_thecrossant_black,925869,,,black_plus_sign,,,,,null,,,0.9911504424778761,1,,,,,,,,,,,,,,,,
null,,color_black,925977,,,black_plus_sign,,,,,null,,,,,,,,,,,,,,,,,,,,
null,,learn_phase(without_color),928998,,,black_plus_sign,,,,,null,US_Cities_List/leesburg.png,US_Cities_List/hanover.png,,,,,,,,,,,,,,,,,,
null,,black_cross(without_color),929995,,,blue,,,,,null,US_Cities_List/leesburg.png,US_Cities_List/hanover.png,,,,,,,,,,,,,,,,,,
496,,rt_plussign_withcolor,930502,,,blue,,,,,49,US_Cities_List/leesburg.png,US_Cities_List/hanover.png,,,,,,,,,,,,,,,,,,
null,,rt_thecrossant_black,931525,,,black_plus_sign,,,,,null,,,0.9912280701754386,1,,,,,,,,,,,,,,,,
null,,color_black,931636,,,black_plus_sign,,,,,null,,,,,,,,,,,,,,,,,,,,
null,,learn_phase(without_color),934660,,,black_plus_sign,,,,,null,US_Cities_List/westpalmbeach.png,US_Cities_List/racine.png,,,,,,,,,,,,,,,,,,
null,,black_cross(without_color),935378,,,yellow,,,,,null,US_Cities_List/westpalmbeach.png,US_Cities_List/racine.png,,,,,,,,,,,,,,,,,,
null,,rt_plussign_withcolor,935886,,,yellow,,,,,null,US_Cities_List/westpalmbeach.png,US_Cities_List/racine.png,,,,,,,,,,,,,,,,,,
1501.8999999761581,,rt_thecrossant_black,937190,,,black_plus_sign,,,,,50,,,0.991304347826087,1,,,,,,,,,,,,,,,,
null,,color_black,937300,,,black_plus_sign,,,,,null,,,,,,,,,,,,,,,,,,,,
null,,learn_phase(without_color),940327,,,black_plus_sign,,,,,null,US_Cities_List/newhope.png,US_Cities_List/cornwall.png,,,,,,,,,,,,,,,,,,
null,,black_cross(without_color),941110,,,yellow,,,,,null,US_Cities_List/newhope.png,US_Cities_List/cornwall.png,,,,,,,,,,,,,,,,,,
null,,rt_plussign_withcolor,941621,,,yellow,,,,,null,US_Cities_List/newhope.png,US_Cities_List/cornwall.png,,,,,,,,,,,,,,,,,,
969.5999999642372,,rt_thecrossant_black,942850,,,black_plus_sign,,,,,50,,,0.9913793103448276,1,,,,,,,,,,,,,,,,
null,,color_black,942956,,,black_plus_sign,,,,,null,,,,,,,,,,,,,,,,,,,,
null,,learn_phase(without_color),945970,,,black_plus_sign,,,,,null,US_Cities_List/shreveport.png,US_Cities_List/carmel.png,,,,,,,,,,,,,,,,,,
null,,black_cross(without_color),946962,,,yellow,,,,,null,US_Cities_List/shreveport.png,US_Cities_List/carmel.png,,,,,,,,,,,,,,,,,,
null,,rt_plussign_withcolor,947468,,,yellow,,,,,null,US_Cities_List/shreveport.png,US_Cities_List/carmel.png,,,,,,,,,,,,,,,,,,
1036,,rt_thecrossant_black,948495,,,black_plus_sign,,,,,50,,,0.9914529914529915,1,,,,,,,,,,,,,,,,
null,,color_black,948603,,,black_plus_sign,,,,,null,,,,,,,,,,,,,,,,,,,,
null,,learn_phase(without_color),951621,,,black_plus_sign,,,,,null,US_Cities_List/hanover.png,US_Cities_List/racine.png,,,,,,,,,,,,,,,,,,
null,,black_cross(without_color),952387,,,yellow,,,,,null,US_Cities_List/hanover.png,US_Cities_List/racine.png,,,,,,,,,,,,,,,,,,
null,,rt_plussign_withcolor,952903,,,yellow,,,,,null,US_Cities_List/hanover.png,US_Cities_List/racine.png,,,,,,,,,,,,,,,,,,
1106,,rt_thecrossant_black,954161,,,black_plus_sign,,,,,50,,,0.9915254237288136,1,,,,,,,,,,,,,,,,
null,,color_black,954279,,,black_plus_sign,,,,,null,,,,,,,,,,,,,,,,,,,,
null,,learn_phase(without_color),957295,,,black_plus_sign,,,,,null,US_Cities_List/shreveport.png,US_Cities_List/carmel.png,,,,,,,,,,,,,,,,,,
null,,black_cross(without_color),957846,,,yellow,,,,,null,US_Cities_List/shreveport.png,US_Cities_List/carmel.png,,,,,,,,,,,,,,,,,,
505.19999998807907,,rt_plussign_withcolor,958354,,,yellow,,,,,50,US_Cities_List/shreveport.png,US_Cities_List/carmel.png,,,,,,,,,,,,,,,,,,
null,,rt_thecrossant_black,959825,,,black_plus_sign,,,,,null,,,0.9915966386554622,1,,,,,,,,,,,,,,,,
null,,color_black,959936,,,black_plus_sign,,,,,null,,,,,,,,,,,,,,,,,,,,
null,,learn_phase(without_color),962948,,,black_plus_sign,,,,,null,US_Cities_List/hotsprings.png,US_Cities_List/boulder.png,,,,,,,,,,,,,,,,,,
null,,black_cross(without_color),963463,,,yellow,,,,,null,US_Cities_List/hotsprings.png,US_Cities_List/boulder.png,,,,,,,,,,,,,,,,,,
498.5999999642372,,rt_plussign_withcolor,963965,,,yellow,,,,,50,US_Cities_List/hotsprings.png,US_Cities_List/boulder.png,,,,,,,,,,,,,,,,,,
null,,rt_thecrossant_black,965469,,,black_plus_sign,,,,,null,,,0.9916666666666667,1,,,,,,,,,,,,,,,,
null,,color_black,965580,,,black_plus_sign,,,,,null,,,,,,,,,,,,,,,,,,,,
null,,learn_phase(without_color),968595,,,black_plus_sign,,,,,null,US_Cities_List/westpalmbeach.png,US_Cities_List/shreveport.png,,,,,,,,,,,,,,,,,,
null,,black_cross(without_color),969435,,,yellow,,,,,null,US_Cities_List/westpalmbeach.png,US_Cities_List/shreveport.png,,,,,,,,,,,,,,,,,,
null,,rt_plussign_withcolor,969946,,,yellow,,,,,null,US_Cities_List/westpalmbeach.png,US_Cities_List/shreveport.png,,,,,,,,,,,,,,,,,,
1203,,rt_thecrossant_black,971119,,,black_plus_sign,,,,,50,,,0.9917355371900827,1,,,,,,,,,,,,,,,,
null,,color_black,971222,,,black_plus_sign,,,,,null,,,,,,,,,,,,,,,,,,,,
null,,learn_phase(without_color),974245,,,black_plus_sign,,,,,null,US_Cities_List/cornwall.png,US_Cities_List/shreveport.png,,,,,,,,,,,,,,,,,,
null,,black_cross(without_color),974930,,,yellow,,,,,null,US_Cities_List/cornwall.png,US_Cities_List/shreveport.png,,,,,,,,,,,,,,,,,,
null,,rt_plussign_withcolor,975446,,,yellow,,,,,null,US_Cities_List/cornwall.png,US_Cities_List/shreveport.png,,,,,,,,,,,,,,,,,,
1007.0999999642372,,rt_thecrossant_black,976786,,,black_plus_sign,,,,,50,,,0.9918032786885246,1,,,,,,,,,,,,,,,,
null,,color_black,976896,,,black_plus_sign,,,,,null,,,,,,,,,,,,,,,,,,,,
null,,learn_phase(without_color),979919,,,black_plus_sign,,,,,null,US_Cities_List/cornwall.png,US_Cities_List/newhope.png,,,,,,,,,,,,,,,,,,
null,,black_cross(without_color),980869,,,yellow,,,,,null,US_Cities_List/cornwall.png,US_Cities_List/newhope.png,,,,,,,,,,,,,,,,,,
459.9000000357628,,rt_plussign_withcolor,981375,,,yellow,,,,,50,US_Cities_List/cornwall.png,US_Cities_List/newhope.png,,,,,,,,,,,,,,,,,,
null,,rt_thecrossant_black,982436,,,black_plus_sign,,,,,null,,,0.991869918699187,1,,,,,,,,,,,,,,,,
null,,color_black,982546,,,black_plus_sign,,,,,null,,,,,,,,,,,,,,,,,,,,
null,,learn_phase(without_color),985568,,,black_plus_sign,,,,,null,US_Cities_List/carmel.png,US_Cities_List/peoria.png,,,,,,,,,,,,,,,,,,
null,,black_cross(without_color),986420,,,yellow,,,,,null,US_Cities_List/carmel.png,US_Cities_List/peoria.png,,,,,,,,,,,,,,,,,,
null,,rt_plussign_withcolor,986929,,,yellow,,,,,null,US_Cities_List/carmel.png,US_Cities_List/peoria.png,,,,,,,,,,,,,,,,,,
1247.6000000238419,,rt_thecrossant_black,988103,,,black_plus_sign,,,,,50,,,0.9919354838709677,1,,,,,,,,,,,,,,,,
null,,color_black,988213,,,black_plus_sign,,,,,null,,,,,,,,,,,,,,,,,,,,
null,,learn_phase(without_color),991236,,,black_plus_sign,,,,,null,US_Cities_List/peoria.png,US_Cities_List/racine.png,,,,,,,,,,,,,,,,,,
null,,black_cross(without_color),991903,,,blue,,,,,null,US_Cities_List/peoria.png,US_Cities_List/racine.png,,,,,,,,,,,,,,,,,,
null,,rt_plussign_withcolor,992414,,,blue,,,,,null,US_Cities_List/peoria.png,US_Cities_List/racine.png,,,,,,,,,,,,,,,,,,
1016.8000000119209,,rt_thecrossant_black,993762,,,black_plus_sign,,,,,49,,,0.992,1,,,,,,,,,,,,,,,,
null,,color_black,993872,,,black_plus_sign,,,,,null,,,,,,,,,,,,,,,,,,,,
null,,learn_phase(without_color),996896,,,black_plus_sign,,,,,null,US_Cities_List/gatlinburg.png,US_Cities_List/racine.png,,,,,,,,,,,,,,,,,,
null,,black_cross(without_color),997353,,,yellow,,,,,null,US_Cities_List/gatlinburg.png,US_Cities_List/racine.png,,,,,,,,,,,,,,,,,,
null,,rt_plussign_withcolor,997863,,,yellow,,,,,null,US_Cities_List/gatlinburg.png,US_Cities_List/racine.png,,,,,,,,,,,,,,,,,,
840.9000000357628,,rt_thecrossant_black,999419,,,black_plus_sign,,,,,50,,,0.9920634920634921,1,,,,,,,,,,,,,,,,
null,,color_black,999530,,,black_plus_sign,,,,,null,,,,,,,,,,,,,,,,,,,,
null,,learn_break,1059533,,,learn_break,,,,,null,,,,,,,,,,,,,,,,,,,,
10372.199999988079,,intro_1,1069907,,,instruct,,,0,,,,,,,,,,,,,,,,,,,,,,
8540.100000023842,,intro_2,1078448,,,instruct,,,1,Next,,,,,,,,,,,,,,,,,,,,,
3315.100000023842,,directmemory_phase,1081774,,,../static/images/US_Cities_List/shreveport.png,,,,,49,,,1,1,../static/images/US_Cities_List/carmel.png,../static/images/US_Cities_List/hanover.png,../static/images/US_Cities_List/newhope.png,../static/images/US_Cities_List/carmel.png,../static/images/US_Cities_List/newhope.png,../static/images/US_Cities_List/hanover.png,1,,,,,,,,,
null,,html-keyboard-response,1082778,,,<p></p>,,,,,null,,,,,,,,,,,,,,,,,,,,
3001,,directmemory_phase,1085789,,,../static/images/US_Cities_List/racine.png,,,,,50,,,1,1,../static/images/US_Cities_List/carmel.png,../static/images/US_Cities_List/peoria.png,../static/images/US_Cities_List/huntsville.png,../static/images/US_Cities_List/peoria.png,../static/images/US_Cities_List/carmel.png,../static/images/US_Cities_List/huntsville.png,1,,,,,,,,,
null,,html-keyboard-response,1086792,,,<p></p>,,,,,null,,,,,,,,,,,,,,,,,,,,
2317.100000023842,,directmemory_phase,1089122,,,../static/images/US_Cities_List/carmel.png,,,,,51,,,1,1,../static/images/US_Cities_List/newhope.png,../static/images/US_Cities_List/hanover.png,../static/images/US_Cities_List/shreveport.png,../static/images/US_Cities_List/shreveport.png,../static/images/US_Cities_List/hanover.png,../static/images/US_Cities_List/newhope.png,1,,,,,,,,,
null,,html-keyboard-response,1090125,,,<p></p>,,,,,null,,,,,,,,,,,,,,,,,,,,
968.8000000119209,,directmemory_phase,1091108,,,../static/images/US_Cities_List/newhope.png,,,,,49,,,1,1,../static/images/US_Cities_List/cornwall.png,../static/images/US_Cities_List/peoria.png,../static/images/US_Cities_List/shreveport.png,../static/images/US_Cities_List/cornwall.png,../static/images/US_Cities_List/shreveport.png,../static/images/US_Cities_List/peoria.png,1,,,,,,,,,
null,,html-keyboard-response,1092110,,,<p></p>,,,,,null,,,,,,,,,,,,,,,,,,,,
2109.099999964237,,directmemory_phase,1094230,,,../static/images/US_Cities_List/shreveport.png,,,,,49,,,1,1,../static/images/US_Cities_List/westpalmbeach.png,../static/images/US_Cities_List/hanover.png,../static/images/US_Cities_List/huntsville.png,../static/images/US_Cities_List/westpalmbeach.png,../static/images/US_Cities_List/huntsville.png,../static/images/US_Cities_List/hanover.png,1,,,,,,,,,
null,,html-keyboard-response,1095233,,,<p></p>,,,,,null,,,,,,,,,,,,,,,,,,,,
1023.4000000357628,,directmemory_phase,1096270,,,../static/images/US_Cities_List/cornwall.png,,,,,51,,,1,1,../static/images/US_Cities_List/racine.png,../static/images/US_Cities_List/carmel.png,../static/images/US_Cities_List/newhope.png,../static/images/US_Cities_List/newhope.png,../static/images/US_Cities_List/carmel.png,../static/images/US_Cities_List/racine.png,1,,,,,,,,,
null,,html-keyboard-response,1097274,,,<p></p>,,,,,null,,,,,,,,,,,,,,,,,,,,
2218,,directmemory_phase,1099505,,,../static/images/US_Cities_List/carmel.png,,,,,51,,,1,1,../static/images/US_Cities_List/hotsprings.png,../static/images/US_Cities_List/boulder.png,../static/images/US_Cities_List/peoria.png,../static/images/US_Cities_List/peoria.png,../static/images/US_Cities_List/boulder.png,../static/images/US_Cities_List/hotsprings.png,1,,,,,,,,,
null,,html-keyboard-response,1100508,,,<p></p>,,,,,null,,,,,,,,,,,,,,,,,,,,
2893.300000011921,,directmemory_phase,1103415,,,../static/images/US_Cities_List/cornwall.png,,,,,50,,,1,1,../static/images/US_Cities_List/huntsville.png,../static/images/US_Cities_List/shreveport.png,../static/images/US_Cities_List/gatlinburg.png,../static/images/US_Cities_List/shreveport.png,../static/images/US_Cities_List/huntsville.png,../static/images/US_Cities_List/gatlinburg.png,1,,,,,,,,,
null,,html-keyboard-response,1104418,,,<p></p>,,,,,null,,,,,,,,,,,,,,,,,,,,
1513.9000000357628,,directmemory_phase,1105944,,,../static/images/US_Cities_List/peoria.png,,,,,51,,,1,1,../static/images/US_Cities_List/hotsprings.png,../static/images/US_Cities_List/gatlinburg.png,../static/images/US_Cities_List/westpalmbeach.png,../static/images/US_Cities_List/westpalmbeach.png,../static/images/US_Cities_List/gatlinburg.png,../static/images/US_Cities_List/hotsprings.png,1,,,,,,,,,
null,,html-keyboard-response,1106947,,,<p></p>,,,,,null,,,,,,,,,,,,,,,,,,,,
1060.5,,directmemory_phase,1108018,,,../static/images/US_Cities_List/hanover.png,,,,,50,,,1,1,../static/images/US_Cities_List/gatlinburg.png,../static/images/US_Cities_List/leesburg.png,../static/images/US_Cities_List/boulder.png,../static/images/US_Cities_List/leesburg.png,../static/images/US_Cities_List/gatlinburg.png,../static/images/US_Cities_List/boulder.png,1,,,,,,,,,
null,,html-keyboard-response,1109021,,,<p></p>,,,,,null,,,,,,,,,,,,,,,,,,,,
824.3000000119209,,directmemory_phase,1109855,,,../static/images/US_Cities_List/hotsprings.png,,,,,49,,,1,1,../static/images/US_Cities_List/boulder.png,../static/images/US_Cities_List/shreveport.png,../static/images/US_Cities_List/huntsville.png,../static/images/US_Cities_List/boulder.png,../static/images/US_Cities_List/huntsville.png,../static/images/US_Cities_List/shreveport.png,1,,,,,,,,,
null,,html-keyboard-response,1110859,,,<p></p>,,,,,null,,,,,,,,,,,,,,,,,,,,
1130.1000000238419,,directmemory_phase,1112000,,,../static/images/US_Cities_List/peoria.png,,,,,51,,,1,1,../static/images/US_Cities_List/hotsprings.png,../static/images/US_Cities_List/huntsville.png,../static/images/US_Cities_List/racine.png,../static/images/US_Cities_List/racine.png,../static/images/US_Cities_List/huntsville.png,../static/images/US_Cities_List/hotsprings.png,1,,,,,,,,,
null,,html-keyboard-response,1113004,,,<p></p>,,,,,null,,,,,,,,,,,,,,,,,,,,
1523.3999999761581,,directmemory_phase,1114539,,,../static/images/US_Cities_List/huntsville.png,,,,,51,,,1,1,../static/images/US_Cities_List/racine.png,../static/images/US_Cities_List/hotsprings.png,../static/images/US_Cities_List/boulder.png,../static/images/US_Cities_List/boulder.png,../static/images/US_Cities_List/hotsprings.png,../static/images/US_Cities_List/racine.png,1,,,,,,,,,
null,,html-keyboard-response,1115542,,,<p></p>,,,,,null,,,,,,,,,,,,,,,,,,,,
1870,,directmemory_phase,1117425,,,../static/images/US_Cities_List/racine.png,,,,,51,,,1,1,../static/images/US_Cities_List/cornwall.png,../static/images/US_Cities_List/leesburg.png,../static/images/US_Cities_List/gatlinburg.png,../static/images/US_Cities_List/gatlinburg.png,../static/images/US_Cities_List/leesburg.png,../static/images/US_Cities_List/cornwall.png,1,,,,,,,,,
null,,html-keyboard-response,1118428,,,<p></p>,,,,,null,,,,,,,,,,,,,,,,,,,,
5163.699999988079,,directmemory_phase,1123601,,,../static/images/US_Cities_List/carmel.png,,,,,51,,,0.9333333333333333,0,../static/images/US_Cities_List/huntsville.png,../static/images/US_Cities_List/leesburg.png,../static/images/US_Cities_List/hanover.png,../static/images/US_Cities_List/huntsville.png,../static/images/US_Cities_List/hanover.png,../static/images/US_Cities_List/leesburg.png,0.5,closer,,,,,,,,
null,,html-keyboard-response,1124605,,,<p></p>,,,,,null,,,,,,,,,,,,,,,,,,,,
2143.300000011921,,directmemory_phase,1126763,,,../static/images/US_Cities_List/boulder.png,,,,,49,,,0.9375,1,../static/images/US_Cities_List/hotsprings.png,../static/images/US_Cities_List/racine.png,../static/images/US_Cities_List/carmel.png,../static/images/US_Cities_List/hotsprings.png,../static/images/US_Cities_List/carmel.png,../static/images/US_Cities_List/racine.png,1,,,,,,,,,
null,,html-keyboard-response,1127767,,,<p></p>,,,,,null,,,,,,,,,,,,,,,,,,,,
1831.800000011921,,directmemory_phase,1129609,,,../static/images/US_Cities_List/peoria.png,,,,,49,,,0.9411764705882353,1,../static/images/US_Cities_List/hanover.png,../static/images/US_Cities_List/boulder.png,../static/images/US_Cities_List/shreveport.png,../static/images/US_Cities_List/hanover.png,../static/images/US_Cities_List/shreveport.png,../static/images/US_Cities_List/boulder.png,1,,,,,,,,,
null,,html-keyboard-response,1130612,,,<p></p>,,,,,null,,,,,,,,,,,,,,,,,,,,
2994.300000011921,,directmemory_phase,1133616,,,../static/images/US_Cities_List/huntsville.png,,,,,50,,,0.9444444444444444,1,../static/images/US_Cities_List/shreveport.png,../static/images/US_Cities_List/carmel.png,../static/images/US_Cities_List/newhope.png,../static/images/US_Cities_List/carmel.png,../static/images/US_Cities_List/shreveport.png,../static/images/US_Cities_List/newhope.png,1,,,,,,,,,
null,,html-keyboard-response,1134619,,,<p></p>,,,,,null,,,,,,,,,,,,,,,,,,,,
1891.199999988079,,directmemory_phase,1136523,,,../static/images/US_Cities_List/hanover.png,,,,,49,,,0.9473684210526315,1,../static/images/US_Cities_List/racine.png,../static/images/US_Cities_List/huntsville.png,../static/images/US_Cities_List/carmel.png,../static/images/US_Cities_List/racine.png,../static/images/US_Cities_List/carmel.png,../static/images/US_Cities_List/huntsville.png,1,,,,,,,,,
null,,html-keyboard-response,1137526,,,<p></p>,,,,,null,,,,,,,,,,,,,,,,,,,,
1790.5,,directmemory_phase,1139331,,,../static/images/US_Cities_List/westpalmbeach.png,,,,,51,,,0.95,1,../static/images/US_Cities_List/newhope.png,../static/images/US_Cities_List/cornwall.png,../static/images/US_Cities_List/peoria.png,../static/images/US_Cities_List/peoria.png,../static/images/US_Cities_List/cornwall.png,../static/images/US_Cities_List/newhope.png,1,,,,,,,,,
null,,html-keyboard-response,1140340,,,<p></p>,,,,,null,,,,,,,,,,,,,,,,,,,,
1275.199999988079,,directmemory_phase,1141630,,,../static/images/US_Cities_List/racine.png,,,,,50,,,0.9523809523809523,1,../static/images/US_Cities_List/leesburg.png,../static/images/US_Cities_List/hanover.png,../static/images/US_Cities_List/boulder.png,../static/images/US_Cities_List/hanover.png,../static/images/US_Cities_List/leesburg.png,../static/images/US_Cities_List/boulder.png,1,,,,,,,,,
null,,html-keyboard-response,1142643,,,<p></p>,,,,,null,,,,,,,,,,,,,,,,,,,,
1588,,directmemory_phase,1144240,,,../static/images/US_Cities_List/peoria.png,,,,,49,,,0.9545454545454546,1,../static/images/US_Cities_List/carmel.png,../static/images/US_Cities_List/hotsprings.png,../static/images/US_Cities_List/huntsville.png,../static/images/US_Cities_List/carmel.png,../static/images/US_Cities_List/huntsville.png,../static/images/US_Cities_List/hotsprings.png,1,,,,,,,,,
null,,html-keyboard-response,1145244,,,<p></p>,,,,,null,,,,,,,,,,,,,,,,,,,,
960.5,,directmemory_phase,1146215,,,../static/images/US_Cities_List/racine.png,,,,,49,,,0.9565217391304348,1,../static/images/US_Cities_List/westpalmbeach.png,../static/images/US_Cities_List/cornwall.png,../static/images/US_Cities_List/leesburg.png,../static/images/US_Cities_List/westpalmbeach.png,../static/images/US_Cities_List/leesburg.png,../static/images/US_Cities_List/cornwall.png,1,,,,,,,,,
null,,html-keyboard-response,1147219,,,<p></p>,,,,,null,,,,,,,,,,,,,,,,,,,,
1016.2000000476837,,directmemory_phase,1148252,,,../static/images/US_Cities_List/shreveport.png,,,,,51,,,0.9583333333333334,1,../static/images/US_Cities_List/hanover.png,../static/images/US_Cities_List/peoria.png,../static/images/US_Cities_List/cornwall.png,../static/images/US_Cities_List/cornwall.png,../static/images/US_Cities_List/peoria.png,../static/images/US_Cities_List/hanover.png,1,,,,,,,,,
null,,html-keyboard-response,1149255,,,<p></p>,,,,,null,,,,,,,,,,,,,,,,,,,,
1459.699999988079,,directmemory_phase,1150727,,,../static/images/US_Cities_List/westpalmbeach.png,,,,,51,,,0.96,1,../static/images/US_Cities_List/huntsville.png,../static/images/US_Cities_List/gatlinburg.png,../static/images/US_Cities_List/racine.png,../static/images/US_Cities_List/racine.png,../static/images/US_Cities_List/gatlinburg.png,../static/images/US_Cities_List/huntsville.png,1,,,,,,,,,
null,,html-keyboard-response,1151730,,,<p></p>,,,,,null,,,,,,,,,,,,,,,,,,,,
1099.0999999642372,,directmemory_phase,1152841,,,../static/images/US_Cities_List/boulder.png,,,,,51,,,0.9615384615384616,1,../static/images/US_Cities_List/peoria.png,../static/images/US_Cities_List/carmel.png,../static/images/US_Cities_List/huntsville.png,../static/images/US_Cities_List/huntsville.png,../static/images/US_Cities_List/carmel.png,../static/images/US_Cities_List/peoria.png,1,,,,,,,,,
null,,html-keyboard-response,1153845,,,<p></p>,,,,,null,,,,,,,,,,,,,,,,,,,,
2081.900000035763,,directmemory_phase,1155938,,,../static/images/US_Cities_List/westpalmbeach.png,,,,,49,,,0.9629629629629629,1,../static/images/US_Cities_List/shreveport.png,../static/images/US_Cities_List/hotsprings.png,../static/images/US_Cities_List/cornwall.png,../static/images/US_Cities_List/shreveport.png,../static/images/US_Cities_List/cornwall.png,../static/images/US_Cities_List/hotsprings.png,1,,,,,,,,,
null,,html-keyboard-response,1156942,,,<p></p>,,,,,null,,,,,,,,,,,,,,,,,,,,
1111,,directmemory_phase,1158068,,,../static/images/US_Cities_List/hanover.png,,,,,50,,,0.9642857142857143,1,../static/images/US_Cities_List/westpalmbeach.png,../static/images/US_Cities_List/peoria.png,../static/images/US_Cities_List/cornwall.png,../static/images/US_Cities_List/peoria.png,../static/images/US_Cities_List/westpalmbeach.png,../static/images/US_Cities_List/cornwall.png,1,,,,,,,,,
null,,html-keyboard-response,1159071,,,<p></p>,,,,,null,,,,,,,,,,,,,,,,,,,,
1083.5999999642372,,directmemory_phase,1160166,,,../static/images/US_Cities_List/cornwall.png,,,,,49,,,0.9310344827586207,0,../static/images/US_Cities_List/hanover.png,../static/images/US_Cities_List/westpalmbeach.png,../static/images/US_Cities_List/boulder.png,../static/images/US_Cities_List/boulder.png,../static/images/US_Cities_List/westpalmbeach.png,../static/images/US_Cities_List/hanover.png,0.5,closer,,,,,,,,
null,,html-keyboard-response,1161170,,,<p></p>,,,,,null,,,,,,,,,,,,,,,,,,,,
1009.3000000119209,,directmemory_phase,1162191,,,../static/images/US_Cities_List/gatlinburg.png,,,,,51,,,0.9333333333333333,1,../static/images/US_Cities_List/leesburg.png,../static/images/US_Cities_List/hanover.png,../static/images/US_Cities_List/racine.png,../static/images/US_Cities_List/racine.png,../static/images/US_Cities_List/hanover.png,../static/images/US_Cities_List/leesburg.png,1,,,,,,,,,
null,,html-keyboard-response,1163194,,,<p></p>,,,,,null,,,,,,,,,,,,,,,,,,,,
1880.8999999761581,,directmemory_phase,1165087,,,../static/images/US_Cities_List/boulder.png,,,,,51,,,0.9354838709677419,1,../static/images/US_Cities_List/hanover.png,../static/images/US_Cities_List/shreveport.png,../static/images/US_Cities_List/cornwall.png,../static/images/US_Cities_List/cornwall.png,../static/images/US_Cities_List/shreveport.png,../static/images/US_Cities_List/hanover.png,1,,,,,,,,,
null,,html-keyboard-response,1166090,,,<p></p>,,,,,null,,,,,,,,,,,,,,,,,,,,
747.8999999761581,,directmemory_phase,1166848,,,../static/images/US_Cities_List/leesburg.png,,,,,49,,,0.9375,1,../static/images/US_Cities_List/hanover.png,../static/images/US_Cities_List/huntsville.png,../static/images/US_Cities_List/racine.png,../static/images/US_Cities_List/hanover.png,../static/images/US_Cities_List/racine.png,../static/images/US_Cities_List/huntsville.png,1,,,,,,,,,
null,,html-keyboard-response,1167851,,,<p></p>,,,,,null,,,,,,,,,,,,,,,,,,,,
38430.10000002384,,intro_1,1206283,,,instruct,,,0,,,,,,,,,,,,,,,,,,,,,,
13691.800000011921,,intro_2,1219977,,,instruct,,,1,Next,,,,,,,,,,,,,,,,,,,,,
3854.800000011921,,intro_3,1223834,,,instruct,,,1,Next,,,,,,,,,,,,,,,,,,,,,
5075.199999988079,,intro_4,1228911,,,instruct,,,1,Next,,,,,,,,,,,,,,,,,,,,,
3544.900000035763,,intro_5,1232458,,,instruct,,,1,Next,,,,,,,,,,,,,,,,,,,,,
3345,,intro_6,1235805,,,instruct,,,1,Next,,,,,,,,,,,,,,,,,,,,,
12943.300000011921,,intro_7,1248750,,,instruct,,,1,Next,,,,,,,,,,,,,,,,,,,,,
12799.5,,intro_8,1261551,,,instruct,,,1,Next,,,,,,,,,,,,,,,,,,,,,
5447.400000035763,,intro_9,1267000,,,instruct,,,1,Next,,,,,,,,,,,,,,,,,,,,,
3174.699999988079,,intro_10,1270177,,,instruct,,,1,Next,,,,,,,,,,,,,,,,,,,,,
8556.100000023842,,intro_11,1278735,,,instruct,,,1,Next,,,,,,,,,,,,,,,,,,,,,
3568.699999988079,,shortestpath_phase,1282312,,,../static/images/US_Cities_List/hotsprings.png,,,,,50,../static/images/US_Cities_List/leesburg.png,../static/images/US_Cities_List/huntsville.png,1,1,,,,../static/images/US_Cities_List/huntsville.png,,,,,Four Edge Diff,Two Edge Six Edge,,,,,,
null,,html-keyboard-response,1283315,,,<p></p>,,,,,null,,,,,,,,,,,,,,,,,,,,
3922.2999999523163,,shortestpath_phase,1287246,,,../static/images/US_Cities_List/boulder.png,,,,,50,../static/images/US_Cities_List/gatlinburg.png,../static/images/US_Cities_List/carmel.png,1,1,,,,../static/images/US_Cities_List/carmel.png,,,,,Three Edge Diff,Two Edge Five Edge,,,,,,
null,,html-keyboard-response,1288259,,,<p></p>,,,,,null,,,,,,,,,,,,,,,,,,,,
3276.300000011921,,shortestpath_phase,1291546,,,../static/images/US_Cities_List/leesburg.png,,,,,49,../static/images/US_Cities_List/peoria.png,../static/images/US_Cities_List/hotsprings.png,1,1,,,,../static/images/US_Cities_List/peoria.png,,,,,Four Edge Diff,Two Edge Six Edge,,,,,,
null,,html-keyboard-response,1292559,,,<p></p>,,,,,null,,,,,,,,,,,,,,,,,,,,
5854.199999988079,,shortestpath_phase,1298426,,,../static/images/US_Cities_List/cornwall.png,,,,,49,../static/images/US_Cities_List/hanover.png,../static/images/US_Cities_List/racine.png,0.75,0,,,,../static/images/US_Cities_List/racine.png,,,,,One Edge Diff,Three Edge Four Edge,,,,,,
null,,html-keyboard-response,1299431,,,<p></p>,,,,,null,,,,,,,,,,,,,,,,,,,,
5043.599999964237,,shortestpath_phase,1304485,,,../static/images/US_Cities_List/gatlinburg.png,,,,,49,../static/images/US_Cities_List/carmel.png,../static/images/US_Cities_List/newhope.png,0.8,1,,,,../static/images/US_Cities_List/carmel.png,,,,,Two Edge Diff,Three Edge Five Edge,,,,,,
null,,html-keyboard-response,1305488,,,<p></p>,,,,,null,,,,,,,,,,,,,,,,,,,,
2040.6000000238419,,shortestpath_phase,1307539,,,../static/images/US_Cities_List/hotsprings.png,,,,,50,../static/images/US_Cities_List/gatlinburg.png,../static/images/US_Cities_List/huntsville.png,0.8333333333333334,1,,,,../static/images/US_Cities_List/huntsville.png,,,,,Four Edge Diff,Two Edge Six Edge,,,,,,
null,,html-keyboard-response,1308541,,,<p></p>,,,,,null,,,,,,,,,,,,,,,,,,,,
5882.699999988079,,shortestpath_phase,1314434,,,../static/images/US_Cities_List/leesburg.png,,,,,50,../static/images/US_Cities_List/carmel.png,../static/images/US_Cities_List/boulder.png,0.7142857142857143,0,,,,../static/images/US_Cities_List/carmel.png,,,,,Two Edge Diff,Three Edge Five Edge,,,,,,
null,,html-keyboard-response,1315436,,,<p></p>,,,,,null,,,,,,,,,,,,,,,,,,,,
3868.400000035763,,shortestpath_phase,1319316,,,../static/images/US_Cities_List/hanover.png,,,,,50,../static/images/US_Cities_List/boulder.png,../static/images/US_Cities_List/gatlinburg.png,0.75,1,,,,../static/images/US_Cities_List/gatlinburg.png,,,,,Two Edge Diff,Two Edge Four Edge,,,,,,
null,,html-keyboard-response,1320320,,,<p></p>,,,,,null,,,,,,,,,,,,,,,,,,,,
3362.400000035763,,shortestpath_phase,1323692,,,../static/images/US_Cities_List/leesburg.png,,,,,49,../static/images/US_Cities_List/peoria.png,../static/images/US_Cities_List/boulder.png,0.7777777777777778,1,,,,../static/images/US_Cities_List/peoria.png,,,,,Three Edge Diff,Two Edge Five Edge,,,,,,
null,,html-keyboard-response,1324697,,,<p></p>,,,,,null,,,,,,,,,,,,,,,,,,,,
null,,shortestpath_phase,1332208,,,../static/images/US_Cities_List/hotsprings.png,,,,,null,../static/images/US_Cities_List/cornwall.png,../static/images/US_Cities_List/westpalmbeach.png,0.7,0,,,,../static/images/US_Cities_List/cornwall.png,,,,,Two Edge Diff,Two Edge Four Edge,,,,,,
null,,warning_page,1335211,,,warning,,,,,null,,,,,,,,,,,,,,,,,,,,
null,,html-keyboard-response,1336213,,,<p></p>,,,,,null,,,,,,,,,,,,,,,,,,,,
2300.399999976158,,shortestpath_phase,1338523,,,../static/images/US_Cities_List/leesburg.png,,,,,49,../static/images/US_Cities_List/boulder.png,../static/images/US_Cities_List/hotsprings.png,0.7272727272727273,1,,,,../static/images/US_Cities_List/boulder.png,,,,,One Edge Diff,Five Edge Six Edge,,,,,,
