rt,responses,trial_type,time_elapsed,image_type,sequence,stimulus,cities,city_images,button_pressed,response,key_press,stimulus_left,stimulus_right,accuracy,cumulative_accuracy,stimulus_down_left,stimulus_down_mid,stimulus_down_right,stimulus_correct,stimulus_short,stimulus_far,weighted_accuracy,missedtrial,condition,specific_pairs,imgL_ID,imgR_ID,linedress,linedressed,detour_trial,linedressed_detor
33014,{worker_id:65845f67f9ed8c08c8e58949},id_enter,33015,fictional,interleaved,flights,Granton Ridge; Claywater; Hollendale; New Verdan; Hawthorne Bluffs; North Arroya; Riverlyn; Cedarwyn; Baymarsh; Juniper Creek; Orchard Bend; Delaro Park; Sunmere,US_Cities_List/hanover.png; US_Cities_List/boulder.png; US_Cities_List/carmel.png; US_Cities_List/racine.png; US_Cities_List/shreveport.png; US_Cities_List/newhope.png; US_Cities_List/westpalmbeach.png; US_Cities_List/huntsville.png; US_Cities_List/leesburg.png; US_Cities_List/gatlinburg.png; US_Cities_List/peoria.png; US_Cities_List/cornwall.png; US_Cities_List/hotsprings.png,,,,,,,,,,,,,,,,,,,,,,,
24274.200000047684,,fullscreen,57296,,,make_fullscreen,,,0,,,,,,,,,,,,,,,,,,,,,,
4911.299999952316,,intro_1,62210,,,instruct,,,0,,,,,,,,,,,,,,,,,,,,,,
6744.100000023842,,intro_2,68956,,,instruct,,,1,Next,,,,,,,,,,,,,,,,,,,,,
28782.399999976158,,intro_3,97740,,,instruct,,,1,Next,,,,,,,,,,,,,,,,,,,,,
6405.600000023842,,intro_4,104147,,,instruct,,,1,Next,,,,,,,,,,,,,,,,,,,,,
9344.200000047684,,intro_5,113493,,,instruct,,,1,Next,,,,,,,,,,,,,,,,,,,,,
113128.20000004768,,intro_6,226623,,,instruct,,,1,Next,,,,,,,,,,,,,,,,,,,,,
3834.3000000715256,,intro_7,230459,,,instruct,,,1,Next,,,,,,,,,,,,,,,,,,,,,
null,,learn_prac_1,233462,,,lean_prac_1,,,,,null,,,,,,,,,,,,,,,,,,,,
null,,html-keyboard-response,234463,,,<p></p>,,,,,null,,,,,,,,,,,,,,,,,,,,
1804.2999999523163,,intro_1,236269,,,instruct,,,0,,,,,,,,,,,,,,,,,,,,,,
4505.699999928474,,intro_2,240775,,,instruct,,,1,Next,,,,,,,,,,,,,,,,,,,,,
null,,learn_prac_2,243777,,,lean_prac_2,,,,,null,,,,,,,,,,,,,,,,,,,,
null,,html-keyboard-response,244779,,,<p></p>,,,,,null,,,,,,,,,,,,,,,,,,,,
2030.3000000715256,,intro_1,246811,,,instruct,,,0,,,,,,,,,,,,,,,,,,,,,,
3820,,intro_2,250632,,,instruct,,,1,Next,,,,,,,,,,,,,,,,,,,,,
50817.39999997616,,intro_3,301451,,,instruct,,,1,Next,,,,,,,,,,,,,,,,,,,,,
null,,prac_atten_color_black,302089,,,black_plus_sign,,,,,null,,,,,,,,,,,,,,,,,,,,
502.39999997615814,,prac_atten_color,302856,,,prac_stop_color,,,,,49,,,,,,,,,,,,,,,,,,,,
null,,prac_atten_color_black,304859,,,black_plus_sign,,,,,null,,,,,,,,,,,,,,,,,,,,
null,,prac_atten_color_black,305497,,,black_plus_sign,,,,,null,,,,,,,,,,,,,,,,,,,,
540.7000000476837,,prac_atten_color,306445,,,prac_stop_color,,,,,50,,,,,,,,,,,,,,,,,,,,
null,,prac_atten_color_black,308446,,,black_plus_sign,,,,,null,,,,,,,,,,,,,,,,,,,,
null,,prac_atten_color_black,308904,,,black_plus_sign,,,,,null,,,,,,,,,,,,,,,,,,,,
443.89999997615814,,prac_atten_color,309957,,,prac_stop_color,,,,,49,,,,,,,,,,,,,,,,,,,,
null,,prac_atten_color_black,311958,,,black_plus_sign,,,,,null,,,,,,,,,,,,,,,,,,,,
3581,,attentioncheck_help,315540,,,instruct,,,,,32,,,,,,,,,,,,,,,,,,,,
null,,prac_atten_color_black,315891,,,black_plus_sign,,,,,null,,,,,,,,,,,,,,,,,,,,
537.6000000238419,,prac_atten_color,316863,,,prac_stop_color,,,,,49,,,,,,,,,,,,,,,,,,,,
null,,prac_atten_color_black,318865,,,black_plus_sign,,,,,null,,,,,,,,,,,,,,,,,,,,
null,,prac_atten_color_black,319299,,,black_plus_sign,,,,,null,,,,,,,,,,,,,,,,,,,,
422.10000002384186,,prac_atten_color,319873,,,prac_stop_color,,,,,50,,,,,,,,,,,,,,,,,,,,
null,,prac_atten_color_black,321874,,,black_plus_sign,,,,,null,,,,,,,,,,,,,,,,,,,,
null,,prac_atten_color_black,322705,,,black_plus_sign,,,,,null,,,,,,,,,,,,,,,,,,,,
null,,prac_atten_color,323581,,,prac_stop_color,,,,,null,,,,,,,,,,,,,,,,,,,,
255.70000004768372,,prac_atten_color_black,325583,,,black_plus_sign,,,,,50,,,,,,,,,,,,,,,,,,,,
null,,prac_atten_color_black,326114,,,black_plus_sign,,,,,null,,,,,,,,,,,,,,,,,,,,
498.5,,prac_atten_color,326930,,,prac_stop_color,,,,,49,,,,,,,,,,,,,,,,,,,,
null,,prac_atten_color_black,328932,,,black_plus_sign,,,,,null,,,,,,,,,,,,,,,,,,,,
null,,prac_atten_color_black,329521,,,black_plus_sign,,,,,null,,,,,,,,,,,,,,,,,,,,
697.8000000715256,,prac_atten_color,330590,,,prac_stop_color,,,,,50,,,,,,,,,,,,,,,,,,,,
null,,prac_atten_color_black,332592,,,black_plus_sign,,,,,null,,,,,,,,,,,,,,,,,,,,
null,,prac_atten_color_black,332927,,,black_plus_sign,,,,,null,,,,,,,,,,,,,,,,,,,,
null,,prac_atten_color,333587,,,prac_stop_color,,,,,null,,,,,,,,,,,,,,,,,,,,
236,,prac_atten_color_black,335589,,,black_plus_sign,,,,,49,,,,,,,,,,,,,,,,,,,,
null,,prac_atten_color_black,336335,,,black_plus_sign,,,,,null,,,,,,,,,,,,,,,,,,,,
427.7999999523163,,prac_atten_color,337409,,,prac_stop_color,,,,,50,,,,,,,,,,,,,,,,,,,,
null,,prac_atten_color_black,339411,,,black_plus_sign,,,,,null,,,,,,,,,,,,,,,,,,,,
4488.799999952316,,attentioncheck_feedback,343901,,,cross_check_feedback,,,0,,,,,,,,,,,,,,,,,,,,,,
4661.399999976158,,last_instruct,348563,,,instruct,,,,,32,,,,,,,,,,,,,,,,,,,,
null,,learn_phase(without_color),351573,,,black_plus_sign,,,,,null,US_Cities_List/peoria.png,US_Cities_List/carmel.png,,,,,,,,,,,,,,,,,,
null,,black_cross(without_color),352340,,,blue,,,,,null,US_Cities_List/peoria.png,US_Cities_List/carmel.png,,,,,,,,,,,,,,,,,,
null,,rt_plussign_withcolor,352842,,,blue,,,,,null,US_Cities_List/peoria.png,US_Cities_List/carmel.png,,,,,,,,,,,,,,,,,,
1575,,rt_thecrossant_black,354094,,,black_plus_sign,,,,,49,,,1,1,,,,,,,,,,,,,,,,
null,,color_black,354197,,,black_plus_sign,,,,,null,,,,,,,,,,,,,,,,,,,,
null,,learn_phase(without_color),357213,,,black_plus_sign,,,,,null,US_Cities_List/leesburg.png,US_Cities_List/peoria.png,,,,,,,,,,,,,,,,,,
null,,black_cross(without_color),358282,,,blue,,,,,null,US_Cities_List/leesburg.png,US_Cities_List/peoria.png,,,,,,,,,,,,,,,,,,
null,,rt_plussign_withcolor,358794,,,blue,,,,,null,US_Cities_List/leesburg.png,US_Cities_List/peoria.png,,,,,,,,,,,,,,,,,,
1094.7000000476837,,rt_thecrossant_black,359728,,,black_plus_sign,,,,,49,,,1,1,,,,,,,,,,,,,,,,
null,,color_black,359831,,,black_plus_sign,,,,,null,,,,,,,,,,,,,,,,,,,,
null,,learn_phase(without_color),362843,,,black_plus_sign,,,,,null,US_Cities_List/westpalmbeach.png,US_Cities_List/leesburg.png,,,,,,,,,,,,,,,,,,
null,,black_cross(without_color),363904,,,yellow,,,,,null,US_Cities_List/westpalmbeach.png,US_Cities_List/leesburg.png,,,,,,,,,,,,,,,,,,
null,,rt_plussign_withcolor,364406,,,yellow,,,,,null,US_Cities_List/westpalmbeach.png,US_Cities_List/leesburg.png,,,,,,,,,,,,,,,,,,
1176.7999999523163,,rt_thecrossant_black,365361,,,black_plus_sign,,,,,50,,,1,1,,,,,,,,,,,,,,,,
null,,color_black,365463,,,black_plus_sign,,,,,null,,,,,,,,,,,,,,,,,,,,
null,,learn_phase(without_color),368482,,,black_plus_sign,,,,,null,US_Cities_List/newhope.png,US_Cities_List/carmel.png,,,,,,,,,,,,,,,,,,
null,,black_cross(without_color),368925,,,yellow,,,,,null,US_Cities_List/newhope.png,US_Cities_List/carmel.png,,,,,,,,,,,,,,,,,,
null,,rt_plussign_withcolor,369427,,,yellow,,,,,null,US_Cities_List/newhope.png,US_Cities_List/carmel.png,,,,,,,,,,,,,,,,,,
1817.2999999523163,,rt_thecrossant_black,370989,,,black_plus_sign,,,,,50,,,1,1,,,,,,,,,,,,,,,,
null,,color_black,371091,,,black_plus_sign,,,,,null,,,,,,,,,,,,,,,,,,,,
null,,learn_phase(without_color),374106,,,black_plus_sign,,,,,null,US_Cities_List/newhope.png,US_Cities_List/carmel.png,,,,,,,,,,,,,,,,,,
null,,black_cross(without_color),375008,,,blue,,,,,null,US_Cities_List/newhope.png,US_Cities_List/carmel.png,,,,,,,,,,,,,,,,,,
null,,rt_plussign_withcolor,375509,,,blue,,,,,null,US_Cities_List/newhope.png,US_Cities_List/carmel.png,,,,,,,,,,,,,,,,,,
702.8999999761581,,rt_thecrossant_black,376612,,,black_plus_sign,,,,,49,,,1,1,,,,,,,,,,,,,,,,
null,,color_black,376715,,,black_plus_sign,,,,,null,,,,,,,,,,,,,,,,,,,,
null,,learn_phase(without_color),379728,,,black_plus_sign,,,,,null,US_Cities_List/carmel.png,US_Cities_List/boulder.png,,,,,,,,,,,,,,,,,,
null,,black_cross(without_color),380182,,,yellow,,,,,null,US_Cities_List/carmel.png,US_Cities_List/boulder.png,,,,,,,,,,,,,,,,,,
null,,rt_plussign_withcolor,380689,,,yellow,,,,,null,US_Cities_List/carmel.png,US_Cities_List/boulder.png,,,,,,,,,,,,,,,,,,
1348.5,,rt_thecrossant_black,382238,,,black_plus_sign,,,,,50,,,1,1,,,,,,,,,,,,,,,,
null,,color_black,382341,,,black_plus_sign,,,,,null,,,,,,,,,,,,,,,,,,,,
null,,learn_phase(without_color),385356,,,black_plus_sign,,,,,null,US_Cities_List/newhope.png,US_Cities_List/carmel.png,,,,,,,,,,,,,,,,,,
null,,black_cross(without_color),385800,,,blue,,,,,null,US_Cities_List/newhope.png,US_Cities_List/carmel.png,,,,,,,,,,,,,,,,,,
null,,rt_plussign_withcolor,386301,,,blue,,,,,null,US_Cities_List/newhope.png,US_Cities_List/carmel.png,,,,,,,,,,,,,,,,,,
711.6000000238419,,rt_thecrossant_black,387861,,,black_plus_sign,,,,,49,,,1,1,,,,,,,,,,,,,,,,
null,,color_black,387964,,,black_plus_sign,,,,,null,,,,,,,,,,,,,,,,,,,,
null,,learn_phase(without_color),390980,,,black_plus_sign,,,,,null,US_Cities_List/newhope.png,US_Cities_List/carmel.png,,,,,,,,,,,,,,,,,,
null,,black_cross(without_color),391518,,,blue,,,,,null,US_Cities_List/newhope.png,US_Cities_List/carmel.png,,,,,,,,,,,,,,,,,,
null,,rt_plussign_withcolor,392020,,,blue,,,,,null,US_Cities_List/newhope.png,US_Cities_List/carmel.png,,,,,,,,,,,,,,,,,,
1028,,rt_thecrossant_black,393484,,,black_plus_sign,,,,,49,,,1,1,,,,,,,,,,,,,,,,
null,,color_black,393586,,,black_plus_sign,,,,,null,,,,,,,,,,,,,,,,,,,,
null,,learn_phase(without_color),396594,,,black_plus_sign,,,,,null,US_Cities_List/racine.png,US_Cities_List/boulder.png,,,,,,,,,,,,,,,,,,
null,,black_cross(without_color),397414,,,blue,,,,,null,US_Cities_List/racine.png,US_Cities_List/boulder.png,,,,,,,,,,,,,,,,,,
null,,rt_plussign_withcolor,397915,,,blue,,,,,null,US_Cities_List/racine.png,US_Cities_List/boulder.png,,,,,,,,,,,,,,,,,,
1155.3000000715256,,rt_thecrossant_black,399099,,,black_plus_sign,,,,,49,,,1,1,,,,,,,,,,,,,,,,
null,,color_black,399201,,,black_plus_sign,,,,,null,,,,,,,,,,,,,,,,,,,,
null,,learn_phase(without_color),402208,,,black_plus_sign,,,,,null,US_Cities_List/huntsville.png,US_Cities_List/leesburg.png,,,,,,,,,,,,,,,,,,
null,,black_cross(without_color),402657,,,yellow,,,,,null,US_Cities_List/huntsville.png,US_Cities_List/leesburg.png,,,,,,,,,,,,,,,,,,
null,,rt_plussign_withcolor,403159,,,yellow,,,,,null,US_Cities_List/huntsville.png,US_Cities_List/leesburg.png,,,,,,,,,,,,,,,,,,
1350.8000000715256,,rt_thecrossant_black,404714,,,black_plus_sign,,,,,50,,,1,1,,,,,,,,,,,,,,,,
null,,color_black,404816,,,black_plus_sign,,,,,null,,,,,,,,,,,,,,,,,,,,
null,,learn_phase(without_color),407837,,,black_plus_sign,,,,,null,US_Cities_List/huntsville.png,US_Cities_List/leesburg.png,,,,,,,,,,,,,,,,,,
null,,black_cross(without_color),408294,,,yellow,,,,,null,US_Cities_List/huntsville.png,US_Cities_List/leesburg.png,,,,,,,,,,,,,,,,,,
null,,rt_plussign_withcolor,408796,,,yellow,,,,,null,US_Cities_List/huntsville.png,US_Cities_List/leesburg.png,,,,,,,,,,,,,,,,,,
1287.5,,rt_thecrossant_black,410345,,,black_plus_sign,,,,,50,,,1,1,,,,,,,,,,,,,,,,
null,,color_black,410447,,,black_plus_sign,,,,,null,,,,,,,,,,,,,,,,,,,,
null,,learn_phase(without_color),413460,,,black_plus_sign,,,,,null,US_Cities_List/westpalmbeach.png,US_Cities_List/leesburg.png,,,,,,,,,,,,,,,,,,
null,,black_cross(without_color),414080,,,yellow,,,,,null,US_Cities_List/westpalmbeach.png,US_Cities_List/leesburg.png,,,,,,,,,,,,,,,,,,
null,,rt_plussign_withcolor,414582,,,yellow,,,,,null,US_Cities_List/westpalmbeach.png,US_Cities_List/leesburg.png,,,,,,,,,,,,,,,,,,
770.1999999284744,,rt_thecrossant_black,415966,,,black_plus_sign,,,,,50,,,1,1,,,,,,,,,,,,,,,,
null,,color_black,416068,,,black_plus_sign,,,,,null,,,,,,,,,,,,,,,,,,,,
null,,learn_phase(without_color),419076,,,black_plus_sign,,,,,null,US_Cities_List/gatlinburg.png,US_Cities_List/huntsville.png,,,,,,,,,,,,,,,,,,
null,,black_cross(without_color),419601,,,blue,,,,,null,US_Cities_List/gatlinburg.png,US_Cities_List/huntsville.png,,,,,,,,,,,,,,,,,,
null,,rt_plussign_withcolor,420102,,,blue,,,,,null,US_Cities_List/gatlinburg.png,US_Cities_List/huntsville.png,,,,,,,,,,,,,,,,,,
1020.2999999523163,,rt_thecrossant_black,421581,,,black_plus_sign,,,,,49,,,1,1,,,,,,,,,,,,,,,,
null,,color_black,421683,,,black_plus_sign,,,,,null,,,,,,,,,,,,,,,,,,,,
null,,learn_phase(without_color),424693,,,black_plus_sign,,,,,null,US_Cities_List/hanover.png,US_Cities_List/boulder.png,,,,,,,,,,,,,,,,,,
null,,black_cross(without_color),425389,,,blue,,,,,null,US_Cities_List/hanover.png,US_Cities_List/boulder.png,,,,,,,,,,,,,,,,,,
null,,rt_plussign_withcolor,425891,,,blue,,,,,null,US_Cities_List/hanover.png,US_Cities_List/boulder.png,,,,,,,,,,,,,,,,,,
888.2000000476837,,rt_thecrossant_black,427199,,,black_plus_sign,,,,,49,,,1,1,,,,,,,,,,,,,,,,
null,,color_black,427302,,,black_plus_sign,,,,,null,,,,,,,,,,,,,,,,,,,,
null,,learn_phase(without_color),430322,,,black_plus_sign,,,,,null,US_Cities_List/westpalmbeach.png,US_Cities_List/newhope.png,,,,,,,,,,,,,,,,,,
null,,black_cross(without_color),430795,,,blue,,,,,null,US_Cities_List/westpalmbeach.png,US_Cities_List/newhope.png,,,,,,,,,,,,,,,,,,
null,,rt_plussign_withcolor,431303,,,blue,,,,,null,US_Cities_List/westpalmbeach.png,US_Cities_List/newhope.png,,,,,,,,,,,,,,,,,,
891.2000000476837,,rt_thecrossant_black,432833,,,black_plus_sign,,,,,49,,,1,1,,,,,,,,,,,,,,,,
null,,color_black,432936,,,black_plus_sign,,,,,null,,,,,,,,,,,,,,,,,,,,
null,,learn_phase(without_color),435948,,,black_plus_sign,,,,,null,US_Cities_List/peoria.png,US_Cities_List/cornwall.png,,,,,,,,,,,,,,,,,,
null,,black_cross(without_color),436558,,,yellow,,,,,null,US_Cities_List/peoria.png,US_Cities_List/cornwall.png,,,,,,,,,,,,,,,,,,
null,,rt_plussign_withcolor,437060,,,yellow,,,,,null,US_Cities_List/peoria.png,US_Cities_List/cornwall.png,,,,,,,,,,,,,,,,,,
747.1999999284744,,rt_thecrossant_black,438455,,,black_plus_sign,,,,,50,,,1,1,,,,,,,,,,,,,,,,
null,,color_black,438564,,,black_plus_sign,,,,,null,,,,,,,,,,,,,,,,,,,,
null,,learn_phase(without_color),441589,,,black_plus_sign,,,,,null,US_Cities_List/westpalmbeach.png,US_Cities_List/leesburg.png,,,,,,,,,,,,,,,,,,
null,,black_cross(without_color),442604,,,yellow,,,,,null,US_Cities_List/westpalmbeach.png,US_Cities_List/leesburg.png,,,,,,,,,,,,,,,,,,
null,,rt_plussign_withcolor,443106,,,yellow,,,,,null,US_Cities_List/westpalmbeach.png,US_Cities_List/leesburg.png,,,,,,,,,,,,,,,,,,
1569.7999999523163,,rt_thecrossant_black,444095,,,black_plus_sign,,,,,50,,,1,1,,,,,,,,,,,,,,,,
null,,color_black,444196,,,black_plus_sign,,,,,null,,,,,,,,,,,,,,,,,,,,
null,,learn_phase(without_color),447210,,,black_plus_sign,,,,,null,US_Cities_List/shreveport.png,US_Cities_List/racine.png,,,,,,,,,,,,,,,,,,
null,,black_cross(without_color),448033,,,blue,,,,,null,US_Cities_List/shreveport.png,US_Cities_List/racine.png,,,,,,,,,,,,,,,,,,
null,,rt_plussign_withcolor,448535,,,blue,,,,,null,US_Cities_List/shreveport.png,US_Cities_List/racine.png,,,,,,,,,,,,,,,,,,
1223.5999999046326,,rt_thecrossant_black,449716,,,black_plus_sign,,,,,49,,,1,1,,,,,,,,,,,,,,,,
null,,color_black,449819,,,black_plus_sign,,,,,null,,,,,,,,,,,,,,,,,,,,
null,,learn_phase(without_color),452830,,,black_plus_sign,,,,,null,US_Cities_List/huntsville.png,US_Cities_List/westpalmbeach.png,,,,,,,,,,,,,,,,,,
null,,black_cross(without_color),453903,,,yellow,,,,,null,US_Cities_List/huntsville.png,US_Cities_List/westpalmbeach.png,,,,,,,,,,,,,,,,,,
null,,rt_plussign_withcolor,454405,,,yellow,,,,,null,US_Cities_List/huntsville.png,US_Cities_List/westpalmbeach.png,,,,,,,,,,,,,,,,,,
985.5,,rt_thecrossant_black,455337,,,black_plus_sign,,,,,50,,,1,1,,,,,,,,,,,,,,,,
null,,color_black,455440,,,black_plus_sign,,,,,null,,,,,,,,,,,,,,,,,,,,
null,,learn_phase(without_color),458465,,,black_plus_sign,,,,,null,US_Cities_List/boulder.png,US_Cities_List/hanover.png,,,,,,,,,,,,,,,,,,
null,,black_cross(without_color),458963,,,yellow,,,,,null,US_Cities_List/boulder.png,US_Cities_List/hanover.png,,,,,,,,,,,,,,,,,,
null,,rt_plussign_withcolor,459464,,,yellow,,,,,null,US_Cities_List/boulder.png,US_Cities_List/hanover.png,,,,,,,,,,,,,,,,,,
1593.5,,rt_thecrossant_black,460971,,,black_plus_sign,,,,,50,,,1,1,,,,,,,,,,,,,,,,
null,,color_black,461074,,,black_plus_sign,,,,,null,,,,,,,,,,,,,,,,,,,,
null,,learn_phase(without_color),464086,,,black_plus_sign,,,,,null,US_Cities_List/huntsville.png,US_Cities_List/gatlinburg.png,,,,,,,,,,,,,,,,,,
null,,black_cross(without_color),464847,,,blue,,,,,null,US_Cities_List/huntsville.png,US_Cities_List/gatlinburg.png,,,,,,,,,,,,,,,,,,
487.7999999523163,,rt_plussign_withcolor,465348,,,blue,,,,,49,US_Cities_List/huntsville.png,US_Cities_List/gatlinburg.png,,,,,,,,,,,,,,,,,,
null,,rt_thecrossant_black,466591,,,black_plus_sign,,,,,null,,,1,1,,,,,,,,,,,,,,,,
null,,color_black,466694,,,black_plus_sign,,,,,null,,,,,,,,,,,,,,,,,,,,
null,,learn_phase(without_color),469718,,,black_plus_sign,,,,,null,US_Cities_List/racine.png,US_Cities_List/shreveport.png,,,,,,,,,,,,,,,,,,
null,,black_cross(without_color),470479,,,blue,,,,,null,US_Cities_List/racine.png,US_Cities_List/shreveport.png,,,,,,,,,,,,,,,,,,
null,,rt_plussign_withcolor,470981,,,blue,,,,,null,US_Cities_List/racine.png,US_Cities_List/shreveport.png,,,,,,,,,,,,,,,,,,
1242.5,,rt_thecrossant_black,472224,,,black_plus_sign,,,,,50,,,0,0.9545454545454546,,,,,,,,,,,,,,,,
null,,color_black,472326,,,black_plus_sign,,,,,null,,,,,,,,,,,,,,,,,,,,
null,,learn_phase(without_color),475336,,,black_plus_sign,,,,,null,US_Cities_List/boulder.png,US_Cities_List/hanover.png,,,,,,,,,,,,,,,,,,
null,,black_cross(without_color),476201,,,blue,,,,,null,US_Cities_List/boulder.png,US_Cities_List/hanover.png,,,,,,,,,,,,,,,,,,
null,,rt_plussign_withcolor,476703,,,blue,,,,,null,US_Cities_List/boulder.png,US_Cities_List/hanover.png,,,,,,,,,,,,,,,,,,
1273.6000000238419,,rt_thecrossant_black,477846,,,black_plus_sign,,,,,49,,,1,0.9565217391304348,,,,,,,,,,,,,,,,
null,,color_black,477948,,,black_plus_sign,,,,,null,,,,,,,,,,,,,,,,,,,,
null,,learn_phase(without_color),480959,,,black_plus_sign,,,,,null,US_Cities_List/newhope.png,US_Cities_List/westpalmbeach.png,,,,,,,,,,,,,,,,,,
null,,black_cross(without_color),481476,,,blue,,,,,null,US_Cities_List/newhope.png,US_Cities_List/westpalmbeach.png,,,,,,,,,,,,,,,,,,
null,,rt_plussign_withcolor,481977,,,blue,,,,,null,US_Cities_List/newhope.png,US_Cities_List/westpalmbeach.png,,,,,,,,,,,,,,,,,,
1840.8999999761581,,rt_thecrossant_black,483464,,,black_plus_sign,,,,,49,,,1,0.9583333333333334,,,,,,,,,,,,,,,,
null,,color_black,483566,,,black_plus_sign,,,,,null,,,,,,,,,,,,,,,,,,,,
null,,learn_phase(without_color),486588,,,black_plus_sign,,,,,null,US_Cities_List/westpalmbeach.png,US_Cities_List/huntsville.png,,,,,,,,,,,,,,,,,,
null,,black_cross(without_color),487302,,,blue,,,,,null,US_Cities_List/westpalmbeach.png,US_Cities_List/huntsville.png,,,,,,,,,,,,,,,,,,
null,,rt_plussign_withcolor,487815,,,blue,,,,,null,US_Cities_List/westpalmbeach.png,US_Cities_List/huntsville.png,,,,,,,,,,,,,,,,,,
658.2000000476837,,rt_thecrossant_black,489107,,,black_plus_sign,,,,,49,,,1,0.96,,,,,,,,,,,,,,,,
null,,color_black,489209,,,black_plus_sign,,,,,null,,,,,,,,,,,,,,,,,,,,
null,,learn_phase(without_color),492223,,,black_plus_sign,,,,,null,US_Cities_List/racine.png,US_Cities_List/boulder.png,,,,,,,,,,,,,,,,,,
null,,black_cross(without_color),493026,,,blue,,,,,null,US_Cities_List/racine.png,US_Cities_List/boulder.png,,,,,,,,,,,,,,,,,,
null,,rt_plussign_withcolor,493527,,,blue,,,,,null,US_Cities_List/racine.png,US_Cities_List/boulder.png,,,,,,,,,,,,,,,,,,
1063.9000000953674,,rt_thecrossant_black,494730,,,black_plus_sign,,,,,49,,,1,0.9615384615384616,,,,,,,,,,,,,,,,
null,,color_black,494832,,,black_plus_sign,,,,,null,,,,,,,,,,,,,,,,,,,,
null,,learn_phase(without_color),497863,,,black_plus_sign,,,,,null,US_Cities_List/newhope.png,US_Cities_List/leesburg.png,,,,,,,,,,,,,,,,,,
null,,black_cross(without_color),498561,,,yellow,,,,,null,US_Cities_List/newhope.png,US_Cities_List/leesburg.png,,,,,,,,,,,,,,,,,,
null,,rt_plussign_withcolor,499063,,,yellow,,,,,null,US_Cities_List/newhope.png,US_Cities_List/leesburg.png,,,,,,,,,,,,,,,,,,
1027.8999999761581,,rt_thecrossant_black,500378,,,black_plus_sign,,,,,50,,,1,0.9629629629629629,,,,,,,,,,,,,,,,
null,,color_black,500481,,,black_plus_sign,,,,,null,,,,,,,,,,,,,,,,,,,,
null,,learn_phase(without_color),503490,,,black_plus_sign,,,,,null,US_Cities_List/huntsville.png,US_Cities_List/leesburg.png,,,,,,,,,,,,,,,,,,
null,,black_cross(without_color),504231,,,yellow,,,,,null,US_Cities_List/huntsville.png,US_Cities_List/leesburg.png,,,,,,,,,,,,,,,,,,
417,,rt_plussign_withcolor,504732,,,yellow,,,,,50,US_Cities_List/huntsville.png,US_Cities_List/leesburg.png,,,,,,,,,,,,,,,,,,
null,,rt_thecrossant_black,505995,,,black_plus_sign,,,,,null,,,1,0.9642857142857143,,,,,,,,,,,,,,,,
null,,color_black,506097,,,black_plus_sign,,,,,null,,,,,,,,,,,,,,,,,,,,
null,,learn_phase(without_color),509108,,,black_plus_sign,,,,,null,US_Cities_List/westpalmbeach.png,US_Cities_List/huntsville.png,,,,,,,,,,,,,,,,,,
null,,black_cross(without_color),509846,,,yellow,,,,,null,US_Cities_List/westpalmbeach.png,US_Cities_List/huntsville.png,,,,,,,,,,,,,,,,,,
null,,rt_plussign_withcolor,510348,,,yellow,,,,,null,US_Cities_List/westpalmbeach.png,US_Cities_List/huntsville.png,,,,,,,,,,,,,,,,,,
1163.1000000238419,,rt_thecrossant_black,511614,,,black_plus_sign,,,,,50,,,1,0.9655172413793104,,,,,,,,,,,,,,,,
null,,color_black,511716,,,black_plus_sign,,,,,null,,,,,,,,,,,,,,,,,,,,
null,,learn_phase(without_color),514732,,,black_plus_sign,,,,,null,US_Cities_List/newhope.png,US_Cities_List/leesburg.png,,,,,,,,,,,,,,,,,,
null,,black_cross(without_color),515655,,,blue,,,,,null,US_Cities_List/newhope.png,US_Cities_List/leesburg.png,,,,,,,,,,,,,,,,,,
null,,rt_plussign_withcolor,516156,,,blue,,,,,null,US_Cities_List/newhope.png,US_Cities_List/leesburg.png,,,,,,,,,,,,,,,,,,
1127.7999999523163,,rt_thecrossant_black,517238,,,black_plus_sign,,,,,49,,,1,0.9666666666666667,,,,,,,,,,,,,,,,
null,,color_black,517356,,,black_plus_sign,,,,,null,,,,,,,,,,,,,,,,,,,,
null,,learn_phase(without_color),520367,,,black_plus_sign,,,,,null,US_Cities_List/leesburg.png,US_Cities_List/peoria.png,,,,,,,,,,,,,,,,,,
null,,black_cross(without_color),521144,,,yellow,,,,,null,US_Cities_List/leesburg.png,US_Cities_List/peoria.png,,,,,,,,,,,,,,,,,,
null,,rt_plussign_withcolor,521646,,,yellow,,,,,null,US_Cities_List/leesburg.png,US_Cities_List/peoria.png,,,,,,,,,,,,,,,,,,
1688.3000000715256,,rt_thecrossant_black,522873,,,black_plus_sign,,,,,50,,,1,0.967741935483871,,,,,,,,,,,,,,,,
null,,color_black,522974,,,black_plus_sign,,,,,null,,,,,,,,,,,,,,,,,,,,
null,,learn_phase(without_color),525998,,,black_plus_sign,,,,,null,US_Cities_List/huntsville.png,US_Cities_List/westpalmbeach.png,,,,,,,,,,,,,,,,,,
null,,black_cross(without_color),526736,,,blue,,,,,null,US_Cities_List/huntsville.png,US_Cities_List/westpalmbeach.png,,,,,,,,,,,,,,,,,,
null,,rt_plussign_withcolor,527237,,,blue,,,,,null,US_Cities_List/huntsville.png,US_Cities_List/westpalmbeach.png,,,,,,,,,,,,,,,,,,
1526.2000000476837,,rt_thecrossant_black,528504,,,black_plus_sign,,,,,49,,,1,0.96875,,,,,,,,,,,,,,,,
null,,color_black,528606,,,black_plus_sign,,,,,null,,,,,,,,,,,,,,,,,,,,
null,,learn_phase(without_color),531625,,,black_plus_sign,,,,,null,US_Cities_List/boulder.png,US_Cities_List/racine.png,,,,,,,,,,,,,,,,,,
null,,black_cross(without_color),532681,,,blue,,,,,null,US_Cities_List/boulder.png,US_Cities_List/racine.png,,,,,,,,,,,,,,,,,,
null,,rt_plussign_withcolor,533183,,,blue,,,,,null,US_Cities_List/boulder.png,US_Cities_List/racine.png,,,,,,,,,,,,,,,,,,
1303.9000000953674,,rt_thecrossant_black,534131,,,black_plus_sign,,,,,49,,,1,0.9696969696969697,,,,,,,,,,,,,,,,
null,,color_black,534233,,,black_plus_sign,,,,,null,,,,,,,,,,,,,,,,,,,,
null,,learn_phase(without_color),537257,,,black_plus_sign,,,,,null,US_Cities_List/huntsville.png,US_Cities_List/westpalmbeach.png,,,,,,,,,,,,,,,,,,
null,,black_cross(without_color),537822,,,yellow,,,,,null,US_Cities_List/huntsville.png,US_Cities_List/westpalmbeach.png,,,,,,,,,,,,,,,,,,
null,,rt_plussign_withcolor,538326,,,yellow,,,,,null,US_Cities_List/huntsville.png,US_Cities_List/westpalmbeach.png,,,,,,,,,,,,,,,,,,
1413,,rt_thecrossant_black,539775,,,black_plus_sign,,,,,50,,,1,0.9705882352941176,,,,,,,,,,,,,,,,
null,,color_black,539877,,,black_plus_sign,,,,,null,,,,,,,,,,,,,,,,,,,,
null,,learn_phase(without_color),542888,,,black_plus_sign,,,,,null,US_Cities_List/gatlinburg.png,US_Cities_List/huntsville.png,,,,,,,,,,,,,,,,,,
null,,black_cross(without_color),543388,,,yellow,,,,,null,US_Cities_List/gatlinburg.png,US_Cities_List/huntsville.png,,,,,,,,,,,,,,,,,,
null,,rt_plussign_withcolor,543891,,,yellow,,,,,null,US_Cities_List/gatlinburg.png,US_Cities_List/huntsville.png,,,,,,,,,,,,,,,,,,
1430,,rt_thecrossant_black,545397,,,black_plus_sign,,,,,50,,,1,0.9714285714285714,,,,,,,,,,,,,,,,
null,,color_black,545499,,,black_plus_sign,,,,,null,,,,,,,,,,,,,,,,,,,,
null,,learn_phase(without_color),548508,,,black_plus_sign,,,,,null,US_Cities_List/carmel.png,US_Cities_List/boulder.png,,,,,,,,,,,,,,,,,,
null,,black_cross(without_color),549381,,,yellow,,,,,null,US_Cities_List/carmel.png,US_Cities_List/boulder.png,,,,,,,,,,,,,,,,,,
null,,rt_plussign_withcolor,549883,,,yellow,,,,,null,US_Cities_List/carmel.png,US_Cities_List/boulder.png,,,,,,,,,,,,,,,,,,
null,,rt_thecrossant_black,551013,,,black_plus_sign,,,,,null,,,,0.9714285714285714,,,,,,,,,,,,,,,,
null,,color_black,551116,,,black_plus_sign,,,,,null,,,,,,,,,,,,,,,,,,,,
null,,learn_phase(without_color),554125,,,black_plus_sign,,,,,null,US_Cities_List/shreveport.png,US_Cities_List/racine.png,,,,,,,,,,,,,,,,,,
null,,black_cross(without_color),555112,,,blue,,,,,null,US_Cities_List/shreveport.png,US_Cities_List/racine.png,,,,,,,,,,,,,,,,,,
null,,rt_plussign_withcolor,555614,,,blue,,,,,null,US_Cities_List/shreveport.png,US_Cities_List/racine.png,,,,,,,,,,,,,,,,,,
null,,rt_thecrossant_black,556632,,,black_plus_sign,,,,,null,,,,0.9714285714285714,,,,,,,,,,,,,,,,
null,,warning_page,559635,,,warning,,,,,null,,,,,,,,,,,,,,,,,,,,
null,,color_black,559738,,,black_plus_sign,,,,,null,,,,,,,,,,,,,,,,,,,,
null,,learn_phase(without_color),562751,,,black_plus_sign,,,,,null,US_Cities_List/peoria.png,US_Cities_List/carmel.png,,,,,,,,,,,,,,,,,,
null,,black_cross(without_color),563830,,,yellow,,,,,null,US_Cities_List/peoria.png,US_Cities_List/carmel.png,,,,,,,,,,,,,,,,,,
null,,rt_plussign_withcolor,564346,,,yellow,,,,,null,US_Cities_List/peoria.png,US_Cities_List/carmel.png,,,,,,,,,,,,,,,,,,
1584.2000000476837,,rt_thecrossant_black,565271,,,black_plus_sign,,,,,50,,,1,0.9722222222222222,,,,,,,,,,,,,,,,
null,,color_black,565373,,,black_plus_sign,,,,,null,,,,,,,,,,,,,,,,,,,,
null,,learn_phase(without_color),568388,,,black_plus_sign,,,,,null,US_Cities_List/cornwall.png,US_Cities_List/racine.png,,,,,,,,,,,,,,,,,,
null,,black_cross(without_color),568951,,,yellow,,,,,null,US_Cities_List/cornwall.png,US_Cities_List/racine.png,,,,,,,,,,,,,,,,,,
452,,rt_plussign_withcolor,569452,,,yellow,,,,,50,US_Cities_List/cornwall.png,US_Cities_List/racine.png,,,,,,,,,,,,,,,,,,
null,,rt_thecrossant_black,570894,,,black_plus_sign,,,,,null,,,1,0.972972972972973,,,,,,,,,,,,,,,,
null,,color_black,570997,,,black_plus_sign,,,,,null,,,,,,,,,,,,,,,,,,,,
null,,learn_phase(without_color),574007,,,black_plus_sign,,,,,null,US_Cities_List/racine.png,US_Cities_List/boulder.png,,,,,,,,,,,,,,,,,,
null,,black_cross(without_color),575007,,,blue,,,,,null,US_Cities_List/racine.png,US_Cities_List/boulder.png,,,,,,,,,,,,,,,,,,
457.39999997615814,,rt_plussign_withcolor,575510,,,blue,,,,,49,US_Cities_List/racine.png,US_Cities_List/boulder.png,,,,,,,,,,,,,,,,,,
null,,rt_thecrossant_black,576514,,,black_plus_sign,,,,,null,,,1,0.9736842105263158,,,,,,,,,,,,,,,,
null,,color_black,576617,,,black_plus_sign,,,,,null,,,,,,,,,,,,,,,,,,,,
null,,learn_phase(without_color),579643,,,black_plus_sign,,,,,null,US_Cities_List/westpalmbeach.png,US_Cities_List/hotsprings.png,,,,,,,,,,,,,,,,,,
null,,black_cross(without_color),580681,,,blue,,,,,null,US_Cities_List/westpalmbeach.png,US_Cities_List/hotsprings.png,,,,,,,,,,,,,,,,,,
null,,rt_plussign_withcolor,581183,,,blue,,,,,null,US_Cities_List/westpalmbeach.png,US_Cities_List/hotsprings.png,,,,,,,,,,,,,,,,,,
1412.2000000476837,,rt_thecrossant_black,582150,,,black_plus_sign,,,,,49,,,1,0.9743589743589743,,,,,,,,,,,,,,,,
null,,color_black,582251,,,black_plus_sign,,,,,null,,,,,,,,,,,,,,,,,,,,
null,,learn_phase(without_color),585273,,,black_plus_sign,,,,,null,US_Cities_List/boulder.png,US_Cities_List/hanover.png,,,,,,,,,,,,,,,,,,
null,,black_cross(without_color),586029,,,blue,,,,,null,US_Cities_List/boulder.png,US_Cities_List/hanover.png,,,,,,,,,,,,,,,,,,
null,,rt_plussign_withcolor,586531,,,blue,,,,,null,US_Cities_List/boulder.png,US_Cities_List/hanover.png,,,,,,,,,,,,,,,,,,
1136.1000000238419,,rt_thecrossant_black,587781,,,black_plus_sign,,,,,49,,,1,0.975,,,,,,,,,,,,,,,,
null,,color_black,587884,,,black_plus_sign,,,,,null,,,,,,,,,,,,,,,,,,,,
null,,learn_phase(without_color),590897,,,black_plus_sign,,,,,null,US_Cities_List/leesburg.png,US_Cities_List/peoria.png,,,,,,,,,,,,,,,,,,
null,,black_cross(without_color),591705,,,yellow,,,,,null,US_Cities_List/leesburg.png,US_Cities_List/peoria.png,,,,,,,,,,,,,,,,,,
null,,rt_plussign_withcolor,592206,,,yellow,,,,,null,US_Cities_List/leesburg.png,US_Cities_List/peoria.png,,,,,,,,,,,,,,,,,,
1231,,rt_thecrossant_black,593404,,,black_plus_sign,,,,,50,,,1,0.975609756097561,,,,,,,,,,,,,,,,
null,,color_black,593506,,,black_plus_sign,,,,,null,,,,,,,,,,,,,,,,,,,,
null,,learn_phase(without_color),596520,,,black_plus_sign,,,,,null,US_Cities_List/racine.png,US_Cities_List/shreveport.png,,,,,,,,,,,,,,,,,,
null,,black_cross(without_color),597337,,,blue,,,,,null,US_Cities_List/racine.png,US_Cities_List/shreveport.png,,,,,,,,,,,,,,,,,,
null,,rt_plussign_withcolor,597838,,,blue,,,,,null,US_Cities_List/racine.png,US_Cities_List/shreveport.png,,,,,,,,,,,,,,,,,,
1307.7000000476837,,rt_thecrossant_black,599026,,,black_plus_sign,,,,,49,,,1,0.9761904761904762,,,,,,,,,,,,,,,,
null,,color_black,599129,,,black_plus_sign,,,,,null,,,,,,,,,,,,,,,,,,,,
null,,learn_phase(without_color),602142,,,black_plus_sign,,,,,null,US_Cities_List/westpalmbeach.png,US_Cities_List/hotsprings.png,,,,,,,,,,,,,,,,,,
null,,black_cross(without_color),603216,,,yellow,,,,,null,US_Cities_List/westpalmbeach.png,US_Cities_List/hotsprings.png,,,,,,,,,,,,,,,,,,
null,,rt_plussign_withcolor,603718,,,yellow,,,,,null,US_Cities_List/westpalmbeach.png,US_Cities_List/hotsprings.png,,,,,,,,,,,,,,,,,,
1207.7000000476837,,rt_thecrossant_black,604647,,,black_plus_sign,,,,,50,,,1,0.9767441860465116,,,,,,,,,,,,,,,,
null,,color_black,604751,,,black_plus_sign,,,,,null,,,,,,,,,,,,,,,,,,,,
null,,learn_phase(without_color),607762,,,black_plus_sign,,,,,null,US_Cities_List/boulder.png,US_Cities_List/carmel.png,,,,,,,,,,,,,,,,,,
null,,black_cross(without_color),608305,,,blue,,,,,null,US_Cities_List/boulder.png,US_Cities_List/carmel.png,,,,,,,,,,,,,,,,,,
null,,rt_plussign_withcolor,608807,,,blue,,,,,null,US_Cities_List/boulder.png,US_Cities_List/carmel.png,,,,,,,,,,,,,,,,,,
1656.5,,rt_thecrossant_black,610268,,,black_plus_sign,,,,,49,,,1,0.9772727272727273,,,,,,,,,,,,,,,,
null,,color_black,610370,,,black_plus_sign,,,,,null,,,,,,,,,,,,,,,,,,,,
null,,learn_phase(without_color),613385,,,black_plus_sign,,,,,null,US_Cities_List/hotsprings.png,US_Cities_List/westpalmbeach.png,,,,,,,,,,,,,,,,,,
null,,black_cross(without_color),614333,,,blue,,,,,null,US_Cities_List/hotsprings.png,US_Cities_List/westpalmbeach.png,,,,,,,,,,,,,,,,,,
null,,rt_plussign_withcolor,614835,,,blue,,,,,null,US_Cities_List/hotsprings.png,US_Cities_List/westpalmbeach.png,,,,,,,,,,,,,,,,,,
1185.3000000715256,,rt_thecrossant_black,615891,,,black_plus_sign,,,,,49,,,1,0.9777777777777777,,,,,,,,,,,,,,,,
null,,color_black,615994,,,black_plus_sign,,,,,null,,,,,,,,,,,,,,,,,,,,
null,,learn_phase(without_color),619006,,,black_plus_sign,,,,,null,US_Cities_List/peoria.png,US_Cities_List/cornwall.png,,,,,,,,,,,,,,,,,,
null,,black_cross(without_color),620098,,,yellow,,,,,null,US_Cities_List/peoria.png,US_Cities_List/cornwall.png,,,,,,,,,,,,,,,,,,
496,,rt_plussign_withcolor,620599,,,yellow,,,,,50,US_Cities_List/peoria.png,US_Cities_List/cornwall.png,,,,,,,,,,,,,,,,,,
null,,rt_thecrossant_black,621513,,,black_plus_sign,,,,,null,,,1,0.9782608695652174,,,,,,,,,,,,,,,,
null,,color_black,621615,,,black_plus_sign,,,,,null,,,,,,,,,,,,,,,,,,,,
null,,learn_phase(without_color),624630,,,black_plus_sign,,,,,null,US_Cities_List/peoria.png,US_Cities_List/leesburg.png,,,,,,,,,,,,,,,,,,
null,,black_cross(without_color),625642,,,yellow,,,,,null,US_Cities_List/peoria.png,US_Cities_List/leesburg.png,,,,,,,,,,,,,,,,,,
null,,rt_plussign_withcolor,626144,,,yellow,,,,,null,US_Cities_List/peoria.png,US_Cities_List/leesburg.png,,,,,,,,,,,,,,,,,,
1388.6999999284744,,rt_thecrossant_black,627136,,,black_plus_sign,,,,,50,,,1,0.9787234042553191,,,,,,,,,,,,,,,,
null,,color_black,627238,,,black_plus_sign,,,,,null,,,,,,,,,,,,,,,,,,,,
null,,learn_phase(without_color),630257,,,black_plus_sign,,,,,null,US_Cities_List/westpalmbeach.png,US_Cities_List/leesburg.png,,,,,,,,,,,,,,,,,,
null,,black_cross(without_color),631148,,,blue,,,,,null,US_Cities_List/westpalmbeach.png,US_Cities_List/leesburg.png,,,,,,,,,,,,,,,,,,
null,,rt_plussign_withcolor,631651,,,blue,,,,,null,US_Cities_List/westpalmbeach.png,US_Cities_List/leesburg.png,,,,,,,,,,,,,,,,,,
1366.5,,rt_thecrossant_black,632765,,,black_plus_sign,,,,,49,,,1,0.9791666666666666,,,,,,,,,,,,,,,,
null,,color_black,632867,,,black_plus_sign,,,,,null,,,,,,,,,,,,,,,,,,,,
null,,learn_phase(without_color),635876,,,black_plus_sign,,,,,null,US_Cities_List/leesburg.png,US_Cities_List/huntsville.png,,,,,,,,,,,,,,,,,,
null,,black_cross(without_color),636659,,,blue,,,,,null,US_Cities_List/leesburg.png,US_Cities_List/huntsville.png,,,,,,,,,,,,,,,,,,
null,,rt_plussign_withcolor,637161,,,blue,,,,,null,US_Cities_List/leesburg.png,US_Cities_List/huntsville.png,,,,,,,,,,,,,,,,,,
1503.2999999523163,,rt_thecrossant_black,638383,,,black_plus_sign,,,,,49,,,1,0.9795918367346939,,,,,,,,,,,,,,,,
null,,color_black,638486,,,black_plus_sign,,,,,null,,,,,,,,,,,,,,,,,,,,
null,,learn_phase(without_color),641510,,,black_plus_sign,,,,,null,US_Cities_List/racine.png,US_Cities_List/cornwall.png,,,,,,,,,,,,,,,,,,
null,,black_cross(without_color),642187,,,yellow,,,,,null,US_Cities_List/racine.png,US_Cities_List/cornwall.png,,,,,,,,,,,,,,,,,,
null,,rt_plussign_withcolor,642688,,,yellow,,,,,null,US_Cities_List/racine.png,US_Cities_List/cornwall.png,,,,,,,,,,,,,,,,,,
1577.7999999523163,,rt_thecrossant_black,644015,,,black_plus_sign,,,,,50,,,1,0.98,,,,,,,,,,,,,,,,
null,,color_black,644120,,,black_plus_sign,,,,,null,,,,,,,,,,,,,,,,,,,,
null,,learn_phase(without_color),647133,,,black_plus_sign,,,,,null,US_Cities_List/boulder.png,US_Cities_List/hanover.png,,,,,,,,,,,,,,,,,,
null,,black_cross(without_color),648029,,,yellow,,,,,null,US_Cities_List/boulder.png,US_Cities_List/hanover.png,,,,,,,,,,,,,,,,,,
null,,rt_plussign_withcolor,648532,,,yellow,,,,,null,US_Cities_List/boulder.png,US_Cities_List/hanover.png,,,,,,,,,,,,,,,,,,
1199.9000000953674,,rt_thecrossant_black,649639,,,black_plus_sign,,,,,50,,,1,0.9803921568627451,,,,,,,,,,,,,,,,
null,,color_black,649741,,,black_plus_sign,,,,,null,,,,,,,,,,,,,,,,,,,,
null,,learn_phase(without_color),652774,,,black_plus_sign,,,,,null,US_Cities_List/racine.png,US_Cities_List/cornwall.png,,,,,,,,,,,,,,,,,,
null,,black_cross(without_color),653630,,,yellow,,,,,null,US_Cities_List/racine.png,US_Cities_List/cornwall.png,,,,,,,,,,,,,,,,,,
null,,rt_plussign_withcolor,654132,,,yellow,,,,,null,US_Cities_List/racine.png,US_Cities_List/cornwall.png,,,,,,,,,,,,,,,,,,
1216,,rt_thecrossant_black,655280,,,black_plus_sign,,,,,50,,,1,0.9807692307692307,,,,,,,,,,,,,,,,
null,,color_black,655382,,,black_plus_sign,,,,,null,,,,,,,,,,,,,,,,,,,,
null,,learn_phase(without_color),658432,,,black_plus_sign,,,,,null,US_Cities_List/racine.png,US_Cities_List/cornwall.png,,,,,,,,,,,,,,,,,,
null,,black_cross(without_color),659170,,,yellow,,,,,null,US_Cities_List/racine.png,US_Cities_List/cornwall.png,,,,,,,,,,,,,,,,,,
null,,rt_plussign_withcolor,659672,,,yellow,,,,,null,US_Cities_List/racine.png,US_Cities_List/cornwall.png,,,,,,,,,,,,,,,,,,
1323.6999999284744,,rt_thecrossant_black,660939,,,black_plus_sign,,,,,50,,,1,0.9811320754716981,,,,,,,,,,,,,,,,
null,,color_black,661042,,,black_plus_sign,,,,,null,,,,,,,,,,,,,,,,,,,,
null,,learn_phase(without_color),664051,,,black_plus_sign,,,,,null,US_Cities_List/huntsville.png,US_Cities_List/leesburg.png,,,,,,,,,,,,,,,,,,
null,,black_cross(without_color),664871,,,yellow,,,,,null,US_Cities_List/huntsville.png,US_Cities_List/leesburg.png,,,,,,,,,,,,,,,,,,
null,,rt_plussign_withcolor,665374,,,yellow,,,,,null,US_Cities_List/huntsville.png,US_Cities_List/leesburg.png,,,,,,,,,,,,,,,,,,
1143.3999999761581,,rt_thecrossant_black,666558,,,black_plus_sign,,,,,50,,,1,0.9814814814814815,,,,,,,,,,,,,,,,
null,,color_black,666661,,,black_plus_sign,,,,,null,,,,,,,,,,,,,,,,,,,,
null,,learn_phase(without_color),669672,,,black_plus_sign,,,,,null,US_Cities_List/westpalmbeach.png,US_Cities_List/huntsville.png,,,,,,,,,,,,,,,,,,
null,,black_cross(without_color),670140,,,yellow,,,,,null,US_Cities_List/westpalmbeach.png,US_Cities_List/huntsville.png,,,,,,,,,,,,,,,,,,
null,,rt_plussign_withcolor,670641,,,yellow,,,,,null,US_Cities_List/westpalmbeach.png,US_Cities_List/huntsville.png,,,,,,,,,,,,,,,,,,
1518.3000000715256,,rt_thecrossant_black,672179,,,black_plus_sign,,,,,50,,,1,0.9818181818181818,,,,,,,,,,,,,,,,
null,,color_black,672281,,,black_plus_sign,,,,,null,,,,,,,,,,,,,,,,,,,,
null,,learn_phase(without_color),675308,,,black_plus_sign,,,,,null,US_Cities_List/boulder.png,US_Cities_List/carmel.png,,,,,,,,,,,,,,,,,,
null,,black_cross(without_color),675761,,,blue,,,,,null,US_Cities_List/boulder.png,US_Cities_List/carmel.png,,,,,,,,,,,,,,,,,,
null,,rt_plussign_withcolor,676263,,,blue,,,,,null,US_Cities_List/boulder.png,US_Cities_List/carmel.png,,,,,,,,,,,,,,,,,,
1019.7000000476837,,rt_thecrossant_black,677827,,,black_plus_sign,,,,,49,,,1,0.9821428571428571,,,,,,,,,,,,,,,,
null,,color_black,677931,,,black_plus_sign,,,,,null,,,,,,,,,,,,,,,,,,,,
null,,learn_phase(without_color),680942,,,black_plus_sign,,,,,null,US_Cities_List/racine.png,US_Cities_List/shreveport.png,,,,,,,,,,,,,,,,,,
null,,black_cross(without_color),681408,,,yellow,,,,,null,US_Cities_List/racine.png,US_Cities_List/shreveport.png,,,,,,,,,,,,,,,,,,
null,,rt_plussign_withcolor,681911,,,yellow,,,,,null,US_Cities_List/racine.png,US_Cities_List/shreveport.png,,,,,,,,,,,,,,,,,,
575.9000000953674,,rt_thecrossant_black,683448,,,black_plus_sign,,,,,50,,,1,0.9824561403508771,,,,,,,,,,,,,,,,
null,,color_black,683551,,,black_plus_sign,,,,,null,,,,,,,,,,,,,,,,,,,,
null,,learn_phase(without_color),686579,,,black_plus_sign,,,,,null,US_Cities_List/boulder.png,US_Cities_List/carmel.png,,,,,,,,,,,,,,,,,,
null,,black_cross(without_color),687397,,,yellow,,,,,null,US_Cities_List/boulder.png,US_Cities_List/carmel.png,,,,,,,,,,,,,,,,,,
null,,rt_plussign_withcolor,687898,,,yellow,,,,,null,US_Cities_List/boulder.png,US_Cities_List/carmel.png,,,,,,,,,,,,,,,,,,
833.5,,rt_thecrossant_black,689083,,,black_plus_sign,,,,,50,,,1,0.9827586206896551,,,,,,,,,,,,,,,,
null,,color_black,689186,,,black_plus_sign,,,,,null,,,,,,,,,,,,,,,,,,,,
null,,learn_phase(without_color),692216,,,black_plus_sign,,,,,null,US_Cities_List/leesburg.png,US_Cities_List/peoria.png,,,,,,,,,,,,,,,,,,
null,,black_cross(without_color),693218,,,yellow,,,,,null,US_Cities_List/leesburg.png,US_Cities_List/peoria.png,,,,,,,,,,,,,,,,,,
null,,rt_plussign_withcolor,693721,,,yellow,,,,,null,US_Cities_List/leesburg.png,US_Cities_List/peoria.png,,,,,,,,,,,,,,,,,,
1169.1999999284744,,rt_thecrossant_black,694723,,,black_plus_sign,,,,,50,,,1,0.9830508474576272,,,,,,,,,,,,,,,,
null,,color_black,694825,,,black_plus_sign,,,,,null,,,,,,,,,,,,,,,,,,,,
null,,learn_phase(without_color),697838,,,black_plus_sign,,,,,null,US_Cities_List/leesburg.png,US_Cities_List/newhope.png,,,,,,,,,,,,,,,,,,
null,,black_cross(without_color),698745,,,blue,,,,,null,US_Cities_List/leesburg.png,US_Cities_List/newhope.png,,,,,,,,,,,,,,,,,,
468.5,,rt_plussign_withcolor,699247,,,blue,,,,,49,US_Cities_List/leesburg.png,US_Cities_List/newhope.png,,,,,,,,,,,,,,,,,,
null,,rt_thecrossant_black,700343,,,black_plus_sign,,,,,null,,,1,0.9833333333333333,,,,,,,,,,,,,,,,
null,,color_black,700454,,,black_plus_sign,,,,,null,,,,,,,,,,,,,,,,,,,,
null,,learn_phase(without_color),703466,,,black_plus_sign,,,,,null,US_Cities_List/huntsville.png,US_Cities_List/gatlinburg.png,,,,,,,,,,,,,,,,,,
null,,black_cross(without_color),703902,,,blue,,,,,null,US_Cities_List/huntsville.png,US_Cities_List/gatlinburg.png,,,,,,,,,,,,,,,,,,
null,,rt_plussign_withcolor,704405,,,blue,,,,,null,US_Cities_List/huntsville.png,US_Cities_List/gatlinburg.png,,,,,,,,,,,,,,,,,,
1392.2999999523163,,rt_thecrossant_black,705974,,,black_plus_sign,,,,,49,,,1,0.9836065573770492,,,,,,,,,,,,,,,,
null,,color_black,706076,,,black_plus_sign,,,,,null,,,,,,,,,,,,,,,,,,,,
null,,learn_phase(without_color),709089,,,black_plus_sign,,,,,null,US_Cities_List/westpalmbeach.png,US_Cities_List/newhope.png,,,,,,,,,,,,,,,,,,
null,,black_cross(without_color),709660,,,blue,,,,,null,US_Cities_List/westpalmbeach.png,US_Cities_List/newhope.png,,,,,,,,,,,,,,,,,,
null,,rt_plussign_withcolor,710161,,,blue,,,,,null,US_Cities_List/westpalmbeach.png,US_Cities_List/newhope.png,,,,,,,,,,,,,,,,,,
1420.7999999523163,,rt_thecrossant_black,711603,,,black_plus_sign,,,,,49,,,1,0.9838709677419355,,,,,,,,,,,,,,,,
null,,color_black,711705,,,black_plus_sign,,,,,null,,,,,,,,,,,,,,,,,,,,
13405.400000095367,,learn_break,725113,,,learn_break,,,,,32,,,,,,,,,,,,,,,,,,,,
null,,html-keyboard-response,726115,,,<p></p>,,,,,null,,,,,,,,,,,,,,,,,,,,
null,,learn_phase(without_color),729129,,,black_plus_sign,,,,,null,US_Cities_List/westpalmbeach.png,US_Cities_List/leesburg.png,,,,,,,,,,,,,,,,,,
null,,black_cross(without_color),729986,,,blue,,,,,null,US_Cities_List/westpalmbeach.png,US_Cities_List/leesburg.png,,,,,,,,,,,,,,,,,,
null,,rt_plussign_withcolor,730488,,,blue,,,,,null,US_Cities_List/westpalmbeach.png,US_Cities_List/leesburg.png,,,,,,,,,,,,,,,,,,
981.9000000953674,,rt_thecrossant_black,731635,,,black_plus_sign,,,,,49,,,1,0.9841269841269841,,,,,,,,,,,,,,,,
null,,color_black,731738,,,black_plus_sign,,,,,null,,,,,,,,,,,,,,,,,,,,
null,,learn_phase(without_color),734752,,,black_plus_sign,,,,,null,US_Cities_List/cornwall.png,US_Cities_List/peoria.png,,,,,,,,,,,,,,,,,,
null,,black_cross(without_color),735432,,,yellow,,,,,null,US_Cities_List/cornwall.png,US_Cities_List/peoria.png,,,,,,,,,,,,,,,,,,
null,,rt_plussign_withcolor,735934,,,yellow,,,,,null,US_Cities_List/cornwall.png,US_Cities_List/peoria.png,,,,,,,,,,,,,,,,,,
1281.6999999284744,,rt_thecrossant_black,737271,,,black_plus_sign,,,,,50,,,1,0.984375,,,,,,,,,,,,,,,,
null,,color_black,737374,,,black_plus_sign,,,,,null,,,,,,,,,,,,,,,,,,,,
null,,learn_phase(without_color),740398,,,black_plus_sign,,,,,null,US_Cities_List/shreveport.png,US_Cities_List/racine.png,,,,,,,,,,,,,,,,,,
null,,black_cross(without_color),741405,,,blue,,,,,null,US_Cities_List/shreveport.png,US_Cities_List/racine.png,,,,,,,,,,,,,,,,,,
null,,rt_plussign_withcolor,741906,,,blue,,,,,null,US_Cities_List/shreveport.png,US_Cities_List/racine.png,,,,,,,,,,,,,,,,,,
1180.6000000238419,,rt_thecrossant_black,742905,,,black_plus_sign,,,,,49,,,1,0.9846153846153847,,,,,,,,,,,,,,,,
null,,color_black,743007,,,black_plus_sign,,,,,null,,,,,,,,,,,,,,,,,,,,
null,,learn_phase(without_color),746026,,,black_plus_sign,,,,,null,US_Cities_List/cornwall.png,US_Cities_List/peoria.png,,,,,,,,,,,,,,,,,,
null,,black_cross(without_color),746676,,,blue,,,,,null,US_Cities_List/cornwall.png,US_Cities_List/peoria.png,,,,,,,,,,,,,,,,,,
null,,rt_plussign_withcolor,747178,,,blue,,,,,null,US_Cities_List/cornwall.png,US_Cities_List/peoria.png,,,,,,,,,,,,,,,,,,
1368,,rt_thecrossant_black,748534,,,black_plus_sign,,,,,49,,,1,0.9848484848484849,,,,,,,,,,,,,,,,
null,,color_black,748637,,,black_plus_sign,,,,,null,,,,,,,,,,,,,,,,,,,,
null,,learn_phase(without_color),751649,,,black_plus_sign,,,,,null,US_Cities_List/peoria.png,US_Cities_List/carmel.png,,,,,,,,,,,,,,,,,,
null,,black_cross(without_color),752143,,,blue,,,,,null,US_Cities_List/peoria.png,US_Cities_List/carmel.png,,,,,,,,,,,,,,,,,,
null,,rt_plussign_withcolor,752645,,,blue,,,,,null,US_Cities_List/peoria.png,US_Cities_List/carmel.png,,,,,,,,,,,,,,,,,,
1449.8000000715256,,rt_thecrossant_black,754159,,,black_plus_sign,,,,,49,,,1,0.9850746268656716,,,,,,,,,,,,,,,,
null,,color_black,754262,,,black_plus_sign,,,,,null,,,,,,,,,,,,,,,,,,,,
null,,learn_phase(without_color),757285,,,black_plus_sign,,,,,null,US_Cities_List/hanover.png,US_Cities_List/boulder.png,,,,,,,,,,,,,,,,,,
null,,black_cross(without_color),758161,,,blue,,,,,null,US_Cities_List/hanover.png,US_Cities_List/boulder.png,,,,,,,,,,,,,,,,,,
444.7000000476837,,rt_plussign_withcolor,758664,,,blue,,,,,49,US_Cities_List/hanover.png,US_Cities_List/boulder.png,,,,,,,,,,,,,,,,,,
null,,rt_thecrossant_black,759792,,,black_plus_sign,,,,,null,,,1,0.9852941176470589,,,,,,,,,,,,,,,,
null,,color_black,759894,,,black_plus_sign,,,,,null,,,,,,,,,,,,,,,,,,,,
null,,learn_phase(without_color),762905,,,black_plus_sign,,,,,null,US_Cities_List/racine.png,US_Cities_List/boulder.png,,,,,,,,,,,,,,,,,,
null,,black_cross(without_color),764007,,,yellow,,,,,null,US_Cities_List/racine.png,US_Cities_List/boulder.png,,,,,,,,,,,,,,,,,,
null,,rt_plussign_withcolor,764510,,,yellow,,,,,null,US_Cities_List/racine.png,US_Cities_List/boulder.png,,,,,,,,,,,,,,,,,,
1378.2999999523163,,rt_thecrossant_black,765414,,,black_plus_sign,,,,,50,,,1,0.9855072463768116,,,,,,,,,,,,,,,,
null,,color_black,765516,,,black_plus_sign,,,,,null,,,,,,,,,,,,,,,,,,,,
null,,learn_phase(without_color),768543,,,black_plus_sign,,,,,null,US_Cities_List/newhope.png,US_Cities_List/westpalmbeach.png,,,,,,,,,,,,,,,,,,
null,,black_cross(without_color),769323,,,yellow,,,,,null,US_Cities_List/newhope.png,US_Cities_List/westpalmbeach.png,,,,,,,,,,,,,,,,,,
null,,rt_plussign_withcolor,769825,,,yellow,,,,,null,US_Cities_List/newhope.png,US_Cities_List/westpalmbeach.png,,,,,,,,,,,,,,,,,,
1617.8000000715256,,rt_thecrossant_black,771049,,,black_plus_sign,,,,,50,,,1,0.9857142857142858,,,,,,,,,,,,,,,,
null,,color_black,771152,,,black_plus_sign,,,,,null,,,,,,,,,,,,,,,,,,,,
null,,learn_phase(without_color),774166,,,black_plus_sign,,,,,null,US_Cities_List/newhope.png,US_Cities_List/leesburg.png,,,,,,,,,,,,,,,,,,
null,,black_cross(without_color),774571,,,blue,,,,,null,US_Cities_List/newhope.png,US_Cities_List/leesburg.png,,,,,,,,,,,,,,,,,,
null,,rt_plussign_withcolor,775074,,,blue,,,,,null,US_Cities_List/newhope.png,US_Cities_List/leesburg.png,,,,,,,,,,,,,,,,,,
1174,,rt_thecrossant_black,776675,,,black_plus_sign,,,,,49,,,1,0.9859154929577465,,,,,,,,,,,,,,,,
null,,color_black,776777,,,black_plus_sign,,,,,null,,,,,,,,,,,,,,,,,,,,
null,,learn_phase(without_color),779788,,,black_plus_sign,,,,,null,US_Cities_List/gatlinburg.png,US_Cities_List/huntsville.png,,,,,,,,,,,,,,,,,,
null,,black_cross(without_color),780319,,,blue,,,,,null,US_Cities_List/gatlinburg.png,US_Cities_List/huntsville.png,,,,,,,,,,,,,,,,,,
null,,rt_plussign_withcolor,780821,,,blue,,,,,null,US_Cities_List/gatlinburg.png,US_Cities_List/huntsville.png,,,,,,,,,,,,,,,,,,
1253.5,,rt_thecrossant_black,782295,,,black_plus_sign,,,,,49,,,1,0.9861111111111112,,,,,,,,,,,,,,,,
null,,color_black,782398,,,black_plus_sign,,,,,null,,,,,,,,,,,,,,,,,,,,
null,,learn_phase(without_color),785426,,,black_plus_sign,,,,,null,US_Cities_List/huntsville.png,US_Cities_List/leesburg.png,,,,,,,,,,,,,,,,,,
null,,black_cross(without_color),785918,,,blue,,,,,null,US_Cities_List/huntsville.png,US_Cities_List/leesburg.png,,,,,,,,,,,,,,,,,,
null,,rt_plussign_withcolor,786420,,,blue,,,,,null,US_Cities_List/huntsville.png,US_Cities_List/leesburg.png,,,,,,,,,,,,,,,,,,
897.3999999761581,,rt_thecrossant_black,787933,,,black_plus_sign,,,,,49,,,1,0.9863013698630136,,,,,,,,,,,,,,,,
null,,color_black,788035,,,black_plus_sign,,,,,null,,,,,,,,,,,,,,,,,,,,
null,,learn_phase(without_color),791049,,,black_plus_sign,,,,,null,US_Cities_List/westpalmbeach.png,US_Cities_List/hotsprings.png,,,,,,,,,,,,,,,,,,
null,,black_cross(without_color),791879,,,blue,,,,,null,US_Cities_List/westpalmbeach.png,US_Cities_List/hotsprings.png,,,,,,,,,,,,,,,,,,
null,,rt_plussign_withcolor,792381,,,blue,,,,,null,US_Cities_List/westpalmbeach.png,US_Cities_List/hotsprings.png,,,,,,,,,,,,,,,,,,
1198.2999999523163,,rt_thecrossant_black,793555,,,black_plus_sign,,,,,49,,,1,0.9864864864864865,,,,,,,,,,,,,,,,
null,,color_black,793657,,,black_plus_sign,,,,,null,,,,,,,,,,,,,,,,,,,,
null,,learn_phase(without_color),796668,,,black_plus_sign,,,,,null,US_Cities_List/leesburg.png,US_Cities_List/westpalmbeach.png,,,,,,,,,,,,,,,,,,
null,,black_cross(without_color),797702,,,yellow,,,,,null,US_Cities_List/leesburg.png,US_Cities_List/westpalmbeach.png,,,,,,,,,,,,,,,,,,
null,,rt_plussign_withcolor,798205,,,yellow,,,,,null,US_Cities_List/leesburg.png,US_Cities_List/westpalmbeach.png,,,,,,,,,,,,,,,,,,
1113.6000000238419,,rt_thecrossant_black,799177,,,black_plus_sign,,,,,50,,,1,0.9866666666666667,,,,,,,,,,,,,,,,
null,,color_black,799279,,,black_plus_sign,,,,,null,,,,,,,,,,,,,,,,,,,,
null,,learn_phase(without_color),802299,,,black_plus_sign,,,,,null,US_Cities_List/westpalmbeach.png,US_Cities_List/hotsprings.png,,,,,,,,,,,,,,,,,,
null,,black_cross(without_color),803027,,,blue,,,,,null,US_Cities_List/westpalmbeach.png,US_Cities_List/hotsprings.png,,,,,,,,,,,,,,,,,,
null,,rt_plussign_withcolor,803529,,,blue,,,,,null,US_Cities_List/westpalmbeach.png,US_Cities_List/hotsprings.png,,,,,,,,,,,,,,,,,,
1307.9000000953674,,rt_thecrossant_black,804805,,,black_plus_sign,,,,,49,,,1,0.9868421052631579,,,,,,,,,,,,,,,,
null,,color_black,804908,,,black_plus_sign,,,,,null,,,,,,,,,,,,,,,,,,,,
null,,learn_phase(without_color),807925,,,black_plus_sign,,,,,null,US_Cities_List/leesburg.png,US_Cities_List/newhope.png,,,,,,,,,,,,,,,,,,
null,,black_cross(without_color),808662,,,yellow,,,,,null,US_Cities_List/leesburg.png,US_Cities_List/newhope.png,,,,,,,,,,,,,,,,,,
null,,rt_plussign_withcolor,809165,,,yellow,,,,,null,US_Cities_List/leesburg.png,US_Cities_List/newhope.png,,,,,,,,,,,,,,,,,,
1231.8999999761581,,rt_thecrossant_black,810433,,,black_plus_sign,,,,,50,,,1,0.987012987012987,,,,,,,,,,,,,,,,
null,,color_black,810535,,,black_plus_sign,,,,,null,,,,,,,,,,,,,,,,,,,,
null,,learn_phase(without_color),813547,,,black_plus_sign,,,,,null,US_Cities_List/carmel.png,US_Cities_List/peoria.png,,,,,,,,,,,,,,,,,,
null,,black_cross(without_color),814587,,,blue,,,,,null,US_Cities_List/carmel.png,US_Cities_List/peoria.png,,,,,,,,,,,,,,,,,,
null,,rt_plussign_withcolor,815091,,,blue,,,,,null,US_Cities_List/carmel.png,US_Cities_List/peoria.png,,,,,,,,,,,,,,,,,,
1391.1000000238419,,rt_thecrossant_black,816055,,,black_plus_sign,,,,,49,,,1,0.9871794871794872,,,,,,,,,,,,,,,,
null,,color_black,816158,,,black_plus_sign,,,,,null,,,,,,,,,,,,,,,,,,,,
null,,learn_phase(without_color),819180,,,black_plus_sign,,,,,null,US_Cities_List/huntsville.png,US_Cities_List/leesburg.png,,,,,,,,,,,,,,,,,,
null,,black_cross(without_color),820225,,,blue,,,,,null,US_Cities_List/huntsville.png,US_Cities_List/leesburg.png,,,,,,,,,,,,,,,,,,
null,,rt_plussign_withcolor,820727,,,blue,,,,,null,US_Cities_List/huntsville.png,US_Cities_List/leesburg.png,,,,,,,,,,,,,,,,,,
1553.3000000715256,,rt_thecrossant_black,821687,,,black_plus_sign,,,,,49,,,1,0.9873417721518988,,,,,,,,,,,,,,,,
null,,color_black,821789,,,black_plus_sign,,,,,null,,,,,,,,,,,,,,,,,,,,
null,,learn_phase(without_color),824801,,,black_plus_sign,,,,,null,US_Cities_List/racine.png,US_Cities_List/boulder.png,,,,,,,,,,,,,,,,,,
null,,black_cross(without_color),825246,,,yellow,,,,,null,US_Cities_List/racine.png,US_Cities_List/boulder.png,,,,,,,,,,,,,,,,,,
null,,rt_plussign_withcolor,825748,,,yellow,,,,,null,US_Cities_List/racine.png,US_Cities_List/boulder.png,,,,,,,,,,,,,,,,,,
1537.0999999046326,,rt_thecrossant_black,827323,,,black_plus_sign,,,,,50,,,1,0.9875,,,,,,,,,,,,,,,,
null,,color_black,827425,,,black_plus_sign,,,,,null,,,,,,,,,,,,,,,,,,,,
null,,learn_phase(without_color),830439,,,black_plus_sign,,,,,null,US_Cities_List/newhope.png,US_Cities_List/leesburg.png,,,,,,,,,,,,,,,,,,
null,,black_cross(without_color),830971,,,blue,,,,,null,US_Cities_List/newhope.png,US_Cities_List/leesburg.png,,,,,,,,,,,,,,,,,,
null,,rt_plussign_withcolor,831473,,,blue,,,,,null,US_Cities_List/newhope.png,US_Cities_List/leesburg.png,,,,,,,,,,,,,,,,,,
900.5,,rt_thecrossant_black,832947,,,black_plus_sign,,,,,49,,,1,0.9876543209876543,,,,,,,,,,,,,,,,
null,,color_black,833050,,,black_plus_sign,,,,,null,,,,,,,,,,,,,,,,,,,,
null,,learn_phase(without_color),836080,,,black_plus_sign,,,,,null,US_Cities_List/leesburg.png,US_Cities_List/peoria.png,,,,,,,,,,,,,,,,,,
null,,black_cross(without_color),837159,,,yellow,,,,,null,US_Cities_List/leesburg.png,US_Cities_List/peoria.png,,,,,,,,,,,,,,,,,,
null,,rt_plussign_withcolor,837661,,,yellow,,,,,null,US_Cities_List/leesburg.png,US_Cities_List/peoria.png,,,,,,,,,,,,,,,,,,
861.2999999523163,,rt_thecrossant_black,838588,,,black_plus_sign,,,,,50,,,1,0.9878048780487805,,,,,,,,,,,,,,,,
null,,color_black,838692,,,black_plus_sign,,,,,null,,,,,,,,,,,,,,,,,,,,
null,,learn_phase(without_color),841706,,,black_plus_sign,,,,,null,US_Cities_List/carmel.png,US_Cities_List/peoria.png,,,,,,,,,,,,,,,,,,
null,,black_cross(without_color),842411,,,yellow,,,,,null,US_Cities_List/carmel.png,US_Cities_List/peoria.png,,,,,,,,,,,,,,,,,,
null,,rt_plussign_withcolor,842912,,,yellow,,,,,null,US_Cities_List/carmel.png,US_Cities_List/peoria.png,,,,,,,,,,,,,,,,,,
1466.5999999046326,,rt_thecrossant_black,844213,,,black_plus_sign,,,,,50,,,1,0.9879518072289156,,,,,,,,,,,,,,,,
null,,color_black,844315,,,black_plus_sign,,,,,null,,,,,,,,,,,,,,,,,,,,
null,,learn_phase(without_color),847331,,,black_plus_sign,,,,,null,US_Cities_List/carmel.png,US_Cities_List/peoria.png,,,,,,,,,,,,,,,,,,
null,,black_cross(without_color),848320,,,yellow,,,,,null,US_Cities_List/carmel.png,US_Cities_List/peoria.png,,,,,,,,,,,,,,,,,,
null,,rt_plussign_withcolor,848822,,,yellow,,,,,null,US_Cities_List/carmel.png,US_Cities_List/peoria.png,,,,,,,,,,,,,,,,,,
873.6000000238419,,rt_thecrossant_black,849836,,,black_plus_sign,,,,,50,,,1,0.9880952380952381,,,,,,,,,,,,,,,,
null,,color_black,849938,,,black_plus_sign,,,,,null,,,,,,,,,,,,,,,,,,,,
null,,learn_phase(without_color),852952,,,black_plus_sign,,,,,null,US_Cities_List/peoria.png,US_Cities_List/cornwall.png,,,,,,,,,,,,,,,,,,
null,,black_cross(without_color),853864,,,yellow,,,,,null,US_Cities_List/peoria.png,US_Cities_List/cornwall.png,,,,,,,,,,,,,,,,,,
null,,rt_plussign_withcolor,854366,,,yellow,,,,,null,US_Cities_List/peoria.png,US_Cities_List/cornwall.png,,,,,,,,,,,,,,,,,,
1101.1000000238419,,rt_thecrossant_black,855458,,,black_plus_sign,,,,,50,,,1,0.9882352941176471,,,,,,,,,,,,,,,,
null,,color_black,855561,,,black_plus_sign,,,,,null,,,,,,,,,,,,,,,,,,,,
null,,learn_phase(without_color),858572,,,black_plus_sign,,,,,null,US_Cities_List/westpalmbeach.png,US_Cities_List/leesburg.png,,,,,,,,,,,,,,,,,,
null,,black_cross(without_color),858997,,,blue,,,,,null,US_Cities_List/westpalmbeach.png,US_Cities_List/leesburg.png,,,,,,,,,,,,,,,,,,
null,,rt_plussign_withcolor,859499,,,blue,,,,,null,US_Cities_List/westpalmbeach.png,US_Cities_List/leesburg.png,,,,,,,,,,,,,,,,,,
1503.1000000238419,,rt_thecrossant_black,861079,,,black_plus_sign,,,,,49,,,1,0.9883720930232558,,,,,,,,,,,,,,,,
null,,color_black,861181,,,black_plus_sign,,,,,null,,,,,,,,,,,,,,,,,,,,
null,,learn_phase(without_color),864192,,,black_plus_sign,,,,,null,US_Cities_List/newhope.png,US_Cities_List/westpalmbeach.png,,,,,,,,,,,,,,,,,,
null,,black_cross(without_color),864792,,,blue,,,,,null,US_Cities_List/newhope.png,US_Cities_List/westpalmbeach.png,,,,,,,,,,,,,,,,,,
null,,rt_plussign_withcolor,865294,,,blue,,,,,null,US_Cities_List/newhope.png,US_Cities_List/westpalmbeach.png,,,,,,,,,,,,,,,,,,
586.7999999523163,,rt_thecrossant_black,866697,,,black_plus_sign,,,,,49,,,1,0.9885057471264368,,,,,,,,,,,,,,,,
null,,color_black,866802,,,black_plus_sign,,,,,null,,,,,,,,,,,,,,,,,,,,
null,,learn_phase(without_color),869826,,,black_plus_sign,,,,,null,US_Cities_List/huntsville.png,US_Cities_List/westpalmbeach.png,,,,,,,,,,,,,,,,,,
null,,black_cross(without_color),870249,,,yellow,,,,,null,US_Cities_List/huntsville.png,US_Cities_List/westpalmbeach.png,,,,,,,,,,,,,,,,,,
null,,rt_plussign_withcolor,870751,,,yellow,,,,,null,US_Cities_List/huntsville.png,US_Cities_List/westpalmbeach.png,,,,,,,,,,,,,,,,,,
866.6000000238419,,rt_thecrossant_black,872334,,,black_plus_sign,,,,,50,,,1,0.9886363636363636,,,,,,,,,,,,,,,,
null,,color_black,872437,,,black_plus_sign,,,,,null,,,,,,,,,,,,,,,,,,,,
null,,learn_phase(without_color),875454,,,black_plus_sign,,,,,null,US_Cities_List/cornwall.png,US_Cities_List/peoria.png,,,,,,,,,,,,,,,,,,
null,,black_cross(without_color),876363,,,yellow,,,,,null,US_Cities_List/cornwall.png,US_Cities_List/peoria.png,,,,,,,,,,,,,,,,,,
null,,rt_plussign_withcolor,876864,,,yellow,,,,,null,US_Cities_List/cornwall.png,US_Cities_List/peoria.png,,,,,,,,,,,,,,,,,,
763.6000000238419,,rt_thecrossant_black,877961,,,black_plus_sign,,,,,50,,,1,0.9887640449438202,,,,,,,,,,,,,,,,
null,,color_black,878063,,,black_plus_sign,,,,,null,,,,,,,,,,,,,,,,,,,,
null,,learn_phase(without_color),881081,,,black_plus_sign,,,,,null,US_Cities_List/racine.png,US_Cities_List/cornwall.png,,,,,,,,,,,,,,,,,,
null,,black_cross(without_color),881732,,,blue,,,,,null,US_Cities_List/racine.png,US_Cities_List/cornwall.png,,,,,,,,,,,,,,,,,,
null,,rt_plussign_withcolor,882235,,,blue,,,,,null,US_Cities_List/racine.png,US_Cities_List/cornwall.png,,,,,,,,,,,,,,,,,,
1318.4000000953674,,rt_thecrossant_black,883590,,,black_plus_sign,,,,,49,,,1,0.9888888888888889,,,,,,,,,,,,,,,,
null,,color_black,883692,,,black_plus_sign,,,,,null,,,,,,,,,,,,,,,,,,,,
null,,learn_phase(without_color),886707,,,black_plus_sign,,,,,null,US_Cities_List/newhope.png,US_Cities_List/westpalmbeach.png,,,,,,,,,,,,,,,,,,
null,,black_cross(without_color),887181,,,blue,,,,,null,US_Cities_List/newhope.png,US_Cities_List/westpalmbeach.png,,,,,,,,,,,,,,,,,,
null,,rt_plussign_withcolor,887683,,,blue,,,,,null,US_Cities_List/newhope.png,US_Cities_List/westpalmbeach.png,,,,,,,,,,,,,,,,,,
1106.1000000238419,,rt_thecrossant_black,889215,,,black_plus_sign,,,,,49,,,1,0.989010989010989,,,,,,,,,,,,,,,,
null,,color_black,889318,,,black_plus_sign,,,,,null,,,,,,,,,,,,,,,,,,,,
null,,learn_phase(without_color),892357,,,black_plus_sign,,,,,null,US_Cities_List/racine.png,US_Cities_List/cornwall.png,,,,,,,,,,,,,,,,,,
null,,black_cross(without_color),892993,,,blue,,,,,null,US_Cities_List/racine.png,US_Cities_List/cornwall.png,,,,,,,,,,,,,,,,,,
null,,rt_plussign_withcolor,893495,,,blue,,,,,null,US_Cities_List/racine.png,US_Cities_List/cornwall.png,,,,,,,,,,,,,,,,,,
964.2999999523163,,rt_thecrossant_black,894864,,,black_plus_sign,,,,,49,,,1,0.9891304347826086,,,,,,,,,,,,,,,,
null,,color_black,894966,,,black_plus_sign,,,,,null,,,,,,,,,,,,,,,,,,,,
null,,learn_phase(without_color),897978,,,black_plus_sign,,,,,null,US_Cities_List/carmel.png,US_Cities_List/boulder.png,,,,,,,,,,,,,,,,,,
null,,black_cross(without_color),898705,,,blue,,,,,null,US_Cities_List/carmel.png,US_Cities_List/boulder.png,,,,,,,,,,,,,,,,,,
null,,rt_plussign_withcolor,899208,,,blue,,,,,null,US_Cities_List/carmel.png,US_Cities_List/boulder.png,,,,,,,,,,,,,,,,,,
976.2999999523163,,rt_thecrossant_black,900486,,,black_plus_sign,,,,,49,,,1,0.989247311827957,,,,,,,,,,,,,,,,
null,,color_black,900589,,,black_plus_sign,,,,,null,,,,,,,,,,,,,,,,,,,,
null,,learn_phase(without_color),903619,,,black_plus_sign,,,,,null,US_Cities_List/peoria.png,US_Cities_List/cornwall.png,,,,,,,,,,,,,,,,,,
null,,black_cross(without_color),904226,,,blue,,,,,null,US_Cities_List/peoria.png,US_Cities_List/cornwall.png,,,,,,,,,,,,,,,,,,
null,,rt_plussign_withcolor,904728,,,blue,,,,,null,US_Cities_List/peoria.png,US_Cities_List/cornwall.png,,,,,,,,,,,,,,,,,,
1067.3000000715256,,rt_thecrossant_black,906125,,,black_plus_sign,,,,,49,,,1,0.9893617021276596,,,,,,,,,,,,,,,,
null,,color_black,906229,,,black_plus_sign,,,,,null,,,,,,,,,,,,,,,,,,,,
null,,learn_phase(without_color),909239,,,black_plus_sign,,,,,null,US_Cities_List/westpalmbeach.png,US_Cities_List/huntsville.png,,,,,,,,,,,,,,,,,,
null,,black_cross(without_color),909761,,,blue,,,,,null,US_Cities_List/westpalmbeach.png,US_Cities_List/huntsville.png,,,,,,,,,,,,,,,,,,
null,,rt_plussign_withcolor,910262,,,blue,,,,,null,US_Cities_List/westpalmbeach.png,US_Cities_List/huntsville.png,,,,,,,,,,,,,,,,,,
1225.8999999761581,,rt_thecrossant_black,911747,,,black_plus_sign,,,,,49,,,1,0.9894736842105263,,,,,,,,,,,,,,,,
null,,color_black,911850,,,black_plus_sign,,,,,null,,,,,,,,,,,,,,,,,,,,
null,,learn_phase(without_color),914878,,,black_plus_sign,,,,,null,US_Cities_List/newhope.png,US_Cities_List/carmel.png,,,,,,,,,,,,,,,,,,
null,,black_cross(without_color),915830,,,blue,,,,,null,US_Cities_List/newhope.png,US_Cities_List/carmel.png,,,,,,,,,,,,,,,,,,
null,,rt_plussign_withcolor,916332,,,blue,,,,,null,US_Cities_List/newhope.png,US_Cities_List/carmel.png,,,,,,,,,,,,,,,,,,
1160.6000000238419,,rt_thecrossant_black,917384,,,black_plus_sign,,,,,49,,,1,0.9895833333333334,,,,,,,,,,,,,,,,
null,,color_black,917487,,,black_plus_sign,,,,,null,,,,,,,,,,,,,,,,,,,,
null,,learn_phase(without_color),920501,,,black_plus_sign,,,,,null,US_Cities_List/westpalmbeach.png,US_Cities_List/leesburg.png,,,,,,,,,,,,,,,,,,
null,,black_cross(without_color),920955,,,blue,,,,,null,US_Cities_List/westpalmbeach.png,US_Cities_List/leesburg.png,,,,,,,,,,,,,,,,,,
null,,rt_plussign_withcolor,921470,,,blue,,,,,null,US_Cities_List/westpalmbeach.png,US_Cities_List/leesburg.png,,,,,,,,,,,,,,,,,,
2032.5,,rt_thecrossant_black,923022,,,black_plus_sign,,,,,49,,,1,0.9896907216494846,,,,,,,,,,,,,,,,
null,,color_black,923125,,,black_plus_sign,,,,,null,,,,,,,,,,,,,,,,,,,,
null,,learn_phase(without_color),926144,,,black_plus_sign,,,,,null,US_Cities_List/carmel.png,US_Cities_List/boulder.png,,,,,,,,,,,,,,,,,,
null,,black_cross(without_color),926571,,,yellow,,,,,null,US_Cities_List/carmel.png,US_Cities_List/boulder.png,,,,,,,,,,,,,,,,,,
null,,rt_plussign_withcolor,927073,,,yellow,,,,,null,US_Cities_List/carmel.png,US_Cities_List/boulder.png,,,,,,,,,,,,,,,,,,
606.5999999046326,,rt_thecrossant_black,928652,,,black_plus_sign,,,,,50,,,1,0.9897959183673469,,,,,,,,,,,,,,,,
null,,color_black,928755,,,black_plus_sign,,,,,null,,,,,,,,,,,,,,,,,,,,
null,,learn_phase(without_color),931771,,,black_plus_sign,,,,,null,US_Cities_List/carmel.png,US_Cities_List/newhope.png,,,,,,,,,,,,,,,,,,
null,,black_cross(without_color),932737,,,blue,,,,,null,US_Cities_List/carmel.png,US_Cities_List/newhope.png,,,,,,,,,,,,,,,,,,
null,,rt_plussign_withcolor,933239,,,blue,,,,,null,US_Cities_List/carmel.png,US_Cities_List/newhope.png,,,,,,,,,,,,,,,,,,
1169.8999999761581,,rt_thecrossant_black,934278,,,black_plus_sign,,,,,49,,,1,0.98989898989899,,,,,,,,,,,,,,,,
null,,color_black,934382,,,black_plus_sign,,,,,null,,,,,,,,,,,,,,,,,,,,
null,,learn_phase(without_color),937411,,,black_plus_sign,,,,,null,US_Cities_List/huntsville.png,US_Cities_List/gatlinburg.png,,,,,,,,,,,,,,,,,,
null,,black_cross(without_color),938434,,,blue,,,,,null,US_Cities_List/huntsville.png,US_Cities_List/gatlinburg.png,,,,,,,,,,,,,,,,,,
null,,rt_plussign_withcolor,938936,,,blue,,,,,null,US_Cities_List/huntsville.png,US_Cities_List/gatlinburg.png,,,,,,,,,,,,,,,,,,
1901.6999999284744,,rt_thecrossant_black,939920,,,black_plus_sign,,,,,49,,,1,0.99,,,,,,,,,,,,,,,,
null,,color_black,940022,,,black_plus_sign,,,,,null,,,,,,,,,,,,,,,,,,,,
null,,learn_phase(without_color),943054,,,black_plus_sign,,,,,null,US_Cities_List/newhope.png,US_Cities_List/westpalmbeach.png,,,,,,,,,,,,,,,,,,
null,,black_cross(without_color),943691,,,blue,,,,,null,US_Cities_List/newhope.png,US_Cities_List/westpalmbeach.png,,,,,,,,,,,,,,,,,,
null,,rt_plussign_withcolor,944194,,,blue,,,,,null,US_Cities_List/newhope.png,US_Cities_List/westpalmbeach.png,,,,,,,,,,,,,,,,,,
1409.5999999046326,,rt_thecrossant_black,945567,,,black_plus_sign,,,,,49,,,1,0.9900990099009901,,,,,,,,,,,,,,,,
null,,color_black,945683,,,black_plus_sign,,,,,null,,,,,,,,,,,,,,,,,,,,
null,,learn_phase(without_color),948708,,,black_plus_sign,,,,,null,US_Cities_List/hanover.png,US_Cities_List/boulder.png,,,,,,,,,,,,,,,,,,
null,,black_cross(without_color),949112,,,blue,,,,,null,US_Cities_List/hanover.png,US_Cities_List/boulder.png,,,,,,,,,,,,,,,,,,
null,,rt_plussign_withcolor,949614,,,blue,,,,,null,US_Cities_List/hanover.png,US_Cities_List/boulder.png,,,,,,,,,,,,,,,,,,
832.6999999284744,,rt_thecrossant_black,951216,,,black_plus_sign,,,,,49,,,1,0.9901960784313726,,,,,,,,,,,,,,,,
null,,color_black,951319,,,black_plus_sign,,,,,null,,,,,,,,,,,,,,,,,,,,
null,,learn_phase(without_color),954328,,,black_plus_sign,,,,,null,US_Cities_List/boulder.png,US_Cities_List/hanover.png,,,,,,,,,,,,,,,,,,
null,,black_cross(without_color),955095,,,blue,,,,,null,US_Cities_List/boulder.png,US_Cities_List/hanover.png,,,,,,,,,,,,,,,,,,
null,,rt_plussign_withcolor,955596,,,blue,,,,,null,US_Cities_List/boulder.png,US_Cities_List/hanover.png,,,,,,,,,,,,,,,,,,
1090.5,,rt_thecrossant_black,956833,,,black_plus_sign,,,,,49,,,1,0.9902912621359223,,,,,,,,,,,,,,,,
null,,color_black,956935,,,black_plus_sign,,,,,null,,,,,,,,,,,,,,,,,,,,
null,,learn_phase(without_color),959963,,,black_plus_sign,,,,,null,US_Cities_List/gatlinburg.png,US_Cities_List/huntsville.png,,,,,,,,,,,,,,,,,,
null,,black_cross(without_color),960829,,,yellow,,,,,null,US_Cities_List/gatlinburg.png,US_Cities_List/huntsville.png,,,,,,,,,,,,,,,,,,
null,,rt_plussign_withcolor,961332,,,yellow,,,,,null,US_Cities_List/gatlinburg.png,US_Cities_List/huntsville.png,,,,,,,,,,,,,,,,,,
1218.8000000715256,,rt_thecrossant_black,962471,,,black_plus_sign,,,,,50,,,1,0.9903846153846154,,,,,,,,,,,,,,,,
null,,color_black,962574,,,black_plus_sign,,,,,null,,,,,,,,,,,,,,,,,,,,
null,,learn_phase(without_color),965598,,,black_plus_sign,,,,,null,US_Cities_List/hotsprings.png,US_Cities_List/westpalmbeach.png,,,,,,,,,,,,,,,,,,
null,,black_cross(without_color),966348,,,blue,,,,,null,US_Cities_List/hotsprings.png,US_Cities_List/westpalmbeach.png,,,,,,,,,,,,,,,,,,
null,,rt_plussign_withcolor,966850,,,blue,,,,,null,US_Cities_List/hotsprings.png,US_Cities_List/westpalmbeach.png,,,,,,,,,,,,,,,,,,
1332.3000000715256,,rt_thecrossant_black,968105,,,black_plus_sign,,,,,49,,,1,0.9904761904761905,,,,,,,,,,,,,,,,
null,,color_black,968208,,,black_plus_sign,,,,,null,,,,,,,,,,,,,,,,,,,,
null,,learn_phase(without_color),971242,,,black_plus_sign,,,,,null,US_Cities_List/carmel.png,US_Cities_List/newhope.png,,,,,,,,,,,,,,,,,,
null,,black_cross(without_color),972127,,,yellow,,,,,null,US_Cities_List/carmel.png,US_Cities_List/newhope.png,,,,,,,,,,,,,,,,,,
460.39999997615814,,rt_plussign_withcolor,972629,,,yellow,,,,,50,US_Cities_List/carmel.png,US_Cities_List/newhope.png,,,,,,,,,,,,,,,,,,
null,,rt_thecrossant_black,973747,,,black_plus_sign,,,,,null,,,1,0.9905660377358491,,,,,,,,,,,,,,,,
null,,color_black,973849,,,black_plus_sign,,,,,null,,,,,,,,,,,,,,,,,,,,
null,,learn_phase(without_color),976884,,,black_plus_sign,,,,,null,US_Cities_List/racine.png,US_Cities_List/cornwall.png,,,,,,,,,,,,,,,,,,
null,,black_cross(without_color),977386,,,yellow,,,,,null,US_Cities_List/racine.png,US_Cities_List/cornwall.png,,,,,,,,,,,,,,,,,,
null,,rt_plussign_withcolor,977887,,,yellow,,,,,null,US_Cities_List/racine.png,US_Cities_List/cornwall.png,,,,,,,,,,,,,,,,,,
1210.1999999284744,,rt_thecrossant_black,979389,,,black_plus_sign,,,,,50,,,1,0.9906542056074766,,,,,,,,,,,,,,,,
null,,color_black,979491,,,black_plus_sign,,,,,null,,,,,,,,,,,,,,,,,,,,
null,,learn_phase(without_color),982502,,,black_plus_sign,,,,,null,US_Cities_List/huntsville.png,US_Cities_List/leesburg.png,,,,,,,,,,,,,,,,,,
null,,black_cross(without_color),983345,,,blue,,,,,null,US_Cities_List/huntsville.png,US_Cities_List/leesburg.png,,,,,,,,,,,,,,,,,,
407.5,,rt_plussign_withcolor,983847,,,blue,,,,,49,US_Cities_List/huntsville.png,US_Cities_List/leesburg.png,,,,,,,,,,,,,,,,,,
null,,rt_thecrossant_black,985011,,,black_plus_sign,,,,,null,,,1,0.9907407407407407,,,,,,,,,,,,,,,,
null,,color_black,985114,,,black_plus_sign,,,,,null,,,,,,,,,,,,,,,,,,,,
null,,learn_phase(without_color),988129,,,black_plus_sign,,,,,null,US_Cities_List/peoria.png,US_Cities_List/carmel.png,,,,,,,,,,,,,,,,,,
null,,black_cross(without_color),988761,,,yellow,,,,,null,US_Cities_List/peoria.png,US_Cities_List/carmel.png,,,,,,,,,,,,,,,,,,
null,,rt_plussign_withcolor,989263,,,yellow,,,,,null,US_Cities_List/peoria.png,US_Cities_List/carmel.png,,,,,,,,,,,,,,,,,,
978,,rt_thecrossant_black,990636,,,black_plus_sign,,,,,50,,,1,0.9908256880733946,,,,,,,,,,,,,,,,
null,,color_black,990738,,,black_plus_sign,,,,,null,,,,,,,,,,,,,,,,,,,,
null,,learn_phase(without_color),993750,,,black_plus_sign,,,,,null,US_Cities_List/huntsville.png,US_Cities_List/gatlinburg.png,,,,,,,,,,,,,,,,,,
null,,black_cross(without_color),994433,,,yellow,,,,,null,US_Cities_List/huntsville.png,US_Cities_List/gatlinburg.png,,,,,,,,,,,,,,,,,,
496.60000002384186,,rt_plussign_withcolor,994936,,,yellow,,,,,50,US_Cities_List/huntsville.png,US_Cities_List/gatlinburg.png,,,,,,,,,,,,,,,,,,
null,,rt_thecrossant_black,996258,,,black_plus_sign,,,,,null,,,1,0.990909090909091,,,,,,,,,,,,,,,,
null,,color_black,996362,,,black_plus_sign,,,,,null,,,,,,,,,,,,,,,,,,,,
null,,learn_phase(without_color),999376,,,black_plus_sign,,,,,null,US_Cities_List/racine.png,US_Cities_List/boulder.png,,,,,,,,,,,,,,,,,,
null,,black_cross(without_color),1000426,,,yellow,,,,,null,US_Cities_List/racine.png,US_Cities_List/boulder.png,,,,,,,,,,,,,,,,,,
null,,rt_plussign_withcolor,1000929,,,yellow,,,,,null,US_Cities_List/racine.png,US_Cities_List/boulder.png,,,,,,,,,,,,,,,,,,
867.6000000238419,,rt_thecrossant_black,1001883,,,black_plus_sign,,,,,50,,,1,0.990990990990991,,,,,,,,,,,,,,,,
null,,color_black,1001986,,,black_plus_sign,,,,,null,,,,,,,,,,,,,,,,,,,,
null,,learn_phase(without_color),1005002,,,black_plus_sign,,,,,null,US_Cities_List/leesburg.png,US_Cities_List/newhope.png,,,,,,,,,,,,,,,,,,
null,,black_cross(without_color),1005441,,,blue,,,,,null,US_Cities_List/leesburg.png,US_Cities_List/newhope.png,,,,,,,,,,,,,,,,,,
439.7000000476837,,rt_plussign_withcolor,1005943,,,blue,,,,,49,US_Cities_List/leesburg.png,US_Cities_List/newhope.png,,,,,,,,,,,,,,,,,,
null,,rt_thecrossant_black,1007510,,,black_plus_sign,,,,,null,,,1,0.9910714285714286,,,,,,,,,,,,,,,,
null,,color_black,1007613,,,black_plus_sign,,,,,null,,,,,,,,,,,,,,,,,,,,
null,,learn_phase(without_color),1010633,,,black_plus_sign,,,,,null,US_Cities_List/carmel.png,US_Cities_List/boulder.png,,,,,,,,,,,,,,,,,,
null,,black_cross(without_color),1011225,,,blue,,,,,null,US_Cities_List/carmel.png,US_Cities_List/boulder.png,,,,,,,,,,,,,,,,,,
null,,rt_plussign_withcolor,1011727,,,blue,,,,,null,US_Cities_List/carmel.png,US_Cities_List/boulder.png,,,,,,,,,,,,,,,,,,
951.6999999284744,,rt_thecrossant_black,1013140,,,black_plus_sign,,,,,49,,,1,0.9911504424778761,,,,,,,,,,,,,,,,
null,,color_black,1013243,,,black_plus_sign,,,,,null,,,,,,,,,,,,,,,,,,,,
null,,learn_phase(without_color),1016264,,,black_plus_sign,,,,,null,US_Cities_List/newhope.png,US_Cities_List/carmel.png,,,,,,,,,,,,,,,,,,
null,,black_cross(without_color),1016806,,,blue,,,,,null,US_Cities_List/newhope.png,US_Cities_List/carmel.png,,,,,,,,,,,,,,,,,,
418.60000002384186,,rt_plussign_withcolor,1017309,,,blue,,,,,49,US_Cities_List/newhope.png,US_Cities_List/carmel.png,,,,,,,,,,,,,,,,,,
null,,rt_thecrossant_black,1018784,,,black_plus_sign,,,,,null,,,1,0.9912280701754386,,,,,,,,,,,,,,,,
null,,color_black,1018887,,,black_plus_sign,,,,,null,,,,,,,,,,,,,,,,,,,,
null,,learn_phase(without_color),1021900,,,black_plus_sign,,,,,null,US_Cities_List/shreveport.png,US_Cities_List/racine.png,,,,,,,,,,,,,,,,,,
null,,black_cross(without_color),1022364,,,yellow,,,,,null,US_Cities_List/shreveport.png,US_Cities_List/racine.png,,,,,,,,,,,,,,,,,,
470.39999997615814,,rt_plussign_withcolor,1022869,,,yellow,,,,,50,US_Cities_List/shreveport.png,US_Cities_List/racine.png,,,,,,,,,,,,,,,,,,
null,,rt_thecrossant_black,1024410,,,black_plus_sign,,,,,null,,,1,0.991304347826087,,,,,,,,,,,,,,,,
null,,color_black,1024513,,,black_plus_sign,,,,,null,,,,,,,,,,,,,,,,,,,,
null,,learn_phase(without_color),1027526,,,black_plus_sign,,,,,null,US_Cities_List/westpalmbeach.png,US_Cities_List/newhope.png,,,,,,,,,,,,,,,,,,
null,,black_cross(without_color),1028290,,,yellow,,,,,null,US_Cities_List/westpalmbeach.png,US_Cities_List/newhope.png,,,,,,,,,,,,,,,,,,
365,,rt_plussign_withcolor,1028792,,,yellow,,,,,50,US_Cities_List/westpalmbeach.png,US_Cities_List/newhope.png,,,,,,,,,,,,,,,,,,
null,,rt_thecrossant_black,1030033,,,black_plus_sign,,,,,null,,,1,0.9913793103448276,,,,,,,,,,,,,,,,
null,,color_black,1030135,,,black_plus_sign,,,,,null,,,,,,,,,,,,,,,,,,,,
null,,learn_phase(without_color),1033149,,,black_plus_sign,,,,,null,US_Cities_List/westpalmbeach.png,US_Cities_List/hotsprings.png,,,,,,,,,,,,,,,,,,
null,,black_cross(without_color),1034201,,,blue,,,,,null,US_Cities_List/westpalmbeach.png,US_Cities_List/hotsprings.png,,,,,,,,,,,,,,,,,,
null,,rt_plussign_withcolor,1034703,,,blue,,,,,null,US_Cities_List/westpalmbeach.png,US_Cities_List/hotsprings.png,,,,,,,,,,,,,,,,,,
959.5,,rt_thecrossant_black,1035658,,,black_plus_sign,,,,,49,,,1,0.9914529914529915,,,,,,,,,,,,,,,,
null,,color_black,1035760,,,black_plus_sign,,,,,null,,,,,,,,,,,,,,,,,,,,
null,,learn_phase(without_color),1038771,,,black_plus_sign,,,,,null,US_Cities_List/leesburg.png,US_Cities_List/peoria.png,,,,,,,,,,,,,,,,,,
null,,black_cross(without_color),1039292,,,blue,,,,,null,US_Cities_List/leesburg.png,US_Cities_List/peoria.png,,,,,,,,,,,,,,,,,,
null,,rt_plussign_withcolor,1039795,,,blue,,,,,null,US_Cities_List/leesburg.png,US_Cities_List/peoria.png,,,,,,,,,,,,,,,,,,
1267.8000000715256,,rt_thecrossant_black,1041278,,,black_plus_sign,,,,,49,,,1,0.9915254237288136,,,,,,,,,,,,,,,,
null,,color_black,1041381,,,black_plus_sign,,,,,null,,,,,,,,,,,,,,,,,,,,
null,,learn_phase(without_color),1044398,,,black_plus_sign,,,,,null,US_Cities_List/peoria.png,US_Cities_List/cornwall.png,,,,,,,,,,,,,,,,,,
null,,black_cross(without_color),1045184,,,blue,,,,,null,US_Cities_List/peoria.png,US_Cities_List/cornwall.png,,,,,,,,,,,,,,,,,,
null,,rt_plussign_withcolor,1045686,,,blue,,,,,null,US_Cities_List/peoria.png,US_Cities_List/cornwall.png,,,,,,,,,,,,,,,,,,
853.7999999523163,,rt_thecrossant_black,1046905,,,black_plus_sign,,,,,49,,,1,0.9915966386554622,,,,,,,,,,,,,,,,
null,,color_black,1047010,,,black_plus_sign,,,,,null,,,,,,,,,,,,,,,,,,,,
null,,learn_phase(without_color),1050022,,,black_plus_sign,,,,,null,US_Cities_List/shreveport.png,US_Cities_List/racine.png,,,,,,,,,,,,,,,,,,
null,,black_cross(without_color),1051108,,,blue,,,,,null,US_Cities_List/shreveport.png,US_Cities_List/racine.png,,,,,,,,,,,,,,,,,,
360.2000000476837,,rt_plussign_withcolor,1051612,,,blue,,,,,49,US_Cities_List/shreveport.png,US_Cities_List/racine.png,,,,,,,,,,,,,,,,,,
null,,rt_thecrossant_black,1052532,,,black_plus_sign,,,,,null,,,1,0.9916666666666667,,,,,,,,,,,,,,,,
null,,color_black,1052635,,,black_plus_sign,,,,,null,,,,,,,,,,,,,,,,,,,,
null,,learn_phase(without_color),1055667,,,black_plus_sign,,,,,null,US_Cities_List/hotsprings.png,US_Cities_List/westpalmbeach.png,,,,,,,,,,,,,,,,,,
null,,black_cross(without_color),1056133,,,blue,,,,,null,US_Cities_List/hotsprings.png,US_Cities_List/westpalmbeach.png,,,,,,,,,,,,,,,,,,
null,,rt_plussign_withcolor,1056636,,,blue,,,,,null,US_Cities_List/hotsprings.png,US_Cities_List/westpalmbeach.png,,,,,,,,,,,,,,,,,,
1224.3000000715256,,rt_thecrossant_black,1058176,,,black_plus_sign,,,,,49,,,1,0.9917355371900827,,,,,,,,,,,,,,,,
null,,color_black,1058279,,,black_plus_sign,,,,,null,,,,,,,,,,,,,,,,,,,,
null,,learn_phase(without_color),1061306,,,black_plus_sign,,,,,null,US_Cities_List/carmel.png,US_Cities_List/peoria.png,,,,,,,,,,,,,,,,,,
null,,black_cross(without_color),1061932,,,blue,,,,,null,US_Cities_List/carmel.png,US_Cities_List/peoria.png,,,,,,,,,,,,,,,,,,
null,,rt_plussign_withcolor,1062433,,,blue,,,,,null,US_Cities_List/carmel.png,US_Cities_List/peoria.png,,,,,,,,,,,,,,,,,,
855.1999999284744,,rt_thecrossant_black,1063818,,,black_plus_sign,,,,,49,,,1,0.9918032786885246,,,,,,,,,,,,,,,,
null,,color_black,1063920,,,black_plus_sign,,,,,null,,,,,,,,,,,,,,,,,,,,
null,,learn_phase(without_color),1066939,,,black_plus_sign,,,,,null,US_Cities_List/cornwall.png,US_Cities_List/racine.png,,,,,,,,,,,,,,,,,,
null,,black_cross(without_color),1067771,,,blue,,,,,null,US_Cities_List/cornwall.png,US_Cities_List/racine.png,,,,,,,,,,,,,,,,,,
488.5,,rt_plussign_withcolor,1068273,,,blue,,,,,49,US_Cities_List/cornwall.png,US_Cities_List/racine.png,,,,,,,,,,,,,,,,,,
null,,rt_thecrossant_black,1069447,,,black_plus_sign,,,,,null,,,1,0.991869918699187,,,,,,,,,,,,,,,,
null,,color_black,1069549,,,black_plus_sign,,,,,null,,,,,,,,,,,,,,,,,,,,
null,,learn_phase(without_color),1072562,,,black_plus_sign,,,,,null,US_Cities_List/racine.png,US_Cities_List/boulder.png,,,,,,,,,,,,,,,,,,
null,,black_cross(without_color),1073169,,,blue,,,,,null,US_Cities_List/racine.png,US_Cities_List/boulder.png,,,,,,,,,,,,,,,,,,
null,,rt_plussign_withcolor,1073671,,,blue,,,,,null,US_Cities_List/racine.png,US_Cities_List/boulder.png,,,,,,,,,,,,,,,,,,
1090.7000000476837,,rt_thecrossant_black,1075069,,,black_plus_sign,,,,,49,,,1,0.9919354838709677,,,,,,,,,,,,,,,,
null,,color_black,1075171,,,black_plus_sign,,,,,null,,,,,,,,,,,,,,,,,,,,
null,,learn_phase(without_color),1078195,,,black_plus_sign,,,,,null,US_Cities_List/leesburg.png,US_Cities_List/newhope.png,,,,,,,,,,,,,,,,,,
null,,black_cross(without_color),1078894,,,blue,,,,,null,US_Cities_List/leesburg.png,US_Cities_List/newhope.png,,,,,,,,,,,,,,,,,,
null,,rt_plussign_withcolor,1079396,,,blue,,,,,null,US_Cities_List/leesburg.png,US_Cities_List/newhope.png,,,,,,,,,,,,,,,,,,
1706.3999999761581,,rt_thecrossant_black,1080704,,,black_plus_sign,,,,,49,,,1,0.992,,,,,,,,,,,,,,,,
null,,color_black,1080808,,,black_plus_sign,,,,,null,,,,,,,,,,,,,,,,,,,,
null,,learn_phase(without_color),1083819,,,black_plus_sign,,,,,null,US_Cities_List/leesburg.png,US_Cities_List/peoria.png,,,,,,,,,,,,,,,,,,
null,,black_cross(without_color),1084691,,,blue,,,,,null,US_Cities_List/leesburg.png,US_Cities_List/peoria.png,,,,,,,,,,,,,,,,,,
null,,rt_plussign_withcolor,1085193,,,blue,,,,,null,US_Cities_List/leesburg.png,US_Cities_List/peoria.png,,,,,,,,,,,,,,,,,,
1851.1999999284744,,rt_thecrossant_black,1086327,,,black_plus_sign,,,,,49,,,1,0.9920634920634921,,,,,,,,,,,,,,,,
null,,color_black,1086444,,,black_plus_sign,,,,,null,,,,,,,,,,,,,,,,,,,,
3619.9000000953674,,learn_break,1090067,,,learn_break,,,,,32,,,,,,,,,,,,,,,,,,,,
4242.399999976158,,intro_1,1094311,,,instruct,,,0,,,,,,,,,,,,,,,,,,,,,,
5508.899999976158,,intro_2,1099821,,,instruct,,,1,Next,,,,,,,,,,,,,,,,,,,,,
2311,,directmemory_phase,1102154,,,../static/images/US_Cities_List/huntsville.png,,,,,51,,,1,1,../static/images/US_Cities_List/cornwall.png,../static/images/US_Cities_List/peoria.png,../static/images/US_Cities_List/gatlinburg.png,../static/images/US_Cities_List/gatlinburg.png,../static/images/US_Cities_List/peoria.png,../static/images/US_Cities_List/cornwall.png,1,,,,,,,,,
null,,html-keyboard-response,1103163,,,<p></p>,,,,,null,,,,,,,,,,,,,,,,,,,,
1748.7999999523163,,directmemory_phase,1104928,,,../static/images/US_Cities_List/racine.png,,,,,51,,,1,1,../static/images/US_Cities_List/newhope.png,../static/images/US_Cities_List/carmel.png,../static/images/US_Cities_List/shreveport.png,../static/images/US_Cities_List/shreveport.png,../static/images/US_Cities_List/carmel.png,../static/images/US_Cities_List/newhope.png,1,,,,,,,,,
null,,html-keyboard-response,1105933,,,<p></p>,,,,,null,,,,,,,,,,,,,,,,,,,,
2137.100000023842,,directmemory_phase,1108092,,,../static/images/US_Cities_List/newhope.png,,,,,51,,,1,1,../static/images/US_Cities_List/cornwall.png,../static/images/US_Cities_List/hotsprings.png,../static/images/US_Cities_List/westpalmbeach.png,../static/images/US_Cities_List/westpalmbeach.png,../static/images/US_Cities_List/hotsprings.png,../static/images/US_Cities_List/cornwall.png,1,,,,,,,,,
null,,html-keyboard-response,1109097,,,<p></p>,,,,,null,,,,,,,,,,,,,,,,,,,,
1984.6999999284744,,directmemory_phase,1111106,,,../static/images/US_Cities_List/boulder.png,,,,,50,,,1,1,../static/images/US_Cities_List/cornwall.png,../static/images/US_Cities_List/racine.png,../static/images/US_Cities_List/leesburg.png,../static/images/US_Cities_List/racine.png,../static/images/US_Cities_List/cornwall.png,../static/images/US_Cities_List/leesburg.png,1,,,,,,,,,
null,,html-keyboard-response,1112115,,,<p></p>,,,,,null,,,,,,,,,,,,,,,,,,,,
1642.5,,directmemory_phase,1113781,,,../static/images/US_Cities_List/cornwall.png,,,,,51,,,1,1,../static/images/US_Cities_List/gatlinburg.png,../static/images/US_Cities_List/shreveport.png,../static/images/US_Cities_List/peoria.png,../static/images/US_Cities_List/peoria.png,../static/images/US_Cities_List/shreveport.png,../static/images/US_Cities_List/gatlinburg.png,1,,,,,,,,,
null,,html-keyboard-response,1114788,,,<p></p>,,,,,null,,,,,,,,,,,,,,,,,,,,
1875.2999999523163,,directmemory_phase,1116682,,,../static/images/US_Cities_List/leesburg.png,,,,,49,,,1,1,../static/images/US_Cities_List/westpalmbeach.png,../static/images/US_Cities_List/racine.png,../static/images/US_Cities_List/hotsprings.png,../static/images/US_Cities_List/westpalmbeach.png,../static/images/US_Cities_List/hotsprings.png,../static/images/US_Cities_List/racine.png,1,,,,,,,,,
null,,html-keyboard-response,1117686,,,<p></p>,,,,,null,,,,,,,,,,,,,,,,,,,,
2162.5999999046326,,directmemory_phase,1119875,,,../static/images/US_Cities_List/peoria.png,,,,,50,,,1,1,../static/images/US_Cities_List/boulder.png,../static/images/US_Cities_List/cornwall.png,../static/images/US_Cities_List/hotsprings.png,../static/images/US_Cities_List/cornwall.png,../static/images/US_Cities_List/boulder.png,../static/images/US_Cities_List/hotsprings.png,1,,,,,,,,,
null,,html-keyboard-response,1120879,,,<p></p>,,,,,null,,,,,,,,,,,,,,,,,,,,
1290.3999999761581,,directmemory_phase,1122206,,,../static/images/US_Cities_List/racine.png,,,,,50,,,1,1,../static/images/US_Cities_List/peoria.png,../static/images/US_Cities_List/boulder.png,../static/images/US_Cities_List/newhope.png,../static/images/US_Cities_List/boulder.png,../static/images/US_Cities_List/peoria.png,../static/images/US_Cities_List/newhope.png,1,,,,,,,,,
null,,html-keyboard-response,1123214,,,<p></p>,,,,,null,,,,,,,,,,,,,,,,,,,,
5195.399999976158,,directmemory_phase,1128428,,,../static/images/US_Cities_List/leesburg.png,,,,,51,,,1,1,../static/images/US_Cities_List/boulder.png,../static/images/US_Cities_List/carmel.png,../static/images/US_Cities_List/peoria.png,../static/images/US_Cities_List/peoria.png,../static/images/US_Cities_List/carmel.png,../static/images/US_Cities_List/boulder.png,1,,,,,,,,,
null,,html-keyboard-response,1129430,,,<p></p>,,,,,null,,,,,,,,,,,,,,,,,,,,
1772.7000000476837,,directmemory_phase,1131217,,,../static/images/US_Cities_List/boulder.png,,,,,49,,,1,1,../static/images/US_Cities_List/hanover.png,../static/images/US_Cities_List/hotsprings.png,../static/images/US_Cities_List/shreveport.png,../static/images/US_Cities_List/hanover.png,../static/images/US_Cities_List/shreveport.png,../static/images/US_Cities_List/hotsprings.png,1,,,,,,,,,
null,,html-keyboard-response,1132223,,,<p></p>,,,,,null,,,,,,,,,,,,,,,,,,,,
2831.2999999523163,,directmemory_phase,1135071,,,../static/images/US_Cities_List/newhope.png,,,,,51,,,1,1,../static/images/US_Cities_List/racine.png,../static/images/US_Cities_List/huntsville.png,../static/images/US_Cities_List/carmel.png,../static/images/US_Cities_List/carmel.png,../static/images/US_Cities_List/huntsville.png,../static/images/US_Cities_List/racine.png,1,,,,,,,,,
null,,html-keyboard-response,1136078,,,<p></p>,,,,,null,,,,,,,,,,,,,,,,,,,,
3839.0999999046326,,directmemory_phase,1139938,,,../static/images/US_Cities_List/racine.png,,,,,50,,,1,1,../static/images/US_Cities_List/hanover.png,../static/images/US_Cities_List/cornwall.png,../static/images/US_Cities_List/leesburg.png,../static/images/US_Cities_List/cornwall.png,../static/images/US_Cities_List/hanover.png,../static/images/US_Cities_List/leesburg.png,1,,,,,,,,,
null,,html-keyboard-response,1140947,,,<p></p>,,,,,null,,,,,,,,,,,,,,,,,,,,
2089.7999999523163,,directmemory_phase,1143059,,,../static/images/US_Cities_List/westpalmbeach.png,,,,,51,,,1,1,../static/images/US_Cities_List/racine.png,../static/images/US_Cities_List/peoria.png,../static/images/US_Cities_List/newhope.png,../static/images/US_Cities_List/newhope.png,../static/images/US_Cities_List/peoria.png,../static/images/US_Cities_List/racine.png,1,,,,,,,,,
null,,html-keyboard-response,1144066,,,<p></p>,,,,,null,,,,,,,,,,,,,,,,,,,,
4144.100000023842,,directmemory_phase,1148232,,,../static/images/US_Cities_List/cornwall.png,,,,,49,,,1,1,../static/images/US_Cities_List/racine.png,../static/images/US_Cities_List/hanover.png,../static/images/US_Cities_List/carmel.png,../static/images/US_Cities_List/racine.png,../static/images/US_Cities_List/carmel.png,../static/images/US_Cities_List/hanover.png,1,,,,,,,,,
null,,html-keyboard-response,1149238,,,<p></p>,,,,,null,,,,,,,,,,,,,,,,,,,,
1759.8000000715256,,directmemory_phase,1151020,,,../static/images/US_Cities_List/leesburg.png,,,,,49,,,1,1,../static/images/US_Cities_List/newhope.png,../static/images/US_Cities_List/hanover.png,../static/images/US_Cities_List/cornwall.png,../static/images/US_Cities_List/newhope.png,../static/images/US_Cities_List/cornwall.png,../static/images/US_Cities_List/hanover.png,1,,,,,,,,,
null,,html-keyboard-response,1152023,,,<p></p>,,,,,null,,,,,,,,,,,,,,,,,,,,
3115.5,,directmemory_phase,1155166,,,../static/images/US_Cities_List/peoria.png,,,,,51,,,1,1,../static/images/US_Cities_List/hotsprings.png,../static/images/US_Cities_List/newhope.png,../static/images/US_Cities_List/carmel.png,../static/images/US_Cities_List/carmel.png,../static/images/US_Cities_List/newhope.png,../static/images/US_Cities_List/hotsprings.png,1,,,,,,,,,
null,,html-keyboard-response,1156170,,,<p></p>,,,,,null,,,,,,,,,,,,,,,,,,,,
1933.7999999523163,,directmemory_phase,1158120,,,../static/images/US_Cities_List/westpalmbeach.png,,,,,50,,,1,1,../static/images/US_Cities_List/carmel.png,../static/images/US_Cities_List/leesburg.png,../static/images/US_Cities_List/boulder.png,../static/images/US_Cities_List/leesburg.png,../static/images/US_Cities_List/carmel.png,../static/images/US_Cities_List/boulder.png,1,,,,,,,,,
null,,html-keyboard-response,1159126,,,<p></p>,,,,,null,,,,,,,,,,,,,,,,,,,,
3315.100000023842,,directmemory_phase,1162457,,,../static/images/US_Cities_List/carmel.png,,,,,51,,,1,1,../static/images/US_Cities_List/huntsville.png,../static/images/US_Cities_List/racine.png,../static/images/US_Cities_List/newhope.png,../static/images/US_Cities_List/newhope.png,../static/images/US_Cities_List/racine.png,../static/images/US_Cities_List/huntsville.png,1,,,,,,,,,
null,,html-keyboard-response,1163478,,,<p></p>,,,,,null,,,,,,,,,,,,,,,,,,,,
2142.6999999284744,,directmemory_phase,1165637,,,../static/images/US_Cities_List/peoria.png,,,,,50,,,1,1,../static/images/US_Cities_List/racine.png,../static/images/US_Cities_List/leesburg.png,../static/images/US_Cities_List/shreveport.png,../static/images/US_Cities_List/leesburg.png,../static/images/US_Cities_List/racine.png,../static/images/US_Cities_List/shreveport.png,1,,,,,,,,,
null,,html-keyboard-response,1166640,,,<p></p>,,,,,null,,,,,,,,,,,,,,,,,,,,
2894.600000023842,,directmemory_phase,1169553,,,../static/images/US_Cities_List/gatlinburg.png,,,,,50,,,1,1,../static/images/US_Cities_List/westpalmbeach.png,../static/images/US_Cities_List/huntsville.png,../static/images/US_Cities_List/hotsprings.png,../static/images/US_Cities_List/huntsville.png,../static/images/US_Cities_List/westpalmbeach.png,../static/images/US_Cities_List/hotsprings.png,1,,,,,,,,,
null,,html-keyboard-response,1170556,,,<p></p>,,,,,null,,,,,,,,,,,,,,,,,,,,
2673.7999999523163,,directmemory_phase,1173250,,,../static/images/US_Cities_List/newhope.png,,,,,51,,,1,1,../static/images/US_Cities_List/gatlinburg.png,../static/images/US_Cities_List/huntsville.png,../static/images/US_Cities_List/leesburg.png,../static/images/US_Cities_List/leesburg.png,../static/images/US_Cities_List/huntsville.png,../static/images/US_Cities_List/gatlinburg.png,1,,,,,,,,,
null,,html-keyboard-response,1174257,,,<p></p>,,,,,null,,,,,,,,,,,,,,,,,,,,
4571.800000071526,,directmemory_phase,1178848,,,../static/images/US_Cities_List/westpalmbeach.png,,,,,51,,,1,1,../static/images/US_Cities_List/racine.png,../static/images/US_Cities_List/peoria.png,../static/images/US_Cities_List/huntsville.png,../static/images/US_Cities_List/huntsville.png,../static/images/US_Cities_List/peoria.png,../static/images/US_Cities_List/racine.png,1,,,,,,,,,
null,,html-keyboard-response,1179852,,,<p></p>,,,,,null,,,,,,,,,,,,,,,,,,,,
null,,directmemory_phase,1186371,,,../static/images/US_Cities_List/carmel.png,,,,,null,,,0,0.9565217391304348,../static/images/US_Cities_List/peoria.png,../static/images/US_Cities_List/huntsville.png,../static/images/US_Cities_List/cornwall.png,../static/images/US_Cities_List/peoria.png,../static/images/US_Cities_List/cornwall.png,../static/images/US_Cities_List/huntsville.png,0,,,,,,,,,
null,,warning_page,1189385,,,warning,,,,,null,,,,,,,,,,,,,,,,,,,,
null,,html-keyboard-response,1190388,,,<p></p>,,,,,null,,,,,,,,,,,,,,,,,,,,
1580.7999999523163,,directmemory_phase,1192005,,,../static/images/US_Cities_List/leesburg.png,,,,,50,,,1,0.9583333333333334,../static/images/US_Cities_List/cornwall.png,../static/images/US_Cities_List/huntsville.png,../static/images/US_Cities_List/hanover.png,../static/images/US_Cities_List/huntsville.png,../static/images/US_Cities_List/cornwall.png,../static/images/US_Cities_List/hanover.png,1,,,,,,,,,
null,,html-keyboard-response,1193018,,,<p></p>,,,,,null,,,,,,,,,,,,,,,,,,,,
1153.6000000238419,,directmemory_phase,1194191,,,../static/images/US_Cities_List/hanover.png,,,,,49,,,1,0.96,../static/images/US_Cities_List/boulder.png,../static/images/US_Cities_List/shreveport.png,../static/images/US_Cities_List/racine.png,../static/images/US_Cities_List/boulder.png,../static/images/US_Cities_List/racine.png,../static/images/US_Cities_List/shreveport.png,1,,,,,,,,,
null,,html-keyboard-response,1195196,,,<p></p>,,,,,null,,,,,,,,,,,,,,,,,,,,
1026.2000000476837,,directmemory_phase,1196242,,,../static/images/US_Cities_List/shreveport.png,,,,,51,,,1,0.9615384615384616,../static/images/US_Cities_List/newhope.png,../static/images/US_Cities_List/boulder.png,../static/images/US_Cities_List/racine.png,../static/images/US_Cities_List/racine.png,../static/images/US_Cities_List/boulder.png,../static/images/US_Cities_List/newhope.png,1,,,,,,,,,
null,,html-keyboard-response,1197245,,,<p></p>,,,,,null,,,,,,,,,,,,,,,,,,,,
2168.0999999046326,,directmemory_phase,1199436,,,../static/images/US_Cities_List/huntsville.png,,,,,49,,,1,0.9629629629629629,../static/images/US_Cities_List/westpalmbeach.png,../static/images/US_Cities_List/cornwall.png,../static/images/US_Cities_List/hotsprings.png,../static/images/US_Cities_List/westpalmbeach.png,../static/images/US_Cities_List/hotsprings.png,../static/images/US_Cities_List/cornwall.png,1,,,,,,,,,
null,,html-keyboard-response,1200443,,,<p></p>,,,,,null,,,,,,,,,,,,,,,,,,,,
2020.7000000476837,,directmemory_phase,1202505,,,../static/images/US_Cities_List/carmel.png,,,,,51,,,0,0.9285714285714286,../static/images/US_Cities_List/racine.png,../static/images/US_Cities_List/boulder.png,../static/images/US_Cities_List/shreveport.png,../static/images/US_Cities_List/boulder.png,../static/images/US_Cities_List/racine.png,../static/images/US_Cities_List/shreveport.png,0.5,closer,,,,,,,,
null,,html-keyboard-response,1203508,,,<p></p>,,,,,null,,,,,,,,,,,,,,,,,,,,
1050,,directmemory_phase,1204570,,,../static/images/US_Cities_List/hotsprings.png,,,,,49,,,1,0.9310344827586207,../static/images/US_Cities_List/westpalmbeach.png,../static/images/US_Cities_List/boulder.png,../static/images/US_Cities_List/huntsville.png,../static/images/US_Cities_List/westpalmbeach.png,../static/images/US_Cities_List/huntsville.png,../static/images/US_Cities_List/boulder.png,1,,,,,,,,,
null,,html-keyboard-response,1205575,,,<p></p>,,,,,null,,,,,,,,,,,,,,,,,,,,
1417.7999999523163,,directmemory_phase,1207014,,,../static/images/US_Cities_List/huntsville.png,,,,,51,,,1,0.9333333333333333,../static/images/US_Cities_List/cornwall.png,../static/images/US_Cities_List/hotsprings.png,../static/images/US_Cities_List/leesburg.png,../static/images/US_Cities_List/leesburg.png,../static/images/US_Cities_List/hotsprings.png,../static/images/US_Cities_List/cornwall.png,1,,,,,,,,,
null,,html-keyboard-response,1208022,,,<p></p>,,,,,null,,,,,,,,,,,,,,,,,,,,
845.8000000715256,,directmemory_phase,1208898,,,../static/images/US_Cities_List/westpalmbeach.png,,,,,51,,,1,0.9354838709677419,../static/images/US_Cities_List/hanover.png,../static/images/US_Cities_List/gatlinburg.png,../static/images/US_Cities_List/hotsprings.png,../static/images/US_Cities_List/hotsprings.png,../static/images/US_Cities_List/gatlinburg.png,../static/images/US_Cities_List/hanover.png,1,,,,,,,,,
null,,html-keyboard-response,1209906,,,<p></p>,,,,,null,,,,,,,,,,,,,,,,,,,,
1634.2000000476837,,directmemory_phase,1211562,,,../static/images/US_Cities_List/boulder.png,,,,,49,,,1,0.9375,../static/images/US_Cities_List/carmel.png,../static/images/US_Cities_List/hotsprings.png,../static/images/US_Cities_List/cornwall.png,../static/images/US_Cities_List/carmel.png,../static/images/US_Cities_List/cornwall.png,../static/images/US_Cities_List/hotsprings.png,1,,,,,,,,,
null,,html-keyboard-response,1212566,,,<p></p>,,,,,null,,,,,,,,,,,,,,,,,,,,
6184.600000023842,,intro_1,1218753,,,instruct,,,0,,,,,,,,,,,,,,,,,,,,,,
6060.800000071526,,intro_2,1224817,,,instruct,,,1,Next,,,,,,,,,,,,,,,,,,,,,
2951.5,,intro_3,1227770,,,instruct,,,1,Next,,,,,,,,,,,,,,,,,,,,,
2951.2999999523163,,intro_4,1230724,,,instruct,,,1,Next,,,,,,,,,,,,,,,,,,,,,
2116.7000000476837,,intro_5,1232843,,,instruct,,,1,Next,,,,,,,,,,,,,,,,,,,,,
1369.3999999761581,,intro_6,1234215,,,instruct,,,1,Next,,,,,,,,,,,,,,,,,,,,,
1240.8000000715256,,intro_7,1235459,,,instruct,,,1,Next,,,,,,,,,,,,,,,,,,,,,
3145.2999999523163,,intro_8,1238606,,,instruct,,,1,Next,,,,,,,,,,,,,,,,,,,,,
917,,intro_9,1239526,,,instruct,,,1,Next,,,,,,,,,,,,,,,,,,,,,
1095.8999999761581,,intro_10,1240624,,,instruct,,,1,Next,,,,,,,,,,,,,,,,,,,,,
5387.5,,intro_11,1246014,,,instruct,,,1,Next,,,,,,,,,,,,,,,,,,,,,
2032.2000000476837,,shortestpath_phase,1248072,,,../static/images/US_Cities_List/shreveport.png,,,,,50,../static/images/US_Cities_List/carmel.png,../static/images/US_Cities_List/newhope.png,0,0,,,,../static/images/US_Cities_List/carmel.png,,,,,One Edge Diff,Three Edge Four Edge,,,,,,
null,,html-keyboard-response,1249081,,,<p></p>,,,,,null,,,,,,,,,,,,,,,,,,,,
1707.7999999523163,,shortestpath_phase,1250804,,,../static/images/US_Cities_List/hanover.png,,,,,49,../static/images/US_Cities_List/gatlinburg.png,../static/images/US_Cities_List/hotsprings.png,0,0,,,,../static/images/US_Cities_List/hotsprings.png,,,,,One Edge Diff,Five Edge Six Edge,,,,,,
null,,html-keyboard-response,1251809,,,<p></p>,,,,,null,,,,,,,,,,,,,,,,,,,,
2417.8000000715256,,shortestpath_phase,1254259,,,../static/images/US_Cities_List/cornwall.png,,,,,49,../static/images/US_Cities_List/hanover.png,../static/images/US_Cities_List/boulder.png,0,0,,,,../static/images/US_Cities_List/boulder.png,,,,,One Edge Diff,Two Edge Three Edge,,,,,,
null,,html-keyboard-response,1255263,,,<p></p>,,,,,null,,,,,,,,,,,,,,,,,,,,
3248.2000000476837,,shortestpath_phase,1258525,,,../static/images/US_Cities_List/gatlinburg.png,,,,,50,../static/images/US_Cities_List/hanover.png,../static/images/US_Cities_List/racine.png,1,0.25,,,,../static/images/US_Cities_List/racine.png,,,,,One Edge Diff,Five Edge Six Edge,,,,,,
null,,html-keyboard-response,1259529,,,<p></p>,,,,,null,,,,,,,,,,,,,,,,,,,,
3551.7999999523163,,shortestpath_phase,1263099,,,../static/images/US_Cities_List/boulder.png,,,,,50,../static/images/US_Cities_List/cornwall.png,../static/images/US_Cities_List/leesburg.png,0,0.2,,,,../static/images/US_Cities_List/cornwall.png,,,,,One Edge Diff,Two Edge Three Edge,,,,,,
null,,html-keyboard-response,1264105,,,<p></p>,,,,,null,,,,,,,,,,,,,,,,,,,,
2713.399999976158,,shortestpath_phase,1266837,,,../static/images/US_Cities_List/gatlinburg.png,,,,,50,../static/images/US_Cities_List/leesburg.png,../static/images/US_Cities_List/racine.png,0,0.16666666666666666,,,,../static/images/US_Cities_List/leesburg.png,,,,,Three Edge Diff,Three Edge Six Edge,,,,,,
null,,html-keyboard-response,1267840,,,<p></p>,,,,,null,,,,,,,,,,,,,,,,,,,,
3621.6999999284744,,shortestpath_phase,1271475,,,../static/images/US_Cities_List/huntsville.png,,,,,49,../static/images/US_Cities_List/hotsprings.png,../static/images/US_Cities_List/hanover.png,1,0.2857142857142857,,,,../static/images/US_Cities_List/hotsprings.png,,,,,Three Edge Diff,Three Edge Six Edge,,,,,,
null,,html-keyboard-response,1272481,,,<p></p>,,,,,null,,,,,,,,,,,,,,,,,,,,
2626.7000000476837,,shortestpath_phase,1275124,,,../static/images/US_Cities_List/gatlinburg.png,,,,,50,../static/images/US_Cities_List/shreveport.png,../static/images/US_Cities_List/carmel.png,1,0.375,,,,../static/images/US_Cities_List/carmel.png,,,,,Two Edge Diff,Four Edge Six Edge,,,,,,
null,,html-keyboard-response,1276126,,,<p></p>,,,,,null,,,,,,,,,,,,,,,,,,,,
3105.399999976158,,shortestpath_phase,1279250,,,../static/images/US_Cities_List/huntsville.png,,,,,50,../static/images/US_Cities_List/newhope.png,../static/images/US_Cities_List/hanover.png,0,0.3333333333333333,,,,../static/images/US_Cities_List/newhope.png,,,,,Three Edge Diff,Two Edge Five Edge,,,,,,
null,,html-keyboard-response,1280256,,,<p></p>,,,,,null,,,,,,,,,,,,,,,,,,,,
2986.2000000476837,,shortestpath_phase,1283257,,,../static/images/US_Cities_List/westpalmbeach.png,,,,,49,../static/images/US_Cities_List/peoria.png,../static/images/US_Cities_List/hanover.png,1,0.4,,,,../static/images/US_Cities_List/peoria.png,,,,,Two Edge Diff,Two Edge Four Edge,,,,,,
null,,html-keyboard-response,1284267,,,<p></p>,,,,,null,,,,,,,,,,,,,,,,,,,,
3479.2999999523163,,shortestpath_phase,1287769,,,../static/images/US_Cities_List/cornwall.png,,,,,50,../static/images/US_Cities_List/hotsprings.png,../static/images/US_Cities_List/newhope.png,1,0.45454545454545453,,,,../static/images/US_Cities_List/newhope.png,,,,,One Edge Diff,Three Edge Four Edge,,,,,,
