rt,responses,trial_type,time_elapsed,image_type,sequence,stimulus,cities,city_images,button_pressed,response,key_press,stimulus_left,stimulus_right,accuracy,cumulative_accuracy,stimulus_down_left,stimulus_down_mid,stimulus_down_right,stimulus_correct,stimulus_short,stimulus_far,weighted_accuracy,missedtrial,condition,specific_pairs,imgL_ID,imgR_ID,linedress,linedressed,detour_trial,linedressed_detor
5075.299999952316,{worker_id:652d3c440e9e1391e8840a53},id_enter,5079,fictional,interleaved,flights,Granton Ridge; Hawthorne Bluffs; Cedarwyn; Hollendale; Delaro Park; Juniper Creek; Baymarsh; Riverlyn; North Arroya; Claywater; Orchard Bend; New Verdan; Sunmere,US_Cities_List/hanover.png; US_Cities_List/shreveport.png; US_Cities_List/huntsville.png; US_Cities_List/carmel.png; US_Cities_List/cornwall.png; US_Cities_List/gatlinburg.png; US_Cities_List/leesburg.png; US_Cities_List/westpalmbeach.png; US_Cities_List/newhope.png; US_Cities_List/boulder.png; US_Cities_List/peoria.png; US_Cities_List/racine.png; US_Cities_List/hotsprings.png,,,,,,,,,,,,,,,,,,,,,,,
10203.5,,fullscreen,15288,,,make_fullscreen,,,0,,,,,,,,,,,,,,,,,,,,,,
6541.799999952316,,intro_1,21831,,,instruct,,,0,,,,,,,,,,,,,,,,,,,,,,
9453.899999856949,,intro_2,31287,,,instruct,,,1,Next,,,,,,,,,,,,,,,,,,,,,
11743.800000190735,,intro_3,43033,,,instruct,,,1,Next,,,,,,,,,,,,,,,,,,,,,
10322.5,,intro_4,53358,,,instruct,,,1,Next,,,,,,,,,,,,,,,,,,,,,
8860.700000047684,,intro_5,62221,,,instruct,,,1,Next,,,,,,,,,,,,,,,,,,,,,
18680,,intro_6,80903,,,instruct,,,1,Next,,,,,,,,,,,,,,,,,,,,,
7889.600000143051,,intro_7,88794,,,instruct,,,1,Next,,,,,,,,,,,,,,,,,,,,,
null,,learn_prac_1,91797,,,lean_prac_1,,,,,null,,,,,,,,,,,,,,,,,,,,
null,,html-keyboard-response,92800,,,<p></p>,,,,,null,,,,,,,,,,,,,,,,,,,,
4880,,intro_1,97682,,,instruct,,,0,,,,,,,,,,,,,,,,,,,,,,
7116.199999809265,,intro_2,104799,,,instruct,,,1,Next,,,,,,,,,,,,,,,,,,,,,
null,,learn_prac_2,107802,,,lean_prac_2,,,,,null,,,,,,,,,,,,,,,,,,,,
null,,html-keyboard-response,108805,,,<p></p>,,,,,null,,,,,,,,,,,,,,,,,,,,
4835.300000190735,,intro_1,113641,,,instruct,,,0,,,,,,,,,,,,,,,,,,,,,,
5433.099999904633,,intro_2,119076,,,instruct,,,1,Next,,,,,,,,,,,,,,,,,,,,,
23292.599999904633,,intro_3,142370,,,instruct,,,1,Next,,,,,,,,,,,,,,,,,,,,,
null,,prac_atten_color_black,143084,,,black_plus_sign,,,,,null,,,,,,,,,,,,,,,,,,,,
null,,prac_atten_color,143776,,,prac_stop_color,,,,,null,,,,,,,,,,,,,,,,,,,,
1419.2000000476837,,prac_atten_color_black,145779,,,black_plus_sign,,,,,50,,,,,,,,,,,,,,,,,,,,
5156.5,,attentioncheck_help,150937,,,instruct,,,,,32,,,,,,,,,,,,,,,,,,,,
null,,prac_atten_color_black,151651,,,black_plus_sign,,,,,null,,,,,,,,,,,,,,,,,,,,
null,,prac_atten_color,152055,,,prac_stop_color,,,,,null,,,,,,,,,,,,,,,,,,,,
580.7000000476837,,prac_atten_color_black,154057,,,black_plus_sign,,,,,50,,,,,,,,,,,,,,,,,,,,
null,,prac_atten_color_black,155058,,,black_plus_sign,,,,,null,,,,,,,,,,,,,,,,,,,,
null,,prac_atten_color,155544,,,prac_stop_color,,,,,null,,,,,,,,,,,,,,,,,,,,
307.7000000476837,,prac_atten_color_black,157546,,,black_plus_sign,,,,,50,,,,,,,,,,,,,,,,,,,,
null,,prac_atten_color_black,158476,,,black_plus_sign,,,,,null,,,,,,,,,,,,,,,,,,,,
593.1999998092651,,prac_atten_color,159379,,,prac_stop_color,,,,,49,,,,,,,,,,,,,,,,,,,,
null,,prac_atten_color_black,161380,,,black_plus_sign,,,,,null,,,,,,,,,,,,,,,,,,,,
null,,prac_atten_color_black,161882,,,black_plus_sign,,,,,null,,,,,,,,,,,,,,,,,,,,
449.59999990463257,,prac_atten_color,162889,,,prac_stop_color,,,,,50,,,,,,,,,,,,,,,,,,,,
null,,prac_atten_color_black,164892,,,black_plus_sign,,,,,null,,,,,,,,,,,,,,,,,,,,
null,,prac_atten_color_black,165289,,,black_plus_sign,,,,,null,,,,,,,,,,,,,,,,,,,,
479.09999990463257,,prac_atten_color,166310,,,prac_stop_color,,,,,50,,,,,,,,,,,,,,,,,,,,
null,,prac_atten_color_black,168311,,,black_plus_sign,,,,,null,,,,,,,,,,,,,,,,,,,,
null,,prac_atten_color_black,168695,,,black_plus_sign,,,,,null,,,,,,,,,,,,,,,,,,,,
null,,prac_atten_color,169223,,,prac_stop_color,,,,,null,,,,,,,,,,,,,,,,,,,,
39.700000047683716,,prac_atten_color_black,171224,,,black_plus_sign,,,,,49,,,,,,,,,,,,,,,,,,,,
null,,prac_atten_color_black,172102,,,black_plus_sign,,,,,null,,,,,,,,,,,,,,,,,,,,
557.0999999046326,,prac_atten_color,172759,,,prac_stop_color,,,,,50,,,,,,,,,,,,,,,,,,,,
null,,prac_atten_color_black,174760,,,black_plus_sign,,,,,null,,,,,,,,,,,,,,,,,,,,
null,,prac_atten_color_black,175509,,,black_plus_sign,,,,,null,,,,,,,,,,,,,,,,,,,,
null,,prac_atten_color,175994,,,prac_stop_color,,,,,null,,,,,,,,,,,,,,,,,,,,
23.5,,prac_atten_color_black,177997,,,black_plus_sign,,,,,49,,,,,,,,,,,,,,,,,,,,
null,,prac_atten_color_black,178918,,,black_plus_sign,,,,,null,,,,,,,,,,,,,,,,,,,,
null,,prac_atten_color,179772,,,prac_stop_color,,,,,null,,,,,,,,,,,,,,,,,,,,
257.60000014305115,,prac_atten_color_black,181774,,,black_plus_sign,,,,,49,,,,,,,,,,,,,,,,,,,,
5675.199999809265,,attentioncheck_feedback,187452,,,cross_check_feedback,,,0,,,,,,,,,,,,,,,,,,,,,,
10825.299999952316,,last_instruct,198278,,,instruct,,,,,32,,,,,,,,,,,,,,,,,,,,
null,,learn_phase(without_color),201284,,,black_plus_sign,,,,,null,US_Cities_List/peoria.png,US_Cities_List/huntsville.png,,,,,,,,,,,,,,,,,,
null,,black_cross(without_color),201975,,,blue,,,,,null,US_Cities_List/peoria.png,US_Cities_List/huntsville.png,,,,,,,,,,,,,,,,,,
393.2999999523163,,rt_plussign_withcolor,202476,,,blue,,,,,49,US_Cities_List/peoria.png,US_Cities_List/huntsville.png,,,,,,,,,,,,,,,,,,
null,,rt_thecrossant_black,203790,,,black_plus_sign,,,,,null,,,1,1,,,,,,,,,,,,,,,,
null,,color_black,203894,,,black_plus_sign,,,,,null,,,,,,,,,,,,,,,,,,,,
null,,learn_phase(without_color),206904,,,black_plus_sign,,,,,null,US_Cities_List/carmel.png,US_Cities_List/shreveport.png,,,,,,,,,,,,,,,,,,
null,,black_cross(without_color),207910,,,yellow,,,,,null,US_Cities_List/carmel.png,US_Cities_List/shreveport.png,,,,,,,,,,,,,,,,,,
null,,rt_plussign_withcolor,208411,,,yellow,,,,,null,US_Cities_List/carmel.png,US_Cities_List/shreveport.png,,,,,,,,,,,,,,,,,,
1708.5,,rt_thecrossant_black,209409,,,black_plus_sign,,,,,50,,,1,1,,,,,,,,,,,,,,,,
null,,color_black,209511,,,black_plus_sign,,,,,null,,,,,,,,,,,,,,,,,,,,
null,,learn_phase(without_color),212523,,,black_plus_sign,,,,,null,US_Cities_List/carmel.png,US_Cities_List/racine.png,,,,,,,,,,,,,,,,,,
null,,black_cross(without_color),213483,,,yellow,,,,,null,US_Cities_List/carmel.png,US_Cities_List/racine.png,,,,,,,,,,,,,,,,,,
null,,rt_plussign_withcolor,213985,,,yellow,,,,,null,US_Cities_List/carmel.png,US_Cities_List/racine.png,,,,,,,,,,,,,,,,,,
2028.1000001430511,,rt_thecrossant_black,215031,,,black_plus_sign,,,,,50,,,1,1,,,,,,,,,,,,,,,,
null,,color_black,215133,,,black_plus_sign,,,,,null,,,,,,,,,,,,,,,,,,,,
null,,learn_phase(without_color),218143,,,black_plus_sign,,,,,null,US_Cities_List/gatlinburg.png,US_Cities_List/leesburg.png,,,,,,,,,,,,,,,,,,
null,,black_cross(without_color),219231,,,blue,,,,,null,US_Cities_List/gatlinburg.png,US_Cities_List/leesburg.png,,,,,,,,,,,,,,,,,,
null,,rt_plussign_withcolor,219733,,,blue,,,,,null,US_Cities_List/gatlinburg.png,US_Cities_List/leesburg.png,,,,,,,,,,,,,,,,,,
1713.2999999523163,,rt_thecrossant_black,220648,,,black_plus_sign,,,,,49,,,1,1,,,,,,,,,,,,,,,,
null,,color_black,220750,,,black_plus_sign,,,,,null,,,,,,,,,,,,,,,,,,,,
null,,learn_phase(without_color),223760,,,black_plus_sign,,,,,null,US_Cities_List/huntsville.png,US_Cities_List/shreveport.png,,,,,,,,,,,,,,,,,,
null,,black_cross(without_color),224384,,,blue,,,,,null,US_Cities_List/huntsville.png,US_Cities_List/shreveport.png,,,,,,,,,,,,,,,,,,
null,,rt_plussign_withcolor,224886,,,blue,,,,,null,US_Cities_List/huntsville.png,US_Cities_List/shreveport.png,,,,,,,,,,,,,,,,,,
1695.6000001430511,,rt_thecrossant_black,226273,,,black_plus_sign,,,,,49,,,1,1,,,,,,,,,,,,,,,,
null,,color_black,226375,,,black_plus_sign,,,,,null,,,,,,,,,,,,,,,,,,,,
null,,learn_phase(without_color),229389,,,black_plus_sign,,,,,null,US_Cities_List/racine.png,US_Cities_List/peoria.png,,,,,,,,,,,,,,,,,,
null,,black_cross(without_color),229922,,,yellow,,,,,null,US_Cities_List/racine.png,US_Cities_List/peoria.png,,,,,,,,,,,,,,,,,,
null,,rt_plussign_withcolor,230424,,,yellow,,,,,null,US_Cities_List/racine.png,US_Cities_List/peoria.png,,,,,,,,,,,,,,,,,,
1393.5999999046326,,rt_thecrossant_black,231896,,,black_plus_sign,,,,,50,,,1,1,,,,,,,,,,,,,,,,
null,,color_black,231998,,,black_plus_sign,,,,,null,,,,,,,,,,,,,,,,,,,,
null,,learn_phase(without_color),235012,,,black_plus_sign,,,,,null,US_Cities_List/leesburg.png,US_Cities_List/gatlinburg.png,,,,,,,,,,,,,,,,,,
null,,black_cross(without_color),235726,,,blue,,,,,null,US_Cities_List/leesburg.png,US_Cities_List/gatlinburg.png,,,,,,,,,,,,,,,,,,
null,,rt_plussign_withcolor,236229,,,blue,,,,,null,US_Cities_List/leesburg.png,US_Cities_List/gatlinburg.png,,,,,,,,,,,,,,,,,,
1013.3999998569489,,rt_thecrossant_black,237521,,,black_plus_sign,,,,,49,,,1,1,,,,,,,,,,,,,,,,
null,,color_black,237623,,,black_plus_sign,,,,,null,,,,,,,,,,,,,,,,,,,,
null,,learn_phase(without_color),240637,,,black_plus_sign,,,,,null,US_Cities_List/newhope.png,US_Cities_List/leesburg.png,,,,,,,,,,,,,,,,,,
null,,black_cross(without_color),241608,,,yellow,,,,,null,US_Cities_List/newhope.png,US_Cities_List/leesburg.png,,,,,,,,,,,,,,,,,,
null,,rt_plussign_withcolor,242110,,,yellow,,,,,null,US_Cities_List/newhope.png,US_Cities_List/leesburg.png,,,,,,,,,,,,,,,,,,
1274.5,,rt_thecrossant_black,243145,,,black_plus_sign,,,,,50,,,1,1,,,,,,,,,,,,,,,,
null,,color_black,243248,,,black_plus_sign,,,,,null,,,,,,,,,,,,,,,,,,,,
null,,learn_phase(without_color),246259,,,black_plus_sign,,,,,null,US_Cities_List/huntsville.png,US_Cities_List/peoria.png,,,,,,,,,,,,,,,,,,
null,,black_cross(without_color),246837,,,blue,,,,,null,US_Cities_List/huntsville.png,US_Cities_List/peoria.png,,,,,,,,,,,,,,,,,,
null,,rt_plussign_withcolor,247340,,,blue,,,,,null,US_Cities_List/huntsville.png,US_Cities_List/peoria.png,,,,,,,,,,,,,,,,,,
1864.7999999523163,,rt_thecrossant_black,248767,,,black_plus_sign,,,,,49,,,1,1,,,,,,,,,,,,,,,,
null,,color_black,248869,,,black_plus_sign,,,,,null,,,,,,,,,,,,,,,,,,,,
null,,learn_phase(without_color),251882,,,black_plus_sign,,,,,null,US_Cities_List/hotsprings.png,US_Cities_List/leesburg.png,,,,,,,,,,,,,,,,,,
null,,black_cross(without_color),252650,,,blue,,,,,null,US_Cities_List/hotsprings.png,US_Cities_List/leesburg.png,,,,,,,,,,,,,,,,,,
null,,rt_plussign_withcolor,253153,,,blue,,,,,null,US_Cities_List/hotsprings.png,US_Cities_List/leesburg.png,,,,,,,,,,,,,,,,,,
1504.6000001430511,,rt_thecrossant_black,254389,,,black_plus_sign,,,,,49,,,1,1,,,,,,,,,,,,,,,,
null,,color_black,254491,,,black_plus_sign,,,,,null,,,,,,,,,,,,,,,,,,,,
null,,learn_phase(without_color),257503,,,black_plus_sign,,,,,null,US_Cities_List/newhope.png,US_Cities_List/westpalmbeach.png,,,,,,,,,,,,,,,,,,
null,,black_cross(without_color),258491,,,yellow,,,,,null,US_Cities_List/newhope.png,US_Cities_List/westpalmbeach.png,,,,,,,,,,,,,,,,,,
null,,rt_plussign_withcolor,258993,,,yellow,,,,,null,US_Cities_List/newhope.png,US_Cities_List/westpalmbeach.png,,,,,,,,,,,,,,,,,,
1299.3999998569489,,rt_thecrossant_black,260010,,,black_plus_sign,,,,,50,,,1,1,,,,,,,,,,,,,,,,
null,,color_black,260112,,,black_plus_sign,,,,,null,,,,,,,,,,,,,,,,,,,,
null,,learn_phase(without_color),263127,,,black_plus_sign,,,,,null,US_Cities_List/newhope.png,US_Cities_List/gatlinburg.png,,,,,,,,,,,,,,,,,,
null,,black_cross(without_color),263570,,,blue,,,,,null,US_Cities_List/newhope.png,US_Cities_List/gatlinburg.png,,,,,,,,,,,,,,,,,,
null,,rt_plussign_withcolor,264072,,,blue,,,,,null,US_Cities_List/newhope.png,US_Cities_List/gatlinburg.png,,,,,,,,,,,,,,,,,,
1504.9000000953674,,rt_thecrossant_black,265634,,,black_plus_sign,,,,,49,,,1,1,,,,,,,,,,,,,,,,
null,,color_black,265737,,,black_plus_sign,,,,,null,,,,,,,,,,,,,,,,,,,,
null,,learn_phase(without_color),268751,,,black_plus_sign,,,,,null,US_Cities_List/gatlinburg.png,US_Cities_List/newhope.png,,,,,,,,,,,,,,,,,,
null,,black_cross(without_color),269551,,,yellow,,,,,null,US_Cities_List/gatlinburg.png,US_Cities_List/newhope.png,,,,,,,,,,,,,,,,,,
null,,rt_plussign_withcolor,270054,,,yellow,,,,,null,US_Cities_List/gatlinburg.png,US_Cities_List/newhope.png,,,,,,,,,,,,,,,,,,
1136.0999999046326,,rt_thecrossant_black,271259,,,black_plus_sign,,,,,50,,,1,1,,,,,,,,,,,,,,,,
null,,color_black,271361,,,black_plus_sign,,,,,null,,,,,,,,,,,,,,,,,,,,
null,,learn_phase(without_color),274370,,,black_plus_sign,,,,,null,US_Cities_List/huntsville.png,US_Cities_List/peoria.png,,,,,,,,,,,,,,,,,,
null,,black_cross(without_color),275042,,,blue,,,,,null,US_Cities_List/huntsville.png,US_Cities_List/peoria.png,,,,,,,,,,,,,,,,,,
null,,rt_plussign_withcolor,275545,,,blue,,,,,null,US_Cities_List/huntsville.png,US_Cities_List/peoria.png,,,,,,,,,,,,,,,,,,
1574.7000000476837,,rt_thecrossant_black,276877,,,black_plus_sign,,,,,49,,,1,1,,,,,,,,,,,,,,,,
null,,color_black,276979,,,black_plus_sign,,,,,null,,,,,,,,,,,,,,,,,,,,
null,,learn_phase(without_color),279990,,,black_plus_sign,,,,,null,US_Cities_List/leesburg.png,US_Cities_List/hotsprings.png,,,,,,,,,,,,,,,,,,
null,,black_cross(without_color),281088,,,yellow,,,,,null,US_Cities_List/leesburg.png,US_Cities_List/hotsprings.png,,,,,,,,,,,,,,,,,,
null,,rt_plussign_withcolor,281590,,,yellow,,,,,null,US_Cities_List/leesburg.png,US_Cities_List/hotsprings.png,,,,,,,,,,,,,,,,,,
1090.2999999523163,,rt_thecrossant_black,282497,,,black_plus_sign,,,,,50,,,1,1,,,,,,,,,,,,,,,,
null,,color_black,282600,,,black_plus_sign,,,,,null,,,,,,,,,,,,,,,,,,,,
null,,learn_phase(without_color),285612,,,black_plus_sign,,,,,null,US_Cities_List/boulder.png,US_Cities_List/westpalmbeach.png,,,,,,,,,,,,,,,,,,
null,,black_cross(without_color),286630,,,yellow,,,,,null,US_Cities_List/boulder.png,US_Cities_List/westpalmbeach.png,,,,,,,,,,,,,,,,,,
null,,rt_plussign_withcolor,287132,,,yellow,,,,,null,US_Cities_List/boulder.png,US_Cities_List/westpalmbeach.png,,,,,,,,,,,,,,,,,,
1479.7000000476837,,rt_thecrossant_black,288118,,,black_plus_sign,,,,,50,,,1,1,,,,,,,,,,,,,,,,
null,,color_black,288221,,,black_plus_sign,,,,,null,,,,,,,,,,,,,,,,,,,,
null,,learn_phase(without_color),291233,,,black_plus_sign,,,,,null,US_Cities_List/shreveport.png,US_Cities_List/huntsville.png,,,,,,,,,,,,,,,,,,
null,,black_cross(without_color),291814,,,blue,,,,,null,US_Cities_List/shreveport.png,US_Cities_List/huntsville.png,,,,,,,,,,,,,,,,,,
null,,rt_plussign_withcolor,292316,,,blue,,,,,null,US_Cities_List/shreveport.png,US_Cities_List/huntsville.png,,,,,,,,,,,,,,,,,,
1526.5,,rt_thecrossant_black,293740,,,black_plus_sign,,,,,49,,,1,1,,,,,,,,,,,,,,,,
null,,color_black,293844,,,black_plus_sign,,,,,null,,,,,,,,,,,,,,,,,,,,
null,,learn_phase(without_color),296855,,,black_plus_sign,,,,,null,US_Cities_List/westpalmbeach.png,US_Cities_List/leesburg.png,,,,,,,,,,,,,,,,,,
null,,black_cross(without_color),297490,,,yellow,,,,,null,US_Cities_List/westpalmbeach.png,US_Cities_List/leesburg.png,,,,,,,,,,,,,,,,,,
null,,rt_plussign_withcolor,297991,,,yellow,,,,,null,US_Cities_List/westpalmbeach.png,US_Cities_List/leesburg.png,,,,,,,,,,,,,,,,,,
1028.7000000476837,,rt_thecrossant_black,299362,,,black_plus_sign,,,,,50,,,1,1,,,,,,,,,,,,,,,,
null,,color_black,299464,,,black_plus_sign,,,,,null,,,,,,,,,,,,,,,,,,,,
null,,learn_phase(without_color),302475,,,black_plus_sign,,,,,null,US_Cities_List/hotsprings.png,US_Cities_List/leesburg.png,,,,,,,,,,,,,,,,,,
null,,black_cross(without_color),303255,,,yellow,,,,,null,US_Cities_List/hotsprings.png,US_Cities_List/leesburg.png,,,,,,,,,,,,,,,,,,
null,,rt_plussign_withcolor,303758,,,yellow,,,,,null,US_Cities_List/hotsprings.png,US_Cities_List/leesburg.png,,,,,,,,,,,,,,,,,,
1595.3999998569489,,rt_thecrossant_black,304982,,,black_plus_sign,,,,,50,,,1,1,,,,,,,,,,,,,,,,
null,,color_black,305084,,,black_plus_sign,,,,,null,,,,,,,,,,,,,,,,,,,,
null,,learn_phase(without_color),308095,,,black_plus_sign,,,,,null,US_Cities_List/leesburg.png,US_Cities_List/newhope.png,,,,,,,,,,,,,,,,,,
null,,black_cross(without_color),308970,,,blue,,,,,null,US_Cities_List/leesburg.png,US_Cities_List/newhope.png,,,,,,,,,,,,,,,,,,
null,,rt_plussign_withcolor,309473,,,blue,,,,,null,US_Cities_List/leesburg.png,US_Cities_List/newhope.png,,,,,,,,,,,,,,,,,,
1198.3000001907349,,rt_thecrossant_black,310603,,,black_plus_sign,,,,,49,,,1,1,,,,,,,,,,,,,,,,
null,,color_black,310705,,,black_plus_sign,,,,,null,,,,,,,,,,,,,,,,,,,,
null,,learn_phase(without_color),313714,,,black_plus_sign,,,,,null,US_Cities_List/huntsville.png,US_Cities_List/shreveport.png,,,,,,,,,,,,,,,,,,
null,,black_cross(without_color),314344,,,blue,,,,,null,US_Cities_List/huntsville.png,US_Cities_List/shreveport.png,,,,,,,,,,,,,,,,,,
null,,rt_plussign_withcolor,314846,,,blue,,,,,null,US_Cities_List/huntsville.png,US_Cities_List/shreveport.png,,,,,,,,,,,,,,,,,,
1469.9000000953674,,rt_thecrossant_black,316221,,,black_plus_sign,,,,,49,,,1,1,,,,,,,,,,,,,,,,
null,,color_black,316323,,,black_plus_sign,,,,,null,,,,,,,,,,,,,,,,,,,,
null,,learn_phase(without_color),319334,,,black_plus_sign,,,,,null,US_Cities_List/huntsville.png,US_Cities_List/gatlinburg.png,,,,,,,,,,,,,,,,,,
null,,black_cross(without_color),319813,,,yellow,,,,,null,US_Cities_List/huntsville.png,US_Cities_List/gatlinburg.png,,,,,,,,,,,,,,,,,,
null,,rt_plussign_withcolor,320315,,,yellow,,,,,null,US_Cities_List/huntsville.png,US_Cities_List/gatlinburg.png,,,,,,,,,,,,,,,,,,
1214.4000000953674,,rt_thecrossant_black,321842,,,black_plus_sign,,,,,50,,,1,1,,,,,,,,,,,,,,,,
null,,color_black,321945,,,black_plus_sign,,,,,null,,,,,,,,,,,,,,,,,,,,
null,,learn_phase(without_color),324956,,,black_plus_sign,,,,,null,US_Cities_List/shreveport.png,US_Cities_List/hanover.png,,,,,,,,,,,,,,,,,,
null,,black_cross(without_color),325959,,,blue,,,,,null,US_Cities_List/shreveport.png,US_Cities_List/hanover.png,,,,,,,,,,,,,,,,,,
null,,rt_plussign_withcolor,326461,,,blue,,,,,null,US_Cities_List/shreveport.png,US_Cities_List/hanover.png,,,,,,,,,,,,,,,,,,
980.5999999046326,,rt_thecrossant_black,327464,,,black_plus_sign,,,,,49,,,1,1,,,,,,,,,,,,,,,,
null,,color_black,327566,,,black_plus_sign,,,,,null,,,,,,,,,,,,,,,,,,,,
null,,learn_phase(without_color),330579,,,black_plus_sign,,,,,null,US_Cities_List/gatlinburg.png,US_Cities_List/leesburg.png,,,,,,,,,,,,,,,,,,
null,,black_cross(without_color),330985,,,blue,,,,,null,US_Cities_List/gatlinburg.png,US_Cities_List/leesburg.png,,,,,,,,,,,,,,,,,,
null,,rt_plussign_withcolor,331488,,,blue,,,,,null,US_Cities_List/gatlinburg.png,US_Cities_List/leesburg.png,,,,,,,,,,,,,,,,,,
1533.0999999046326,,rt_thecrossant_black,333086,,,black_plus_sign,,,,,49,,,1,1,,,,,,,,,,,,,,,,
null,,color_black,333189,,,black_plus_sign,,,,,null,,,,,,,,,,,,,,,,,,,,
null,,learn_phase(without_color),336201,,,black_plus_sign,,,,,null,US_Cities_List/shreveport.png,US_Cities_List/hanover.png,,,,,,,,,,,,,,,,,,
null,,black_cross(without_color),337081,,,blue,,,,,null,US_Cities_List/shreveport.png,US_Cities_List/hanover.png,,,,,,,,,,,,,,,,,,
null,,rt_plussign_withcolor,337584,,,blue,,,,,null,US_Cities_List/shreveport.png,US_Cities_List/hanover.png,,,,,,,,,,,,,,,,,,
793.7000000476837,,rt_thecrossant_black,338710,,,black_plus_sign,,,,,49,,,1,1,,,,,,,,,,,,,,,,
null,,color_black,338812,,,black_plus_sign,,,,,null,,,,,,,,,,,,,,,,,,,,
null,,learn_phase(without_color),341824,,,black_plus_sign,,,,,null,US_Cities_List/carmel.png,US_Cities_List/shreveport.png,,,,,,,,,,,,,,,,,,
null,,black_cross(without_color),342625,,,yellow,,,,,null,US_Cities_List/carmel.png,US_Cities_List/shreveport.png,,,,,,,,,,,,,,,,,,
null,,rt_plussign_withcolor,343127,,,yellow,,,,,null,US_Cities_List/carmel.png,US_Cities_List/shreveport.png,,,,,,,,,,,,,,,,,,
1351.2000000476837,,rt_thecrossant_black,344330,,,black_plus_sign,,,,,50,,,1,1,,,,,,,,,,,,,,,,
null,,color_black,344432,,,black_plus_sign,,,,,null,,,,,,,,,,,,,,,,,,,,
null,,learn_phase(without_color),347444,,,black_plus_sign,,,,,null,US_Cities_List/peoria.png,US_Cities_List/newhope.png,,,,,,,,,,,,,,,,,,
null,,black_cross(without_color),348462,,,yellow,,,,,null,US_Cities_List/peoria.png,US_Cities_List/newhope.png,,,,,,,,,,,,,,,,,,
null,,rt_plussign_withcolor,348964,,,yellow,,,,,null,US_Cities_List/peoria.png,US_Cities_List/newhope.png,,,,,,,,,,,,,,,,,,
1430.7999999523163,,rt_thecrossant_black,349950,,,black_plus_sign,,,,,50,,,1,1,,,,,,,,,,,,,,,,
null,,color_black,350052,,,black_plus_sign,,,,,null,,,,,,,,,,,,,,,,,,,,
null,,learn_phase(without_color),353065,,,black_plus_sign,,,,,null,US_Cities_List/peoria.png,US_Cities_List/newhope.png,,,,,,,,,,,,,,,,,,
null,,black_cross(without_color),354002,,,blue,,,,,null,US_Cities_List/peoria.png,US_Cities_List/newhope.png,,,,,,,,,,,,,,,,,,
null,,rt_plussign_withcolor,354504,,,blue,,,,,null,US_Cities_List/peoria.png,US_Cities_List/newhope.png,,,,,,,,,,,,,,,,,,
1199.7999999523163,,rt_thecrossant_black,355571,,,black_plus_sign,,,,,49,,,1,1,,,,,,,,,,,,,,,,
null,,color_black,355674,,,black_plus_sign,,,,,null,,,,,,,,,,,,,,,,,,,,
null,,learn_phase(without_color),358685,,,black_plus_sign,,,,,null,US_Cities_List/peoria.png,US_Cities_List/huntsville.png,,,,,,,,,,,,,,,,,,
null,,black_cross(without_color),359563,,,blue,,,,,null,US_Cities_List/peoria.png,US_Cities_List/huntsville.png,,,,,,,,,,,,,,,,,,
null,,rt_plussign_withcolor,360065,,,blue,,,,,null,US_Cities_List/peoria.png,US_Cities_List/huntsville.png,,,,,,,,,,,,,,,,,,
1642.0999999046326,,rt_thecrossant_black,361193,,,black_plus_sign,,,,,49,,,1,1,,,,,,,,,,,,,,,,
null,,color_black,361296,,,black_plus_sign,,,,,null,,,,,,,,,,,,,,,,,,,,
null,,learn_phase(without_color),364307,,,black_plus_sign,,,,,null,US_Cities_List/hotsprings.png,US_Cities_List/leesburg.png,,,,,,,,,,,,,,,,,,
null,,black_cross(without_color),365122,,,yellow,,,,,null,US_Cities_List/hotsprings.png,US_Cities_List/leesburg.png,,,,,,,,,,,,,,,,,,
null,,rt_plussign_withcolor,365624,,,yellow,,,,,null,US_Cities_List/hotsprings.png,US_Cities_List/leesburg.png,,,,,,,,,,,,,,,,,,
1775.0999999046326,,rt_thecrossant_black,366815,,,black_plus_sign,,,,,50,,,1,1,,,,,,,,,,,,,,,,
null,,color_black,366917,,,black_plus_sign,,,,,null,,,,,,,,,,,,,,,,,,,,
null,,learn_phase(without_color),369929,,,black_plus_sign,,,,,null,US_Cities_List/boulder.png,US_Cities_List/westpalmbeach.png,,,,,,,,,,,,,,,,,,
null,,black_cross(without_color),370607,,,blue,,,,,null,US_Cities_List/boulder.png,US_Cities_List/westpalmbeach.png,,,,,,,,,,,,,,,,,,
null,,rt_plussign_withcolor,371110,,,blue,,,,,null,US_Cities_List/boulder.png,US_Cities_List/westpalmbeach.png,,,,,,,,,,,,,,,,,,
1217.0999999046326,,rt_thecrossant_black,372436,,,black_plus_sign,,,,,49,,,1,1,,,,,,,,,,,,,,,,
null,,color_black,372539,,,black_plus_sign,,,,,null,,,,,,,,,,,,,,,,,,,,
null,,learn_phase(without_color),375551,,,black_plus_sign,,,,,null,US_Cities_List/carmel.png,US_Cities_List/racine.png,,,,,,,,,,,,,,,,,,
null,,black_cross(without_color),376532,,,yellow,,,,,null,US_Cities_List/carmel.png,US_Cities_List/racine.png,,,,,,,,,,,,,,,,,,
null,,rt_plussign_withcolor,377034,,,yellow,,,,,null,US_Cities_List/carmel.png,US_Cities_List/racine.png,,,,,,,,,,,,,,,,,,
1306.6000001430511,,rt_thecrossant_black,378058,,,black_plus_sign,,,,,50,,,1,1,,,,,,,,,,,,,,,,
null,,color_black,378160,,,black_plus_sign,,,,,null,,,,,,,,,,,,,,,,,,,,
null,,learn_phase(without_color),381174,,,black_plus_sign,,,,,null,US_Cities_List/leesburg.png,US_Cities_List/hotsprings.png,,,,,,,,,,,,,,,,,,
null,,black_cross(without_color),382092,,,blue,,,,,null,US_Cities_List/leesburg.png,US_Cities_List/hotsprings.png,,,,,,,,,,,,,,,,,,
null,,rt_plussign_withcolor,382594,,,blue,,,,,null,US_Cities_List/leesburg.png,US_Cities_List/hotsprings.png,,,,,,,,,,,,,,,,,,
1457.5,,rt_thecrossant_black,383681,,,black_plus_sign,,,,,49,,,1,1,,,,,,,,,,,,,,,,
null,,color_black,383785,,,black_plus_sign,,,,,null,,,,,,,,,,,,,,,,,,,,
null,,learn_phase(without_color),386796,,,black_plus_sign,,,,,null,US_Cities_List/racine.png,US_Cities_List/peoria.png,,,,,,,,,,,,,,,,,,
null,,black_cross(without_color),387860,,,yellow,,,,,null,US_Cities_List/racine.png,US_Cities_List/peoria.png,,,,,,,,,,,,,,,,,,
null,,rt_plussign_withcolor,388362,,,yellow,,,,,null,US_Cities_List/racine.png,US_Cities_List/peoria.png,,,,,,,,,,,,,,,,,,
1397.4000000953674,,rt_thecrossant_black,389303,,,black_plus_sign,,,,,50,,,1,1,,,,,,,,,,,,,,,,
null,,color_black,389405,,,black_plus_sign,,,,,null,,,,,,,,,,,,,,,,,,,,
null,,learn_phase(without_color),392419,,,black_plus_sign,,,,,null,US_Cities_List/carmel.png,US_Cities_List/cornwall.png,,,,,,,,,,,,,,,,,,
null,,black_cross(without_color),393246,,,blue,,,,,null,US_Cities_List/carmel.png,US_Cities_List/cornwall.png,,,,,,,,,,,,,,,,,,
null,,rt_plussign_withcolor,393749,,,blue,,,,,null,US_Cities_List/carmel.png,US_Cities_List/cornwall.png,,,,,,,,,,,,,,,,,,
1690,,rt_thecrossant_black,394925,,,black_plus_sign,,,,,49,,,1,1,,,,,,,,,,,,,,,,
null,,color_black,395034,,,black_plus_sign,,,,,null,,,,,,,,,,,,,,,,,,,,
null,,learn_phase(without_color),398046,,,black_plus_sign,,,,,null,US_Cities_List/carmel.png,US_Cities_List/shreveport.png,,,,,,,,,,,,,,,,,,
null,,black_cross(without_color),399110,,,blue,,,,,null,US_Cities_List/carmel.png,US_Cities_List/shreveport.png,,,,,,,,,,,,,,,,,,
null,,rt_plussign_withcolor,399612,,,blue,,,,,null,US_Cities_List/carmel.png,US_Cities_List/shreveport.png,,,,,,,,,,,,,,,,,,
1384.9000000953674,,rt_thecrossant_black,400553,,,black_plus_sign,,,,,49,,,1,1,,,,,,,,,,,,,,,,
null,,color_black,400654,,,black_plus_sign,,,,,null,,,,,,,,,,,,,,,,,,,,
null,,learn_phase(without_color),403667,,,black_plus_sign,,,,,null,US_Cities_List/peoria.png,US_Cities_List/racine.png,,,,,,,,,,,,,,,,,,
null,,black_cross(without_color),404707,,,blue,,,,,null,US_Cities_List/peoria.png,US_Cities_List/racine.png,,,,,,,,,,,,,,,,,,
null,,rt_plussign_withcolor,405209,,,blue,,,,,null,US_Cities_List/peoria.png,US_Cities_List/racine.png,,,,,,,,,,,,,,,,,,
1783.2999999523163,,rt_thecrossant_black,406174,,,black_plus_sign,,,,,49,,,1,1,,,,,,,,,,,,,,,,
null,,color_black,406276,,,black_plus_sign,,,,,null,,,,,,,,,,,,,,,,,,,,
null,,learn_phase(without_color),409290,,,black_plus_sign,,,,,null,US_Cities_List/peoria.png,US_Cities_List/racine.png,,,,,,,,,,,,,,,,,,
null,,black_cross(without_color),409933,,,yellow,,,,,null,US_Cities_List/peoria.png,US_Cities_List/racine.png,,,,,,,,,,,,,,,,,,
null,,rt_plussign_withcolor,410435,,,yellow,,,,,null,US_Cities_List/peoria.png,US_Cities_List/racine.png,,,,,,,,,,,,,,,,,,
1496.2999999523163,,rt_thecrossant_black,411798,,,black_plus_sign,,,,,50,,,1,1,,,,,,,,,,,,,,,,
null,,color_black,411902,,,black_plus_sign,,,,,null,,,,,,,,,,,,,,,,,,,,
null,,learn_phase(without_color),414907,,,black_plus_sign,,,,,null,US_Cities_List/gatlinburg.png,US_Cities_List/huntsville.png,,,,,,,,,,,,,,,,,,
null,,black_cross(without_color),415743,,,blue,,,,,null,US_Cities_List/gatlinburg.png,US_Cities_List/huntsville.png,,,,,,,,,,,,,,,,,,
null,,rt_plussign_withcolor,416245,,,blue,,,,,null,US_Cities_List/gatlinburg.png,US_Cities_List/huntsville.png,,,,,,,,,,,,,,,,,,
899.2999999523163,,rt_thecrossant_black,417415,,,black_plus_sign,,,,,49,,,1,1,,,,,,,,,,,,,,,,
null,,color_black,417528,,,black_plus_sign,,,,,null,,,,,,,,,,,,,,,,,,,,
null,,learn_phase(without_color),420539,,,black_plus_sign,,,,,null,US_Cities_List/boulder.png,US_Cities_List/westpalmbeach.png,,,,,,,,,,,,,,,,,,
null,,black_cross(without_color),421111,,,blue,,,,,null,US_Cities_List/boulder.png,US_Cities_List/westpalmbeach.png,,,,,,,,,,,,,,,,,,
null,,rt_plussign_withcolor,421613,,,blue,,,,,null,US_Cities_List/boulder.png,US_Cities_List/westpalmbeach.png,,,,,,,,,,,,,,,,,,
1292,,rt_thecrossant_black,423045,,,black_plus_sign,,,,,49,,,1,1,,,,,,,,,,,,,,,,
null,,color_black,423148,,,black_plus_sign,,,,,null,,,,,,,,,,,,,,,,,,,,
null,,learn_phase(without_color),426157,,,black_plus_sign,,,,,null,US_Cities_List/shreveport.png,US_Cities_List/huntsville.png,,,,,,,,,,,,,,,,,,
null,,black_cross(without_color),427163,,,yellow,,,,,null,US_Cities_List/shreveport.png,US_Cities_List/huntsville.png,,,,,,,,,,,,,,,,,,
null,,rt_plussign_withcolor,427665,,,yellow,,,,,null,US_Cities_List/shreveport.png,US_Cities_List/huntsville.png,,,,,,,,,,,,,,,,,,
1027,,rt_thecrossant_black,428662,,,black_plus_sign,,,,,50,,,1,1,,,,,,,,,,,,,,,,
null,,color_black,428765,,,black_plus_sign,,,,,null,,,,,,,,,,,,,,,,,,,,
null,,learn_phase(without_color),431778,,,black_plus_sign,,,,,null,US_Cities_List/gatlinburg.png,US_Cities_List/newhope.png,,,,,,,,,,,,,,,,,,
null,,black_cross(without_color),432654,,,blue,,,,,null,US_Cities_List/gatlinburg.png,US_Cities_List/newhope.png,,,,,,,,,,,,,,,,,,
null,,rt_plussign_withcolor,433156,,,blue,,,,,null,US_Cities_List/gatlinburg.png,US_Cities_List/newhope.png,,,,,,,,,,,,,,,,,,
1244.2000000476837,,rt_thecrossant_black,434284,,,black_plus_sign,,,,,49,,,1,1,,,,,,,,,,,,,,,,
null,,color_black,434399,,,black_plus_sign,,,,,null,,,,,,,,,,,,,,,,,,,,
null,,learn_phase(without_color),437412,,,black_plus_sign,,,,,null,US_Cities_List/newhope.png,US_Cities_List/gatlinburg.png,,,,,,,,,,,,,,,,,,
null,,black_cross(without_color),438059,,,blue,,,,,null,US_Cities_List/newhope.png,US_Cities_List/gatlinburg.png,,,,,,,,,,,,,,,,,,
null,,rt_plussign_withcolor,438561,,,blue,,,,,null,US_Cities_List/newhope.png,US_Cities_List/gatlinburg.png,,,,,,,,,,,,,,,,,,
1561.5,,rt_thecrossant_black,439918,,,black_plus_sign,,,,,49,,,1,1,,,,,,,,,,,,,,,,
null,,color_black,440020,,,black_plus_sign,,,,,null,,,,,,,,,,,,,,,,,,,,
null,,learn_phase(without_color),443030,,,black_plus_sign,,,,,null,US_Cities_List/huntsville.png,US_Cities_List/peoria.png,,,,,,,,,,,,,,,,,,
null,,black_cross(without_color),444012,,,yellow,,,,,null,US_Cities_List/huntsville.png,US_Cities_List/peoria.png,,,,,,,,,,,,,,,,,,
null,,rt_plussign_withcolor,444515,,,yellow,,,,,null,US_Cities_List/huntsville.png,US_Cities_List/peoria.png,,,,,,,,,,,,,,,,,,
1208.8000001907349,,rt_thecrossant_black,445536,,,black_plus_sign,,,,,50,,,1,1,,,,,,,,,,,,,,,,
null,,color_black,445638,,,black_plus_sign,,,,,null,,,,,,,,,,,,,,,,,,,,
null,,learn_phase(without_color),448650,,,black_plus_sign,,,,,null,US_Cities_List/hotsprings.png,US_Cities_List/leesburg.png,,,,,,,,,,,,,,,,,,
null,,black_cross(without_color),449139,,,blue,,,,,null,US_Cities_List/hotsprings.png,US_Cities_List/leesburg.png,,,,,,,,,,,,,,,,,,
null,,rt_plussign_withcolor,449641,,,blue,,,,,null,US_Cities_List/hotsprings.png,US_Cities_List/leesburg.png,,,,,,,,,,,,,,,,,,
1516.2999999523163,,rt_thecrossant_black,451155,,,black_plus_sign,,,,,49,,,1,1,,,,,,,,,,,,,,,,
null,,color_black,451259,,,black_plus_sign,,,,,null,,,,,,,,,,,,,,,,,,,,
null,,learn_phase(without_color),454272,,,black_plus_sign,,,,,null,US_Cities_List/cornwall.png,US_Cities_List/carmel.png,,,,,,,,,,,,,,,,,,
null,,black_cross(without_color),454988,,,blue,,,,,null,US_Cities_List/cornwall.png,US_Cities_List/carmel.png,,,,,,,,,,,,,,,,,,
null,,rt_plussign_withcolor,455491,,,blue,,,,,null,US_Cities_List/cornwall.png,US_Cities_List/carmel.png,,,,,,,,,,,,,,,,,,
1140.9000000953674,,rt_thecrossant_black,456780,,,black_plus_sign,,,,,49,,,1,1,,,,,,,,,,,,,,,,
null,,color_black,456882,,,black_plus_sign,,,,,null,,,,,,,,,,,,,,,,,,,,
null,,learn_phase(without_color),459895,,,black_plus_sign,,,,,null,US_Cities_List/newhope.png,US_Cities_List/peoria.png,,,,,,,,,,,,,,,,,,
null,,black_cross(without_color),460405,,,yellow,,,,,null,US_Cities_List/newhope.png,US_Cities_List/peoria.png,,,,,,,,,,,,,,,,,,
null,,rt_plussign_withcolor,460908,,,yellow,,,,,null,US_Cities_List/newhope.png,US_Cities_List/peoria.png,,,,,,,,,,,,,,,,,,
1173.7000000476837,,rt_thecrossant_black,462403,,,black_plus_sign,,,,,50,,,1,1,,,,,,,,,,,,,,,,
null,,color_black,462505,,,black_plus_sign,,,,,null,,,,,,,,,,,,,,,,,,,,
null,,learn_phase(without_color),465517,,,black_plus_sign,,,,,null,US_Cities_List/newhope.png,US_Cities_List/peoria.png,,,,,,,,,,,,,,,,,,
null,,black_cross(without_color),466539,,,blue,,,,,null,US_Cities_List/newhope.png,US_Cities_List/peoria.png,,,,,,,,,,,,,,,,,,
null,,rt_plussign_withcolor,467042,,,blue,,,,,null,US_Cities_List/newhope.png,US_Cities_List/peoria.png,,,,,,,,,,,,,,,,,,
809,,rt_thecrossant_black,468025,,,black_plus_sign,,,,,49,,,1,1,,,,,,,,,,,,,,,,
null,,color_black,468127,,,black_plus_sign,,,,,null,,,,,,,,,,,,,,,,,,,,
null,,learn_phase(without_color),471139,,,black_plus_sign,,,,,null,US_Cities_List/leesburg.png,US_Cities_List/newhope.png,,,,,,,,,,,,,,,,,,
null,,black_cross(without_color),471783,,,blue,,,,,null,US_Cities_List/leesburg.png,US_Cities_List/newhope.png,,,,,,,,,,,,,,,,,,
null,,rt_plussign_withcolor,472285,,,blue,,,,,null,US_Cities_List/leesburg.png,US_Cities_List/newhope.png,,,,,,,,,,,,,,,,,,
1582.2999999523163,,rt_thecrossant_black,473646,,,black_plus_sign,,,,,49,,,1,1,,,,,,,,,,,,,,,,
null,,color_black,473748,,,black_plus_sign,,,,,null,,,,,,,,,,,,,,,,,,,,
null,,learn_phase(without_color),476758,,,black_plus_sign,,,,,null,US_Cities_List/huntsville.png,US_Cities_List/gatlinburg.png,,,,,,,,,,,,,,,,,,
null,,black_cross(without_color),477480,,,blue,,,,,null,US_Cities_List/huntsville.png,US_Cities_List/gatlinburg.png,,,,,,,,,,,,,,,,,,
null,,rt_plussign_withcolor,477983,,,blue,,,,,null,US_Cities_List/huntsville.png,US_Cities_List/gatlinburg.png,,,,,,,,,,,,,,,,,,
857.2999999523163,,rt_thecrossant_black,479266,,,black_plus_sign,,,,,49,,,1,1,,,,,,,,,,,,,,,,
null,,color_black,479368,,,black_plus_sign,,,,,null,,,,,,,,,,,,,,,,,,,,
null,,learn_phase(without_color),482392,,,black_plus_sign,,,,,null,US_Cities_List/gatlinburg.png,US_Cities_List/newhope.png,,,,,,,,,,,,,,,,,,
null,,black_cross(without_color),482833,,,yellow,,,,,null,US_Cities_List/gatlinburg.png,US_Cities_List/newhope.png,,,,,,,,,,,,,,,,,,
null,,rt_plussign_withcolor,483335,,,yellow,,,,,null,US_Cities_List/gatlinburg.png,US_Cities_List/newhope.png,,,,,,,,,,,,,,,,,,
1139.2000000476837,,rt_thecrossant_black,484897,,,black_plus_sign,,,,,50,,,1,1,,,,,,,,,,,,,,,,
null,,color_black,485000,,,black_plus_sign,,,,,null,,,,,,,,,,,,,,,,,,,,
null,,learn_phase(without_color),488011,,,black_plus_sign,,,,,null,US_Cities_List/leesburg.png,US_Cities_List/westpalmbeach.png,,,,,,,,,,,,,,,,,,
null,,black_cross(without_color),489051,,,yellow,,,,,null,US_Cities_List/leesburg.png,US_Cities_List/westpalmbeach.png,,,,,,,,,,,,,,,,,,
null,,rt_plussign_withcolor,489554,,,yellow,,,,,null,US_Cities_List/leesburg.png,US_Cities_List/westpalmbeach.png,,,,,,,,,,,,,,,,,,
594,,rt_thecrossant_black,490518,,,black_plus_sign,,,,,50,,,1,1,,,,,,,,,,,,,,,,
null,,color_black,490620,,,black_plus_sign,,,,,null,,,,,,,,,,,,,,,,,,,,
null,,learn_phase(without_color),493635,,,black_plus_sign,,,,,null,US_Cities_List/newhope.png,US_Cities_List/westpalmbeach.png,,,,,,,,,,,,,,,,,,
null,,black_cross(without_color),494051,,,yellow,,,,,null,US_Cities_List/newhope.png,US_Cities_List/westpalmbeach.png,,,,,,,,,,,,,,,,,,
null,,rt_plussign_withcolor,494553,,,yellow,,,,,null,US_Cities_List/newhope.png,US_Cities_List/westpalmbeach.png,,,,,,,,,,,,,,,,,,
1394.1000001430511,,rt_thecrossant_black,496141,,,black_plus_sign,,,,,50,,,1,1,,,,,,,,,,,,,,,,
null,,color_black,496244,,,black_plus_sign,,,,,null,,,,,,,,,,,,,,,,,,,,
null,,learn_phase(without_color),499252,,,black_plus_sign,,,,,null,US_Cities_List/shreveport.png,US_Cities_List/carmel.png,,,,,,,,,,,,,,,,,,
null,,black_cross(without_color),500268,,,blue,,,,,null,US_Cities_List/shreveport.png,US_Cities_List/carmel.png,,,,,,,,,,,,,,,,,,
null,,rt_plussign_withcolor,500770,,,blue,,,,,null,US_Cities_List/shreveport.png,US_Cities_List/carmel.png,,,,,,,,,,,,,,,,,,
703.2000000476837,,rt_thecrossant_black,501759,,,black_plus_sign,,,,,49,,,1,1,,,,,,,,,,,,,,,,
null,,color_black,501861,,,black_plus_sign,,,,,null,,,,,,,,,,,,,,,,,,,,
null,,learn_phase(without_color),504873,,,black_plus_sign,,,,,null,US_Cities_List/newhope.png,US_Cities_List/peoria.png,,,,,,,,,,,,,,,,,,
null,,black_cross(without_color),505343,,,blue,,,,,null,US_Cities_List/newhope.png,US_Cities_List/peoria.png,,,,,,,,,,,,,,,,,,
null,,rt_plussign_withcolor,505845,,,blue,,,,,null,US_Cities_List/newhope.png,US_Cities_List/peoria.png,,,,,,,,,,,,,,,,,,
1173.5999999046326,,rt_thecrossant_black,507381,,,black_plus_sign,,,,,49,,,1,1,,,,,,,,,,,,,,,,
null,,color_black,507483,,,black_plus_sign,,,,,null,,,,,,,,,,,,,,,,,,,,
null,,learn_phase(without_color),510492,,,black_plus_sign,,,,,null,US_Cities_List/huntsville.png,US_Cities_List/shreveport.png,,,,,,,,,,,,,,,,,,
null,,black_cross(without_color),511142,,,yellow,,,,,null,US_Cities_List/huntsville.png,US_Cities_List/shreveport.png,,,,,,,,,,,,,,,,,,
null,,rt_plussign_withcolor,511644,,,yellow,,,,,null,US_Cities_List/huntsville.png,US_Cities_List/shreveport.png,,,,,,,,,,,,,,,,,,
906.8999998569489,,rt_thecrossant_black,513000,,,black_plus_sign,,,,,50,,,1,1,,,,,,,,,,,,,,,,
null,,color_black,513102,,,black_plus_sign,,,,,null,,,,,,,,,,,,,,,,,,,,
null,,learn_phase(without_color),516117,,,black_plus_sign,,,,,null,US_Cities_List/cornwall.png,US_Cities_List/carmel.png,,,,,,,,,,,,,,,,,,
null,,black_cross(without_color),516644,,,blue,,,,,null,US_Cities_List/cornwall.png,US_Cities_List/carmel.png,,,,,,,,,,,,,,,,,,
null,,rt_plussign_withcolor,517147,,,blue,,,,,null,US_Cities_List/cornwall.png,US_Cities_List/carmel.png,,,,,,,,,,,,,,,,,,
1123.2000000476837,,rt_thecrossant_black,518624,,,black_plus_sign,,,,,49,,,1,1,,,,,,,,,,,,,,,,
null,,color_black,518728,,,black_plus_sign,,,,,null,,,,,,,,,,,,,,,,,,,,
null,,learn_phase(without_color),521743,,,black_plus_sign,,,,,null,US_Cities_List/newhope.png,US_Cities_List/westpalmbeach.png,,,,,,,,,,,,,,,,,,
null,,black_cross(without_color),522347,,,yellow,,,,,null,US_Cities_List/newhope.png,US_Cities_List/westpalmbeach.png,,,,,,,,,,,,,,,,,,
null,,rt_plussign_withcolor,522850,,,yellow,,,,,null,US_Cities_List/newhope.png,US_Cities_List/westpalmbeach.png,,,,,,,,,,,,,,,,,,
1018.5999999046326,,rt_thecrossant_black,524251,,,black_plus_sign,,,,,50,,,1,1,,,,,,,,,,,,,,,,
null,,color_black,524353,,,black_plus_sign,,,,,null,,,,,,,,,,,,,,,,,,,,
null,,learn_phase(without_color),527370,,,black_plus_sign,,,,,null,US_Cities_List/carmel.png,US_Cities_List/cornwall.png,,,,,,,,,,,,,,,,,,
null,,black_cross(without_color),527906,,,yellow,,,,,null,US_Cities_List/carmel.png,US_Cities_List/cornwall.png,,,,,,,,,,,,,,,,,,
null,,rt_plussign_withcolor,528408,,,yellow,,,,,null,US_Cities_List/carmel.png,US_Cities_List/cornwall.png,,,,,,,,,,,,,,,,,,
1082.2000000476837,,rt_thecrossant_black,529880,,,black_plus_sign,,,,,50,,,1,1,,,,,,,,,,,,,,,,
null,,color_black,529982,,,black_plus_sign,,,,,null,,,,,,,,,,,,,,,,,,,,
null,,learn_phase(without_color),532992,,,black_plus_sign,,,,,null,US_Cities_List/shreveport.png,US_Cities_List/carmel.png,,,,,,,,,,,,,,,,,,
null,,black_cross(without_color),533757,,,yellow,,,,,null,US_Cities_List/shreveport.png,US_Cities_List/carmel.png,,,,,,,,,,,,,,,,,,
null,,rt_plussign_withcolor,534259,,,yellow,,,,,null,US_Cities_List/shreveport.png,US_Cities_List/carmel.png,,,,,,,,,,,,,,,,,,
844.5,,rt_thecrossant_black,535499,,,black_plus_sign,,,,,50,,,1,1,,,,,,,,,,,,,,,,
null,,color_black,535601,,,black_plus_sign,,,,,null,,,,,,,,,,,,,,,,,,,,
null,,learn_phase(without_color),538614,,,black_plus_sign,,,,,null,US_Cities_List/leesburg.png,US_Cities_List/newhope.png,,,,,,,,,,,,,,,,,,
null,,black_cross(without_color),539210,,,yellow,,,,,null,US_Cities_List/leesburg.png,US_Cities_List/newhope.png,,,,,,,,,,,,,,,,,,
null,,rt_plussign_withcolor,539715,,,yellow,,,,,null,US_Cities_List/leesburg.png,US_Cities_List/newhope.png,,,,,,,,,,,,,,,,,,
1192.4000000953674,,rt_thecrossant_black,541123,,,black_plus_sign,,,,,50,,,1,1,,,,,,,,,,,,,,,,
null,,color_black,541226,,,black_plus_sign,,,,,null,,,,,,,,,,,,,,,,,,,,
null,,learn_phase(without_color),544235,,,black_plus_sign,,,,,null,US_Cities_List/peoria.png,US_Cities_List/huntsville.png,,,,,,,,,,,,,,,,,,
null,,black_cross(without_color),544909,,,blue,,,,,null,US_Cities_List/peoria.png,US_Cities_List/huntsville.png,,,,,,,,,,,,,,,,,,
null,,rt_plussign_withcolor,545411,,,blue,,,,,null,US_Cities_List/peoria.png,US_Cities_List/huntsville.png,,,,,,,,,,,,,,,,,,
832.7999999523163,,rt_thecrossant_black,546742,,,black_plus_sign,,,,,49,,,1,1,,,,,,,,,,,,,,,,
null,,color_black,546844,,,black_plus_sign,,,,,null,,,,,,,,,,,,,,,,,,,,
null,,learn_phase(without_color),549855,,,black_plus_sign,,,,,null,US_Cities_List/hanover.png,US_Cities_List/shreveport.png,,,,,,,,,,,,,,,,,,
null,,black_cross(without_color),550456,,,blue,,,,,null,US_Cities_List/hanover.png,US_Cities_List/shreveport.png,,,,,,,,,,,,,,,,,,
null,,rt_plussign_withcolor,550959,,,blue,,,,,null,US_Cities_List/hanover.png,US_Cities_List/shreveport.png,,,,,,,,,,,,,,,,,,
1287.1000001430511,,rt_thecrossant_black,552363,,,black_plus_sign,,,,,49,,,1,1,,,,,,,,,,,,,,,,
null,,color_black,552467,,,black_plus_sign,,,,,null,,,,,,,,,,,,,,,,,,,,
null,,learn_phase(without_color),555476,,,black_plus_sign,,,,,null,US_Cities_List/westpalmbeach.png,US_Cities_List/boulder.png,,,,,,,,,,,,,,,,,,
null,,black_cross(without_color),556228,,,blue,,,,,null,US_Cities_List/westpalmbeach.png,US_Cities_List/boulder.png,,,,,,,,,,,,,,,,,,
null,,rt_plussign_withcolor,556730,,,blue,,,,,null,US_Cities_List/westpalmbeach.png,US_Cities_List/boulder.png,,,,,,,,,,,,,,,,,,
1067.2000000476837,,rt_thecrossant_black,557983,,,black_plus_sign,,,,,49,,,1,1,,,,,,,,,,,,,,,,
null,,color_black,558085,,,black_plus_sign,,,,,null,,,,,,,,,,,,,,,,,,,,
14405.700000047684,,learn_break,572494,,,learn_break,,,,,32,,,,,,,,,,,,,,,,,,,,
null,,html-keyboard-response,573497,,,<p></p>,,,,,null,,,,,,,,,,,,,,,,,,,,
null,,learn_phase(without_color),576507,,,black_plus_sign,,,,,null,US_Cities_List/leesburg.png,US_Cities_List/gatlinburg.png,,,,,,,,,,,,,,,,,,
null,,black_cross(without_color),576911,,,yellow,,,,,null,US_Cities_List/leesburg.png,US_Cities_List/gatlinburg.png,,,,,,,,,,,,,,,,,,
null,,rt_plussign_withcolor,577413,,,yellow,,,,,null,US_Cities_List/leesburg.png,US_Cities_List/gatlinburg.png,,,,,,,,,,,,,,,,,,
1275.7000000476837,,rt_thecrossant_black,579014,,,black_plus_sign,,,,,50,,,1,1,,,,,,,,,,,,,,,,
null,,color_black,579116,,,black_plus_sign,,,,,null,,,,,,,,,,,,,,,,,,,,
null,,learn_phase(without_color),582129,,,black_plus_sign,,,,,null,US_Cities_List/peoria.png,US_Cities_List/racine.png,,,,,,,,,,,,,,,,,,
null,,black_cross(without_color),583099,,,blue,,,,,null,US_Cities_List/peoria.png,US_Cities_List/racine.png,,,,,,,,,,,,,,,,,,
null,,rt_plussign_withcolor,583601,,,blue,,,,,null,US_Cities_List/peoria.png,US_Cities_List/racine.png,,,,,,,,,,,,,,,,,,
1098.8999998569489,,rt_thecrossant_black,584637,,,black_plus_sign,,,,,49,,,1,1,,,,,,,,,,,,,,,,
null,,color_black,584739,,,black_plus_sign,,,,,null,,,,,,,,,,,,,,,,,,,,
null,,learn_phase(without_color),587755,,,black_plus_sign,,,,,null,US_Cities_List/newhope.png,US_Cities_List/gatlinburg.png,,,,,,,,,,,,,,,,,,
null,,black_cross(without_color),588162,,,yellow,,,,,null,US_Cities_List/newhope.png,US_Cities_List/gatlinburg.png,,,,,,,,,,,,,,,,,,
null,,rt_plussign_withcolor,588663,,,yellow,,,,,null,US_Cities_List/newhope.png,US_Cities_List/gatlinburg.png,,,,,,,,,,,,,,,,,,
1520.9000000953674,,rt_thecrossant_black,590262,,,black_plus_sign,,,,,50,,,1,1,,,,,,,,,,,,,,,,
null,,color_black,590365,,,black_plus_sign,,,,,null,,,,,,,,,,,,,,,,,,,,
null,,learn_phase(without_color),593376,,,black_plus_sign,,,,,null,US_Cities_List/newhope.png,US_Cities_List/gatlinburg.png,,,,,,,,,,,,,,,,,,
null,,black_cross(without_color),594090,,,blue,,,,,null,US_Cities_List/newhope.png,US_Cities_List/gatlinburg.png,,,,,,,,,,,,,,,,,,
null,,rt_plussign_withcolor,594592,,,blue,,,,,null,US_Cities_List/newhope.png,US_Cities_List/gatlinburg.png,,,,,,,,,,,,,,,,,,
631.9000000953674,,rt_thecrossant_black,595882,,,black_plus_sign,,,,,49,,,1,1,,,,,,,,,,,,,,,,
null,,color_black,595985,,,black_plus_sign,,,,,null,,,,,,,,,,,,,,,,,,,,
null,,learn_phase(without_color),598998,,,black_plus_sign,,,,,null,US_Cities_List/gatlinburg.png,US_Cities_List/leesburg.png,,,,,,,,,,,,,,,,,,
null,,black_cross(without_color),600026,,,blue,,,,,null,US_Cities_List/gatlinburg.png,US_Cities_List/leesburg.png,,,,,,,,,,,,,,,,,,
null,,rt_plussign_withcolor,600528,,,blue,,,,,null,US_Cities_List/gatlinburg.png,US_Cities_List/leesburg.png,,,,,,,,,,,,,,,,,,
910.5,,rt_thecrossant_black,601505,,,black_plus_sign,,,,,49,,,1,1,,,,,,,,,,,,,,,,
null,,color_black,601608,,,black_plus_sign,,,,,null,,,,,,,,,,,,,,,,,,,,
null,,learn_phase(without_color),604626,,,black_plus_sign,,,,,null,US_Cities_List/leesburg.png,US_Cities_List/newhope.png,,,,,,,,,,,,,,,,,,
null,,black_cross(without_color),605415,,,blue,,,,,null,US_Cities_List/leesburg.png,US_Cities_List/newhope.png,,,,,,,,,,,,,,,,,,
null,,rt_plussign_withcolor,605916,,,blue,,,,,null,US_Cities_List/leesburg.png,US_Cities_List/newhope.png,,,,,,,,,,,,,,,,,,
1448.7000000476837,,rt_thecrossant_black,607133,,,black_plus_sign,,,,,49,,,1,1,,,,,,,,,,,,,,,,
null,,color_black,607235,,,black_plus_sign,,,,,null,,,,,,,,,,,,,,,,,,,,
null,,learn_phase(without_color),610246,,,black_plus_sign,,,,,null,US_Cities_List/hotsprings.png,US_Cities_List/leesburg.png,,,,,,,,,,,,,,,,,,
null,,black_cross(without_color),610770,,,blue,,,,,null,US_Cities_List/hotsprings.png,US_Cities_List/leesburg.png,,,,,,,,,,,,,,,,,,
null,,rt_plussign_withcolor,611272,,,blue,,,,,null,US_Cities_List/hotsprings.png,US_Cities_List/leesburg.png,,,,,,,,,,,,,,,,,,
1191.5999999046326,,rt_thecrossant_black,612753,,,black_plus_sign,,,,,49,,,1,1,,,,,,,,,,,,,,,,
null,,color_black,612856,,,black_plus_sign,,,,,null,,,,,,,,,,,,,,,,,,,,
null,,learn_phase(without_color),615869,,,black_plus_sign,,,,,null,US_Cities_List/leesburg.png,US_Cities_List/gatlinburg.png,,,,,,,,,,,,,,,,,,
null,,black_cross(without_color),616885,,,blue,,,,,null,US_Cities_List/leesburg.png,US_Cities_List/gatlinburg.png,,,,,,,,,,,,,,,,,,
null,,rt_plussign_withcolor,617388,,,blue,,,,,null,US_Cities_List/leesburg.png,US_Cities_List/gatlinburg.png,,,,,,,,,,,,,,,,,,
760.5999999046326,,rt_thecrossant_black,618378,,,black_plus_sign,,,,,49,,,1,1,,,,,,,,,,,,,,,,
null,,color_black,618481,,,black_plus_sign,,,,,null,,,,,,,,,,,,,,,,,,,,
null,,learn_phase(without_color),621493,,,black_plus_sign,,,,,null,US_Cities_List/huntsville.png,US_Cities_List/peoria.png,,,,,,,,,,,,,,,,,,
null,,black_cross(without_color),622170,,,yellow,,,,,null,US_Cities_List/huntsville.png,US_Cities_List/peoria.png,,,,,,,,,,,,,,,,,,
null,,rt_plussign_withcolor,622673,,,yellow,,,,,null,US_Cities_List/huntsville.png,US_Cities_List/peoria.png,,,,,,,,,,,,,,,,,,
1686.8999998569489,,rt_thecrossant_black,624001,,,black_plus_sign,,,,,50,,,1,1,,,,,,,,,,,,,,,,
null,,color_black,624105,,,black_plus_sign,,,,,null,,,,,,,,,,,,,,,,,,,,
null,,learn_phase(without_color),627119,,,black_plus_sign,,,,,null,US_Cities_List/newhope.png,US_Cities_List/peoria.png,,,,,,,,,,,,,,,,,,
null,,black_cross(without_color),627766,,,yellow,,,,,null,US_Cities_List/newhope.png,US_Cities_List/peoria.png,,,,,,,,,,,,,,,,,,
null,,rt_plussign_withcolor,628268,,,yellow,,,,,null,US_Cities_List/newhope.png,US_Cities_List/peoria.png,,,,,,,,,,,,,,,,,,
1175.7999999523163,,rt_thecrossant_black,629627,,,black_plus_sign,,,,,50,,,1,1,,,,,,,,,,,,,,,,
null,,color_black,629729,,,black_plus_sign,,,,,null,,,,,,,,,,,,,,,,,,,,
null,,learn_phase(without_color),632741,,,black_plus_sign,,,,,null,US_Cities_List/racine.png,US_Cities_List/peoria.png,,,,,,,,,,,,,,,,,,
null,,black_cross(without_color),633828,,,yellow,,,,,null,US_Cities_List/racine.png,US_Cities_List/peoria.png,,,,,,,,,,,,,,,,,,
null,,rt_plussign_withcolor,634329,,,yellow,,,,,null,US_Cities_List/racine.png,US_Cities_List/peoria.png,,,,,,,,,,,,,,,,,,
1063,,rt_thecrossant_black,635247,,,black_plus_sign,,,,,50,,,1,1,,,,,,,,,,,,,,,,
null,,color_black,635349,,,black_plus_sign,,,,,null,,,,,,,,,,,,,,,,,,,,
null,,learn_phase(without_color),638361,,,black_plus_sign,,,,,null,US_Cities_List/shreveport.png,US_Cities_List/hanover.png,,,,,,,,,,,,,,,,,,
null,,black_cross(without_color),639303,,,blue,,,,,null,US_Cities_List/shreveport.png,US_Cities_List/hanover.png,,,,,,,,,,,,,,,,,,
null,,rt_plussign_withcolor,639805,,,blue,,,,,null,US_Cities_List/shreveport.png,US_Cities_List/hanover.png,,,,,,,,,,,,,,,,,,
1611.2000000476837,,rt_thecrossant_black,640872,,,black_plus_sign,,,,,49,,,1,1,,,,,,,,,,,,,,,,
null,,color_black,640974,,,black_plus_sign,,,,,null,,,,,,,,,,,,,,,,,,,,
null,,learn_phase(without_color),643984,,,black_plus_sign,,,,,null,US_Cities_List/huntsville.png,US_Cities_List/gatlinburg.png,,,,,,,,,,,,,,,,,,
null,,black_cross(without_color),644418,,,blue,,,,,null,US_Cities_List/huntsville.png,US_Cities_List/gatlinburg.png,,,,,,,,,,,,,,,,,,
null,,rt_plussign_withcolor,644919,,,blue,,,,,null,US_Cities_List/huntsville.png,US_Cities_List/gatlinburg.png,,,,,,,,,,,,,,,,,,
null,,rt_thecrossant_black,646492,,,black_plus_sign,,,,,null,,,,1,,,,,,,,,,,,,,,,
null,,color_black,646595,,,black_plus_sign,,,,,null,,,,,,,,,,,,,,,,,,,,
null,,learn_phase(without_color),649608,,,black_plus_sign,,,,,null,US_Cities_List/westpalmbeach.png,US_Cities_List/newhope.png,,,,,,,,,,,,,,,,,,
null,,black_cross(without_color),650566,,,blue,,,,,null,US_Cities_List/westpalmbeach.png,US_Cities_List/newhope.png,,,,,,,,,,,,,,,,,,
null,,rt_plussign_withcolor,651069,,,blue,,,,,null,US_Cities_List/westpalmbeach.png,US_Cities_List/newhope.png,,,,,,,,,,,,,,,,,,
641.3000001907349,,rt_thecrossant_black,652117,,,black_plus_sign,,,,,49,,,1,1,,,,,,,,,,,,,,,,
null,,color_black,652220,,,black_plus_sign,,,,,null,,,,,,,,,,,,,,,,,,,,
null,,learn_phase(without_color),655236,,,black_plus_sign,,,,,null,US_Cities_List/newhope.png,US_Cities_List/westpalmbeach.png,,,,,,,,,,,,,,,,,,
null,,black_cross(without_color),656092,,,yellow,,,,,null,US_Cities_List/newhope.png,US_Cities_List/westpalmbeach.png,,,,,,,,,,,,,,,,,,
null,,rt_plussign_withcolor,656594,,,yellow,,,,,null,US_Cities_List/newhope.png,US_Cities_List/westpalmbeach.png,,,,,,,,,,,,,,,,,,
1397.3999998569489,,rt_thecrossant_black,657744,,,black_plus_sign,,,,,50,,,1,1,,,,,,,,,,,,,,,,
null,,color_black,657852,,,black_plus_sign,,,,,null,,,,,,,,,,,,,,,,,,,,
null,,learn_phase(without_color),660864,,,black_plus_sign,,,,,null,US_Cities_List/westpalmbeach.png,US_Cities_List/leesburg.png,,,,,,,,,,,,,,,,,,
null,,black_cross(without_color),661442,,,blue,,,,,null,US_Cities_List/westpalmbeach.png,US_Cities_List/leesburg.png,,,,,,,,,,,,,,,,,,
null,,rt_plussign_withcolor,661944,,,blue,,,,,null,US_Cities_List/westpalmbeach.png,US_Cities_List/leesburg.png,,,,,,,,,,,,,,,,,,
1265.2000000476837,,rt_thecrossant_black,663371,,,black_plus_sign,,,,,49,,,1,1,,,,,,,,,,,,,,,,
null,,color_black,663473,,,black_plus_sign,,,,,null,,,,,,,,,,,,,,,,,,,,
null,,learn_phase(without_color),666482,,,black_plus_sign,,,,,null,US_Cities_List/huntsville.png,US_Cities_List/shreveport.png,,,,,,,,,,,,,,,,,,
null,,black_cross(without_color),667443,,,yellow,,,,,null,US_Cities_List/huntsville.png,US_Cities_List/shreveport.png,,,,,,,,,,,,,,,,,,
null,,rt_plussign_withcolor,667945,,,yellow,,,,,null,US_Cities_List/huntsville.png,US_Cities_List/shreveport.png,,,,,,,,,,,,,,,,,,
994.9000000953674,,rt_thecrossant_black,668989,,,black_plus_sign,,,,,50,,,1,1,,,,,,,,,,,,,,,,
null,,color_black,669091,,,black_plus_sign,,,,,null,,,,,,,,,,,,,,,,,,,,
null,,learn_phase(without_color),672103,,,black_plus_sign,,,,,null,US_Cities_List/westpalmbeach.png,US_Cities_List/leesburg.png,,,,,,,,,,,,,,,,,,
null,,black_cross(without_color),673095,,,blue,,,,,null,US_Cities_List/westpalmbeach.png,US_Cities_List/leesburg.png,,,,,,,,,,,,,,,,,,
null,,rt_plussign_withcolor,673597,,,blue,,,,,null,US_Cities_List/westpalmbeach.png,US_Cities_List/leesburg.png,,,,,,,,,,,,,,,,,,
1171.7000000476837,,rt_thecrossant_black,674612,,,black_plus_sign,,,,,49,,,1,1,,,,,,,,,,,,,,,,
null,,color_black,674715,,,black_plus_sign,,,,,null,,,,,,,,,,,,,,,,,,,,
null,,learn_phase(without_color),677727,,,black_plus_sign,,,,,null,US_Cities_List/cornwall.png,US_Cities_List/carmel.png,,,,,,,,,,,,,,,,,,
null,,black_cross(without_color),678444,,,yellow,,,,,null,US_Cities_List/cornwall.png,US_Cities_List/carmel.png,,,,,,,,,,,,,,,,,,
null,,rt_plussign_withcolor,678952,,,yellow,,,,,null,US_Cities_List/cornwall.png,US_Cities_List/carmel.png,,,,,,,,,,,,,,,,,,
1448.7999999523163,,rt_thecrossant_black,680240,,,black_plus_sign,,,,,50,,,1,1,,,,,,,,,,,,,,,,
null,,color_black,680342,,,black_plus_sign,,,,,null,,,,,,,,,,,,,,,,,,,,
null,,learn_phase(without_color),683353,,,black_plus_sign,,,,,null,US_Cities_List/huntsville.png,US_Cities_List/gatlinburg.png,,,,,,,,,,,,,,,,,,
null,,black_cross(without_color),683987,,,yellow,,,,,null,US_Cities_List/huntsville.png,US_Cities_List/gatlinburg.png,,,,,,,,,,,,,,,,,,
null,,rt_plussign_withcolor,684489,,,yellow,,,,,null,US_Cities_List/huntsville.png,US_Cities_List/gatlinburg.png,,,,,,,,,,,,,,,,,,
992.2000000476837,,rt_thecrossant_black,685862,,,black_plus_sign,,,,,50,,,1,1,,,,,,,,,,,,,,,,
null,,color_black,685965,,,black_plus_sign,,,,,null,,,,,,,,,,,,,,,,,,,,
null,,learn_phase(without_color),688977,,,black_plus_sign,,,,,null,US_Cities_List/leesburg.png,US_Cities_List/westpalmbeach.png,,,,,,,,,,,,,,,,,,
null,,black_cross(without_color),689560,,,yellow,,,,,null,US_Cities_List/leesburg.png,US_Cities_List/westpalmbeach.png,,,,,,,,,,,,,,,,,,
null,,rt_plussign_withcolor,690062,,,yellow,,,,,null,US_Cities_List/leesburg.png,US_Cities_List/westpalmbeach.png,,,,,,,,,,,,,,,,,,
864.2999999523163,,rt_thecrossant_black,691483,,,black_plus_sign,,,,,50,,,1,1,,,,,,,,,,,,,,,,
null,,color_black,691585,,,black_plus_sign,,,,,null,,,,,,,,,,,,,,,,,,,,
null,,learn_phase(without_color),694597,,,black_plus_sign,,,,,null,US_Cities_List/carmel.png,US_Cities_List/shreveport.png,,,,,,,,,,,,,,,,,,
null,,black_cross(without_color),695005,,,blue,,,,,null,US_Cities_List/carmel.png,US_Cities_List/shreveport.png,,,,,,,,,,,,,,,,,,
null,,rt_plussign_withcolor,695507,,,blue,,,,,null,US_Cities_List/carmel.png,US_Cities_List/shreveport.png,,,,,,,,,,,,,,,,,,
996.5999999046326,,rt_thecrossant_black,697104,,,black_plus_sign,,,,,49,,,1,1,,,,,,,,,,,,,,,,
null,,color_black,697206,,,black_plus_sign,,,,,null,,,,,,,,,,,,,,,,,,,,
null,,learn_phase(without_color),700217,,,black_plus_sign,,,,,null,US_Cities_List/newhope.png,US_Cities_List/peoria.png,,,,,,,,,,,,,,,,,,
null,,black_cross(without_color),700794,,,blue,,,,,null,US_Cities_List/newhope.png,US_Cities_List/peoria.png,,,,,,,,,,,,,,,,,,
null,,rt_plussign_withcolor,701295,,,blue,,,,,null,US_Cities_List/newhope.png,US_Cities_List/peoria.png,,,,,,,,,,,,,,,,,,
1135.8000001907349,,rt_thecrossant_black,702724,,,black_plus_sign,,,,,49,,,1,1,,,,,,,,,,,,,,,,
null,,color_black,702826,,,black_plus_sign,,,,,null,,,,,,,,,,,,,,,,,,,,
null,,learn_phase(without_color),705839,,,black_plus_sign,,,,,null,US_Cities_List/huntsville.png,US_Cities_List/peoria.png,,,,,,,,,,,,,,,,,,
null,,black_cross(without_color),706865,,,yellow,,,,,null,US_Cities_List/huntsville.png,US_Cities_List/peoria.png,,,,,,,,,,,,,,,,,,
null,,rt_plussign_withcolor,707368,,,yellow,,,,,null,US_Cities_List/huntsville.png,US_Cities_List/peoria.png,,,,,,,,,,,,,,,,,,
961.7000000476837,,rt_thecrossant_black,708345,,,black_plus_sign,,,,,50,,,1,1,,,,,,,,,,,,,,,,
null,,color_black,708448,,,black_plus_sign,,,,,null,,,,,,,,,,,,,,,,,,,,
null,,learn_phase(without_color),711462,,,black_plus_sign,,,,,null,US_Cities_List/leesburg.png,US_Cities_List/newhope.png,,,,,,,,,,,,,,,,,,
null,,black_cross(without_color),712041,,,blue,,,,,null,US_Cities_List/leesburg.png,US_Cities_List/newhope.png,,,,,,,,,,,,,,,,,,
null,,rt_plussign_withcolor,712543,,,blue,,,,,null,US_Cities_List/leesburg.png,US_Cities_List/newhope.png,,,,,,,,,,,,,,,,,,
1366.2999999523163,,rt_thecrossant_black,713969,,,black_plus_sign,,,,,49,,,1,1,,,,,,,,,,,,,,,,
null,,color_black,714070,,,black_plus_sign,,,,,null,,,,,,,,,,,,,,,,,,,,
null,,learn_phase(without_color),717079,,,black_plus_sign,,,,,null,US_Cities_List/huntsville.png,US_Cities_List/gatlinburg.png,,,,,,,,,,,,,,,,,,
null,,black_cross(without_color),717813,,,blue,,,,,null,US_Cities_List/huntsville.png,US_Cities_List/gatlinburg.png,,,,,,,,,,,,,,,,,,
null,,rt_plussign_withcolor,718316,,,blue,,,,,null,US_Cities_List/huntsville.png,US_Cities_List/gatlinburg.png,,,,,,,,,,,,,,,,,,
995.4000000953674,,rt_thecrossant_black,719587,,,black_plus_sign,,,,,49,,,1,1,,,,,,,,,,,,,,,,
null,,color_black,719689,,,black_plus_sign,,,,,null,,,,,,,,,,,,,,,,,,,,
null,,learn_phase(without_color),722699,,,black_plus_sign,,,,,null,US_Cities_List/boulder.png,US_Cities_List/westpalmbeach.png,,,,,,,,,,,,,,,,,,
null,,black_cross(without_color),723243,,,yellow,,,,,null,US_Cities_List/boulder.png,US_Cities_List/westpalmbeach.png,,,,,,,,,,,,,,,,,,
null,,rt_plussign_withcolor,723746,,,yellow,,,,,null,US_Cities_List/boulder.png,US_Cities_List/westpalmbeach.png,,,,,,,,,,,,,,,,,,
1265.6000001430511,,rt_thecrossant_black,725207,,,black_plus_sign,,,,,50,,,1,1,,,,,,,,,,,,,,,,
null,,color_black,725310,,,black_plus_sign,,,,,null,,,,,,,,,,,,,,,,,,,,
null,,learn_phase(without_color),728321,,,black_plus_sign,,,,,null,US_Cities_List/newhope.png,US_Cities_List/westpalmbeach.png,,,,,,,,,,,,,,,,,,
null,,black_cross(without_color),729240,,,yellow,,,,,null,US_Cities_List/newhope.png,US_Cities_List/westpalmbeach.png,,,,,,,,,,,,,,,,,,
null,,rt_plussign_withcolor,729743,,,yellow,,,,,null,US_Cities_List/newhope.png,US_Cities_List/westpalmbeach.png,,,,,,,,,,,,,,,,,,
865,,rt_thecrossant_black,730831,,,black_plus_sign,,,,,50,,,1,1,,,,,,,,,,,,,,,,
null,,color_black,730934,,,black_plus_sign,,,,,null,,,,,,,,,,,,,,,,,,,,
null,,learn_phase(without_color),733960,,,black_plus_sign,,,,,null,US_Cities_List/gatlinburg.png,US_Cities_List/leesburg.png,,,,,,,,,,,,,,,,,,
null,,black_cross(without_color),734797,,,yellow,,,,,null,US_Cities_List/gatlinburg.png,US_Cities_List/leesburg.png,,,,,,,,,,,,,,,,,,
null,,rt_plussign_withcolor,735299,,,yellow,,,,,null,US_Cities_List/gatlinburg.png,US_Cities_List/leesburg.png,,,,,,,,,,,,,,,,,,
1348.6000001430511,,rt_thecrossant_black,736468,,,black_plus_sign,,,,,50,,,1,1,,,,,,,,,,,,,,,,
null,,color_black,736571,,,black_plus_sign,,,,,null,,,,,,,,,,,,,,,,,,,,
null,,learn_phase(without_color),739583,,,black_plus_sign,,,,,null,US_Cities_List/carmel.png,US_Cities_List/racine.png,,,,,,,,,,,,,,,,,,
null,,black_cross(without_color),740145,,,yellow,,,,,null,US_Cities_List/carmel.png,US_Cities_List/racine.png,,,,,,,,,,,,,,,,,,
null,,rt_plussign_withcolor,740647,,,yellow,,,,,null,US_Cities_List/carmel.png,US_Cities_List/racine.png,,,,,,,,,,,,,,,,,,
1056,,rt_thecrossant_black,742090,,,black_plus_sign,,,,,50,,,1,1,,,,,,,,,,,,,,,,
null,,color_black,742193,,,black_plus_sign,,,,,null,,,,,,,,,,,,,,,,,,,,
null,,learn_phase(without_color),745207,,,black_plus_sign,,,,,null,US_Cities_List/leesburg.png,US_Cities_List/westpalmbeach.png,,,,,,,,,,,,,,,,,,
null,,black_cross(without_color),746117,,,yellow,,,,,null,US_Cities_List/leesburg.png,US_Cities_List/westpalmbeach.png,,,,,,,,,,,,,,,,,,
null,,rt_plussign_withcolor,746619,,,yellow,,,,,null,US_Cities_List/leesburg.png,US_Cities_List/westpalmbeach.png,,,,,,,,,,,,,,,,,,
912.2000000476837,,rt_thecrossant_black,747714,,,black_plus_sign,,,,,50,,,1,1,,,,,,,,,,,,,,,,
null,,color_black,747816,,,black_plus_sign,,,,,null,,,,,,,,,,,,,,,,,,,,
null,,learn_phase(without_color),750829,,,black_plus_sign,,,,,null,US_Cities_List/shreveport.png,US_Cities_List/carmel.png,,,,,,,,,,,,,,,,,,
null,,black_cross(without_color),751340,,,blue,,,,,null,US_Cities_List/shreveport.png,US_Cities_List/carmel.png,,,,,,,,,,,,,,,,,,
491.89999985694885,,rt_plussign_withcolor,751842,,,blue,,,,,49,US_Cities_List/shreveport.png,US_Cities_List/carmel.png,,,,,,,,,,,,,,,,,,
null,,rt_thecrossant_black,753335,,,black_plus_sign,,,,,null,,,1,1,,,,,,,,,,,,,,,,
null,,color_black,753439,,,black_plus_sign,,,,,null,,,,,,,,,,,,,,,,,,,,
null,,learn_phase(without_color),756453,,,black_plus_sign,,,,,null,US_Cities_List/newhope.png,US_Cities_List/westpalmbeach.png,,,,,,,,,,,,,,,,,,
null,,black_cross(without_color),757090,,,yellow,,,,,null,US_Cities_List/newhope.png,US_Cities_List/westpalmbeach.png,,,,,,,,,,,,,,,,,,
null,,rt_plussign_withcolor,757592,,,yellow,,,,,null,US_Cities_List/newhope.png,US_Cities_List/westpalmbeach.png,,,,,,,,,,,,,,,,,,
987.8000001907349,,rt_thecrossant_black,758961,,,black_plus_sign,,,,,50,,,1,1,,,,,,,,,,,,,,,,
null,,color_black,759063,,,black_plus_sign,,,,,null,,,,,,,,,,,,,,,,,,,,
null,,learn_phase(without_color),762076,,,black_plus_sign,,,,,null,US_Cities_List/carmel.png,US_Cities_List/racine.png,,,,,,,,,,,,,,,,,,
null,,black_cross(without_color),762758,,,yellow,,,,,null,US_Cities_List/carmel.png,US_Cities_List/racine.png,,,,,,,,,,,,,,,,,,
null,,rt_plussign_withcolor,763260,,,yellow,,,,,null,US_Cities_List/carmel.png,US_Cities_List/racine.png,,,,,,,,,,,,,,,,,,
1147,,rt_thecrossant_black,764585,,,black_plus_sign,,,,,50,,,1,1,,,,,,,,,,,,,,,,
null,,color_black,764688,,,black_plus_sign,,,,,null,,,,,,,,,,,,,,,,,,,,
null,,learn_phase(without_color),767701,,,black_plus_sign,,,,,null,US_Cities_List/huntsville.png,US_Cities_List/gatlinburg.png,,,,,,,,,,,,,,,,,,
null,,black_cross(without_color),768500,,,yellow,,,,,null,US_Cities_List/huntsville.png,US_Cities_List/gatlinburg.png,,,,,,,,,,,,,,,,,,
null,,rt_plussign_withcolor,769002,,,yellow,,,,,null,US_Cities_List/huntsville.png,US_Cities_List/gatlinburg.png,,,,,,,,,,,,,,,,,,
989.3000001907349,,rt_thecrossant_black,770208,,,black_plus_sign,,,,,50,,,1,1,,,,,,,,,,,,,,,,
null,,color_black,770312,,,black_plus_sign,,,,,null,,,,,,,,,,,,,,,,,,,,
null,,learn_phase(without_color),773323,,,black_plus_sign,,,,,null,US_Cities_List/newhope.png,US_Cities_List/westpalmbeach.png,,,,,,,,,,,,,,,,,,
null,,black_cross(without_color),774154,,,blue,,,,,null,US_Cities_List/newhope.png,US_Cities_List/westpalmbeach.png,,,,,,,,,,,,,,,,,,
null,,rt_plussign_withcolor,774657,,,blue,,,,,null,US_Cities_List/newhope.png,US_Cities_List/westpalmbeach.png,,,,,,,,,,,,,,,,,,
1320.8000001907349,,rt_thecrossant_black,775830,,,black_plus_sign,,,,,49,,,1,1,,,,,,,,,,,,,,,,
null,,color_black,775933,,,black_plus_sign,,,,,null,,,,,,,,,,,,,,,,,,,,
null,,learn_phase(without_color),778945,,,black_plus_sign,,,,,null,US_Cities_List/cornwall.png,US_Cities_List/carmel.png,,,,,,,,,,,,,,,,,,
null,,black_cross(without_color),779920,,,blue,,,,,null,US_Cities_List/cornwall.png,US_Cities_List/carmel.png,,,,,,,,,,,,,,,,,,
null,,rt_plussign_withcolor,780422,,,blue,,,,,null,US_Cities_List/cornwall.png,US_Cities_List/carmel.png,,,,,,,,,,,,,,,,,,
971.7999999523163,,rt_thecrossant_black,781454,,,black_plus_sign,,,,,49,,,1,1,,,,,,,,,,,,,,,,
null,,color_black,781558,,,black_plus_sign,,,,,null,,,,,,,,,,,,,,,,,,,,
null,,learn_phase(without_color),784570,,,black_plus_sign,,,,,null,US_Cities_List/peoria.png,US_Cities_List/racine.png,,,,,,,,,,,,,,,,,,
null,,black_cross(without_color),785536,,,yellow,,,,,null,US_Cities_List/peoria.png,US_Cities_List/racine.png,,,,,,,,,,,,,,,,,,
null,,rt_plussign_withcolor,786039,,,yellow,,,,,null,US_Cities_List/peoria.png,US_Cities_List/racine.png,,,,,,,,,,,,,,,,,,
1330.8999998569489,,rt_thecrossant_black,787080,,,black_plus_sign,,,,,50,,,1,1,,,,,,,,,,,,,,,,
null,,color_black,787183,,,black_plus_sign,,,,,null,,,,,,,,,,,,,,,,,,,,
null,,learn_phase(without_color),790196,,,black_plus_sign,,,,,null,US_Cities_List/westpalmbeach.png,US_Cities_List/boulder.png,,,,,,,,,,,,,,,,,,
null,,black_cross(without_color),790965,,,yellow,,,,,null,US_Cities_List/westpalmbeach.png,US_Cities_List/boulder.png,,,,,,,,,,,,,,,,,,
null,,rt_plussign_withcolor,791468,,,yellow,,,,,null,US_Cities_List/westpalmbeach.png,US_Cities_List/boulder.png,,,,,,,,,,,,,,,,,,
1371.5999999046326,,rt_thecrossant_black,792704,,,black_plus_sign,,,,,50,,,1,1,,,,,,,,,,,,,,,,
null,,color_black,792807,,,black_plus_sign,,,,,null,,,,,,,,,,,,,,,,,,,,
null,,learn_phase(without_color),795825,,,black_plus_sign,,,,,null,US_Cities_List/newhope.png,US_Cities_List/leesburg.png,,,,,,,,,,,,,,,,,,
null,,black_cross(without_color),796727,,,blue,,,,,null,US_Cities_List/newhope.png,US_Cities_List/leesburg.png,,,,,,,,,,,,,,,,,,
null,,rt_plussign_withcolor,797230,,,blue,,,,,null,US_Cities_List/newhope.png,US_Cities_List/leesburg.png,,,,,,,,,,,,,,,,,,
1106.7000000476837,,rt_thecrossant_black,798333,,,black_plus_sign,,,,,49,,,1,1,,,,,,,,,,,,,,,,
null,,color_black,798436,,,black_plus_sign,,,,,null,,,,,,,,,,,,,,,,,,,,
null,,learn_phase(without_color),801449,,,black_plus_sign,,,,,null,US_Cities_List/cornwall.png,US_Cities_List/carmel.png,,,,,,,,,,,,,,,,,,
null,,black_cross(without_color),802469,,,yellow,,,,,null,US_Cities_List/cornwall.png,US_Cities_List/carmel.png,,,,,,,,,,,,,,,,,,
null,,rt_plussign_withcolor,802971,,,yellow,,,,,null,US_Cities_List/cornwall.png,US_Cities_List/carmel.png,,,,,,,,,,,,,,,,,,
1394.0999999046326,,rt_thecrossant_black,803958,,,black_plus_sign,,,,,50,,,1,1,,,,,,,,,,,,,,,,
null,,color_black,804060,,,black_plus_sign,,,,,null,,,,,,,,,,,,,,,,,,,,
null,,learn_phase(without_color),807074,,,black_plus_sign,,,,,null,US_Cities_List/westpalmbeach.png,US_Cities_List/boulder.png,,,,,,,,,,,,,,,,,,
null,,black_cross(without_color),807681,,,yellow,,,,,null,US_Cities_List/westpalmbeach.png,US_Cities_List/boulder.png,,,,,,,,,,,,,,,,,,
null,,rt_plussign_withcolor,808183,,,yellow,,,,,null,US_Cities_List/westpalmbeach.png,US_Cities_List/boulder.png,,,,,,,,,,,,,,,,,,
1563.7999999523163,,rt_thecrossant_black,809580,,,black_plus_sign,,,,,50,,,1,1,,,,,,,,,,,,,,,,
null,,color_black,809683,,,black_plus_sign,,,,,null,,,,,,,,,,,,,,,,,,,,
null,,learn_phase(without_color),812696,,,black_plus_sign,,,,,null,US_Cities_List/leesburg.png,US_Cities_List/westpalmbeach.png,,,,,,,,,,,,,,,,,,
null,,black_cross(without_color),813495,,,blue,,,,,null,US_Cities_List/leesburg.png,US_Cities_List/westpalmbeach.png,,,,,,,,,,,,,,,,,,
null,,rt_plussign_withcolor,813996,,,blue,,,,,null,US_Cities_List/leesburg.png,US_Cities_List/westpalmbeach.png,,,,,,,,,,,,,,,,,,
969.6999998092651,,rt_thecrossant_black,815202,,,black_plus_sign,,,,,49,,,1,1,,,,,,,,,,,,,,,,
null,,color_black,815304,,,black_plus_sign,,,,,null,,,,,,,,,,,,,,,,,,,,
null,,learn_phase(without_color),818316,,,black_plus_sign,,,,,null,US_Cities_List/huntsville.png,US_Cities_List/gatlinburg.png,,,,,,,,,,,,,,,,,,
null,,black_cross(without_color),819120,,,yellow,,,,,null,US_Cities_List/huntsville.png,US_Cities_List/gatlinburg.png,,,,,,,,,,,,,,,,,,
null,,rt_plussign_withcolor,819622,,,yellow,,,,,null,US_Cities_List/huntsville.png,US_Cities_List/gatlinburg.png,,,,,,,,,,,,,,,,,,
1195.2999999523163,,rt_thecrossant_black,820824,,,black_plus_sign,,,,,50,,,1,1,,,,,,,,,,,,,,,,
null,,color_black,820927,,,black_plus_sign,,,,,null,,,,,,,,,,,,,,,,,,,,
null,,learn_phase(without_color),823939,,,black_plus_sign,,,,,null,US_Cities_List/gatlinburg.png,US_Cities_List/leesburg.png,,,,,,,,,,,,,,,,,,
null,,black_cross(without_color),824880,,,yellow,,,,,null,US_Cities_List/gatlinburg.png,US_Cities_List/leesburg.png,,,,,,,,,,,,,,,,,,
null,,rt_plussign_withcolor,825383,,,yellow,,,,,null,US_Cities_List/gatlinburg.png,US_Cities_List/leesburg.png,,,,,,,,,,,,,,,,,,
1385,,rt_thecrossant_black,826446,,,black_plus_sign,,,,,50,,,1,1,,,,,,,,,,,,,,,,
null,,color_black,826548,,,black_plus_sign,,,,,null,,,,,,,,,,,,,,,,,,,,
null,,learn_phase(without_color),829562,,,black_plus_sign,,,,,null,US_Cities_List/racine.png,US_Cities_List/peoria.png,,,,,,,,,,,,,,,,,,
null,,black_cross(without_color),830336,,,blue,,,,,null,US_Cities_List/racine.png,US_Cities_List/peoria.png,,,,,,,,,,,,,,,,,,
null,,rt_plussign_withcolor,830838,,,blue,,,,,null,US_Cities_List/racine.png,US_Cities_List/peoria.png,,,,,,,,,,,,,,,,,,
1333.5,,rt_thecrossant_black,832071,,,black_plus_sign,,,,,49,,,1,1,,,,,,,,,,,,,,,,
null,,color_black,832173,,,black_plus_sign,,,,,null,,,,,,,,,,,,,,,,,,,,
null,,learn_phase(without_color),835183,,,black_plus_sign,,,,,null,US_Cities_List/westpalmbeach.png,US_Cities_List/boulder.png,,,,,,,,,,,,,,,,,,
null,,black_cross(without_color),835969,,,yellow,,,,,null,US_Cities_List/westpalmbeach.png,US_Cities_List/boulder.png,,,,,,,,,,,,,,,,,,
null,,rt_plussign_withcolor,836472,,,yellow,,,,,null,US_Cities_List/westpalmbeach.png,US_Cities_List/boulder.png,,,,,,,,,,,,,,,,,,
1423.7999999523163,,rt_thecrossant_black,837692,,,black_plus_sign,,,,,50,,,1,1,,,,,,,,,,,,,,,,
null,,color_black,837795,,,black_plus_sign,,,,,null,,,,,,,,,,,,,,,,,,,,
null,,learn_phase(without_color),840806,,,black_plus_sign,,,,,null,US_Cities_List/shreveport.png,US_Cities_List/carmel.png,,,,,,,,,,,,,,,,,,
null,,black_cross(without_color),841366,,,yellow,,,,,null,US_Cities_List/shreveport.png,US_Cities_List/carmel.png,,,,,,,,,,,,,,,,,,
null,,rt_plussign_withcolor,841869,,,yellow,,,,,null,US_Cities_List/shreveport.png,US_Cities_List/carmel.png,,,,,,,,,,,,,,,,,,
1372.5999999046326,,rt_thecrossant_black,843314,,,black_plus_sign,,,,,50,,,1,1,,,,,,,,,,,,,,,,
null,,color_black,843417,,,black_plus_sign,,,,,null,,,,,,,,,,,,,,,,,,,,
null,,learn_phase(without_color),846428,,,black_plus_sign,,,,,null,US_Cities_List/shreveport.png,US_Cities_List/huntsville.png,,,,,,,,,,,,,,,,,,
null,,black_cross(without_color),846983,,,blue,,,,,null,US_Cities_List/shreveport.png,US_Cities_List/huntsville.png,,,,,,,,,,,,,,,,,,
449.7999999523163,,rt_plussign_withcolor,847486,,,blue,,,,,49,US_Cities_List/shreveport.png,US_Cities_List/huntsville.png,,,,,,,,,,,,,,,,,,
null,,rt_thecrossant_black,848937,,,black_plus_sign,,,,,null,,,1,1,,,,,,,,,,,,,,,,
null,,color_black,849040,,,black_plus_sign,,,,,null,,,,,,,,,,,,,,,,,,,,
null,,learn_phase(without_color),852053,,,black_plus_sign,,,,,null,US_Cities_List/hanover.png,US_Cities_List/shreveport.png,,,,,,,,,,,,,,,,,,
null,,black_cross(without_color),852490,,,yellow,,,,,null,US_Cities_List/hanover.png,US_Cities_List/shreveport.png,,,,,,,,,,,,,,,,,,
null,,rt_plussign_withcolor,852993,,,yellow,,,,,null,US_Cities_List/hanover.png,US_Cities_List/shreveport.png,,,,,,,,,,,,,,,,,,
1138.7999999523163,,rt_thecrossant_black,854562,,,black_plus_sign,,,,,50,,,1,1,,,,,,,,,,,,,,,,
null,,color_black,854664,,,black_plus_sign,,,,,null,,,,,,,,,,,,,,,,,,,,
null,,learn_phase(without_color),857676,,,black_plus_sign,,,,,null,US_Cities_List/carmel.png,US_Cities_List/racine.png,,,,,,,,,,,,,,,,,,
null,,black_cross(without_color),858479,,,yellow,,,,,null,US_Cities_List/carmel.png,US_Cities_List/racine.png,,,,,,,,,,,,,,,,,,
null,,rt_plussign_withcolor,858981,,,yellow,,,,,null,US_Cities_List/carmel.png,US_Cities_List/racine.png,,,,,,,,,,,,,,,,,,
808.3999998569489,,rt_thecrossant_black,860184,,,black_plus_sign,,,,,50,,,1,1,,,,,,,,,,,,,,,,
null,,color_black,860286,,,black_plus_sign,,,,,null,,,,,,,,,,,,,,,,,,,,
null,,learn_phase(without_color),863297,,,black_plus_sign,,,,,null,US_Cities_List/leesburg.png,US_Cities_List/hotsprings.png,,,,,,,,,,,,,,,,,,
null,,black_cross(without_color),863993,,,blue,,,,,null,US_Cities_List/leesburg.png,US_Cities_List/hotsprings.png,,,,,,,,,,,,,,,,,,
null,,rt_plussign_withcolor,864496,,,blue,,,,,null,US_Cities_List/leesburg.png,US_Cities_List/hotsprings.png,,,,,,,,,,,,,,,,,,
1472.0999999046326,,rt_thecrossant_black,865810,,,black_plus_sign,,,,,49,,,1,1,,,,,,,,,,,,,,,,
null,,color_black,865912,,,black_plus_sign,,,,,null,,,,,,,,,,,,,,,,,,,,
null,,learn_phase(without_color),868924,,,black_plus_sign,,,,,null,US_Cities_List/leesburg.png,US_Cities_List/westpalmbeach.png,,,,,,,,,,,,,,,,,,
null,,black_cross(without_color),869701,,,blue,,,,,null,US_Cities_List/leesburg.png,US_Cities_List/westpalmbeach.png,,,,,,,,,,,,,,,,,,
null,,rt_plussign_withcolor,870203,,,blue,,,,,null,US_Cities_List/leesburg.png,US_Cities_List/westpalmbeach.png,,,,,,,,,,,,,,,,,,
1023.5,,rt_thecrossant_black,871430,,,black_plus_sign,,,,,49,,,1,1,,,,,,,,,,,,,,,,
null,,color_black,871533,,,black_plus_sign,,,,,null,,,,,,,,,,,,,,,,,,,,
null,,learn_phase(without_color),874544,,,black_plus_sign,,,,,null,US_Cities_List/shreveport.png,US_Cities_List/hanover.png,,,,,,,,,,,,,,,,,,
null,,black_cross(without_color),875605,,,blue,,,,,null,US_Cities_List/shreveport.png,US_Cities_List/hanover.png,,,,,,,,,,,,,,,,,,
null,,rt_plussign_withcolor,876107,,,blue,,,,,null,US_Cities_List/shreveport.png,US_Cities_List/hanover.png,,,,,,,,,,,,,,,,,,
1100.4000000953674,,rt_thecrossant_black,877051,,,black_plus_sign,,,,,49,,,1,1,,,,,,,,,,,,,,,,
null,,color_black,877154,,,black_plus_sign,,,,,null,,,,,,,,,,,,,,,,,,,,
null,,learn_phase(without_color),880166,,,black_plus_sign,,,,,null,US_Cities_List/newhope.png,US_Cities_List/leesburg.png,,,,,,,,,,,,,,,,,,
null,,black_cross(without_color),880998,,,blue,,,,,null,US_Cities_List/newhope.png,US_Cities_List/leesburg.png,,,,,,,,,,,,,,,,,,
null,,rt_plussign_withcolor,881501,,,blue,,,,,null,US_Cities_List/newhope.png,US_Cities_List/leesburg.png,,,,,,,,,,,,,,,,,,
1395.2999999523163,,rt_thecrossant_black,882674,,,black_plus_sign,,,,,49,,,1,1,,,,,,,,,,,,,,,,
null,,color_black,882783,,,black_plus_sign,,,,,null,,,,,,,,,,,,,,,,,,,,
null,,learn_phase(without_color),885795,,,black_plus_sign,,,,,null,US_Cities_List/newhope.png,US_Cities_List/gatlinburg.png,,,,,,,,,,,,,,,,,,
null,,black_cross(without_color),886520,,,blue,,,,,null,US_Cities_List/newhope.png,US_Cities_List/gatlinburg.png,,,,,,,,,,,,,,,,,,
null,,rt_plussign_withcolor,887023,,,blue,,,,,null,US_Cities_List/newhope.png,US_Cities_List/gatlinburg.png,,,,,,,,,,,,,,,,,,
1336.5,,rt_thecrossant_black,888304,,,black_plus_sign,,,,,49,,,1,1,,,,,,,,,,,,,,,,
null,,color_black,888407,,,black_plus_sign,,,,,null,,,,,,,,,,,,,,,,,,,,
null,,learn_phase(without_color),891418,,,black_plus_sign,,,,,null,US_Cities_List/shreveport.png,US_Cities_List/hanover.png,,,,,,,,,,,,,,,,,,
null,,black_cross(without_color),892483,,,yellow,,,,,null,US_Cities_List/shreveport.png,US_Cities_List/hanover.png,,,,,,,,,,,,,,,,,,
null,,rt_plussign_withcolor,892986,,,yellow,,,,,null,US_Cities_List/shreveport.png,US_Cities_List/hanover.png,,,,,,,,,,,,,,,,,,
1144.5,,rt_thecrossant_black,893925,,,black_plus_sign,,,,,50,,,1,1,,,,,,,,,,,,,,,,
null,,color_black,894028,,,black_plus_sign,,,,,null,,,,,,,,,,,,,,,,,,,,
null,,learn_phase(without_color),897040,,,black_plus_sign,,,,,null,US_Cities_List/racine.png,US_Cities_List/carmel.png,,,,,,,,,,,,,,,,,,
null,,black_cross(without_color),897496,,,blue,,,,,null,US_Cities_List/racine.png,US_Cities_List/carmel.png,,,,,,,,,,,,,,,,,,
null,,rt_plussign_withcolor,897998,,,blue,,,,,null,US_Cities_List/racine.png,US_Cities_List/carmel.png,,,,,,,,,,,,,,,,,,
1474.2000000476837,,rt_thecrossant_black,899547,,,black_plus_sign,,,,,49,,,1,1,,,,,,,,,,,,,,,,
null,,color_black,899650,,,black_plus_sign,,,,,null,,,,,,,,,,,,,,,,,,,,
null,,learn_phase(without_color),902660,,,black_plus_sign,,,,,null,US_Cities_List/huntsville.png,US_Cities_List/shreveport.png,,,,,,,,,,,,,,,,,,
null,,black_cross(without_color),903454,,,yellow,,,,,null,US_Cities_List/huntsville.png,US_Cities_List/shreveport.png,,,,,,,,,,,,,,,,,,
null,,rt_plussign_withcolor,903956,,,yellow,,,,,null,US_Cities_List/huntsville.png,US_Cities_List/shreveport.png,,,,,,,,,,,,,,,,,,
896.7000000476837,,rt_thecrossant_black,905167,,,black_plus_sign,,,,,50,,,1,1,,,,,,,,,,,,,,,,
null,,color_black,905269,,,black_plus_sign,,,,,null,,,,,,,,,,,,,,,,,,,,
null,,learn_phase(without_color),908286,,,black_plus_sign,,,,,null,US_Cities_List/peoria.png,US_Cities_List/newhope.png,,,,,,,,,,,,,,,,,,
null,,black_cross(without_color),908797,,,yellow,,,,,null,US_Cities_List/peoria.png,US_Cities_List/newhope.png,,,,,,,,,,,,,,,,,,
null,,rt_plussign_withcolor,909307,,,yellow,,,,,null,US_Cities_List/peoria.png,US_Cities_List/newhope.png,,,,,,,,,,,,,,,,,,
1088.0999999046326,,rt_thecrossant_black,910799,,,black_plus_sign,,,,,50,,,1,1,,,,,,,,,,,,,,,,
null,,color_black,910902,,,black_plus_sign,,,,,null,,,,,,,,,,,,,,,,,,,,
null,,learn_phase(without_color),913913,,,black_plus_sign,,,,,null,US_Cities_List/carmel.png,US_Cities_List/racine.png,,,,,,,,,,,,,,,,,,
null,,black_cross(without_color),914727,,,blue,,,,,null,US_Cities_List/carmel.png,US_Cities_List/racine.png,,,,,,,,,,,,,,,,,,
null,,rt_plussign_withcolor,915229,,,blue,,,,,null,US_Cities_List/carmel.png,US_Cities_List/racine.png,,,,,,,,,,,,,,,,,,
1084.4000000953674,,rt_thecrossant_black,916420,,,black_plus_sign,,,,,49,,,1,1,,,,,,,,,,,,,,,,
null,,color_black,916523,,,black_plus_sign,,,,,null,,,,,,,,,,,,,,,,,,,,
null,,learn_phase(without_color),919533,,,black_plus_sign,,,,,null,US_Cities_List/shreveport.png,US_Cities_List/hanover.png,,,,,,,,,,,,,,,,,,
null,,black_cross(without_color),919961,,,blue,,,,,null,US_Cities_List/shreveport.png,US_Cities_List/hanover.png,,,,,,,,,,,,,,,,,,
null,,rt_plussign_withcolor,920463,,,blue,,,,,null,US_Cities_List/shreveport.png,US_Cities_List/hanover.png,,,,,,,,,,,,,,,,,,
1120,,rt_thecrossant_black,922040,,,black_plus_sign,,,,,49,,,1,1,,,,,,,,,,,,,,,,
null,,color_black,922142,,,black_plus_sign,,,,,null,,,,,,,,,,,,,,,,,,,,
null,,learn_phase(without_color),925155,,,black_plus_sign,,,,,null,US_Cities_List/racine.png,US_Cities_List/carmel.png,,,,,,,,,,,,,,,,,,
null,,black_cross(without_color),925685,,,yellow,,,,,null,US_Cities_List/racine.png,US_Cities_List/carmel.png,,,,,,,,,,,,,,,,,,
null,,rt_plussign_withcolor,926187,,,yellow,,,,,null,US_Cities_List/racine.png,US_Cities_List/carmel.png,,,,,,,,,,,,,,,,,,
842.5,,rt_thecrossant_black,927662,,,black_plus_sign,,,,,50,,,1,1,,,,,,,,,,,,,,,,
null,,color_black,927764,,,black_plus_sign,,,,,null,,,,,,,,,,,,,,,,,,,,
null,,learn_phase(without_color),930777,,,black_plus_sign,,,,,null,US_Cities_List/cornwall.png,US_Cities_List/carmel.png,,,,,,,,,,,,,,,,,,
null,,black_cross(without_color),931206,,,yellow,,,,,null,US_Cities_List/cornwall.png,US_Cities_List/carmel.png,,,,,,,,,,,,,,,,,,
null,,rt_plussign_withcolor,931709,,,yellow,,,,,null,US_Cities_List/cornwall.png,US_Cities_List/carmel.png,,,,,,,,,,,,,,,,,,
876.7000000476837,,rt_thecrossant_black,933286,,,black_plus_sign,,,,,50,,,1,1,,,,,,,,,,,,,,,,
null,,color_black,933389,,,black_plus_sign,,,,,null,,,,,,,,,,,,,,,,,,,,
14656.100000143051,,learn_break,948047,,,learn_break,,,,,32,,,,,,,,,,,,,,,,,,,,
9975.099999904633,,intro_1,958024,,,instruct,,,0,,,,,,,,,,,,,,,,,,,,,,
13446.299999952316,,intro_2,971472,,,instruct,,,1,Next,,,,,,,,,,,,,,,,,,,,,
4697.799999952316,,directmemory_phase,976184,,,../static/images/US_Cities_List/leesburg.png,,,,,50,,,0,0,../static/images/US_Cities_List/hanover.png,../static/images/US_Cities_List/huntsville.png,../static/images/US_Cities_List/gatlinburg.png,../static/images/US_Cities_List/gatlinburg.png,../static/images/US_Cities_List/huntsville.png,../static/images/US_Cities_List/hanover.png,0.5,closer,,,,,,,,
null,,html-keyboard-response,977189,,,<p></p>,,,,,null,,,,,,,,,,,,,,,,,,,,
2855.899999856949,,directmemory_phase,980063,,,../static/images/US_Cities_List/carmel.png,,,,,49,,,0,0,../static/images/US_Cities_List/newhope.png,../static/images/US_Cities_List/peoria.png,../static/images/US_Cities_List/shreveport.png,../static/images/US_Cities_List/shreveport.png,../static/images/US_Cities_List/peoria.png,../static/images/US_Cities_List/newhope.png,0.5,closer,,,,,,,,
null,,html-keyboard-response,981068,,,<p></p>,,,,,null,,,,,,,,,,,,,,,,,,,,
3154.9000000953674,,directmemory_phase,984240,,,../static/images/US_Cities_List/gatlinburg.png,,,,,49,,,0,0,../static/images/US_Cities_List/peoria.png,../static/images/US_Cities_List/newhope.png,../static/images/US_Cities_List/racine.png,../static/images/US_Cities_List/newhope.png,../static/images/US_Cities_List/peoria.png,../static/images/US_Cities_List/racine.png,0.5,closer,,,,,,,,
null,,html-keyboard-response,985247,,,<p></p>,,,,,null,,,,,,,,,,,,,,,,,,,,
2507.0999999046326,,directmemory_phase,987765,,,../static/images/US_Cities_List/carmel.png,,,,,51,,,1,0.25,../static/images/US_Cities_List/gatlinburg.png,../static/images/US_Cities_List/huntsville.png,../static/images/US_Cities_List/cornwall.png,../static/images/US_Cities_List/cornwall.png,../static/images/US_Cities_List/huntsville.png,../static/images/US_Cities_List/gatlinburg.png,1,,,,,,,,,
null,,html-keyboard-response,988769,,,<p></p>,,,,,null,,,,,,,,,,,,,,,,,,,,
1943.3000001907349,,directmemory_phase,990731,,,../static/images/US_Cities_List/gatlinburg.png,,,,,50,,,1,0.4,../static/images/US_Cities_List/westpalmbeach.png,../static/images/US_Cities_List/huntsville.png,../static/images/US_Cities_List/cornwall.png,../static/images/US_Cities_List/huntsville.png,../static/images/US_Cities_List/westpalmbeach.png,../static/images/US_Cities_List/cornwall.png,1,,,,,,,,,
null,,html-keyboard-response,991736,,,<p></p>,,,,,null,,,,,,,,,,,,,,,,,,,,
2895.2999999523163,,directmemory_phase,994651,,,../static/images/US_Cities_List/racine.png,,,,,51,,,0,0.3333333333333333,../static/images/US_Cities_List/carmel.png,../static/images/US_Cities_List/hotsprings.png,../static/images/US_Cities_List/newhope.png,../static/images/US_Cities_List/carmel.png,../static/images/US_Cities_List/newhope.png,../static/images/US_Cities_List/hotsprings.png,0.5,closer,,,,,,,,
null,,html-keyboard-response,995654,,,<p></p>,,,,,null,,,,,,,,,,,,,,,,,,,,
1572.7999999523163,,directmemory_phase,997241,,,../static/images/US_Cities_List/huntsville.png,,,,,51,,,1,0.42857142857142855,../static/images/US_Cities_List/westpalmbeach.png,../static/images/US_Cities_List/newhope.png,../static/images/US_Cities_List/gatlinburg.png,../static/images/US_Cities_List/gatlinburg.png,../static/images/US_Cities_List/newhope.png,../static/images/US_Cities_List/westpalmbeach.png,1,,,,,,,,,
null,,html-keyboard-response,998248,,,<p></p>,,,,,null,,,,,,,,,,,,,,,,,,,,
2325.2000000476837,,directmemory_phase,1000593,,,../static/images/US_Cities_List/peoria.png,,,,,51,,,0,0.375,../static/images/US_Cities_List/newhope.png,../static/images/US_Cities_List/cornwall.png,../static/images/US_Cities_List/leesburg.png,../static/images/US_Cities_List/newhope.png,../static/images/US_Cities_List/leesburg.png,../static/images/US_Cities_List/cornwall.png,0.5,closer,,,,,,,,
null,,html-keyboard-response,1001596,,,<p></p>,,,,,null,,,,,,,,,,,,,,,,,,,,
1904.7000000476837,,directmemory_phase,1003513,,,../static/images/US_Cities_List/leesburg.png,,,,,50,,,1,0.4444444444444444,../static/images/US_Cities_List/boulder.png,../static/images/US_Cities_List/hotsprings.png,../static/images/US_Cities_List/shreveport.png,../static/images/US_Cities_List/hotsprings.png,../static/images/US_Cities_List/boulder.png,../static/images/US_Cities_List/shreveport.png,1,,,,,,,,,
null,,html-keyboard-response,1004517,,,<p></p>,,,,,null,,,,,,,,,,,,,,,,,,,,
1727.0999999046326,,directmemory_phase,1006263,,,../static/images/US_Cities_List/shreveport.png,,,,,50,,,1,0.5,../static/images/US_Cities_List/gatlinburg.png,../static/images/US_Cities_List/hanover.png,../static/images/US_Cities_List/newhope.png,../static/images/US_Cities_List/hanover.png,../static/images/US_Cities_List/gatlinburg.png,../static/images/US_Cities_List/newhope.png,1,,,,,,,,,
null,,html-keyboard-response,1007266,,,<p></p>,,,,,null,,,,,,,,,,,,,,,,,,,,
2351.5999999046326,,directmemory_phase,1009630,,,../static/images/US_Cities_List/peoria.png,,,,,49,,,0,0.45454545454545453,../static/images/US_Cities_List/leesburg.png,../static/images/US_Cities_List/racine.png,../static/images/US_Cities_List/boulder.png,../static/images/US_Cities_List/racine.png,../static/images/US_Cities_List/leesburg.png,../static/images/US_Cities_List/boulder.png,0.5,closer,,,,,,,,
null,,html-keyboard-response,1010634,,,<p></p>,,,,,null,,,,,,,,,,,,,,,,,,,,
2556.600000143051,,directmemory_phase,1013208,,,../static/images/US_Cities_List/newhope.png,,,,,51,,,1,0.5,../static/images/US_Cities_List/carmel.png,../static/images/US_Cities_List/hotsprings.png,../static/images/US_Cities_List/westpalmbeach.png,../static/images/US_Cities_List/westpalmbeach.png,../static/images/US_Cities_List/hotsprings.png,../static/images/US_Cities_List/carmel.png,1,,,,,,,,,
null,,html-keyboard-response,1014212,,,<p></p>,,,,,null,,,,,,,,,,,,,,,,,,,,
2082.5,,directmemory_phase,1016309,,,../static/images/US_Cities_List/huntsville.png,,,,,49,,,1,0.5384615384615384,../static/images/US_Cities_List/peoria.png,../static/images/US_Cities_List/westpalmbeach.png,../static/images/US_Cities_List/hanover.png,../static/images/US_Cities_List/peoria.png,../static/images/US_Cities_List/hanover.png,../static/images/US_Cities_List/westpalmbeach.png,1,,,,,,,,,
null,,html-keyboard-response,1017314,,,<p></p>,,,,,null,,,,,,,,,,,,,,,,,,,,
2597.7000000476837,,directmemory_phase,1019926,,,../static/images/US_Cities_List/westpalmbeach.png,,,,,50,,,0,0.5,../static/images/US_Cities_List/leesburg.png,../static/images/US_Cities_List/carmel.png,../static/images/US_Cities_List/peoria.png,../static/images/US_Cities_List/leesburg.png,../static/images/US_Cities_List/peoria.png,../static/images/US_Cities_List/carmel.png,0.5,closer,,,,,,,,
null,,html-keyboard-response,1020932,,,<p></p>,,,,,null,,,,,,,,,,,,,,,,,,,,
1905.1000001430511,,directmemory_phase,1022850,,,../static/images/US_Cities_List/huntsville.png,,,,,51,,,1,0.5333333333333333,../static/images/US_Cities_List/boulder.png,../static/images/US_Cities_List/newhope.png,../static/images/US_Cities_List/shreveport.png,../static/images/US_Cities_List/shreveport.png,../static/images/US_Cities_List/newhope.png,../static/images/US_Cities_List/boulder.png,1,,,,,,,,,
null,,html-keyboard-response,1023854,,,<p></p>,,,,,null,,,,,,,,,,,,,,,,,,,,
2502.399999856949,,directmemory_phase,1026371,,,../static/images/US_Cities_List/hotsprings.png,,,,,51,,,0,0.5,../static/images/US_Cities_List/westpalmbeach.png,../static/images/US_Cities_List/leesburg.png,../static/images/US_Cities_List/peoria.png,../static/images/US_Cities_List/leesburg.png,../static/images/US_Cities_List/westpalmbeach.png,../static/images/US_Cities_List/peoria.png,0.5,closer,,,,,,,,
null,,html-keyboard-response,1027375,,,<p></p>,,,,,null,,,,,,,,,,,,,,,,,,,,
2393.399999856949,,directmemory_phase,1029784,,,../static/images/US_Cities_List/shreveport.png,,,,,49,,,0,0.47058823529411764,../static/images/US_Cities_List/peoria.png,../static/images/US_Cities_List/carmel.png,../static/images/US_Cities_List/leesburg.png,../static/images/US_Cities_List/carmel.png,../static/images/US_Cities_List/peoria.png,../static/images/US_Cities_List/leesburg.png,0.5,closer,,,,,,,,
null,,html-keyboard-response,1030788,,,<p></p>,,,,,null,,,,,,,,,,,,,,,,,,,,
2473.399999856949,,directmemory_phase,1033281,,,../static/images/US_Cities_List/leesburg.png,,,,,51,,,1,0.5,../static/images/US_Cities_List/racine.png,../static/images/US_Cities_List/peoria.png,../static/images/US_Cities_List/newhope.png,../static/images/US_Cities_List/newhope.png,../static/images/US_Cities_List/peoria.png,../static/images/US_Cities_List/racine.png,1,,,,,,,,,
null,,html-keyboard-response,1034286,,,<p></p>,,,,,null,,,,,,,,,,,,,,,,,,,,
2737.5,,directmemory_phase,1037038,,,../static/images/US_Cities_List/carmel.png,,,,,50,,,0,0.47368421052631576,../static/images/US_Cities_List/racine.png,../static/images/US_Cities_List/westpalmbeach.png,../static/images/US_Cities_List/hanover.png,../static/images/US_Cities_List/racine.png,../static/images/US_Cities_List/hanover.png,../static/images/US_Cities_List/westpalmbeach.png,0.5,closer,,,,,,,,
null,,html-keyboard-response,1038043,,,<p></p>,,,,,null,,,,,,,,,,,,,,,,,,,,
2718,,directmemory_phase,1040774,,,../static/images/US_Cities_List/westpalmbeach.png,,,,,51,,,0,0.45,../static/images/US_Cities_List/newhope.png,../static/images/US_Cities_List/huntsville.png,../static/images/US_Cities_List/hotsprings.png,../static/images/US_Cities_List/newhope.png,../static/images/US_Cities_List/hotsprings.png,../static/images/US_Cities_List/huntsville.png,0.5,closer,,,,,,,,
null,,html-keyboard-response,1041780,,,<p></p>,,,,,null,,,,,,,,,,,,,,,,,,,,
2481.5,,directmemory_phase,1044277,,,../static/images/US_Cities_List/gatlinburg.png,,,,,51,,,1,0.47619047619047616,../static/images/US_Cities_List/racine.png,../static/images/US_Cities_List/westpalmbeach.png,../static/images/US_Cities_List/leesburg.png,../static/images/US_Cities_List/leesburg.png,../static/images/US_Cities_List/westpalmbeach.png,../static/images/US_Cities_List/racine.png,1,,,,,,,,,
null,,html-keyboard-response,1045282,,,<p></p>,,,,,null,,,,,,,,,,,,,,,,,,,,
1665.3999998569489,,directmemory_phase,1046962,,,../static/images/US_Cities_List/newhope.png,,,,,50,,,1,0.5,../static/images/US_Cities_List/hotsprings.png,../static/images/US_Cities_List/peoria.png,../static/images/US_Cities_List/carmel.png,../static/images/US_Cities_List/peoria.png,../static/images/US_Cities_List/hotsprings.png,../static/images/US_Cities_List/carmel.png,1,,,,,,,,,
null,,html-keyboard-response,1047967,,,<p></p>,,,,,null,,,,,,,,,,,,,,,,,,,,
2613.9000000953674,,directmemory_phase,1050594,,,../static/images/US_Cities_List/leesburg.png,,,,,50,,,0,0.4782608695652174,../static/images/US_Cities_List/shreveport.png,../static/images/US_Cities_List/huntsville.png,../static/images/US_Cities_List/westpalmbeach.png,../static/images/US_Cities_List/westpalmbeach.png,../static/images/US_Cities_List/huntsville.png,../static/images/US_Cities_List/shreveport.png,0.5,closer,,,,,,,,
null,,html-keyboard-response,1051599,,,<p></p>,,,,,null,,,,,,,,,,,,,,,,,,,,
2148,,directmemory_phase,1053764,,,../static/images/US_Cities_List/newhope.png,,,,,49,,,1,0.5,../static/images/US_Cities_List/gatlinburg.png,../static/images/US_Cities_List/carmel.png,../static/images/US_Cities_List/racine.png,../static/images/US_Cities_List/gatlinburg.png,../static/images/US_Cities_List/racine.png,../static/images/US_Cities_List/carmel.png,1,,,,,,,,,
null,,html-keyboard-response,1054768,,,<p></p>,,,,,null,,,,,,,,,,,,,,,,,,,,
2883.4000000953674,,directmemory_phase,1057666,,,../static/images/US_Cities_List/boulder.png,,,,,51,,,0,0.48,../static/images/US_Cities_List/westpalmbeach.png,../static/images/US_Cities_List/peoria.png,../static/images/US_Cities_List/newhope.png,../static/images/US_Cities_List/westpalmbeach.png,../static/images/US_Cities_List/newhope.png,../static/images/US_Cities_List/peoria.png,0.5,closer,,,,,,,,
null,,html-keyboard-response,1058670,,,<p></p>,,,,,null,,,,,,,,,,,,,,,,,,,,
2340.5999999046326,,directmemory_phase,1061025,,,../static/images/US_Cities_List/newhope.png,,,,,49,,,0,0.46153846153846156,../static/images/US_Cities_List/boulder.png,../static/images/US_Cities_List/leesburg.png,../static/images/US_Cities_List/shreveport.png,../static/images/US_Cities_List/leesburg.png,../static/images/US_Cities_List/boulder.png,../static/images/US_Cities_List/shreveport.png,0.5,closer,,,,,,,,
null,,html-keyboard-response,1062041,,,<p></p>,,,,,null,,,,,,,,,,,,,,,,,,,,
2751.5999999046326,,directmemory_phase,1064802,,,../static/images/US_Cities_List/westpalmbeach.png,,,,,51,,,0,0.4444444444444444,../static/images/US_Cities_List/boulder.png,../static/images/US_Cities_List/carmel.png,../static/images/US_Cities_List/peoria.png,../static/images/US_Cities_List/boulder.png,../static/images/US_Cities_List/peoria.png,../static/images/US_Cities_List/carmel.png,0.5,closer,,,,,,,,
null,,html-keyboard-response,1065807,,,<p></p>,,,,,null,,,,,,,,,,,,,,,,,,,,
2590.5999999046326,,directmemory_phase,1068412,,,../static/images/US_Cities_List/peoria.png,,,,,50,,,0,0.42857142857142855,../static/images/US_Cities_List/huntsville.png,../static/images/US_Cities_List/cornwall.png,../static/images/US_Cities_List/westpalmbeach.png,../static/images/US_Cities_List/huntsville.png,../static/images/US_Cities_List/westpalmbeach.png,../static/images/US_Cities_List/cornwall.png,0.5,closer,,,,,,,,
null,,html-keyboard-response,1069418,,,<p></p>,,,,,null,,,,,,,,,,,,,,,,,,,,
1831.6999998092651,,directmemory_phase,1071266,,,../static/images/US_Cities_List/cornwall.png,,,,,50,,,1,0.4482758620689655,../static/images/US_Cities_List/shreveport.png,../static/images/US_Cities_List/carmel.png,../static/images/US_Cities_List/hanover.png,../static/images/US_Cities_List/carmel.png,../static/images/US_Cities_List/shreveport.png,../static/images/US_Cities_List/hanover.png,1,,,,,,,,,
null,,html-keyboard-response,1072271,,,<p></p>,,,,,null,,,,,,,,,,,,,,,,,,,,
2193.399999856949,,directmemory_phase,1074477,,,../static/images/US_Cities_List/shreveport.png,,,,,50,,,1,0.4666666666666667,../static/images/US_Cities_List/gatlinburg.png,../static/images/US_Cities_List/huntsville.png,../static/images/US_Cities_List/newhope.png,../static/images/US_Cities_List/huntsville.png,../static/images/US_Cities_List/gatlinburg.png,../static/images/US_Cities_List/newhope.png,1,,,,,,,,,
null,,html-keyboard-response,1075482,,,<p></p>,,,,,null,,,,,,,,,,,,,,,,,,,,
2848.899999856949,,directmemory_phase,1078342,,,../static/images/US_Cities_List/racine.png,,,,,51,,,1,0.4838709677419355,../static/images/US_Cities_List/hanover.png,../static/images/US_Cities_List/huntsville.png,../static/images/US_Cities_List/peoria.png,../static/images/US_Cities_List/peoria.png,../static/images/US_Cities_List/huntsville.png,../static/images/US_Cities_List/hanover.png,1,,,,,,,,,
null,,html-keyboard-response,1079346,,,<p></p>,,,,,null,,,,,,,,,,,,,,,,,,,,
2985,,directmemory_phase,1082347,,,../static/images/US_Cities_List/hanover.png,,,,,49,,,0,0.46875,../static/images/US_Cities_List/racine.png,../static/images/US_Cities_List/carmel.png,../static/images/US_Cities_List/shreveport.png,../static/images/US_Cities_List/shreveport.png,../static/images/US_Cities_List/carmel.png,../static/images/US_Cities_List/racine.png,0.5,closer,,,,,,,,
null,,html-keyboard-response,1083350,,,<p></p>,,,,,null,,,,,,,,,,,,,,,,,,,,
20745.200000047684,,intro_1,1104097,,,instruct,,,0,,,,,,,,,,,,,,,,,,,,,,
10983.099999904633,,intro_2,1115083,,,instruct,,,1,Next,,,,,,,,,,,,,,,,,,,,,
6930.799999952316,,intro_3,1122016,,,instruct,,,1,Next,,,,,,,,,,,,,,,,,,,,,
9827.600000143051,,intro_4,1131847,,,instruct,,,1,Next,,,,,,,,,,,,,,,,,,,,,
5231,,intro_5,1137080,,,instruct,,,1,Next,,,,,,,,,,,,,,,,,,,,,
6431.299999952316,,intro_6,1143515,,,instruct,,,1,Next,,,,,,,,,,,,,,,,,,,,,
9245.200000047684,,intro_7,1152762,,,instruct,,,1,Next,,,,,,,,,,,,,,,,,,,,,
4801,,intro_8,1157566,,,instruct,,,1,Next,,,,,,,,,,,,,,,,,,,,,
4057.5,,intro_9,1161626,,,instruct,,,1,Next,,,,,,,,,,,,,,,,,,,,,
3087.399999856949,,intro_10,1164716,,,instruct,,,1,Next,,,,,,,,,,,,,,,,,,,,,
14555.200000047684,,intro_11,1179273,,,instruct,,,1,Next,,,,,,,,,,,,,,,,,,,,,
2127,,shortestpath_phase,1181413,,,../static/images/US_Cities_List/shreveport.png,,,,,50,../static/images/US_Cities_List/racine.png,../static/images/US_Cities_List/hotsprings.png,0,0,,,,../static/images/US_Cities_List/racine.png,,,,,Two Edge Diff,Two Edge Four Edge,,,,,,
null,,html-keyboard-response,1182418,,,<p></p>,,,,,null,,,,,,,,,,,,,,,,,,,,
2238.5,,shortestpath_phase,1184669,,,../static/images/US_Cities_List/westpalmbeach.png,,,,,49,../static/images/US_Cities_List/hanover.png,../static/images/US_Cities_List/hotsprings.png,0,0,,,,../static/images/US_Cities_List/hotsprings.png,,,,,Three Edge Diff,Three Edge Six Edge,,,,,,
null,,html-keyboard-response,1185673,,,<p></p>,,,,,null,,,,,,,,,,,,,,,,,,,,
2468.7999999523163,,shortestpath_phase,1188157,,,../static/images/US_Cities_List/boulder.png,,,,,49,../static/images/US_Cities_List/cornwall.png,../static/images/US_Cities_List/carmel.png,0,0,,,,../static/images/US_Cities_List/carmel.png,,,,,One Edge Diff,Five Edge Six Edge,,,,,,
null,,html-keyboard-response,1189161,,,<p></p>,,,,,null,,,,,,,,,,,,,,,,,,,,
2595.399999856949,,shortestpath_phase,1191770,,,../static/images/US_Cities_List/hanover.png,,,,,49,../static/images/US_Cities_List/boulder.png,../static/images/US_Cities_List/hotsprings.png,0,0,,,,../static/images/US_Cities_List/hotsprings.png,,,,,One Edge Diff,Five Edge Six Edge,,,,,,
null,,html-keyboard-response,1192774,,,<p></p>,,,,,null,,,,,,,,,,,,,,,,,,,,
1069.2999999523163,,shortestpath_phase,1193854,,,../static/images/US_Cities_List/boulder.png,,,,,50,../static/images/US_Cities_List/hanover.png,../static/images/US_Cities_List/leesburg.png,1,0.2,,,,../static/images/US_Cities_List/leesburg.png,,,,,Four Edge Diff,Two Edge Six Edge,,,,,,
null,,html-keyboard-response,1194859,,,<p></p>,,,,,null,,,,,,,,,,,,,,,,,,,,
1890.0999999046326,,shortestpath_phase,1196760,,,../static/images/US_Cities_List/hotsprings.png,,,,,50,../static/images/US_Cities_List/hanover.png,../static/images/US_Cities_List/gatlinburg.png,1,0.3333333333333333,,,,../static/images/US_Cities_List/gatlinburg.png,,,,,Three Edge Diff,Two Edge Five Edge,,,,,,
null,,html-keyboard-response,1197766,,,<p></p>,,,,,null,,,,,,,,,,,,,,,,,,,,
1625.5,,shortestpath_phase,1199403,,,../static/images/US_Cities_List/shreveport.png,,,,,49,../static/images/US_Cities_List/westpalmbeach.png,../static/images/US_Cities_List/boulder.png,1,0.42857142857142855,,,,../static/images/US_Cities_List/westpalmbeach.png,,,,,One Edge Diff,Four Edge Five Edge,,,,,,
null,,html-keyboard-response,1200409,,,<p></p>,,,,,null,,,,,,,,,,,,,,,,,,,,
1739.9000000953674,,shortestpath_phase,1202164,,,../static/images/US_Cities_List/hotsprings.png,,,,,50,../static/images/US_Cities_List/cornwall.png,../static/images/US_Cities_List/gatlinburg.png,1,0.5,,,,../static/images/US_Cities_List/gatlinburg.png,,,,,Four Edge Diff,Two Edge Six Edge,,,,,,
null,,html-keyboard-response,1203170,,,<p></p>,,,,,null,,,,,,,,,,,,,,,,,,,,
1285.6999998092651,,shortestpath_phase,1204470,,,../static/images/US_Cities_List/cornwall.png,,,,,50,../static/images/US_Cities_List/racine.png,../static/images/US_Cities_List/westpalmbeach.png,0,0.4444444444444444,,,,../static/images/US_Cities_List/racine.png,,,,,Three Edge Diff,Two Edge Five Edge,,,,,,
null,,html-keyboard-response,1205474,,,<p></p>,,,,,null,,,,,,,,,,,,,,,,,,,,
769.1000001430511,,shortestpath_phase,1206258,,,../static/images/US_Cities_List/westpalmbeach.png,,,,,49,../static/images/US_Cities_List/hotsprings.png,../static/images/US_Cities_List/hanover.png,1,0.5,,,,../static/images/US_Cities_List/hotsprings.png,,,,,Three Edge Diff,Two Edge Five Edge,,,,,,
null,,html-keyboard-response,1207264,,,<p></p>,,,,,null,,,,,,,,,,,,,,,,,,,,
687.3999998569489,,shortestpath_phase,1207966,,,../static/images/US_Cities_List/cornwall.png,,,,,50,../static/images/US_Cities_List/westpalmbeach.png,../static/images/US_Cities_List/huntsville.png,1,0.5454545454545454,,,,../static/images/US_Cities_List/huntsville.png,,,,,Two Edge Diff,Three Edge Five Edge,,,,,,
null,,html-keyboard-response,1208970,,,<p></p>,,,,,null,,,,,,,,,,,,,,,,,,,,
923.0999999046326,,shortestpath_phase,1209908,,,../static/images/US_Cities_List/hotsprings.png,,,,,49,../static/images/US_Cities_List/shreveport.png,../static/images/US_Cities_List/hanover.png,1,0.5833333333333334,,,,../static/images/US_Cities_List/shreveport.png,,,,,One Edge Diff,Four Edge Five Edge,,,,,,
null,,html-keyboard-response,1210913,,,<p></p>,,,,,null,,,,,,,,,,,,,,,,,,,,
701.5,,shortestpath_phase,1211630,,,../static/images/US_Cities_List/cornwall.png,,,,,49,../static/images/US_Cities_List/westpalmbeach.png,../static/images/US_Cities_List/peoria.png,0,0.5384615384615384,,,,../static/images/US_Cities_List/peoria.png,,,,,Two Edge Diff,Three Edge Five Edge,,,,,,
null,,html-keyboard-response,1212635,,,<p></p>,,,,,null,,,,,,,,,,,,,,,,,,,,
1479.4000000953674,,shortestpath_phase,1214125,,,../static/images/US_Cities_List/carmel.png,,,,,50,../static/images/US_Cities_List/boulder.png,../static/images/US_Cities_List/huntsville.png,1,0.5714285714285714,,,,../static/images/US_Cities_List/huntsville.png,,,,,Three Edge Diff,Three Edge Six Edge,,,,,,
null,,html-keyboard-response,1215129,,,<p></p>,,,,,null,,,,,,,,,,,,,,,,,,,,
