rt,responses,trial_type,time_elapsed,image_type,sequence,stimulus,cities,city_images,button_pressed,response,key_press,stimulus_left,stimulus_right,accuracy,cumulative_accuracy,stimulus_down_left,stimulus_down_mid,stimulus_down_right,stimulus_correct,stimulus_short,stimulus_far,weighted_accuracy,missedtrial,condition,specific_pairs,imgL_ID,imgR_ID,linedress,linedressed,detour_trial,linedressed_detor
30599.399999976158,{worker_id:66ac145b55e2055063cd4079},id_enter,30604,fictional,interleaved,flights,Hawthorne Bluffs; Claywater; Orchard Bend; Riverlyn; North Arroya; Sunmere; Cedarwyn; Hollendale; New Verdan; Delaro Park; Juniper Creek; Baymarsh; Granton Ridge,US_Cities_List/shreveport.png; US_Cities_List/boulder.png; US_Cities_List/peoria.png; US_Cities_List/westpalmbeach.png; US_Cities_List/newhope.png; US_Cities_List/hotsprings.png; US_Cities_List/huntsville.png; US_Cities_List/carmel.png; US_Cities_List/racine.png; US_Cities_List/cornwall.png; US_Cities_List/gatlinburg.png; US_Cities_List/leesburg.png; US_Cities_List/hanover.png,,,,,,,,,,,,,,,,,,,,,,,
13281.600000023842,,fullscreen,43890,,,make_fullscreen,,,0,,,,,,,,,,,,,,,,,,,,,,
8709.599999964237,,intro_1,52604,,,instruct,,,0,,,,,,,,,,,,,,,,,,,,,,
36382.69999998808,,intro_2,88988,,,instruct,,,1,Next,,,,,,,,,,,,,,,,,,,,,
21940.100000023842,,intro_3,110933,,,instruct,,,1,Next,,,,,,,,,,,,,,,,,,,,,
11603.099999964237,,intro_4,122537,,,instruct,,,1,Next,,,,,,,,,,,,,,,,,,,,,
9871.5,,intro_5,132410,,,instruct,,,1,Next,,,,,,,,,,,,,,,,,,,,,
24775.700000047684,,intro_6,157186,,,instruct,,,1,Next,,,,,,,,,,,,,,,,,,,,,
9272.399999976158,,intro_7,166460,,,instruct,,,1,Next,,,,,,,,,,,,,,,,,,,,,
null,,learn_prac_1,169462,,,lean_prac_1,,,,,null,,,,,,,,,,,,,,,,,,,,
null,,html-keyboard-response,170464,,,<p></p>,,,,,null,,,,,,,,,,,,,,,,,,,,
6140.800000011921,,intro_1,176606,,,instruct,,,0,,,,,,,,,,,,,,,,,,,,,,
7656.800000011921,,intro_2,184264,,,instruct,,,1,Next,,,,,,,,,,,,,,,,,,,,,
null,,learn_prac_2,187265,,,lean_prac_2,,,,,null,,,,,,,,,,,,,,,,,,,,
null,,html-keyboard-response,188268,,,<p></p>,,,,,null,,,,,,,,,,,,,,,,,,,,
2239.199999988079,,intro_1,190508,,,instruct,,,0,,,,,,,,,,,,,,,,,,,,,,
4783.600000023842,,intro_2,195292,,,instruct,,,1,Next,,,,,,,,,,,,,,,,,,,,,
35634.30000001192,,intro_3,230928,,,instruct,,,1,Next,,,,,,,,,,,,,,,,,,,,,
null,,prac_atten_color_black,231735,,,black_plus_sign,,,,,null,,,,,,,,,,,,,,,,,,,,
null,,prac_atten_color,232332,,,prac_stop_color,,,,,null,,,,,,,,,,,,,,,,,,,,
97.5,,prac_atten_color_black,234334,,,black_plus_sign,,,,,49,,,,,,,,,,,,,,,,,,,,
null,,prac_atten_color_black,235141,,,black_plus_sign,,,,,null,,,,,,,,,,,,,,,,,,,,
null,,prac_atten_color,235547,,,prac_stop_color,,,,,null,,,,,,,,,,,,,,,,,,,,
203.9000000357628,,prac_atten_color_black,237549,,,black_plus_sign,,,,,50,,,,,,,,,,,,,,,,,,,,
null,,prac_atten_color_black,238547,,,black_plus_sign,,,,,null,,,,,,,,,,,,,,,,,,,,
466,,prac_atten_color,239625,,,prac_stop_color,,,,,50,,,,,,,,,,,,,,,,,,,,
null,,prac_atten_color_black,241627,,,black_plus_sign,,,,,null,,,,,,,,,,,,,,,,,,,,
null,,prac_atten_color_black,241954,,,black_plus_sign,,,,,null,,,,,,,,,,,,,,,,,,,,
361.9000000357628,,prac_atten_color,242717,,,prac_stop_color,,,,,49,,,,,,,,,,,,,,,,,,,,
null,,prac_atten_color_black,244719,,,black_plus_sign,,,,,null,,,,,,,,,,,,,,,,,,,,
null,,prac_atten_color_black,245359,,,black_plus_sign,,,,,null,,,,,,,,,,,,,,,,,,,,
null,,prac_atten_color,245792,,,prac_stop_color,,,,,null,,,,,,,,,,,,,,,,,,,,
39,,prac_atten_color_black,247794,,,black_plus_sign,,,,,50,,,,,,,,,,,,,,,,,,,,
null,,prac_atten_color_black,248765,,,black_plus_sign,,,,,null,,,,,,,,,,,,,,,,,,,,
429.2000000476837,,prac_atten_color,249692,,,prac_stop_color,,,,,50,,,,,,,,,,,,,,,,,,,,
null,,prac_atten_color_black,251695,,,black_plus_sign,,,,,null,,,,,,,,,,,,,,,,,,,,
null,,prac_atten_color_black,252173,,,black_plus_sign,,,,,null,,,,,,,,,,,,,,,,,,,,
null,,prac_atten_color,252734,,,prac_stop_color,,,,,null,,,,,,,,,,,,,,,,,,,,
57,,prac_atten_color_black,254735,,,black_plus_sign,,,,,49,,,,,,,,,,,,,,,,,,,,
null,,prac_atten_color_black,255579,,,black_plus_sign,,,,,null,,,,,,,,,,,,,,,,,,,,
430.89999997615814,,prac_atten_color,256671,,,prac_stop_color,,,,,50,,,,,,,,,,,,,,,,,,,,
null,,prac_atten_color_black,258673,,,black_plus_sign,,,,,null,,,,,,,,,,,,,,,,,,,,
null,,prac_atten_color_black,258986,,,black_plus_sign,,,,,null,,,,,,,,,,,,,,,,,,,,
564.1000000238419,,prac_atten_color,259588,,,prac_stop_color,,,,,49,,,,,,,,,,,,,,,,,,,,
null,,prac_atten_color_black,261590,,,black_plus_sign,,,,,null,,,,,,,,,,,,,,,,,,,,
null,,prac_atten_color_black,262391,,,black_plus_sign,,,,,null,,,,,,,,,,,,,,,,,,,,
null,,prac_atten_color,262847,,,prac_stop_color,,,,,null,,,,,,,,,,,,,,,,,,,,
136,,prac_atten_color_black,264848,,,black_plus_sign,,,,,49,,,,,,,,,,,,,,,,,,,,
7145.699999988079,,attentioncheck_feedback,271996,,,cross_check_feedback,,,0,,,,,,,,,,,,,,,,,,,,,,
7094.400000035763,,last_instruct,279091,,,instruct,,,,,32,,,,,,,,,,,,,,,,,,,,
null,,learn_phase(without_color),282098,,,black_plus_sign,,,,,null,US_Cities_List/huntsville.png,US_Cities_List/hotsprings.png,,,,,,,,,,,,,,,,,,
null,,black_cross(without_color),282695,,,blue,,,,,null,US_Cities_List/huntsville.png,US_Cities_List/hotsprings.png,,,,,,,,,,,,,,,,,,
424.30000001192093,,rt_plussign_withcolor,283197,,,blue,,,,,49,US_Cities_List/huntsville.png,US_Cities_List/hotsprings.png,,,,,,,,,,,,,,,,,,
null,,rt_thecrossant_black,284604,,,black_plus_sign,,,,,null,,,1,1,,,,,,,,,,,,,,,,
null,,color_black,284708,,,black_plus_sign,,,,,null,,,,,,,,,,,,,,,,,,,,
null,,learn_phase(without_color),287719,,,black_plus_sign,,,,,null,US_Cities_List/racine.png,US_Cities_List/hotsprings.png,,,,,,,,,,,,,,,,,,
null,,black_cross(without_color),288192,,,yellow,,,,,null,US_Cities_List/racine.png,US_Cities_List/hotsprings.png,,,,,,,,,,,,,,,,,,
null,,rt_plussign_withcolor,288694,,,yellow,,,,,null,US_Cities_List/racine.png,US_Cities_List/hotsprings.png,,,,,,,,,,,,,,,,,,
974.6000000238419,,rt_thecrossant_black,290224,,,black_plus_sign,,,,,50,,,1,1,,,,,,,,,,,,,,,,
null,,color_black,290327,,,black_plus_sign,,,,,null,,,,,,,,,,,,,,,,,,,,
null,,learn_phase(without_color),293343,,,black_plus_sign,,,,,null,US_Cities_List/boulder.png,US_Cities_List/westpalmbeach.png,,,,,,,,,,,,,,,,,,
null,,black_cross(without_color),294338,,,blue,,,,,null,US_Cities_List/boulder.png,US_Cities_List/westpalmbeach.png,,,,,,,,,,,,,,,,,,
null,,rt_plussign_withcolor,294840,,,blue,,,,,null,US_Cities_List/boulder.png,US_Cities_List/westpalmbeach.png,,,,,,,,,,,,,,,,,,
612.1000000238419,,rt_thecrossant_black,295848,,,black_plus_sign,,,,,49,,,1,1,,,,,,,,,,,,,,,,
null,,color_black,295950,,,black_plus_sign,,,,,null,,,,,,,,,,,,,,,,,,,,
null,,learn_phase(without_color),298961,,,black_plus_sign,,,,,null,US_Cities_List/gatlinburg.png,US_Cities_List/peoria.png,,,,,,,,,,,,,,,,,,
null,,black_cross(without_color),299615,,,yellow,,,,,null,US_Cities_List/gatlinburg.png,US_Cities_List/peoria.png,,,,,,,,,,,,,,,,,,
null,,rt_plussign_withcolor,300116,,,yellow,,,,,null,US_Cities_List/gatlinburg.png,US_Cities_List/peoria.png,,,,,,,,,,,,,,,,,,
1472.699999988079,,rt_thecrossant_black,301466,,,black_plus_sign,,,,,50,,,1,1,,,,,,,,,,,,,,,,
null,,color_black,301567,,,black_plus_sign,,,,,null,,,,,,,,,,,,,,,,,,,,
null,,learn_phase(without_color),304578,,,black_plus_sign,,,,,null,US_Cities_List/leesburg.png,US_Cities_List/westpalmbeach.png,,,,,,,,,,,,,,,,,,
null,,black_cross(without_color),304987,,,yellow,,,,,null,US_Cities_List/leesburg.png,US_Cities_List/westpalmbeach.png,,,,,,,,,,,,,,,,,,
450.5,,rt_plussign_withcolor,305490,,,yellow,,,,,50,US_Cities_List/leesburg.png,US_Cities_List/westpalmbeach.png,,,,,,,,,,,,,,,,,,
null,,rt_thecrossant_black,307083,,,black_plus_sign,,,,,null,,,1,1,,,,,,,,,,,,,,,,
null,,color_black,307185,,,black_plus_sign,,,,,null,,,,,,,,,,,,,,,,,,,,
null,,learn_phase(without_color),310195,,,black_plus_sign,,,,,null,US_Cities_List/westpalmbeach.png,US_Cities_List/boulder.png,,,,,,,,,,,,,,,,,,
null,,black_cross(without_color),311102,,,yellow,,,,,null,US_Cities_List/westpalmbeach.png,US_Cities_List/boulder.png,,,,,,,,,,,,,,,,,,
null,,rt_plussign_withcolor,311604,,,yellow,,,,,null,US_Cities_List/westpalmbeach.png,US_Cities_List/boulder.png,,,,,,,,,,,,,,,,,,
610.1000000238419,,rt_thecrossant_black,312703,,,black_plus_sign,,,,,50,,,1,1,,,,,,,,,,,,,,,,
null,,color_black,312805,,,black_plus_sign,,,,,null,,,,,,,,,,,,,,,,,,,,
null,,learn_phase(without_color),315820,,,black_plus_sign,,,,,null,US_Cities_List/cornwall.png,US_Cities_List/carmel.png,,,,,,,,,,,,,,,,,,
null,,black_cross(without_color),316266,,,blue,,,,,null,US_Cities_List/cornwall.png,US_Cities_List/carmel.png,,,,,,,,,,,,,,,,,,
417.80000001192093,,rt_plussign_withcolor,316768,,,blue,,,,,49,US_Cities_List/cornwall.png,US_Cities_List/carmel.png,,,,,,,,,,,,,,,,,,
null,,rt_thecrossant_black,318325,,,black_plus_sign,,,,,null,,,1,1,,,,,,,,,,,,,,,,
null,,color_black,318438,,,black_plus_sign,,,,,null,,,,,,,,,,,,,,,,,,,,
null,,learn_phase(without_color),321450,,,black_plus_sign,,,,,null,US_Cities_List/newhope.png,US_Cities_List/westpalmbeach.png,,,,,,,,,,,,,,,,,,
null,,black_cross(without_color),322375,,,yellow,,,,,null,US_Cities_List/newhope.png,US_Cities_List/westpalmbeach.png,,,,,,,,,,,,,,,,,,
null,,rt_plussign_withcolor,322876,,,yellow,,,,,null,US_Cities_List/newhope.png,US_Cities_List/westpalmbeach.png,,,,,,,,,,,,,,,,,,
631.8000000119209,,rt_thecrossant_black,323956,,,black_plus_sign,,,,,50,,,1,1,,,,,,,,,,,,,,,,
null,,color_black,324057,,,black_plus_sign,,,,,null,,,,,,,,,,,,,,,,,,,,
null,,learn_phase(without_color),327069,,,black_plus_sign,,,,,null,US_Cities_List/peoria.png,US_Cities_List/gatlinburg.png,,,,,,,,,,,,,,,,,,
null,,black_cross(without_color),327649,,,yellow,,,,,null,US_Cities_List/peoria.png,US_Cities_List/gatlinburg.png,,,,,,,,,,,,,,,,,,
393.19999998807907,,rt_plussign_withcolor,328151,,,yellow,,,,,50,US_Cities_List/peoria.png,US_Cities_List/gatlinburg.png,,,,,,,,,,,,,,,,,,
null,,rt_thecrossant_black,329574,,,black_plus_sign,,,,,null,,,1,1,,,,,,,,,,,,,,,,
null,,color_black,329675,,,black_plus_sign,,,,,null,,,,,,,,,,,,,,,,,,,,
null,,learn_phase(without_color),332687,,,black_plus_sign,,,,,null,US_Cities_List/gatlinburg.png,US_Cities_List/leesburg.png,,,,,,,,,,,,,,,,,,
null,,black_cross(without_color),333170,,,yellow,,,,,null,US_Cities_List/gatlinburg.png,US_Cities_List/leesburg.png,,,,,,,,,,,,,,,,,,
435.5,,rt_plussign_withcolor,333671,,,yellow,,,,,50,US_Cities_List/gatlinburg.png,US_Cities_List/leesburg.png,,,,,,,,,,,,,,,,,,
null,,rt_thecrossant_black,335207,,,black_plus_sign,,,,,null,,,1,1,,,,,,,,,,,,,,,,
null,,color_black,335309,,,black_plus_sign,,,,,null,,,,,,,,,,,,,,,,,,,,
null,,learn_phase(without_color),338319,,,black_plus_sign,,,,,null,US_Cities_List/peoria.png,US_Cities_List/hotsprings.png,,,,,,,,,,,,,,,,,,
null,,black_cross(without_color),338880,,,blue,,,,,null,US_Cities_List/peoria.png,US_Cities_List/hotsprings.png,,,,,,,,,,,,,,,,,,
480.69999998807907,,rt_plussign_withcolor,339382,,,blue,,,,,49,US_Cities_List/peoria.png,US_Cities_List/hotsprings.png,,,,,,,,,,,,,,,,,,
null,,rt_thecrossant_black,340840,,,black_plus_sign,,,,,null,,,1,1,,,,,,,,,,,,,,,,
null,,color_black,340941,,,black_plus_sign,,,,,null,,,,,,,,,,,,,,,,,,,,
null,,learn_phase(without_color),343951,,,black_plus_sign,,,,,null,US_Cities_List/boulder.png,US_Cities_List/peoria.png,,,,,,,,,,,,,,,,,,
null,,black_cross(without_color),344936,,,blue,,,,,null,US_Cities_List/boulder.png,US_Cities_List/peoria.png,,,,,,,,,,,,,,,,,,
null,,rt_plussign_withcolor,345437,,,blue,,,,,null,US_Cities_List/boulder.png,US_Cities_List/peoria.png,,,,,,,,,,,,,,,,,,
725,,rt_thecrossant_black,346457,,,black_plus_sign,,,,,49,,,1,1,,,,,,,,,,,,,,,,
null,,color_black,346559,,,black_plus_sign,,,,,null,,,,,,,,,,,,,,,,,,,,
null,,learn_phase(without_color),349571,,,black_plus_sign,,,,,null,US_Cities_List/gatlinburg.png,US_Cities_List/leesburg.png,,,,,,,,,,,,,,,,,,
null,,black_cross(without_color),350483,,,blue,,,,,null,US_Cities_List/gatlinburg.png,US_Cities_List/leesburg.png,,,,,,,,,,,,,,,,,,
null,,rt_plussign_withcolor,350985,,,blue,,,,,null,US_Cities_List/gatlinburg.png,US_Cities_List/leesburg.png,,,,,,,,,,,,,,,,,,
1149,,rt_thecrossant_black,352077,,,black_plus_sign,,,,,49,,,1,1,,,,,,,,,,,,,,,,
null,,color_black,352179,,,black_plus_sign,,,,,null,,,,,,,,,,,,,,,,,,,,
null,,learn_phase(without_color),355186,,,black_plus_sign,,,,,null,US_Cities_List/huntsville.png,US_Cities_List/hanover.png,,,,,,,,,,,,,,,,,,
null,,black_cross(without_color),356068,,,yellow,,,,,null,US_Cities_List/huntsville.png,US_Cities_List/hanover.png,,,,,,,,,,,,,,,,,,
null,,rt_plussign_withcolor,356570,,,yellow,,,,,null,US_Cities_List/huntsville.png,US_Cities_List/hanover.png,,,,,,,,,,,,,,,,,,
1168.800000011921,,rt_thecrossant_black,357691,,,black_plus_sign,,,,,50,,,1,1,,,,,,,,,,,,,,,,
null,,color_black,357794,,,black_plus_sign,,,,,null,,,,,,,,,,,,,,,,,,,,
null,,learn_phase(without_color),360806,,,black_plus_sign,,,,,null,US_Cities_List/carmel.png,US_Cities_List/huntsville.png,,,,,,,,,,,,,,,,,,
null,,black_cross(without_color),361603,,,yellow,,,,,null,US_Cities_List/carmel.png,US_Cities_List/huntsville.png,,,,,,,,,,,,,,,,,,
null,,rt_plussign_withcolor,362104,,,yellow,,,,,null,US_Cities_List/carmel.png,US_Cities_List/huntsville.png,,,,,,,,,,,,,,,,,,
1096.4000000357628,,rt_thecrossant_black,363312,,,black_plus_sign,,,,,50,,,1,1,,,,,,,,,,,,,,,,
null,,color_black,363414,,,black_plus_sign,,,,,null,,,,,,,,,,,,,,,,,,,,
null,,learn_phase(without_color),366425,,,black_plus_sign,,,,,null,US_Cities_List/newhope.png,US_Cities_List/westpalmbeach.png,,,,,,,,,,,,,,,,,,
null,,black_cross(without_color),367002,,,blue,,,,,null,US_Cities_List/newhope.png,US_Cities_List/westpalmbeach.png,,,,,,,,,,,,,,,,,,
null,,rt_plussign_withcolor,367504,,,blue,,,,,null,US_Cities_List/newhope.png,US_Cities_List/westpalmbeach.png,,,,,,,,,,,,,,,,,,
964.5,,rt_thecrossant_black,368936,,,black_plus_sign,,,,,49,,,1,1,,,,,,,,,,,,,,,,
null,,color_black,369038,,,black_plus_sign,,,,,null,,,,,,,,,,,,,,,,,,,,
null,,learn_phase(without_color),372048,,,black_plus_sign,,,,,null,US_Cities_List/carmel.png,US_Cities_List/racine.png,,,,,,,,,,,,,,,,,,
null,,black_cross(without_color),373082,,,yellow,,,,,null,US_Cities_List/carmel.png,US_Cities_List/racine.png,,,,,,,,,,,,,,,,,,
447.80000001192093,,rt_plussign_withcolor,373585,,,yellow,,,,,50,US_Cities_List/carmel.png,US_Cities_List/racine.png,,,,,,,,,,,,,,,,,,
null,,rt_thecrossant_black,374556,,,black_plus_sign,,,,,null,,,1,1,,,,,,,,,,,,,,,,
null,,color_black,374658,,,black_plus_sign,,,,,null,,,,,,,,,,,,,,,,,,,,
null,,learn_phase(without_color),377668,,,black_plus_sign,,,,,null,US_Cities_List/westpalmbeach.png,US_Cities_List/boulder.png,,,,,,,,,,,,,,,,,,
null,,black_cross(without_color),378253,,,blue,,,,,null,US_Cities_List/westpalmbeach.png,US_Cities_List/boulder.png,,,,,,,,,,,,,,,,,,
388.60000002384186,,rt_plussign_withcolor,378755,,,blue,,,,,49,US_Cities_List/westpalmbeach.png,US_Cities_List/boulder.png,,,,,,,,,,,,,,,,,,
null,,rt_thecrossant_black,380175,,,black_plus_sign,,,,,null,,,1,1,,,,,,,,,,,,,,,,
null,,color_black,380277,,,black_plus_sign,,,,,null,,,,,,,,,,,,,,,,,,,,
null,,learn_phase(without_color),383286,,,black_plus_sign,,,,,null,US_Cities_List/huntsville.png,US_Cities_List/racine.png,,,,,,,,,,,,,,,,,,
null,,black_cross(without_color),384281,,,yellow,,,,,null,US_Cities_List/huntsville.png,US_Cities_List/racine.png,,,,,,,,,,,,,,,,,,
null,,rt_plussign_withcolor,384783,,,yellow,,,,,null,US_Cities_List/huntsville.png,US_Cities_List/racine.png,,,,,,,,,,,,,,,,,,
831.3999999761581,,rt_thecrossant_black,385792,,,black_plus_sign,,,,,50,,,1,1,,,,,,,,,,,,,,,,
null,,color_black,385895,,,black_plus_sign,,,,,null,,,,,,,,,,,,,,,,,,,,
null,,learn_phase(without_color),388902,,,black_plus_sign,,,,,null,US_Cities_List/huntsville.png,US_Cities_List/hanover.png,,,,,,,,,,,,,,,,,,
null,,black_cross(without_color),389978,,,blue,,,,,null,US_Cities_List/huntsville.png,US_Cities_List/hanover.png,,,,,,,,,,,,,,,,,,
402.89999997615814,,rt_plussign_withcolor,390482,,,blue,,,,,49,US_Cities_List/huntsville.png,US_Cities_List/hanover.png,,,,,,,,,,,,,,,,,,
null,,rt_thecrossant_black,391410,,,black_plus_sign,,,,,null,,,1,1,,,,,,,,,,,,,,,,
null,,color_black,391527,,,black_plus_sign,,,,,null,,,,,,,,,,,,,,,,,,,,
null,,learn_phase(without_color),394544,,,black_plus_sign,,,,,null,US_Cities_List/racine.png,US_Cities_List/hotsprings.png,,,,,,,,,,,,,,,,,,
null,,black_cross(without_color),395431,,,yellow,,,,,null,US_Cities_List/racine.png,US_Cities_List/hotsprings.png,,,,,,,,,,,,,,,,,,
493.5,,rt_plussign_withcolor,395932,,,yellow,,,,,50,US_Cities_List/racine.png,US_Cities_List/hotsprings.png,,,,,,,,,,,,,,,,,,
null,,rt_thecrossant_black,397051,,,black_plus_sign,,,,,null,,,1,1,,,,,,,,,,,,,,,,
null,,color_black,397153,,,black_plus_sign,,,,,null,,,,,,,,,,,,,,,,,,,,
null,,learn_phase(without_color),400160,,,black_plus_sign,,,,,null,US_Cities_List/shreveport.png,US_Cities_List/boulder.png,,,,,,,,,,,,,,,,,,
null,,black_cross(without_color),400995,,,yellow,,,,,null,US_Cities_List/shreveport.png,US_Cities_List/boulder.png,,,,,,,,,,,,,,,,,,
null,,rt_plussign_withcolor,401497,,,yellow,,,,,null,US_Cities_List/shreveport.png,US_Cities_List/boulder.png,,,,,,,,,,,,,,,,,,
1007.2000000476837,,rt_thecrossant_black,402666,,,black_plus_sign,,,,,50,,,1,1,,,,,,,,,,,,,,,,
null,,color_black,402769,,,black_plus_sign,,,,,null,,,,,,,,,,,,,,,,,,,,
null,,learn_phase(without_color),405780,,,black_plus_sign,,,,,null,US_Cities_List/carmel.png,US_Cities_List/racine.png,,,,,,,,,,,,,,,,,,
null,,black_cross(without_color),406352,,,yellow,,,,,null,US_Cities_List/carmel.png,US_Cities_List/racine.png,,,,,,,,,,,,,,,,,,
null,,rt_plussign_withcolor,406855,,,yellow,,,,,null,US_Cities_List/carmel.png,US_Cities_List/racine.png,,,,,,,,,,,,,,,,,,
934.8000000119209,,rt_thecrossant_black,408287,,,black_plus_sign,,,,,50,,,1,1,,,,,,,,,,,,,,,,
null,,color_black,408391,,,black_plus_sign,,,,,null,,,,,,,,,,,,,,,,,,,,
null,,learn_phase(without_color),411401,,,black_plus_sign,,,,,null,US_Cities_List/peoria.png,US_Cities_List/gatlinburg.png,,,,,,,,,,,,,,,,,,
null,,black_cross(without_color),412331,,,yellow,,,,,null,US_Cities_List/peoria.png,US_Cities_List/gatlinburg.png,,,,,,,,,,,,,,,,,,
403.5,,rt_plussign_withcolor,412835,,,yellow,,,,,50,US_Cities_List/peoria.png,US_Cities_List/gatlinburg.png,,,,,,,,,,,,,,,,,,
null,,rt_thecrossant_black,413909,,,black_plus_sign,,,,,null,,,1,1,,,,,,,,,,,,,,,,
null,,color_black,414011,,,black_plus_sign,,,,,null,,,,,,,,,,,,,,,,,,,,
null,,learn_phase(without_color),417022,,,black_plus_sign,,,,,null,US_Cities_List/westpalmbeach.png,US_Cities_List/boulder.png,,,,,,,,,,,,,,,,,,
null,,black_cross(without_color),418089,,,blue,,,,,null,US_Cities_List/westpalmbeach.png,US_Cities_List/boulder.png,,,,,,,,,,,,,,,,,,
null,,rt_plussign_withcolor,418590,,,blue,,,,,null,US_Cities_List/westpalmbeach.png,US_Cities_List/boulder.png,,,,,,,,,,,,,,,,,,
1081.7000000476837,,rt_thecrossant_black,419527,,,black_plus_sign,,,,,49,,,1,1,,,,,,,,,,,,,,,,
null,,color_black,419629,,,black_plus_sign,,,,,null,,,,,,,,,,,,,,,,,,,,
null,,learn_phase(without_color),422638,,,black_plus_sign,,,,,null,US_Cities_List/carmel.png,US_Cities_List/huntsville.png,,,,,,,,,,,,,,,,,,
null,,black_cross(without_color),423511,,,blue,,,,,null,US_Cities_List/carmel.png,US_Cities_List/huntsville.png,,,,,,,,,,,,,,,,,,
null,,rt_plussign_withcolor,424013,,,blue,,,,,null,US_Cities_List/carmel.png,US_Cities_List/huntsville.png,,,,,,,,,,,,,,,,,,
1276.6000000238419,,rt_thecrossant_black,425145,,,black_plus_sign,,,,,49,,,1,1,,,,,,,,,,,,,,,,
null,,color_black,425246,,,black_plus_sign,,,,,null,,,,,,,,,,,,,,,,,,,,
null,,learn_phase(without_color),428258,,,black_plus_sign,,,,,null,US_Cities_List/peoria.png,US_Cities_List/hotsprings.png,,,,,,,,,,,,,,,,,,
null,,black_cross(without_color),429161,,,yellow,,,,,null,US_Cities_List/peoria.png,US_Cities_List/hotsprings.png,,,,,,,,,,,,,,,,,,
395,,rt_plussign_withcolor,429663,,,yellow,,,,,50,US_Cities_List/peoria.png,US_Cities_List/hotsprings.png,,,,,,,,,,,,,,,,,,
null,,rt_thecrossant_black,430764,,,black_plus_sign,,,,,null,,,1,1,,,,,,,,,,,,,,,,
null,,color_black,430866,,,black_plus_sign,,,,,null,,,,,,,,,,,,,,,,,,,,
null,,learn_phase(without_color),433883,,,black_plus_sign,,,,,null,US_Cities_List/hotsprings.png,US_Cities_List/racine.png,,,,,,,,,,,,,,,,,,
null,,black_cross(without_color),434822,,,blue,,,,,null,US_Cities_List/hotsprings.png,US_Cities_List/racine.png,,,,,,,,,,,,,,,,,,
501.10000002384186,,rt_plussign_withcolor,435325,,,blue,,,,,49,US_Cities_List/hotsprings.png,US_Cities_List/racine.png,,,,,,,,,,,,,,,,,,
null,,rt_thecrossant_black,436389,,,black_plus_sign,,,,,null,,,1,1,,,,,,,,,,,,,,,,
null,,color_black,436491,,,black_plus_sign,,,,,null,,,,,,,,,,,,,,,,,,,,
null,,learn_phase(without_color),439500,,,black_plus_sign,,,,,null,US_Cities_List/boulder.png,US_Cities_List/westpalmbeach.png,,,,,,,,,,,,,,,,,,
null,,black_cross(without_color),440502,,,blue,,,,,null,US_Cities_List/boulder.png,US_Cities_List/westpalmbeach.png,,,,,,,,,,,,,,,,,,
null,,rt_plussign_withcolor,441003,,,blue,,,,,null,US_Cities_List/boulder.png,US_Cities_List/westpalmbeach.png,,,,,,,,,,,,,,,,,,
1078.199999988079,,rt_thecrossant_black,442007,,,black_plus_sign,,,,,49,,,1,1,,,,,,,,,,,,,,,,
null,,color_black,442109,,,black_plus_sign,,,,,null,,,,,,,,,,,,,,,,,,,,
null,,learn_phase(without_color),445121,,,black_plus_sign,,,,,null,US_Cities_List/racine.png,US_Cities_List/hotsprings.png,,,,,,,,,,,,,,,,,,
null,,black_cross(without_color),445552,,,blue,,,,,null,US_Cities_List/racine.png,US_Cities_List/hotsprings.png,,,,,,,,,,,,,,,,,,
null,,rt_plussign_withcolor,446054,,,blue,,,,,null,US_Cities_List/racine.png,US_Cities_List/hotsprings.png,,,,,,,,,,,,,,,,,,
1275.6000000238419,,rt_thecrossant_black,447627,,,black_plus_sign,,,,,49,,,1,1,,,,,,,,,,,,,,,,
null,,color_black,447729,,,black_plus_sign,,,,,null,,,,,,,,,,,,,,,,,,,,
null,,learn_phase(without_color),450746,,,black_plus_sign,,,,,null,US_Cities_List/racine.png,US_Cities_List/gatlinburg.png,,,,,,,,,,,,,,,,,,
null,,black_cross(without_color),451244,,,blue,,,,,null,US_Cities_List/racine.png,US_Cities_List/gatlinburg.png,,,,,,,,,,,,,,,,,,
null,,rt_plussign_withcolor,451745,,,blue,,,,,null,US_Cities_List/racine.png,US_Cities_List/gatlinburg.png,,,,,,,,,,,,,,,,,,
588.8000000119209,,rt_thecrossant_black,453252,,,black_plus_sign,,,,,49,,,1,1,,,,,,,,,,,,,,,,
null,,color_black,453354,,,black_plus_sign,,,,,null,,,,,,,,,,,,,,,,,,,,
null,,learn_phase(without_color),456366,,,black_plus_sign,,,,,null,US_Cities_List/carmel.png,US_Cities_List/racine.png,,,,,,,,,,,,,,,,,,
null,,black_cross(without_color),457386,,,yellow,,,,,null,US_Cities_List/carmel.png,US_Cities_List/racine.png,,,,,,,,,,,,,,,,,,
381.4000000357628,,rt_plussign_withcolor,457887,,,yellow,,,,,50,US_Cities_List/carmel.png,US_Cities_List/racine.png,,,,,,,,,,,,,,,,,,
null,,rt_thecrossant_black,458872,,,black_plus_sign,,,,,null,,,1,1,,,,,,,,,,,,,,,,
null,,color_black,458973,,,black_plus_sign,,,,,null,,,,,,,,,,,,,,,,,,,,
null,,learn_phase(without_color),461982,,,black_plus_sign,,,,,null,US_Cities_List/shreveport.png,US_Cities_List/boulder.png,,,,,,,,,,,,,,,,,,
null,,black_cross(without_color),462961,,,blue,,,,,null,US_Cities_List/shreveport.png,US_Cities_List/boulder.png,,,,,,,,,,,,,,,,,,
null,,rt_plussign_withcolor,463463,,,blue,,,,,null,US_Cities_List/shreveport.png,US_Cities_List/boulder.png,,,,,,,,,,,,,,,,,,
1325.8999999761581,,rt_thecrossant_black,464487,,,black_plus_sign,,,,,49,,,1,1,,,,,,,,,,,,,,,,
null,,color_black,464589,,,black_plus_sign,,,,,null,,,,,,,,,,,,,,,,,,,,
null,,learn_phase(without_color),467599,,,black_plus_sign,,,,,null,US_Cities_List/huntsville.png,US_Cities_List/hotsprings.png,,,,,,,,,,,,,,,,,,
null,,black_cross(without_color),468655,,,yellow,,,,,null,US_Cities_List/huntsville.png,US_Cities_List/hotsprings.png,,,,,,,,,,,,,,,,,,
371.19999998807907,,rt_plussign_withcolor,469156,,,yellow,,,,,50,US_Cities_List/huntsville.png,US_Cities_List/hotsprings.png,,,,,,,,,,,,,,,,,,
null,,rt_thecrossant_black,470104,,,black_plus_sign,,,,,null,,,1,1,,,,,,,,,,,,,,,,
null,,color_black,470206,,,black_plus_sign,,,,,null,,,,,,,,,,,,,,,,,,,,
null,,learn_phase(without_color),473216,,,black_plus_sign,,,,,null,US_Cities_List/newhope.png,US_Cities_List/westpalmbeach.png,,,,,,,,,,,,,,,,,,
null,,black_cross(without_color),473715,,,blue,,,,,null,US_Cities_List/newhope.png,US_Cities_List/westpalmbeach.png,,,,,,,,,,,,,,,,,,
null,,rt_plussign_withcolor,474217,,,blue,,,,,null,US_Cities_List/newhope.png,US_Cities_List/westpalmbeach.png,,,,,,,,,,,,,,,,,,
1269.9000000357628,,rt_thecrossant_black,475723,,,black_plus_sign,,,,,49,,,1,1,,,,,,,,,,,,,,,,
null,,color_black,475825,,,black_plus_sign,,,,,null,,,,,,,,,,,,,,,,,,,,
null,,learn_phase(without_color),478836,,,black_plus_sign,,,,,null,US_Cities_List/gatlinburg.png,US_Cities_List/racine.png,,,,,,,,,,,,,,,,,,
null,,black_cross(without_color),479693,,,blue,,,,,null,US_Cities_List/gatlinburg.png,US_Cities_List/racine.png,,,,,,,,,,,,,,,,,,
null,,rt_plussign_withcolor,480194,,,blue,,,,,null,US_Cities_List/gatlinburg.png,US_Cities_List/racine.png,,,,,,,,,,,,,,,,,,
607.1999999880791,,rt_thecrossant_black,481350,,,black_plus_sign,,,,,49,,,1,1,,,,,,,,,,,,,,,,
null,,color_black,481452,,,black_plus_sign,,,,,null,,,,,,,,,,,,,,,,,,,,
null,,learn_phase(without_color),484461,,,black_plus_sign,,,,,null,US_Cities_List/boulder.png,US_Cities_List/peoria.png,,,,,,,,,,,,,,,,,,
null,,black_cross(without_color),484865,,,blue,,,,,null,US_Cities_List/boulder.png,US_Cities_List/peoria.png,,,,,,,,,,,,,,,,,,
null,,rt_plussign_withcolor,485367,,,blue,,,,,null,US_Cities_List/boulder.png,US_Cities_List/peoria.png,,,,,,,,,,,,,,,,,,
963.4000000357628,,rt_thecrossant_black,486967,,,black_plus_sign,,,,,49,,,1,1,,,,,,,,,,,,,,,,
null,,color_black,487069,,,black_plus_sign,,,,,null,,,,,,,,,,,,,,,,,,,,
null,,learn_phase(without_color),490077,,,black_plus_sign,,,,,null,US_Cities_List/hotsprings.png,US_Cities_List/huntsville.png,,,,,,,,,,,,,,,,,,
null,,black_cross(without_color),490684,,,blue,,,,,null,US_Cities_List/hotsprings.png,US_Cities_List/huntsville.png,,,,,,,,,,,,,,,,,,
481.30000001192093,,rt_plussign_withcolor,491186,,,blue,,,,,49,US_Cities_List/hotsprings.png,US_Cities_List/huntsville.png,,,,,,,,,,,,,,,,,,
null,,rt_thecrossant_black,492594,,,black_plus_sign,,,,,null,,,1,1,,,,,,,,,,,,,,,,
null,,color_black,492696,,,black_plus_sign,,,,,null,,,,,,,,,,,,,,,,,,,,
null,,learn_phase(without_color),495706,,,black_plus_sign,,,,,null,US_Cities_List/newhope.png,US_Cities_List/westpalmbeach.png,,,,,,,,,,,,,,,,,,
null,,black_cross(without_color),496401,,,yellow,,,,,null,US_Cities_List/newhope.png,US_Cities_List/westpalmbeach.png,,,,,,,,,,,,,,,,,,
null,,rt_plussign_withcolor,496902,,,yellow,,,,,null,US_Cities_List/newhope.png,US_Cities_List/westpalmbeach.png,,,,,,,,,,,,,,,,,,
759.0999999642372,,rt_thecrossant_black,498212,,,black_plus_sign,,,,,50,,,1,1,,,,,,,,,,,,,,,,
null,,color_black,498315,,,black_plus_sign,,,,,null,,,,,,,,,,,,,,,,,,,,
null,,learn_phase(without_color),501324,,,black_plus_sign,,,,,null,US_Cities_List/shreveport.png,US_Cities_List/boulder.png,,,,,,,,,,,,,,,,,,
null,,black_cross(without_color),502055,,,blue,,,,,null,US_Cities_List/shreveport.png,US_Cities_List/boulder.png,,,,,,,,,,,,,,,,,,
null,,rt_plussign_withcolor,502556,,,blue,,,,,null,US_Cities_List/shreveport.png,US_Cities_List/boulder.png,,,,,,,,,,,,,,,,,,
1085.1000000238419,,rt_thecrossant_black,503830,,,black_plus_sign,,,,,49,,,1,1,,,,,,,,,,,,,,,,
null,,color_black,503942,,,black_plus_sign,,,,,null,,,,,,,,,,,,,,,,,,,,
null,,learn_phase(without_color),506953,,,black_plus_sign,,,,,null,US_Cities_List/racine.png,US_Cities_List/huntsville.png,,,,,,,,,,,,,,,,,,
null,,black_cross(without_color),507976,,,blue,,,,,null,US_Cities_List/racine.png,US_Cities_List/huntsville.png,,,,,,,,,,,,,,,,,,
null,,rt_plussign_withcolor,508478,,,blue,,,,,null,US_Cities_List/racine.png,US_Cities_List/huntsville.png,,,,,,,,,,,,,,,,,,
903.2000000476837,,rt_thecrossant_black,509460,,,black_plus_sign,,,,,49,,,1,1,,,,,,,,,,,,,,,,
null,,color_black,509562,,,black_plus_sign,,,,,null,,,,,,,,,,,,,,,,,,,,
null,,learn_phase(without_color),512573,,,black_plus_sign,,,,,null,US_Cities_List/leesburg.png,US_Cities_List/gatlinburg.png,,,,,,,,,,,,,,,,,,
null,,black_cross(without_color),513156,,,blue,,,,,null,US_Cities_List/leesburg.png,US_Cities_List/gatlinburg.png,,,,,,,,,,,,,,,,,,
null,,rt_plussign_withcolor,513658,,,blue,,,,,null,US_Cities_List/leesburg.png,US_Cities_List/gatlinburg.png,,,,,,,,,,,,,,,,,,
1174.800000011921,,rt_thecrossant_black,515088,,,black_plus_sign,,,,,49,,,1,1,,,,,,,,,,,,,,,,
null,,color_black,515190,,,black_plus_sign,,,,,null,,,,,,,,,,,,,,,,,,,,
null,,learn_phase(without_color),518199,,,black_plus_sign,,,,,null,US_Cities_List/huntsville.png,US_Cities_List/carmel.png,,,,,,,,,,,,,,,,,,
null,,black_cross(without_color),518780,,,yellow,,,,,null,US_Cities_List/huntsville.png,US_Cities_List/carmel.png,,,,,,,,,,,,,,,,,,
497.30000001192093,,rt_plussign_withcolor,519282,,,yellow,,,,,50,US_Cities_List/huntsville.png,US_Cities_List/carmel.png,,,,,,,,,,,,,,,,,,
null,,rt_thecrossant_black,520706,,,black_plus_sign,,,,,null,,,1,1,,,,,,,,,,,,,,,,
null,,color_black,520807,,,black_plus_sign,,,,,null,,,,,,,,,,,,,,,,,,,,
null,,learn_phase(without_color),523819,,,black_plus_sign,,,,,null,US_Cities_List/newhope.png,US_Cities_List/westpalmbeach.png,,,,,,,,,,,,,,,,,,
null,,black_cross(without_color),524423,,,blue,,,,,null,US_Cities_List/newhope.png,US_Cities_List/westpalmbeach.png,,,,,,,,,,,,,,,,,,
null,,rt_plussign_withcolor,524925,,,blue,,,,,null,US_Cities_List/newhope.png,US_Cities_List/westpalmbeach.png,,,,,,,,,,,,,,,,,,
710.4000000357628,,rt_thecrossant_black,526325,,,black_plus_sign,,,,,49,,,1,1,,,,,,,,,,,,,,,,
null,,color_black,526427,,,black_plus_sign,,,,,null,,,,,,,,,,,,,,,,,,,,
null,,learn_phase(without_color),529435,,,black_plus_sign,,,,,null,US_Cities_List/huntsville.png,US_Cities_List/racine.png,,,,,,,,,,,,,,,,,,
null,,black_cross(without_color),530266,,,yellow,,,,,null,US_Cities_List/huntsville.png,US_Cities_List/racine.png,,,,,,,,,,,,,,,,,,
428.4000000357628,,rt_plussign_withcolor,530767,,,yellow,,,,,50,US_Cities_List/huntsville.png,US_Cities_List/racine.png,,,,,,,,,,,,,,,,,,
null,,rt_thecrossant_black,531945,,,black_plus_sign,,,,,null,,,1,1,,,,,,,,,,,,,,,,
null,,color_black,532047,,,black_plus_sign,,,,,null,,,,,,,,,,,,,,,,,,,,
null,,learn_phase(without_color),535062,,,black_plus_sign,,,,,null,US_Cities_List/westpalmbeach.png,US_Cities_List/leesburg.png,,,,,,,,,,,,,,,,,,
null,,black_cross(without_color),535901,,,yellow,,,,,null,US_Cities_List/westpalmbeach.png,US_Cities_List/leesburg.png,,,,,,,,,,,,,,,,,,
null,,rt_plussign_withcolor,536403,,,yellow,,,,,null,US_Cities_List/westpalmbeach.png,US_Cities_List/leesburg.png,,,,,,,,,,,,,,,,,,
992.9000000357628,,rt_thecrossant_black,537568,,,black_plus_sign,,,,,50,,,1,1,,,,,,,,,,,,,,,,
null,,color_black,537670,,,black_plus_sign,,,,,null,,,,,,,,,,,,,,,,,,,,
null,,learn_phase(without_color),540684,,,black_plus_sign,,,,,null,US_Cities_List/cornwall.png,US_Cities_List/carmel.png,,,,,,,,,,,,,,,,,,
null,,black_cross(without_color),541319,,,yellow,,,,,null,US_Cities_List/cornwall.png,US_Cities_List/carmel.png,,,,,,,,,,,,,,,,,,
null,,rt_plussign_withcolor,541821,,,yellow,,,,,null,US_Cities_List/cornwall.png,US_Cities_List/carmel.png,,,,,,,,,,,,,,,,,,
1008.4000000357628,,rt_thecrossant_black,543191,,,black_plus_sign,,,,,50,,,1,1,,,,,,,,,,,,,,,,
null,,color_black,543294,,,black_plus_sign,,,,,null,,,,,,,,,,,,,,,,,,,,
null,,learn_phase(without_color),546306,,,black_plus_sign,,,,,null,US_Cities_List/leesburg.png,US_Cities_List/westpalmbeach.png,,,,,,,,,,,,,,,,,,
null,,black_cross(without_color),547112,,,yellow,,,,,null,US_Cities_List/leesburg.png,US_Cities_List/westpalmbeach.png,,,,,,,,,,,,,,,,,,
408,,rt_plussign_withcolor,547613,,,yellow,,,,,50,US_Cities_List/leesburg.png,US_Cities_List/westpalmbeach.png,,,,,,,,,,,,,,,,,,
null,,rt_thecrossant_black,548813,,,black_plus_sign,,,,,null,,,1,1,,,,,,,,,,,,,,,,
null,,color_black,548916,,,black_plus_sign,,,,,null,,,,,,,,,,,,,,,,,,,,
null,,learn_phase(without_color),551926,,,black_plus_sign,,,,,null,US_Cities_List/peoria.png,US_Cities_List/hotsprings.png,,,,,,,,,,,,,,,,,,
null,,black_cross(without_color),552490,,,blue,,,,,null,US_Cities_List/peoria.png,US_Cities_List/hotsprings.png,,,,,,,,,,,,,,,,,,
null,,rt_plussign_withcolor,552992,,,blue,,,,,null,US_Cities_List/peoria.png,US_Cities_List/hotsprings.png,,,,,,,,,,,,,,,,,,
939.6999999880791,,rt_thecrossant_black,554432,,,black_plus_sign,,,,,49,,,1,1,,,,,,,,,,,,,,,,
null,,color_black,554536,,,black_plus_sign,,,,,null,,,,,,,,,,,,,,,,,,,,
null,,learn_phase(without_color),557545,,,black_plus_sign,,,,,null,US_Cities_List/newhope.png,US_Cities_List/westpalmbeach.png,,,,,,,,,,,,,,,,,,
null,,black_cross(without_color),558068,,,blue,,,,,null,US_Cities_List/newhope.png,US_Cities_List/westpalmbeach.png,,,,,,,,,,,,,,,,,,
null,,rt_plussign_withcolor,558570,,,blue,,,,,null,US_Cities_List/newhope.png,US_Cities_List/westpalmbeach.png,,,,,,,,,,,,,,,,,,
728.6999999880791,,rt_thecrossant_black,560051,,,black_plus_sign,,,,,49,,,1,1,,,,,,,,,,,,,,,,
null,,color_black,560152,,,black_plus_sign,,,,,null,,,,,,,,,,,,,,,,,,,,
null,,learn_phase(without_color),563161,,,black_plus_sign,,,,,null,US_Cities_List/shreveport.png,US_Cities_List/boulder.png,,,,,,,,,,,,,,,,,,
null,,black_cross(without_color),563565,,,blue,,,,,null,US_Cities_List/shreveport.png,US_Cities_List/boulder.png,,,,,,,,,,,,,,,,,,
489.7999999523163,,rt_plussign_withcolor,564067,,,blue,,,,,49,US_Cities_List/shreveport.png,US_Cities_List/boulder.png,,,,,,,,,,,,,,,,,,
null,,rt_thecrossant_black,565669,,,black_plus_sign,,,,,null,,,1,1,,,,,,,,,,,,,,,,
null,,color_black,565771,,,black_plus_sign,,,,,null,,,,,,,,,,,,,,,,,,,,
null,,learn_phase(without_color),568780,,,black_plus_sign,,,,,null,US_Cities_List/peoria.png,US_Cities_List/hotsprings.png,,,,,,,,,,,,,,,,,,
null,,black_cross(without_color),569833,,,yellow,,,,,null,US_Cities_List/peoria.png,US_Cities_List/hotsprings.png,,,,,,,,,,,,,,,,,,
469.19999998807907,,rt_plussign_withcolor,570335,,,yellow,,,,,50,US_Cities_List/peoria.png,US_Cities_List/hotsprings.png,,,,,,,,,,,,,,,,,,
null,,rt_thecrossant_black,571287,,,black_plus_sign,,,,,null,,,1,1,,,,,,,,,,,,,,,,
null,,color_black,571388,,,black_plus_sign,,,,,null,,,,,,,,,,,,,,,,,,,,
null,,learn_phase(without_color),574399,,,black_plus_sign,,,,,null,US_Cities_List/boulder.png,US_Cities_List/peoria.png,,,,,,,,,,,,,,,,,,
null,,black_cross(without_color),574895,,,blue,,,,,null,US_Cities_List/boulder.png,US_Cities_List/peoria.png,,,,,,,,,,,,,,,,,,
null,,rt_plussign_withcolor,575396,,,blue,,,,,null,US_Cities_List/boulder.png,US_Cities_List/peoria.png,,,,,,,,,,,,,,,,,,
1298.800000011921,,rt_thecrossant_black,576904,,,black_plus_sign,,,,,49,,,1,1,,,,,,,,,,,,,,,,
null,,color_black,577006,,,black_plus_sign,,,,,null,,,,,,,,,,,,,,,,,,,,
null,,learn_phase(without_color),580016,,,black_plus_sign,,,,,null,US_Cities_List/gatlinburg.png,US_Cities_List/leesburg.png,,,,,,,,,,,,,,,,,,
null,,black_cross(without_color),580755,,,yellow,,,,,null,US_Cities_List/gatlinburg.png,US_Cities_List/leesburg.png,,,,,,,,,,,,,,,,,,
471.9000000357628,,rt_plussign_withcolor,581257,,,yellow,,,,,50,US_Cities_List/gatlinburg.png,US_Cities_List/leesburg.png,,,,,,,,,,,,,,,,,,
null,,rt_thecrossant_black,582524,,,black_plus_sign,,,,,null,,,1,1,,,,,,,,,,,,,,,,
null,,color_black,582626,,,black_plus_sign,,,,,null,,,,,,,,,,,,,,,,,,,,
null,,learn_phase(without_color),585635,,,black_plus_sign,,,,,null,US_Cities_List/racine.png,US_Cities_List/huntsville.png,,,,,,,,,,,,,,,,,,
null,,black_cross(without_color),586728,,,blue,,,,,null,US_Cities_List/racine.png,US_Cities_List/huntsville.png,,,,,,,,,,,,,,,,,,
null,,rt_plussign_withcolor,587244,,,blue,,,,,null,US_Cities_List/racine.png,US_Cities_List/huntsville.png,,,,,,,,,,,,,,,,,,
1046.4000000357628,,rt_thecrossant_black,588156,,,black_plus_sign,,,,,49,,,1,1,,,,,,,,,,,,,,,,
null,,color_black,588258,,,black_plus_sign,,,,,null,,,,,,,,,,,,,,,,,,,,
null,,learn_phase(without_color),591271,,,black_plus_sign,,,,,null,US_Cities_List/carmel.png,US_Cities_List/cornwall.png,,,,,,,,,,,,,,,,,,
null,,black_cross(without_color),592233,,,blue,,,,,null,US_Cities_List/carmel.png,US_Cities_List/cornwall.png,,,,,,,,,,,,,,,,,,
480.69999998807907,,rt_plussign_withcolor,592735,,,blue,,,,,49,US_Cities_List/carmel.png,US_Cities_List/cornwall.png,,,,,,,,,,,,,,,,,,
null,,rt_thecrossant_black,593777,,,black_plus_sign,,,,,null,,,1,1,,,,,,,,,,,,,,,,
null,,color_black,593881,,,black_plus_sign,,,,,null,,,,,,,,,,,,,,,,,,,,
null,,learn_phase(without_color),596892,,,black_plus_sign,,,,,null,US_Cities_List/leesburg.png,US_Cities_List/westpalmbeach.png,,,,,,,,,,,,,,,,,,
null,,black_cross(without_color),597870,,,yellow,,,,,null,US_Cities_List/leesburg.png,US_Cities_List/westpalmbeach.png,,,,,,,,,,,,,,,,,,
446.60000002384186,,rt_plussign_withcolor,598372,,,yellow,,,,,50,US_Cities_List/leesburg.png,US_Cities_List/westpalmbeach.png,,,,,,,,,,,,,,,,,,
null,,rt_thecrossant_black,599398,,,black_plus_sign,,,,,null,,,1,1,,,,,,,,,,,,,,,,
null,,color_black,599500,,,black_plus_sign,,,,,null,,,,,,,,,,,,,,,,,,,,
null,,learn_phase(without_color),602514,,,black_plus_sign,,,,,null,US_Cities_List/racine.png,US_Cities_List/gatlinburg.png,,,,,,,,,,,,,,,,,,
null,,black_cross(without_color),603117,,,yellow,,,,,null,US_Cities_List/racine.png,US_Cities_List/gatlinburg.png,,,,,,,,,,,,,,,,,,
447.5,,rt_plussign_withcolor,603620,,,yellow,,,,,50,US_Cities_List/racine.png,US_Cities_List/gatlinburg.png,,,,,,,,,,,,,,,,,,
null,,rt_thecrossant_black,605022,,,black_plus_sign,,,,,null,,,1,1,,,,,,,,,,,,,,,,
null,,color_black,605125,,,black_plus_sign,,,,,null,,,,,,,,,,,,,,,,,,,,
null,,learn_phase(without_color),608136,,,black_plus_sign,,,,,null,US_Cities_List/carmel.png,US_Cities_List/racine.png,,,,,,,,,,,,,,,,,,
null,,black_cross(without_color),608982,,,blue,,,,,null,US_Cities_List/carmel.png,US_Cities_List/racine.png,,,,,,,,,,,,,,,,,,
null,,rt_plussign_withcolor,609484,,,blue,,,,,null,US_Cities_List/carmel.png,US_Cities_List/racine.png,,,,,,,,,,,,,,,,,,
903,,rt_thecrossant_black,610642,,,black_plus_sign,,,,,49,,,1,1,,,,,,,,,,,,,,,,
null,,color_black,610744,,,black_plus_sign,,,,,null,,,,,,,,,,,,,,,,,,,,
null,,learn_phase(without_color),613751,,,black_plus_sign,,,,,null,US_Cities_List/shreveport.png,US_Cities_List/boulder.png,,,,,,,,,,,,,,,,,,
null,,black_cross(without_color),614334,,,yellow,,,,,null,US_Cities_List/shreveport.png,US_Cities_List/boulder.png,,,,,,,,,,,,,,,,,,
null,,rt_plussign_withcolor,614836,,,yellow,,,,,null,US_Cities_List/shreveport.png,US_Cities_List/boulder.png,,,,,,,,,,,,,,,,,,
1016.5999999642372,,rt_thecrossant_black,616257,,,black_plus_sign,,,,,50,,,1,1,,,,,,,,,,,,,,,,
null,,color_black,616359,,,black_plus_sign,,,,,null,,,,,,,,,,,,,,,,,,,,
null,,learn_phase(without_color),619369,,,black_plus_sign,,,,,null,US_Cities_List/huntsville.png,US_Cities_List/carmel.png,,,,,,,,,,,,,,,,,,
null,,black_cross(without_color),620374,,,yellow,,,,,null,US_Cities_List/huntsville.png,US_Cities_List/carmel.png,,,,,,,,,,,,,,,,,,
null,,rt_plussign_withcolor,620875,,,yellow,,,,,null,US_Cities_List/huntsville.png,US_Cities_List/carmel.png,,,,,,,,,,,,,,,,,,
691,,rt_thecrossant_black,621875,,,black_plus_sign,,,,,50,,,1,1,,,,,,,,,,,,,,,,
null,,color_black,621978,,,black_plus_sign,,,,,null,,,,,,,,,,,,,,,,,,,,
null,,learn_phase(without_color),624996,,,black_plus_sign,,,,,null,US_Cities_List/racine.png,US_Cities_List/carmel.png,,,,,,,,,,,,,,,,,,
null,,black_cross(without_color),626020,,,blue,,,,,null,US_Cities_List/racine.png,US_Cities_List/carmel.png,,,,,,,,,,,,,,,,,,
null,,rt_plussign_withcolor,626522,,,blue,,,,,null,US_Cities_List/racine.png,US_Cities_List/carmel.png,,,,,,,,,,,,,,,,,,
1155.800000011921,,rt_thecrossant_black,627503,,,black_plus_sign,,,,,49,,,1,1,,,,,,,,,,,,,,,,
null,,color_black,627605,,,black_plus_sign,,,,,null,,,,,,,,,,,,,,,,,,,,
null,,learn_phase(without_color),630617,,,black_plus_sign,,,,,null,US_Cities_List/hotsprings.png,US_Cities_List/huntsville.png,,,,,,,,,,,,,,,,,,
null,,black_cross(without_color),631054,,,blue,,,,,null,US_Cities_List/hotsprings.png,US_Cities_List/huntsville.png,,,,,,,,,,,,,,,,,,
null,,rt_plussign_withcolor,631556,,,blue,,,,,null,US_Cities_List/hotsprings.png,US_Cities_List/huntsville.png,,,,,,,,,,,,,,,,,,
1662.800000011921,,rt_thecrossant_black,633123,,,black_plus_sign,,,,,49,,,1,1,,,,,,,,,,,,,,,,
null,,color_black,633225,,,black_plus_sign,,,,,null,,,,,,,,,,,,,,,,,,,,
null,,learn_phase(without_color),636239,,,black_plus_sign,,,,,null,US_Cities_List/boulder.png,US_Cities_List/peoria.png,,,,,,,,,,,,,,,,,,
null,,black_cross(without_color),637111,,,yellow,,,,,null,US_Cities_List/boulder.png,US_Cities_List/peoria.png,,,,,,,,,,,,,,,,,,
312.80000001192093,,rt_plussign_withcolor,637612,,,yellow,,,,,50,US_Cities_List/boulder.png,US_Cities_List/peoria.png,,,,,,,,,,,,,,,,,,
null,,rt_thecrossant_black,638744,,,black_plus_sign,,,,,null,,,1,1,,,,,,,,,,,,,,,,
null,,color_black,638846,,,black_plus_sign,,,,,null,,,,,,,,,,,,,,,,,,,,
16391.299999952316,,learn_break,655239,,,learn_break,,,,,32,,,,,,,,,,,,,,,,,,,,
null,,html-keyboard-response,656242,,,<p></p>,,,,,null,,,,,,,,,,,,,,,,,,,,
null,,learn_phase(without_color),659251,,,black_plus_sign,,,,,null,US_Cities_List/carmel.png,US_Cities_List/huntsville.png,,,,,,,,,,,,,,,,,,
null,,black_cross(without_color),660130,,,blue,,,,,null,US_Cities_List/carmel.png,US_Cities_List/huntsville.png,,,,,,,,,,,,,,,,,,
474.69999998807907,,rt_plussign_withcolor,660632,,,blue,,,,,49,US_Cities_List/carmel.png,US_Cities_List/huntsville.png,,,,,,,,,,,,,,,,,,
null,,rt_thecrossant_black,661756,,,black_plus_sign,,,,,null,,,1,1,,,,,,,,,,,,,,,,
null,,color_black,661859,,,black_plus_sign,,,,,null,,,,,,,,,,,,,,,,,,,,
null,,learn_phase(without_color),664868,,,black_plus_sign,,,,,null,US_Cities_List/leesburg.png,US_Cities_List/westpalmbeach.png,,,,,,,,,,,,,,,,,,
null,,black_cross(without_color),665341,,,blue,,,,,null,US_Cities_List/leesburg.png,US_Cities_List/westpalmbeach.png,,,,,,,,,,,,,,,,,,
null,,rt_plussign_withcolor,665843,,,blue,,,,,null,US_Cities_List/leesburg.png,US_Cities_List/westpalmbeach.png,,,,,,,,,,,,,,,,,,
1120.9000000357628,,rt_thecrossant_black,667374,,,black_plus_sign,,,,,49,,,1,1,,,,,,,,,,,,,,,,
null,,color_black,667477,,,black_plus_sign,,,,,null,,,,,,,,,,,,,,,,,,,,
null,,learn_phase(without_color),670489,,,black_plus_sign,,,,,null,US_Cities_List/cornwall.png,US_Cities_List/carmel.png,,,,,,,,,,,,,,,,,,
null,,black_cross(without_color),671490,,,blue,,,,,null,US_Cities_List/cornwall.png,US_Cities_List/carmel.png,,,,,,,,,,,,,,,,,,
null,,rt_plussign_withcolor,671992,,,blue,,,,,null,US_Cities_List/cornwall.png,US_Cities_List/carmel.png,,,,,,,,,,,,,,,,,,
572.1000000238419,,rt_thecrossant_black,672996,,,black_plus_sign,,,,,49,,,1,1,,,,,,,,,,,,,,,,
null,,color_black,673098,,,black_plus_sign,,,,,null,,,,,,,,,,,,,,,,,,,,
null,,learn_phase(without_color),676108,,,black_plus_sign,,,,,null,US_Cities_List/racine.png,US_Cities_List/gatlinburg.png,,,,,,,,,,,,,,,,,,
null,,black_cross(without_color),676608,,,yellow,,,,,null,US_Cities_List/racine.png,US_Cities_List/gatlinburg.png,,,,,,,,,,,,,,,,,,
null,,rt_plussign_withcolor,677110,,,yellow,,,,,null,US_Cities_List/racine.png,US_Cities_List/gatlinburg.png,,,,,,,,,,,,,,,,,,
1130.1000000238419,,rt_thecrossant_black,678615,,,black_plus_sign,,,,,50,,,1,1,,,,,,,,,,,,,,,,
null,,color_black,678717,,,black_plus_sign,,,,,null,,,,,,,,,,,,,,,,,,,,
null,,learn_phase(without_color),681723,,,black_plus_sign,,,,,null,US_Cities_List/hanover.png,US_Cities_List/huntsville.png,,,,,,,,,,,,,,,,,,
null,,black_cross(without_color),682143,,,yellow,,,,,null,US_Cities_List/hanover.png,US_Cities_List/huntsville.png,,,,,,,,,,,,,,,,,,
null,,rt_plussign_withcolor,682646,,,yellow,,,,,null,US_Cities_List/hanover.png,US_Cities_List/huntsville.png,,,,,,,,,,,,,,,,,,
682.5,,rt_thecrossant_black,684230,,,black_plus_sign,,,,,50,,,1,1,,,,,,,,,,,,,,,,
null,,color_black,684333,,,black_plus_sign,,,,,null,,,,,,,,,,,,,,,,,,,,
null,,learn_phase(without_color),687342,,,black_plus_sign,,,,,null,US_Cities_List/hanover.png,US_Cities_List/huntsville.png,,,,,,,,,,,,,,,,,,
null,,black_cross(without_color),687847,,,blue,,,,,null,US_Cities_List/hanover.png,US_Cities_List/huntsville.png,,,,,,,,,,,,,,,,,,
null,,rt_plussign_withcolor,688348,,,blue,,,,,null,US_Cities_List/hanover.png,US_Cities_List/huntsville.png,,,,,,,,,,,,,,,,,,
573.1000000238419,,rt_thecrossant_black,689849,,,black_plus_sign,,,,,49,,,1,1,,,,,,,,,,,,,,,,
null,,color_black,689952,,,black_plus_sign,,,,,null,,,,,,,,,,,,,,,,,,,,
null,,learn_phase(without_color),692962,,,black_plus_sign,,,,,null,US_Cities_List/racine.png,US_Cities_List/huntsville.png,,,,,,,,,,,,,,,,,,
null,,black_cross(without_color),694027,,,yellow,,,,,null,US_Cities_List/racine.png,US_Cities_List/huntsville.png,,,,,,,,,,,,,,,,,,
null,,rt_plussign_withcolor,694529,,,yellow,,,,,null,US_Cities_List/racine.png,US_Cities_List/huntsville.png,,,,,,,,,,,,,,,,,,
632,,rt_thecrossant_black,695469,,,black_plus_sign,,,,,50,,,1,1,,,,,,,,,,,,,,,,
null,,color_black,695571,,,black_plus_sign,,,,,null,,,,,,,,,,,,,,,,,,,,
null,,learn_phase(without_color),698581,,,black_plus_sign,,,,,null,US_Cities_List/peoria.png,US_Cities_List/hotsprings.png,,,,,,,,,,,,,,,,,,
null,,black_cross(without_color),699391,,,blue,,,,,null,US_Cities_List/peoria.png,US_Cities_List/hotsprings.png,,,,,,,,,,,,,,,,,,
null,,rt_plussign_withcolor,699893,,,blue,,,,,null,US_Cities_List/peoria.png,US_Cities_List/hotsprings.png,,,,,,,,,,,,,,,,,,
1272.800000011921,,rt_thecrossant_black,701090,,,black_plus_sign,,,,,49,,,1,1,,,,,,,,,,,,,,,,
null,,color_black,701192,,,black_plus_sign,,,,,null,,,,,,,,,,,,,,,,,,,,
null,,learn_phase(without_color),704204,,,black_plus_sign,,,,,null,US_Cities_List/westpalmbeach.png,US_Cities_List/newhope.png,,,,,,,,,,,,,,,,,,
null,,black_cross(without_color),704923,,,yellow,,,,,null,US_Cities_List/westpalmbeach.png,US_Cities_List/newhope.png,,,,,,,,,,,,,,,,,,
null,,rt_plussign_withcolor,705425,,,yellow,,,,,null,US_Cities_List/westpalmbeach.png,US_Cities_List/newhope.png,,,,,,,,,,,,,,,,,,
999,,rt_thecrossant_black,706711,,,black_plus_sign,,,,,50,,,1,1,,,,,,,,,,,,,,,,
null,,color_black,706818,,,black_plus_sign,,,,,null,,,,,,,,,,,,,,,,,,,,
null,,learn_phase(without_color),709831,,,black_plus_sign,,,,,null,US_Cities_List/peoria.png,US_Cities_List/hotsprings.png,,,,,,,,,,,,,,,,,,
null,,black_cross(without_color),710868,,,blue,,,,,null,US_Cities_List/peoria.png,US_Cities_List/hotsprings.png,,,,,,,,,,,,,,,,,,
null,,rt_plussign_withcolor,711371,,,blue,,,,,null,US_Cities_List/peoria.png,US_Cities_List/hotsprings.png,,,,,,,,,,,,,,,,,,
904,,rt_thecrossant_black,712340,,,black_plus_sign,,,,,49,,,1,1,,,,,,,,,,,,,,,,
null,,color_black,712445,,,black_plus_sign,,,,,null,,,,,,,,,,,,,,,,,,,,
null,,learn_phase(without_color),715457,,,black_plus_sign,,,,,null,US_Cities_List/racine.png,US_Cities_List/hotsprings.png,,,,,,,,,,,,,,,,,,
null,,black_cross(without_color),716217,,,yellow,,,,,null,US_Cities_List/racine.png,US_Cities_List/hotsprings.png,,,,,,,,,,,,,,,,,,
473.89999997615814,,rt_plussign_withcolor,716719,,,yellow,,,,,50,US_Cities_List/racine.png,US_Cities_List/hotsprings.png,,,,,,,,,,,,,,,,,,
null,,rt_thecrossant_black,717963,,,black_plus_sign,,,,,null,,,1,1,,,,,,,,,,,,,,,,
null,,color_black,718066,,,black_plus_sign,,,,,null,,,,,,,,,,,,,,,,,,,,
null,,learn_phase(without_color),721073,,,black_plus_sign,,,,,null,US_Cities_List/huntsville.png,US_Cities_List/carmel.png,,,,,,,,,,,,,,,,,,
null,,black_cross(without_color),721809,,,blue,,,,,null,US_Cities_List/huntsville.png,US_Cities_List/carmel.png,,,,,,,,,,,,,,,,,,
null,,rt_plussign_withcolor,722311,,,blue,,,,,null,US_Cities_List/huntsville.png,US_Cities_List/carmel.png,,,,,,,,,,,,,,,,,,
919.5999999642372,,rt_thecrossant_black,723579,,,black_plus_sign,,,,,49,,,1,1,,,,,,,,,,,,,,,,
null,,color_black,723681,,,black_plus_sign,,,,,null,,,,,,,,,,,,,,,,,,,,
null,,learn_phase(without_color),726690,,,black_plus_sign,,,,,null,US_Cities_List/westpalmbeach.png,US_Cities_List/leesburg.png,,,,,,,,,,,,,,,,,,
null,,black_cross(without_color),727426,,,blue,,,,,null,US_Cities_List/westpalmbeach.png,US_Cities_List/leesburg.png,,,,,,,,,,,,,,,,,,
null,,rt_plussign_withcolor,727927,,,blue,,,,,null,US_Cities_List/westpalmbeach.png,US_Cities_List/leesburg.png,,,,,,,,,,,,,,,,,,
850.1999999880791,,rt_thecrossant_black,729195,,,black_plus_sign,,,,,49,,,1,1,,,,,,,,,,,,,,,,
null,,color_black,729297,,,black_plus_sign,,,,,null,,,,,,,,,,,,,,,,,,,,
null,,learn_phase(without_color),732307,,,black_plus_sign,,,,,null,US_Cities_List/huntsville.png,US_Cities_List/hotsprings.png,,,,,,,,,,,,,,,,,,
null,,black_cross(without_color),733261,,,yellow,,,,,null,US_Cities_List/huntsville.png,US_Cities_List/hotsprings.png,,,,,,,,,,,,,,,,,,
414.30000001192093,,rt_plussign_withcolor,733763,,,yellow,,,,,50,US_Cities_List/huntsville.png,US_Cities_List/hotsprings.png,,,,,,,,,,,,,,,,,,
null,,rt_thecrossant_black,734813,,,black_plus_sign,,,,,null,,,1,1,,,,,,,,,,,,,,,,
null,,color_black,734915,,,black_plus_sign,,,,,null,,,,,,,,,,,,,,,,,,,,
null,,learn_phase(without_color),737924,,,black_plus_sign,,,,,null,US_Cities_List/peoria.png,US_Cities_List/boulder.png,,,,,,,,,,,,,,,,,,
null,,black_cross(without_color),738730,,,blue,,,,,null,US_Cities_List/peoria.png,US_Cities_List/boulder.png,,,,,,,,,,,,,,,,,,
null,,rt_plussign_withcolor,739231,,,blue,,,,,null,US_Cities_List/peoria.png,US_Cities_List/boulder.png,,,,,,,,,,,,,,,,,,
1162.3999999761581,,rt_thecrossant_black,740430,,,black_plus_sign,,,,,49,,,1,1,,,,,,,,,,,,,,,,
null,,color_black,740543,,,black_plus_sign,,,,,null,,,,,,,,,,,,,,,,,,,,
null,,learn_phase(without_color),743554,,,black_plus_sign,,,,,null,US_Cities_List/racine.png,US_Cities_List/gatlinburg.png,,,,,,,,,,,,,,,,,,
null,,black_cross(without_color),743977,,,yellow,,,,,null,US_Cities_List/racine.png,US_Cities_List/gatlinburg.png,,,,,,,,,,,,,,,,,,
480.5999999642372,,rt_plussign_withcolor,744479,,,yellow,,,,,50,US_Cities_List/racine.png,US_Cities_List/gatlinburg.png,,,,,,,,,,,,,,,,,,
null,,rt_thecrossant_black,746061,,,black_plus_sign,,,,,null,,,1,1,,,,,,,,,,,,,,,,
null,,color_black,746163,,,black_plus_sign,,,,,null,,,,,,,,,,,,,,,,,,,,
null,,learn_phase(without_color),749175,,,black_plus_sign,,,,,null,US_Cities_List/gatlinburg.png,US_Cities_List/peoria.png,,,,,,,,,,,,,,,,,,
null,,black_cross(without_color),750155,,,blue,,,,,null,US_Cities_List/gatlinburg.png,US_Cities_List/peoria.png,,,,,,,,,,,,,,,,,,
null,,rt_plussign_withcolor,750656,,,blue,,,,,null,US_Cities_List/gatlinburg.png,US_Cities_List/peoria.png,,,,,,,,,,,,,,,,,,
550.6999999880791,,rt_thecrossant_black,751682,,,black_plus_sign,,,,,49,,,1,1,,,,,,,,,,,,,,,,
null,,color_black,751784,,,black_plus_sign,,,,,null,,,,,,,,,,,,,,,,,,,,
null,,learn_phase(without_color),754795,,,black_plus_sign,,,,,null,US_Cities_List/westpalmbeach.png,US_Cities_List/leesburg.png,,,,,,,,,,,,,,,,,,
null,,black_cross(without_color),755453,,,yellow,,,,,null,US_Cities_List/westpalmbeach.png,US_Cities_List/leesburg.png,,,,,,,,,,,,,,,,,,
null,,rt_plussign_withcolor,755955,,,yellow,,,,,null,US_Cities_List/westpalmbeach.png,US_Cities_List/leesburg.png,,,,,,,,,,,,,,,,,,
1129.8999999761581,,rt_thecrossant_black,757302,,,black_plus_sign,,,,,50,,,1,1,,,,,,,,,,,,,,,,
null,,color_black,757406,,,black_plus_sign,,,,,null,,,,,,,,,,,,,,,,,,,,
null,,learn_phase(without_color),760416,,,black_plus_sign,,,,,null,US_Cities_List/huntsville.png,US_Cities_List/hanover.png,,,,,,,,,,,,,,,,,,
null,,black_cross(without_color),761156,,,blue,,,,,null,US_Cities_List/huntsville.png,US_Cities_List/hanover.png,,,,,,,,,,,,,,,,,,
451.89999997615814,,rt_plussign_withcolor,761658,,,blue,,,,,49,US_Cities_List/huntsville.png,US_Cities_List/hanover.png,,,,,,,,,,,,,,,,,,
null,,rt_thecrossant_black,762922,,,black_plus_sign,,,,,null,,,1,1,,,,,,,,,,,,,,,,
null,,color_black,763025,,,black_plus_sign,,,,,null,,,,,,,,,,,,,,,,,,,,
null,,learn_phase(without_color),766035,,,black_plus_sign,,,,,null,US_Cities_List/westpalmbeach.png,US_Cities_List/newhope.png,,,,,,,,,,,,,,,,,,
null,,black_cross(without_color),766599,,,blue,,,,,null,US_Cities_List/westpalmbeach.png,US_Cities_List/newhope.png,,,,,,,,,,,,,,,,,,
null,,rt_plussign_withcolor,767100,,,blue,,,,,null,US_Cities_List/westpalmbeach.png,US_Cities_List/newhope.png,,,,,,,,,,,,,,,,,,
1238.2999999523163,,rt_thecrossant_black,768540,,,black_plus_sign,,,,,49,,,1,1,,,,,,,,,,,,,,,,
null,,color_black,768642,,,black_plus_sign,,,,,null,,,,,,,,,,,,,,,,,,,,
null,,learn_phase(without_color),771650,,,black_plus_sign,,,,,null,US_Cities_List/huntsville.png,US_Cities_List/carmel.png,,,,,,,,,,,,,,,,,,
null,,black_cross(without_color),772345,,,blue,,,,,null,US_Cities_List/huntsville.png,US_Cities_List/carmel.png,,,,,,,,,,,,,,,,,,
436.4000000357628,,rt_plussign_withcolor,772852,,,blue,,,,,49,US_Cities_List/huntsville.png,US_Cities_List/carmel.png,,,,,,,,,,,,,,,,,,
null,,rt_thecrossant_black,774162,,,black_plus_sign,,,,,null,,,1,1,,,,,,,,,,,,,,,,
null,,color_black,774263,,,black_plus_sign,,,,,null,,,,,,,,,,,,,,,,,,,,
null,,learn_phase(without_color),777271,,,black_plus_sign,,,,,null,US_Cities_List/boulder.png,US_Cities_List/westpalmbeach.png,,,,,,,,,,,,,,,,,,
null,,black_cross(without_color),778320,,,blue,,,,,null,US_Cities_List/boulder.png,US_Cities_List/westpalmbeach.png,,,,,,,,,,,,,,,,,,
null,,rt_plussign_withcolor,778831,,,blue,,,,,null,US_Cities_List/boulder.png,US_Cities_List/westpalmbeach.png,,,,,,,,,,,,,,,,,,
903.3000000119209,,rt_thecrossant_black,779786,,,black_plus_sign,,,,,49,,,1,1,,,,,,,,,,,,,,,,
null,,color_black,779890,,,black_plus_sign,,,,,null,,,,,,,,,,,,,,,,,,,,
null,,learn_phase(without_color),782899,,,black_plus_sign,,,,,null,US_Cities_List/peoria.png,US_Cities_List/hotsprings.png,,,,,,,,,,,,,,,,,,
null,,black_cross(without_color),783540,,,blue,,,,,null,US_Cities_List/peoria.png,US_Cities_List/hotsprings.png,,,,,,,,,,,,,,,,,,
null,,rt_plussign_withcolor,784043,,,blue,,,,,null,US_Cities_List/peoria.png,US_Cities_List/hotsprings.png,,,,,,,,,,,,,,,,,,
1535.300000011921,,rt_thecrossant_black,785407,,,black_plus_sign,,,,,49,,,1,1,,,,,,,,,,,,,,,,
null,,color_black,785509,,,black_plus_sign,,,,,null,,,,,,,,,,,,,,,,,,,,
null,,learn_phase(without_color),788523,,,black_plus_sign,,,,,null,US_Cities_List/carmel.png,US_Cities_List/cornwall.png,,,,,,,,,,,,,,,,,,
null,,black_cross(without_color),789431,,,yellow,,,,,null,US_Cities_List/carmel.png,US_Cities_List/cornwall.png,,,,,,,,,,,,,,,,,,
null,,rt_plussign_withcolor,789932,,,yellow,,,,,null,US_Cities_List/carmel.png,US_Cities_List/cornwall.png,,,,,,,,,,,,,,,,,,
850.1999999880791,,rt_thecrossant_black,791030,,,black_plus_sign,,,,,50,,,1,1,,,,,,,,,,,,,,,,
null,,color_black,791133,,,black_plus_sign,,,,,null,,,,,,,,,,,,,,,,,,,,
null,,learn_phase(without_color),794141,,,black_plus_sign,,,,,null,US_Cities_List/racine.png,US_Cities_List/huntsville.png,,,,,,,,,,,,,,,,,,
null,,black_cross(without_color),795036,,,blue,,,,,null,US_Cities_List/racine.png,US_Cities_List/huntsville.png,,,,,,,,,,,,,,,,,,
null,,rt_plussign_withcolor,795537,,,blue,,,,,null,US_Cities_List/racine.png,US_Cities_List/huntsville.png,,,,,,,,,,,,,,,,,,
1134.6000000238419,,rt_thecrossant_black,796647,,,black_plus_sign,,,,,49,,,1,1,,,,,,,,,,,,,,,,
null,,color_black,796749,,,black_plus_sign,,,,,null,,,,,,,,,,,,,,,,,,,,
null,,learn_phase(without_color),799761,,,black_plus_sign,,,,,null,US_Cities_List/leesburg.png,US_Cities_List/gatlinburg.png,,,,,,,,,,,,,,,,,,
null,,black_cross(without_color),800782,,,yellow,,,,,null,US_Cities_List/leesburg.png,US_Cities_List/gatlinburg.png,,,,,,,,,,,,,,,,,,
null,,rt_plussign_withcolor,801284,,,yellow,,,,,null,US_Cities_List/leesburg.png,US_Cities_List/gatlinburg.png,,,,,,,,,,,,,,,,,,
1142.6000000238419,,rt_thecrossant_black,802268,,,black_plus_sign,,,,,50,,,1,1,,,,,,,,,,,,,,,,
null,,color_black,802371,,,black_plus_sign,,,,,null,,,,,,,,,,,,,,,,,,,,
null,,learn_phase(without_color),805383,,,black_plus_sign,,,,,null,US_Cities_List/peoria.png,US_Cities_List/gatlinburg.png,,,,,,,,,,,,,,,,,,
null,,black_cross(without_color),806052,,,yellow,,,,,null,US_Cities_List/peoria.png,US_Cities_List/gatlinburg.png,,,,,,,,,,,,,,,,,,
null,,rt_plussign_withcolor,806554,,,yellow,,,,,null,US_Cities_List/peoria.png,US_Cities_List/gatlinburg.png,,,,,,,,,,,,,,,,,,
1235.7000000476837,,rt_thecrossant_black,807889,,,black_plus_sign,,,,,50,,,1,1,,,,,,,,,,,,,,,,
null,,color_black,807992,,,black_plus_sign,,,,,null,,,,,,,,,,,,,,,,,,,,
null,,learn_phase(without_color),811004,,,black_plus_sign,,,,,null,US_Cities_List/hotsprings.png,US_Cities_List/peoria.png,,,,,,,,,,,,,,,,,,
null,,black_cross(without_color),811678,,,yellow,,,,,null,US_Cities_List/hotsprings.png,US_Cities_List/peoria.png,,,,,,,,,,,,,,,,,,
null,,rt_plussign_withcolor,812181,,,yellow,,,,,null,US_Cities_List/hotsprings.png,US_Cities_List/peoria.png,,,,,,,,,,,,,,,,,,
871,,rt_thecrossant_black,813512,,,black_plus_sign,,,,,50,,,1,1,,,,,,,,,,,,,,,,
null,,color_black,813615,,,black_plus_sign,,,,,null,,,,,,,,,,,,,,,,,,,,
null,,learn_phase(without_color),816625,,,black_plus_sign,,,,,null,US_Cities_List/peoria.png,US_Cities_List/gatlinburg.png,,,,,,,,,,,,,,,,,,
null,,black_cross(without_color),817388,,,blue,,,,,null,US_Cities_List/peoria.png,US_Cities_List/gatlinburg.png,,,,,,,,,,,,,,,,,,
null,,rt_plussign_withcolor,817891,,,blue,,,,,null,US_Cities_List/peoria.png,US_Cities_List/gatlinburg.png,,,,,,,,,,,,,,,,,,
860.1999999880791,,rt_thecrossant_black,819132,,,black_plus_sign,,,,,50,,,0,0.989247311827957,,,,,,,,,,,,,,,,
null,,color_black,819235,,,black_plus_sign,,,,,null,,,,,,,,,,,,,,,,,,,,
null,,learn_phase(without_color),822242,,,black_plus_sign,,,,,null,US_Cities_List/huntsville.png,US_Cities_List/hotsprings.png,,,,,,,,,,,,,,,,,,
null,,black_cross(without_color),823023,,,blue,,,,,null,US_Cities_List/huntsville.png,US_Cities_List/hotsprings.png,,,,,,,,,,,,,,,,,,
449,,rt_plussign_withcolor,823525,,,blue,,,,,49,US_Cities_List/huntsville.png,US_Cities_List/hotsprings.png,,,,,,,,,,,,,,,,,,
null,,rt_thecrossant_black,824749,,,black_plus_sign,,,,,null,,,1,0.9893617021276596,,,,,,,,,,,,,,,,
null,,color_black,824851,,,black_plus_sign,,,,,null,,,,,,,,,,,,,,,,,,,,
null,,learn_phase(without_color),827859,,,black_plus_sign,,,,,null,US_Cities_List/boulder.png,US_Cities_List/shreveport.png,,,,,,,,,,,,,,,,,,
null,,black_cross(without_color),828603,,,yellow,,,,,null,US_Cities_List/boulder.png,US_Cities_List/shreveport.png,,,,,,,,,,,,,,,,,,
328.0999999642372,,rt_plussign_withcolor,829105,,,yellow,,,,,50,US_Cities_List/boulder.png,US_Cities_List/shreveport.png,,,,,,,,,,,,,,,,,,
null,,rt_thecrossant_black,830365,,,black_plus_sign,,,,,null,,,1,0.9894736842105263,,,,,,,,,,,,,,,,
null,,color_black,830468,,,black_plus_sign,,,,,null,,,,,,,,,,,,,,,,,,,,
null,,learn_phase(without_color),833481,,,black_plus_sign,,,,,null,US_Cities_List/leesburg.png,US_Cities_List/gatlinburg.png,,,,,,,,,,,,,,,,,,
null,,black_cross(without_color),834000,,,blue,,,,,null,US_Cities_List/leesburg.png,US_Cities_List/gatlinburg.png,,,,,,,,,,,,,,,,,,
null,,rt_plussign_withcolor,834502,,,blue,,,,,null,US_Cities_List/leesburg.png,US_Cities_List/gatlinburg.png,,,,,,,,,,,,,,,,,,
1346.699999988079,,rt_thecrossant_black,835988,,,black_plus_sign,,,,,49,,,1,0.9895833333333334,,,,,,,,,,,,,,,,
null,,color_black,836090,,,black_plus_sign,,,,,null,,,,,,,,,,,,,,,,,,,,
null,,learn_phase(without_color),839102,,,black_plus_sign,,,,,null,US_Cities_List/racine.png,US_Cities_List/hotsprings.png,,,,,,,,,,,,,,,,,,
null,,black_cross(without_color),839777,,,yellow,,,,,null,US_Cities_List/racine.png,US_Cities_List/hotsprings.png,,,,,,,,,,,,,,,,,,
null,,rt_plussign_withcolor,840285,,,yellow,,,,,null,US_Cities_List/racine.png,US_Cities_List/hotsprings.png,,,,,,,,,,,,,,,,,,
696.8000000119209,,rt_thecrossant_black,841614,,,black_plus_sign,,,,,50,,,1,0.9896907216494846,,,,,,,,,,,,,,,,
null,,color_black,841716,,,black_plus_sign,,,,,null,,,,,,,,,,,,,,,,,,,,
null,,learn_phase(without_color),844727,,,black_plus_sign,,,,,null,US_Cities_List/peoria.png,US_Cities_List/boulder.png,,,,,,,,,,,,,,,,,,
null,,black_cross(without_color),845186,,,yellow,,,,,null,US_Cities_List/peoria.png,US_Cities_List/boulder.png,,,,,,,,,,,,,,,,,,
null,,rt_plussign_withcolor,845688,,,yellow,,,,,null,US_Cities_List/peoria.png,US_Cities_List/boulder.png,,,,,,,,,,,,,,,,,,
893.5,,rt_thecrossant_black,847235,,,black_plus_sign,,,,,50,,,1,0.9897959183673469,,,,,,,,,,,,,,,,
null,,color_black,847337,,,black_plus_sign,,,,,null,,,,,,,,,,,,,,,,,,,,
null,,learn_phase(without_color),850349,,,black_plus_sign,,,,,null,US_Cities_List/carmel.png,US_Cities_List/cornwall.png,,,,,,,,,,,,,,,,,,
null,,black_cross(without_color),851006,,,yellow,,,,,null,US_Cities_List/carmel.png,US_Cities_List/cornwall.png,,,,,,,,,,,,,,,,,,
null,,rt_plussign_withcolor,851508,,,yellow,,,,,null,US_Cities_List/carmel.png,US_Cities_List/cornwall.png,,,,,,,,,,,,,,,,,,
836.1999999880791,,rt_thecrossant_black,852855,,,black_plus_sign,,,,,50,,,1,0.98989898989899,,,,,,,,,,,,,,,,
null,,color_black,852957,,,black_plus_sign,,,,,null,,,,,,,,,,,,,,,,,,,,
null,,learn_phase(without_color),855971,,,black_plus_sign,,,,,null,US_Cities_List/gatlinburg.png,US_Cities_List/peoria.png,,,,,,,,,,,,,,,,,,
null,,black_cross(without_color),856800,,,yellow,,,,,null,US_Cities_List/gatlinburg.png,US_Cities_List/peoria.png,,,,,,,,,,,,,,,,,,
null,,rt_plussign_withcolor,857302,,,yellow,,,,,null,US_Cities_List/gatlinburg.png,US_Cities_List/peoria.png,,,,,,,,,,,,,,,,,,
778.3999999761581,,rt_thecrossant_black,858476,,,black_plus_sign,,,,,50,,,1,0.99,,,,,,,,,,,,,,,,
null,,color_black,858579,,,black_plus_sign,,,,,null,,,,,,,,,,,,,,,,,,,,
null,,learn_phase(without_color),861591,,,black_plus_sign,,,,,null,US_Cities_List/gatlinburg.png,US_Cities_List/leesburg.png,,,,,,,,,,,,,,,,,,
null,,black_cross(without_color),862633,,,yellow,,,,,null,US_Cities_List/gatlinburg.png,US_Cities_List/leesburg.png,,,,,,,,,,,,,,,,,,
null,,rt_plussign_withcolor,863135,,,yellow,,,,,null,US_Cities_List/gatlinburg.png,US_Cities_List/leesburg.png,,,,,,,,,,,,,,,,,,
1072.699999988079,,rt_thecrossant_black,864097,,,black_plus_sign,,,,,50,,,1,0.9900990099009901,,,,,,,,,,,,,,,,
null,,color_black,864200,,,black_plus_sign,,,,,null,,,,,,,,,,,,,,,,,,,,
null,,learn_phase(without_color),867212,,,black_plus_sign,,,,,null,US_Cities_List/boulder.png,US_Cities_List/westpalmbeach.png,,,,,,,,,,,,,,,,,,
null,,black_cross(without_color),868207,,,blue,,,,,null,US_Cities_List/boulder.png,US_Cities_List/westpalmbeach.png,,,,,,,,,,,,,,,,,,
null,,rt_plussign_withcolor,868710,,,blue,,,,,null,US_Cities_List/boulder.png,US_Cities_List/westpalmbeach.png,,,,,,,,,,,,,,,,,,
1241.8999999761581,,rt_thecrossant_black,869719,,,black_plus_sign,,,,,49,,,1,0.9901960784313726,,,,,,,,,,,,,,,,
null,,color_black,869822,,,black_plus_sign,,,,,null,,,,,,,,,,,,,,,,,,,,
null,,learn_phase(without_color),872831,,,black_plus_sign,,,,,null,US_Cities_List/peoria.png,US_Cities_List/gatlinburg.png,,,,,,,,,,,,,,,,,,
null,,black_cross(without_color),873759,,,blue,,,,,null,US_Cities_List/peoria.png,US_Cities_List/gatlinburg.png,,,,,,,,,,,,,,,,,,
null,,rt_plussign_withcolor,874263,,,blue,,,,,null,US_Cities_List/peoria.png,US_Cities_List/gatlinburg.png,,,,,,,,,,,,,,,,,,
1161.5,,rt_thecrossant_black,875342,,,black_plus_sign,,,,,49,,,1,0.9902912621359223,,,,,,,,,,,,,,,,
null,,color_black,875445,,,black_plus_sign,,,,,null,,,,,,,,,,,,,,,,,,,,
null,,learn_phase(without_color),878456,,,black_plus_sign,,,,,null,US_Cities_List/carmel.png,US_Cities_List/racine.png,,,,,,,,,,,,,,,,,,
null,,black_cross(without_color),878930,,,blue,,,,,null,US_Cities_List/carmel.png,US_Cities_List/racine.png,,,,,,,,,,,,,,,,,,
null,,rt_plussign_withcolor,879432,,,blue,,,,,null,US_Cities_List/carmel.png,US_Cities_List/racine.png,,,,,,,,,,,,,,,,,,
1151.0999999642372,,rt_thecrossant_black,880963,,,black_plus_sign,,,,,49,,,1,0.9903846153846154,,,,,,,,,,,,,,,,
null,,color_black,881065,,,black_plus_sign,,,,,null,,,,,,,,,,,,,,,,,,,,
null,,learn_phase(without_color),884079,,,black_plus_sign,,,,,null,US_Cities_List/gatlinburg.png,US_Cities_List/racine.png,,,,,,,,,,,,,,,,,,
null,,black_cross(without_color),884938,,,yellow,,,,,null,US_Cities_List/gatlinburg.png,US_Cities_List/racine.png,,,,,,,,,,,,,,,,,,
null,,rt_plussign_withcolor,885440,,,yellow,,,,,null,US_Cities_List/gatlinburg.png,US_Cities_List/racine.png,,,,,,,,,,,,,,,,,,
678.1000000238419,,rt_thecrossant_black,886593,,,black_plus_sign,,,,,50,,,1,0.9904761904761905,,,,,,,,,,,,,,,,
null,,color_black,886696,,,black_plus_sign,,,,,null,,,,,,,,,,,,,,,,,,,,
null,,learn_phase(without_color),889705,,,black_plus_sign,,,,,null,US_Cities_List/huntsville.png,US_Cities_List/hotsprings.png,,,,,,,,,,,,,,,,,,
null,,black_cross(without_color),890409,,,yellow,,,,,null,US_Cities_List/huntsville.png,US_Cities_List/hotsprings.png,,,,,,,,,,,,,,,,,,
null,,rt_plussign_withcolor,890910,,,yellow,,,,,null,US_Cities_List/huntsville.png,US_Cities_List/hotsprings.png,,,,,,,,,,,,,,,,,,
1260.5,,rt_thecrossant_black,892211,,,black_plus_sign,,,,,50,,,1,0.9905660377358491,,,,,,,,,,,,,,,,
null,,color_black,892315,,,black_plus_sign,,,,,null,,,,,,,,,,,,,,,,,,,,
null,,learn_phase(without_color),895328,,,black_plus_sign,,,,,null,US_Cities_List/gatlinburg.png,US_Cities_List/racine.png,,,,,,,,,,,,,,,,,,
null,,black_cross(without_color),895834,,,blue,,,,,null,US_Cities_List/gatlinburg.png,US_Cities_List/racine.png,,,,,,,,,,,,,,,,,,
null,,rt_plussign_withcolor,896336,,,blue,,,,,null,US_Cities_List/gatlinburg.png,US_Cities_List/racine.png,,,,,,,,,,,,,,,,,,
935.8000000119209,,rt_thecrossant_black,897843,,,black_plus_sign,,,,,49,,,1,0.9906542056074766,,,,,,,,,,,,,,,,
null,,color_black,897945,,,black_plus_sign,,,,,null,,,,,,,,,,,,,,,,,,,,
null,,learn_phase(without_color),900953,,,black_plus_sign,,,,,null,US_Cities_List/huntsville.png,US_Cities_List/hanover.png,,,,,,,,,,,,,,,,,,
null,,black_cross(without_color),901355,,,yellow,,,,,null,US_Cities_List/huntsville.png,US_Cities_List/hanover.png,,,,,,,,,,,,,,,,,,
null,,rt_plussign_withcolor,901858,,,yellow,,,,,null,US_Cities_List/huntsville.png,US_Cities_List/hanover.png,,,,,,,,,,,,,,,,,,
662.3000000119209,,rt_thecrossant_black,903461,,,black_plus_sign,,,,,50,,,1,0.9907407407407407,,,,,,,,,,,,,,,,
null,,color_black,903563,,,black_plus_sign,,,,,null,,,,,,,,,,,,,,,,,,,,
null,,learn_phase(without_color),906575,,,black_plus_sign,,,,,null,US_Cities_List/racine.png,US_Cities_List/carmel.png,,,,,,,,,,,,,,,,,,
null,,black_cross(without_color),907429,,,blue,,,,,null,US_Cities_List/racine.png,US_Cities_List/carmel.png,,,,,,,,,,,,,,,,,,
null,,rt_plussign_withcolor,907932,,,blue,,,,,null,US_Cities_List/racine.png,US_Cities_List/carmel.png,,,,,,,,,,,,,,,,,,
515.4000000357628,,rt_thecrossant_black,909083,,,black_plus_sign,,,,,49,,,1,0.9908256880733946,,,,,,,,,,,,,,,,
null,,color_black,909186,,,black_plus_sign,,,,,null,,,,,,,,,,,,,,,,,,,,
null,,learn_phase(without_color),912192,,,black_plus_sign,,,,,null,US_Cities_List/huntsville.png,US_Cities_List/hanover.png,,,,,,,,,,,,,,,,,,
null,,black_cross(without_color),913262,,,blue,,,,,null,US_Cities_List/huntsville.png,US_Cities_List/hanover.png,,,,,,,,,,,,,,,,,,
null,,rt_plussign_withcolor,913763,,,blue,,,,,null,US_Cities_List/huntsville.png,US_Cities_List/hanover.png,,,,,,,,,,,,,,,,,,
983.6000000238419,,rt_thecrossant_black,914698,,,black_plus_sign,,,,,49,,,1,0.990909090909091,,,,,,,,,,,,,,,,
null,,color_black,914801,,,black_plus_sign,,,,,null,,,,,,,,,,,,,,,,,,,,
null,,learn_phase(without_color),917814,,,black_plus_sign,,,,,null,US_Cities_List/carmel.png,US_Cities_List/cornwall.png,,,,,,,,,,,,,,,,,,
null,,black_cross(without_color),918680,,,yellow,,,,,null,US_Cities_List/carmel.png,US_Cities_List/cornwall.png,,,,,,,,,,,,,,,,,,
null,,rt_plussign_withcolor,919182,,,yellow,,,,,null,US_Cities_List/carmel.png,US_Cities_List/cornwall.png,,,,,,,,,,,,,,,,,,
1209.5,,rt_thecrossant_black,920321,,,black_plus_sign,,,,,50,,,1,0.990990990990991,,,,,,,,,,,,,,,,
null,,color_black,920436,,,black_plus_sign,,,,,null,,,,,,,,,,,,,,,,,,,,
null,,learn_phase(without_color),923444,,,black_plus_sign,,,,,null,US_Cities_List/huntsville.png,US_Cities_List/carmel.png,,,,,,,,,,,,,,,,,,
null,,black_cross(without_color),923965,,,blue,,,,,null,US_Cities_List/huntsville.png,US_Cities_List/carmel.png,,,,,,,,,,,,,,,,,,
null,,rt_plussign_withcolor,924467,,,blue,,,,,null,US_Cities_List/huntsville.png,US_Cities_List/carmel.png,,,,,,,,,,,,,,,,,,
1156,,rt_thecrossant_black,925953,,,black_plus_sign,,,,,49,,,1,0.9910714285714286,,,,,,,,,,,,,,,,
null,,color_black,926055,,,black_plus_sign,,,,,null,,,,,,,,,,,,,,,,,,,,
null,,learn_phase(without_color),929067,,,black_plus_sign,,,,,null,US_Cities_List/carmel.png,US_Cities_List/racine.png,,,,,,,,,,,,,,,,,,
null,,black_cross(without_color),929619,,,yellow,,,,,null,US_Cities_List/carmel.png,US_Cities_List/racine.png,,,,,,,,,,,,,,,,,,
null,,rt_plussign_withcolor,930121,,,yellow,,,,,null,US_Cities_List/carmel.png,US_Cities_List/racine.png,,,,,,,,,,,,,,,,,,
628.6999999880791,,rt_thecrossant_black,931573,,,black_plus_sign,,,,,50,,,1,0.9911504424778761,,,,,,,,,,,,,,,,
null,,color_black,931675,,,black_plus_sign,,,,,null,,,,,,,,,,,,,,,,,,,,
null,,learn_phase(without_color),934686,,,black_plus_sign,,,,,null,US_Cities_List/gatlinburg.png,US_Cities_List/leesburg.png,,,,,,,,,,,,,,,,,,
null,,black_cross(without_color),935408,,,blue,,,,,null,US_Cities_List/gatlinburg.png,US_Cities_List/leesburg.png,,,,,,,,,,,,,,,,,,
null,,rt_plussign_withcolor,935910,,,blue,,,,,null,US_Cities_List/gatlinburg.png,US_Cities_List/leesburg.png,,,,,,,,,,,,,,,,,,
749.3000000119209,,rt_thecrossant_black,937192,,,black_plus_sign,,,,,49,,,1,0.9912280701754386,,,,,,,,,,,,,,,,
null,,color_black,937295,,,black_plus_sign,,,,,null,,,,,,,,,,,,,,,,,,,,
null,,learn_phase(without_color),940306,,,black_plus_sign,,,,,null,US_Cities_List/boulder.png,US_Cities_List/peoria.png,,,,,,,,,,,,,,,,,,
null,,black_cross(without_color),940991,,,blue,,,,,null,US_Cities_List/boulder.png,US_Cities_List/peoria.png,,,,,,,,,,,,,,,,,,
null,,rt_plussign_withcolor,941493,,,blue,,,,,null,US_Cities_List/boulder.png,US_Cities_List/peoria.png,,,,,,,,,,,,,,,,,,
1174.5999999642372,,rt_thecrossant_black,942815,,,black_plus_sign,,,,,50,,,0,0.9826086956521739,,,,,,,,,,,,,,,,
null,,color_black,942919,,,black_plus_sign,,,,,null,,,,,,,,,,,,,,,,,,,,
null,,learn_phase(without_color),945935,,,black_plus_sign,,,,,null,US_Cities_List/boulder.png,US_Cities_List/peoria.png,,,,,,,,,,,,,,,,,,
null,,black_cross(without_color),946576,,,blue,,,,,null,US_Cities_List/boulder.png,US_Cities_List/peoria.png,,,,,,,,,,,,,,,,,,
null,,rt_plussign_withcolor,947077,,,blue,,,,,null,US_Cities_List/boulder.png,US_Cities_List/peoria.png,,,,,,,,,,,,,,,,,,
898.5,,rt_thecrossant_black,948443,,,black_plus_sign,,,,,49,,,1,0.9827586206896551,,,,,,,,,,,,,,,,
null,,color_black,948545,,,black_plus_sign,,,,,null,,,,,,,,,,,,,,,,,,,,
null,,learn_phase(without_color),951560,,,black_plus_sign,,,,,null,US_Cities_List/carmel.png,US_Cities_List/cornwall.png,,,,,,,,,,,,,,,,,,
null,,black_cross(without_color),952168,,,blue,,,,,null,US_Cities_List/carmel.png,US_Cities_List/cornwall.png,,,,,,,,,,,,,,,,,,
424.19999998807907,,rt_plussign_withcolor,952670,,,blue,,,,,49,US_Cities_List/carmel.png,US_Cities_List/cornwall.png,,,,,,,,,,,,,,,,,,
null,,rt_thecrossant_black,954067,,,black_plus_sign,,,,,null,,,1,0.9829059829059829,,,,,,,,,,,,,,,,
null,,color_black,954170,,,black_plus_sign,,,,,null,,,,,,,,,,,,,,,,,,,,
null,,learn_phase(without_color),957188,,,black_plus_sign,,,,,null,US_Cities_List/hotsprings.png,US_Cities_List/racine.png,,,,,,,,,,,,,,,,,,
null,,black_cross(without_color),957749,,,yellow,,,,,null,US_Cities_List/hotsprings.png,US_Cities_List/racine.png,,,,,,,,,,,,,,,,,,
null,,rt_plussign_withcolor,958252,,,yellow,,,,,null,US_Cities_List/hotsprings.png,US_Cities_List/racine.png,,,,,,,,,,,,,,,,,,
742.3000000119209,,rt_thecrossant_black,959695,,,black_plus_sign,,,,,50,,,1,0.9830508474576272,,,,,,,,,,,,,,,,
null,,color_black,959798,,,black_plus_sign,,,,,null,,,,,,,,,,,,,,,,,,,,
null,,learn_phase(without_color),962806,,,black_plus_sign,,,,,null,US_Cities_List/shreveport.png,US_Cities_List/boulder.png,,,,,,,,,,,,,,,,,,
null,,black_cross(without_color),963754,,,blue,,,,,null,US_Cities_List/shreveport.png,US_Cities_List/boulder.png,,,,,,,,,,,,,,,,,,
null,,rt_plussign_withcolor,964256,,,blue,,,,,null,US_Cities_List/shreveport.png,US_Cities_List/boulder.png,,,,,,,,,,,,,,,,,,
702.6999999880791,,rt_thecrossant_black,965313,,,black_plus_sign,,,,,49,,,1,0.9831932773109243,,,,,,,,,,,,,,,,
null,,color_black,965415,,,black_plus_sign,,,,,null,,,,,,,,,,,,,,,,,,,,
null,,learn_phase(without_color),968424,,,black_plus_sign,,,,,null,US_Cities_List/huntsville.png,US_Cities_List/racine.png,,,,,,,,,,,,,,,,,,
null,,black_cross(without_color),968961,,,blue,,,,,null,US_Cities_List/huntsville.png,US_Cities_List/racine.png,,,,,,,,,,,,,,,,,,
448.89999997615814,,rt_plussign_withcolor,969462,,,blue,,,,,49,US_Cities_List/huntsville.png,US_Cities_List/racine.png,,,,,,,,,,,,,,,,,,
null,,rt_thecrossant_black,970929,,,black_plus_sign,,,,,null,,,1,0.9833333333333333,,,,,,,,,,,,,,,,
null,,color_black,971033,,,black_plus_sign,,,,,null,,,,,,,,,,,,,,,,,,,,
null,,learn_phase(without_color),974044,,,black_plus_sign,,,,,null,US_Cities_List/huntsville.png,US_Cities_List/racine.png,,,,,,,,,,,,,,,,,,
null,,black_cross(without_color),974822,,,blue,,,,,null,US_Cities_List/huntsville.png,US_Cities_List/racine.png,,,,,,,,,,,,,,,,,,
430,,rt_plussign_withcolor,975325,,,blue,,,,,49,US_Cities_List/huntsville.png,US_Cities_List/racine.png,,,,,,,,,,,,,,,,,,
null,,rt_thecrossant_black,976551,,,black_plus_sign,,,,,null,,,1,0.9834710743801653,,,,,,,,,,,,,,,,
null,,color_black,976655,,,black_plus_sign,,,,,null,,,,,,,,,,,,,,,,,,,,
null,,learn_phase(without_color),979673,,,black_plus_sign,,,,,null,US_Cities_List/racine.png,US_Cities_List/gatlinburg.png,,,,,,,,,,,,,,,,,,
null,,black_cross(without_color),980121,,,blue,,,,,null,US_Cities_List/racine.png,US_Cities_List/gatlinburg.png,,,,,,,,,,,,,,,,,,
462.5,,rt_plussign_withcolor,980623,,,blue,,,,,49,US_Cities_List/racine.png,US_Cities_List/gatlinburg.png,,,,,,,,,,,,,,,,,,
null,,rt_thecrossant_black,982179,,,black_plus_sign,,,,,null,,,1,0.9836065573770492,,,,,,,,,,,,,,,,
null,,color_black,982282,,,black_plus_sign,,,,,null,,,,,,,,,,,,,,,,,,,,
null,,learn_phase(without_color),985292,,,black_plus_sign,,,,,null,US_Cities_List/leesburg.png,US_Cities_List/westpalmbeach.png,,,,,,,,,,,,,,,,,,
null,,black_cross(without_color),985707,,,blue,,,,,null,US_Cities_List/leesburg.png,US_Cities_List/westpalmbeach.png,,,,,,,,,,,,,,,,,,
null,,rt_plussign_withcolor,986209,,,blue,,,,,null,US_Cities_List/leesburg.png,US_Cities_List/westpalmbeach.png,,,,,,,,,,,,,,,,,,
605,,rt_thecrossant_black,987799,,,black_plus_sign,,,,,49,,,1,0.983739837398374,,,,,,,,,,,,,,,,
null,,color_black,987901,,,black_plus_sign,,,,,null,,,,,,,,,,,,,,,,,,,,
null,,learn_phase(without_color),990910,,,black_plus_sign,,,,,null,US_Cities_List/hanover.png,US_Cities_List/huntsville.png,,,,,,,,,,,,,,,,,,
null,,black_cross(without_color),991819,,,blue,,,,,null,US_Cities_List/hanover.png,US_Cities_List/huntsville.png,,,,,,,,,,,,,,,,,,
null,,rt_plussign_withcolor,992321,,,blue,,,,,null,US_Cities_List/hanover.png,US_Cities_List/huntsville.png,,,,,,,,,,,,,,,,,,
590,,rt_thecrossant_black,993415,,,black_plus_sign,,,,,49,,,1,0.9838709677419355,,,,,,,,,,,,,,,,
null,,color_black,993518,,,black_plus_sign,,,,,null,,,,,,,,,,,,,,,,,,,,
null,,learn_phase(without_color),996530,,,black_plus_sign,,,,,null,US_Cities_List/racine.png,US_Cities_List/hotsprings.png,,,,,,,,,,,,,,,,,,
null,,black_cross(without_color),997380,,,yellow,,,,,null,US_Cities_List/racine.png,US_Cities_List/hotsprings.png,,,,,,,,,,,,,,,,,,
458.2999999523163,,rt_plussign_withcolor,997881,,,yellow,,,,,50,US_Cities_List/racine.png,US_Cities_List/hotsprings.png,,,,,,,,,,,,,,,,,,
null,,rt_thecrossant_black,999037,,,black_plus_sign,,,,,null,,,1,0.984,,,,,,,,,,,,,,,,
null,,color_black,999140,,,black_plus_sign,,,,,null,,,,,,,,,,,,,,,,,,,,
null,,learn_phase(without_color),1002148,,,black_plus_sign,,,,,null,US_Cities_List/huntsville.png,US_Cities_List/hotsprings.png,,,,,,,,,,,,,,,,,,
null,,black_cross(without_color),1002905,,,blue,,,,,null,US_Cities_List/huntsville.png,US_Cities_List/hotsprings.png,,,,,,,,,,,,,,,,,,
null,,rt_plussign_withcolor,1003407,,,blue,,,,,null,US_Cities_List/huntsville.png,US_Cities_List/hotsprings.png,,,,,,,,,,,,,,,,,,
1012.3000000119209,,rt_thecrossant_black,1004653,,,black_plus_sign,,,,,49,,,1,0.9841269841269841,,,,,,,,,,,,,,,,
null,,color_black,1004756,,,black_plus_sign,,,,,null,,,,,,,,,,,,,,,,,,,,
null,,learn_phase(without_color),1007766,,,black_plus_sign,,,,,null,US_Cities_List/westpalmbeach.png,US_Cities_List/boulder.png,,,,,,,,,,,,,,,,,,
null,,black_cross(without_color),1008787,,,yellow,,,,,null,US_Cities_List/westpalmbeach.png,US_Cities_List/boulder.png,,,,,,,,,,,,,,,,,,
464.89999997615814,,rt_plussign_withcolor,1009289,,,yellow,,,,,50,US_Cities_List/westpalmbeach.png,US_Cities_List/boulder.png,,,,,,,,,,,,,,,,,,
null,,rt_thecrossant_black,1010272,,,black_plus_sign,,,,,null,,,1,0.984251968503937,,,,,,,,,,,,,,,,
null,,color_black,1010373,,,black_plus_sign,,,,,null,,,,,,,,,,,,,,,,,,,,
null,,learn_phase(without_color),1013382,,,black_plus_sign,,,,,null,US_Cities_List/shreveport.png,US_Cities_List/boulder.png,,,,,,,,,,,,,,,,,,
null,,black_cross(without_color),1014000,,,yellow,,,,,null,US_Cities_List/shreveport.png,US_Cities_List/boulder.png,,,,,,,,,,,,,,,,,,
null,,rt_plussign_withcolor,1014502,,,yellow,,,,,null,US_Cities_List/shreveport.png,US_Cities_List/boulder.png,,,,,,,,,,,,,,,,,,
1301.5,,rt_thecrossant_black,1015890,,,black_plus_sign,,,,,50,,,1,0.984375,,,,,,,,,,,,,,,,
null,,color_black,1015993,,,black_plus_sign,,,,,null,,,,,,,,,,,,,,,,,,,,
null,,learn_break,1075995,,,learn_break,,,,,null,,,,,,,,,,,,,,,,,,,,
8332.699999988079,,intro_1,1084329,,,instruct,,,0,,,,,,,,,,,,,,,,,,,,,,
20286.100000023842,,intro_2,1104617,,,instruct,,,1,Next,,,,,,,,,,,,,,,,,,,,,
1542.3999999761581,,directmemory_phase,1106176,,,../static/images/US_Cities_List/racine.png,,,,,50,,,0,0,../static/images/US_Cities_List/westpalmbeach.png,../static/images/US_Cities_List/peoria.png,../static/images/US_Cities_List/carmel.png,../static/images/US_Cities_List/carmel.png,../static/images/US_Cities_List/peoria.png,../static/images/US_Cities_List/westpalmbeach.png,0.5,closer,,,,,,,,
null,,html-keyboard-response,1107179,,,<p></p>,,,,,null,,,,,,,,,,,,,,,,,,,,
1885.4000000357628,,directmemory_phase,1109089,,,../static/images/US_Cities_List/westpalmbeach.png,,,,,49,,,0,0,../static/images/US_Cities_List/gatlinburg.png,../static/images/US_Cities_List/boulder.png,../static/images/US_Cities_List/racine.png,../static/images/US_Cities_List/boulder.png,../static/images/US_Cities_List/gatlinburg.png,../static/images/US_Cities_List/racine.png,0.5,closer,,,,,,,,
null,,html-keyboard-response,1110092,,,<p></p>,,,,,null,,,,,,,,,,,,,,,,,,,,
2236.600000023842,,directmemory_phase,1112344,,,../static/images/US_Cities_List/hotsprings.png,,,,,50,,,0,0,../static/images/US_Cities_List/racine.png,../static/images/US_Cities_List/leesburg.png,../static/images/US_Cities_List/hanover.png,../static/images/US_Cities_List/racine.png,../static/images/US_Cities_List/hanover.png,../static/images/US_Cities_List/leesburg.png,0.5,closer,,,,,,,,
null,,html-keyboard-response,1113348,,,<p></p>,,,,,null,,,,,,,,,,,,,,,,,,,,
1265.199999988079,,directmemory_phase,1114635,,,../static/images/US_Cities_List/carmel.png,,,,,51,,,1,0.25,../static/images/US_Cities_List/leesburg.png,../static/images/US_Cities_List/gatlinburg.png,../static/images/US_Cities_List/cornwall.png,../static/images/US_Cities_List/cornwall.png,../static/images/US_Cities_List/gatlinburg.png,../static/images/US_Cities_List/leesburg.png,1,,,,,,,,,
null,,html-keyboard-response,1115639,,,<p></p>,,,,,null,,,,,,,,,,,,,,,,,,,,
1645.800000011921,,directmemory_phase,1117302,,,../static/images/US_Cities_List/newhope.png,,,,,50,,,1,0.4,../static/images/US_Cities_List/leesburg.png,../static/images/US_Cities_List/westpalmbeach.png,../static/images/US_Cities_List/gatlinburg.png,../static/images/US_Cities_List/westpalmbeach.png,../static/images/US_Cities_List/leesburg.png,../static/images/US_Cities_List/gatlinburg.png,1,,,,,,,,,
null,,html-keyboard-response,1118306,,,<p></p>,,,,,null,,,,,,,,,,,,,,,,,,,,
1977.1000000238419,,directmemory_phase,1120300,,,../static/images/US_Cities_List/peoria.png,,,,,50,,,1,0.5,../static/images/US_Cities_List/leesburg.png,../static/images/US_Cities_List/boulder.png,../static/images/US_Cities_List/hanover.png,../static/images/US_Cities_List/boulder.png,../static/images/US_Cities_List/leesburg.png,../static/images/US_Cities_List/hanover.png,1,,,,,,,,,
null,,html-keyboard-response,1121304,,,<p></p>,,,,,null,,,,,,,,,,,,,,,,,,,,
2131.699999988079,,directmemory_phase,1123448,,,../static/images/US_Cities_List/westpalmbeach.png,,,,,49,,,0,0.42857142857142855,../static/images/US_Cities_List/huntsville.png,../static/images/US_Cities_List/shreveport.png,../static/images/US_Cities_List/leesburg.png,../static/images/US_Cities_List/leesburg.png,../static/images/US_Cities_List/shreveport.png,../static/images/US_Cities_List/huntsville.png,0.5,closer,,,,,,,,
null,,html-keyboard-response,1124451,,,<p></p>,,,,,null,,,,,,,,,,,,,,,,,,,,
1476.300000011921,,directmemory_phase,1125943,,,../static/images/US_Cities_List/carmel.png,,,,,51,,,1,0.5,../static/images/US_Cities_List/westpalmbeach.png,../static/images/US_Cities_List/hotsprings.png,../static/images/US_Cities_List/huntsville.png,../static/images/US_Cities_List/huntsville.png,../static/images/US_Cities_List/hotsprings.png,../static/images/US_Cities_List/westpalmbeach.png,1,,,,,,,,,
null,,html-keyboard-response,1126947,,,<p></p>,,,,,null,,,,,,,,,,,,,,,,,,,,
1418.800000011921,,directmemory_phase,1128383,,,../static/images/US_Cities_List/westpalmbeach.png,,,,,50,,,0,0.4444444444444444,../static/images/US_Cities_List/newhope.png,../static/images/US_Cities_List/carmel.png,../static/images/US_Cities_List/peoria.png,../static/images/US_Cities_List/newhope.png,../static/images/US_Cities_List/peoria.png,../static/images/US_Cities_List/carmel.png,0.5,closer,,,,,,,,
null,,html-keyboard-response,1129387,,,<p></p>,,,,,null,,,,,,,,,,,,,,,,,,,,
1024.300000011921,,directmemory_phase,1130425,,,../static/images/US_Cities_List/hanover.png,,,,,49,,,0,0.4,../static/images/US_Cities_List/carmel.png,../static/images/US_Cities_List/huntsville.png,../static/images/US_Cities_List/gatlinburg.png,../static/images/US_Cities_List/huntsville.png,../static/images/US_Cities_List/carmel.png,../static/images/US_Cities_List/gatlinburg.png,0.5,closer,,,,,,,,
null,,html-keyboard-response,1131428,,,<p></p>,,,,,null,,,,,,,,,,,,,,,,,,,,
1799.5,,directmemory_phase,1133244,,,../static/images/US_Cities_List/cornwall.png,,,,,50,,,0,0.36363636363636365,../static/images/US_Cities_List/leesburg.png,../static/images/US_Cities_List/huntsville.png,../static/images/US_Cities_List/carmel.png,../static/images/US_Cities_List/carmel.png,../static/images/US_Cities_List/huntsville.png,../static/images/US_Cities_List/leesburg.png,0.5,closer,,,,,,,,
null,,html-keyboard-response,1134247,,,<p></p>,,,,,null,,,,,,,,,,,,,,,,,,,,
1487.199999988079,,directmemory_phase,1135746,,,../static/images/US_Cities_List/hotsprings.png,,,,,51,,,0,0.3333333333333333,../static/images/US_Cities_List/hanover.png,../static/images/US_Cities_List/huntsville.png,../static/images/US_Cities_List/westpalmbeach.png,../static/images/US_Cities_List/huntsville.png,../static/images/US_Cities_List/hanover.png,../static/images/US_Cities_List/westpalmbeach.png,0.5,closer,,,,,,,,
null,,html-keyboard-response,1136750,,,<p></p>,,,,,null,,,,,,,,,,,,,,,,,,,,
1591.5,,directmemory_phase,1138378,,,../static/images/US_Cities_List/gatlinburg.png,,,,,49,,,0,0.3076923076923077,../static/images/US_Cities_List/cornwall.png,../static/images/US_Cities_List/hotsprings.png,../static/images/US_Cities_List/leesburg.png,../static/images/US_Cities_List/leesburg.png,../static/images/US_Cities_List/hotsprings.png,../static/images/US_Cities_List/cornwall.png,0.5,closer,,,,,,,,
null,,html-keyboard-response,1139383,,,<p></p>,,,,,null,,,,,,,,,,,,,,,,,,,,
1757.4000000357628,,directmemory_phase,1141160,,,../static/images/US_Cities_List/huntsville.png,,,,,51,,,0,0.2857142857142857,../static/images/US_Cities_List/hotsprings.png,../static/images/US_Cities_List/leesburg.png,../static/images/US_Cities_List/cornwall.png,../static/images/US_Cities_List/hotsprings.png,../static/images/US_Cities_List/cornwall.png,../static/images/US_Cities_List/leesburg.png,0.5,closer,,,,,,,,
null,,html-keyboard-response,1142163,,,<p></p>,,,,,null,,,,,,,,,,,,,,,,,,,,
1456.2999999523163,,directmemory_phase,1143636,,,../static/images/US_Cities_List/peoria.png,,,,,50,,,0,0.26666666666666666,../static/images/US_Cities_List/newhope.png,../static/images/US_Cities_List/westpalmbeach.png,../static/images/US_Cities_List/gatlinburg.png,../static/images/US_Cities_List/gatlinburg.png,../static/images/US_Cities_List/westpalmbeach.png,../static/images/US_Cities_List/newhope.png,0.5,closer,,,,,,,,
null,,html-keyboard-response,1144639,,,<p></p>,,,,,null,,,,,,,,,,,,,,,,,,,,
1109.3999999761581,,directmemory_phase,1145765,,,../static/images/US_Cities_List/huntsville.png,,,,,51,,,1,0.3125,../static/images/US_Cities_List/leesburg.png,../static/images/US_Cities_List/peoria.png,../static/images/US_Cities_List/racine.png,../static/images/US_Cities_List/racine.png,../static/images/US_Cities_List/peoria.png,../static/images/US_Cities_List/leesburg.png,1,,,,,,,,,
null,,html-keyboard-response,1146768,,,<p></p>,,,,,null,,,,,,,,,,,,,,,,,,,,
1184.4000000357628,,directmemory_phase,1147971,,,../static/images/US_Cities_List/peoria.png,,,,,49,,,1,0.35294117647058826,../static/images/US_Cities_List/hotsprings.png,../static/images/US_Cities_List/carmel.png,../static/images/US_Cities_List/leesburg.png,../static/images/US_Cities_List/hotsprings.png,../static/images/US_Cities_List/leesburg.png,../static/images/US_Cities_List/carmel.png,1,,,,,,,,,
null,,html-keyboard-response,1148974,,,<p></p>,,,,,null,,,,,,,,,,,,,,,,,,,,
807.6000000238419,,directmemory_phase,1149799,,,../static/images/US_Cities_List/boulder.png,,,,,50,,,0,0.3333333333333333,../static/images/US_Cities_List/racine.png,../static/images/US_Cities_List/newhope.png,../static/images/US_Cities_List/westpalmbeach.png,../static/images/US_Cities_List/westpalmbeach.png,../static/images/US_Cities_List/newhope.png,../static/images/US_Cities_List/racine.png,0.5,closer,,,,,,,,
null,,html-keyboard-response,1150803,,,<p></p>,,,,,null,,,,,,,,,,,,,,,,,,,,
1497.3999999761581,,directmemory_phase,1152313,,,../static/images/US_Cities_List/racine.png,,,,,51,,,0,0.3157894736842105,../static/images/US_Cities_List/hanover.png,../static/images/US_Cities_List/huntsville.png,../static/images/US_Cities_List/boulder.png,../static/images/US_Cities_List/huntsville.png,../static/images/US_Cities_List/hanover.png,../static/images/US_Cities_List/boulder.png,0.5,closer,,,,,,,,
null,,html-keyboard-response,1153317,,,<p></p>,,,,,null,,,,,,,,,,,,,,,,,,,,
1056.1000000238419,,directmemory_phase,1154385,,,../static/images/US_Cities_List/boulder.png,,,,,50,,,0,0.3,../static/images/US_Cities_List/huntsville.png,../static/images/US_Cities_List/leesburg.png,../static/images/US_Cities_List/shreveport.png,../static/images/US_Cities_List/shreveport.png,../static/images/US_Cities_List/leesburg.png,../static/images/US_Cities_List/huntsville.png,0.5,closer,,,,,,,,
null,,html-keyboard-response,1155389,,,<p></p>,,,,,null,,,,,,,,,,,,,,,,,,,,
1171.2999999523163,,directmemory_phase,1156576,,,../static/images/US_Cities_List/leesburg.png,,,,,51,,,0,0.2857142857142857,../static/images/US_Cities_List/peoria.png,../static/images/US_Cities_List/gatlinburg.png,../static/images/US_Cities_List/shreveport.png,../static/images/US_Cities_List/gatlinburg.png,../static/images/US_Cities_List/peoria.png,../static/images/US_Cities_List/shreveport.png,0.5,closer,,,,,,,,
null,,html-keyboard-response,1157579,,,<p></p>,,,,,null,,,,,,,,,,,,,,,,,,,,
1020.5,,directmemory_phase,1158614,,,../static/images/US_Cities_List/huntsville.png,,,,,50,,,0,0.2727272727272727,../static/images/US_Cities_List/boulder.png,../static/images/US_Cities_List/gatlinburg.png,../static/images/US_Cities_List/carmel.png,../static/images/US_Cities_List/carmel.png,../static/images/US_Cities_List/gatlinburg.png,../static/images/US_Cities_List/boulder.png,0.5,closer,,,,,,,,
null,,html-keyboard-response,1159617,,,<p></p>,,,,,null,,,,,,,,,,,,,,,,,,,,
995.5,,directmemory_phase,1160628,,,../static/images/US_Cities_List/leesburg.png,,,,,49,,,0,0.2608695652173913,../static/images/US_Cities_List/shreveport.png,../static/images/US_Cities_List/boulder.png,../static/images/US_Cities_List/westpalmbeach.png,../static/images/US_Cities_List/westpalmbeach.png,../static/images/US_Cities_List/boulder.png,../static/images/US_Cities_List/shreveport.png,0.5,closer,,,,,,,,
null,,html-keyboard-response,1161632,,,<p></p>,,,,,null,,,,,,,,,,,,,,,,,,,,
1274.800000011921,,directmemory_phase,1162926,,,../static/images/US_Cities_List/carmel.png,,,,,50,,,0,0.25,../static/images/US_Cities_List/peoria.png,../static/images/US_Cities_List/hotsprings.png,../static/images/US_Cities_List/racine.png,../static/images/US_Cities_List/racine.png,../static/images/US_Cities_List/hotsprings.png,../static/images/US_Cities_List/peoria.png,0.5,closer,,,,,,,,
null,,html-keyboard-response,1163929,,,<p></p>,,,,,null,,,,,,,,,,,,,,,,,,,,
871,,directmemory_phase,1164817,,,../static/images/US_Cities_List/shreveport.png,,,,,51,,,0,0.24,../static/images/US_Cities_List/peoria.png,../static/images/US_Cities_List/boulder.png,../static/images/US_Cities_List/leesburg.png,../static/images/US_Cities_List/boulder.png,../static/images/US_Cities_List/peoria.png,../static/images/US_Cities_List/leesburg.png,0.5,closer,,,,,,,,
null,,html-keyboard-response,1165821,,,<p></p>,,,,,null,,,,,,,,,,,,,,,,,,,,
1154.3999999761581,,directmemory_phase,1166996,,,../static/images/US_Cities_List/racine.png,,,,,51,,,1,0.2692307692307692,../static/images/US_Cities_List/westpalmbeach.png,../static/images/US_Cities_List/peoria.png,../static/images/US_Cities_List/hotsprings.png,../static/images/US_Cities_List/hotsprings.png,../static/images/US_Cities_List/peoria.png,../static/images/US_Cities_List/westpalmbeach.png,1,,,,,,,,,
null,,html-keyboard-response,1167999,,,<p></p>,,,,,null,,,,,,,,,,,,,,,,,,,,
1250.2999999523163,,directmemory_phase,1169267,,,../static/images/US_Cities_List/gatlinburg.png,,,,,50,,,0,0.25925925925925924,../static/images/US_Cities_List/hanover.png,../static/images/US_Cities_List/boulder.png,../static/images/US_Cities_List/peoria.png,../static/images/US_Cities_List/peoria.png,../static/images/US_Cities_List/boulder.png,../static/images/US_Cities_List/hanover.png,0.5,closer,,,,,,,,
null,,html-keyboard-response,1170270,,,<p></p>,,,,,null,,,,,,,,,,,,,,,,,,,,
1567.800000011921,,directmemory_phase,1171851,,,../static/images/US_Cities_List/huntsville.png,,,,,51,,,0,0.25,../static/images/US_Cities_List/hanover.png,../static/images/US_Cities_List/westpalmbeach.png,../static/images/US_Cities_List/gatlinburg.png,../static/images/US_Cities_List/hanover.png,../static/images/US_Cities_List/gatlinburg.png,../static/images/US_Cities_List/westpalmbeach.png,0.5,closer,,,,,,,,
null,,html-keyboard-response,1172854,,,<p></p>,,,,,null,,,,,,,,,,,,,,,,,,,,
1641.800000011921,,directmemory_phase,1174509,,,../static/images/US_Cities_List/hotsprings.png,,,,,51,,,0,0.2413793103448276,../static/images/US_Cities_List/peoria.png,../static/images/US_Cities_List/shreveport.png,../static/images/US_Cities_List/carmel.png,../static/images/US_Cities_List/peoria.png,../static/images/US_Cities_List/carmel.png,../static/images/US_Cities_List/shreveport.png,0.5,closer,,,,,,,,
null,,html-keyboard-response,1175512,,,<p></p>,,,,,null,,,,,,,,,,,,,,,,,,,,
786.7999999523163,,directmemory_phase,1176316,,,../static/images/US_Cities_List/racine.png,,,,,50,,,0,0.23333333333333334,../static/images/US_Cities_List/gatlinburg.png,../static/images/US_Cities_List/westpalmbeach.png,../static/images/US_Cities_List/leesburg.png,../static/images/US_Cities_List/gatlinburg.png,../static/images/US_Cities_List/leesburg.png,../static/images/US_Cities_List/westpalmbeach.png,0.5,closer,,,,,,,,
null,,html-keyboard-response,1177320,,,<p></p>,,,,,null,,,,,,,,,,,,,,,,,,,,
831.5999999642372,,directmemory_phase,1178168,,,../static/images/US_Cities_List/boulder.png,,,,,49,,,1,0.25806451612903225,../static/images/US_Cities_List/peoria.png,../static/images/US_Cities_List/hanover.png,../static/images/US_Cities_List/hotsprings.png,../static/images/US_Cities_List/peoria.png,../static/images/US_Cities_List/hotsprings.png,../static/images/US_Cities_List/hanover.png,1,,,,,,,,,
null,,html-keyboard-response,1179171,,,<p></p>,,,,,null,,,,,,,,,,,,,,,,,,,,
883,,directmemory_phase,1180073,,,../static/images/US_Cities_List/gatlinburg.png,,,,,50,,,0,0.25,../static/images/US_Cities_List/newhope.png,../static/images/US_Cities_List/hotsprings.png,../static/images/US_Cities_List/racine.png,../static/images/US_Cities_List/racine.png,../static/images/US_Cities_List/hotsprings.png,../static/images/US_Cities_List/newhope.png,0.5,closer,,,,,,,,
null,,html-keyboard-response,1181076,,,<p></p>,,,,,null,,,,,,,,,,,,,,,,,,,,
11164.600000023842,,intro_1,1192241,,,instruct,,,0,,,,,,,,,,,,,,,,,,,,,,
6012.600000023842,,intro_2,1198256,,,instruct,,,1,Next,,,,,,,,,,,,,,,,,,,,,
5874.800000011921,,intro_3,1204132,,,instruct,,,1,Next,,,,,,,,,,,,,,,,,,,,,
21922,,intro_4,1226056,,,instruct,,,1,Next,,,,,,,,,,,,,,,,,,,,,
21234.30000001192,,intro_5,1247292,,,instruct,,,1,Next,,,,,,,,,,,,,,,,,,,,,
10997.199999988079,,intro_6,1258291,,,instruct,,,1,Next,,,,,,,,,,,,,,,,,,,,,
89520,,intro_7,1347813,,,instruct,,,1,Next,,,,,,,,,,,,,,,,,,,,,
9488.300000011921,,intro_8,1357303,,,instruct,,,1,Next,,,,,,,,,,,,,,,,,,,,,
15276.600000023842,,intro_9,1372582,,,instruct,,,1,Next,,,,,,,,,,,,,,,,,,,,,
9794.900000035763,,intro_10,1382378,,,instruct,,,1,Next,,,,,,,,,,,,,,,,,,,,,
14571.199999988079,,intro_11,1396951,,,instruct,,,1,Next,,,,,,,,,,,,,,,,,,,,,
861.9000000357628,,shortestpath_phase,1397835,,,../static/images/US_Cities_List/newhope.png,,,,,50,../static/images/US_Cities_List/hotsprings.png,../static/images/US_Cities_List/cornwall.png,0,0,,,,../static/images/US_Cities_List/hotsprings.png,,,,,Two Edge Diff,Four Edge Six Edge,,,,,,
null,,html-keyboard-response,1398839,,,<p></p>,,,,,null,,,,,,,,,,,,,,,,,,,,
699.6999999880791,,shortestpath_phase,1399553,,,../static/images/US_Cities_List/cornwall.png,,,,,49,../static/images/US_Cities_List/shreveport.png,../static/images/US_Cities_List/leesburg.png,0,0,,,,../static/images/US_Cities_List/leesburg.png,,,,,Two Edge Diff,Four Edge Six Edge,,,,,,
null,,html-keyboard-response,1400556,,,<p></p>,,,,,null,,,,,,,,,,,,,,,,,,,,
881.3999999761581,,shortestpath_phase,1401453,,,../static/images/US_Cities_List/newhope.png,,,,,50,../static/images/US_Cities_List/hanover.png,../static/images/US_Cities_List/huntsville.png,1,0.3333333333333333,,,,../static/images/US_Cities_List/huntsville.png,,,,,One Edge Diff,Five Edge Six Edge,,,,,,
null,,html-keyboard-response,1402466,,,<p></p>,,,,,null,,,,,,,,,,,,,,,,,,,,
856.4000000357628,,shortestpath_phase,1403340,,,../static/images/US_Cities_List/cornwall.png,,,,,50,../static/images/US_Cities_List/newhope.png,../static/images/US_Cities_List/leesburg.png,1,0.5,,,,../static/images/US_Cities_List/leesburg.png,,,,,Two Edge Diff,Four Edge Six Edge,,,,,,
null,,html-keyboard-response,1404343,,,<p></p>,,,,,null,,,,,,,,,,,,,,,,,,,,
602.6999999880791,,shortestpath_phase,1404961,,,../static/images/US_Cities_List/boulder.png,,,,,49,../static/images/US_Cities_List/cornwall.png,../static/images/US_Cities_List/newhope.png,0,0.4,,,,../static/images/US_Cities_List/newhope.png,,,,,Three Edge Diff,Two Edge Five Edge,,,,,,
null,,html-keyboard-response,1405964,,,<p></p>,,,,,null,,,,,,,,,,,,,,,,,,,,
401.60000002384186,,shortestpath_phase,1406377,,,../static/images/US_Cities_List/carmel.png,,,,,49,../static/images/US_Cities_List/gatlinburg.png,../static/images/US_Cities_List/shreveport.png,1,0.5,,,,../static/images/US_Cities_List/gatlinburg.png,,,,,Three Edge Diff,Two Edge Five Edge,,,,,,
null,,html-keyboard-response,1407381,,,<p></p>,,,,,null,,,,,,,,,,,,,,,,,,,,
763.6000000238419,,shortestpath_phase,1408161,,,../static/images/US_Cities_List/boulder.png,,,,,50,../static/images/US_Cities_List/hotsprings.png,../static/images/US_Cities_List/cornwall.png,0,0.42857142857142855,,,,../static/images/US_Cities_List/hotsprings.png,,,,,Three Edge Diff,Two Edge Five Edge,,,,,,
null,,html-keyboard-response,1409165,,,<p></p>,,,,,null,,,,,,,,,,,,,,,,,,,,
699.0999999642372,,shortestpath_phase,1409878,,,../static/images/US_Cities_List/shreveport.png,,,,,50,../static/images/US_Cities_List/carmel.png,../static/images/US_Cities_List/newhope.png,1,0.5,,,,../static/images/US_Cities_List/newhope.png,,,,,Two Edge Diff,Three Edge Five Edge,,,,,,
null,,html-keyboard-response,1410881,,,<p></p>,,,,,null,,,,,,,,,,,,,,,,,,,,
786.5999999642372,,shortestpath_phase,1411684,,,../static/images/US_Cities_List/boulder.png,,,,,49,../static/images/US_Cities_List/cornwall.png,../static/images/US_Cities_List/leesburg.png,0,0.4444444444444444,,,,../static/images/US_Cities_List/leesburg.png,,,,,Three Edge Diff,Two Edge Five Edge,,,,,,
null,,html-keyboard-response,1412687,,,<p></p>,,,,,null,,,,,,,,,,,,,,,,,,,,
453.60000002384186,,shortestpath_phase,1413156,,,../static/images/US_Cities_List/hanover.png,,,,,50,../static/images/US_Cities_List/cornwall.png,../static/images/US_Cities_List/shreveport.png,0,0.4,,,,../static/images/US_Cities_List/cornwall.png,,,,,Two Edge Diff,Three Edge Five Edge,,,,,,
null,,html-keyboard-response,1414158,,,<p></p>,,,,,null,,,,,,,,,,,,,,,,,,,,
550,,shortestpath_phase,1414723,,,../static/images/US_Cities_List/leesburg.png,,,,,49,../static/images/US_Cities_List/huntsville.png,../static/images/US_Cities_List/cornwall.png,1,0.45454545454545453,,,,../static/images/US_Cities_List/huntsville.png,,,,,One Edge Diff,Three Edge Four Edge,,,,,,
null,,html-keyboard-response,1415726,,,<p></p>,,,,,null,,,,,,,,,,,,,,,,,,,,
349.9000000357628,,shortestpath_phase,1416086,,,../static/images/US_Cities_List/carmel.png,,,,,50,../static/images/US_Cities_List/hotsprings.png,../static/images/US_Cities_List/shreveport.png,0,0.4166666666666667,,,,../static/images/US_Cities_List/hotsprings.png,,,,,Three Edge Diff,Two Edge Five Edge,,,,,,
null,,html-keyboard-response,1417089,,,<p></p>,,,,,null,,,,,,,,,,,,,,,,,,,,
634.6000000238419,,shortestpath_phase,1417734,,,../static/images/US_Cities_List/cornwall.png,,,,,49,../static/images/US_Cities_List/huntsville.png,../static/images/US_Cities_List/westpalmbeach.png,1,0.46153846153846156,,,,../static/images/US_Cities_List/huntsville.png,,,,,Three Edge Diff,Three Edge Six Edge,,,,,,
null,,html-keyboard-response,1418737,,,<p></p>,,,,,null,,,,,,,,,,,,,,,,,,,,
