rt,responses,trial_type,time_elapsed,image_type,sequence,stimulus,cities,city_images,button_pressed,response,key_press,stimulus_left,stimulus_right,cumulative_accuracy,accuracy,stimulus_down_left,stimulus_down_mid,stimulus_down_right,stimulus_correct,stimulus_short,stimulus_far,weighted_accuracy,missedtrial,condition,specific_pairs,imgL_ID,imgR_ID,linedress,linedressed,detour_trial,linedressed_detor
42382.89999997616,{worker_id:67dd46602623d4bf857f7fa2},id_enter,42386,fictional,interleaved,flights,Hollendale; Hawthorne Bluffs; Sunmere; Juniper Creek; Granton Ridge; Riverlyn; Baymarsh; Delaro Park; Orchard Bend; North Arroya; Claywater; New Verdan; Cedarwyn,US_Cities_List/carmel.png; US_Cities_List/shreveport.png; US_Cities_List/hotsprings.png; US_Cities_List/gatlinburg.png; US_Cities_List/hanover.png; US_Cities_List/westpalmbeach.png; US_Cities_List/leesburg.png; US_Cities_List/cornwall.png; US_Cities_List/peoria.png; US_Cities_List/newhope.png; US_Cities_List/boulder.png; US_Cities_List/racine.png; US_Cities_List/huntsville.png,,,,,,,,,,,,,,,,,,,,,,,
28227.100000023842,,fullscreen,70625,,,make_fullscreen,,,0,,,,,,,,,,,,,,,,,,,,,,
4734.5,,intro_1,75362,,,instruct,,,0,,,,,,,,,,,,,,,,,,,,,,
3715.2000000476837,,intro_2,79079,,,instruct,,,0,Previous,,,,,,,,,,,,,,,,,,,,,
39110.700000047684,,intro_1,118190,,,instruct,,,0,,,,,,,,,,,,,,,,,,,,,,
9183.899999976158,,intro_2,127376,,,instruct,,,1,Next,,,,,,,,,,,,,,,,,,,,,
39179.700000047684,,intro_3,166557,,,instruct,,,1,Next,,,,,,,,,,,,,,,,,,,,,
20996.100000023842,,intro_4,187555,,,instruct,,,1,Next,,,,,,,,,,,,,,,,,,,,,
35557.89999997616,,intro_5,223115,,,instruct,,,1,Next,,,,,,,,,,,,,,,,,,,,,
48854.5,,intro_6,271971,,,instruct,,,1,Next,,,,,,,,,,,,,,,,,,,,,
40339.299999952316,,intro_7,312312,,,instruct,,,1,Next,,,,,,,,,,,,,,,,,,,,,
null,,learn_prac_1,315314,,,lean_prac_1,,,,,null,,,,,,,,,,,,,,,,,,,,
null,,html-keyboard-response,316316,,,<p></p>,,,,,null,,,,,,,,,,,,,,,,,,,,
12527.799999952316,,intro_1,328846,,,instruct,,,0,,,,,,,,,,,,,,,,,,,,,,
5355.099999904633,,intro_2,334204,,,instruct,,,1,Next,,,,,,,,,,,,,,,,,,,,,
null,,learn_prac_2,337207,,,lean_prac_2,,,,,null,,,,,,,,,,,,,,,,,,,,
null,,html-keyboard-response,338210,,,<p></p>,,,,,null,,,,,,,,,,,,,,,,,,,,
6230.799999952316,,intro_1,344443,,,instruct,,,0,,,,,,,,,,,,,,,,,,,,,,
3196,,intro_2,347641,,,instruct,,,1,Next,,,,,,,,,,,,,,,,,,,,,
16848.700000047684,,intro_3,364492,,,instruct,,,1,Next,,,,,,,,,,,,,,,,,,,,,
null,,prac_atten_color_black,364913,,,black_plus_sign,,,,,null,,,,,,,,,,,,,,,,,,,,
855.7999999523163,,prac_atten_color,365897,,,prac_stop_color,,,,,49,,,,,,,,,,,,,,,,,,,,
null,,prac_atten_color_black,367899,,,black_plus_sign,,,,,null,,,,,,,,,,,,,,,,,,,,
null,,prac_atten_color_black,368321,,,black_plus_sign,,,,,null,,,,,,,,,,,,,,,,,,,,
544.8000000715256,,prac_atten_color,369008,,,prac_stop_color,,,,,50,,,,,,,,,,,,,,,,,,,,
null,,prac_atten_color_black,371010,,,black_plus_sign,,,,,null,,,,,,,,,,,,,,,,,,,,
null,,prac_atten_color_black,371728,,,black_plus_sign,,,,,null,,,,,,,,,,,,,,,,,,,,
409,,prac_atten_color,372308,,,prac_stop_color,,,,,50,,,,,,,,,,,,,,,,,,,,
null,,prac_atten_color_black,374311,,,black_plus_sign,,,,,null,,,,,,,,,,,,,,,,,,,,
null,,prac_atten_color_black,375136,,,black_plus_sign,,,,,null,,,,,,,,,,,,,,,,,,,,
498,,prac_atten_color,375784,,,prac_stop_color,,,,,49,,,,,,,,,,,,,,,,,,,,
null,,prac_atten_color_black,377787,,,black_plus_sign,,,,,null,,,,,,,,,,,,,,,,,,,,
null,,prac_atten_color_black,378544,,,black_plus_sign,,,,,null,,,,,,,,,,,,,,,,,,,,
296.7000000476837,,prac_atten_color,379142,,,prac_stop_color,,,,,50,,,,,,,,,,,,,,,,,,,,
null,,prac_atten_color_black,381145,,,black_plus_sign,,,,,null,,,,,,,,,,,,,,,,,,,,
null,,prac_atten_color_black,381963,,,black_plus_sign,,,,,null,,,,,,,,,,,,,,,,,,,,
465.39999997615814,,prac_atten_color,382644,,,prac_stop_color,,,,,50,,,,,,,,,,,,,,,,,,,,
null,,prac_atten_color_black,384645,,,black_plus_sign,,,,,null,,,,,,,,,,,,,,,,,,,,
null,,prac_atten_color_black,385371,,,black_plus_sign,,,,,null,,,,,,,,,,,,,,,,,,,,
399.90000009536743,,prac_atten_color,386026,,,prac_stop_color,,,,,50,,,,,,,,,,,,,,,,,,,,
97.90000009536743,,prac_atten_color_black,388028,,,black_plus_sign,,,,,49,,,,,,,,,,,,,,,,,,,,
null,,prac_atten_color_black,388792,,,black_plus_sign,,,,,null,,,,,,,,,,,,,,,,,,,,
538.1000000238419,,prac_atten_color,389516,,,prac_stop_color,,,,,49,,,,,,,,,,,,,,,,,,,,
81.79999995231628,,prac_atten_color_black,391519,,,black_plus_sign,,,,,50,,,,,,,,,,,,,,,,,,,,
null,,prac_atten_color_black,392200,,,black_plus_sign,,,,,null,,,,,,,,,,,,,,,,,,,,
575.7000000476837,,prac_atten_color,393314,,,prac_stop_color,,,,,49,,,,,,,,,,,,,,,,,,,,
null,,prac_atten_color_black,395315,,,black_plus_sign,,,,,null,,,,,,,,,,,,,,,,,,,,
null,,prac_atten_color_black,395622,,,black_plus_sign,,,,,null,,,,,,,,,,,,,,,,,,,,
599.7000000476837,,prac_atten_color,396491,,,prac_stop_color,,,,,49,,,,,,,,,,,,,,,,,,,,
null,,prac_atten_color_black,398493,,,black_plus_sign,,,,,null,,,,,,,,,,,,,,,,,,,,
54304.5,,attentioncheck_feedback,452800,,,cross_check_feedback,,,0,,,,,,,,,,,,,,,,,,,,,,
19329.699999928474,,last_instruct,472131,,,instruct,,,,,32,,,,,,,,,,,,,,,,,,,,
null,,learn_phase(without_color),475142,,,black_plus_sign,,,,,null,US_Cities_List/huntsville.png,US_Cities_List/leesburg.png,,,,,,,,,,,,,,,,,,
null,,black_cross(without_color),476125,,,blue,,,,,null,US_Cities_List/huntsville.png,US_Cities_List/leesburg.png,,,,,,,,,,,,,,,,,,
null,,rt_plussign_withcolor,476628,,,blue,,,,,null,US_Cities_List/huntsville.png,US_Cities_List/leesburg.png,,,,,,,,,,,,,,,,,,
null,,rt_thecrossant_black,477650,,,black_plus_sign,,,,,null,,,NaN,,,,,,,,,,,,,,,,,
null,,color_black,477753,,,black_plus_sign,,,,,null,,,,,,,,,,,,,,,,,,,,
null,,learn_phase(without_color),480769,,,black_plus_sign,,,,,null,US_Cities_List/racine.png,US_Cities_List/boulder.png,,,,,,,,,,,,,,,,,,
null,,black_cross(without_color),481493,,,yellow,,,,,null,US_Cities_List/racine.png,US_Cities_List/boulder.png,,,,,,,,,,,,,,,,,,
null,,rt_plussign_withcolor,481995,,,yellow,,,,,null,US_Cities_List/racine.png,US_Cities_List/boulder.png,,,,,,,,,,,,,,,,,,
null,,rt_thecrossant_black,483276,,,black_plus_sign,,,,,null,,,NaN,,,,,,,,,,,,,,,,,
null,,warning_page,486278,,,warning,,,,,null,,,,,,,,,,,,,,,,,,,,
null,,color_black,486381,,,black_plus_sign,,,,,null,,,,,,,,,,,,,,,,,,,,
null,,learn_phase(without_color),489408,,,black_plus_sign,,,,,null,US_Cities_List/hotsprings.png,US_Cities_List/shreveport.png,,,,,,,,,,,,,,,,,,
null,,black_cross(without_color),490051,,,blue,,,,,null,US_Cities_List/hotsprings.png,US_Cities_List/shreveport.png,,,,,,,,,,,,,,,,,,
null,,rt_plussign_withcolor,490554,,,blue,,,,,null,US_Cities_List/hotsprings.png,US_Cities_List/shreveport.png,,,,,,,,,,,,,,,,,,
915.2000000476837,,rt_thecrossant_black,491915,,,black_plus_sign,,,,,50,,,0,0,,,,,,,,,,,,,,,,
null,,warning_page,495198,,,warning,,,,,null,,,,,,,,,,,,,,,,,,,,
null,,color_black,495564,,,black_plus_sign,,,,,null,,,,,,,,,,,,,,,,,,,,
null,,learn_phase(without_color),498579,,,black_plus_sign,,,,,null,US_Cities_List/cornwall.png,US_Cities_List/peoria.png,,,,,,,,,,,,,,,,,,
null,,black_cross(without_color),499168,,,blue,,,,,null,US_Cities_List/cornwall.png,US_Cities_List/peoria.png,,,,,,,,,,,,,,,,,,
null,,rt_plussign_withcolor,499670,,,blue,,,,,null,US_Cities_List/cornwall.png,US_Cities_List/peoria.png,,,,,,,,,,,,,,,,,,
null,,rt_thecrossant_black,501087,,,black_plus_sign,,,,,null,,,0,,,,,,,,,,,,,,,,,
null,,color_black,501191,,,black_plus_sign,,,,,null,,,,,,,,,,,,,,,,,,,,
null,,learn_phase(without_color),504225,,,black_plus_sign,,,,,null,US_Cities_List/newhope.png,US_Cities_List/cornwall.png,,,,,,,,,,,,,,,,,,
null,,black_cross(without_color),504965,,,blue,,,,,null,US_Cities_List/newhope.png,US_Cities_List/cornwall.png,,,,,,,,,,,,,,,,,,
321,,rt_plussign_withcolor,505467,,,blue,,,,,49,US_Cities_List/newhope.png,US_Cities_List/cornwall.png,,,,,,,,,,,,,,,,,,
null,,rt_thecrossant_black,506733,,,black_plus_sign,,,,,null,,,0.5,1,,,,,,,,,,,,,,,,
null,,color_black,506834,,,black_plus_sign,,,,,null,,,,,,,,,,,,,,,,,,,,
null,,learn_phase(without_color),509847,,,black_plus_sign,,,,,null,US_Cities_List/peoria.png,US_Cities_List/westpalmbeach.png,,,,,,,,,,,,,,,,,,
null,,black_cross(without_color),510710,,,yellow,,,,,null,US_Cities_List/peoria.png,US_Cities_List/westpalmbeach.png,,,,,,,,,,,,,,,,,,
326.6999999284744,,rt_plussign_withcolor,511211,,,yellow,,,,,50,US_Cities_List/peoria.png,US_Cities_List/westpalmbeach.png,,,,,,,,,,,,,,,,,,
null,,rt_thecrossant_black,512354,,,black_plus_sign,,,,,null,,,0.6666666666666666,1,,,,,,,,,,,,,,,,
null,,color_black,512460,,,black_plus_sign,,,,,null,,,,,,,,,,,,,,,,,,,,
null,,learn_phase(without_color),515483,,,black_plus_sign,,,,,null,US_Cities_List/shreveport.png,US_Cities_List/gatlinburg.png,,,,,,,,,,,,,,,,,,
null,,black_cross(without_color),516370,,,blue,,,,,null,US_Cities_List/shreveport.png,US_Cities_List/gatlinburg.png,,,,,,,,,,,,,,,,,,
302.89999997615814,,rt_plussign_withcolor,516872,,,blue,,,,,49,US_Cities_List/shreveport.png,US_Cities_List/gatlinburg.png,,,,,,,,,,,,,,,,,,
null,,rt_thecrossant_black,517991,,,black_plus_sign,,,,,null,,,0.75,1,,,,,,,,,,,,,,,,
null,,color_black,518094,,,black_plus_sign,,,,,null,,,,,,,,,,,,,,,,,,,,
null,,learn_phase(without_color),521108,,,black_plus_sign,,,,,null,US_Cities_List/shreveport.png,US_Cities_List/hotsprings.png,,,,,,,,,,,,,,,,,,
null,,black_cross(without_color),521945,,,blue,,,,,null,US_Cities_List/shreveport.png,US_Cities_List/hotsprings.png,,,,,,,,,,,,,,,,,,
442.3000000715256,,rt_plussign_withcolor,522447,,,blue,,,,,49,US_Cities_List/shreveport.png,US_Cities_List/hotsprings.png,,,,,,,,,,,,,,,,,,
null,,rt_thecrossant_black,523615,,,black_plus_sign,,,,,null,,,0.8,1,,,,,,,,,,,,,,,,
null,,color_black,523718,,,black_plus_sign,,,,,null,,,,,,,,,,,,,,,,,,,,
null,,learn_phase(without_color),526752,,,black_plus_sign,,,,,null,US_Cities_List/cornwall.png,US_Cities_List/leesburg.png,,,,,,,,,,,,,,,,,,
null,,black_cross(without_color),527301,,,blue,,,,,null,US_Cities_List/cornwall.png,US_Cities_List/leesburg.png,,,,,,,,,,,,,,,,,,
null,,rt_plussign_withcolor,527803,,,blue,,,,,null,US_Cities_List/cornwall.png,US_Cities_List/leesburg.png,,,,,,,,,,,,,,,,,,
1052.9000000953674,,rt_thecrossant_black,529265,,,black_plus_sign,,,,,49,,,0.8333333333333334,1,,,,,,,,,,,,,,,,
null,,color_black,529367,,,black_plus_sign,,,,,null,,,,,,,,,,,,,,,,,,,,
null,,learn_phase(without_color),532398,,,black_plus_sign,,,,,null,US_Cities_List/hanover.png,US_Cities_List/gatlinburg.png,,,,,,,,,,,,,,,,,,
null,,black_cross(without_color),533129,,,yellow,,,,,null,US_Cities_List/hanover.png,US_Cities_List/gatlinburg.png,,,,,,,,,,,,,,,,,,
466.10000002384186,,rt_plussign_withcolor,533631,,,yellow,,,,,50,US_Cities_List/hanover.png,US_Cities_List/gatlinburg.png,,,,,,,,,,,,,,,,,,
null,,rt_thecrossant_black,534905,,,black_plus_sign,,,,,null,,,0.8571428571428571,1,,,,,,,,,,,,,,,,
null,,color_black,535008,,,black_plus_sign,,,,,null,,,,,,,,,,,,,,,,,,,,
null,,learn_phase(without_color),538039,,,black_plus_sign,,,,,null,US_Cities_List/hotsprings.png,US_Cities_List/shreveport.png,,,,,,,,,,,,,,,,,,
null,,black_cross(without_color),538504,,,yellow,,,,,null,US_Cities_List/hotsprings.png,US_Cities_List/shreveport.png,,,,,,,,,,,,,,,,,,
null,,rt_plussign_withcolor,539007,,,yellow,,,,,null,US_Cities_List/hotsprings.png,US_Cities_List/shreveport.png,,,,,,,,,,,,,,,,,,
882.9000000953674,,rt_thecrossant_black,540553,,,black_plus_sign,,,,,50,,,0.875,1,,,,,,,,,,,,,,,,
null,,color_black,540656,,,black_plus_sign,,,,,null,,,,,,,,,,,,,,,,,,,,
null,,learn_phase(without_color),543684,,,black_plus_sign,,,,,null,US_Cities_List/leesburg.png,US_Cities_List/westpalmbeach.png,,,,,,,,,,,,,,,,,,
null,,black_cross(without_color),544497,,,blue,,,,,null,US_Cities_List/leesburg.png,US_Cities_List/westpalmbeach.png,,,,,,,,,,,,,,,,,,
null,,rt_plussign_withcolor,545000,,,blue,,,,,null,US_Cities_List/leesburg.png,US_Cities_List/westpalmbeach.png,,,,,,,,,,,,,,,,,,
700,,rt_thecrossant_black,546192,,,black_plus_sign,,,,,49,,,0.8888888888888888,1,,,,,,,,,,,,,,,,
null,,color_black,546295,,,black_plus_sign,,,,,null,,,,,,,,,,,,,,,,,,,,
null,,learn_phase(without_color),549323,,,black_plus_sign,,,,,null,US_Cities_List/shreveport.png,US_Cities_List/gatlinburg.png,,,,,,,,,,,,,,,,,,
null,,black_cross(without_color),549902,,,yellow,,,,,null,US_Cities_List/shreveport.png,US_Cities_List/gatlinburg.png,,,,,,,,,,,,,,,,,,
null,,rt_plussign_withcolor,550403,,,yellow,,,,,null,US_Cities_List/shreveport.png,US_Cities_List/gatlinburg.png,,,,,,,,,,,,,,,,,,
968,,rt_thecrossant_black,551839,,,black_plus_sign,,,,,50,,,0.9,1,,,,,,,,,,,,,,,,
null,,color_black,551943,,,black_plus_sign,,,,,null,,,,,,,,,,,,,,,,,,,,
null,,learn_phase(without_color),554979,,,black_plus_sign,,,,,null,US_Cities_List/leesburg.png,US_Cities_List/cornwall.png,,,,,,,,,,,,,,,,,,
null,,black_cross(without_color),555956,,,blue,,,,,null,US_Cities_List/leesburg.png,US_Cities_List/cornwall.png,,,,,,,,,,,,,,,,,,
null,,rt_plussign_withcolor,556458,,,blue,,,,,null,US_Cities_List/leesburg.png,US_Cities_List/cornwall.png,,,,,,,,,,,,,,,,,,
687.8999999761581,,rt_thecrossant_black,557493,,,black_plus_sign,,,,,49,,,0.9090909090909091,1,,,,,,,,,,,,,,,,
null,,color_black,557595,,,black_plus_sign,,,,,null,,,,,,,,,,,,,,,,,,,,
null,,learn_phase(without_color),560611,,,black_plus_sign,,,,,null,US_Cities_List/cornwall.png,US_Cities_List/peoria.png,,,,,,,,,,,,,,,,,,
null,,black_cross(without_color),561367,,,blue,,,,,null,US_Cities_List/cornwall.png,US_Cities_List/peoria.png,,,,,,,,,,,,,,,,,,
null,,rt_plussign_withcolor,561868,,,blue,,,,,null,US_Cities_List/cornwall.png,US_Cities_List/peoria.png,,,,,,,,,,,,,,,,,,
1149.5,,rt_thecrossant_black,563118,,,black_plus_sign,,,,,49,,,0.9166666666666666,1,,,,,,,,,,,,,,,,
null,,color_black,563220,,,black_plus_sign,,,,,null,,,,,,,,,,,,,,,,,,,,
null,,learn_phase(without_color),566243,,,black_plus_sign,,,,,null,US_Cities_List/cornwall.png,US_Cities_List/peoria.png,,,,,,,,,,,,,,,,,,
null,,black_cross(without_color),566921,,,blue,,,,,null,US_Cities_List/cornwall.png,US_Cities_List/peoria.png,,,,,,,,,,,,,,,,,,
null,,rt_plussign_withcolor,567423,,,blue,,,,,null,US_Cities_List/cornwall.png,US_Cities_List/peoria.png,,,,,,,,,,,,,,,,,,
896.7000000476837,,rt_thecrossant_black,568760,,,black_plus_sign,,,,,49,,,0.9230769230769231,1,,,,,,,,,,,,,,,,
null,,color_black,568863,,,black_plus_sign,,,,,null,,,,,,,,,,,,,,,,,,,,
null,,learn_phase(without_color),571879,,,black_plus_sign,,,,,null,US_Cities_List/hotsprings.png,US_Cities_List/westpalmbeach.png,,,,,,,,,,,,,,,,,,
null,,black_cross(without_color),572644,,,blue,,,,,null,US_Cities_List/hotsprings.png,US_Cities_List/westpalmbeach.png,,,,,,,,,,,,,,,,,,
null,,rt_plussign_withcolor,573146,,,blue,,,,,null,US_Cities_List/hotsprings.png,US_Cities_List/westpalmbeach.png,,,,,,,,,,,,,,,,,,
1014.6000000238419,,rt_thecrossant_black,574396,,,black_plus_sign,,,,,49,,,0.9285714285714286,1,,,,,,,,,,,,,,,,
null,,color_black,574498,,,black_plus_sign,,,,,null,,,,,,,,,,,,,,,,,,,,
null,,learn_phase(without_color),577528,,,black_plus_sign,,,,,null,US_Cities_List/peoria.png,US_Cities_List/westpalmbeach.png,,,,,,,,,,,,,,,,,,
null,,black_cross(without_color),578064,,,yellow,,,,,null,US_Cities_List/peoria.png,US_Cities_List/westpalmbeach.png,,,,,,,,,,,,,,,,,,
410.5,,rt_plussign_withcolor,578566,,,yellow,,,,,50,US_Cities_List/peoria.png,US_Cities_List/westpalmbeach.png,,,,,,,,,,,,,,,,,,
null,,rt_thecrossant_black,580035,,,black_plus_sign,,,,,null,,,0.9333333333333333,1,,,,,,,,,,,,,,,,
null,,color_black,580138,,,black_plus_sign,,,,,null,,,,,,,,,,,,,,,,,,,,
null,,learn_phase(without_color),583158,,,black_plus_sign,,,,,null,US_Cities_List/peoria.png,US_Cities_List/westpalmbeach.png,,,,,,,,,,,,,,,,,,
null,,black_cross(without_color),584138,,,blue,,,,,null,US_Cities_List/peoria.png,US_Cities_List/westpalmbeach.png,,,,,,,,,,,,,,,,,,
null,,rt_plussign_withcolor,584641,,,blue,,,,,null,US_Cities_List/peoria.png,US_Cities_List/westpalmbeach.png,,,,,,,,,,,,,,,,,,
719,,rt_thecrossant_black,585665,,,black_plus_sign,,,,,49,,,0.9375,1,,,,,,,,,,,,,,,,
null,,color_black,585768,,,black_plus_sign,,,,,null,,,,,,,,,,,,,,,,,,,,
null,,learn_phase(without_color),588806,,,black_plus_sign,,,,,null,US_Cities_List/newhope.png,US_Cities_List/cornwall.png,,,,,,,,,,,,,,,,,,
null,,black_cross(without_color),589866,,,blue,,,,,null,US_Cities_List/newhope.png,US_Cities_List/cornwall.png,,,,,,,,,,,,,,,,,,
null,,rt_plussign_withcolor,590369,,,blue,,,,,null,US_Cities_List/newhope.png,US_Cities_List/cornwall.png,,,,,,,,,,,,,,,,,,
1149.8000000715256,,rt_thecrossant_black,591313,,,black_plus_sign,,,,,49,,,0.9411764705882353,1,,,,,,,,,,,,,,,,
null,,color_black,591416,,,black_plus_sign,,,,,null,,,,,,,,,,,,,,,,,,,,
null,,learn_phase(without_color),594448,,,black_plus_sign,,,,,null,US_Cities_List/cornwall.png,US_Cities_List/leesburg.png,,,,,,,,,,,,,,,,,,
null,,black_cross(without_color),595210,,,yellow,,,,,null,US_Cities_List/cornwall.png,US_Cities_List/leesburg.png,,,,,,,,,,,,,,,,,,
378.60000002384186,,rt_plussign_withcolor,595712,,,yellow,,,,,50,US_Cities_List/cornwall.png,US_Cities_List/leesburg.png,,,,,,,,,,,,,,,,,,
null,,rt_thecrossant_black,596956,,,black_plus_sign,,,,,null,,,0.9444444444444444,1,,,,,,,,,,,,,,,,
null,,color_black,597059,,,black_plus_sign,,,,,null,,,,,,,,,,,,,,,,,,,,
null,,learn_phase(without_color),600083,,,black_plus_sign,,,,,null,US_Cities_List/leesburg.png,US_Cities_List/huntsville.png,,,,,,,,,,,,,,,,,,
null,,black_cross(without_color),601154,,,yellow,,,,,null,US_Cities_List/leesburg.png,US_Cities_List/huntsville.png,,,,,,,,,,,,,,,,,,
null,,rt_plussign_withcolor,601655,,,yellow,,,,,null,US_Cities_List/leesburg.png,US_Cities_List/huntsville.png,,,,,,,,,,,,,,,,,,
1091,,rt_thecrossant_black,602589,,,black_plus_sign,,,,,50,,,0.9473684210526315,1,,,,,,,,,,,,,,,,
null,,color_black,602692,,,black_plus_sign,,,,,null,,,,,,,,,,,,,,,,,,,,
null,,learn_phase(without_color),605708,,,black_plus_sign,,,,,null,US_Cities_List/carmel.png,US_Cities_List/shreveport.png,,,,,,,,,,,,,,,,,,
null,,black_cross(without_color),606559,,,yellow,,,,,null,US_Cities_List/carmel.png,US_Cities_List/shreveport.png,,,,,,,,,,,,,,,,,,
null,,rt_plussign_withcolor,607061,,,yellow,,,,,null,US_Cities_List/carmel.png,US_Cities_List/shreveport.png,,,,,,,,,,,,,,,,,,
1211.3999999761581,,rt_thecrossant_black,608216,,,black_plus_sign,,,,,50,,,0.95,1,,,,,,,,,,,,,,,,
null,,color_black,608319,,,black_plus_sign,,,,,null,,,,,,,,,,,,,,,,,,,,
null,,learn_phase(without_color),611343,,,black_plus_sign,,,,,null,US_Cities_List/leesburg.png,US_Cities_List/peoria.png,,,,,,,,,,,,,,,,,,
null,,black_cross(without_color),612158,,,yellow,,,,,null,US_Cities_List/leesburg.png,US_Cities_List/peoria.png,,,,,,,,,,,,,,,,,,
null,,rt_plussign_withcolor,612660,,,yellow,,,,,null,US_Cities_List/leesburg.png,US_Cities_List/peoria.png,,,,,,,,,,,,,,,,,,
989.8999999761581,,rt_thecrossant_black,613850,,,black_plus_sign,,,,,50,,,0.9523809523809523,1,,,,,,,,,,,,,,,,
null,,color_black,613953,,,black_plus_sign,,,,,null,,,,,,,,,,,,,,,,,,,,
null,,learn_phase(without_color),616976,,,black_plus_sign,,,,,null,US_Cities_List/hotsprings.png,US_Cities_List/boulder.png,,,,,,,,,,,,,,,,,,
null,,black_cross(without_color),617985,,,yellow,,,,,null,US_Cities_List/hotsprings.png,US_Cities_List/boulder.png,,,,,,,,,,,,,,,,,,
500,,rt_plussign_withcolor,618487,,,yellow,,,,,50,US_Cities_List/hotsprings.png,US_Cities_List/boulder.png,,,,,,,,,,,,,,,,,,
null,,rt_thecrossant_black,619483,,,black_plus_sign,,,,,null,,,0.9545454545454546,1,,,,,,,,,,,,,,,,
null,,color_black,619585,,,black_plus_sign,,,,,null,,,,,,,,,,,,,,,,,,,,
null,,learn_phase(without_color),622619,,,black_plus_sign,,,,,null,US_Cities_List/shreveport.png,US_Cities_List/carmel.png,,,,,,,,,,,,,,,,,,
null,,black_cross(without_color),623179,,,blue,,,,,null,US_Cities_List/shreveport.png,US_Cities_List/carmel.png,,,,,,,,,,,,,,,,,,
null,,rt_plussign_withcolor,623681,,,blue,,,,,null,US_Cities_List/shreveport.png,US_Cities_List/carmel.png,,,,,,,,,,,,,,,,,,
1166.1999999284744,,rt_thecrossant_black,625125,,,black_plus_sign,,,,,49,,,0.9565217391304348,1,,,,,,,,,,,,,,,,
null,,color_black,625228,,,black_plus_sign,,,,,null,,,,,,,,,,,,,,,,,,,,
null,,learn_phase(without_color),628245,,,black_plus_sign,,,,,null,US_Cities_List/leesburg.png,US_Cities_List/westpalmbeach.png,,,,,,,,,,,,,,,,,,
null,,black_cross(without_color),629052,,,yellow,,,,,null,US_Cities_List/leesburg.png,US_Cities_List/westpalmbeach.png,,,,,,,,,,,,,,,,,,
481.6999999284744,,rt_plussign_withcolor,629554,,,yellow,,,,,50,US_Cities_List/leesburg.png,US_Cities_List/westpalmbeach.png,,,,,,,,,,,,,,,,,,
null,,rt_thecrossant_black,630752,,,black_plus_sign,,,,,null,,,0.9583333333333334,1,,,,,,,,,,,,,,,,
null,,color_black,630854,,,black_plus_sign,,,,,null,,,,,,,,,,,,,,,,,,,,
null,,learn_phase(without_color),633881,,,black_plus_sign,,,,,null,US_Cities_List/leesburg.png,US_Cities_List/westpalmbeach.png,,,,,,,,,,,,,,,,,,
null,,black_cross(without_color),634461,,,yellow,,,,,null,US_Cities_List/leesburg.png,US_Cities_List/westpalmbeach.png,,,,,,,,,,,,,,,,,,
null,,rt_plussign_withcolor,634963,,,yellow,,,,,null,US_Cities_List/leesburg.png,US_Cities_List/westpalmbeach.png,,,,,,,,,,,,,,,,,,
934.7000000476837,,rt_thecrossant_black,636390,,,black_plus_sign,,,,,50,,,0.96,1,,,,,,,,,,,,,,,,
null,,color_black,636493,,,black_plus_sign,,,,,null,,,,,,,,,,,,,,,,,,,,
null,,learn_phase(without_color),639519,,,black_plus_sign,,,,,null,US_Cities_List/boulder.png,US_Cities_List/peoria.png,,,,,,,,,,,,,,,,,,
null,,black_cross(without_color),640161,,,blue,,,,,null,US_Cities_List/boulder.png,US_Cities_List/peoria.png,,,,,,,,,,,,,,,,,,
null,,rt_plussign_withcolor,640667,,,blue,,,,,null,US_Cities_List/boulder.png,US_Cities_List/peoria.png,,,,,,,,,,,,,,,,,,
909.7999999523163,,rt_thecrossant_black,642030,,,black_plus_sign,,,,,49,,,0.9615384615384616,1,,,,,,,,,,,,,,,,
null,,color_black,642132,,,black_plus_sign,,,,,null,,,,,,,,,,,,,,,,,,,,
null,,learn_phase(without_color),645158,,,black_plus_sign,,,,,null,US_Cities_List/huntsville.png,US_Cities_List/leesburg.png,,,,,,,,,,,,,,,,,,
null,,black_cross(without_color),646112,,,yellow,,,,,null,US_Cities_List/huntsville.png,US_Cities_List/leesburg.png,,,,,,,,,,,,,,,,,,
499.60000002384186,,rt_plussign_withcolor,646614,,,yellow,,,,,50,US_Cities_List/huntsville.png,US_Cities_List/leesburg.png,,,,,,,,,,,,,,,,,,
null,,rt_thecrossant_black,647664,,,black_plus_sign,,,,,null,,,0.9629629629629629,1,,,,,,,,,,,,,,,,
null,,color_black,647768,,,black_plus_sign,,,,,null,,,,,,,,,,,,,,,,,,,,
null,,learn_phase(without_color),650791,,,black_plus_sign,,,,,null,US_Cities_List/gatlinburg.png,US_Cities_List/hanover.png,,,,,,,,,,,,,,,,,,
null,,black_cross(without_color),651891,,,blue,,,,,null,US_Cities_List/gatlinburg.png,US_Cities_List/hanover.png,,,,,,,,,,,,,,,,,,
464.7000000476837,,rt_plussign_withcolor,652394,,,blue,,,,,49,US_Cities_List/gatlinburg.png,US_Cities_List/hanover.png,,,,,,,,,,,,,,,,,,
null,,rt_thecrossant_black,653298,,,black_plus_sign,,,,,null,,,0.9642857142857143,1,,,,,,,,,,,,,,,,
null,,color_black,653401,,,black_plus_sign,,,,,null,,,,,,,,,,,,,,,,,,,,
null,,learn_phase(without_color),656419,,,black_plus_sign,,,,,null,US_Cities_List/shreveport.png,US_Cities_List/hotsprings.png,,,,,,,,,,,,,,,,,,
null,,black_cross(without_color),657470,,,yellow,,,,,null,US_Cities_List/shreveport.png,US_Cities_List/hotsprings.png,,,,,,,,,,,,,,,,,,
null,,rt_plussign_withcolor,657972,,,yellow,,,,,null,US_Cities_List/shreveport.png,US_Cities_List/hotsprings.png,,,,,,,,,,,,,,,,,,
1235.2999999523163,,rt_thecrossant_black,658929,,,black_plus_sign,,,,,50,,,0.9655172413793104,1,,,,,,,,,,,,,,,,
null,,color_black,659031,,,black_plus_sign,,,,,null,,,,,,,,,,,,,,,,,,,,
null,,learn_phase(without_color),662057,,,black_plus_sign,,,,,null,US_Cities_List/hotsprings.png,US_Cities_List/boulder.png,,,,,,,,,,,,,,,,,,
null,,black_cross(without_color),662949,,,yellow,,,,,null,US_Cities_List/hotsprings.png,US_Cities_List/boulder.png,,,,,,,,,,,,,,,,,,
null,,rt_plussign_withcolor,663450,,,yellow,,,,,null,US_Cities_List/hotsprings.png,US_Cities_List/boulder.png,,,,,,,,,,,,,,,,,,
1652.2999999523163,,rt_thecrossant_black,664566,,,black_plus_sign,,,,,50,,,0.9666666666666667,1,,,,,,,,,,,,,,,,
null,,color_black,664669,,,black_plus_sign,,,,,null,,,,,,,,,,,,,,,,,,,,
null,,learn_phase(without_color),667678,,,black_plus_sign,,,,,null,US_Cities_List/huntsville.png,US_Cities_List/leesburg.png,,,,,,,,,,,,,,,,,,
null,,black_cross(without_color),668259,,,blue,,,,,null,US_Cities_List/huntsville.png,US_Cities_List/leesburg.png,,,,,,,,,,,,,,,,,,
null,,rt_plussign_withcolor,668761,,,blue,,,,,null,US_Cities_List/huntsville.png,US_Cities_List/leesburg.png,,,,,,,,,,,,,,,,,,
1042.6999999284744,,rt_thecrossant_black,670185,,,black_plus_sign,,,,,49,,,0.967741935483871,1,,,,,,,,,,,,,,,,
null,,color_black,670289,,,black_plus_sign,,,,,null,,,,,,,,,,,,,,,,,,,,
null,,learn_phase(without_color),673304,,,black_plus_sign,,,,,null,US_Cities_List/leesburg.png,US_Cities_List/westpalmbeach.png,,,,,,,,,,,,,,,,,,
null,,black_cross(without_color),674117,,,blue,,,,,null,US_Cities_List/leesburg.png,US_Cities_List/westpalmbeach.png,,,,,,,,,,,,,,,,,,
null,,rt_plussign_withcolor,674618,,,blue,,,,,null,US_Cities_List/leesburg.png,US_Cities_List/westpalmbeach.png,,,,,,,,,,,,,,,,,,
994.9000000953674,,rt_thecrossant_black,675810,,,black_plus_sign,,,,,49,,,0.96875,1,,,,,,,,,,,,,,,,
null,,color_black,675912,,,black_plus_sign,,,,,null,,,,,,,,,,,,,,,,,,,,
null,,learn_phase(without_color),678929,,,black_plus_sign,,,,,null,US_Cities_List/shreveport.png,US_Cities_List/hotsprings.png,,,,,,,,,,,,,,,,,,
null,,black_cross(without_color),679546,,,blue,,,,,null,US_Cities_List/shreveport.png,US_Cities_List/hotsprings.png,,,,,,,,,,,,,,,,,,
419.39999997615814,,rt_plussign_withcolor,680049,,,blue,,,,,49,US_Cities_List/shreveport.png,US_Cities_List/hotsprings.png,,,,,,,,,,,,,,,,,,
null,,rt_thecrossant_black,681447,,,black_plus_sign,,,,,null,,,0.9696969696969697,1,,,,,,,,,,,,,,,,
null,,color_black,681550,,,black_plus_sign,,,,,null,,,,,,,,,,,,,,,,,,,,
null,,learn_phase(without_color),684582,,,black_plus_sign,,,,,null,US_Cities_List/leesburg.png,US_Cities_List/cornwall.png,,,,,,,,,,,,,,,,,,
null,,black_cross(without_color),685201,,,yellow,,,,,null,US_Cities_List/leesburg.png,US_Cities_List/cornwall.png,,,,,,,,,,,,,,,,,,
null,,rt_plussign_withcolor,685703,,,yellow,,,,,null,US_Cities_List/leesburg.png,US_Cities_List/cornwall.png,,,,,,,,,,,,,,,,,,
887.2000000476837,,rt_thecrossant_black,687089,,,black_plus_sign,,,,,50,,,0.9705882352941176,1,,,,,,,,,,,,,,,,
null,,color_black,687191,,,black_plus_sign,,,,,null,,,,,,,,,,,,,,,,,,,,
null,,learn_phase(without_color),690204,,,black_plus_sign,,,,,null,US_Cities_List/shreveport.png,US_Cities_List/hotsprings.png,,,,,,,,,,,,,,,,,,
null,,black_cross(without_color),691172,,,blue,,,,,null,US_Cities_List/shreveport.png,US_Cities_List/hotsprings.png,,,,,,,,,,,,,,,,,,
403.39999997615814,,rt_plussign_withcolor,691674,,,blue,,,,,49,US_Cities_List/shreveport.png,US_Cities_List/hotsprings.png,,,,,,,,,,,,,,,,,,
null,,rt_thecrossant_black,692711,,,black_plus_sign,,,,,null,,,0.9714285714285714,1,,,,,,,,,,,,,,,,
null,,color_black,692814,,,black_plus_sign,,,,,null,,,,,,,,,,,,,,,,,,,,
null,,learn_phase(without_color),695829,,,black_plus_sign,,,,,null,US_Cities_List/racine.png,US_Cities_List/gatlinburg.png,,,,,,,,,,,,,,,,,,
null,,black_cross(without_color),696694,,,blue,,,,,null,US_Cities_List/racine.png,US_Cities_List/gatlinburg.png,,,,,,,,,,,,,,,,,,
365.2999999523163,,rt_plussign_withcolor,697197,,,blue,,,,,50,US_Cities_List/racine.png,US_Cities_List/gatlinburg.png,,,,,,,,,,,,,,,,,,
null,,rt_thecrossant_black,698337,,,black_plus_sign,,,,,49,,,0.9444444444444444,0,,,,,,,,,,,,,,,,
null,,color_black,698439,,,black_plus_sign,,,,,null,,,,,,,,,,,,,,,,,,,,
null,,learn_phase(without_color),701472,,,black_plus_sign,,,,,null,US_Cities_List/cornwall.png,US_Cities_List/newhope.png,,,,,,,,,,,,,,,,,,
null,,black_cross(without_color),702151,,,yellow,,,,,null,US_Cities_List/cornwall.png,US_Cities_List/newhope.png,,,,,,,,,,,,,,,,,,
307,,rt_plussign_withcolor,702653,,,yellow,,,,,50,US_Cities_List/cornwall.png,US_Cities_List/newhope.png,,,,,,,,,,,,,,,,,,
null,,rt_thecrossant_black,703981,,,black_plus_sign,,,,,null,,,0.9459459459459459,1,,,,,,,,,,,,,,,,
null,,color_black,704084,,,black_plus_sign,,,,,null,,,,,,,,,,,,,,,,,,,,
null,,learn_phase(without_color),707113,,,black_plus_sign,,,,,null,US_Cities_List/cornwall.png,US_Cities_List/peoria.png,,,,,,,,,,,,,,,,,,
null,,black_cross(without_color),708020,,,yellow,,,,,null,US_Cities_List/cornwall.png,US_Cities_List/peoria.png,,,,,,,,,,,,,,,,,,
null,,rt_plussign_withcolor,708523,,,yellow,,,,,null,US_Cities_List/cornwall.png,US_Cities_List/peoria.png,,,,,,,,,,,,,,,,,,
841.6999999284744,,rt_thecrossant_black,709621,,,black_plus_sign,,,,,50,,,0.9473684210526315,1,,,,,,,,,,,,,,,,
null,,color_black,709723,,,black_plus_sign,,,,,null,,,,,,,,,,,,,,,,,,,,
null,,learn_phase(without_color),712744,,,black_plus_sign,,,,,null,US_Cities_List/newhope.png,US_Cities_List/cornwall.png,,,,,,,,,,,,,,,,,,
null,,black_cross(without_color),713281,,,blue,,,,,null,US_Cities_List/newhope.png,US_Cities_List/cornwall.png,,,,,,,,,,,,,,,,,,
null,,rt_plussign_withcolor,713784,,,blue,,,,,null,US_Cities_List/newhope.png,US_Cities_List/cornwall.png,,,,,,,,,,,,,,,,,,
1135.5,,rt_thecrossant_black,715254,,,black_plus_sign,,,,,49,,,0.9487179487179487,1,,,,,,,,,,,,,,,,
null,,color_black,715357,,,black_plus_sign,,,,,null,,,,,,,,,,,,,,,,,,,,
null,,learn_phase(without_color),718383,,,black_plus_sign,,,,,null,US_Cities_List/peoria.png,US_Cities_List/leesburg.png,,,,,,,,,,,,,,,,,,
null,,black_cross(without_color),719272,,,blue,,,,,null,US_Cities_List/peoria.png,US_Cities_List/leesburg.png,,,,,,,,,,,,,,,,,,
null,,rt_plussign_withcolor,719774,,,blue,,,,,null,US_Cities_List/peoria.png,US_Cities_List/leesburg.png,,,,,,,,,,,,,,,,,,
775.3999999761581,,rt_thecrossant_black,720889,,,black_plus_sign,,,,,49,,,0.95,1,,,,,,,,,,,,,,,,
null,,color_black,720991,,,black_plus_sign,,,,,null,,,,,,,,,,,,,,,,,,,,
null,,learn_phase(without_color),724004,,,black_plus_sign,,,,,null,US_Cities_List/gatlinburg.png,US_Cities_List/hanover.png,,,,,,,,,,,,,,,,,,
null,,black_cross(without_color),724949,,,yellow,,,,,null,US_Cities_List/gatlinburg.png,US_Cities_List/hanover.png,,,,,,,,,,,,,,,,,,
null,,rt_plussign_withcolor,725451,,,yellow,,,,,null,US_Cities_List/gatlinburg.png,US_Cities_List/hanover.png,,,,,,,,,,,,,,,,,,
1029.0999999046326,,rt_thecrossant_black,726512,,,black_plus_sign,,,,,50,,,0.9512195121951219,1,,,,,,,,,,,,,,,,
null,,color_black,726615,,,black_plus_sign,,,,,null,,,,,,,,,,,,,,,,,,,,
null,,learn_phase(without_color),729645,,,black_plus_sign,,,,,null,US_Cities_List/boulder.png,US_Cities_List/hotsprings.png,,,,,,,,,,,,,,,,,,
null,,black_cross(without_color),730180,,,yellow,,,,,null,US_Cities_List/boulder.png,US_Cities_List/hotsprings.png,,,,,,,,,,,,,,,,,,
null,,rt_plussign_withcolor,730682,,,yellow,,,,,null,US_Cities_List/boulder.png,US_Cities_List/hotsprings.png,,,,,,,,,,,,,,,,,,
1132.3999999761581,,rt_thecrossant_black,732153,,,black_plus_sign,,,,,50,,,0.9523809523809523,1,,,,,,,,,,,,,,,,
null,,color_black,732263,,,black_plus_sign,,,,,null,,,,,,,,,,,,,,,,,,,,
null,,learn_phase(without_color),735308,,,black_plus_sign,,,,,null,US_Cities_List/peoria.png,US_Cities_List/cornwall.png,,,,,,,,,,,,,,,,,,
null,,black_cross(without_color),735746,,,yellow,,,,,null,US_Cities_List/peoria.png,US_Cities_List/cornwall.png,,,,,,,,,,,,,,,,,,
null,,rt_plussign_withcolor,736248,,,yellow,,,,,null,US_Cities_List/peoria.png,US_Cities_List/cornwall.png,,,,,,,,,,,,,,,,,,
659.3999999761581,,rt_thecrossant_black,737831,,,black_plus_sign,,,,,50,,,0.9534883720930233,1,,,,,,,,,,,,,,,,
null,,color_black,737934,,,black_plus_sign,,,,,null,,,,,,,,,,,,,,,,,,,,
null,,learn_phase(without_color),740950,,,black_plus_sign,,,,,null,US_Cities_List/hotsprings.png,US_Cities_List/westpalmbeach.png,,,,,,,,,,,,,,,,,,
null,,black_cross(without_color),741943,,,blue,,,,,null,US_Cities_List/hotsprings.png,US_Cities_List/westpalmbeach.png,,,,,,,,,,,,,,,,,,
null,,rt_plussign_withcolor,742458,,,blue,,,,,null,US_Cities_List/hotsprings.png,US_Cities_List/westpalmbeach.png,,,,,,,,,,,,,,,,,,
609.8999999761581,,rt_thecrossant_black,743469,,,black_plus_sign,,,,,49,,,0.9545454545454546,1,,,,,,,,,,,,,,,,
null,,color_black,743572,,,black_plus_sign,,,,,null,,,,,,,,,,,,,,,,,,,,
null,,learn_phase(without_color),746602,,,black_plus_sign,,,,,null,US_Cities_List/peoria.png,US_Cities_List/leesburg.png,,,,,,,,,,,,,,,,,,
null,,black_cross(without_color),747060,,,yellow,,,,,null,US_Cities_List/peoria.png,US_Cities_List/leesburg.png,,,,,,,,,,,,,,,,,,
null,,rt_plussign_withcolor,747562,,,yellow,,,,,null,US_Cities_List/peoria.png,US_Cities_List/leesburg.png,,,,,,,,,,,,,,,,,,
1115.1999999284744,,rt_thecrossant_black,749108,,,black_plus_sign,,,,,50,,,0.9555555555555556,1,,,,,,,,,,,,,,,,
null,,color_black,749211,,,black_plus_sign,,,,,null,,,,,,,,,,,,,,,,,,,,
null,,learn_phase(without_color),752230,,,black_plus_sign,,,,,null,US_Cities_List/racine.png,US_Cities_List/gatlinburg.png,,,,,,,,,,,,,,,,,,
null,,black_cross(without_color),753275,,,yellow,,,,,null,US_Cities_List/racine.png,US_Cities_List/gatlinburg.png,,,,,,,,,,,,,,,,,,
494.6999999284744,,rt_plussign_withcolor,753778,,,yellow,,,,,50,US_Cities_List/racine.png,US_Cities_List/gatlinburg.png,,,,,,,,,,,,,,,,,,
null,,rt_thecrossant_black,754742,,,black_plus_sign,,,,,null,,,0.9565217391304348,1,,,,,,,,,,,,,,,,
null,,color_black,754852,,,black_plus_sign,,,,,null,,,,,,,,,,,,,,,,,,,,
null,,learn_phase(without_color),757878,,,black_plus_sign,,,,,null,US_Cities_List/leesburg.png,US_Cities_List/huntsville.png,,,,,,,,,,,,,,,,,,
null,,black_cross(without_color),758505,,,yellow,,,,,null,US_Cities_List/leesburg.png,US_Cities_List/huntsville.png,,,,,,,,,,,,,,,,,,
null,,rt_plussign_withcolor,759009,,,yellow,,,,,null,US_Cities_List/leesburg.png,US_Cities_List/huntsville.png,,,,,,,,,,,,,,,,,,
null,,rt_thecrossant_black,760407,,,black_plus_sign,,,,,null,,,0.9565217391304348,,,,,,,,,,,,,,,,,
null,,color_black,760509,,,black_plus_sign,,,,,null,,,,,,,,,,,,,,,,,,,,
null,,learn_phase(without_color),763524,,,black_plus_sign,,,,,null,US_Cities_List/carmel.png,US_Cities_List/shreveport.png,,,,,,,,,,,,,,,,,,
null,,black_cross(without_color),764078,,,yellow,,,,,null,US_Cities_List/carmel.png,US_Cities_List/shreveport.png,,,,,,,,,,,,,,,,,,
null,,rt_plussign_withcolor,764582,,,yellow,,,,,null,US_Cities_List/carmel.png,US_Cities_List/shreveport.png,,,,,,,,,,,,,,,,,,
923.4000000953674,,rt_thecrossant_black,766032,,,black_plus_sign,,,,,50,,,0.9574468085106383,1,,,,,,,,,,,,,,,,
null,,color_black,766134,,,black_plus_sign,,,,,null,,,,,,,,,,,,,,,,,,,,
null,,learn_phase(without_color),769157,,,black_plus_sign,,,,,null,US_Cities_List/boulder.png,US_Cities_List/peoria.png,,,,,,,,,,,,,,,,,,
null,,black_cross(without_color),769658,,,blue,,,,,null,US_Cities_List/boulder.png,US_Cities_List/peoria.png,,,,,,,,,,,,,,,,,,
null,,rt_plussign_withcolor,770160,,,blue,,,,,null,US_Cities_List/boulder.png,US_Cities_List/peoria.png,,,,,,,,,,,,,,,,,,
null,,rt_thecrossant_black,771665,,,black_plus_sign,,,,,null,,,0.9574468085106383,,,,,,,,,,,,,,,,,
null,,color_black,771768,,,black_plus_sign,,,,,null,,,,,,,,,,,,,,,,,,,,
null,,learn_phase(without_color),774812,,,black_plus_sign,,,,,null,US_Cities_List/cornwall.png,US_Cities_List/leesburg.png,,,,,,,,,,,,,,,,,,
null,,black_cross(without_color),775501,,,yellow,,,,,null,US_Cities_List/cornwall.png,US_Cities_List/leesburg.png,,,,,,,,,,,,,,,,,,
null,,rt_plussign_withcolor,776003,,,yellow,,,,,null,US_Cities_List/cornwall.png,US_Cities_List/leesburg.png,,,,,,,,,,,,,,,,,,
654,,rt_thecrossant_black,777324,,,black_plus_sign,,,,,50,,,0.9583333333333334,1,,,,,,,,,,,,,,,,
null,,color_black,777426,,,black_plus_sign,,,,,null,,,,,,,,,,,,,,,,,,,,
null,,learn_phase(without_color),780456,,,black_plus_sign,,,,,null,US_Cities_List/shreveport.png,US_Cities_List/carmel.png,,,,,,,,,,,,,,,,,,
null,,black_cross(without_color),781531,,,blue,,,,,null,US_Cities_List/shreveport.png,US_Cities_List/carmel.png,,,,,,,,,,,,,,,,,,
null,,rt_plussign_withcolor,782033,,,blue,,,,,null,US_Cities_List/shreveport.png,US_Cities_List/carmel.png,,,,,,,,,,,,,,,,,,
1493.0999999046326,,rt_thecrossant_black,782965,,,black_plus_sign,,,,,49,,,0.9591836734693877,1,,,,,,,,,,,,,,,,
null,,color_black,783067,,,black_plus_sign,,,,,null,,,,,,,,,,,,,,,,,,,,
null,,learn_phase(without_color),786095,,,black_plus_sign,,,,,null,US_Cities_List/gatlinburg.png,US_Cities_List/hanover.png,,,,,,,,,,,,,,,,,,
null,,black_cross(without_color),786702,,,blue,,,,,null,US_Cities_List/gatlinburg.png,US_Cities_List/hanover.png,,,,,,,,,,,,,,,,,,
null,,rt_plussign_withcolor,787204,,,blue,,,,,null,US_Cities_List/gatlinburg.png,US_Cities_List/hanover.png,,,,,,,,,,,,,,,,,,
1206.3999999761581,,rt_thecrossant_black,788602,,,black_plus_sign,,,,,49,,,0.96,1,,,,,,,,,,,,,,,,
null,,color_black,788705,,,black_plus_sign,,,,,null,,,,,,,,,,,,,,,,,,,,
null,,learn_phase(without_color),791733,,,black_plus_sign,,,,,null,US_Cities_List/westpalmbeach.png,US_Cities_List/leesburg.png,,,,,,,,,,,,,,,,,,
null,,black_cross(without_color),792234,,,blue,,,,,null,US_Cities_List/westpalmbeach.png,US_Cities_List/leesburg.png,,,,,,,,,,,,,,,,,,
null,,rt_plussign_withcolor,792736,,,blue,,,,,null,US_Cities_List/westpalmbeach.png,US_Cities_List/leesburg.png,,,,,,,,,,,,,,,,,,
1177.1000000238419,,rt_thecrossant_black,794239,,,black_plus_sign,,,,,49,,,0.9607843137254902,1,,,,,,,,,,,,,,,,
null,,color_black,794342,,,black_plus_sign,,,,,null,,,,,,,,,,,,,,,,,,,,
null,,learn_phase(without_color),797372,,,black_plus_sign,,,,,null,US_Cities_List/peoria.png,US_Cities_List/leesburg.png,,,,,,,,,,,,,,,,,,
null,,black_cross(without_color),798142,,,blue,,,,,null,US_Cities_List/peoria.png,US_Cities_List/leesburg.png,,,,,,,,,,,,,,,,,,
null,,rt_plussign_withcolor,798645,,,blue,,,,,null,US_Cities_List/peoria.png,US_Cities_List/leesburg.png,,,,,,,,,,,,,,,,,,
855.2999999523163,,rt_thecrossant_black,799880,,,black_plus_sign,,,,,49,,,0.9615384615384616,1,,,,,,,,,,,,,,,,
null,,color_black,799983,,,black_plus_sign,,,,,null,,,,,,,,,,,,,,,,,,,,
null,,learn_phase(without_color),803011,,,black_plus_sign,,,,,null,US_Cities_List/peoria.png,US_Cities_List/boulder.png,,,,,,,,,,,,,,,,,,
null,,black_cross(without_color),803524,,,yellow,,,,,null,US_Cities_List/peoria.png,US_Cities_List/boulder.png,,,,,,,,,,,,,,,,,,
null,,rt_plussign_withcolor,804026,,,yellow,,,,,null,US_Cities_List/peoria.png,US_Cities_List/boulder.png,,,,,,,,,,,,,,,,,,
905.8000000715256,,rt_thecrossant_black,805519,,,black_plus_sign,,,,,50,,,0.9622641509433962,1,,,,,,,,,,,,,,,,
null,,color_black,805621,,,black_plus_sign,,,,,null,,,,,,,,,,,,,,,,,,,,
null,,learn_phase(without_color),808644,,,black_plus_sign,,,,,null,US_Cities_List/hanover.png,US_Cities_List/gatlinburg.png,,,,,,,,,,,,,,,,,,
null,,black_cross(without_color),809667,,,yellow,,,,,null,US_Cities_List/hanover.png,US_Cities_List/gatlinburg.png,,,,,,,,,,,,,,,,,,
null,,rt_plussign_withcolor,810176,,,yellow,,,,,null,US_Cities_List/hanover.png,US_Cities_List/gatlinburg.png,,,,,,,,,,,,,,,,,,
690.8000000715256,,rt_thecrossant_black,811160,,,black_plus_sign,,,,,50,,,0.9629629629629629,1,,,,,,,,,,,,,,,,
null,,color_black,811262,,,black_plus_sign,,,,,null,,,,,,,,,,,,,,,,,,,,
null,,learn_phase(without_color),814278,,,black_plus_sign,,,,,null,US_Cities_List/westpalmbeach.png,US_Cities_List/peoria.png,,,,,,,,,,,,,,,,,,
null,,black_cross(without_color),815335,,,yellow,,,,,null,US_Cities_List/westpalmbeach.png,US_Cities_List/peoria.png,,,,,,,,,,,,,,,,,,
null,,rt_plussign_withcolor,815838,,,yellow,,,,,null,US_Cities_List/westpalmbeach.png,US_Cities_List/peoria.png,,,,,,,,,,,,,,,,,,
1945.3000000715256,,rt_thecrossant_black,816791,,,black_plus_sign,,,,,50,,,0.9636363636363636,1,,,,,,,,,,,,,,,,
null,,color_black,816894,,,black_plus_sign,,,,,null,,,,,,,,,,,,,,,,,,,,
null,,learn_phase(without_color),819912,,,black_plus_sign,,,,,null,US_Cities_List/leesburg.png,US_Cities_List/peoria.png,,,,,,,,,,,,,,,,,,
null,,black_cross(without_color),820481,,,yellow,,,,,null,US_Cities_List/leesburg.png,US_Cities_List/peoria.png,,,,,,,,,,,,,,,,,,
437.60000002384186,,rt_plussign_withcolor,820983,,,yellow,,,,,50,US_Cities_List/leesburg.png,US_Cities_List/peoria.png,,,,,,,,,,,,,,,,,,
null,,rt_thecrossant_black,822420,,,black_plus_sign,,,,,null,,,0.9642857142857143,1,,,,,,,,,,,,,,,,
null,,color_black,822523,,,black_plus_sign,,,,,null,,,,,,,,,,,,,,,,,,,,
null,,learn_phase(without_color),825557,,,black_plus_sign,,,,,null,US_Cities_List/cornwall.png,US_Cities_List/leesburg.png,,,,,,,,,,,,,,,,,,
null,,black_cross(without_color),825962,,,blue,,,,,null,US_Cities_List/cornwall.png,US_Cities_List/leesburg.png,,,,,,,,,,,,,,,,,,
null,,rt_plussign_withcolor,826465,,,blue,,,,,null,US_Cities_List/cornwall.png,US_Cities_List/leesburg.png,,,,,,,,,,,,,,,,,,
null,,rt_thecrossant_black,828066,,,black_plus_sign,,,,,null,,,0.9642857142857143,,,,,,,,,,,,,,,,,
null,,color_black,828169,,,black_plus_sign,,,,,null,,,,,,,,,,,,,,,,,,,,
null,,learn_phase(without_color),831180,,,black_plus_sign,,,,,null,US_Cities_List/gatlinburg.png,US_Cities_List/hanover.png,,,,,,,,,,,,,,,,,,
null,,black_cross(without_color),832258,,,blue,,,,,null,US_Cities_List/gatlinburg.png,US_Cities_List/hanover.png,,,,,,,,,,,,,,,,,,
null,,rt_plussign_withcolor,832761,,,blue,,,,,null,US_Cities_List/gatlinburg.png,US_Cities_List/hanover.png,,,,,,,,,,,,,,,,,,
599.8999999761581,,rt_thecrossant_black,833689,,,black_plus_sign,,,,,49,,,0.9649122807017544,1,,,,,,,,,,,,,,,,
null,,color_black,833792,,,black_plus_sign,,,,,null,,,,,,,,,,,,,,,,,,,,
null,,learn_phase(without_color),836818,,,black_plus_sign,,,,,null,US_Cities_List/newhope.png,US_Cities_List/cornwall.png,,,,,,,,,,,,,,,,,,
null,,black_cross(without_color),837876,,,yellow,,,,,null,US_Cities_List/newhope.png,US_Cities_List/cornwall.png,,,,,,,,,,,,,,,,,,
null,,rt_plussign_withcolor,838377,,,yellow,,,,,null,US_Cities_List/newhope.png,US_Cities_List/cornwall.png,,,,,,,,,,,,,,,,,,
1488.8999999761581,,rt_thecrossant_black,839325,,,black_plus_sign,,,,,50,,,0.9655172413793104,1,,,,,,,,,,,,,,,,
null,,color_black,839428,,,black_plus_sign,,,,,null,,,,,,,,,,,,,,,,,,,,
46578.10000002384,,learn_break,886010,,,learn_break,,,,,32,,,,,,,,,,,,,,,,,,,,
null,,html-keyboard-response,887012,,,<p></p>,,,,,null,,,,,,,,,,,,,,,,,,,,
null,,learn_phase(without_color),890030,,,black_plus_sign,,,,,null,US_Cities_List/gatlinburg.png,US_Cities_List/shreveport.png,,,,,,,,,,,,,,,,,,
null,,black_cross(without_color),890460,,,yellow,,,,,null,US_Cities_List/gatlinburg.png,US_Cities_List/shreveport.png,,,,,,,,,,,,,,,,,,
476.5,,rt_plussign_withcolor,890963,,,yellow,,,,,50,US_Cities_List/gatlinburg.png,US_Cities_List/shreveport.png,,,,,,,,,,,,,,,,,,
null,,rt_thecrossant_black,892537,,,black_plus_sign,,,,,null,,,0.9661016949152542,1,,,,,,,,,,,,,,,,
null,,color_black,892639,,,black_plus_sign,,,,,null,,,,,,,,,,,,,,,,,,,,
null,,learn_phase(without_color),895675,,,black_plus_sign,,,,,null,US_Cities_List/shreveport.png,US_Cities_List/gatlinburg.png,,,,,,,,,,,,,,,,,,
null,,black_cross(without_color),896222,,,yellow,,,,,null,US_Cities_List/shreveport.png,US_Cities_List/gatlinburg.png,,,,,,,,,,,,,,,,,,
null,,rt_plussign_withcolor,896724,,,yellow,,,,,null,US_Cities_List/shreveport.png,US_Cities_List/gatlinburg.png,,,,,,,,,,,,,,,,,,
532.8000000715256,,rt_thecrossant_black,898184,,,black_plus_sign,,,,,50,,,0.9666666666666667,1,,,,,,,,,,,,,,,,
null,,color_black,898287,,,black_plus_sign,,,,,null,,,,,,,,,,,,,,,,,,,,
null,,learn_phase(without_color),901315,,,black_plus_sign,,,,,null,US_Cities_List/shreveport.png,US_Cities_List/carmel.png,,,,,,,,,,,,,,,,,,
null,,black_cross(without_color),902307,,,yellow,,,,,null,US_Cities_List/shreveport.png,US_Cities_List/carmel.png,,,,,,,,,,,,,,,,,,
492.39999997615814,,rt_plussign_withcolor,902810,,,yellow,,,,,50,US_Cities_List/shreveport.png,US_Cities_List/carmel.png,,,,,,,,,,,,,,,,,,
null,,rt_thecrossant_black,903822,,,black_plus_sign,,,,,null,,,0.9672131147540983,1,,,,,,,,,,,,,,,,
null,,color_black,903925,,,black_plus_sign,,,,,null,,,,,,,,,,,,,,,,,,,,
null,,learn_phase(without_color),906936,,,black_plus_sign,,,,,null,US_Cities_List/peoria.png,US_Cities_List/boulder.png,,,,,,,,,,,,,,,,,,
null,,black_cross(without_color),907668,,,yellow,,,,,null,US_Cities_List/peoria.png,US_Cities_List/boulder.png,,,,,,,,,,,,,,,,,,
null,,rt_plussign_withcolor,908181,,,yellow,,,,,null,US_Cities_List/peoria.png,US_Cities_List/boulder.png,,,,,,,,,,,,,,,,,,
1134.6000000238419,,rt_thecrossant_black,909454,,,black_plus_sign,,,,,50,,,0.967741935483871,1,,,,,,,,,,,,,,,,
null,,color_black,909557,,,black_plus_sign,,,,,null,,,,,,,,,,,,,,,,,,,,
null,,learn_phase(without_color),912587,,,black_plus_sign,,,,,null,US_Cities_List/boulder.png,US_Cities_List/hotsprings.png,,,,,,,,,,,,,,,,,,
null,,black_cross(without_color),913146,,,blue,,,,,null,US_Cities_List/boulder.png,US_Cities_List/hotsprings.png,,,,,,,,,,,,,,,,,,
null,,rt_plussign_withcolor,913650,,,blue,,,,,null,US_Cities_List/boulder.png,US_Cities_List/hotsprings.png,,,,,,,,,,,,,,,,,,
972.7999999523163,,rt_thecrossant_black,915097,,,black_plus_sign,,,,,49,,,0.9682539682539683,1,,,,,,,,,,,,,,,,
null,,color_black,915199,,,black_plus_sign,,,,,null,,,,,,,,,,,,,,,,,,,,
null,,learn_phase(without_color),918229,,,black_plus_sign,,,,,null,US_Cities_List/leesburg.png,US_Cities_List/peoria.png,,,,,,,,,,,,,,,,,,
null,,black_cross(without_color),918962,,,yellow,,,,,null,US_Cities_List/leesburg.png,US_Cities_List/peoria.png,,,,,,,,,,,,,,,,,,
440.3000000715256,,rt_plussign_withcolor,919465,,,yellow,,,,,50,US_Cities_List/leesburg.png,US_Cities_List/peoria.png,,,,,,,,,,,,,,,,,,
null,,rt_thecrossant_black,920738,,,black_plus_sign,,,,,null,,,0.96875,1,,,,,,,,,,,,,,,,
null,,color_black,920841,,,black_plus_sign,,,,,null,,,,,,,,,,,,,,,,,,,,
null,,learn_phase(without_color),923872,,,black_plus_sign,,,,,null,US_Cities_List/peoria.png,US_Cities_List/boulder.png,,,,,,,,,,,,,,,,,,
null,,black_cross(without_color),924621,,,yellow,,,,,null,US_Cities_List/peoria.png,US_Cities_List/boulder.png,,,,,,,,,,,,,,,,,,
null,,rt_plussign_withcolor,925124,,,yellow,,,,,null,US_Cities_List/peoria.png,US_Cities_List/boulder.png,,,,,,,,,,,,,,,,,,
1046,,rt_thecrossant_black,926382,,,black_plus_sign,,,,,50,,,0.9692307692307692,1,,,,,,,,,,,,,,,,
null,,color_black,926485,,,black_plus_sign,,,,,null,,,,,,,,,,,,,,,,,,,,
null,,learn_phase(without_color),929515,,,black_plus_sign,,,,,null,US_Cities_List/gatlinburg.png,US_Cities_List/shreveport.png,,,,,,,,,,,,,,,,,,
null,,black_cross(without_color),929945,,,yellow,,,,,null,US_Cities_List/gatlinburg.png,US_Cities_List/shreveport.png,,,,,,,,,,,,,,,,,,
null,,rt_plussign_withcolor,930448,,,yellow,,,,,null,US_Cities_List/gatlinburg.png,US_Cities_List/shreveport.png,,,,,,,,,,,,,,,,,,
887.6000000238419,,rt_thecrossant_black,932029,,,black_plus_sign,,,,,50,,,0.9696969696969697,1,,,,,,,,,,,,,,,,
null,,color_black,932132,,,black_plus_sign,,,,,null,,,,,,,,,,,,,,,,,,,,
null,,learn_phase(without_color),935159,,,black_plus_sign,,,,,null,US_Cities_List/hotsprings.png,US_Cities_List/westpalmbeach.png,,,,,,,,,,,,,,,,,,
null,,black_cross(without_color),935568,,,yellow,,,,,null,US_Cities_List/hotsprings.png,US_Cities_List/westpalmbeach.png,,,,,,,,,,,,,,,,,,
450.3000000715256,,rt_plussign_withcolor,936071,,,yellow,,,,,50,US_Cities_List/hotsprings.png,US_Cities_List/westpalmbeach.png,,,,,,,,,,,,,,,,,,
null,,rt_thecrossant_black,937667,,,black_plus_sign,,,,,null,,,0.9701492537313433,1,,,,,,,,,,,,,,,,
null,,color_black,937770,,,black_plus_sign,,,,,null,,,,,,,,,,,,,,,,,,,,
null,,learn_phase(without_color),940801,,,black_plus_sign,,,,,null,US_Cities_List/peoria.png,US_Cities_List/westpalmbeach.png,,,,,,,,,,,,,,,,,,
null,,black_cross(without_color),941726,,,yellow,,,,,null,US_Cities_List/peoria.png,US_Cities_List/westpalmbeach.png,,,,,,,,,,,,,,,,,,
null,,rt_plussign_withcolor,942228,,,yellow,,,,,null,US_Cities_List/peoria.png,US_Cities_List/westpalmbeach.png,,,,,,,,,,,,,,,,,,
565.8999999761581,,rt_thecrossant_black,943310,,,black_plus_sign,,,,,50,,,0.9705882352941176,1,,,,,,,,,,,,,,,,
null,,color_black,943412,,,black_plus_sign,,,,,null,,,,,,,,,,,,,,,,,,,,
null,,learn_phase(without_color),946432,,,black_plus_sign,,,,,null,US_Cities_List/westpalmbeach.png,US_Cities_List/leesburg.png,,,,,,,,,,,,,,,,,,
null,,black_cross(without_color),947507,,,blue,,,,,null,US_Cities_List/westpalmbeach.png,US_Cities_List/leesburg.png,,,,,,,,,,,,,,,,,,
474.5,,rt_plussign_withcolor,948008,,,blue,,,,,49,US_Cities_List/westpalmbeach.png,US_Cities_List/leesburg.png,,,,,,,,,,,,,,,,,,
null,,rt_thecrossant_black,948939,,,black_plus_sign,,,,,null,,,0.9710144927536232,1,,,,,,,,,,,,,,,,
null,,color_black,949041,,,black_plus_sign,,,,,null,,,,,,,,,,,,,,,,,,,,
null,,learn_phase(without_color),952059,,,black_plus_sign,,,,,null,US_Cities_List/gatlinburg.png,US_Cities_List/shreveport.png,,,,,,,,,,,,,,,,,,
null,,black_cross(without_color),953036,,,blue,,,,,null,US_Cities_List/gatlinburg.png,US_Cities_List/shreveport.png,,,,,,,,,,,,,,,,,,
null,,rt_plussign_withcolor,953538,,,blue,,,,,null,US_Cities_List/gatlinburg.png,US_Cities_List/shreveport.png,,,,,,,,,,,,,,,,,,
1223.2000000476837,,rt_thecrossant_black,954578,,,black_plus_sign,,,,,49,,,0.9714285714285714,1,,,,,,,,,,,,,,,,
null,,color_black,954680,,,black_plus_sign,,,,,null,,,,,,,,,,,,,,,,,,,,
null,,learn_phase(without_color),957701,,,black_plus_sign,,,,,null,US_Cities_List/cornwall.png,US_Cities_List/peoria.png,,,,,,,,,,,,,,,,,,
null,,black_cross(without_color),958794,,,blue,,,,,null,US_Cities_List/cornwall.png,US_Cities_List/peoria.png,,,,,,,,,,,,,,,,,,
null,,rt_plussign_withcolor,959297,,,blue,,,,,null,US_Cities_List/cornwall.png,US_Cities_List/peoria.png,,,,,,,,,,,,,,,,,,
1108.2000000476837,,rt_thecrossant_black,960211,,,black_plus_sign,,,,,49,,,0.971830985915493,1,,,,,,,,,,,,,,,,
null,,color_black,960313,,,black_plus_sign,,,,,null,,,,,,,,,,,,,,,,,,,,
null,,learn_phase(without_color),963339,,,black_plus_sign,,,,,null,US_Cities_List/shreveport.png,US_Cities_List/carmel.png,,,,,,,,,,,,,,,,,,
null,,black_cross(without_color),964050,,,yellow,,,,,null,US_Cities_List/shreveport.png,US_Cities_List/carmel.png,,,,,,,,,,,,,,,,,,
null,,rt_plussign_withcolor,964553,,,yellow,,,,,null,US_Cities_List/shreveport.png,US_Cities_List/carmel.png,,,,,,,,,,,,,,,,,,
1211.1000000238419,,rt_thecrossant_black,965848,,,black_plus_sign,,,,,50,,,0.9722222222222222,1,,,,,,,,,,,,,,,,
null,,color_black,965957,,,black_plus_sign,,,,,null,,,,,,,,,,,,,,,,,,,,
null,,learn_phase(without_color),968987,,,black_plus_sign,,,,,null,US_Cities_List/boulder.png,US_Cities_List/racine.png,,,,,,,,,,,,,,,,,,
null,,black_cross(without_color),969471,,,blue,,,,,null,US_Cities_List/boulder.png,US_Cities_List/racine.png,,,,,,,,,,,,,,,,,,
null,,rt_plussign_withcolor,969974,,,blue,,,,,null,US_Cities_List/boulder.png,US_Cities_List/racine.png,,,,,,,,,,,,,,,,,,
1126.2000000476837,,rt_thecrossant_black,971495,,,black_plus_sign,,,,,49,,,0.9726027397260274,1,,,,,,,,,,,,,,,,
null,,color_black,971598,,,black_plus_sign,,,,,null,,,,,,,,,,,,,,,,,,,,
null,,learn_phase(without_color),974615,,,black_plus_sign,,,,,null,US_Cities_List/gatlinburg.png,US_Cities_List/racine.png,,,,,,,,,,,,,,,,,,
null,,black_cross(without_color),975221,,,blue,,,,,null,US_Cities_List/gatlinburg.png,US_Cities_List/racine.png,,,,,,,,,,,,,,,,,,
null,,rt_plussign_withcolor,975725,,,blue,,,,,null,US_Cities_List/gatlinburg.png,US_Cities_List/racine.png,,,,,,,,,,,,,,,,,,
720.1000000238419,,rt_thecrossant_black,977127,,,black_plus_sign,,,,,49,,,0.972972972972973,1,,,,,,,,,,,,,,,,
null,,color_black,977231,,,black_plus_sign,,,,,null,,,,,,,,,,,,,,,,,,,,
null,,learn_phase(without_color),980253,,,black_plus_sign,,,,,null,US_Cities_List/westpalmbeach.png,US_Cities_List/hotsprings.png,,,,,,,,,,,,,,,,,,
null,,black_cross(without_color),980758,,,blue,,,,,null,US_Cities_List/westpalmbeach.png,US_Cities_List/hotsprings.png,,,,,,,,,,,,,,,,,,
null,,rt_plussign_withcolor,981260,,,blue,,,,,null,US_Cities_List/westpalmbeach.png,US_Cities_List/hotsprings.png,,,,,,,,,,,,,,,,,,
null,,rt_thecrossant_black,982760,,,black_plus_sign,,,,,null,,,0.972972972972973,,,,,,,,,,,,,,,,,
null,,color_black,982875,,,black_plus_sign,,,,,null,,,,,,,,,,,,,,,,,,,,
null,,learn_phase(without_color),985899,,,black_plus_sign,,,,,null,US_Cities_List/westpalmbeach.png,US_Cities_List/peoria.png,,,,,,,,,,,,,,,,,,
null,,black_cross(without_color),986332,,,yellow,,,,,null,US_Cities_List/westpalmbeach.png,US_Cities_List/peoria.png,,,,,,,,,,,,,,,,,,
481.7000000476837,,rt_plussign_withcolor,986835,,,yellow,,,,,50,US_Cities_List/westpalmbeach.png,US_Cities_List/peoria.png,,,,,,,,,,,,,,,,,,
null,,rt_thecrossant_black,988406,,,black_plus_sign,,,,,null,,,0.9733333333333334,1,,,,,,,,,,,,,,,,
null,,color_black,988508,,,black_plus_sign,,,,,null,,,,,,,,,,,,,,,,,,,,
null,,learn_phase(without_color),991525,,,black_plus_sign,,,,,null,US_Cities_List/gatlinburg.png,US_Cities_List/hanover.png,,,,,,,,,,,,,,,,,,
null,,black_cross(without_color),992619,,,yellow,,,,,null,US_Cities_List/gatlinburg.png,US_Cities_List/hanover.png,,,,,,,,,,,,,,,,,,
null,,rt_plussign_withcolor,993121,,,yellow,,,,,null,US_Cities_List/gatlinburg.png,US_Cities_List/hanover.png,,,,,,,,,,,,,,,,,,
644.1000000238419,,rt_thecrossant_black,994045,,,black_plus_sign,,,,,50,,,0.9736842105263158,1,,,,,,,,,,,,,,,,
null,,color_black,994148,,,black_plus_sign,,,,,null,,,,,,,,,,,,,,,,,,,,
null,,learn_phase(without_color),997177,,,black_plus_sign,,,,,null,US_Cities_List/westpalmbeach.png,US_Cities_List/hotsprings.png,,,,,,,,,,,,,,,,,,
null,,black_cross(without_color),997807,,,blue,,,,,null,US_Cities_List/westpalmbeach.png,US_Cities_List/hotsprings.png,,,,,,,,,,,,,,,,,,
421.2999999523163,,rt_plussign_withcolor,998310,,,blue,,,,,49,US_Cities_List/westpalmbeach.png,US_Cities_List/hotsprings.png,,,,,,,,,,,,,,,,,,
null,,rt_thecrossant_black,999693,,,black_plus_sign,,,,,null,,,0.974025974025974,1,,,,,,,,,,,,,,,,
null,,color_black,999797,,,black_plus_sign,,,,,null,,,,,,,,,,,,,,,,,,,,
null,,learn_phase(without_color),1002826,,,black_plus_sign,,,,,null,US_Cities_List/carmel.png,US_Cities_List/shreveport.png,,,,,,,,,,,,,,,,,,
null,,black_cross(without_color),1003344,,,yellow,,,,,null,US_Cities_List/carmel.png,US_Cities_List/shreveport.png,,,,,,,,,,,,,,,,,,
425.10000002384186,,rt_plussign_withcolor,1003859,,,yellow,,,,,50,US_Cities_List/carmel.png,US_Cities_List/shreveport.png,,,,,,,,,,,,,,,,,,
null,,rt_thecrossant_black,1005348,,,black_plus_sign,,,,,null,,,0.9743589743589743,1,,,,,,,,,,,,,,,,
null,,color_black,1005451,,,black_plus_sign,,,,,null,,,,,,,,,,,,,,,,,,,,
null,,learn_phase(without_color),1008475,,,black_plus_sign,,,,,null,US_Cities_List/boulder.png,US_Cities_List/racine.png,,,,,,,,,,,,,,,,,,
null,,black_cross(without_color),1009408,,,blue,,,,,null,US_Cities_List/boulder.png,US_Cities_List/racine.png,,,,,,,,,,,,,,,,,,
null,,rt_plussign_withcolor,1009911,,,blue,,,,,null,US_Cities_List/boulder.png,US_Cities_List/racine.png,,,,,,,,,,,,,,,,,,
null,,rt_thecrossant_black,1010992,,,black_plus_sign,,,,,null,,,0.9743589743589743,,,,,,,,,,,,,,,,,
null,,color_black,1011095,,,black_plus_sign,,,,,null,,,,,,,,,,,,,,,,,,,,
null,,learn_phase(without_color),1014121,,,black_plus_sign,,,,,null,US_Cities_List/gatlinburg.png,US_Cities_List/shreveport.png,,,,,,,,,,,,,,,,,,
null,,black_cross(without_color),1014751,,,blue,,,,,null,US_Cities_List/gatlinburg.png,US_Cities_List/shreveport.png,,,,,,,,,,,,,,,,,,
426.5,,rt_plussign_withcolor,1015255,,,blue,,,,,49,US_Cities_List/gatlinburg.png,US_Cities_List/shreveport.png,,,,,,,,,,,,,,,,,,
null,,rt_thecrossant_black,1016639,,,black_plus_sign,,,,,null,,,0.9746835443037974,1,,,,,,,,,,,,,,,,
null,,color_black,1016743,,,black_plus_sign,,,,,null,,,,,,,,,,,,,,,,,,,,
null,,learn_phase(without_color),1019772,,,black_plus_sign,,,,,null,US_Cities_List/carmel.png,US_Cities_List/shreveport.png,,,,,,,,,,,,,,,,,,
null,,black_cross(without_color),1020327,,,blue,,,,,null,US_Cities_List/carmel.png,US_Cities_List/shreveport.png,,,,,,,,,,,,,,,,,,
null,,rt_plussign_withcolor,1020830,,,blue,,,,,null,US_Cities_List/carmel.png,US_Cities_List/shreveport.png,,,,,,,,,,,,,,,,,,
736.2999999523163,,rt_thecrossant_black,1022280,,,black_plus_sign,,,,,49,,,0.975,1,,,,,,,,,,,,,,,,
null,,color_black,1022388,,,black_plus_sign,,,,,null,,,,,,,,,,,,,,,,,,,,
null,,learn_phase(without_color),1025420,,,black_plus_sign,,,,,null,US_Cities_List/gatlinburg.png,US_Cities_List/racine.png,,,,,,,,,,,,,,,,,,
null,,black_cross(without_color),1026226,,,blue,,,,,null,US_Cities_List/gatlinburg.png,US_Cities_List/racine.png,,,,,,,,,,,,,,,,,,
476.89999997615814,,rt_plussign_withcolor,1026729,,,blue,,,,,49,US_Cities_List/gatlinburg.png,US_Cities_List/racine.png,,,,,,,,,,,,,,,,,,
null,,rt_thecrossant_black,1027930,,,black_plus_sign,,,,,null,,,0.9753086419753086,1,,,,,,,,,,,,,,,,
null,,color_black,1028033,,,black_plus_sign,,,,,null,,,,,,,,,,,,,,,,,,,,
null,,learn_phase(without_color),1031060,,,black_plus_sign,,,,,null,US_Cities_List/westpalmbeach.png,US_Cities_List/leesburg.png,,,,,,,,,,,,,,,,,,
null,,black_cross(without_color),1031478,,,yellow,,,,,null,US_Cities_List/westpalmbeach.png,US_Cities_List/leesburg.png,,,,,,,,,,,,,,,,,,
431.60000002384186,,rt_plussign_withcolor,1031987,,,yellow,,,,,50,US_Cities_List/westpalmbeach.png,US_Cities_List/leesburg.png,,,,,,,,,,,,,,,,,,
null,,rt_thecrossant_black,1033575,,,black_plus_sign,,,,,null,,,0.975609756097561,1,,,,,,,,,,,,,,,,
null,,color_black,1033677,,,black_plus_sign,,,,,null,,,,,,,,,,,,,,,,,,,,
null,,learn_phase(without_color),1036702,,,black_plus_sign,,,,,null,US_Cities_List/shreveport.png,US_Cities_List/hotsprings.png,,,,,,,,,,,,,,,,,,
null,,black_cross(without_color),1037532,,,blue,,,,,null,US_Cities_List/shreveport.png,US_Cities_List/hotsprings.png,,,,,,,,,,,,,,,,,,
459,,rt_plussign_withcolor,1038034,,,blue,,,,,49,US_Cities_List/shreveport.png,US_Cities_List/hotsprings.png,,,,,,,,,,,,,,,,,,
null,,rt_thecrossant_black,1039210,,,black_plus_sign,,,,,null,,,0.9759036144578314,1,,,,,,,,,,,,,,,,
null,,color_black,1039314,,,black_plus_sign,,,,,null,,,,,,,,,,,,,,,,,,,,
null,,learn_phase(without_color),1042331,,,black_plus_sign,,,,,null,US_Cities_List/westpalmbeach.png,US_Cities_List/peoria.png,,,,,,,,,,,,,,,,,,
null,,black_cross(without_color),1043122,,,blue,,,,,null,US_Cities_List/westpalmbeach.png,US_Cities_List/peoria.png,,,,,,,,,,,,,,,,,,
490.7999999523163,,rt_plussign_withcolor,1043625,,,blue,,,,,49,US_Cities_List/westpalmbeach.png,US_Cities_List/peoria.png,,,,,,,,,,,,,,,,,,
null,,rt_thecrossant_black,1044850,,,black_plus_sign,,,,,null,,,0.9761904761904762,1,,,,,,,,,,,,,,,,
null,,color_black,1044953,,,black_plus_sign,,,,,null,,,,,,,,,,,,,,,,,,,,
null,,learn_phase(without_color),1047985,,,black_plus_sign,,,,,null,US_Cities_List/hotsprings.png,US_Cities_List/westpalmbeach.png,,,,,,,,,,,,,,,,,,
null,,black_cross(without_color),1048582,,,blue,,,,,null,US_Cities_List/hotsprings.png,US_Cities_List/westpalmbeach.png,,,,,,,,,,,,,,,,,,
null,,rt_plussign_withcolor,1049095,,,blue,,,,,null,US_Cities_List/hotsprings.png,US_Cities_List/westpalmbeach.png,,,,,,,,,,,,,,,,,,
900.2000000476837,,rt_thecrossant_black,1050505,,,black_plus_sign,,,,,49,,,0.9764705882352941,1,,,,,,,,,,,,,,,,
null,,color_black,1050609,,,black_plus_sign,,,,,null,,,,,,,,,,,,,,,,,,,,
null,,learn_phase(without_color),1053635,,,black_plus_sign,,,,,null,US_Cities_List/boulder.png,US_Cities_List/hotsprings.png,,,,,,,,,,,,,,,,,,
null,,black_cross(without_color),1054450,,,yellow,,,,,null,US_Cities_List/boulder.png,US_Cities_List/hotsprings.png,,,,,,,,,,,,,,,,,,
493.3000000715256,,rt_plussign_withcolor,1054952,,,yellow,,,,,50,US_Cities_List/boulder.png,US_Cities_List/hotsprings.png,,,,,,,,,,,,,,,,,,
null,,rt_thecrossant_black,1056144,,,black_plus_sign,,,,,null,,,0.9767441860465116,1,,,,,,,,,,,,,,,,
null,,color_black,1056247,,,black_plus_sign,,,,,null,,,,,,,,,,,,,,,,,,,,
null,,learn_phase(without_color),1059281,,,black_plus_sign,,,,,null,US_Cities_List/cornwall.png,US_Cities_List/leesburg.png,,,,,,,,,,,,,,,,,,
null,,black_cross(without_color),1060180,,,yellow,,,,,null,US_Cities_List/cornwall.png,US_Cities_List/leesburg.png,,,,,,,,,,,,,,,,,,
null,,rt_plussign_withcolor,1060684,,,yellow,,,,,null,US_Cities_List/cornwall.png,US_Cities_List/leesburg.png,,,,,,,,,,,,,,,,,,
917.7999999523163,,rt_thecrossant_black,1061791,,,black_plus_sign,,,,,50,,,0.9770114942528736,1,,,,,,,,,,,,,,,,
null,,color_black,1061894,,,black_plus_sign,,,,,null,,,,,,,,,,,,,,,,,,,,
null,,learn_phase(without_color),1064917,,,black_plus_sign,,,,,null,US_Cities_List/peoria.png,US_Cities_List/boulder.png,,,,,,,,,,,,,,,,,,
null,,black_cross(without_color),1065949,,,blue,,,,,null,US_Cities_List/peoria.png,US_Cities_List/boulder.png,,,,,,,,,,,,,,,,,,
null,,rt_plussign_withcolor,1066452,,,blue,,,,,null,US_Cities_List/peoria.png,US_Cities_List/boulder.png,,,,,,,,,,,,,,,,,,
1692.2999999523163,,rt_thecrossant_black,1067426,,,black_plus_sign,,,,,49,,,0.9772727272727273,1,,,,,,,,,,,,,,,,
null,,color_black,1067529,,,black_plus_sign,,,,,null,,,,,,,,,,,,,,,,,,,,
null,,learn_phase(without_color),1070555,,,black_plus_sign,,,,,null,US_Cities_List/racine.png,US_Cities_List/boulder.png,,,,,,,,,,,,,,,,,,
null,,black_cross(without_color),1071283,,,yellow,,,,,null,US_Cities_List/racine.png,US_Cities_List/boulder.png,,,,,,,,,,,,,,,,,,
447.59999990463257,,rt_plussign_withcolor,1071785,,,yellow,,,,,50,US_Cities_List/racine.png,US_Cities_List/boulder.png,,,,,,,,,,,,,,,,,,
null,,rt_thecrossant_black,1073061,,,black_plus_sign,,,,,null,,,0.9775280898876404,1,,,,,,,,,,,,,,,,
null,,color_black,1073163,,,black_plus_sign,,,,,null,,,,,,,,,,,,,,,,,,,,
null,,learn_phase(without_color),1076176,,,black_plus_sign,,,,,null,US_Cities_List/boulder.png,US_Cities_List/racine.png,,,,,,,,,,,,,,,,,,
null,,black_cross(without_color),1077099,,,yellow,,,,,null,US_Cities_List/boulder.png,US_Cities_List/racine.png,,,,,,,,,,,,,,,,,,
308.5,,rt_plussign_withcolor,1077601,,,yellow,,,,,49,US_Cities_List/boulder.png,US_Cities_List/racine.png,,,,,,,,,,,,,,,,,,
null,,rt_thecrossant_black,1078686,,,black_plus_sign,,,,,50,,,0.9666666666666667,0,,,,,,,,,,,,,,,,
null,,color_black,1078788,,,black_plus_sign,,,,,null,,,,,,,,,,,,,,,,,,,,
null,,learn_phase(without_color),1081819,,,black_plus_sign,,,,,null,US_Cities_List/peoria.png,US_Cities_List/leesburg.png,,,,,,,,,,,,,,,,,,
null,,black_cross(without_color),1082670,,,yellow,,,,,null,US_Cities_List/peoria.png,US_Cities_List/leesburg.png,,,,,,,,,,,,,,,,,,
425.59999990463257,,rt_plussign_withcolor,1083173,,,yellow,,,,,50,US_Cities_List/peoria.png,US_Cities_List/leesburg.png,,,,,,,,,,,,,,,,,,
null,,rt_thecrossant_black,1084330,,,black_plus_sign,,,,,null,,,0.967032967032967,1,,,,,,,,,,,,,,,,
null,,color_black,1084433,,,black_plus_sign,,,,,null,,,,,,,,,,,,,,,,,,,,
null,,learn_phase(without_color),1087459,,,black_plus_sign,,,,,null,US_Cities_List/boulder.png,US_Cities_List/hotsprings.png,,,,,,,,,,,,,,,,,,
null,,black_cross(without_color),1087884,,,blue,,,,,null,US_Cities_List/boulder.png,US_Cities_List/hotsprings.png,,,,,,,,,,,,,,,,,,
null,,rt_plussign_withcolor,1088386,,,blue,,,,,null,US_Cities_List/boulder.png,US_Cities_List/hotsprings.png,,,,,,,,,,,,,,,,,,
1084.3999999761581,,rt_thecrossant_black,1089978,,,black_plus_sign,,,,,49,,,0.967391304347826,1,,,,,,,,,,,,,,,,
null,,color_black,1090081,,,black_plus_sign,,,,,null,,,,,,,,,,,,,,,,,,,,
null,,learn_phase(without_color),1093104,,,black_plus_sign,,,,,null,US_Cities_List/westpalmbeach.png,US_Cities_List/hotsprings.png,,,,,,,,,,,,,,,,,,
null,,black_cross(without_color),1094188,,,blue,,,,,null,US_Cities_List/westpalmbeach.png,US_Cities_List/hotsprings.png,,,,,,,,,,,,,,,,,,
null,,rt_plussign_withcolor,1094690,,,blue,,,,,null,US_Cities_List/westpalmbeach.png,US_Cities_List/hotsprings.png,,,,,,,,,,,,,,,,,,
542.3000000715256,,rt_thecrossant_black,1095624,,,black_plus_sign,,,,,49,,,0.967741935483871,1,,,,,,,,,,,,,,,,
null,,color_black,1095727,,,black_plus_sign,,,,,null,,,,,,,,,,,,,,,,,,,,
null,,learn_phase(without_color),1098761,,,black_plus_sign,,,,,null,US_Cities_List/hotsprings.png,US_Cities_List/westpalmbeach.png,,,,,,,,,,,,,,,,,,
null,,black_cross(without_color),1099261,,,blue,,,,,null,US_Cities_List/hotsprings.png,US_Cities_List/westpalmbeach.png,,,,,,,,,,,,,,,,,,
389.89999997615814,,rt_plussign_withcolor,1099774,,,blue,,,,,49,US_Cities_List/hotsprings.png,US_Cities_List/westpalmbeach.png,,,,,,,,,,,,,,,,,,
null,,rt_thecrossant_black,1101279,,,black_plus_sign,,,,,null,,,0.9680851063829787,1,,,,,,,,,,,,,,,,
null,,color_black,1101383,,,black_plus_sign,,,,,null,,,,,,,,,,,,,,,,,,,,
null,,learn_phase(without_color),1104406,,,black_plus_sign,,,,,null,US_Cities_List/racine.png,US_Cities_List/gatlinburg.png,,,,,,,,,,,,,,,,,,
null,,black_cross(without_color),1105167,,,yellow,,,,,null,US_Cities_List/racine.png,US_Cities_List/gatlinburg.png,,,,,,,,,,,,,,,,,,
456.59999990463257,,rt_plussign_withcolor,1105669,,,yellow,,,,,50,US_Cities_List/racine.png,US_Cities_List/gatlinburg.png,,,,,,,,,,,,,,,,,,
null,,rt_thecrossant_black,1106928,,,black_plus_sign,,,,,null,,,0.968421052631579,1,,,,,,,,,,,,,,,,
null,,color_black,1107039,,,black_plus_sign,,,,,null,,,,,,,,,,,,,,,,,,,,
null,,learn_phase(without_color),1110069,,,black_plus_sign,,,,,null,US_Cities_List/peoria.png,US_Cities_List/cornwall.png,,,,,,,,,,,,,,,,,,
null,,black_cross(without_color),1111062,,,blue,,,,,null,US_Cities_List/peoria.png,US_Cities_List/cornwall.png,,,,,,,,,,,,,,,,,,
null,,rt_plussign_withcolor,1111565,,,blue,,,,,null,US_Cities_List/peoria.png,US_Cities_List/cornwall.png,,,,,,,,,,,,,,,,,,
953.7000000476837,,rt_thecrossant_black,1112576,,,black_plus_sign,,,,,49,,,0.96875,1,,,,,,,,,,,,,,,,
null,,color_black,1112678,,,black_plus_sign,,,,,null,,,,,,,,,,,,,,,,,,,,
null,,learn_phase(without_color),1115710,,,black_plus_sign,,,,,null,US_Cities_List/cornwall.png,US_Cities_List/leesburg.png,,,,,,,,,,,,,,,,,,
null,,black_cross(without_color),1116742,,,yellow,,,,,null,US_Cities_List/cornwall.png,US_Cities_List/leesburg.png,,,,,,,,,,,,,,,,,,
null,,rt_plussign_withcolor,1117258,,,yellow,,,,,null,US_Cities_List/cornwall.png,US_Cities_List/leesburg.png,,,,,,,,,,,,,,,,,,
1095,,rt_thecrossant_black,1118233,,,black_plus_sign,,,,,50,,,0.9690721649484536,1,,,,,,,,,,,,,,,,
null,,color_black,1118336,,,black_plus_sign,,,,,null,,,,,,,,,,,,,,,,,,,,
null,,learn_phase(without_color),1121355,,,black_plus_sign,,,,,null,US_Cities_List/peoria.png,US_Cities_List/boulder.png,,,,,,,,,,,,,,,,,,
null,,black_cross(without_color),1121878,,,yellow,,,,,null,US_Cities_List/peoria.png,US_Cities_List/boulder.png,,,,,,,,,,,,,,,,,,
null,,rt_plussign_withcolor,1122381,,,yellow,,,,,null,US_Cities_List/peoria.png,US_Cities_List/boulder.png,,,,,,,,,,,,,,,,,,
1420.6999999284744,,rt_thecrossant_black,1123878,,,black_plus_sign,,,,,50,,,0.9693877551020408,1,,,,,,,,,,,,,,,,
null,,color_black,1123980,,,black_plus_sign,,,,,null,,,,,,,,,,,,,,,,,,,,
null,,learn_phase(without_color),1127006,,,black_plus_sign,,,,,null,US_Cities_List/shreveport.png,US_Cities_List/gatlinburg.png,,,,,,,,,,,,,,,,,,
null,,black_cross(without_color),1127997,,,blue,,,,,null,US_Cities_List/shreveport.png,US_Cities_List/gatlinburg.png,,,,,,,,,,,,,,,,,,
494.39999997615814,,rt_plussign_withcolor,1128501,,,blue,,,,,49,US_Cities_List/shreveport.png,US_Cities_List/gatlinburg.png,,,,,,,,,,,,,,,,,,
null,,rt_thecrossant_black,1129518,,,black_plus_sign,,,,,null,,,0.9696969696969697,1,,,,,,,,,,,,,,,,
null,,color_black,1129628,,,black_plus_sign,,,,,null,,,,,,,,,,,,,,,,,,,,
null,,learn_phase(without_color),1132652,,,black_plus_sign,,,,,null,US_Cities_List/boulder.png,US_Cities_List/hotsprings.png,,,,,,,,,,,,,,,,,,
null,,black_cross(without_color),1133614,,,yellow,,,,,null,US_Cities_List/boulder.png,US_Cities_List/hotsprings.png,,,,,,,,,,,,,,,,,,
473.7999999523163,,rt_plussign_withcolor,1134117,,,yellow,,,,,50,US_Cities_List/boulder.png,US_Cities_List/hotsprings.png,,,,,,,,,,,,,,,,,,
null,,rt_thecrossant_black,1135161,,,black_plus_sign,,,,,null,,,0.97,1,,,,,,,,,,,,,,,,
null,,color_black,1135264,,,black_plus_sign,,,,,null,,,,,,,,,,,,,,,,,,,,
null,,learn_phase(without_color),1138292,,,black_plus_sign,,,,,null,US_Cities_List/boulder.png,US_Cities_List/racine.png,,,,,,,,,,,,,,,,,,
null,,black_cross(without_color),1139261,,,blue,,,,,null,US_Cities_List/boulder.png,US_Cities_List/racine.png,,,,,,,,,,,,,,,,,,
482.09999990463257,,rt_plussign_withcolor,1139763,,,blue,,,,,49,US_Cities_List/boulder.png,US_Cities_List/racine.png,,,,,,,,,,,,,,,,,,
null,,rt_thecrossant_black,1140805,,,black_plus_sign,,,,,null,,,0.9702970297029703,1,,,,,,,,,,,,,,,,
null,,color_black,1140907,,,black_plus_sign,,,,,null,,,,,,,,,,,,,,,,,,,,
null,,learn_phase(without_color),1143931,,,black_plus_sign,,,,,null,US_Cities_List/newhope.png,US_Cities_List/cornwall.png,,,,,,,,,,,,,,,,,,
null,,black_cross(without_color),1144938,,,blue,,,,,null,US_Cities_List/newhope.png,US_Cities_List/cornwall.png,,,,,,,,,,,,,,,,,,
null,,rt_plussign_withcolor,1145440,,,blue,,,,,null,US_Cities_List/newhope.png,US_Cities_List/cornwall.png,,,,,,,,,,,,,,,,,,
1071.7000000476837,,rt_thecrossant_black,1146440,,,black_plus_sign,,,,,49,,,0.9705882352941176,1,,,,,,,,,,,,,,,,
null,,color_black,1146543,,,black_plus_sign,,,,,null,,,,,,,,,,,,,,,,,,,,
null,,learn_phase(without_color),1149578,,,black_plus_sign,,,,,null,US_Cities_List/gatlinburg.png,US_Cities_List/racine.png,,,,,,,,,,,,,,,,,,
null,,black_cross(without_color),1150575,,,yellow,,,,,null,US_Cities_List/gatlinburg.png,US_Cities_List/racine.png,,,,,,,,,,,,,,,,,,
463.2999999523163,,rt_plussign_withcolor,1151078,,,yellow,,,,,50,US_Cities_List/gatlinburg.png,US_Cities_List/racine.png,,,,,,,,,,,,,,,,,,
null,,rt_thecrossant_black,1152088,,,black_plus_sign,,,,,null,,,0.970873786407767,1,,,,,,,,,,,,,,,,
null,,color_black,1152192,,,black_plus_sign,,,,,null,,,,,,,,,,,,,,,,,,,,
null,,learn_phase(without_color),1155204,,,black_plus_sign,,,,,null,US_Cities_List/huntsville.png,US_Cities_List/leesburg.png,,,,,,,,,,,,,,,,,,
null,,black_cross(without_color),1156181,,,yellow,,,,,null,US_Cities_List/huntsville.png,US_Cities_List/leesburg.png,,,,,,,,,,,,,,,,,,
430,,rt_plussign_withcolor,1156684,,,yellow,,,,,49,US_Cities_List/huntsville.png,US_Cities_List/leesburg.png,,,,,,,,,,,,,,,,,,
null,,rt_thecrossant_black,1157715,,,black_plus_sign,,,,,50,,,0.9615384615384616,0,,,,,,,,,,,,,,,,
null,,color_black,1157819,,,black_plus_sign,,,,,null,,,,,,,,,,,,,,,,,,,,
null,,learn_phase(without_color),1160845,,,black_plus_sign,,,,,null,US_Cities_List/leesburg.png,US_Cities_List/huntsville.png,,,,,,,,,,,,,,,,,,
null,,black_cross(without_color),1161318,,,blue,,,,,null,US_Cities_List/leesburg.png,US_Cities_List/huntsville.png,,,,,,,,,,,,,,,,,,
null,,rt_plussign_withcolor,1161821,,,blue,,,,,null,US_Cities_List/leesburg.png,US_Cities_List/huntsville.png,,,,,,,,,,,,,,,,,,
1097.8000000715256,,rt_thecrossant_black,1163352,,,black_plus_sign,,,,,49,,,0.9619047619047619,1,,,,,,,,,,,,,,,,
null,,color_black,1163454,,,black_plus_sign,,,,,null,,,,,,,,,,,,,,,,,,,,
null,,learn_phase(without_color),1166474,,,black_plus_sign,,,,,null,US_Cities_List/gatlinburg.png,US_Cities_List/racine.png,,,,,,,,,,,,,,,,,,
null,,black_cross(without_color),1167468,,,yellow,,,,,null,US_Cities_List/gatlinburg.png,US_Cities_List/racine.png,,,,,,,,,,,,,,,,,,
null,,rt_plussign_withcolor,1167970,,,yellow,,,,,null,US_Cities_List/gatlinburg.png,US_Cities_List/racine.png,,,,,,,,,,,,,,,,,,
577.3999999761581,,rt_thecrossant_black,1168983,,,black_plus_sign,,,,,50,,,0.9622641509433962,1,,,,,,,,,,,,,,,,
null,,color_black,1169087,,,black_plus_sign,,,,,null,,,,,,,,,,,,,,,,,,,,
null,,learn_phase(without_color),1172116,,,black_plus_sign,,,,,null,US_Cities_List/newhope.png,US_Cities_List/cornwall.png,,,,,,,,,,,,,,,,,,
null,,black_cross(without_color),1172813,,,yellow,,,,,null,US_Cities_List/newhope.png,US_Cities_List/cornwall.png,,,,,,,,,,,,,,,,,,
475.09999990463257,,rt_plussign_withcolor,1173315,,,yellow,,,,,50,US_Cities_List/newhope.png,US_Cities_List/cornwall.png,,,,,,,,,,,,,,,,,,
null,,rt_thecrossant_black,1174625,,,black_plus_sign,,,,,null,,,0.9626168224299065,1,,,,,,,,,,,,,,,,
null,,color_black,1174729,,,black_plus_sign,,,,,null,,,,,,,,,,,,,,,,,,,,
null,,learn_phase(without_color),1177756,,,black_plus_sign,,,,,null,US_Cities_List/racine.png,US_Cities_List/boulder.png,,,,,,,,,,,,,,,,,,
null,,black_cross(without_color),1178245,,,blue,,,,,null,US_Cities_List/racine.png,US_Cities_List/boulder.png,,,,,,,,,,,,,,,,,,
null,,rt_plussign_withcolor,1178747,,,blue,,,,,null,US_Cities_List/racine.png,US_Cities_List/boulder.png,,,,,,,,,,,,,,,,,,
817.7000000476837,,rt_thecrossant_black,1180265,,,black_plus_sign,,,,,49,,,0.9629629629629629,1,,,,,,,,,,,,,,,,
null,,color_black,1180377,,,black_plus_sign,,,,,null,,,,,,,,,,,,,,,,,,,,
null,,learn_phase(without_color),1183404,,,black_plus_sign,,,,,null,US_Cities_List/boulder.png,US_Cities_List/hotsprings.png,,,,,,,,,,,,,,,,,,
null,,black_cross(without_color),1184088,,,blue,,,,,null,US_Cities_List/boulder.png,US_Cities_List/hotsprings.png,,,,,,,,,,,,,,,,,,
null,,rt_plussign_withcolor,1184591,,,blue,,,,,null,US_Cities_List/boulder.png,US_Cities_List/hotsprings.png,,,,,,,,,,,,,,,,,,
707.5,,rt_thecrossant_black,1185915,,,black_plus_sign,,,,,49,,,0.963302752293578,1,,,,,,,,,,,,,,,,
null,,color_black,1186019,,,black_plus_sign,,,,,null,,,,,,,,,,,,,,,,,,,,
null,,learn_phase(without_color),1189050,,,black_plus_sign,,,,,null,US_Cities_List/peoria.png,US_Cities_List/cornwall.png,,,,,,,,,,,,,,,,,,
null,,black_cross(without_color),1190044,,,yellow,,,,,null,US_Cities_List/peoria.png,US_Cities_List/cornwall.png,,,,,,,,,,,,,,,,,,
491.1999999284744,,rt_plussign_withcolor,1190547,,,yellow,,,,,50,US_Cities_List/peoria.png,US_Cities_List/cornwall.png,,,,,,,,,,,,,,,,,,
null,,rt_thecrossant_black,1191559,,,black_plus_sign,,,,,null,,,0.9636363636363636,1,,,,,,,,,,,,,,,,
null,,color_black,1191662,,,black_plus_sign,,,,,null,,,,,,,,,,,,,,,,,,,,
null,,learn_phase(without_color),1194680,,,black_plus_sign,,,,,null,US_Cities_List/westpalmbeach.png,US_Cities_List/peoria.png,,,,,,,,,,,,,,,,,,
null,,black_cross(without_color),1195514,,,yellow,,,,,null,US_Cities_List/westpalmbeach.png,US_Cities_List/peoria.png,,,,,,,,,,,,,,,,,,
476.89999997615814,,rt_plussign_withcolor,1196016,,,yellow,,,,,50,US_Cities_List/westpalmbeach.png,US_Cities_List/peoria.png,,,,,,,,,,,,,,,,,,
null,,rt_thecrossant_black,1197190,,,black_plus_sign,,,,,null,,,0.963963963963964,1,,,,,,,,,,,,,,,,
null,,color_black,1197293,,,black_plus_sign,,,,,null,,,,,,,,,,,,,,,,,,,,
null,,learn_phase(without_color),1200323,,,black_plus_sign,,,,,null,US_Cities_List/peoria.png,US_Cities_List/boulder.png,,,,,,,,,,,,,,,,,,
null,,black_cross(without_color),1200796,,,blue,,,,,null,US_Cities_List/peoria.png,US_Cities_List/boulder.png,,,,,,,,,,,,,,,,,,
null,,rt_plussign_withcolor,1201300,,,blue,,,,,null,US_Cities_List/peoria.png,US_Cities_List/boulder.png,,,,,,,,,,,,,,,,,,
1074.6000000238419,,rt_thecrossant_black,1202834,,,black_plus_sign,,,,,49,,,0.9642857142857143,1,,,,,,,,,,,,,,,,
null,,color_black,1202936,,,black_plus_sign,,,,,null,,,,,,,,,,,,,,,,,,,,
null,,learn_phase(without_color),1205952,,,black_plus_sign,,,,,null,US_Cities_List/leesburg.png,US_Cities_List/peoria.png,,,,,,,,,,,,,,,,,,
null,,black_cross(without_color),1206669,,,yellow,,,,,null,US_Cities_List/leesburg.png,US_Cities_List/peoria.png,,,,,,,,,,,,,,,,,,
492.2999999523163,,rt_plussign_withcolor,1207171,,,yellow,,,,,50,US_Cities_List/leesburg.png,US_Cities_List/peoria.png,,,,,,,,,,,,,,,,,,
null,,rt_thecrossant_black,1208461,,,black_plus_sign,,,,,null,,,0.9646017699115044,1,,,,,,,,,,,,,,,,
null,,color_black,1208565,,,black_plus_sign,,,,,null,,,,,,,,,,,,,,,,,,,,
null,,learn_phase(without_color),1211591,,,black_plus_sign,,,,,null,US_Cities_List/huntsville.png,US_Cities_List/leesburg.png,,,,,,,,,,,,,,,,,,
null,,black_cross(without_color),1212691,,,yellow,,,,,null,US_Cities_List/huntsville.png,US_Cities_List/leesburg.png,,,,,,,,,,,,,,,,,,
null,,rt_plussign_withcolor,1213194,,,yellow,,,,,null,US_Cities_List/huntsville.png,US_Cities_List/leesburg.png,,,,,,,,,,,,,,,,,,
902.3999999761581,,rt_thecrossant_black,1214101,,,black_plus_sign,,,,,50,,,0.9649122807017544,1,,,,,,,,,,,,,,,,
null,,color_black,1214204,,,black_plus_sign,,,,,null,,,,,,,,,,,,,,,,,,,,
null,,learn_phase(without_color),1217227,,,black_plus_sign,,,,,null,US_Cities_List/cornwall.png,US_Cities_List/newhope.png,,,,,,,,,,,,,,,,,,
null,,black_cross(without_color),1218174,,,blue,,,,,null,US_Cities_List/cornwall.png,US_Cities_List/newhope.png,,,,,,,,,,,,,,,,,,
null,,rt_plussign_withcolor,1218678,,,blue,,,,,null,US_Cities_List/cornwall.png,US_Cities_List/newhope.png,,,,,,,,,,,,,,,,,,
1257,,rt_thecrossant_black,1219738,,,black_plus_sign,,,,,49,,,0.9652173913043478,1,,,,,,,,,,,,,,,,
null,,color_black,1219841,,,black_plus_sign,,,,,null,,,,,,,,,,,,,,,,,,,,
null,,learn_phase(without_color),1222868,,,black_plus_sign,,,,,null,US_Cities_List/westpalmbeach.png,US_Cities_List/leesburg.png,,,,,,,,,,,,,,,,,,
null,,black_cross(without_color),1223335,,,yellow,,,,,null,US_Cities_List/westpalmbeach.png,US_Cities_List/leesburg.png,,,,,,,,,,,,,,,,,,
367.3000000715256,,rt_plussign_withcolor,1223838,,,yellow,,,,,50,US_Cities_List/westpalmbeach.png,US_Cities_List/leesburg.png,,,,,,,,,,,,,,,,,,
null,,rt_thecrossant_black,1225376,,,black_plus_sign,,,,,null,,,0.9655172413793104,1,,,,,,,,,,,,,,,,
null,,color_black,1225479,,,black_plus_sign,,,,,null,,,,,,,,,,,,,,,,,,,,
null,,learn_phase(without_color),1228507,,,black_plus_sign,,,,,null,US_Cities_List/gatlinburg.png,US_Cities_List/hanover.png,,,,,,,,,,,,,,,,,,
null,,black_cross(without_color),1228944,,,blue,,,,,null,US_Cities_List/gatlinburg.png,US_Cities_List/hanover.png,,,,,,,,,,,,,,,,,,
null,,rt_plussign_withcolor,1229447,,,blue,,,,,null,US_Cities_List/gatlinburg.png,US_Cities_List/hanover.png,,,,,,,,,,,,,,,,,,
706.3999999761581,,rt_thecrossant_black,1231017,,,black_plus_sign,,,,,49,,,0.9658119658119658,1,,,,,,,,,,,,,,,,
null,,color_black,1231121,,,black_plus_sign,,,,,null,,,,,,,,,,,,,,,,,,,,
null,,learn_phase(without_color),1234146,,,black_plus_sign,,,,,null,US_Cities_List/hotsprings.png,US_Cities_List/shreveport.png,,,,,,,,,,,,,,,,,,
null,,black_cross(without_color),1234579,,,blue,,,,,null,US_Cities_List/hotsprings.png,US_Cities_List/shreveport.png,,,,,,,,,,,,,,,,,,
501.5,,rt_plussign_withcolor,1235084,,,blue,,,,,49,US_Cities_List/hotsprings.png,US_Cities_List/shreveport.png,,,,,,,,,,,,,,,,,,
null,,rt_thecrossant_black,1236658,,,black_plus_sign,,,,,null,,,0.9661016949152542,1,,,,,,,,,,,,,,,,
null,,color_black,1236768,,,black_plus_sign,,,,,null,,,,,,,,,,,,,,,,,,,,
null,,learn_phase(without_color),1239803,,,black_plus_sign,,,,,null,US_Cities_List/racine.png,US_Cities_List/gatlinburg.png,,,,,,,,,,,,,,,,,,
null,,black_cross(without_color),1240532,,,yellow,,,,,null,US_Cities_List/racine.png,US_Cities_List/gatlinburg.png,,,,,,,,,,,,,,,,,,
380.59999990463257,,rt_plussign_withcolor,1241042,,,yellow,,,,,50,US_Cities_List/racine.png,US_Cities_List/gatlinburg.png,,,,,,,,,,,,,,,,,,
null,,rt_thecrossant_black,1242334,,,black_plus_sign,,,,,null,,,0.9663865546218487,1,,,,,,,,,,,,,,,,
null,,color_black,1242439,,,black_plus_sign,,,,,null,,,,,,,,,,,,,,,,,,,,
null,,learn_phase(without_color),1245467,,,black_plus_sign,,,,,null,US_Cities_List/racine.png,US_Cities_List/boulder.png,,,,,,,,,,,,,,,,,,
null,,black_cross(without_color),1246045,,,blue,,,,,null,US_Cities_List/racine.png,US_Cities_List/boulder.png,,,,,,,,,,,,,,,,,,
445.6999999284744,,rt_plussign_withcolor,1246548,,,blue,,,,,49,US_Cities_List/racine.png,US_Cities_List/boulder.png,,,,,,,,,,,,,,,,,,
null,,rt_thecrossant_black,1247975,,,black_plus_sign,,,,,null,,,0.9666666666666667,1,,,,,,,,,,,,,,,,
null,,color_black,1248077,,,black_plus_sign,,,,,null,,,,,,,,,,,,,,,,,,,,
34420.199999928474,,learn_break,1282499,,,learn_break,,,,,32,,,,,,,,,,,,,,,,,,,,
10743.399999976158,,intro_1,1293245,,,instruct,,,0,,,,,,,,,,,,,,,,,,,,,,
8134.700000047684,,intro_2,1301383,,,instruct,,,1,Next,,,,,,,,,,,,,,,,,,,,,
4287,,directmemory_phase,1305710,,,../static/images/US_Cities_List/huntsville.png,,,,,49,,,1,1,../static/images/US_Cities_List/leesburg.png,../static/images/US_Cities_List/hotsprings.png,../static/images/US_Cities_List/westpalmbeach.png,../static/images/US_Cities_List/leesburg.png,../static/images/US_Cities_List/westpalmbeach.png,../static/images/US_Cities_List/hotsprings.png,1,,,,,,,,,
null,,html-keyboard-response,1306717,,,<p></p>,,,,,null,,,,,,,,,,,,,,,,,,,,
2939.899999976158,,directmemory_phase,1309688,,,../static/images/US_Cities_List/racine.png,,,,,51,,,0.5,0,../static/images/US_Cities_List/hotsprings.png,../static/images/US_Cities_List/boulder.png,../static/images/US_Cities_List/huntsville.png,../static/images/US_Cities_List/boulder.png,../static/images/US_Cities_List/hotsprings.png,../static/images/US_Cities_List/huntsville.png,0.5,closer,,,,,,,,
null,,html-keyboard-response,1310695,,,<p></p>,,,,,null,,,,,,,,,,,,,,,,,,,,
2417.899999976158,,directmemory_phase,1313155,,,../static/images/US_Cities_List/peoria.png,,,,,50,,,0.6666666666666666,1,../static/images/US_Cities_List/racine.png,../static/images/US_Cities_List/westpalmbeach.png,../static/images/US_Cities_List/gatlinburg.png,../static/images/US_Cities_List/westpalmbeach.png,../static/images/US_Cities_List/racine.png,../static/images/US_Cities_List/gatlinburg.png,1,,,,,,,,,
null,,html-keyboard-response,1314169,,,<p></p>,,,,,null,,,,,,,,,,,,,,,,,,,,
2067.399999976158,,directmemory_phase,1316262,,,../static/images/US_Cities_List/gatlinburg.png,,,,,50,,,0.5,0,../static/images/US_Cities_List/leesburg.png,../static/images/US_Cities_List/carmel.png,../static/images/US_Cities_List/racine.png,../static/images/US_Cities_List/racine.png,../static/images/US_Cities_List/carmel.png,../static/images/US_Cities_List/leesburg.png,0.5,closer,,,,,,,,
null,,html-keyboard-response,1317268,,,<p></p>,,,,,null,,,,,,,,,,,,,,,,,,,,
1933.8999999761581,,directmemory_phase,1319231,,,../static/images/US_Cities_List/boulder.png,,,,,49,,,0.6,1,../static/images/US_Cities_List/hotsprings.png,../static/images/US_Cities_List/newhope.png,../static/images/US_Cities_List/gatlinburg.png,../static/images/US_Cities_List/hotsprings.png,../static/images/US_Cities_List/gatlinburg.png,../static/images/US_Cities_List/newhope.png,1,,,,,,,,,
null,,html-keyboard-response,1320240,,,<p></p>,,,,,null,,,,,,,,,,,,,,,,,,,,
3419.8000000715256,,directmemory_phase,1323688,,,../static/images/US_Cities_List/shreveport.png,,,,,51,,,0.6666666666666666,1,../static/images/US_Cities_List/huntsville.png,../static/images/US_Cities_List/racine.png,../static/images/US_Cities_List/carmel.png,../static/images/US_Cities_List/carmel.png,../static/images/US_Cities_List/racine.png,../static/images/US_Cities_List/huntsville.png,1,,,,,,,,,
null,,html-keyboard-response,1324705,,,<p></p>,,,,,null,,,,,,,,,,,,,,,,,,,,
2471.7999999523163,,directmemory_phase,1327202,,,../static/images/US_Cities_List/peoria.png,,,,,51,,,0.7142857142857143,1,../static/images/US_Cities_List/carmel.png,../static/images/US_Cities_List/hotsprings.png,../static/images/US_Cities_List/boulder.png,../static/images/US_Cities_List/boulder.png,../static/images/US_Cities_List/hotsprings.png,../static/images/US_Cities_List/carmel.png,1,,,,,,,,,
null,,html-keyboard-response,1328208,,,<p></p>,,,,,null,,,,,,,,,,,,,,,,,,,,
3534.5,,directmemory_phase,1331773,,,../static/images/US_Cities_List/shreveport.png,,,,,50,,,0.625,0,../static/images/US_Cities_List/leesburg.png,../static/images/US_Cities_List/westpalmbeach.png,../static/images/US_Cities_List/hotsprings.png,../static/images/US_Cities_List/hotsprings.png,../static/images/US_Cities_List/westpalmbeach.png,../static/images/US_Cities_List/leesburg.png,0.5,closer,,,,,,,,
null,,html-keyboard-response,1332779,,,<p></p>,,,,,null,,,,,,,,,,,,,,,,,,,,
3362.100000023842,,directmemory_phase,1336180,,,../static/images/US_Cities_List/gatlinburg.png,,,,,51,,,0.6666666666666666,1,../static/images/US_Cities_List/cornwall.png,../static/images/US_Cities_List/hotsprings.png,../static/images/US_Cities_List/hanover.png,../static/images/US_Cities_List/hanover.png,../static/images/US_Cities_List/hotsprings.png,../static/images/US_Cities_List/cornwall.png,1,,,,,,,,,
null,,html-keyboard-response,1337188,,,<p></p>,,,,,null,,,,,,,,,,,,,,,,,,,,
2366.7999999523163,,directmemory_phase,1339592,,,../static/images/US_Cities_List/hotsprings.png,,,,,51,,,0.7,1,../static/images/US_Cities_List/cornwall.png,../static/images/US_Cities_List/carmel.png,../static/images/US_Cities_List/boulder.png,../static/images/US_Cities_List/boulder.png,../static/images/US_Cities_List/carmel.png,../static/images/US_Cities_List/cornwall.png,1,,,,,,,,,
null,,html-keyboard-response,1340599,,,<p></p>,,,,,null,,,,,,,,,,,,,,,,,,,,
3068.5,,directmemory_phase,1343693,,,../static/images/US_Cities_List/leesburg.png,,,,,50,,,0.6363636363636364,0,../static/images/US_Cities_List/racine.png,../static/images/US_Cities_List/newhope.png,../static/images/US_Cities_List/huntsville.png,../static/images/US_Cities_List/huntsville.png,../static/images/US_Cities_List/newhope.png,../static/images/US_Cities_List/racine.png,0.5,closer,,,,,,,,
null,,html-keyboard-response,1344698,,,<p></p>,,,,,null,,,,,,,,,,,,,,,,,,,,
2699,,directmemory_phase,1347421,,,../static/images/US_Cities_List/hotsprings.png,,,,,49,,,0.5833333333333334,0,../static/images/US_Cities_List/huntsville.png,../static/images/US_Cities_List/carmel.png,../static/images/US_Cities_List/shreveport.png,../static/images/US_Cities_List/shreveport.png,../static/images/US_Cities_List/carmel.png,../static/images/US_Cities_List/huntsville.png,0.5,closer,,,,,,,,
null,,html-keyboard-response,1348437,,,<p></p>,,,,,null,,,,,,,,,,,,,,,,,,,,
2331.1999999284744,,directmemory_phase,1350799,,,../static/images/US_Cities_List/hanover.png,,,,,51,,,0.6153846153846154,1,../static/images/US_Cities_List/hotsprings.png,../static/images/US_Cities_List/racine.png,../static/images/US_Cities_List/gatlinburg.png,../static/images/US_Cities_List/gatlinburg.png,../static/images/US_Cities_List/racine.png,../static/images/US_Cities_List/hotsprings.png,1,,,,,,,,,
null,,html-keyboard-response,1351803,,,<p></p>,,,,,null,,,,,,,,,,,,,,,,,,,,
1818.5,,directmemory_phase,1353649,,,../static/images/US_Cities_List/hotsprings.png,,,,,49,,,0.6428571428571429,1,../static/images/US_Cities_List/westpalmbeach.png,../static/images/US_Cities_List/cornwall.png,../static/images/US_Cities_List/peoria.png,../static/images/US_Cities_List/westpalmbeach.png,../static/images/US_Cities_List/peoria.png,../static/images/US_Cities_List/cornwall.png,1,,,,,,,,,
null,,html-keyboard-response,1354667,,,<p></p>,,,,,null,,,,,,,,,,,,,,,,,,,,
2529.8000000715256,,directmemory_phase,1357223,,,../static/images/US_Cities_List/boulder.png,,,,,50,,,0.6666666666666666,1,../static/images/US_Cities_List/leesburg.png,../static/images/US_Cities_List/peoria.png,../static/images/US_Cities_List/huntsville.png,../static/images/US_Cities_List/peoria.png,../static/images/US_Cities_List/leesburg.png,../static/images/US_Cities_List/huntsville.png,1,,,,,,,,,
null,,html-keyboard-response,1358229,,,<p></p>,,,,,null,,,,,,,,,,,,,,,,,,,,
1800.6000000238419,,directmemory_phase,1360052,,,../static/images/US_Cities_List/carmel.png,,,,,49,,,0.6875,1,../static/images/US_Cities_List/shreveport.png,../static/images/US_Cities_List/leesburg.png,../static/images/US_Cities_List/hotsprings.png,../static/images/US_Cities_List/shreveport.png,../static/images/US_Cities_List/hotsprings.png,../static/images/US_Cities_List/leesburg.png,1,,,,,,,,,
null,,html-keyboard-response,1361056,,,<p></p>,,,,,null,,,,,,,,,,,,,,,,,,,,
1572.3999999761581,,directmemory_phase,1362651,,,../static/images/US_Cities_List/leesburg.png,,,,,49,,,0.6470588235294118,0,../static/images/US_Cities_List/shreveport.png,../static/images/US_Cities_List/hotsprings.png,../static/images/US_Cities_List/cornwall.png,../static/images/US_Cities_List/cornwall.png,../static/images/US_Cities_List/hotsprings.png,../static/images/US_Cities_List/shreveport.png,0.5,closer,,,,,,,,
null,,html-keyboard-response,1363657,,,<p></p>,,,,,null,,,,,,,,,,,,,,,,,,,,
2361.8000000715256,,directmemory_phase,1366050,,,../static/images/US_Cities_List/westpalmbeach.png,,,,,51,,,0.6666666666666666,1,../static/images/US_Cities_List/hanover.png,../static/images/US_Cities_List/shreveport.png,../static/images/US_Cities_List/hotsprings.png,../static/images/US_Cities_List/hotsprings.png,../static/images/US_Cities_List/shreveport.png,../static/images/US_Cities_List/hanover.png,1,,,,,,,,,
null,,html-keyboard-response,1367062,,,<p></p>,,,,,null,,,,,,,,,,,,,,,,,,,,
2389.5,,directmemory_phase,1369478,,,../static/images/US_Cities_List/cornwall.png,,,,,49,,,0.631578947368421,0,../static/images/US_Cities_List/racine.png,../static/images/US_Cities_List/boulder.png,../static/images/US_Cities_List/leesburg.png,../static/images/US_Cities_List/leesburg.png,../static/images/US_Cities_List/boulder.png,../static/images/US_Cities_List/racine.png,0.5,closer,,,,,,,,
null,,html-keyboard-response,1370485,,,<p></p>,,,,,null,,,,,,,,,,,,,,,,,,,,
5102.5,,directmemory_phase,1375617,,,../static/images/US_Cities_List/shreveport.png,,,,,49,,,0.6,0,../static/images/US_Cities_List/racine.png,../static/images/US_Cities_List/gatlinburg.png,../static/images/US_Cities_List/peoria.png,../static/images/US_Cities_List/gatlinburg.png,../static/images/US_Cities_List/racine.png,../static/images/US_Cities_List/peoria.png,0.5,closer,,,,,,,,
null,,html-keyboard-response,1376623,,,<p></p>,,,,,null,,,,,,,,,,,,,,,,,,,,
2095.7000000476837,,directmemory_phase,1378749,,,../static/images/US_Cities_List/peoria.png,,,,,51,,,0.5714285714285714,0,../static/images/US_Cities_List/leesburg.png,../static/images/US_Cities_List/shreveport.png,../static/images/US_Cities_List/racine.png,../static/images/US_Cities_List/leesburg.png,../static/images/US_Cities_List/racine.png,../static/images/US_Cities_List/shreveport.png,0.5,closer,,,,,,,,
null,,html-keyboard-response,1379756,,,<p></p>,,,,,null,,,,,,,,,,,,,,,,,,,,
2419.600000023842,,directmemory_phase,1382209,,,../static/images/US_Cities_List/cornwall.png,,,,,50,,,0.5909090909090909,1,../static/images/US_Cities_List/westpalmbeach.png,../static/images/US_Cities_List/newhope.png,../static/images/US_Cities_List/gatlinburg.png,../static/images/US_Cities_List/newhope.png,../static/images/US_Cities_List/westpalmbeach.png,../static/images/US_Cities_List/gatlinburg.png,1,,,,,,,,,
null,,html-keyboard-response,1383214,,,<p></p>,,,,,null,,,,,,,,,,,,,,,,,,,,
2383.600000023842,,directmemory_phase,1385629,,,../static/images/US_Cities_List/westpalmbeach.png,,,,,50,,,0.5652173913043478,0,../static/images/US_Cities_List/carmel.png,../static/images/US_Cities_List/cornwall.png,../static/images/US_Cities_List/leesburg.png,../static/images/US_Cities_List/leesburg.png,../static/images/US_Cities_List/cornwall.png,../static/images/US_Cities_List/carmel.png,0.5,closer,,,,,,,,
null,,html-keyboard-response,1386636,,,<p></p>,,,,,null,,,,,,,,,,,,,,,,,,,,
3437,,directmemory_phase,1390114,,,../static/images/US_Cities_List/cornwall.png,,,,,50,,,0.5416666666666666,0,../static/images/US_Cities_List/shreveport.png,../static/images/US_Cities_List/huntsville.png,../static/images/US_Cities_List/peoria.png,../static/images/US_Cities_List/peoria.png,../static/images/US_Cities_List/huntsville.png,../static/images/US_Cities_List/shreveport.png,0.5,closer,,,,,,,,
null,,html-keyboard-response,1391120,,,<p></p>,,,,,null,,,,,,,,,,,,,,,,,,,,
2408.7000000476837,,directmemory_phase,1393560,,,../static/images/US_Cities_List/leesburg.png,,,,,51,,,0.52,0,../static/images/US_Cities_List/newhope.png,../static/images/US_Cities_List/westpalmbeach.png,../static/images/US_Cities_List/carmel.png,../static/images/US_Cities_List/westpalmbeach.png,../static/images/US_Cities_List/newhope.png,../static/images/US_Cities_List/carmel.png,0.5,closer,,,,,,,,
null,,html-keyboard-response,1394565,,,<p></p>,,,,,null,,,,,,,,,,,,,,,,,,,,
4589.899999976158,,directmemory_phase,1399185,,,../static/images/US_Cities_List/peoria.png,,,,,50,,,0.5,0,../static/images/US_Cities_List/carmel.png,../static/images/US_Cities_List/huntsville.png,../static/images/US_Cities_List/cornwall.png,../static/images/US_Cities_List/cornwall.png,../static/images/US_Cities_List/huntsville.png,../static/images/US_Cities_List/carmel.png,0.5,closer,,,,,,,,
null,,html-keyboard-response,1400194,,,<p></p>,,,,,null,,,,,,,,,,,,,,,,,,,,
3009.2999999523163,,directmemory_phase,1403229,,,../static/images/US_Cities_List/racine.png,,,,,49,,,0.48148148148148145,0,../static/images/US_Cities_List/leesburg.png,../static/images/US_Cities_List/hotsprings.png,../static/images/US_Cities_List/gatlinburg.png,../static/images/US_Cities_List/gatlinburg.png,../static/images/US_Cities_List/hotsprings.png,../static/images/US_Cities_List/leesburg.png,0.5,closer,,,,,,,,
null,,html-keyboard-response,1404238,,,<p></p>,,,,,null,,,,,,,,,,,,,,,,,,,,
2584.7999999523163,,directmemory_phase,1406854,,,../static/images/US_Cities_List/westpalmbeach.png,,,,,51,,,0.4642857142857143,0,../static/images/US_Cities_List/cornwall.png,../static/images/US_Cities_List/peoria.png,../static/images/US_Cities_List/carmel.png,../static/images/US_Cities_List/peoria.png,../static/images/US_Cities_List/cornwall.png,../static/images/US_Cities_List/carmel.png,0.5,closer,,,,,,,,
null,,html-keyboard-response,1407862,,,<p></p>,,,,,null,,,,,,,,,,,,,,,,,,,,
2979.6999999284744,,directmemory_phase,1410865,,,../static/images/US_Cities_List/boulder.png,,,,,51,,,0.4482758620689655,0,../static/images/US_Cities_List/cornwall.png,../static/images/US_Cities_List/racine.png,../static/images/US_Cities_List/huntsville.png,../static/images/US_Cities_List/racine.png,../static/images/US_Cities_List/cornwall.png,../static/images/US_Cities_List/huntsville.png,0.5,closer,,,,,,,,
null,,html-keyboard-response,1411873,,,<p></p>,,,,,null,,,,,,,,,,,,,,,,,,,,
4613,,directmemory_phase,1416509,,,../static/images/US_Cities_List/leesburg.png,,,,,49,,,0.43333333333333335,0,../static/images/US_Cities_List/carmel.png,../static/images/US_Cities_List/hotsprings.png,../static/images/US_Cities_List/peoria.png,../static/images/US_Cities_List/peoria.png,../static/images/US_Cities_List/hotsprings.png,../static/images/US_Cities_List/carmel.png,0.5,closer,,,,,,,,
null,,html-keyboard-response,1417516,,,<p></p>,,,,,null,,,,,,,,,,,,,,,,,,,,
1541.0999999046326,,directmemory_phase,1419099,,,../static/images/US_Cities_List/newhope.png,,,,,49,,,0.45161290322580644,1,../static/images/US_Cities_List/cornwall.png,../static/images/US_Cities_List/huntsville.png,../static/images/US_Cities_List/leesburg.png,../static/images/US_Cities_List/cornwall.png,../static/images/US_Cities_List/leesburg.png,../static/images/US_Cities_List/huntsville.png,1,,,,,,,,,
null,,html-keyboard-response,1420108,,,<p></p>,,,,,null,,,,,,,,,,,,,,,,,,,,
3781.899999976158,,directmemory_phase,1423930,,,../static/images/US_Cities_List/gatlinburg.png,,,,,51,,,0.46875,1,../static/images/US_Cities_List/cornwall.png,../static/images/US_Cities_List/carmel.png,../static/images/US_Cities_List/shreveport.png,../static/images/US_Cities_List/shreveport.png,../static/images/US_Cities_List/carmel.png,../static/images/US_Cities_List/cornwall.png,1,,,,,,,,,
null,,html-keyboard-response,1424935,,,<p></p>,,,,,null,,,,,,,,,,,,,,,,,,,,
101105.10000002384,,intro_1,1526042,,,instruct,,,0,,,,,,,,,,,,,,,,,,,,,,
13875.399999976158,,intro_2,1539921,,,instruct,,,1,Next,,,,,,,,,,,,,,,,,,,,,
3033.100000023842,,intro_3,1542957,,,instruct,,,1,Next,,,,,,,,,,,,,,,,,,,,,
5110.5,,intro_4,1548071,,,instruct,,,1,Next,,,,,,,,,,,,,,,,,,,,,
33781.39999997616,,intro_5,1581856,,,instruct,,,1,Next,,,,,,,,,,,,,,,,,,,,,
10668.899999976158,,intro_6,1592529,,,instruct,,,1,Next,,,,,,,,,,,,,,,,,,,,,
5517.800000071526,,intro_7,1598050,,,instruct,,,1,Next,,,,,,,,,,,,,,,,,,,,,
25391.299999952316,,intro_8,1623445,,,instruct,,,1,Next,,,,,,,,,,,,,,,,,,,,,
7551.300000071526,,intro_9,1631001,,,instruct,,,1,Next,,,,,,,,,,,,,,,,,,,,,
2961.2999999523163,,intro_10,1633966,,,instruct,,,0,Previous,,,,,,,,,,,,,,,,,,,,,
591,,intro_9,1634562,,,instruct,,,0,Previous,,,,,,,,,,,,,,,,,,,,,
317,,intro_8,1634883,,,instruct,,,0,Previous,,,,,,,,,,,,,,,,,,,,,
213.59999990463257,,intro_7,1635102,,,instruct,,,0,Previous,,,,,,,,,,,,,,,,,,,,,
449.09999990463257,,intro_6,1635554,,,instruct,,,0,Previous,,,,,,,,,,,,,,,,,,,,,
216.30000007152557,,intro_5,1635773,,,instruct,,,0,Previous,,,,,,,,,,,,,,,,,,,,,
13411.5,,intro_4,1649188,,,instruct,,,1,Next,,,,,,,,,,,,,,,,,,,,,
4676.100000023842,,intro_5,1653867,,,instruct,,,1,Next,,,,,,,,,,,,,,,,,,,,,
3654.100000023842,,intro_6,1657526,,,instruct,,,1,Next,,,,,,,,,,,,,,,,,,,,,
1524.6000000238419,,intro_7,1659054,,,instruct,,,1,Next,,,,,,,,,,,,,,,,,,,,,
1919.5,,intro_8,1660976,,,instruct,,,0,Previous,,,,,,,,,,,,,,,,,,,,,
3009.5,,intro_7,1663988,,,instruct,,,1,Next,,,,,,,,,,,,,,,,,,,,,
1267.1000000238419,,intro_8,1665258,,,instruct,,,0,Previous,,,,,,,,,,,,,,,,,,,,,
3898.3000000715256,,intro_7,1669159,,,instruct,,,1,Next,,,,,,,,,,,,,,,,,,,,,
6787.700000047684,,intro_8,1675950,,,instruct,,,1,Next,,,,,,,,,,,,,,,,,,,,,
6679.899999976158,,intro_9,1682633,,,instruct,,,1,Next,,,,,,,,,,,,,,,,,,,,,
6253.700000047684,,intro_10,1688889,,,instruct,,,1,Next,,,,,,,,,,,,,,,,,,,,,
14455.5,,intro_11,1703349,,,instruct,,,1,Next,,,,,,,,,,,,,,,,,,,,,
2351.1999999284744,,shortestpath_phase,1705737,,,../static/images/US_Cities_List/peoria.png,,,,,49,../static/images/US_Cities_List/gatlinburg.png,../static/images/US_Cities_List/hanover.png,1,1,,,,../static/images/US_Cities_List/gatlinburg.png,,,,,One Edge Diff,Three Edge Four Edge,,,,,,
null,,html-keyboard-response,1706744,,,<p></p>,,,,,null,,,,,,,,,,,,,,,,,,,,
3485.5,,shortestpath_phase,1710252,,,../static/images/US_Cities_List/racine.png,,,,,50,../static/images/US_Cities_List/hotsprings.png,../static/images/US_Cities_List/huntsville.png,0.5,0,,,,../static/images/US_Cities_List/hotsprings.png,,,,,Two Edge Diff,Two Edge Four Edge,,,,,,
null,,html-keyboard-response,1711261,,,<p></p>,,,,,null,,,,,,,,,,,,,,,,,,,,
1653.3999999761581,,shortestpath_phase,1712945,,,../static/images/US_Cities_List/newhope.png,,,,,49,../static/images/US_Cities_List/huntsville.png,../static/images/US_Cities_List/racine.png,0.6666666666666666,1,,,,../static/images/US_Cities_List/huntsville.png,,,,,One Edge Diff,Three Edge Four Edge,,,,,,
null,,html-keyboard-response,1713952,,,<p></p>,,,,,null,,,,,,,,,,,,,,,,,,,,
1560.3000000715256,,shortestpath_phase,1715557,,,../static/images/US_Cities_List/gatlinburg.png,,,,,49,../static/images/US_Cities_List/newhope.png,../static/images/US_Cities_List/hotsprings.png,0.5,0,,,,../static/images/US_Cities_List/hotsprings.png,,,,,Three Edge Diff,Three Edge Six Edge,,,,,,
null,,html-keyboard-response,1716562,,,<p></p>,,,,,null,,,,,,,,,,,,,,,,,,,,
1789,,shortestpath_phase,1718374,,,../static/images/US_Cities_List/newhope.png,,,,,49,../static/images/US_Cities_List/westpalmbeach.png,../static/images/US_Cities_List/hotsprings.png,0.6,1,,,,../static/images/US_Cities_List/westpalmbeach.png,,,,,One Edge Diff,Three Edge Four Edge,,,,,,
