rt,responses,trial_type,time_elapsed,image_type,sequence,stimulus,cities,city_images,button_pressed,response,key_press,stimulus_left,stimulus_right,cumulative_accuracy,accuracy,stimulus_down_left,stimulus_down_mid,stimulus_down_right,stimulus_correct,stimulus_short,stimulus_far,weighted_accuracy,missedtrial,condition,specific_pairs,imgL_ID,imgR_ID,linedress,linedressed,detour_trial,linedressed_detor
3653.9000000003725,{worker_id:67927aab0e9ddc106abf2129},id_enter,3655,fictional,interleaved,flights,Baymarsh; Delaro Park; Orchard Bend; Hawthorne Bluffs; Hollendale; Claywater; Granton Ridge; Sunmere; New Verdan; Riverlyn; Cedarwyn; North Arroya; Juniper Creek,US_Cities_List/leesburg.png; US_Cities_List/cornwall.png; US_Cities_List/peoria.png; US_Cities_List/shreveport.png; US_Cities_List/carmel.png; US_Cities_List/boulder.png; US_Cities_List/hanover.png; US_Cities_List/hotsprings.png; US_Cities_List/racine.png; US_Cities_List/westpalmbeach.png; US_Cities_List/huntsville.png; US_Cities_List/newhope.png; US_Cities_List/gatlinburg.png,,,,,,,,,,,,,,,,,,,,,,,
4137.5999999996275,,fullscreen,7795,,,make_fullscreen,,,0,,,,,,,,,,,,,,,,,,,,,,
7153.9000000003725,,intro_1,14950,,,instruct,,,0,,,,,,,,,,,,,,,,,,,,,,
8804.099999999627,,intro_2,23755,,,instruct,,,1,Next,,,,,,,,,,,,,,,,,,,,,
20930.800000000745,,intro_3,44686,,,instruct,,,1,Next,,,,,,,,,,,,,,,,,,,,,
11031.400000000373,,intro_4,55719,,,instruct,,,1,Next,,,,,,,,,,,,,,,,,,,,,
9104.099999999627,,intro_5,64823,,,instruct,,,1,Next,,,,,,,,,,,,,,,,,,,,,
42508.60000000149,,intro_6,107333,,,instruct,,,1,Next,,,,,,,,,,,,,,,,,,,,,
4229.300000000745,,intro_7,111563,,,instruct,,,1,Next,,,,,,,,,,,,,,,,,,,,,
null,,learn_prac_1,114565,,,lean_prac_1,,,,,null,,,,,,,,,,,,,,,,,,,,
null,,html-keyboard-response,115570,,,<p></p>,,,,,null,,,,,,,,,,,,,,,,,,,,
6154.39999999851,,intro_1,121725,,,instruct,,,0,,,,,,,,,,,,,,,,,,,,,,
8571.5,,intro_2,130297,,,instruct,,,1,Next,,,,,,,,,,,,,,,,,,,,,
null,,learn_prac_2,133299,,,lean_prac_2,,,,,null,,,,,,,,,,,,,,,,,,,,
null,,html-keyboard-response,134300,,,<p></p>,,,,,null,,,,,,,,,,,,,,,,,,,,
4156.300000000745,,intro_1,138457,,,instruct,,,0,,,,,,,,,,,,,,,,,,,,,,
4019.5,,intro_2,142477,,,instruct,,,1,Next,,,,,,,,,,,,,,,,,,,,,
11946.29999999702,,intro_3,154424,,,instruct,,,1,Next,,,,,,,,,,,,,,,,,,,,,
null,,prac_atten_color_black,155081,,,black_plus_sign,,,,,null,,,,,,,,,,,,,,,,,,,,
null,,prac_atten_color,155827,,,prac_stop_color,,,,,null,,,,,,,,,,,,,,,,,,,,
592.3999999985099,,prac_atten_color_black,157829,,,black_plus_sign,,,,,49,,,,,,,,,,,,,,,,,,,,
null,,prac_atten_color_black,158486,,,black_plus_sign,,,,,null,,,,,,,,,,,,,,,,,,,,
468.8999999985099,,prac_atten_color,159191,,,prac_stop_color,,,,,50,,,,,,,,,,,,,,,,,,,,
null,,prac_atten_color_black,161191,,,black_plus_sign,,,,,null,,,,,,,,,,,,,,,,,,,,
null,,prac_atten_color_black,161891,,,black_plus_sign,,,,,null,,,,,,,,,,,,,,,,,,,,
448.8999999985099,,prac_atten_color,162570,,,prac_stop_color,,,,,50,,,,,,,,,,,,,,,,,,,,
null,,prac_atten_color_black,164571,,,black_plus_sign,,,,,null,,,,,,,,,,,,,,,,,,,,
null,,prac_atten_color_black,165296,,,black_plus_sign,,,,,null,,,,,,,,,,,,,,,,,,,,
null,,prac_atten_color,165730,,,prac_stop_color,,,,,null,,,,,,,,,,,,,,,,,,,,
70.30000000074506,,prac_atten_color_black,167732,,,black_plus_sign,,,,,49,,,,,,,,,,,,,,,,,,,,
null,,prac_atten_color_black,168702,,,black_plus_sign,,,,,null,,,,,,,,,,,,,,,,,,,,
493.80000000074506,,prac_atten_color,169571,,,prac_stop_color,,,,,50,,,,,,,,,,,,,,,,,,,,
null,,prac_atten_color_black,171572,,,black_plus_sign,,,,,null,,,,,,,,,,,,,,,,,,,,
null,,prac_atten_color_black,172107,,,black_plus_sign,,,,,null,,,,,,,,,,,,,,,,,,,,
498.1000000014901,,prac_atten_color,172668,,,prac_stop_color,,,,,50,,,,,,,,,,,,,,,,,,,,
null,,prac_atten_color_black,174670,,,black_plus_sign,,,,,null,,,,,,,,,,,,,,,,,,,,
null,,prac_atten_color_black,175510,,,black_plus_sign,,,,,null,,,,,,,,,,,,,,,,,,,,
511.4000000022352,,prac_atten_color,176495,,,prac_stop_color,,,,,49,,,,,,,,,,,,,,,,,,,,
null,,prac_atten_color_black,178496,,,black_plus_sign,,,,,null,,,,,,,,,,,,,,,,,,,,
null,,prac_atten_color_black,178928,,,black_plus_sign,,,,,null,,,,,,,,,,,,,,,,,,,,
null,,prac_atten_color,179519,,,prac_stop_color,,,,,null,,,,,,,,,,,,,,,,,,,,
60.900000002235174,,prac_atten_color_black,181520,,,black_plus_sign,,,,,50,,,,,,,,,,,,,,,,,,,,
null,,prac_atten_color_black,182333,,,black_plus_sign,,,,,null,,,,,,,,,,,,,,,,,,,,
566.8999999985099,,prac_atten_color,183341,,,prac_stop_color,,,,,49,,,,,,,,,,,,,,,,,,,,
null,,prac_atten_color_black,185342,,,black_plus_sign,,,,,null,,,,,,,,,,,,,,,,,,,,
null,,prac_atten_color_black,185738,,,black_plus_sign,,,,,null,,,,,,,,,,,,,,,,,,,,
544.5,,prac_atten_color,186751,,,prac_stop_color,,,,,49,,,,,,,,,,,,,,,,,,,,
null,,prac_atten_color_black,188752,,,black_plus_sign,,,,,null,,,,,,,,,,,,,,,,,,,,
288436.30000000075,,attentioncheck_feedback,477190,,,cross_check_feedback,,,0,,,,,,,,,,,,,,,,,,,,,,
9525.699999999255,,last_instruct,486716,,,instruct,,,,,32,,,,,,,,,,,,,,,,,,,,
null,,learn_phase(without_color),489721,,,black_plus_sign,,,,,null,US_Cities_List/hotsprings.png,US_Cities_List/westpalmbeach.png,,,,,,,,,,,,,,,,,,
null,,black_cross(without_color),490466,,,yellow,,,,,null,US_Cities_List/hotsprings.png,US_Cities_List/westpalmbeach.png,,,,,,,,,,,,,,,,,,
null,,rt_plussign_withcolor,490968,,,yellow,,,,,null,US_Cities_List/hotsprings.png,US_Cities_List/westpalmbeach.png,,,,,,,,,,,,,,,,,,
null,,rt_thecrossant_black,492227,,,black_plus_sign,,,,,null,,,NaN,,,,,,,,,,,,,,,,,
null,,color_black,492329,,,black_plus_sign,,,,,null,,,,,,,,,,,,,,,,,,,,
null,,learn_phase(without_color),495335,,,black_plus_sign,,,,,null,US_Cities_List/newhope.png,US_Cities_List/shreveport.png,,,,,,,,,,,,,,,,,,
null,,black_cross(without_color),495936,,,blue,,,,,null,US_Cities_List/newhope.png,US_Cities_List/shreveport.png,,,,,,,,,,,,,,,,,,
null,,rt_plussign_withcolor,496437,,,blue,,,,,null,US_Cities_List/newhope.png,US_Cities_List/shreveport.png,,,,,,,,,,,,,,,,,,
856.9000000022352,,rt_thecrossant_black,497839,,,black_plus_sign,,,,,49,,,1,1,,,,,,,,,,,,,,,,
null,,color_black,497942,,,black_plus_sign,,,,,null,,,,,,,,,,,,,,,,,,,,
null,,learn_phase(without_color),500946,,,black_plus_sign,,,,,null,US_Cities_List/boulder.png,US_Cities_List/peoria.png,,,,,,,,,,,,,,,,,,
null,,black_cross(without_color),501641,,,yellow,,,,,null,US_Cities_List/boulder.png,US_Cities_List/peoria.png,,,,,,,,,,,,,,,,,,
null,,rt_plussign_withcolor,502146,,,yellow,,,,,null,US_Cities_List/boulder.png,US_Cities_List/peoria.png,,,,,,,,,,,,,,,,,,
788.3999999985099,,rt_thecrossant_black,503455,,,black_plus_sign,,,,,50,,,1,1,,,,,,,,,,,,,,,,
null,,color_black,503557,,,black_plus_sign,,,,,null,,,,,,,,,,,,,,,,,,,,
null,,learn_phase(without_color),506565,,,black_plus_sign,,,,,null,US_Cities_List/peoria.png,US_Cities_List/cornwall.png,,,,,,,,,,,,,,,,,,
null,,black_cross(without_color),507455,,,yellow,,,,,null,US_Cities_List/peoria.png,US_Cities_List/cornwall.png,,,,,,,,,,,,,,,,,,
null,,rt_plussign_withcolor,507956,,,yellow,,,,,null,US_Cities_List/peoria.png,US_Cities_List/cornwall.png,,,,,,,,,,,,,,,,,,
799.5,,rt_thecrossant_black,509070,,,black_plus_sign,,,,,50,,,1,1,,,,,,,,,,,,,,,,
null,,color_black,509171,,,black_plus_sign,,,,,null,,,,,,,,,,,,,,,,,,,,
null,,learn_phase(without_color),512181,,,black_plus_sign,,,,,null,US_Cities_List/racine.png,US_Cities_List/hanover.png,,,,,,,,,,,,,,,,,,
null,,black_cross(without_color),512835,,,blue,,,,,null,US_Cities_List/racine.png,US_Cities_List/hanover.png,,,,,,,,,,,,,,,,,,
null,,rt_plussign_withcolor,513337,,,blue,,,,,null,US_Cities_List/racine.png,US_Cities_List/hanover.png,,,,,,,,,,,,,,,,,,
1606.4000000022352,,rt_thecrossant_black,514685,,,black_plus_sign,,,,,49,,,1,1,,,,,,,,,,,,,,,,
null,,color_black,514787,,,black_plus_sign,,,,,null,,,,,,,,,,,,,,,,,,,,
null,,learn_phase(without_color),517795,,,black_plus_sign,,,,,null,US_Cities_List/cornwall.png,US_Cities_List/leesburg.png,,,,,,,,,,,,,,,,,,
null,,black_cross(without_color),518248,,,blue,,,,,null,US_Cities_List/cornwall.png,US_Cities_List/leesburg.png,,,,,,,,,,,,,,,,,,
null,,rt_plussign_withcolor,518750,,,blue,,,,,null,US_Cities_List/cornwall.png,US_Cities_List/leesburg.png,,,,,,,,,,,,,,,,,,
782.3999999985099,,rt_thecrossant_black,520300,,,black_plus_sign,,,,,49,,,1,1,,,,,,,,,,,,,,,,
null,,color_black,520402,,,black_plus_sign,,,,,null,,,,,,,,,,,,,,,,,,,,
null,,learn_phase(without_color),523409,,,black_plus_sign,,,,,null,US_Cities_List/hanover.png,US_Cities_List/racine.png,,,,,,,,,,,,,,,,,,
null,,black_cross(without_color),523820,,,yellow,,,,,null,US_Cities_List/hanover.png,US_Cities_List/racine.png,,,,,,,,,,,,,,,,,,
null,,rt_plussign_withcolor,524321,,,yellow,,,,,null,US_Cities_List/hanover.png,US_Cities_List/racine.png,,,,,,,,,,,,,,,,,,
576.8000000007451,,rt_thecrossant_black,525915,,,black_plus_sign,,,,,50,,,1,1,,,,,,,,,,,,,,,,
null,,color_black,526016,,,black_plus_sign,,,,,null,,,,,,,,,,,,,,,,,,,,
null,,learn_phase(without_color),529026,,,black_plus_sign,,,,,null,US_Cities_List/hanover.png,US_Cities_List/racine.png,,,,,,,,,,,,,,,,,,
null,,black_cross(without_color),529803,,,yellow,,,,,null,US_Cities_List/hanover.png,US_Cities_List/racine.png,,,,,,,,,,,,,,,,,,
null,,rt_plussign_withcolor,530305,,,yellow,,,,,null,US_Cities_List/hanover.png,US_Cities_List/racine.png,,,,,,,,,,,,,,,,,,
600.3000000007451,,rt_thecrossant_black,531532,,,black_plus_sign,,,,,50,,,1,1,,,,,,,,,,,,,,,,
null,,color_black,531634,,,black_plus_sign,,,,,null,,,,,,,,,,,,,,,,,,,,
null,,learn_phase(without_color),534639,,,black_plus_sign,,,,,null,US_Cities_List/hanover.png,US_Cities_List/gatlinburg.png,,,,,,,,,,,,,,,,,,
null,,black_cross(without_color),535060,,,blue,,,,,null,US_Cities_List/hanover.png,US_Cities_List/gatlinburg.png,,,,,,,,,,,,,,,,,,
null,,rt_plussign_withcolor,535561,,,blue,,,,,null,US_Cities_List/hanover.png,US_Cities_List/gatlinburg.png,,,,,,,,,,,,,,,,,,
1069.3999999985099,,rt_thecrossant_black,537146,,,black_plus_sign,,,,,49,,,1,1,,,,,,,,,,,,,,,,
null,,color_black,537247,,,black_plus_sign,,,,,null,,,,,,,,,,,,,,,,,,,,
null,,learn_phase(without_color),540253,,,black_plus_sign,,,,,null,US_Cities_List/hotsprings.png,US_Cities_List/westpalmbeach.png,,,,,,,,,,,,,,,,,,
null,,black_cross(without_color),541330,,,yellow,,,,,null,US_Cities_List/hotsprings.png,US_Cities_List/westpalmbeach.png,,,,,,,,,,,,,,,,,,
null,,rt_plussign_withcolor,541832,,,yellow,,,,,null,US_Cities_List/hotsprings.png,US_Cities_List/westpalmbeach.png,,,,,,,,,,,,,,,,,,
641.5,,rt_thecrossant_black,542768,,,black_plus_sign,,,,,50,,,1,1,,,,,,,,,,,,,,,,
null,,color_black,542870,,,black_plus_sign,,,,,null,,,,,,,,,,,,,,,,,,,,
null,,learn_phase(without_color),545875,,,black_plus_sign,,,,,null,US_Cities_List/newhope.png,US_Cities_List/huntsville.png,,,,,,,,,,,,,,,,,,
null,,black_cross(without_color),546479,,,yellow,,,,,null,US_Cities_List/newhope.png,US_Cities_List/huntsville.png,,,,,,,,,,,,,,,,,,
null,,rt_plussign_withcolor,546980,,,yellow,,,,,null,US_Cities_List/newhope.png,US_Cities_List/huntsville.png,,,,,,,,,,,,,,,,,,
1380.8999999985099,,rt_thecrossant_black,548379,,,black_plus_sign,,,,,50,,,1,1,,,,,,,,,,,,,,,,
null,,color_black,548480,,,black_plus_sign,,,,,null,,,,,,,,,,,,,,,,,,,,
null,,learn_phase(without_color),551489,,,black_plus_sign,,,,,null,US_Cities_List/huntsville.png,US_Cities_List/newhope.png,,,,,,,,,,,,,,,,,,
null,,black_cross(without_color),552589,,,blue,,,,,null,US_Cities_List/huntsville.png,US_Cities_List/newhope.png,,,,,,,,,,,,,,,,,,
null,,rt_plussign_withcolor,553090,,,blue,,,,,null,US_Cities_List/huntsville.png,US_Cities_List/newhope.png,,,,,,,,,,,,,,,,,,
1009.1999999992549,,rt_thecrossant_black,553995,,,black_plus_sign,,,,,49,,,1,1,,,,,,,,,,,,,,,,
null,,color_black,554098,,,black_plus_sign,,,,,null,,,,,,,,,,,,,,,,,,,,
null,,learn_phase(without_color),557110,,,black_plus_sign,,,,,null,US_Cities_List/shreveport.png,US_Cities_List/newhope.png,,,,,,,,,,,,,,,,,,
null,,black_cross(without_color),557917,,,yellow,,,,,null,US_Cities_List/shreveport.png,US_Cities_List/newhope.png,,,,,,,,,,,,,,,,,,
null,,rt_plussign_withcolor,558418,,,yellow,,,,,null,US_Cities_List/shreveport.png,US_Cities_List/newhope.png,,,,,,,,,,,,,,,,,,
1454.1000000014901,,rt_thecrossant_black,559615,,,black_plus_sign,,,,,50,,,1,1,,,,,,,,,,,,,,,,
null,,color_black,559718,,,black_plus_sign,,,,,null,,,,,,,,,,,,,,,,,,,,
null,,learn_phase(without_color),562725,,,black_plus_sign,,,,,null,US_Cities_List/boulder.png,US_Cities_List/racine.png,,,,,,,,,,,,,,,,,,
null,,black_cross(without_color),563280,,,blue,,,,,null,US_Cities_List/boulder.png,US_Cities_List/racine.png,,,,,,,,,,,,,,,,,,
null,,rt_plussign_withcolor,563782,,,blue,,,,,null,US_Cities_List/boulder.png,US_Cities_List/racine.png,,,,,,,,,,,,,,,,,,
981.2999999970198,,rt_thecrossant_black,565232,,,black_plus_sign,,,,,49,,,1,1,,,,,,,,,,,,,,,,
null,,color_black,565334,,,black_plus_sign,,,,,null,,,,,,,,,,,,,,,,,,,,
null,,learn_phase(without_color),568339,,,black_plus_sign,,,,,null,US_Cities_List/newhope.png,US_Cities_List/huntsville.png,,,,,,,,,,,,,,,,,,
null,,black_cross(without_color),568817,,,blue,,,,,null,US_Cities_List/newhope.png,US_Cities_List/huntsville.png,,,,,,,,,,,,,,,,,,
466.5999999977648,,rt_plussign_withcolor,569318,,,blue,,,,,49,US_Cities_List/newhope.png,US_Cities_List/huntsville.png,,,,,,,,,,,,,,,,,,
null,,rt_thecrossant_black,570843,,,black_plus_sign,,,,,null,,,1,1,,,,,,,,,,,,,,,,
null,,color_black,570945,,,black_plus_sign,,,,,null,,,,,,,,,,,,,,,,,,,,
null,,learn_phase(without_color),573950,,,black_plus_sign,,,,,null,US_Cities_List/hanover.png,US_Cities_List/hotsprings.png,,,,,,,,,,,,,,,,,,
null,,black_cross(without_color),574546,,,blue,,,,,null,US_Cities_List/hanover.png,US_Cities_List/hotsprings.png,,,,,,,,,,,,,,,,,,
null,,rt_plussign_withcolor,575047,,,blue,,,,,null,US_Cities_List/hanover.png,US_Cities_List/hotsprings.png,,,,,,,,,,,,,,,,,,
588.8000000007451,,rt_thecrossant_black,576455,,,black_plus_sign,,,,,49,,,1,1,,,,,,,,,,,,,,,,
null,,color_black,576557,,,black_plus_sign,,,,,null,,,,,,,,,,,,,,,,,,,,
null,,learn_phase(without_color),579564,,,black_plus_sign,,,,,null,US_Cities_List/hanover.png,US_Cities_List/hotsprings.png,,,,,,,,,,,,,,,,,,
null,,black_cross(without_color),580502,,,yellow,,,,,null,US_Cities_List/hanover.png,US_Cities_List/hotsprings.png,,,,,,,,,,,,,,,,,,
null,,rt_plussign_withcolor,581003,,,yellow,,,,,null,US_Cities_List/hanover.png,US_Cities_List/hotsprings.png,,,,,,,,,,,,,,,,,,
766.3999999985099,,rt_thecrossant_black,582068,,,black_plus_sign,,,,,50,,,1,1,,,,,,,,,,,,,,,,
null,,color_black,582170,,,black_plus_sign,,,,,null,,,,,,,,,,,,,,,,,,,,
null,,learn_phase(without_color),585176,,,black_plus_sign,,,,,null,US_Cities_List/peoria.png,US_Cities_List/boulder.png,,,,,,,,,,,,,,,,,,
null,,black_cross(without_color),585981,,,blue,,,,,null,US_Cities_List/peoria.png,US_Cities_List/boulder.png,,,,,,,,,,,,,,,,,,
null,,rt_plussign_withcolor,586482,,,blue,,,,,null,US_Cities_List/peoria.png,US_Cities_List/boulder.png,,,,,,,,,,,,,,,,,,
1061.199999999255,,rt_thecrossant_black,587680,,,black_plus_sign,,,,,49,,,1,1,,,,,,,,,,,,,,,,
null,,color_black,587782,,,black_plus_sign,,,,,null,,,,,,,,,,,,,,,,,,,,
null,,learn_phase(without_color),590790,,,black_plus_sign,,,,,null,US_Cities_List/hotsprings.png,US_Cities_List/racine.png,,,,,,,,,,,,,,,,,,
null,,black_cross(without_color),591765,,,yellow,,,,,null,US_Cities_List/hotsprings.png,US_Cities_List/racine.png,,,,,,,,,,,,,,,,,,
null,,rt_plussign_withcolor,592267,,,yellow,,,,,null,US_Cities_List/hotsprings.png,US_Cities_List/racine.png,,,,,,,,,,,,,,,,,,
1040,,rt_thecrossant_black,593310,,,black_plus_sign,,,,,50,,,1,1,,,,,,,,,,,,,,,,
null,,color_black,593412,,,black_plus_sign,,,,,null,,,,,,,,,,,,,,,,,,,,
null,,learn_phase(without_color),596419,,,black_plus_sign,,,,,null,US_Cities_List/hanover.png,US_Cities_List/racine.png,,,,,,,,,,,,,,,,,,
null,,black_cross(without_color),597363,,,blue,,,,,null,US_Cities_List/hanover.png,US_Cities_List/racine.png,,,,,,,,,,,,,,,,,,
null,,rt_plussign_withcolor,597865,,,blue,,,,,null,US_Cities_List/hanover.png,US_Cities_List/racine.png,,,,,,,,,,,,,,,,,,
1465.6000000014901,,rt_thecrossant_black,598923,,,black_plus_sign,,,,,49,,,1,1,,,,,,,,,,,,,,,,
null,,color_black,599024,,,black_plus_sign,,,,,null,,,,,,,,,,,,,,,,,,,,
null,,learn_phase(without_color),602029,,,black_plus_sign,,,,,null,US_Cities_List/newhope.png,US_Cities_List/huntsville.png,,,,,,,,,,,,,,,,,,
null,,black_cross(without_color),603082,,,blue,,,,,null,US_Cities_List/newhope.png,US_Cities_List/huntsville.png,,,,,,,,,,,,,,,,,,
null,,rt_plussign_withcolor,603585,,,blue,,,,,null,US_Cities_List/newhope.png,US_Cities_List/huntsville.png,,,,,,,,,,,,,,,,,,
null,,rt_thecrossant_black,604543,,,black_plus_sign,,,,,null,,,1,,,,,,,,,,,,,,,,,
null,,color_black,604645,,,black_plus_sign,,,,,null,,,,,,,,,,,,,,,,,,,,
null,,learn_phase(without_color),607651,,,black_plus_sign,,,,,null,US_Cities_List/racine.png,US_Cities_List/boulder.png,,,,,,,,,,,,,,,,,,
null,,black_cross(without_color),608196,,,blue,,,,,null,US_Cities_List/racine.png,US_Cities_List/boulder.png,,,,,,,,,,,,,,,,,,
471.3999999985099,,rt_plussign_withcolor,608699,,,blue,,,,,50,US_Cities_List/racine.png,US_Cities_List/boulder.png,,,,,,,,,,,,,,,,,,
null,,rt_thecrossant_black,610163,,,black_plus_sign,,,,,49,,,0.95,0,,,,,,,,,,,,,,,,
null,,warning_page,613165,,,warning,,,,,null,,,,,,,,,,,,,,,,,,,,
null,,color_black,613265,,,black_plus_sign,,,,,null,,,,,,,,,,,,,,,,,,,,
null,,learn_phase(without_color),616270,,,black_plus_sign,,,,,null,US_Cities_List/huntsville.png,US_Cities_List/peoria.png,,,,,,,,,,,,,,,,,,
null,,black_cross(without_color),617353,,,blue,,,,,null,US_Cities_List/huntsville.png,US_Cities_List/peoria.png,,,,,,,,,,,,,,,,,,
null,,rt_plussign_withcolor,617854,,,blue,,,,,null,US_Cities_List/huntsville.png,US_Cities_List/peoria.png,,,,,,,,,,,,,,,,,,
671.6999999992549,,rt_thecrossant_black,618786,,,black_plus_sign,,,,,49,,,0.9523809523809523,1,,,,,,,,,,,,,,,,
null,,color_black,618888,,,black_plus_sign,,,,,null,,,,,,,,,,,,,,,,,,,,
null,,learn_phase(without_color),621895,,,black_plus_sign,,,,,null,US_Cities_List/shreveport.png,US_Cities_List/carmel.png,,,,,,,,,,,,,,,,,,
null,,black_cross(without_color),622324,,,blue,,,,,null,US_Cities_List/shreveport.png,US_Cities_List/carmel.png,,,,,,,,,,,,,,,,,,
null,,rt_plussign_withcolor,622825,,,blue,,,,,null,US_Cities_List/shreveport.png,US_Cities_List/carmel.png,,,,,,,,,,,,,,,,,,
1230.699999999255,,rt_thecrossant_black,624400,,,black_plus_sign,,,,,49,,,0.9545454545454546,1,,,,,,,,,,,,,,,,
null,,color_black,624502,,,black_plus_sign,,,,,null,,,,,,,,,,,,,,,,,,,,
null,,learn_phase(without_color),627507,,,black_plus_sign,,,,,null,US_Cities_List/newhope.png,US_Cities_List/shreveport.png,,,,,,,,,,,,,,,,,,
null,,black_cross(without_color),628229,,,yellow,,,,,null,US_Cities_List/newhope.png,US_Cities_List/shreveport.png,,,,,,,,,,,,,,,,,,
null,,rt_plussign_withcolor,628731,,,yellow,,,,,null,US_Cities_List/newhope.png,US_Cities_List/shreveport.png,,,,,,,,,,,,,,,,,,
552.3000000007451,,rt_thecrossant_black,630013,,,black_plus_sign,,,,,50,,,0.9565217391304348,1,,,,,,,,,,,,,,,,
null,,color_black,630115,,,black_plus_sign,,,,,null,,,,,,,,,,,,,,,,,,,,
null,,learn_phase(without_color),633120,,,black_plus_sign,,,,,null,US_Cities_List/peoria.png,US_Cities_List/huntsville.png,,,,,,,,,,,,,,,,,,
null,,black_cross(without_color),634104,,,blue,,,,,null,US_Cities_List/peoria.png,US_Cities_List/huntsville.png,,,,,,,,,,,,,,,,,,
null,,rt_plussign_withcolor,634606,,,blue,,,,,null,US_Cities_List/peoria.png,US_Cities_List/huntsville.png,,,,,,,,,,,,,,,,,,
928.6999999992549,,rt_thecrossant_black,635625,,,black_plus_sign,,,,,49,,,0.9583333333333334,1,,,,,,,,,,,,,,,,
null,,color_black,635727,,,black_plus_sign,,,,,null,,,,,,,,,,,,,,,,,,,,
null,,learn_phase(without_color),638733,,,black_plus_sign,,,,,null,US_Cities_List/huntsville.png,US_Cities_List/racine.png,,,,,,,,,,,,,,,,,,
null,,black_cross(without_color),639564,,,yellow,,,,,null,US_Cities_List/huntsville.png,US_Cities_List/racine.png,,,,,,,,,,,,,,,,,,
495.6000000014901,,rt_plussign_withcolor,640066,,,yellow,,,,,50,US_Cities_List/huntsville.png,US_Cities_List/racine.png,,,,,,,,,,,,,,,,,,
null,,rt_thecrossant_black,641251,,,black_plus_sign,,,,,null,,,0.96,1,,,,,,,,,,,,,,,,
null,,color_black,641353,,,black_plus_sign,,,,,null,,,,,,,,,,,,,,,,,,,,
null,,learn_phase(without_color),644358,,,black_plus_sign,,,,,null,US_Cities_List/hanover.png,US_Cities_List/hotsprings.png,,,,,,,,,,,,,,,,,,
null,,black_cross(without_color),644866,,,yellow,,,,,null,US_Cities_List/hanover.png,US_Cities_List/hotsprings.png,,,,,,,,,,,,,,,,,,
500.80000000074506,,rt_plussign_withcolor,645368,,,yellow,,,,,50,US_Cities_List/hanover.png,US_Cities_List/hotsprings.png,,,,,,,,,,,,,,,,,,
null,,rt_thecrossant_black,646865,,,black_plus_sign,,,,,null,,,0.9615384615384616,1,,,,,,,,,,,,,,,,
null,,color_black,646967,,,black_plus_sign,,,,,null,,,,,,,,,,,,,,,,,,,,
null,,learn_phase(without_color),649973,,,black_plus_sign,,,,,null,US_Cities_List/shreveport.png,US_Cities_List/newhope.png,,,,,,,,,,,,,,,,,,
null,,black_cross(without_color),650515,,,blue,,,,,null,US_Cities_List/shreveport.png,US_Cities_List/newhope.png,,,,,,,,,,,,,,,,,,
440.80000000074506,,rt_plussign_withcolor,651017,,,blue,,,,,49,US_Cities_List/shreveport.png,US_Cities_List/newhope.png,,,,,,,,,,,,,,,,,,
null,,rt_thecrossant_black,652479,,,black_plus_sign,,,,,null,,,0.9629629629629629,1,,,,,,,,,,,,,,,,
null,,color_black,652581,,,black_plus_sign,,,,,null,,,,,,,,,,,,,,,,,,,,
null,,learn_phase(without_color),655586,,,black_plus_sign,,,,,null,US_Cities_List/gatlinburg.png,US_Cities_List/hanover.png,,,,,,,,,,,,,,,,,,
null,,black_cross(without_color),656296,,,yellow,,,,,null,US_Cities_List/gatlinburg.png,US_Cities_List/hanover.png,,,,,,,,,,,,,,,,,,
395.20000000298023,,rt_plussign_withcolor,656798,,,yellow,,,,,50,US_Cities_List/gatlinburg.png,US_Cities_List/hanover.png,,,,,,,,,,,,,,,,,,
null,,rt_thecrossant_black,658090,,,black_plus_sign,,,,,null,,,0.9642857142857143,1,,,,,,,,,,,,,,,,
null,,color_black,658192,,,black_plus_sign,,,,,null,,,,,,,,,,,,,,,,,,,,
null,,learn_phase(without_color),661200,,,black_plus_sign,,,,,null,US_Cities_List/peoria.png,US_Cities_List/boulder.png,,,,,,,,,,,,,,,,,,
null,,black_cross(without_color),662152,,,blue,,,,,null,US_Cities_List/peoria.png,US_Cities_List/boulder.png,,,,,,,,,,,,,,,,,,
491.80000000074506,,rt_plussign_withcolor,662653,,,blue,,,,,49,US_Cities_List/peoria.png,US_Cities_List/boulder.png,,,,,,,,,,,,,,,,,,
null,,rt_thecrossant_black,663705,,,black_plus_sign,,,,,null,,,0.9655172413793104,1,,,,,,,,,,,,,,,,
null,,color_black,663807,,,black_plus_sign,,,,,null,,,,,,,,,,,,,,,,,,,,
null,,learn_phase(without_color),666813,,,black_plus_sign,,,,,null,US_Cities_List/hanover.png,US_Cities_List/boulder.png,,,,,,,,,,,,,,,,,,
null,,black_cross(without_color),667642,,,blue,,,,,null,US_Cities_List/hanover.png,US_Cities_List/boulder.png,,,,,,,,,,,,,,,,,,
null,,rt_plussign_withcolor,668143,,,blue,,,,,null,US_Cities_List/hanover.png,US_Cities_List/boulder.png,,,,,,,,,,,,,,,,,,
1262.199999999255,,rt_thecrossant_black,669318,,,black_plus_sign,,,,,49,,,0.9666666666666667,1,,,,,,,,,,,,,,,,
null,,color_black,669420,,,black_plus_sign,,,,,null,,,,,,,,,,,,,,,,,,,,
null,,learn_phase(without_color),672428,,,black_plus_sign,,,,,null,US_Cities_List/huntsville.png,US_Cities_List/newhope.png,,,,,,,,,,,,,,,,,,
null,,black_cross(without_color),673240,,,blue,,,,,null,US_Cities_List/huntsville.png,US_Cities_List/newhope.png,,,,,,,,,,,,,,,,,,
null,,rt_plussign_withcolor,673741,,,blue,,,,,null,US_Cities_List/huntsville.png,US_Cities_List/newhope.png,,,,,,,,,,,,,,,,,,
1581.0999999977648,,rt_thecrossant_black,674933,,,black_plus_sign,,,,,49,,,0.967741935483871,1,,,,,,,,,,,,,,,,
null,,color_black,675034,,,black_plus_sign,,,,,null,,,,,,,,,,,,,,,,,,,,
null,,learn_phase(without_color),678041,,,black_plus_sign,,,,,null,US_Cities_List/hotsprings.png,US_Cities_List/racine.png,,,,,,,,,,,,,,,,,,
null,,black_cross(without_color),679001,,,blue,,,,,null,US_Cities_List/hotsprings.png,US_Cities_List/racine.png,,,,,,,,,,,,,,,,,,
490.69999999925494,,rt_plussign_withcolor,679504,,,blue,,,,,49,US_Cities_List/hotsprings.png,US_Cities_List/racine.png,,,,,,,,,,,,,,,,,,
null,,rt_thecrossant_black,680547,,,black_plus_sign,,,,,null,,,0.96875,1,,,,,,,,,,,,,,,,
null,,color_black,680648,,,black_plus_sign,,,,,null,,,,,,,,,,,,,,,,,,,,
null,,learn_phase(without_color),683653,,,black_plus_sign,,,,,null,US_Cities_List/hotsprings.png,US_Cities_List/racine.png,,,,,,,,,,,,,,,,,,
null,,black_cross(without_color),684324,,,yellow,,,,,null,US_Cities_List/hotsprings.png,US_Cities_List/racine.png,,,,,,,,,,,,,,,,,,
391.1000000014901,,rt_plussign_withcolor,684826,,,yellow,,,,,50,US_Cities_List/hotsprings.png,US_Cities_List/racine.png,,,,,,,,,,,,,,,,,,
null,,rt_thecrossant_black,686159,,,black_plus_sign,,,,,null,,,0.9696969696969697,1,,,,,,,,,,,,,,,,
null,,color_black,686260,,,black_plus_sign,,,,,null,,,,,,,,,,,,,,,,,,,,
null,,learn_phase(without_color),689266,,,black_plus_sign,,,,,null,US_Cities_List/hanover.png,US_Cities_List/boulder.png,,,,,,,,,,,,,,,,,,
null,,black_cross(without_color),689959,,,blue,,,,,null,US_Cities_List/hanover.png,US_Cities_List/boulder.png,,,,,,,,,,,,,,,,,,
null,,rt_plussign_withcolor,690470,,,blue,,,,,null,US_Cities_List/hanover.png,US_Cities_List/boulder.png,,,,,,,,,,,,,,,,,,
870.6000000014901,,rt_thecrossant_black,691781,,,black_plus_sign,,,,,49,,,0.9705882352941176,1,,,,,,,,,,,,,,,,
null,,color_black,691883,,,black_plus_sign,,,,,null,,,,,,,,,,,,,,,,,,,,
null,,learn_phase(without_color),694891,,,black_plus_sign,,,,,null,US_Cities_List/leesburg.png,US_Cities_List/cornwall.png,,,,,,,,,,,,,,,,,,
null,,black_cross(without_color),695621,,,blue,,,,,null,US_Cities_List/leesburg.png,US_Cities_List/cornwall.png,,,,,,,,,,,,,,,,,,
null,,rt_plussign_withcolor,696121,,,blue,,,,,null,US_Cities_List/leesburg.png,US_Cities_List/cornwall.png,,,,,,,,,,,,,,,,,,
978.7999999970198,,rt_thecrossant_black,697395,,,black_plus_sign,,,,,49,,,0.9714285714285714,1,,,,,,,,,,,,,,,,
null,,color_black,697497,,,black_plus_sign,,,,,null,,,,,,,,,,,,,,,,,,,,
null,,learn_phase(without_color),700507,,,black_plus_sign,,,,,null,US_Cities_List/peoria.png,US_Cities_List/cornwall.png,,,,,,,,,,,,,,,,,,
null,,black_cross(without_color),701201,,,blue,,,,,null,US_Cities_List/peoria.png,US_Cities_List/cornwall.png,,,,,,,,,,,,,,,,,,
null,,rt_plussign_withcolor,701711,,,blue,,,,,null,US_Cities_List/peoria.png,US_Cities_List/cornwall.png,,,,,,,,,,,,,,,,,,
1712.8999999985099,,rt_thecrossant_black,703020,,,black_plus_sign,,,,,49,,,0.9722222222222222,1,,,,,,,,,,,,,,,,
null,,color_black,703121,,,black_plus_sign,,,,,null,,,,,,,,,,,,,,,,,,,,
null,,learn_phase(without_color),706130,,,black_plus_sign,,,,,null,US_Cities_List/peoria.png,US_Cities_List/cornwall.png,,,,,,,,,,,,,,,,,,
null,,black_cross(without_color),707188,,,yellow,,,,,null,US_Cities_List/peoria.png,US_Cities_List/cornwall.png,,,,,,,,,,,,,,,,,,
399.80000000074506,,rt_plussign_withcolor,707689,,,yellow,,,,,50,US_Cities_List/peoria.png,US_Cities_List/cornwall.png,,,,,,,,,,,,,,,,,,
null,,rt_thecrossant_black,708636,,,black_plus_sign,,,,,null,,,0.972972972972973,1,,,,,,,,,,,,,,,,
null,,color_black,708738,,,black_plus_sign,,,,,null,,,,,,,,,,,,,,,,,,,,
null,,learn_phase(without_color),711745,,,black_plus_sign,,,,,null,US_Cities_List/hanover.png,US_Cities_List/hotsprings.png,,,,,,,,,,,,,,,,,,
null,,black_cross(without_color),712706,,,blue,,,,,null,US_Cities_List/hanover.png,US_Cities_List/hotsprings.png,,,,,,,,,,,,,,,,,,
458.5,,rt_plussign_withcolor,713211,,,blue,,,,,49,US_Cities_List/hanover.png,US_Cities_List/hotsprings.png,,,,,,,,,,,,,,,,,,
null,,rt_thecrossant_black,714254,,,black_plus_sign,,,,,null,,,0.9736842105263158,1,,,,,,,,,,,,,,,,
null,,color_black,714356,,,black_plus_sign,,,,,null,,,,,,,,,,,,,,,,,,,,
null,,learn_phase(without_color),717365,,,black_plus_sign,,,,,null,US_Cities_List/shreveport.png,US_Cities_List/cornwall.png,,,,,,,,,,,,,,,,,,
null,,black_cross(without_color),718437,,,blue,,,,,null,US_Cities_List/shreveport.png,US_Cities_List/cornwall.png,,,,,,,,,,,,,,,,,,
null,,rt_plussign_withcolor,718939,,,blue,,,,,null,US_Cities_List/shreveport.png,US_Cities_List/cornwall.png,,,,,,,,,,,,,,,,,,
1100,,rt_thecrossant_black,719870,,,black_plus_sign,,,,,49,,,0.9743589743589743,1,,,,,,,,,,,,,,,,
null,,color_black,719971,,,black_plus_sign,,,,,null,,,,,,,,,,,,,,,,,,,,
null,,learn_phase(without_color),722986,,,black_plus_sign,,,,,null,US_Cities_List/peoria.png,US_Cities_List/cornwall.png,,,,,,,,,,,,,,,,,,
null,,black_cross(without_color),723702,,,blue,,,,,null,US_Cities_List/peoria.png,US_Cities_List/cornwall.png,,,,,,,,,,,,,,,,,,
null,,rt_plussign_withcolor,724204,,,blue,,,,,null,US_Cities_List/peoria.png,US_Cities_List/cornwall.png,,,,,,,,,,,,,,,,,,
1635.7999999970198,,rt_thecrossant_black,725491,,,black_plus_sign,,,,,49,,,0.975,1,,,,,,,,,,,,,,,,
null,,color_black,725605,,,black_plus_sign,,,,,null,,,,,,,,,,,,,,,,,,,,
null,,learn_phase(without_color),728617,,,black_plus_sign,,,,,null,US_Cities_List/cornwall.png,US_Cities_List/shreveport.png,,,,,,,,,,,,,,,,,,
null,,black_cross(without_color),729678,,,blue,,,,,null,US_Cities_List/cornwall.png,US_Cities_List/shreveport.png,,,,,,,,,,,,,,,,,,
470.19999999925494,,rt_plussign_withcolor,730179,,,blue,,,,,49,US_Cities_List/cornwall.png,US_Cities_List/shreveport.png,,,,,,,,,,,,,,,,,,
null,,rt_thecrossant_black,731124,,,black_plus_sign,,,,,null,,,0.975609756097561,1,,,,,,,,,,,,,,,,
null,,color_black,731227,,,black_plus_sign,,,,,null,,,,,,,,,,,,,,,,,,,,
null,,learn_phase(without_color),734233,,,black_plus_sign,,,,,null,US_Cities_List/racine.png,US_Cities_List/huntsville.png,,,,,,,,,,,,,,,,,,
null,,black_cross(without_color),734700,,,blue,,,,,null,US_Cities_List/racine.png,US_Cities_List/huntsville.png,,,,,,,,,,,,,,,,,,
null,,rt_plussign_withcolor,735203,,,blue,,,,,null,US_Cities_List/racine.png,US_Cities_List/huntsville.png,,,,,,,,,,,,,,,,,,
1791.199999999255,,rt_thecrossant_black,736740,,,black_plus_sign,,,,,49,,,0.9761904761904762,1,,,,,,,,,,,,,,,,
null,,color_black,736842,,,black_plus_sign,,,,,null,,,,,,,,,,,,,,,,,,,,
null,,learn_phase(without_color),739850,,,black_plus_sign,,,,,null,US_Cities_List/boulder.png,US_Cities_List/peoria.png,,,,,,,,,,,,,,,,,,
null,,black_cross(without_color),740317,,,yellow,,,,,null,US_Cities_List/boulder.png,US_Cities_List/peoria.png,,,,,,,,,,,,,,,,,,
null,,rt_plussign_withcolor,740819,,,yellow,,,,,null,US_Cities_List/boulder.png,US_Cities_List/peoria.png,,,,,,,,,,,,,,,,,,
572.3999999985099,,rt_thecrossant_black,742355,,,black_plus_sign,,,,,50,,,0.9767441860465116,1,,,,,,,,,,,,,,,,
null,,color_black,742457,,,black_plus_sign,,,,,null,,,,,,,,,,,,,,,,,,,,
null,,learn_phase(without_color),745465,,,black_plus_sign,,,,,null,US_Cities_List/peoria.png,US_Cities_List/cornwall.png,,,,,,,,,,,,,,,,,,
null,,black_cross(without_color),746387,,,yellow,,,,,null,US_Cities_List/peoria.png,US_Cities_List/cornwall.png,,,,,,,,,,,,,,,,,,
400.9000000022352,,rt_plussign_withcolor,746889,,,yellow,,,,,50,US_Cities_List/peoria.png,US_Cities_List/cornwall.png,,,,,,,,,,,,,,,,,,
null,,rt_thecrossant_black,747970,,,black_plus_sign,,,,,null,,,0.9772727272727273,1,,,,,,,,,,,,,,,,
null,,color_black,748073,,,black_plus_sign,,,,,null,,,,,,,,,,,,,,,,,,,,
null,,learn_phase(without_color),751082,,,black_plus_sign,,,,,null,US_Cities_List/hotsprings.png,US_Cities_List/westpalmbeach.png,,,,,,,,,,,,,,,,,,
null,,black_cross(without_color),751510,,,yellow,,,,,null,US_Cities_List/hotsprings.png,US_Cities_List/westpalmbeach.png,,,,,,,,,,,,,,,,,,
null,,rt_plussign_withcolor,752011,,,yellow,,,,,null,US_Cities_List/hotsprings.png,US_Cities_List/westpalmbeach.png,,,,,,,,,,,,,,,,,,
1428.9000000022352,,rt_thecrossant_black,753589,,,black_plus_sign,,,,,50,,,0.9777777777777777,1,,,,,,,,,,,,,,,,
null,,color_black,753691,,,black_plus_sign,,,,,null,,,,,,,,,,,,,,,,,,,,
null,,learn_phase(without_color),756696,,,black_plus_sign,,,,,null,US_Cities_List/carmel.png,US_Cities_List/shreveport.png,,,,,,,,,,,,,,,,,,
null,,black_cross(without_color),757291,,,blue,,,,,null,US_Cities_List/carmel.png,US_Cities_List/shreveport.png,,,,,,,,,,,,,,,,,,
472.5,,rt_plussign_withcolor,757792,,,blue,,,,,49,US_Cities_List/carmel.png,US_Cities_List/shreveport.png,,,,,,,,,,,,,,,,,,
null,,rt_thecrossant_black,759202,,,black_plus_sign,,,,,null,,,0.9782608695652174,1,,,,,,,,,,,,,,,,
null,,color_black,759303,,,black_plus_sign,,,,,null,,,,,,,,,,,,,,,,,,,,
null,,learn_phase(without_color),762311,,,black_plus_sign,,,,,null,US_Cities_List/boulder.png,US_Cities_List/racine.png,,,,,,,,,,,,,,,,,,
null,,black_cross(without_color),763241,,,yellow,,,,,null,US_Cities_List/boulder.png,US_Cities_List/racine.png,,,,,,,,,,,,,,,,,,
null,,rt_plussign_withcolor,763743,,,yellow,,,,,null,US_Cities_List/boulder.png,US_Cities_List/racine.png,,,,,,,,,,,,,,,,,,
809.9000000022352,,rt_thecrossant_black,764818,,,black_plus_sign,,,,,50,,,0.9787234042553191,1,,,,,,,,,,,,,,,,
null,,color_black,764919,,,black_plus_sign,,,,,null,,,,,,,,,,,,,,,,,,,,
null,,learn_phase(without_color),767926,,,black_plus_sign,,,,,null,US_Cities_List/cornwall.png,US_Cities_List/shreveport.png,,,,,,,,,,,,,,,,,,
null,,black_cross(without_color),768336,,,yellow,,,,,null,US_Cities_List/cornwall.png,US_Cities_List/shreveport.png,,,,,,,,,,,,,,,,,,
null,,rt_plussign_withcolor,768837,,,yellow,,,,,null,US_Cities_List/cornwall.png,US_Cities_List/shreveport.png,,,,,,,,,,,,,,,,,,
1178.0999999977648,,rt_thecrossant_black,770430,,,black_plus_sign,,,,,50,,,0.9791666666666666,1,,,,,,,,,,,,,,,,
null,,color_black,770531,,,black_plus_sign,,,,,null,,,,,,,,,,,,,,,,,,,,
null,,learn_phase(without_color),773538,,,black_plus_sign,,,,,null,US_Cities_List/boulder.png,US_Cities_List/racine.png,,,,,,,,,,,,,,,,,,
null,,black_cross(without_color),774259,,,blue,,,,,null,US_Cities_List/boulder.png,US_Cities_List/racine.png,,,,,,,,,,,,,,,,,,
null,,rt_plussign_withcolor,774760,,,blue,,,,,null,US_Cities_List/boulder.png,US_Cities_List/racine.png,,,,,,,,,,,,,,,,,,
512.5999999977648,,rt_thecrossant_black,776042,,,black_plus_sign,,,,,50,,,0.9591836734693877,0,,,,,,,,,,,,,,,,
null,,color_black,776145,,,black_plus_sign,,,,,null,,,,,,,,,,,,,,,,,,,,
null,,learn_phase(without_color),779157,,,black_plus_sign,,,,,null,US_Cities_List/shreveport.png,US_Cities_List/carmel.png,,,,,,,,,,,,,,,,,,
null,,black_cross(without_color),779697,,,blue,,,,,null,US_Cities_List/shreveport.png,US_Cities_List/carmel.png,,,,,,,,,,,,,,,,,,
null,,rt_plussign_withcolor,780198,,,blue,,,,,null,US_Cities_List/shreveport.png,US_Cities_List/carmel.png,,,,,,,,,,,,,,,,,,
888.1999999992549,,rt_thecrossant_black,781664,,,black_plus_sign,,,,,49,,,0.96,1,,,,,,,,,,,,,,,,
null,,color_black,781780,,,black_plus_sign,,,,,null,,,,,,,,,,,,,,,,,,,,
null,,learn_phase(without_color),784787,,,black_plus_sign,,,,,null,US_Cities_List/shreveport.png,US_Cities_List/cornwall.png,,,,,,,,,,,,,,,,,,
null,,black_cross(without_color),785232,,,yellow,,,,,null,US_Cities_List/shreveport.png,US_Cities_List/cornwall.png,,,,,,,,,,,,,,,,,,
451.5999999977648,,rt_plussign_withcolor,785734,,,yellow,,,,,50,US_Cities_List/shreveport.png,US_Cities_List/cornwall.png,,,,,,,,,,,,,,,,,,
null,,rt_thecrossant_black,787293,,,black_plus_sign,,,,,null,,,0.9607843137254902,1,,,,,,,,,,,,,,,,
null,,color_black,787396,,,black_plus_sign,,,,,null,,,,,,,,,,,,,,,,,,,,
null,,learn_phase(without_color),790402,,,black_plus_sign,,,,,null,US_Cities_List/hanover.png,US_Cities_List/boulder.png,,,,,,,,,,,,,,,,,,
null,,black_cross(without_color),791050,,,blue,,,,,null,US_Cities_List/hanover.png,US_Cities_List/boulder.png,,,,,,,,,,,,,,,,,,
null,,rt_plussign_withcolor,791565,,,blue,,,,,null,US_Cities_List/hanover.png,US_Cities_List/boulder.png,,,,,,,,,,,,,,,,,,
567.0999999977648,,rt_thecrossant_black,792920,,,black_plus_sign,,,,,49,,,0.9615384615384616,1,,,,,,,,,,,,,,,,
null,,color_black,793022,,,black_plus_sign,,,,,null,,,,,,,,,,,,,,,,,,,,
null,,learn_phase(without_color),796029,,,black_plus_sign,,,,,null,US_Cities_List/shreveport.png,US_Cities_List/newhope.png,,,,,,,,,,,,,,,,,,
null,,black_cross(without_color),796918,,,yellow,,,,,null,US_Cities_List/shreveport.png,US_Cities_List/newhope.png,,,,,,,,,,,,,,,,,,
383.30000000074506,,rt_plussign_withcolor,797419,,,yellow,,,,,50,US_Cities_List/shreveport.png,US_Cities_List/newhope.png,,,,,,,,,,,,,,,,,,
null,,rt_thecrossant_black,798533,,,black_plus_sign,,,,,null,,,0.9622641509433962,1,,,,,,,,,,,,,,,,
null,,color_black,798635,,,black_plus_sign,,,,,null,,,,,,,,,,,,,,,,,,,,
null,,learn_phase(without_color),801640,,,black_plus_sign,,,,,null,US_Cities_List/peoria.png,US_Cities_List/huntsville.png,,,,,,,,,,,,,,,,,,
null,,black_cross(without_color),802303,,,blue,,,,,null,US_Cities_List/peoria.png,US_Cities_List/huntsville.png,,,,,,,,,,,,,,,,,,
null,,rt_plussign_withcolor,802805,,,blue,,,,,null,US_Cities_List/peoria.png,US_Cities_List/huntsville.png,,,,,,,,,,,,,,,,,,
1211.199999999255,,rt_thecrossant_black,804145,,,black_plus_sign,,,,,49,,,0.9629629629629629,1,,,,,,,,,,,,,,,,
null,,color_black,804247,,,black_plus_sign,,,,,null,,,,,,,,,,,,,,,,,,,,
null,,learn_phase(without_color),807253,,,black_plus_sign,,,,,null,US_Cities_List/huntsville.png,US_Cities_List/newhope.png,,,,,,,,,,,,,,,,,,
null,,black_cross(without_color),807687,,,blue,,,,,null,US_Cities_List/huntsville.png,US_Cities_List/newhope.png,,,,,,,,,,,,,,,,,,
null,,rt_plussign_withcolor,808188,,,blue,,,,,null,US_Cities_List/huntsville.png,US_Cities_List/newhope.png,,,,,,,,,,,,,,,,,,
977.6999999992549,,rt_thecrossant_black,809757,,,black_plus_sign,,,,,49,,,0.9636363636363636,1,,,,,,,,,,,,,,,,
null,,color_black,809859,,,black_plus_sign,,,,,null,,,,,,,,,,,,,,,,,,,,
null,,learn_phase(without_color),812866,,,black_plus_sign,,,,,null,US_Cities_List/leesburg.png,US_Cities_List/cornwall.png,,,,,,,,,,,,,,,,,,
null,,black_cross(without_color),813618,,,blue,,,,,null,US_Cities_List/leesburg.png,US_Cities_List/cornwall.png,,,,,,,,,,,,,,,,,,
null,,rt_plussign_withcolor,814120,,,blue,,,,,null,US_Cities_List/leesburg.png,US_Cities_List/cornwall.png,,,,,,,,,,,,,,,,,,
772.3000000007451,,rt_thecrossant_black,815370,,,black_plus_sign,,,,,49,,,0.9642857142857143,1,,,,,,,,,,,,,,,,
null,,color_black,815472,,,black_plus_sign,,,,,null,,,,,,,,,,,,,,,,,,,,
null,,learn_phase(without_color),818478,,,black_plus_sign,,,,,null,US_Cities_List/racine.png,US_Cities_List/hanover.png,,,,,,,,,,,,,,,,,,
null,,black_cross(without_color),819566,,,yellow,,,,,null,US_Cities_List/racine.png,US_Cities_List/hanover.png,,,,,,,,,,,,,,,,,,
333.9000000022352,,rt_plussign_withcolor,820067,,,yellow,,,,,50,US_Cities_List/racine.png,US_Cities_List/hanover.png,,,,,,,,,,,,,,,,,,
null,,rt_thecrossant_black,820983,,,black_plus_sign,,,,,null,,,0.9649122807017544,1,,,,,,,,,,,,,,,,
null,,color_black,821085,,,black_plus_sign,,,,,null,,,,,,,,,,,,,,,,,,,,
null,,learn_phase(without_color),824095,,,black_plus_sign,,,,,null,US_Cities_List/cornwall.png,US_Cities_List/shreveport.png,,,,,,,,,,,,,,,,,,
null,,black_cross(without_color),825010,,,yellow,,,,,null,US_Cities_List/cornwall.png,US_Cities_List/shreveport.png,,,,,,,,,,,,,,,,,,
null,,rt_plussign_withcolor,825511,,,yellow,,,,,null,US_Cities_List/cornwall.png,US_Cities_List/shreveport.png,,,,,,,,,,,,,,,,,,
1296.1000000014901,,rt_thecrossant_black,826600,,,black_plus_sign,,,,,50,,,0.9655172413793104,1,,,,,,,,,,,,,,,,
null,,color_black,826701,,,black_plus_sign,,,,,null,,,,,,,,,,,,,,,,,,,,
null,,learn_phase(without_color),829707,,,black_plus_sign,,,,,null,US_Cities_List/westpalmbeach.png,US_Cities_List/hotsprings.png,,,,,,,,,,,,,,,,,,
null,,black_cross(without_color),830232,,,yellow,,,,,null,US_Cities_List/westpalmbeach.png,US_Cities_List/hotsprings.png,,,,,,,,,,,,,,,,,,
null,,rt_plussign_withcolor,830734,,,yellow,,,,,null,US_Cities_List/westpalmbeach.png,US_Cities_List/hotsprings.png,,,,,,,,,,,,,,,,,,
1042.5999999977648,,rt_thecrossant_black,832212,,,black_plus_sign,,,,,50,,,0.9661016949152542,1,,,,,,,,,,,,,,,,
null,,color_black,832314,,,black_plus_sign,,,,,null,,,,,,,,,,,,,,,,,,,,
null,,learn_phase(without_color),835321,,,black_plus_sign,,,,,null,US_Cities_List/westpalmbeach.png,US_Cities_List/hotsprings.png,,,,,,,,,,,,,,,,,,
null,,black_cross(without_color),836323,,,blue,,,,,null,US_Cities_List/westpalmbeach.png,US_Cities_List/hotsprings.png,,,,,,,,,,,,,,,,,,
null,,rt_plussign_withcolor,836824,,,blue,,,,,null,US_Cities_List/westpalmbeach.png,US_Cities_List/hotsprings.png,,,,,,,,,,,,,,,,,,
690.5,,rt_thecrossant_black,837847,,,black_plus_sign,,,,,49,,,0.9666666666666667,1,,,,,,,,,,,,,,,,
null,,color_black,837948,,,black_plus_sign,,,,,null,,,,,,,,,,,,,,,,,,,,
null,,learn_phase(without_color),840954,,,black_plus_sign,,,,,null,US_Cities_List/newhope.png,US_Cities_List/shreveport.png,,,,,,,,,,,,,,,,,,
null,,black_cross(without_color),841358,,,blue,,,,,null,US_Cities_List/newhope.png,US_Cities_List/shreveport.png,,,,,,,,,,,,,,,,,,
null,,rt_plussign_withcolor,841859,,,blue,,,,,null,US_Cities_List/newhope.png,US_Cities_List/shreveport.png,,,,,,,,,,,,,,,,,,
1130.8999999985099,,rt_thecrossant_black,843457,,,black_plus_sign,,,,,49,,,0.9672131147540983,1,,,,,,,,,,,,,,,,
null,,color_black,843559,,,black_plus_sign,,,,,null,,,,,,,,,,,,,,,,,,,,
null,,learn_phase(without_color),846567,,,black_plus_sign,,,,,null,US_Cities_List/shreveport.png,US_Cities_List/cornwall.png,,,,,,,,,,,,,,,,,,
null,,black_cross(without_color),847251,,,blue,,,,,null,US_Cities_List/shreveport.png,US_Cities_List/cornwall.png,,,,,,,,,,,,,,,,,,
null,,rt_plussign_withcolor,847753,,,blue,,,,,null,US_Cities_List/shreveport.png,US_Cities_List/cornwall.png,,,,,,,,,,,,,,,,,,
553,,rt_thecrossant_black,849073,,,black_plus_sign,,,,,49,,,0.967741935483871,1,,,,,,,,,,,,,,,,
null,,color_black,849176,,,black_plus_sign,,,,,null,,,,,,,,,,,,,,,,,,,,
48931.400000002235,,learn_break,898109,,,learn_break,,,,,32,,,,,,,,,,,,,,,,,,,,
null,,html-keyboard-response,899109,,,<p></p>,,,,,null,,,,,,,,,,,,,,,,,,,,
null,,learn_phase(without_color),902114,,,black_plus_sign,,,,,null,US_Cities_List/huntsville.png,US_Cities_List/racine.png,,,,,,,,,,,,,,,,,,
null,,black_cross(without_color),902743,,,blue,,,,,null,US_Cities_List/huntsville.png,US_Cities_List/racine.png,,,,,,,,,,,,,,,,,,
null,,rt_plussign_withcolor,903253,,,blue,,,,,null,US_Cities_List/huntsville.png,US_Cities_List/racine.png,,,,,,,,,,,,,,,,,,
796.3999999985099,,rt_thecrossant_black,904629,,,black_plus_sign,,,,,49,,,0.9682539682539683,1,,,,,,,,,,,,,,,,
null,,color_black,904730,,,black_plus_sign,,,,,null,,,,,,,,,,,,,,,,,,,,
null,,learn_phase(without_color),907735,,,black_plus_sign,,,,,null,US_Cities_List/huntsville.png,US_Cities_List/racine.png,,,,,,,,,,,,,,,,,,
null,,black_cross(without_color),908271,,,yellow,,,,,null,US_Cities_List/huntsville.png,US_Cities_List/racine.png,,,,,,,,,,,,,,,,,,
404.69999999925494,,rt_plussign_withcolor,908773,,,yellow,,,,,50,US_Cities_List/huntsville.png,US_Cities_List/racine.png,,,,,,,,,,,,,,,,,,
null,,rt_thecrossant_black,910241,,,black_plus_sign,,,,,null,,,0.96875,1,,,,,,,,,,,,,,,,
null,,color_black,910342,,,black_plus_sign,,,,,null,,,,,,,,,,,,,,,,,,,,
null,,learn_phase(without_color),913348,,,black_plus_sign,,,,,null,US_Cities_List/huntsville.png,US_Cities_List/peoria.png,,,,,,,,,,,,,,,,,,
null,,black_cross(without_color),914076,,,blue,,,,,null,US_Cities_List/huntsville.png,US_Cities_List/peoria.png,,,,,,,,,,,,,,,,,,
null,,rt_plussign_withcolor,914591,,,blue,,,,,null,US_Cities_List/huntsville.png,US_Cities_List/peoria.png,,,,,,,,,,,,,,,,,,
815.1999999992549,,rt_thecrossant_black,915868,,,black_plus_sign,,,,,49,,,0.9692307692307692,1,,,,,,,,,,,,,,,,
null,,color_black,915969,,,black_plus_sign,,,,,null,,,,,,,,,,,,,,,,,,,,
null,,learn_phase(without_color),918978,,,black_plus_sign,,,,,null,US_Cities_List/hotsprings.png,US_Cities_List/hanover.png,,,,,,,,,,,,,,,,,,
null,,black_cross(without_color),919795,,,blue,,,,,null,US_Cities_List/hotsprings.png,US_Cities_List/hanover.png,,,,,,,,,,,,,,,,,,
null,,rt_plussign_withcolor,920297,,,blue,,,,,null,US_Cities_List/hotsprings.png,US_Cities_List/hanover.png,,,,,,,,,,,,,,,,,,
861.0999999977648,,rt_thecrossant_black,921482,,,black_plus_sign,,,,,49,,,0.9696969696969697,1,,,,,,,,,,,,,,,,
null,,color_black,921584,,,black_plus_sign,,,,,null,,,,,,,,,,,,,,,,,,,,
null,,learn_phase(without_color),924591,,,black_plus_sign,,,,,null,US_Cities_List/racine.png,US_Cities_List/huntsville.png,,,,,,,,,,,,,,,,,,
null,,black_cross(without_color),925552,,,blue,,,,,null,US_Cities_List/racine.png,US_Cities_List/huntsville.png,,,,,,,,,,,,,,,,,,
null,,rt_plussign_withcolor,926061,,,blue,,,,,null,US_Cities_List/racine.png,US_Cities_List/huntsville.png,,,,,,,,,,,,,,,,,,
949.1000000014901,,rt_thecrossant_black,927104,,,black_plus_sign,,,,,49,,,0.9701492537313433,1,,,,,,,,,,,,,,,,
null,,color_black,927207,,,black_plus_sign,,,,,null,,,,,,,,,,,,,,,,,,,,
null,,learn_phase(without_color),930214,,,black_plus_sign,,,,,null,US_Cities_List/racine.png,US_Cities_List/hotsprings.png,,,,,,,,,,,,,,,,,,
null,,black_cross(without_color),930934,,,blue,,,,,null,US_Cities_List/racine.png,US_Cities_List/hotsprings.png,,,,,,,,,,,,,,,,,,
486.6000000014901,,rt_plussign_withcolor,931436,,,blue,,,,,49,US_Cities_List/racine.png,US_Cities_List/hotsprings.png,,,,,,,,,,,,,,,,,,
null,,rt_thecrossant_black,932719,,,black_plus_sign,,,,,null,,,0.9705882352941176,1,,,,,,,,,,,,,,,,
null,,color_black,932821,,,black_plus_sign,,,,,null,,,,,,,,,,,,,,,,,,,,
null,,learn_phase(without_color),935827,,,black_plus_sign,,,,,null,US_Cities_List/leesburg.png,US_Cities_List/cornwall.png,,,,,,,,,,,,,,,,,,
null,,black_cross(without_color),936636,,,blue,,,,,null,US_Cities_List/leesburg.png,US_Cities_List/cornwall.png,,,,,,,,,,,,,,,,,,
495.9000000022352,,rt_plussign_withcolor,937138,,,blue,,,,,49,US_Cities_List/leesburg.png,US_Cities_List/cornwall.png,,,,,,,,,,,,,,,,,,
null,,rt_thecrossant_black,938332,,,black_plus_sign,,,,,null,,,0.9710144927536232,1,,,,,,,,,,,,,,,,
null,,color_black,938435,,,black_plus_sign,,,,,null,,,,,,,,,,,,,,,,,,,,
null,,learn_phase(without_color),941451,,,black_plus_sign,,,,,null,US_Cities_List/peoria.png,US_Cities_List/cornwall.png,,,,,,,,,,,,,,,,,,
null,,black_cross(without_color),941855,,,yellow,,,,,null,US_Cities_List/peoria.png,US_Cities_List/cornwall.png,,,,,,,,,,,,,,,,,,
null,,rt_plussign_withcolor,942357,,,yellow,,,,,null,US_Cities_List/peoria.png,US_Cities_List/cornwall.png,,,,,,,,,,,,,,,,,,
1009.8000000007451,,rt_thecrossant_black,943956,,,black_plus_sign,,,,,50,,,0.9714285714285714,1,,,,,,,,,,,,,,,,
null,,color_black,944058,,,black_plus_sign,,,,,null,,,,,,,,,,,,,,,,,,,,
null,,learn_phase(without_color),947064,,,black_plus_sign,,,,,null,US_Cities_List/huntsville.png,US_Cities_List/peoria.png,,,,,,,,,,,,,,,,,,
null,,black_cross(without_color),947833,,,blue,,,,,null,US_Cities_List/huntsville.png,US_Cities_List/peoria.png,,,,,,,,,,,,,,,,,,
null,,rt_plussign_withcolor,948335,,,blue,,,,,null,US_Cities_List/huntsville.png,US_Cities_List/peoria.png,,,,,,,,,,,,,,,,,,
529.8999999985099,,rt_thecrossant_black,949574,,,black_plus_sign,,,,,49,,,0.971830985915493,1,,,,,,,,,,,,,,,,
null,,color_black,949683,,,black_plus_sign,,,,,null,,,,,,,,,,,,,,,,,,,,
null,,learn_phase(without_color),952691,,,black_plus_sign,,,,,null,US_Cities_List/peoria.png,US_Cities_List/boulder.png,,,,,,,,,,,,,,,,,,
null,,black_cross(without_color),953639,,,yellow,,,,,null,US_Cities_List/peoria.png,US_Cities_List/boulder.png,,,,,,,,,,,,,,,,,,
null,,rt_plussign_withcolor,954141,,,yellow,,,,,null,US_Cities_List/peoria.png,US_Cities_List/boulder.png,,,,,,,,,,,,,,,,,,
931.2000000029802,,rt_thecrossant_black,955195,,,black_plus_sign,,,,,50,,,0.9722222222222222,1,,,,,,,,,,,,,,,,
null,,color_black,955297,,,black_plus_sign,,,,,null,,,,,,,,,,,,,,,,,,,,
null,,learn_phase(without_color),958305,,,black_plus_sign,,,,,null,US_Cities_List/leesburg.png,US_Cities_List/cornwall.png,,,,,,,,,,,,,,,,,,
null,,black_cross(without_color),958710,,,blue,,,,,null,US_Cities_List/leesburg.png,US_Cities_List/cornwall.png,,,,,,,,,,,,,,,,,,
494.1000000014901,,rt_plussign_withcolor,959212,,,blue,,,,,49,US_Cities_List/leesburg.png,US_Cities_List/cornwall.png,,,,,,,,,,,,,,,,,,
null,,rt_thecrossant_black,960812,,,black_plus_sign,,,,,null,,,0.9726027397260274,1,,,,,,,,,,,,,,,,
null,,color_black,960913,,,black_plus_sign,,,,,null,,,,,,,,,,,,,,,,,,,,
null,,learn_phase(without_color),963920,,,black_plus_sign,,,,,null,US_Cities_List/huntsville.png,US_Cities_List/peoria.png,,,,,,,,,,,,,,,,,,
null,,black_cross(without_color),964486,,,yellow,,,,,null,US_Cities_List/huntsville.png,US_Cities_List/peoria.png,,,,,,,,,,,,,,,,,,
438.6000000014901,,rt_plussign_withcolor,964987,,,yellow,,,,,50,US_Cities_List/huntsville.png,US_Cities_List/peoria.png,,,,,,,,,,,,,,,,,,
null,,rt_thecrossant_black,966435,,,black_plus_sign,,,,,null,,,0.972972972972973,1,,,,,,,,,,,,,,,,
null,,color_black,966537,,,black_plus_sign,,,,,null,,,,,,,,,,,,,,,,,,,,
null,,learn_phase(without_color),969543,,,black_plus_sign,,,,,null,US_Cities_List/hanover.png,US_Cities_List/gatlinburg.png,,,,,,,,,,,,,,,,,,
null,,black_cross(without_color),970547,,,yellow,,,,,null,US_Cities_List/hanover.png,US_Cities_List/gatlinburg.png,,,,,,,,,,,,,,,,,,
null,,rt_plussign_withcolor,971048,,,yellow,,,,,null,US_Cities_List/hanover.png,US_Cities_List/gatlinburg.png,,,,,,,,,,,,,,,,,,
739.3000000007451,,rt_thecrossant_black,972047,,,black_plus_sign,,,,,50,,,0.9733333333333334,1,,,,,,,,,,,,,,,,
null,,color_black,972150,,,black_plus_sign,,,,,null,,,,,,,,,,,,,,,,,,,,
null,,learn_phase(without_color),975156,,,black_plus_sign,,,,,null,US_Cities_List/hotsprings.png,US_Cities_List/westpalmbeach.png,,,,,,,,,,,,,,,,,,
null,,black_cross(without_color),976230,,,blue,,,,,null,US_Cities_List/hotsprings.png,US_Cities_List/westpalmbeach.png,,,,,,,,,,,,,,,,,,
null,,rt_plussign_withcolor,976732,,,blue,,,,,null,US_Cities_List/hotsprings.png,US_Cities_List/westpalmbeach.png,,,,,,,,,,,,,,,,,,
1166.8999999985099,,rt_thecrossant_black,977661,,,black_plus_sign,,,,,49,,,0.9736842105263158,1,,,,,,,,,,,,,,,,
null,,color_black,977762,,,black_plus_sign,,,,,null,,,,,,,,,,,,,,,,,,,,
null,,learn_phase(without_color),980769,,,black_plus_sign,,,,,null,US_Cities_List/hanover.png,US_Cities_List/hotsprings.png,,,,,,,,,,,,,,,,,,
null,,black_cross(without_color),981469,,,blue,,,,,null,US_Cities_List/hanover.png,US_Cities_List/hotsprings.png,,,,,,,,,,,,,,,,,,
null,,rt_plussign_withcolor,981972,,,blue,,,,,null,US_Cities_List/hanover.png,US_Cities_List/hotsprings.png,,,,,,,,,,,,,,,,,,
1277.1000000014901,,rt_thecrossant_black,983275,,,black_plus_sign,,,,,49,,,0.974025974025974,1,,,,,,,,,,,,,,,,
null,,color_black,983376,,,black_plus_sign,,,,,null,,,,,,,,,,,,,,,,,,,,
null,,learn_phase(without_color),986382,,,black_plus_sign,,,,,null,US_Cities_List/boulder.png,US_Cities_List/hanover.png,,,,,,,,,,,,,,,,,,
null,,black_cross(without_color),986853,,,blue,,,,,null,US_Cities_List/boulder.png,US_Cities_List/hanover.png,,,,,,,,,,,,,,,,,,
null,,rt_plussign_withcolor,987354,,,blue,,,,,null,US_Cities_List/boulder.png,US_Cities_List/hanover.png,,,,,,,,,,,,,,,,,,
951.3000000007451,,rt_thecrossant_black,988899,,,black_plus_sign,,,,,50,,,0.9615384615384616,0,,,,,,,,,,,,,,,,
null,,color_black,989002,,,black_plus_sign,,,,,null,,,,,,,,,,,,,,,,,,,,
null,,learn_phase(without_color),992011,,,black_plus_sign,,,,,null,US_Cities_List/leesburg.png,US_Cities_List/cornwall.png,,,,,,,,,,,,,,,,,,
null,,black_cross(without_color),992416,,,yellow,,,,,null,US_Cities_List/leesburg.png,US_Cities_List/cornwall.png,,,,,,,,,,,,,,,,,,
499.80000000074506,,rt_plussign_withcolor,992917,,,yellow,,,,,50,US_Cities_List/leesburg.png,US_Cities_List/cornwall.png,,,,,,,,,,,,,,,,,,
null,,rt_thecrossant_black,994517,,,black_plus_sign,,,,,null,,,0.9620253164556962,1,,,,,,,,,,,,,,,,
null,,color_black,994618,,,black_plus_sign,,,,,null,,,,,,,,,,,,,,,,,,,,
null,,learn_phase(without_color),997625,,,black_plus_sign,,,,,null,US_Cities_List/carmel.png,US_Cities_List/shreveport.png,,,,,,,,,,,,,,,,,,
null,,black_cross(without_color),998563,,,blue,,,,,null,US_Cities_List/carmel.png,US_Cities_List/shreveport.png,,,,,,,,,,,,,,,,,,
497.5,,rt_plussign_withcolor,999064,,,blue,,,,,49,US_Cities_List/carmel.png,US_Cities_List/shreveport.png,,,,,,,,,,,,,,,,,,
null,,rt_thecrossant_black,1000131,,,black_plus_sign,,,,,null,,,0.9625,1,,,,,,,,,,,,,,,,
null,,color_black,1000233,,,black_plus_sign,,,,,null,,,,,,,,,,,,,,,,,,,,
null,,learn_phase(without_color),1003244,,,black_plus_sign,,,,,null,US_Cities_List/hotsprings.png,US_Cities_List/racine.png,,,,,,,,,,,,,,,,,,
null,,black_cross(without_color),1003880,,,yellow,,,,,null,US_Cities_List/hotsprings.png,US_Cities_List/racine.png,,,,,,,,,,,,,,,,,,
405.79999999701977,,rt_plussign_withcolor,1004381,,,yellow,,,,,50,US_Cities_List/hotsprings.png,US_Cities_List/racine.png,,,,,,,,,,,,,,,,,,
null,,rt_thecrossant_black,1005748,,,black_plus_sign,,,,,null,,,0.9629629629629629,1,,,,,,,,,,,,,,,,
null,,color_black,1005850,,,black_plus_sign,,,,,null,,,,,,,,,,,,,,,,,,,,
null,,learn_phase(without_color),1008855,,,black_plus_sign,,,,,null,US_Cities_List/boulder.png,US_Cities_List/peoria.png,,,,,,,,,,,,,,,,,,
null,,black_cross(without_color),1009567,,,blue,,,,,null,US_Cities_List/boulder.png,US_Cities_List/peoria.png,,,,,,,,,,,,,,,,,,
null,,rt_plussign_withcolor,1010069,,,blue,,,,,null,US_Cities_List/boulder.png,US_Cities_List/peoria.png,,,,,,,,,,,,,,,,,,
804.1000000014901,,rt_thecrossant_black,1011367,,,black_plus_sign,,,,,49,,,0.9634146341463414,1,,,,,,,,,,,,,,,,
null,,color_black,1011469,,,black_plus_sign,,,,,null,,,,,,,,,,,,,,,,,,,,
null,,learn_phase(without_color),1014478,,,black_plus_sign,,,,,null,US_Cities_List/newhope.png,US_Cities_List/shreveport.png,,,,,,,,,,,,,,,,,,
null,,black_cross(without_color),1015478,,,yellow,,,,,null,US_Cities_List/newhope.png,US_Cities_List/shreveport.png,,,,,,,,,,,,,,,,,,
446,,rt_plussign_withcolor,1015980,,,yellow,,,,,50,US_Cities_List/newhope.png,US_Cities_List/shreveport.png,,,,,,,,,,,,,,,,,,
null,,rt_thecrossant_black,1016984,,,black_plus_sign,,,,,null,,,0.963855421686747,1,,,,,,,,,,,,,,,,
null,,color_black,1017085,,,black_plus_sign,,,,,null,,,,,,,,,,,,,,,,,,,,
null,,learn_phase(without_color),1020093,,,black_plus_sign,,,,,null,US_Cities_List/peoria.png,US_Cities_List/boulder.png,,,,,,,,,,,,,,,,,,
null,,black_cross(without_color),1020882,,,blue,,,,,null,US_Cities_List/peoria.png,US_Cities_List/boulder.png,,,,,,,,,,,,,,,,,,
null,,rt_plussign_withcolor,1021384,,,blue,,,,,null,US_Cities_List/peoria.png,US_Cities_List/boulder.png,,,,,,,,,,,,,,,,,,
1845,,rt_thecrossant_black,1022597,,,black_plus_sign,,,,,49,,,0.9642857142857143,1,,,,,,,,,,,,,,,,
null,,color_black,1022700,,,black_plus_sign,,,,,null,,,,,,,,,,,,,,,,,,,,
null,,learn_phase(without_color),1025724,,,black_plus_sign,,,,,null,US_Cities_List/cornwall.png,US_Cities_List/peoria.png,,,,,,,,,,,,,,,,,,
null,,black_cross(without_color),1026454,,,blue,,,,,null,US_Cities_List/cornwall.png,US_Cities_List/peoria.png,,,,,,,,,,,,,,,,,,
null,,rt_plussign_withcolor,1026956,,,blue,,,,,null,US_Cities_List/cornwall.png,US_Cities_List/peoria.png,,,,,,,,,,,,,,,,,,
1211.1000000014901,,rt_thecrossant_black,1028230,,,black_plus_sign,,,,,49,,,0.9647058823529412,1,,,,,,,,,,,,,,,,
null,,color_black,1028332,,,black_plus_sign,,,,,null,,,,,,,,,,,,,,,,,,,,
null,,learn_phase(without_color),1031336,,,black_plus_sign,,,,,null,US_Cities_List/huntsville.png,US_Cities_List/racine.png,,,,,,,,,,,,,,,,,,
null,,black_cross(without_color),1032233,,,yellow,,,,,null,US_Cities_List/huntsville.png,US_Cities_List/racine.png,,,,,,,,,,,,,,,,,,
null,,rt_plussign_withcolor,1032735,,,yellow,,,,,null,US_Cities_List/huntsville.png,US_Cities_List/racine.png,,,,,,,,,,,,,,,,,,
1018,,rt_thecrossant_black,1033842,,,black_plus_sign,,,,,50,,,0.9651162790697675,1,,,,,,,,,,,,,,,,
null,,color_black,1033944,,,black_plus_sign,,,,,null,,,,,,,,,,,,,,,,,,,,
null,,learn_phase(without_color),1036950,,,black_plus_sign,,,,,null,US_Cities_List/hanover.png,US_Cities_List/boulder.png,,,,,,,,,,,,,,,,,,
null,,black_cross(without_color),1037434,,,blue,,,,,null,US_Cities_List/hanover.png,US_Cities_List/boulder.png,,,,,,,,,,,,,,,,,,
null,,rt_plussign_withcolor,1037936,,,blue,,,,,null,US_Cities_List/hanover.png,US_Cities_List/boulder.png,,,,,,,,,,,,,,,,,,
1189.800000000745,,rt_thecrossant_black,1039456,,,black_plus_sign,,,,,49,,,0.9655172413793104,1,,,,,,,,,,,,,,,,
null,,color_black,1039559,,,black_plus_sign,,,,,null,,,,,,,,,,,,,,,,,,,,
null,,learn_phase(without_color),1042565,,,black_plus_sign,,,,,null,US_Cities_List/newhope.png,US_Cities_List/huntsville.png,,,,,,,,,,,,,,,,,,
null,,black_cross(without_color),1043648,,,blue,,,,,null,US_Cities_List/newhope.png,US_Cities_List/huntsville.png,,,,,,,,,,,,,,,,,,
null,,rt_plussign_withcolor,1044149,,,blue,,,,,null,US_Cities_List/newhope.png,US_Cities_List/huntsville.png,,,,,,,,,,,,,,,,,,
628.8000000007451,,rt_thecrossant_black,1045071,,,black_plus_sign,,,,,49,,,0.9659090909090909,1,,,,,,,,,,,,,,,,
null,,color_black,1045172,,,black_plus_sign,,,,,null,,,,,,,,,,,,,,,,,,,,
null,,learn_phase(without_color),1048179,,,black_plus_sign,,,,,null,US_Cities_List/racine.png,US_Cities_List/hanover.png,,,,,,,,,,,,,,,,,,
null,,black_cross(without_color),1049028,,,yellow,,,,,null,US_Cities_List/racine.png,US_Cities_List/hanover.png,,,,,,,,,,,,,,,,,,
null,,rt_plussign_withcolor,1049529,,,yellow,,,,,null,US_Cities_List/racine.png,US_Cities_List/hanover.png,,,,,,,,,,,,,,,,,,
1550.4000000022352,,rt_thecrossant_black,1050686,,,black_plus_sign,,,,,50,,,0.9662921348314607,1,,,,,,,,,,,,,,,,
null,,color_black,1050790,,,black_plus_sign,,,,,null,,,,,,,,,,,,,,,,,,,,
null,,learn_phase(without_color),1053798,,,black_plus_sign,,,,,null,US_Cities_List/newhope.png,US_Cities_List/huntsville.png,,,,,,,,,,,,,,,,,,
null,,black_cross(without_color),1054484,,,yellow,,,,,null,US_Cities_List/newhope.png,US_Cities_List/huntsville.png,,,,,,,,,,,,,,,,,,
480.8999999985099,,rt_plussign_withcolor,1054985,,,yellow,,,,,50,US_Cities_List/newhope.png,US_Cities_List/huntsville.png,,,,,,,,,,,,,,,,,,
null,,rt_thecrossant_black,1056311,,,black_plus_sign,,,,,null,,,0.9666666666666667,1,,,,,,,,,,,,,,,,
null,,color_black,1056415,,,black_plus_sign,,,,,null,,,,,,,,,,,,,,,,,,,,
null,,learn_phase(without_color),1059425,,,black_plus_sign,,,,,null,US_Cities_List/hanover.png,US_Cities_List/racine.png,,,,,,,,,,,,,,,,,,
null,,black_cross(without_color),1059892,,,blue,,,,,null,US_Cities_List/hanover.png,US_Cities_List/racine.png,,,,,,,,,,,,,,,,,,
null,,rt_plussign_withcolor,1060393,,,blue,,,,,null,US_Cities_List/hanover.png,US_Cities_List/racine.png,,,,,,,,,,,,,,,,,,
802.5,,rt_thecrossant_black,1061930,,,black_plus_sign,,,,,49,,,0.967032967032967,1,,,,,,,,,,,,,,,,
null,,color_black,1062032,,,black_plus_sign,,,,,null,,,,,,,,,,,,,,,,,,,,
null,,learn_phase(without_color),1065037,,,black_plus_sign,,,,,null,US_Cities_List/carmel.png,US_Cities_List/shreveport.png,,,,,,,,,,,,,,,,,,
null,,black_cross(without_color),1065601,,,yellow,,,,,null,US_Cities_List/carmel.png,US_Cities_List/shreveport.png,,,,,,,,,,,,,,,,,,
null,,rt_plussign_withcolor,1066102,,,yellow,,,,,null,US_Cities_List/carmel.png,US_Cities_List/shreveport.png,,,,,,,,,,,,,,,,,,
594.9000000022352,,rt_thecrossant_black,1067542,,,black_plus_sign,,,,,50,,,0.967391304347826,1,,,,,,,,,,,,,,,,
null,,color_black,1067643,,,black_plus_sign,,,,,null,,,,,,,,,,,,,,,,,,,,
null,,learn_phase(without_color),1070651,,,black_plus_sign,,,,,null,US_Cities_List/racine.png,US_Cities_List/huntsville.png,,,,,,,,,,,,,,,,,,
null,,black_cross(without_color),1071475,,,blue,,,,,null,US_Cities_List/racine.png,US_Cities_List/huntsville.png,,,,,,,,,,,,,,,,,,
null,,rt_plussign_withcolor,1071977,,,blue,,,,,null,US_Cities_List/racine.png,US_Cities_List/huntsville.png,,,,,,,,,,,,,,,,,,
665.8999999985099,,rt_thecrossant_black,1073167,,,black_plus_sign,,,,,49,,,0.967741935483871,1,,,,,,,,,,,,,,,,
null,,color_black,1073269,,,black_plus_sign,,,,,null,,,,,,,,,,,,,,,,,,,,
null,,learn_phase(without_color),1076273,,,black_plus_sign,,,,,null,US_Cities_List/peoria.png,US_Cities_List/huntsville.png,,,,,,,,,,,,,,,,,,
null,,black_cross(without_color),1077111,,,yellow,,,,,null,US_Cities_List/peoria.png,US_Cities_List/huntsville.png,,,,,,,,,,,,,,,,,,
486.3999999985099,,rt_plussign_withcolor,1077612,,,yellow,,,,,50,US_Cities_List/peoria.png,US_Cities_List/huntsville.png,,,,,,,,,,,,,,,,,,
null,,rt_thecrossant_black,1078778,,,black_plus_sign,,,,,null,,,0.9680851063829787,1,,,,,,,,,,,,,,,,
null,,color_black,1078880,,,black_plus_sign,,,,,null,,,,,,,,,,,,,,,,,,,,
null,,learn_phase(without_color),1081888,,,black_plus_sign,,,,,null,US_Cities_List/racine.png,US_Cities_List/hotsprings.png,,,,,,,,,,,,,,,,,,
null,,black_cross(without_color),1082390,,,blue,,,,,null,US_Cities_List/racine.png,US_Cities_List/hotsprings.png,,,,,,,,,,,,,,,,,,
null,,rt_plussign_withcolor,1082891,,,blue,,,,,null,US_Cities_List/racine.png,US_Cities_List/hotsprings.png,,,,,,,,,,,,,,,,,,
1224,,rt_thecrossant_black,1084393,,,black_plus_sign,,,,,49,,,0.968421052631579,1,,,,,,,,,,,,,,,,
null,,color_black,1084495,,,black_plus_sign,,,,,null,,,,,,,,,,,,,,,,,,,,
null,,learn_phase(without_color),1087501,,,black_plus_sign,,,,,null,US_Cities_List/hanover.png,US_Cities_List/gatlinburg.png,,,,,,,,,,,,,,,,,,
null,,black_cross(without_color),1088325,,,yellow,,,,,null,US_Cities_List/hanover.png,US_Cities_List/gatlinburg.png,,,,,,,,,,,,,,,,,,
null,,rt_plussign_withcolor,1088827,,,yellow,,,,,null,US_Cities_List/hanover.png,US_Cities_List/gatlinburg.png,,,,,,,,,,,,,,,,,,
631.8000000007451,,rt_thecrossant_black,1090009,,,black_plus_sign,,,,,50,,,0.96875,1,,,,,,,,,,,,,,,,
null,,color_black,1090111,,,black_plus_sign,,,,,null,,,,,,,,,,,,,,,,,,,,
null,,learn_phase(without_color),1093118,,,black_plus_sign,,,,,null,US_Cities_List/cornwall.png,US_Cities_List/leesburg.png,,,,,,,,,,,,,,,,,,
null,,black_cross(without_color),1093877,,,yellow,,,,,null,US_Cities_List/cornwall.png,US_Cities_List/leesburg.png,,,,,,,,,,,,,,,,,,
null,,rt_plussign_withcolor,1094387,,,yellow,,,,,null,US_Cities_List/cornwall.png,US_Cities_List/leesburg.png,,,,,,,,,,,,,,,,,,
1042.1000000014901,,rt_thecrossant_black,1095633,,,black_plus_sign,,,,,50,,,0.9690721649484536,1,,,,,,,,,,,,,,,,
null,,color_black,1095735,,,black_plus_sign,,,,,null,,,,,,,,,,,,,,,,,,,,
null,,learn_phase(without_color),1098744,,,black_plus_sign,,,,,null,US_Cities_List/carmel.png,US_Cities_List/shreveport.png,,,,,,,,,,,,,,,,,,
null,,black_cross(without_color),1099395,,,yellow,,,,,null,US_Cities_List/carmel.png,US_Cities_List/shreveport.png,,,,,,,,,,,,,,,,,,
null,,rt_plussign_withcolor,1099897,,,yellow,,,,,null,US_Cities_List/carmel.png,US_Cities_List/shreveport.png,,,,,,,,,,,,,,,,,,
914.6999999992549,,rt_thecrossant_black,1101248,,,black_plus_sign,,,,,50,,,0.9693877551020408,1,,,,,,,,,,,,,,,,
null,,color_black,1101351,,,black_plus_sign,,,,,null,,,,,,,,,,,,,,,,,,,,
null,,learn_phase(without_color),1104360,,,black_plus_sign,,,,,null,US_Cities_List/cornwall.png,US_Cities_List/shreveport.png,,,,,,,,,,,,,,,,,,
null,,black_cross(without_color),1105372,,,blue,,,,,null,US_Cities_List/cornwall.png,US_Cities_List/shreveport.png,,,,,,,,,,,,,,,,,,
null,,rt_plussign_withcolor,1105874,,,blue,,,,,null,US_Cities_List/cornwall.png,US_Cities_List/shreveport.png,,,,,,,,,,,,,,,,,,
895.2000000029802,,rt_thecrossant_black,1106868,,,black_plus_sign,,,,,49,,,0.9696969696969697,1,,,,,,,,,,,,,,,,
null,,color_black,1106970,,,black_plus_sign,,,,,null,,,,,,,,,,,,,,,,,,,,
null,,learn_phase(without_color),1109980,,,black_plus_sign,,,,,null,US_Cities_List/gatlinburg.png,US_Cities_List/hanover.png,,,,,,,,,,,,,,,,,,
null,,black_cross(without_color),1110986,,,blue,,,,,null,US_Cities_List/gatlinburg.png,US_Cities_List/hanover.png,,,,,,,,,,,,,,,,,,
null,,rt_plussign_withcolor,1111489,,,blue,,,,,null,US_Cities_List/gatlinburg.png,US_Cities_List/hanover.png,,,,,,,,,,,,,,,,,,
1120,,rt_thecrossant_black,1112486,,,black_plus_sign,,,,,49,,,0.97,1,,,,,,,,,,,,,,,,
null,,color_black,1112588,,,black_plus_sign,,,,,null,,,,,,,,,,,,,,,,,,,,
null,,learn_phase(without_color),1115597,,,black_plus_sign,,,,,null,US_Cities_List/carmel.png,US_Cities_List/shreveport.png,,,,,,,,,,,,,,,,,,
null,,black_cross(without_color),1116048,,,yellow,,,,,null,US_Cities_List/carmel.png,US_Cities_List/shreveport.png,,,,,,,,,,,,,,,,,,
null,,rt_plussign_withcolor,1116549,,,yellow,,,,,null,US_Cities_List/carmel.png,US_Cities_List/shreveport.png,,,,,,,,,,,,,,,,,,
1143.9000000022352,,rt_thecrossant_black,1118104,,,black_plus_sign,,,,,50,,,0.9702970297029703,1,,,,,,,,,,,,,,,,
null,,color_black,1118205,,,black_plus_sign,,,,,null,,,,,,,,,,,,,,,,,,,,
null,,learn_phase(without_color),1121213,,,black_plus_sign,,,,,null,US_Cities_List/gatlinburg.png,US_Cities_List/hanover.png,,,,,,,,,,,,,,,,,,
null,,black_cross(without_color),1121634,,,yellow,,,,,null,US_Cities_List/gatlinburg.png,US_Cities_List/hanover.png,,,,,,,,,,,,,,,,,,
385.69999999925494,,rt_plussign_withcolor,1122135,,,yellow,,,,,50,US_Cities_List/gatlinburg.png,US_Cities_List/hanover.png,,,,,,,,,,,,,,,,,,
null,,rt_thecrossant_black,1123718,,,black_plus_sign,,,,,null,,,0.9705882352941176,1,,,,,,,,,,,,,,,,
null,,color_black,1123821,,,black_plus_sign,,,,,null,,,,,,,,,,,,,,,,,,,,
null,,learn_phase(without_color),1126831,,,black_plus_sign,,,,,null,US_Cities_List/cornwall.png,US_Cities_List/shreveport.png,,,,,,,,,,,,,,,,,,
null,,black_cross(without_color),1127285,,,yellow,,,,,null,US_Cities_List/cornwall.png,US_Cities_List/shreveport.png,,,,,,,,,,,,,,,,,,
null,,rt_plussign_withcolor,1127787,,,yellow,,,,,null,US_Cities_List/cornwall.png,US_Cities_List/shreveport.png,,,,,,,,,,,,,,,,,,
714.1000000014901,,rt_thecrossant_black,1129343,,,black_plus_sign,,,,,50,,,0.970873786407767,1,,,,,,,,,,,,,,,,
null,,color_black,1129446,,,black_plus_sign,,,,,null,,,,,,,,,,,,,,,,,,,,
null,,learn_phase(without_color),1132451,,,black_plus_sign,,,,,null,US_Cities_List/hotsprings.png,US_Cities_List/hanover.png,,,,,,,,,,,,,,,,,,
null,,black_cross(without_color),1133351,,,blue,,,,,null,US_Cities_List/hotsprings.png,US_Cities_List/hanover.png,,,,,,,,,,,,,,,,,,
null,,rt_plussign_withcolor,1133853,,,blue,,,,,null,US_Cities_List/hotsprings.png,US_Cities_List/hanover.png,,,,,,,,,,,,,,,,,,
846.7000000029802,,rt_thecrossant_black,1134956,,,black_plus_sign,,,,,50,,,0.9615384615384616,0,,,,,,,,,,,,,,,,
null,,color_black,1135058,,,black_plus_sign,,,,,null,,,,,,,,,,,,,,,,,,,,
null,,learn_phase(without_color),1138065,,,black_plus_sign,,,,,null,US_Cities_List/hanover.png,US_Cities_List/gatlinburg.png,,,,,,,,,,,,,,,,,,
null,,black_cross(without_color),1138918,,,blue,,,,,null,US_Cities_List/hanover.png,US_Cities_List/gatlinburg.png,,,,,,,,,,,,,,,,,,
493.1000000014901,,rt_plussign_withcolor,1139420,,,blue,,,,,49,US_Cities_List/hanover.png,US_Cities_List/gatlinburg.png,,,,,,,,,,,,,,,,,,
null,,rt_thecrossant_black,1140571,,,black_plus_sign,,,,,null,,,0.9619047619047619,1,,,,,,,,,,,,,,,,
null,,color_black,1140673,,,black_plus_sign,,,,,null,,,,,,,,,,,,,,,,,,,,
null,,learn_phase(without_color),1143679,,,black_plus_sign,,,,,null,US_Cities_List/hanover.png,US_Cities_List/boulder.png,,,,,,,,,,,,,,,,,,
null,,black_cross(without_color),1144639,,,yellow,,,,,null,US_Cities_List/hanover.png,US_Cities_List/boulder.png,,,,,,,,,,,,,,,,,,
397,,rt_plussign_withcolor,1145142,,,yellow,,,,,50,US_Cities_List/hanover.png,US_Cities_List/boulder.png,,,,,,,,,,,,,,,,,,
null,,rt_thecrossant_black,1146185,,,black_plus_sign,,,,,null,,,0.9622641509433962,1,,,,,,,,,,,,,,,,
null,,color_black,1146287,,,black_plus_sign,,,,,null,,,,,,,,,,,,,,,,,,,,
null,,learn_phase(without_color),1149292,,,black_plus_sign,,,,,null,US_Cities_List/huntsville.png,US_Cities_List/peoria.png,,,,,,,,,,,,,,,,,,
null,,black_cross(without_color),1150238,,,yellow,,,,,null,US_Cities_List/huntsville.png,US_Cities_List/peoria.png,,,,,,,,,,,,,,,,,,
389.6000000014901,,rt_plussign_withcolor,1150740,,,yellow,,,,,50,US_Cities_List/huntsville.png,US_Cities_List/peoria.png,,,,,,,,,,,,,,,,,,
null,,rt_thecrossant_black,1151800,,,black_plus_sign,,,,,null,,,0.9626168224299065,1,,,,,,,,,,,,,,,,
null,,color_black,1151902,,,black_plus_sign,,,,,null,,,,,,,,,,,,,,,,,,,,
null,,learn_phase(without_color),1154911,,,black_plus_sign,,,,,null,US_Cities_List/racine.png,US_Cities_List/boulder.png,,,,,,,,,,,,,,,,,,
null,,black_cross(without_color),1155792,,,yellow,,,,,null,US_Cities_List/racine.png,US_Cities_List/boulder.png,,,,,,,,,,,,,,,,,,
468.30000000074506,,rt_plussign_withcolor,1156293,,,yellow,,,,,50,US_Cities_List/racine.png,US_Cities_List/boulder.png,,,,,,,,,,,,,,,,,,
null,,rt_thecrossant_black,1157417,,,black_plus_sign,,,,,null,,,0.9629629629629629,1,,,,,,,,,,,,,,,,
null,,color_black,1157519,,,black_plus_sign,,,,,null,,,,,,,,,,,,,,,,,,,,
null,,learn_phase(without_color),1160527,,,black_plus_sign,,,,,null,US_Cities_List/peoria.png,US_Cities_List/boulder.png,,,,,,,,,,,,,,,,,,
null,,black_cross(without_color),1161530,,,blue,,,,,null,US_Cities_List/peoria.png,US_Cities_List/boulder.png,,,,,,,,,,,,,,,,,,
498.0999999977648,,rt_plussign_withcolor,1162032,,,blue,,,,,49,US_Cities_List/peoria.png,US_Cities_List/boulder.png,,,,,,,,,,,,,,,,,,
null,,rt_thecrossant_black,1163034,,,black_plus_sign,,,,,49,,,0.963302752293578,1,,,,,,,,,,,,,,,,
null,,color_black,1163137,,,black_plus_sign,,,,,null,,,,,,,,,,,,,,,,,,,,
null,,learn_phase(without_color),1166145,,,black_plus_sign,,,,,null,US_Cities_List/hotsprings.png,US_Cities_List/westpalmbeach.png,,,,,,,,,,,,,,,,,,
null,,black_cross(without_color),1166559,,,yellow,,,,,null,US_Cities_List/hotsprings.png,US_Cities_List/westpalmbeach.png,,,,,,,,,,,,,,,,,,
396.69999999925494,,rt_plussign_withcolor,1167062,,,yellow,,,,,50,US_Cities_List/hotsprings.png,US_Cities_List/westpalmbeach.png,,,,,,,,,,,,,,,,,,
null,,rt_thecrossant_black,1168650,,,black_plus_sign,,,,,null,,,0.9636363636363636,1,,,,,,,,,,,,,,,,
null,,color_black,1168752,,,black_plus_sign,,,,,null,,,,,,,,,,,,,,,,,,,,
null,,learn_phase(without_color),1171757,,,black_plus_sign,,,,,null,US_Cities_List/shreveport.png,US_Cities_List/carmel.png,,,,,,,,,,,,,,,,,,
null,,black_cross(without_color),1172519,,,blue,,,,,null,US_Cities_List/shreveport.png,US_Cities_List/carmel.png,,,,,,,,,,,,,,,,,,
null,,rt_plussign_withcolor,1173021,,,blue,,,,,null,US_Cities_List/shreveport.png,US_Cities_List/carmel.png,,,,,,,,,,,,,,,,,,
1128.9000000022352,,rt_thecrossant_black,1174264,,,black_plus_sign,,,,,49,,,0.963963963963964,1,,,,,,,,,,,,,,,,
null,,color_black,1174367,,,black_plus_sign,,,,,null,,,,,,,,,,,,,,,,,,,,
null,,learn_phase(without_color),1177373,,,black_plus_sign,,,,,null,US_Cities_List/racine.png,US_Cities_List/huntsville.png,,,,,,,,,,,,,,,,,,
null,,black_cross(without_color),1178150,,,blue,,,,,null,US_Cities_List/racine.png,US_Cities_List/huntsville.png,,,,,,,,,,,,,,,,,,
null,,rt_plussign_withcolor,1178651,,,blue,,,,,null,US_Cities_List/racine.png,US_Cities_List/huntsville.png,,,,,,,,,,,,,,,,,,
915.1999999992549,,rt_thecrossant_black,1179879,,,black_plus_sign,,,,,49,,,0.9642857142857143,1,,,,,,,,,,,,,,,,
null,,color_black,1179981,,,black_plus_sign,,,,,null,,,,,,,,,,,,,,,,,,,,
null,,learn_phase(without_color),1182987,,,black_plus_sign,,,,,null,US_Cities_List/hotsprings.png,US_Cities_List/hanover.png,,,,,,,,,,,,,,,,,,
null,,black_cross(without_color),1184022,,,blue,,,,,null,US_Cities_List/hotsprings.png,US_Cities_List/hanover.png,,,,,,,,,,,,,,,,,,
null,,rt_plussign_withcolor,1184524,,,blue,,,,,null,US_Cities_List/hotsprings.png,US_Cities_List/hanover.png,,,,,,,,,,,,,,,,,,
907,,rt_thecrossant_black,1185496,,,black_plus_sign,,,,,49,,,0.9646017699115044,1,,,,,,,,,,,,,,,,
null,,color_black,1185598,,,black_plus_sign,,,,,null,,,,,,,,,,,,,,,,,,,,
null,,learn_phase(without_color),1188605,,,black_plus_sign,,,,,null,US_Cities_List/racine.png,US_Cities_List/hotsprings.png,,,,,,,,,,,,,,,,,,
null,,black_cross(without_color),1189270,,,yellow,,,,,null,US_Cities_List/racine.png,US_Cities_List/hotsprings.png,,,,,,,,,,,,,,,,,,
null,,rt_plussign_withcolor,1189772,,,yellow,,,,,null,US_Cities_List/racine.png,US_Cities_List/hotsprings.png,,,,,,,,,,,,,,,,,,
1155,,rt_thecrossant_black,1191109,,,black_plus_sign,,,,,49,,,0.956140350877193,0,,,,,,,,,,,,,,,,
null,,color_black,1191211,,,black_plus_sign,,,,,null,,,,,,,,,,,,,,,,,,,,
null,,learn_phase(without_color),1194217,,,black_plus_sign,,,,,null,US_Cities_List/racine.png,US_Cities_List/boulder.png,,,,,,,,,,,,,,,,,,
null,,black_cross(without_color),1195286,,,yellow,,,,,null,US_Cities_List/racine.png,US_Cities_List/boulder.png,,,,,,,,,,,,,,,,,,
501.5,,rt_plussign_withcolor,1195789,,,yellow,,,,,50,US_Cities_List/racine.png,US_Cities_List/boulder.png,,,,,,,,,,,,,,,,,,
null,,rt_thecrossant_black,1196739,,,black_plus_sign,,,,,null,,,0.9565217391304348,1,,,,,,,,,,,,,,,,
null,,color_black,1196842,,,black_plus_sign,,,,,null,,,,,,,,,,,,,,,,,,,,
null,,learn_phase(without_color),1199854,,,black_plus_sign,,,,,null,US_Cities_List/cornwall.png,US_Cities_List/peoria.png,,,,,,,,,,,,,,,,,,
null,,black_cross(without_color),1200701,,,blue,,,,,null,US_Cities_List/cornwall.png,US_Cities_List/peoria.png,,,,,,,,,,,,,,,,,,
null,,rt_plussign_withcolor,1201203,,,blue,,,,,null,US_Cities_List/cornwall.png,US_Cities_List/peoria.png,,,,,,,,,,,,,,,,,,
1496.699999999255,,rt_thecrossant_black,1202365,,,black_plus_sign,,,,,49,,,0.9568965517241379,1,,,,,,,,,,,,,,,,
null,,color_black,1202467,,,black_plus_sign,,,,,null,,,,,,,,,,,,,,,,,,,,
null,,learn_phase(without_color),1205473,,,black_plus_sign,,,,,null,US_Cities_List/boulder.png,US_Cities_List/hanover.png,,,,,,,,,,,,,,,,,,
null,,black_cross(without_color),1205920,,,yellow,,,,,null,US_Cities_List/boulder.png,US_Cities_List/hanover.png,,,,,,,,,,,,,,,,,,
null,,rt_plussign_withcolor,1206421,,,yellow,,,,,null,US_Cities_List/boulder.png,US_Cities_List/hanover.png,,,,,,,,,,,,,,,,,,
1135.6000000014901,,rt_thecrossant_black,1207978,,,black_plus_sign,,,,,50,,,0.9572649572649573,1,,,,,,,,,,,,,,,,
null,,color_black,1208080,,,black_plus_sign,,,,,null,,,,,,,,,,,,,,,,,,,,
null,,learn_phase(without_color),1211085,,,black_plus_sign,,,,,null,US_Cities_List/hotsprings.png,US_Cities_List/westpalmbeach.png,,,,,,,,,,,,,,,,,,
null,,black_cross(without_color),1212033,,,blue,,,,,null,US_Cities_List/hotsprings.png,US_Cities_List/westpalmbeach.png,,,,,,,,,,,,,,,,,,
null,,rt_plussign_withcolor,1212535,,,blue,,,,,null,US_Cities_List/hotsprings.png,US_Cities_List/westpalmbeach.png,,,,,,,,,,,,,,,,,,
710.5,,rt_thecrossant_black,1213590,,,black_plus_sign,,,,,49,,,0.9576271186440678,1,,,,,,,,,,,,,,,,
null,,color_black,1213691,,,black_plus_sign,,,,,null,,,,,,,,,,,,,,,,,,,,
null,,learn_phase(without_color),1216698,,,black_plus_sign,,,,,null,US_Cities_List/racine.png,US_Cities_List/boulder.png,,,,,,,,,,,,,,,,,,
null,,black_cross(without_color),1217475,,,yellow,,,,,null,US_Cities_List/racine.png,US_Cities_List/boulder.png,,,,,,,,,,,,,,,,,,
null,,rt_plussign_withcolor,1217977,,,yellow,,,,,null,US_Cities_List/racine.png,US_Cities_List/boulder.png,,,,,,,,,,,,,,,,,,
1081.5,,rt_thecrossant_black,1219203,,,black_plus_sign,,,,,50,,,0.957983193277311,1,,,,,,,,,,,,,,,,
null,,color_black,1219305,,,black_plus_sign,,,,,null,,,,,,,,,,,,,,,,,,,,
null,,learn_phase(without_color),1222315,,,black_plus_sign,,,,,null,US_Cities_List/cornwall.png,US_Cities_List/leesburg.png,,,,,,,,,,,,,,,,,,
null,,black_cross(without_color),1223138,,,yellow,,,,,null,US_Cities_List/cornwall.png,US_Cities_List/leesburg.png,,,,,,,,,,,,,,,,,,
null,,rt_plussign_withcolor,1223640,,,yellow,,,,,null,US_Cities_List/cornwall.png,US_Cities_List/leesburg.png,,,,,,,,,,,,,,,,,,
887.3000000007451,,rt_thecrossant_black,1224821,,,black_plus_sign,,,,,50,,,0.9583333333333334,1,,,,,,,,,,,,,,,,
null,,color_black,1224923,,,black_plus_sign,,,,,null,,,,,,,,,,,,,,,,,,,,
null,,learn_phase(without_color),1227929,,,black_plus_sign,,,,,null,US_Cities_List/newhope.png,US_Cities_List/shreveport.png,,,,,,,,,,,,,,,,,,
null,,black_cross(without_color),1228512,,,blue,,,,,null,US_Cities_List/newhope.png,US_Cities_List/shreveport.png,,,,,,,,,,,,,,,,,,
null,,rt_plussign_withcolor,1229015,,,blue,,,,,null,US_Cities_List/newhope.png,US_Cities_List/shreveport.png,,,,,,,,,,,,,,,,,,
1036.699999999255,,rt_thecrossant_black,1230437,,,black_plus_sign,,,,,49,,,0.9586776859504132,1,,,,,,,,,,,,,,,,
null,,color_black,1230539,,,black_plus_sign,,,,,null,,,,,,,,,,,,,,,,,,,,
null,,learn_phase(without_color),1233545,,,black_plus_sign,,,,,null,US_Cities_List/racine.png,US_Cities_List/boulder.png,,,,,,,,,,,,,,,,,,
null,,black_cross(without_color),1234129,,,yellow,,,,,null,US_Cities_List/racine.png,US_Cities_List/boulder.png,,,,,,,,,,,,,,,,,,
null,,rt_plussign_withcolor,1234632,,,yellow,,,,,null,US_Cities_List/racine.png,US_Cities_List/boulder.png,,,,,,,,,,,,,,,,,,
1348.4000000022352,,rt_thecrossant_black,1236053,,,black_plus_sign,,,,,50,,,0.9590163934426229,1,,,,,,,,,,,,,,,,
null,,color_black,1236155,,,black_plus_sign,,,,,null,,,,,,,,,,,,,,,,,,,,
null,,learn_phase(without_color),1239162,,,black_plus_sign,,,,,null,US_Cities_List/hotsprings.png,US_Cities_List/racine.png,,,,,,,,,,,,,,,,,,
null,,black_cross(without_color),1240248,,,yellow,,,,,null,US_Cities_List/hotsprings.png,US_Cities_List/racine.png,,,,,,,,,,,,,,,,,,
484.3999999985099,,rt_plussign_withcolor,1240750,,,yellow,,,,,50,US_Cities_List/hotsprings.png,US_Cities_List/racine.png,,,,,,,,,,,,,,,,,,
null,,rt_thecrossant_black,1241668,,,black_plus_sign,,,,,null,,,0.959349593495935,1,,,,,,,,,,,,,,,,
null,,color_black,1241770,,,black_plus_sign,,,,,null,,,,,,,,,,,,,,,,,,,,
null,,learn_phase(without_color),1244778,,,black_plus_sign,,,,,null,US_Cities_List/boulder.png,US_Cities_List/hanover.png,,,,,,,,,,,,,,,,,,
null,,black_cross(without_color),1245546,,,blue,,,,,null,US_Cities_List/boulder.png,US_Cities_List/hanover.png,,,,,,,,,,,,,,,,,,
483.5,,rt_plussign_withcolor,1246047,,,blue,,,,,49,US_Cities_List/boulder.png,US_Cities_List/hanover.png,,,,,,,,,,,,,,,,,,
null,,rt_thecrossant_black,1247284,,,black_plus_sign,,,,,null,,,0.9596774193548387,1,,,,,,,,,,,,,,,,
null,,color_black,1247385,,,black_plus_sign,,,,,null,,,,,,,,,,,,,,,,,,,,
null,,learn_phase(without_color),1250393,,,black_plus_sign,,,,,null,US_Cities_List/hanover.png,US_Cities_List/racine.png,,,,,,,,,,,,,,,,,,
null,,black_cross(without_color),1251253,,,yellow,,,,,null,US_Cities_List/hanover.png,US_Cities_List/racine.png,,,,,,,,,,,,,,,,,,
null,,rt_plussign_withcolor,1251755,,,yellow,,,,,null,US_Cities_List/hanover.png,US_Cities_List/racine.png,,,,,,,,,,,,,,,,,,
1771.2999999970198,,rt_thecrossant_black,1252898,,,black_plus_sign,,,,,50,,,0.96,1,,,,,,,,,,,,,,,,
null,,color_black,1253001,,,black_plus_sign,,,,,null,,,,,,,,,,,,,,,,,,,,
null,,learn_phase(without_color),1256009,,,black_plus_sign,,,,,null,US_Cities_List/hanover.png,US_Cities_List/gatlinburg.png,,,,,,,,,,,,,,,,,,
null,,black_cross(without_color),1256508,,,yellow,,,,,null,US_Cities_List/hanover.png,US_Cities_List/gatlinburg.png,,,,,,,,,,,,,,,,,,
null,,rt_plussign_withcolor,1257010,,,yellow,,,,,null,US_Cities_List/hanover.png,US_Cities_List/gatlinburg.png,,,,,,,,,,,,,,,,,,
1096.0999999977648,,rt_thecrossant_black,1258517,,,black_plus_sign,,,,,50,,,0.9603174603174603,1,,,,,,,,,,,,,,,,
null,,color_black,1258619,,,black_plus_sign,,,,,null,,,,,,,,,,,,,,,,,,,,
6984.60000000149,,learn_break,1265605,,,learn_break,,,,,32,,,,,,,,,,,,,,,,,,,,
5474.5,,intro_1,1271081,,,instruct,,,0,,,,,,,,,,,,,,,,,,,,,,
10325.800000000745,,intro_2,1281408,,,instruct,,,1,Next,,,,,,,,,,,,,,,,,,,,,
null,,directmemory_phase,1287920,,,../static/images/US_Cities_List/carmel.png,,,,,null,,,0,0,../static/images/US_Cities_List/shreveport.png,../static/images/US_Cities_List/peoria.png,../static/images/US_Cities_List/cornwall.png,../static/images/US_Cities_List/shreveport.png,../static/images/US_Cities_List/cornwall.png,../static/images/US_Cities_List/peoria.png,0,,,,,,,,,
null,,warning_page,1290924,,,warning,,,,,null,,,,,,,,,,,,,,,,,,,,
null,,html-keyboard-response,1291926,,,<p></p>,,,,,null,,,,,,,,,,,,,,,,,,,,
1316.8999999985099,,directmemory_phase,1293253,,,../static/images/US_Cities_List/racine.png,,,,,50,,,0,0,../static/images/US_Cities_List/hotsprings.png,../static/images/US_Cities_List/carmel.png,../static/images/US_Cities_List/gatlinburg.png,../static/images/US_Cities_List/hotsprings.png,../static/images/US_Cities_List/gatlinburg.png,../static/images/US_Cities_List/carmel.png,0.5,closer,,,,,,,,
null,,html-keyboard-response,1294264,,,<p></p>,,,,,null,,,,,,,,,,,,,,,,,,,,
2253.900000002235,,directmemory_phase,1296526,,,../static/images/US_Cities_List/shreveport.png,,,,,49,,,0,0,../static/images/US_Cities_List/boulder.png,../static/images/US_Cities_List/huntsville.png,../static/images/US_Cities_List/newhope.png,../static/images/US_Cities_List/newhope.png,../static/images/US_Cities_List/huntsville.png,../static/images/US_Cities_List/boulder.png,0.5,closer,,,,,,,,
null,,html-keyboard-response,1297528,,,<p></p>,,,,,null,,,,,,,,,,,,,,,,,,,,
2161,,directmemory_phase,1299701,,,../static/images/US_Cities_List/hanover.png,,,,,51,,,0,0,../static/images/US_Cities_List/hotsprings.png,../static/images/US_Cities_List/cornwall.png,../static/images/US_Cities_List/peoria.png,../static/images/US_Cities_List/hotsprings.png,../static/images/US_Cities_List/peoria.png,../static/images/US_Cities_List/cornwall.png,0.5,closer,,,,,,,,
null,,html-keyboard-response,1300704,,,<p></p>,,,,,null,,,,,,,,,,,,,,,,,,,,
1276.6000000014901,,directmemory_phase,1301989,,,../static/images/US_Cities_List/newhope.png,,,,,50,,,0.2,1,../static/images/US_Cities_List/carmel.png,../static/images/US_Cities_List/huntsville.png,../static/images/US_Cities_List/westpalmbeach.png,../static/images/US_Cities_List/huntsville.png,../static/images/US_Cities_List/carmel.png,../static/images/US_Cities_List/westpalmbeach.png,1,,,,,,,,,
null,,html-keyboard-response,1302992,,,<p></p>,,,,,null,,,,,,,,,,,,,,,,,,,,
1566.199999999255,,directmemory_phase,1304565,,,../static/images/US_Cities_List/hotsprings.png,,,,,50,,,0.16666666666666666,0,../static/images/US_Cities_List/racine.png,../static/images/US_Cities_List/peoria.png,../static/images/US_Cities_List/huntsville.png,../static/images/US_Cities_List/racine.png,../static/images/US_Cities_List/huntsville.png,../static/images/US_Cities_List/peoria.png,0.5,closer,,,,,,,,
null,,html-keyboard-response,1305566,,,<p></p>,,,,,null,,,,,,,,,,,,,,,,,,,,
2005,,directmemory_phase,1307581,,,../static/images/US_Cities_List/peoria.png,,,,,51,,,0.2857142857142857,1,../static/images/US_Cities_List/hotsprings.png,../static/images/US_Cities_List/leesburg.png,../static/images/US_Cities_List/cornwall.png,../static/images/US_Cities_List/cornwall.png,../static/images/US_Cities_List/leesburg.png,../static/images/US_Cities_List/hotsprings.png,1,,,,,,,,,
null,,html-keyboard-response,1308590,,,<p></p>,,,,,null,,,,,,,,,,,,,,,,,,,,
1550.8999999985099,,directmemory_phase,1310149,,,../static/images/US_Cities_List/westpalmbeach.png,,,,,50,,,0.375,1,../static/images/US_Cities_List/hanover.png,../static/images/US_Cities_List/hotsprings.png,../static/images/US_Cities_List/newhope.png,../static/images/US_Cities_List/hotsprings.png,../static/images/US_Cities_List/hanover.png,../static/images/US_Cities_List/newhope.png,1,,,,,,,,,
null,,html-keyboard-response,1311152,,,<p></p>,,,,,null,,,,,,,,,,,,,,,,,,,,
2308,,directmemory_phase,1313470,,,../static/images/US_Cities_List/racine.png,,,,,49,,,0.3333333333333333,0,../static/images/US_Cities_List/gatlinburg.png,../static/images/US_Cities_List/huntsville.png,../static/images/US_Cities_List/cornwall.png,../static/images/US_Cities_List/huntsville.png,../static/images/US_Cities_List/gatlinburg.png,../static/images/US_Cities_List/cornwall.png,0.5,closer,,,,,,,,
null,,html-keyboard-response,1314476,,,<p></p>,,,,,null,,,,,,,,,,,,,,,,,,,,
2058.900000002235,,directmemory_phase,1316549,,,../static/images/US_Cities_List/hotsprings.png,,,,,49,,,0.4,1,../static/images/US_Cities_List/hanover.png,../static/images/US_Cities_List/cornwall.png,../static/images/US_Cities_List/gatlinburg.png,../static/images/US_Cities_List/hanover.png,../static/images/US_Cities_List/gatlinburg.png,../static/images/US_Cities_List/cornwall.png,1,,,,,,,,,
null,,html-keyboard-response,1317552,,,<p></p>,,,,,null,,,,,,,,,,,,,,,,,,,,
2381.89999999851,,directmemory_phase,1319942,,,../static/images/US_Cities_List/huntsville.png,,,,,51,,,0.45454545454545453,1,../static/images/US_Cities_List/gatlinburg.png,../static/images/US_Cities_List/boulder.png,../static/images/US_Cities_List/newhope.png,../static/images/US_Cities_List/newhope.png,../static/images/US_Cities_List/boulder.png,../static/images/US_Cities_List/gatlinburg.png,1,,,,,,,,,
null,,html-keyboard-response,1320945,,,<p></p>,,,,,null,,,,,,,,,,,,,,,,,,,,
3306.699999999255,,directmemory_phase,1324261,,,../static/images/US_Cities_List/boulder.png,,,,,49,,,0.5,1,../static/images/US_Cities_List/peoria.png,../static/images/US_Cities_List/newhope.png,../static/images/US_Cities_List/hotsprings.png,../static/images/US_Cities_List/peoria.png,../static/images/US_Cities_List/hotsprings.png,../static/images/US_Cities_List/newhope.png,1,,,,,,,,,
null,,html-keyboard-response,1325264,,,<p></p>,,,,,null,,,,,,,,,,,,,,,,,,,,
2130.099999997765,,directmemory_phase,1327405,,,../static/images/US_Cities_List/cornwall.png,,,,,49,,,0.46153846153846156,0,../static/images/US_Cities_List/racine.png,../static/images/US_Cities_List/newhope.png,../static/images/US_Cities_List/shreveport.png,../static/images/US_Cities_List/shreveport.png,../static/images/US_Cities_List/newhope.png,../static/images/US_Cities_List/racine.png,0.5,closer,,,,,,,,
null,,html-keyboard-response,1328411,,,<p></p>,,,,,null,,,,,,,,,,,,,,,,,,,,
2778.900000002235,,directmemory_phase,1331197,,,../static/images/US_Cities_List/hanover.png,,,,,51,,,0.42857142857142855,0,../static/images/US_Cities_List/peoria.png,../static/images/US_Cities_List/boulder.png,../static/images/US_Cities_List/leesburg.png,../static/images/US_Cities_List/boulder.png,../static/images/US_Cities_List/peoria.png,../static/images/US_Cities_List/leesburg.png,0.5,closer,,,,,,,,
null,,html-keyboard-response,1332200,,,<p></p>,,,,,null,,,,,,,,,,,,,,,,,,,,
1661.5,,directmemory_phase,1333868,,,../static/images/US_Cities_List/hotsprings.png,,,,,49,,,0.4666666666666667,1,../static/images/US_Cities_List/westpalmbeach.png,../static/images/US_Cities_List/shreveport.png,../static/images/US_Cities_List/huntsville.png,../static/images/US_Cities_List/westpalmbeach.png,../static/images/US_Cities_List/huntsville.png,../static/images/US_Cities_List/shreveport.png,1,,,,,,,,,
null,,html-keyboard-response,1334871,,,<p></p>,,,,,null,,,,,,,,,,,,,,,,,,,,
2741.89999999851,,directmemory_phase,1337623,,,../static/images/US_Cities_List/peoria.png,,,,,50,,,0.4375,0,../static/images/US_Cities_List/westpalmbeach.png,../static/images/US_Cities_List/leesburg.png,../static/images/US_Cities_List/boulder.png,../static/images/US_Cities_List/boulder.png,../static/images/US_Cities_List/leesburg.png,../static/images/US_Cities_List/westpalmbeach.png,0.5,closer,,,,,,,,
null,,html-keyboard-response,1338627,,,<p></p>,,,,,null,,,,,,,,,,,,,,,,,,,,
2298.5,,directmemory_phase,1340933,,,../static/images/US_Cities_List/cornwall.png,,,,,49,,,0.4117647058823529,0,../static/images/US_Cities_List/hanover.png,../static/images/US_Cities_List/huntsville.png,../static/images/US_Cities_List/leesburg.png,../static/images/US_Cities_List/leesburg.png,../static/images/US_Cities_List/huntsville.png,../static/images/US_Cities_List/hanover.png,0.5,closer,,,,,,,,
null,,html-keyboard-response,1341936,,,<p></p>,,,,,null,,,,,,,,,,,,,,,,,,,,
1579.8999999985099,,directmemory_phase,1343524,,,../static/images/US_Cities_List/boulder.png,,,,,51,,,0.4444444444444444,1,../static/images/US_Cities_List/westpalmbeach.png,../static/images/US_Cities_List/gatlinburg.png,../static/images/US_Cities_List/racine.png,../static/images/US_Cities_List/racine.png,../static/images/US_Cities_List/gatlinburg.png,../static/images/US_Cities_List/westpalmbeach.png,1,,,,,,,,,
null,,html-keyboard-response,1344527,,,<p></p>,,,,,null,,,,,,,,,,,,,,,,,,,,
2412,,directmemory_phase,1346951,,,../static/images/US_Cities_List/gatlinburg.png,,,,,49,,,0.47368421052631576,1,../static/images/US_Cities_List/hanover.png,../static/images/US_Cities_List/newhope.png,../static/images/US_Cities_List/boulder.png,../static/images/US_Cities_List/hanover.png,../static/images/US_Cities_List/boulder.png,../static/images/US_Cities_List/newhope.png,1,,,,,,,,,
null,,html-keyboard-response,1347954,,,<p></p>,,,,,null,,,,,,,,,,,,,,,,,,,,
2091.7999999970198,,directmemory_phase,1350055,,,../static/images/US_Cities_List/racine.png,,,,,50,,,0.45,0,../static/images/US_Cities_List/boulder.png,../static/images/US_Cities_List/shreveport.png,../static/images/US_Cities_List/gatlinburg.png,../static/images/US_Cities_List/boulder.png,../static/images/US_Cities_List/gatlinburg.png,../static/images/US_Cities_List/shreveport.png,0.5,closer,,,,,,,,
null,,html-keyboard-response,1351058,,,<p></p>,,,,,null,,,,,,,,,,,,,,,,,,,,
2776.699999999255,,directmemory_phase,1353844,,,../static/images/US_Cities_List/newhope.png,,,,,49,,,0.42857142857142855,0,../static/images/US_Cities_List/hotsprings.png,../static/images/US_Cities_List/racine.png,../static/images/US_Cities_List/shreveport.png,../static/images/US_Cities_List/shreveport.png,../static/images/US_Cities_List/racine.png,../static/images/US_Cities_List/hotsprings.png,0.5,closer,,,,,,,,
null,,html-keyboard-response,1354853,,,<p></p>,,,,,null,,,,,,,,,,,,,,,,,,,,
2668.89999999851,,directmemory_phase,1357535,,,../static/images/US_Cities_List/hanover.png,,,,,49,,,0.45454545454545453,1,../static/images/US_Cities_List/racine.png,../static/images/US_Cities_List/cornwall.png,../static/images/US_Cities_List/westpalmbeach.png,../static/images/US_Cities_List/racine.png,../static/images/US_Cities_List/westpalmbeach.png,../static/images/US_Cities_List/cornwall.png,1,,,,,,,,,
null,,html-keyboard-response,1358538,,,<p></p>,,,,,null,,,,,,,,,,,,,,,,,,,,
1942.3999999985099,,directmemory_phase,1360488,,,../static/images/US_Cities_List/shreveport.png,,,,,51,,,0.4782608695652174,1,../static/images/US_Cities_List/racine.png,../static/images/US_Cities_List/huntsville.png,../static/images/US_Cities_List/carmel.png,../static/images/US_Cities_List/carmel.png,../static/images/US_Cities_List/huntsville.png,../static/images/US_Cities_List/racine.png,1,,,,,,,,,
null,,html-keyboard-response,1361492,,,<p></p>,,,,,null,,,,,,,,,,,,,,,,,,,,
2374,,directmemory_phase,1363877,,,../static/images/US_Cities_List/racine.png,,,,,49,,,0.5,1,../static/images/US_Cities_List/hanover.png,../static/images/US_Cities_List/leesburg.png,../static/images/US_Cities_List/westpalmbeach.png,../static/images/US_Cities_List/hanover.png,../static/images/US_Cities_List/westpalmbeach.png,../static/images/US_Cities_List/leesburg.png,1,,,,,,,,,
null,,html-keyboard-response,1364882,,,<p></p>,,,,,null,,,,,,,,,,,,,,,,,,,,
2937,,directmemory_phase,1367829,,,../static/images/US_Cities_List/leesburg.png,,,,,49,,,0.48,0,../static/images/US_Cities_List/hanover.png,../static/images/US_Cities_List/shreveport.png,../static/images/US_Cities_List/cornwall.png,../static/images/US_Cities_List/cornwall.png,../static/images/US_Cities_List/shreveport.png,../static/images/US_Cities_List/hanover.png,0.5,closer,,,,,,,,
null,,html-keyboard-response,1368831,,,<p></p>,,,,,null,,,,,,,,,,,,,,,,,,,,
2496.7000000029802,,directmemory_phase,1371337,,,../static/images/US_Cities_List/boulder.png,,,,,50,,,0.46153846153846156,0,../static/images/US_Cities_List/westpalmbeach.png,../static/images/US_Cities_List/cornwall.png,../static/images/US_Cities_List/hanover.png,../static/images/US_Cities_List/hanover.png,../static/images/US_Cities_List/cornwall.png,../static/images/US_Cities_List/westpalmbeach.png,0.5,closer,,,,,,,,
null,,html-keyboard-response,1372340,,,<p></p>,,,,,null,,,,,,,,,,,,,,,,,,,,
2588.2000000029802,,directmemory_phase,1374934,,,../static/images/US_Cities_List/huntsville.png,,,,,51,,,0.4444444444444444,0,../static/images/US_Cities_List/peoria.png,../static/images/US_Cities_List/gatlinburg.png,../static/images/US_Cities_List/shreveport.png,../static/images/US_Cities_List/peoria.png,../static/images/US_Cities_List/shreveport.png,../static/images/US_Cities_List/gatlinburg.png,0.5,closer,,,,,,,,
null,,html-keyboard-response,1375938,,,<p></p>,,,,,null,,,,,,,,,,,,,,,,,,,,
1370.800000000745,,directmemory_phase,1377317,,,../static/images/US_Cities_List/hanover.png,,,,,50,,,0.4642857142857143,1,../static/images/US_Cities_List/peoria.png,../static/images/US_Cities_List/gatlinburg.png,../static/images/US_Cities_List/newhope.png,../static/images/US_Cities_List/gatlinburg.png,../static/images/US_Cities_List/peoria.png,../static/images/US_Cities_List/newhope.png,1,,,,,,,,,
null,,html-keyboard-response,1378319,,,<p></p>,,,,,null,,,,,,,,,,,,,,,,,,,,
1796.199999999255,,directmemory_phase,1380126,,,../static/images/US_Cities_List/cornwall.png,,,,,51,,,0.4482758620689655,0,../static/images/US_Cities_List/peoria.png,../static/images/US_Cities_List/hotsprings.png,../static/images/US_Cities_List/huntsville.png,../static/images/US_Cities_List/peoria.png,../static/images/US_Cities_List/huntsville.png,../static/images/US_Cities_List/hotsprings.png,0.5,closer,,,,,,,,
null,,html-keyboard-response,1381134,,,<p></p>,,,,,null,,,,,,,,,,,,,,,,,,,,
2451.900000002235,,directmemory_phase,1383596,,,../static/images/US_Cities_List/huntsville.png,,,,,51,,,0.4666666666666667,1,../static/images/US_Cities_List/leesburg.png,../static/images/US_Cities_List/boulder.png,../static/images/US_Cities_List/racine.png,../static/images/US_Cities_List/racine.png,../static/images/US_Cities_List/boulder.png,../static/images/US_Cities_List/leesburg.png,1,,,,,,,,,
null,,html-keyboard-response,1384599,,,<p></p>,,,,,null,,,,,,,,,,,,,,,,,,,,
3851.699999999255,,directmemory_phase,1388461,,,../static/images/US_Cities_List/shreveport.png,,,,,50,,,0.45161290322580644,0,../static/images/US_Cities_List/cornwall.png,../static/images/US_Cities_List/hotsprings.png,../static/images/US_Cities_List/peoria.png,../static/images/US_Cities_List/cornwall.png,../static/images/US_Cities_List/peoria.png,../static/images/US_Cities_List/hotsprings.png,0.5,closer,,,,,,,,
null,,html-keyboard-response,1389463,,,<p></p>,,,,,null,,,,,,,,,,,,,,,,,,,,
2388,,directmemory_phase,1391858,,,../static/images/US_Cities_List/peoria.png,,,,,50,,,0.4375,0,../static/images/US_Cities_List/westpalmbeach.png,../static/images/US_Cities_List/hanover.png,../static/images/US_Cities_List/huntsville.png,../static/images/US_Cities_List/huntsville.png,../static/images/US_Cities_List/hanover.png,../static/images/US_Cities_List/westpalmbeach.png,0.5,closer,,,,,,,,
null,,html-keyboard-response,1392860,,,<p></p>,,,,,null,,,,,,,,,,,,,,,,,,,,
2500.599999997765,,intro_1,1395361,,,instruct,,,0,,,,,,,,,,,,,,,,,,,,,,
6403.39999999851,,intro_2,1401766,,,instruct,,,1,Next,,,,,,,,,,,,,,,,,,,,,
7385.5,,intro_3,1409153,,,instruct,,,1,Next,,,,,,,,,,,,,,,,,,,,,
12966,,intro_4,1422121,,,instruct,,,1,Next,,,,,,,,,,,,,,,,,,,,,
21178.300000000745,,intro_5,1443301,,,instruct,,,1,Next,,,,,,,,,,,,,,,,,,,,,
7557.89999999851,,intro_6,1450860,,,instruct,,,1,Next,,,,,,,,,,,,,,,,,,,,,
14075.79999999702,,intro_7,1464938,,,instruct,,,1,Next,,,,,,,,,,,,,,,,,,,,,
16273.20000000298,,intro_8,1481212,,,instruct,,,1,Next,,,,,,,,,,,,,,,,,,,,,
16761.300000000745,,intro_9,1497975,,,instruct,,,1,Next,,,,,,,,,,,,,,,,,,,,,
26367.39999999851,,intro_10,1524344,,,instruct,,,1,Next,,,,,,,,,,,,,,,,,,,,,
15965.5,,intro_11,1540311,,,instruct,,,1,Next,,,,,,,,,,,,,,,,,,,,,
null,,shortestpath_phase,1547820,,,../static/images/US_Cities_List/carmel.png,,,,,null,../static/images/US_Cities_List/westpalmbeach.png,../static/images/US_Cities_List/boulder.png,0,0,,,,../static/images/US_Cities_List/boulder.png,,,,,Two Edge Diff,Four Edge Six Edge,,,,,,
null,,warning_page,1550822,,,warning,,,,,null,,,,,,,,,,,,,,,,,,,,
null,,html-keyboard-response,1551824,,,<p></p>,,,,,null,,,,,,,,,,,,,,,,,,,,
1991,,shortestpath_phase,1553821,,,../static/images/US_Cities_List/leesburg.png,,,,,50,../static/images/US_Cities_List/hotsprings.png,../static/images/US_Cities_List/peoria.png,0.5,1,,,,../static/images/US_Cities_List/peoria.png,,,,,Three Edge Diff,Three Edge Six Edge,,,,,,
null,,html-keyboard-response,1554825,,,<p></p>,,,,,null,,,,,,,,,,,,,,,,,,,,
2229.2999999970198,,shortestpath_phase,1557061,,,../static/images/US_Cities_List/carmel.png,,,,,49,../static/images/US_Cities_List/hotsprings.png,../static/images/US_Cities_List/newhope.png,0.3333333333333333,0,,,,../static/images/US_Cities_List/newhope.png,,,,,Three Edge Diff,Two Edge Five Edge,,,,,,
null,,html-keyboard-response,1558064,,,<p></p>,,,,,null,,,,,,,,,,,,,,,,,,,,
2146.5,,shortestpath_phase,1560218,,,../static/images/US_Cities_List/racine.png,,,,,49,../static/images/US_Cities_List/shreveport.png,../static/images/US_Cities_List/carmel.png,0.5,1,,,,../static/images/US_Cities_List/shreveport.png,,,,,One Edge Diff,Three Edge Four Edge,,,,,,
null,,html-keyboard-response,1561221,,,<p></p>,,,,,null,,,,,,,,,,,,,,,,,,,,
2008.3999999985099,,shortestpath_phase,1563237,,,../static/images/US_Cities_List/carmel.png,,,,,50,../static/images/US_Cities_List/newhope.png,../static/images/US_Cities_List/gatlinburg.png,0.4,0,,,,../static/images/US_Cities_List/newhope.png,,,,,Four Edge Diff,Two Edge Six Edge,,,,,,
null,,html-keyboard-response,1564239,,,<p></p>,,,,,null,,,,,,,,,,,,,,,,,,,,
1311,,shortestpath_phase,1565557,,,../static/images/US_Cities_List/shreveport.png,,,,,50,../static/images/US_Cities_List/westpalmbeach.png,../static/images/US_Cities_List/peoria.png,0.5,1,,,,../static/images/US_Cities_List/peoria.png,,,,,Three Edge Diff,Two Edge Five Edge,,,,,,
null,,html-keyboard-response,1566559,,,<p></p>,,,,,null,,,,,,,,,,,,,,,,,,,,
1488.8999999985099,,shortestpath_phase,1568053,,,../static/images/US_Cities_List/carmel.png,,,,,49,../static/images/US_Cities_List/hanover.png,../static/images/US_Cities_List/huntsville.png,0.42857142857142855,0,,,,../static/images/US_Cities_List/huntsville.png,,,,,Two Edge Diff,Three Edge Five Edge,,,,,,
null,,html-keyboard-response,1569056,,,<p></p>,,,,,null,,,,,,,,,,,,,,,,,,,,
1468.5,,shortestpath_phase,1570533,,,../static/images/US_Cities_List/westpalmbeach.png,,,,,50,../static/images/US_Cities_List/leesburg.png,../static/images/US_Cities_List/newhope.png,0.5,1,,,,../static/images/US_Cities_List/newhope.png,,,,,Two Edge Diff,Four Edge Six Edge,,,,,,
null,,html-keyboard-response,1571535,,,<p></p>,,,,,null,,,,,,,,,,,,,,,,,,,,
1582.5,,shortestpath_phase,1573124,,,../static/images/US_Cities_List/shreveport.png,,,,,49,../static/images/US_Cities_List/racine.png,../static/images/US_Cities_List/westpalmbeach.png,0.5555555555555556,1,,,,../static/images/US_Cities_List/racine.png,,,,,Two Edge Diff,Three Edge Five Edge,,,,,,
null,,html-keyboard-response,1574128,,,<p></p>,,,,,null,,,,,,,,,,,,,,,,,,,,
1341.5999999977648,,shortestpath_phase,1575477,,,../static/images/US_Cities_List/westpalmbeach.png,,,,,50,../static/images/US_Cities_List/carmel.png,../static/images/US_Cities_List/hanover.png,0.6,1,,,,../static/images/US_Cities_List/hanover.png,,,,,Four Edge Diff,Two Edge Six Edge,,,,,,
null,,html-keyboard-response,1576480,,,<p></p>,,,,,null,,,,,,,,,,,,,,,,,,,,
