rt,responses,trial_type,time_elapsed,image_type,sequence,stimulus,cities,city_images,button_pressed,response,key_press,stimulus_left,stimulus_right,accuracy,cumulative_accuracy,stimulus_down_left,stimulus_down_mid,stimulus_down_right,stimulus_correct,stimulus_short,stimulus_far,weighted_accuracy,missedtrial,condition,specific_pairs,imgL_ID,imgR_ID,linedress,linedressed,detour_trial,linedressed_detor
40555,{worker_id:67151b09180ba43415c564e8},id_enter,40561,fictional,interleaved,flights,Cedarwyn; Orchard Bend; New Verdan; Juniper Creek; Baymarsh; Sunmere; Claywater; Hawthorne Bluffs; North Arroya; Granton Ridge; Riverlyn; Hollendale; Delaro Park,US_Cities_List/huntsville.png; US_Cities_List/peoria.png; US_Cities_List/racine.png; US_Cities_List/gatlinburg.png; US_Cities_List/leesburg.png; US_Cities_List/hotsprings.png; US_Cities_List/boulder.png; US_Cities_List/shreveport.png; US_Cities_List/newhope.png; US_Cities_List/hanover.png; US_Cities_List/westpalmbeach.png; US_Cities_List/carmel.png; US_Cities_List/cornwall.png,,,,,,,,,,,,,,,,,,,,,,,
6235.200000047684,,fullscreen,46808,,,make_fullscreen,,,0,,,,,,,,,,,,,,,,,,,,,,
49597.199999809265,,intro_1,96426,,,instruct,,,0,,,,,,,,,,,,,,,,,,,,,,
8094.299999952316,,intro_2,104527,,,instruct,,,1,Next,,,,,,,,,,,,,,,,,,,,,
7565.799999952316,,intro_3,112095,,,instruct,,,1,Next,,,,,,,,,,,,,,,,,,,,,
6882.899999856949,,intro_4,118984,,,instruct,,,1,Next,,,,,,,,,,,,,,,,,,,,,
9403,,intro_5,128390,,,instruct,,,1,Next,,,,,,,,,,,,,,,,,,,,,
14069.100000143051,,intro_6,142463,,,instruct,,,1,Next,,,,,,,,,,,,,,,,,,,,,
5510.299999952316,,intro_7,147977,,,instruct,,,1,Next,,,,,,,,,,,,,,,,,,,,,
null,,learn_prac_1,150989,,,lean_prac_1,,,,,null,,,,,,,,,,,,,,,,,,,,
null,,html-keyboard-response,151996,,,<p></p>,,,,,null,,,,,,,,,,,,,,,,,,,,
3861.5,,intro_1,155860,,,instruct,,,0,,,,,,,,,,,,,,,,,,,,,,
8636.200000047684,,intro_2,164500,,,instruct,,,1,Next,,,,,,,,,,,,,,,,,,,,,
null,,learn_prac_2,167511,,,lean_prac_2,,,,,null,,,,,,,,,,,,,,,,,,,,
null,,html-keyboard-response,168516,,,<p></p>,,,,,null,,,,,,,,,,,,,,,,,,,,
2577,,intro_1,171095,,,instruct,,,0,,,,,,,,,,,,,,,,,,,,,,
6806.099999904633,,intro_2,177903,,,instruct,,,1,Next,,,,,,,,,,,,,,,,,,,,,
17266.299999952316,,intro_3,195173,,,instruct,,,1,Next,,,,,,,,,,,,,,,,,,,,,
null,,prac_atten_color_black,195749,,,black_plus_sign,,,,,null,,,,,,,,,,,,,,,,,,,,
662.4000000953674,,prac_atten_color,196589,,,prac_stop_color,,,,,49,,,,,,,,,,,,,,,,,,,,
null,,prac_atten_color_black,198600,,,black_plus_sign,,,,,null,,,,,,,,,,,,,,,,,,,,
null,,prac_atten_color_black,199171,,,black_plus_sign,,,,,null,,,,,,,,,,,,,,,,,,,,
null,,prac_atten_color,200259,,,prac_stop_color,,,,,null,,,,,,,,,,,,,,,,,,,,
107.5,,prac_atten_color_black,202270,,,black_plus_sign,,,,,50,,,,,,,,,,,,,,,,,,,,
null,,prac_atten_color_black,202590,,,black_plus_sign,,,,,null,,,,,,,,,,,,,,,,,,,,
661.7999999523163,,prac_atten_color,203470,,,prac_stop_color,,,,,50,,,,,,,,,,,,,,,,,,,,
null,,prac_atten_color_black,205474,,,black_plus_sign,,,,,null,,,,,,,,,,,,,,,,,,,,
null,,prac_atten_color_black,206014,,,black_plus_sign,,,,,null,,,,,,,,,,,,,,,,,,,,
null,,prac_atten_color,206458,,,prac_stop_color,,,,,null,,,,,,,,,,,,,,,,,,,,
125.70000004768372,,prac_atten_color_black,208465,,,black_plus_sign,,,,,49,,,,,,,,,,,,,,,,,,,,
null,,prac_atten_color_black,209447,,,black_plus_sign,,,,,null,,,,,,,,,,,,,,,,,,,,
null,,prac_atten_color,209867,,,prac_stop_color,,,,,null,,,,,,,,,,,,,,,,,,,,
119.90000009536743,,prac_atten_color_black,211870,,,black_plus_sign,,,,,50,,,,,,,,,,,,,,,,,,,,
null,,prac_atten_color_black,212864,,,black_plus_sign,,,,,null,,,,,,,,,,,,,,,,,,,,
484.09999990463257,,prac_atten_color,213827,,,prac_stop_color,,,,,50,,,,,,,,,,,,,,,,,,,,
null,,prac_atten_color_black,215836,,,black_plus_sign,,,,,null,,,,,,,,,,,,,,,,,,,,
null,,prac_atten_color_black,216287,,,black_plus_sign,,,,,null,,,,,,,,,,,,,,,,,,,,
342.69999980926514,,prac_atten_color,216781,,,prac_stop_color,,,,,49,,,,,,,,,,,,,,,,,,,,
null,,prac_atten_color_black,218790,,,black_plus_sign,,,,,null,,,,,,,,,,,,,,,,,,,,
null,,prac_atten_color_black,219711,,,black_plus_sign,,,,,null,,,,,,,,,,,,,,,,,,,,
503.5,,prac_atten_color,220364,,,prac_stop_color,,,,,50,,,,,,,,,,,,,,,,,,,,
null,,prac_atten_color_black,222373,,,black_plus_sign,,,,,null,,,,,,,,,,,,,,,,,,,,
null,,prac_atten_color_black,223130,,,black_plus_sign,,,,,null,,,,,,,,,,,,,,,,,,,,
453.39999985694885,,prac_atten_color,223656,,,prac_stop_color,,,,,49,,,,,,,,,,,,,,,,,,,,
null,,prac_atten_color_black,225660,,,black_plus_sign,,,,,null,,,,,,,,,,,,,,,,,,,,
null,,prac_atten_color_black,226551,,,black_plus_sign,,,,,null,,,,,,,,,,,,,,,,,,,,
419.09999990463257,,prac_atten_color,227234,,,prac_stop_color,,,,,49,,,,,,,,,,,,,,,,,,,,
null,,prac_atten_color_black,229237,,,black_plus_sign,,,,,null,,,,,,,,,,,,,,,,,,,,
9989,,attentioncheck_feedback,239230,,,cross_check_feedback,,,0,,,,,,,,,,,,,,,,,,,,,,
6849,,last_instruct,246081,,,instruct,,,,,32,,,,,,,,,,,,,,,,,,,,
null,,learn_phase(without_color),249120,,,black_plus_sign,,,,,null,US_Cities_List/hotsprings.png,US_Cities_List/boulder.png,,,,,,,,,,,,,,,,,,
null,,black_cross(without_color),249966,,,blue,,,,,null,US_Cities_List/hotsprings.png,US_Cities_List/boulder.png,,,,,,,,,,,,,,,,,,
486.2000000476837,,rt_plussign_withcolor,250471,,,blue,,,,,49,US_Cities_List/hotsprings.png,US_Cities_List/boulder.png,,,,,,,,,,,,,,,,,,
null,,rt_thecrossant_black,251644,,,black_plus_sign,,,,,null,,,1,1,,,,,,,,,,,,,,,,
null,,color_black,251753,,,black_plus_sign,,,,,null,,,,,,,,,,,,,,,,,,,,
null,,learn_phase(without_color),254795,,,black_plus_sign,,,,,null,US_Cities_List/racine.png,US_Cities_List/westpalmbeach.png,,,,,,,,,,,,,,,,,,
null,,black_cross(without_color),255718,,,blue,,,,,null,US_Cities_List/racine.png,US_Cities_List/westpalmbeach.png,,,,,,,,,,,,,,,,,,
null,,rt_plussign_withcolor,256227,,,blue,,,,,null,US_Cities_List/racine.png,US_Cities_List/westpalmbeach.png,,,,,,,,,,,,,,,,,,
676,,rt_thecrossant_black,257320,,,black_plus_sign,,,,,49,,,1,1,,,,,,,,,,,,,,,,
null,,color_black,257431,,,black_plus_sign,,,,,null,,,,,,,,,,,,,,,,,,,,
null,,learn_phase(without_color),260497,,,black_plus_sign,,,,,null,US_Cities_List/leesburg.png,US_Cities_List/gatlinburg.png,,,,,,,,,,,,,,,,,,
null,,black_cross(without_color),261548,,,yellow,,,,,null,US_Cities_List/leesburg.png,US_Cities_List/gatlinburg.png,,,,,,,,,,,,,,,,,,
null,,rt_plussign_withcolor,262050,,,yellow,,,,,null,US_Cities_List/leesburg.png,US_Cities_List/gatlinburg.png,,,,,,,,,,,,,,,,,,
1079.9000000953674,,rt_thecrossant_black,263021,,,black_plus_sign,,,,,50,,,1,1,,,,,,,,,,,,,,,,
null,,color_black,263132,,,black_plus_sign,,,,,null,,,,,,,,,,,,,,,,,,,,
null,,learn_phase(without_color),266169,,,black_plus_sign,,,,,null,US_Cities_List/gatlinburg.png,US_Cities_List/carmel.png,,,,,,,,,,,,,,,,,,
null,,black_cross(without_color),266637,,,yellow,,,,,null,US_Cities_List/gatlinburg.png,US_Cities_List/carmel.png,,,,,,,,,,,,,,,,,,
null,,rt_plussign_withcolor,267141,,,yellow,,,,,null,US_Cities_List/gatlinburg.png,US_Cities_List/carmel.png,,,,,,,,,,,,,,,,,,
1332.7999999523163,,rt_thecrossant_black,268690,,,black_plus_sign,,,,,50,,,1,1,,,,,,,,,,,,,,,,
null,,color_black,268806,,,black_plus_sign,,,,,null,,,,,,,,,,,,,,,,,,,,
null,,learn_phase(without_color),271858,,,black_plus_sign,,,,,null,US_Cities_List/newhope.png,US_Cities_List/hotsprings.png,,,,,,,,,,,,,,,,,,
null,,black_cross(without_color),272794,,,yellow,,,,,null,US_Cities_List/newhope.png,US_Cities_List/hotsprings.png,,,,,,,,,,,,,,,,,,
null,,rt_plussign_withcolor,273297,,,yellow,,,,,null,US_Cities_List/newhope.png,US_Cities_List/hotsprings.png,,,,,,,,,,,,,,,,,,
740.8999998569489,,rt_thecrossant_black,274372,,,black_plus_sign,,,,,50,,,1,1,,,,,,,,,,,,,,,,
null,,color_black,274483,,,black_plus_sign,,,,,null,,,,,,,,,,,,,,,,,,,,
null,,learn_phase(without_color),277546,,,black_plus_sign,,,,,null,US_Cities_List/gatlinburg.png,US_Cities_List/carmel.png,,,,,,,,,,,,,,,,,,
null,,black_cross(without_color),278196,,,yellow,,,,,null,US_Cities_List/gatlinburg.png,US_Cities_List/carmel.png,,,,,,,,,,,,,,,,,,
null,,rt_plussign_withcolor,278704,,,yellow,,,,,null,US_Cities_List/gatlinburg.png,US_Cities_List/carmel.png,,,,,,,,,,,,,,,,,,
1165.1000001430511,,rt_thecrossant_black,280075,,,black_plus_sign,,,,,50,,,1,1,,,,,,,,,,,,,,,,
null,,color_black,280185,,,black_plus_sign,,,,,null,,,,,,,,,,,,,,,,,,,,
null,,learn_phase(without_color),283253,,,black_plus_sign,,,,,null,US_Cities_List/gatlinburg.png,US_Cities_List/leesburg.png,,,,,,,,,,,,,,,,,,
null,,black_cross(without_color),283780,,,yellow,,,,,null,US_Cities_List/gatlinburg.png,US_Cities_List/leesburg.png,,,,,,,,,,,,,,,,,,
455.5,,rt_plussign_withcolor,284297,,,yellow,,,,,50,US_Cities_List/gatlinburg.png,US_Cities_List/leesburg.png,,,,,,,,,,,,,,,,,,
null,,rt_thecrossant_black,285795,,,black_plus_sign,,,,,null,,,1,1,,,,,,,,,,,,,,,,
null,,color_black,285913,,,black_plus_sign,,,,,null,,,,,,,,,,,,,,,,,,,,
null,,learn_phase(without_color),288945,,,black_plus_sign,,,,,null,US_Cities_List/shreveport.png,US_Cities_List/newhope.png,,,,,,,,,,,,,,,,,,
null,,black_cross(without_color),289458,,,yellow,,,,,null,US_Cities_List/shreveport.png,US_Cities_List/newhope.png,,,,,,,,,,,,,,,,,,
447,,rt_plussign_withcolor,289968,,,yellow,,,,,50,US_Cities_List/shreveport.png,US_Cities_List/newhope.png,,,,,,,,,,,,,,,,,,
null,,rt_thecrossant_black,291469,,,black_plus_sign,,,,,null,,,1,1,,,,,,,,,,,,,,,,
null,,color_black,291586,,,black_plus_sign,,,,,null,,,,,,,,,,,,,,,,,,,,
null,,learn_phase(without_color),294639,,,black_plus_sign,,,,,null,US_Cities_List/newhope.png,US_Cities_List/boulder.png,,,,,,,,,,,,,,,,,,
null,,black_cross(without_color),295367,,,blue,,,,,null,US_Cities_List/newhope.png,US_Cities_List/boulder.png,,,,,,,,,,,,,,,,,,
null,,rt_plussign_withcolor,295870,,,blue,,,,,null,US_Cities_List/newhope.png,US_Cities_List/boulder.png,,,,,,,,,,,,,,,,,,
704.2999999523163,,rt_thecrossant_black,297164,,,black_plus_sign,,,,,49,,,1,1,,,,,,,,,,,,,,,,
null,,color_black,297268,,,black_plus_sign,,,,,null,,,,,,,,,,,,,,,,,,,,
null,,learn_phase(without_color),300314,,,black_plus_sign,,,,,null,US_Cities_List/westpalmbeach.png,US_Cities_List/newhope.png,,,,,,,,,,,,,,,,,,
null,,black_cross(without_color),301277,,,blue,,,,,null,US_Cities_List/westpalmbeach.png,US_Cities_List/newhope.png,,,,,,,,,,,,,,,,,,
null,,rt_plussign_withcolor,301784,,,blue,,,,,null,US_Cities_List/westpalmbeach.png,US_Cities_List/newhope.png,,,,,,,,,,,,,,,,,,
840,,rt_thecrossant_black,302856,,,black_plus_sign,,,,,49,,,1,1,,,,,,,,,,,,,,,,
null,,color_black,302967,,,black_plus_sign,,,,,null,,,,,,,,,,,,,,,,,,,,
null,,learn_phase(without_color),306005,,,black_plus_sign,,,,,null,US_Cities_List/hanover.png,US_Cities_List/shreveport.png,,,,,,,,,,,,,,,,,,
null,,black_cross(without_color),306669,,,blue,,,,,null,US_Cities_List/hanover.png,US_Cities_List/shreveport.png,,,,,,,,,,,,,,,,,,
483,,rt_plussign_withcolor,307179,,,blue,,,,,49,US_Cities_List/hanover.png,US_Cities_List/shreveport.png,,,,,,,,,,,,,,,,,,
null,,rt_thecrossant_black,308530,,,black_plus_sign,,,,,null,,,1,1,,,,,,,,,,,,,,,,
null,,color_black,308639,,,black_plus_sign,,,,,null,,,,,,,,,,,,,,,,,,,,
null,,learn_phase(without_color),311690,,,black_plus_sign,,,,,null,US_Cities_List/gatlinburg.png,US_Cities_List/peoria.png,,,,,,,,,,,,,,,,,,
null,,black_cross(without_color),312496,,,blue,,,,,null,US_Cities_List/gatlinburg.png,US_Cities_List/peoria.png,,,,,,,,,,,,,,,,,,
405,,rt_plussign_withcolor,313007,,,blue,,,,,49,US_Cities_List/gatlinburg.png,US_Cities_List/peoria.png,,,,,,,,,,,,,,,,,,
null,,rt_thecrossant_black,314215,,,black_plus_sign,,,,,null,,,1,1,,,,,,,,,,,,,,,,
null,,color_black,314325,,,black_plus_sign,,,,,null,,,,,,,,,,,,,,,,,,,,
null,,learn_phase(without_color),317393,,,black_plus_sign,,,,,null,US_Cities_List/gatlinburg.png,US_Cities_List/peoria.png,,,,,,,,,,,,,,,,,,
null,,black_cross(without_color),318478,,,blue,,,,,null,US_Cities_List/gatlinburg.png,US_Cities_List/peoria.png,,,,,,,,,,,,,,,,,,
427.90000009536743,,rt_plussign_withcolor,318981,,,blue,,,,,49,US_Cities_List/gatlinburg.png,US_Cities_List/peoria.png,,,,,,,,,,,,,,,,,,
null,,rt_thecrossant_black,319906,,,black_plus_sign,,,,,null,,,1,1,,,,,,,,,,,,,,,,
null,,color_black,320009,,,black_plus_sign,,,,,null,,,,,,,,,,,,,,,,,,,,
null,,learn_phase(without_color),323048,,,black_plus_sign,,,,,null,US_Cities_List/carmel.png,US_Cities_List/gatlinburg.png,,,,,,,,,,,,,,,,,,
null,,black_cross(without_color),323625,,,blue,,,,,null,US_Cities_List/carmel.png,US_Cities_List/gatlinburg.png,,,,,,,,,,,,,,,,,,
406,,rt_plussign_withcolor,324135,,,blue,,,,,49,US_Cities_List/carmel.png,US_Cities_List/gatlinburg.png,,,,,,,,,,,,,,,,,,
null,,rt_thecrossant_black,325578,,,black_plus_sign,,,,,null,,,1,1,,,,,,,,,,,,,,,,
null,,color_black,325696,,,black_plus_sign,,,,,null,,,,,,,,,,,,,,,,,,,,
null,,learn_phase(without_color),328750,,,black_plus_sign,,,,,null,US_Cities_List/gatlinburg.png,US_Cities_List/carmel.png,,,,,,,,,,,,,,,,,,
null,,black_cross(without_color),329437,,,yellow,,,,,null,US_Cities_List/gatlinburg.png,US_Cities_List/carmel.png,,,,,,,,,,,,,,,,,,
355.7999999523163,,rt_plussign_withcolor,329940,,,yellow,,,,,50,US_Cities_List/gatlinburg.png,US_Cities_List/carmel.png,,,,,,,,,,,,,,,,,,
null,,rt_thecrossant_black,331281,,,black_plus_sign,,,,,null,,,1,1,,,,,,,,,,,,,,,,
null,,color_black,331391,,,black_plus_sign,,,,,null,,,,,,,,,,,,,,,,,,,,
null,,learn_phase(without_color),334450,,,black_plus_sign,,,,,null,US_Cities_List/cornwall.png,US_Cities_List/boulder.png,,,,,,,,,,,,,,,,,,
null,,black_cross(without_color),335328,,,blue,,,,,null,US_Cities_List/cornwall.png,US_Cities_List/boulder.png,,,,,,,,,,,,,,,,,,
null,,rt_plussign_withcolor,335833,,,blue,,,,,null,US_Cities_List/cornwall.png,US_Cities_List/boulder.png,,,,,,,,,,,,,,,,,,
903,,rt_thecrossant_black,336973,,,black_plus_sign,,,,,49,,,1,1,,,,,,,,,,,,,,,,
null,,color_black,337086,,,black_plus_sign,,,,,null,,,,,,,,,,,,,,,,,,,,
null,,learn_phase(without_color),340119,,,black_plus_sign,,,,,null,US_Cities_List/peoria.png,US_Cities_List/huntsville.png,,,,,,,,,,,,,,,,,,
null,,black_cross(without_color),341204,,,yellow,,,,,null,US_Cities_List/peoria.png,US_Cities_List/huntsville.png,,,,,,,,,,,,,,,,,,
null,,rt_plussign_withcolor,341716,,,yellow,,,,,null,US_Cities_List/peoria.png,US_Cities_List/huntsville.png,,,,,,,,,,,,,,,,,,
1041.1000001430511,,rt_thecrossant_black,342646,,,black_plus_sign,,,,,50,,,1,1,,,,,,,,,,,,,,,,
null,,color_black,342754,,,black_plus_sign,,,,,null,,,,,,,,,,,,,,,,,,,,
null,,learn_phase(without_color),345803,,,black_plus_sign,,,,,null,US_Cities_List/gatlinburg.png,US_Cities_List/leesburg.png,,,,,,,,,,,,,,,,,,
null,,black_cross(without_color),346540,,,blue,,,,,null,US_Cities_List/gatlinburg.png,US_Cities_List/leesburg.png,,,,,,,,,,,,,,,,,,
394.7999999523163,,rt_plussign_withcolor,347048,,,blue,,,,,49,US_Cities_List/gatlinburg.png,US_Cities_List/leesburg.png,,,,,,,,,,,,,,,,,,
null,,rt_thecrossant_black,348339,,,black_plus_sign,,,,,null,,,1,1,,,,,,,,,,,,,,,,
null,,color_black,348442,,,black_plus_sign,,,,,null,,,,,,,,,,,,,,,,,,,,
null,,learn_phase(without_color),351478,,,black_plus_sign,,,,,null,US_Cities_List/huntsville.png,US_Cities_List/peoria.png,,,,,,,,,,,,,,,,,,
null,,black_cross(without_color),352399,,,blue,,,,,null,US_Cities_List/huntsville.png,US_Cities_List/peoria.png,,,,,,,,,,,,,,,,,,
441.39999985694885,,rt_plussign_withcolor,352915,,,blue,,,,,49,US_Cities_List/huntsville.png,US_Cities_List/peoria.png,,,,,,,,,,,,,,,,,,
null,,rt_thecrossant_black,354014,,,black_plus_sign,,,,,null,,,1,1,,,,,,,,,,,,,,,,
null,,color_black,354121,,,black_plus_sign,,,,,null,,,,,,,,,,,,,,,,,,,,
null,,learn_phase(without_color),357165,,,black_plus_sign,,,,,null,US_Cities_List/huntsville.png,US_Cities_List/peoria.png,,,,,,,,,,,,,,,,,,
null,,black_cross(without_color),358174,,,yellow,,,,,null,US_Cities_List/huntsville.png,US_Cities_List/peoria.png,,,,,,,,,,,,,,,,,,
null,,rt_plussign_withcolor,358687,,,yellow,,,,,null,US_Cities_List/huntsville.png,US_Cities_List/peoria.png,,,,,,,,,,,,,,,,,,
1412.3000001907349,,rt_thecrossant_black,359693,,,black_plus_sign,,,,,50,,,1,1,,,,,,,,,,,,,,,,
null,,color_black,359805,,,black_plus_sign,,,,,null,,,,,,,,,,,,,,,,,,,,
null,,learn_phase(without_color),362843,,,black_plus_sign,,,,,null,US_Cities_List/hotsprings.png,US_Cities_List/boulder.png,,,,,,,,,,,,,,,,,,
null,,black_cross(without_color),363325,,,yellow,,,,,null,US_Cities_List/hotsprings.png,US_Cities_List/boulder.png,,,,,,,,,,,,,,,,,,
null,,rt_plussign_withcolor,363828,,,yellow,,,,,null,US_Cities_List/hotsprings.png,US_Cities_List/boulder.png,,,,,,,,,,,,,,,,,,
1373,,rt_thecrossant_black,365363,,,black_plus_sign,,,,,50,,,1,1,,,,,,,,,,,,,,,,
null,,color_black,365475,,,black_plus_sign,,,,,null,,,,,,,,,,,,,,,,,,,,
null,,learn_phase(without_color),368538,,,black_plus_sign,,,,,null,US_Cities_List/peoria.png,US_Cities_List/racine.png,,,,,,,,,,,,,,,,,,
null,,black_cross(without_color),369517,,,blue,,,,,null,US_Cities_List/peoria.png,US_Cities_List/racine.png,,,,,,,,,,,,,,,,,,
457.90000009536743,,rt_plussign_withcolor,370034,,,blue,,,,,49,US_Cities_List/peoria.png,US_Cities_List/racine.png,,,,,,,,,,,,,,,,,,
null,,rt_thecrossant_black,371066,,,black_plus_sign,,,,,null,,,1,1,,,,,,,,,,,,,,,,
null,,color_black,371168,,,black_plus_sign,,,,,null,,,,,,,,,,,,,,,,,,,,
null,,learn_phase(without_color),374214,,,black_plus_sign,,,,,null,US_Cities_List/huntsville.png,US_Cities_List/peoria.png,,,,,,,,,,,,,,,,,,
null,,black_cross(without_color),375184,,,yellow,,,,,null,US_Cities_List/huntsville.png,US_Cities_List/peoria.png,,,,,,,,,,,,,,,,,,
null,,rt_plussign_withcolor,375701,,,yellow,,,,,null,US_Cities_List/huntsville.png,US_Cities_List/peoria.png,,,,,,,,,,,,,,,,,,
1149.6000001430511,,rt_thecrossant_black,376750,,,black_plus_sign,,,,,50,,,1,1,,,,,,,,,,,,,,,,
null,,color_black,376859,,,black_plus_sign,,,,,null,,,,,,,,,,,,,,,,,,,,
null,,learn_phase(without_color),379900,,,black_plus_sign,,,,,null,US_Cities_List/hanover.png,US_Cities_List/shreveport.png,,,,,,,,,,,,,,,,,,
null,,black_cross(without_color),380850,,,blue,,,,,null,US_Cities_List/hanover.png,US_Cities_List/shreveport.png,,,,,,,,,,,,,,,,,,
378.7999999523163,,rt_plussign_withcolor,381359,,,blue,,,,,49,US_Cities_List/hanover.png,US_Cities_List/shreveport.png,,,,,,,,,,,,,,,,,,
null,,rt_thecrossant_black,382424,,,black_plus_sign,,,,,null,,,1,1,,,,,,,,,,,,,,,,
null,,color_black,382535,,,black_plus_sign,,,,,null,,,,,,,,,,,,,,,,,,,,
null,,learn_phase(without_color),385600,,,black_plus_sign,,,,,null,US_Cities_List/peoria.png,US_Cities_List/racine.png,,,,,,,,,,,,,,,,,,
null,,black_cross(without_color),386436,,,yellow,,,,,null,US_Cities_List/peoria.png,US_Cities_List/racine.png,,,,,,,,,,,,,,,,,,
null,,rt_plussign_withcolor,386950,,,yellow,,,,,null,US_Cities_List/peoria.png,US_Cities_List/racine.png,,,,,,,,,,,,,,,,,,
1084.9000000953674,,rt_thecrossant_black,388129,,,black_plus_sign,,,,,50,,,1,1,,,,,,,,,,,,,,,,
null,,color_black,388241,,,black_plus_sign,,,,,null,,,,,,,,,,,,,,,,,,,,
null,,learn_phase(without_color),391278,,,black_plus_sign,,,,,null,US_Cities_List/carmel.png,US_Cities_List/westpalmbeach.png,,,,,,,,,,,,,,,,,,
null,,black_cross(without_color),392247,,,blue,,,,,null,US_Cities_List/carmel.png,US_Cities_List/westpalmbeach.png,,,,,,,,,,,,,,,,,,
null,,rt_plussign_withcolor,392757,,,blue,,,,,null,US_Cities_List/carmel.png,US_Cities_List/westpalmbeach.png,,,,,,,,,,,,,,,,,,
null,,rt_thecrossant_black,393804,,,black_plus_sign,,,,,null,,,,1,,,,,,,,,,,,,,,,
null,,color_black,393916,,,black_plus_sign,,,,,null,,,,,,,,,,,,,,,,,,,,
null,,learn_phase(without_color),396963,,,black_plus_sign,,,,,null,US_Cities_List/shreveport.png,US_Cities_List/newhope.png,,,,,,,,,,,,,,,,,,
null,,black_cross(without_color),398061,,,blue,,,,,null,US_Cities_List/shreveport.png,US_Cities_List/newhope.png,,,,,,,,,,,,,,,,,,
null,,rt_plussign_withcolor,398564,,,blue,,,,,null,US_Cities_List/shreveport.png,US_Cities_List/newhope.png,,,,,,,,,,,,,,,,,,
1174.8999998569489,,rt_thecrossant_black,399479,,,black_plus_sign,,,,,49,,,1,1,,,,,,,,,,,,,,,,
null,,color_black,399590,,,black_plus_sign,,,,,null,,,,,,,,,,,,,,,,,,,,
null,,learn_phase(without_color),402627,,,black_plus_sign,,,,,null,US_Cities_List/boulder.png,US_Cities_List/hotsprings.png,,,,,,,,,,,,,,,,,,
null,,black_cross(without_color),403060,,,blue,,,,,null,US_Cities_List/boulder.png,US_Cities_List/hotsprings.png,,,,,,,,,,,,,,,,,,
null,,rt_plussign_withcolor,403564,,,blue,,,,,null,US_Cities_List/boulder.png,US_Cities_List/hotsprings.png,,,,,,,,,,,,,,,,,,
1214.7000000476837,,rt_thecrossant_black,405151,,,black_plus_sign,,,,,49,,,1,1,,,,,,,,,,,,,,,,
null,,color_black,405259,,,black_plus_sign,,,,,null,,,,,,,,,,,,,,,,,,,,
null,,learn_phase(without_color),408295,,,black_plus_sign,,,,,null,US_Cities_List/westpalmbeach.png,US_Cities_List/carmel.png,,,,,,,,,,,,,,,,,,
null,,black_cross(without_color),408872,,,yellow,,,,,null,US_Cities_List/westpalmbeach.png,US_Cities_List/carmel.png,,,,,,,,,,,,,,,,,,
null,,rt_plussign_withcolor,409381,,,yellow,,,,,null,US_Cities_List/westpalmbeach.png,US_Cities_List/carmel.png,,,,,,,,,,,,,,,,,,
null,,rt_thecrossant_black,410834,,,black_plus_sign,,,,,null,,,,1,,,,,,,,,,,,,,,,
null,,color_black,410951,,,black_plus_sign,,,,,null,,,,,,,,,,,,,,,,,,,,
null,,learn_phase(without_color),413997,,,black_plus_sign,,,,,null,US_Cities_List/peoria.png,US_Cities_List/racine.png,,,,,,,,,,,,,,,,,,
null,,black_cross(without_color),414999,,,yellow,,,,,null,US_Cities_List/peoria.png,US_Cities_List/racine.png,,,,,,,,,,,,,,,,,,
null,,rt_plussign_withcolor,415503,,,yellow,,,,,null,US_Cities_List/peoria.png,US_Cities_List/racine.png,,,,,,,,,,,,,,,,,,
746.3000001907349,,rt_thecrossant_black,416531,,,black_plus_sign,,,,,50,,,1,1,,,,,,,,,,,,,,,,
null,,color_black,416640,,,black_plus_sign,,,,,null,,,,,,,,,,,,,,,,,,,,
null,,learn_phase(without_color),419704,,,black_plus_sign,,,,,null,US_Cities_List/cornwall.png,US_Cities_List/boulder.png,,,,,,,,,,,,,,,,,,
null,,black_cross(without_color),420180,,,blue,,,,,null,US_Cities_List/cornwall.png,US_Cities_List/boulder.png,,,,,,,,,,,,,,,,,,
null,,rt_plussign_withcolor,420687,,,blue,,,,,null,US_Cities_List/cornwall.png,US_Cities_List/boulder.png,,,,,,,,,,,,,,,,,,
1175.7999999523163,,rt_thecrossant_black,422222,,,black_plus_sign,,,,,49,,,1,1,,,,,,,,,,,,,,,,
null,,color_black,422330,,,black_plus_sign,,,,,null,,,,,,,,,,,,,,,,,,,,
null,,learn_phase(without_color),425360,,,black_plus_sign,,,,,null,US_Cities_List/westpalmbeach.png,US_Cities_List/newhope.png,,,,,,,,,,,,,,,,,,
null,,black_cross(without_color),426353,,,blue,,,,,null,US_Cities_List/westpalmbeach.png,US_Cities_List/newhope.png,,,,,,,,,,,,,,,,,,
434.39999985694885,,rt_plussign_withcolor,426867,,,blue,,,,,49,US_Cities_List/westpalmbeach.png,US_Cities_List/newhope.png,,,,,,,,,,,,,,,,,,
null,,rt_thecrossant_black,427893,,,black_plus_sign,,,,,null,,,1,1,,,,,,,,,,,,,,,,
null,,color_black,428003,,,black_plus_sign,,,,,null,,,,,,,,,,,,,,,,,,,,
null,,learn_phase(without_color),431047,,,black_plus_sign,,,,,null,US_Cities_List/westpalmbeach.png,US_Cities_List/carmel.png,,,,,,,,,,,,,,,,,,
null,,black_cross(without_color),431920,,,blue,,,,,null,US_Cities_List/westpalmbeach.png,US_Cities_List/carmel.png,,,,,,,,,,,,,,,,,,
484.2999999523163,,rt_plussign_withcolor,432429,,,blue,,,,,49,US_Cities_List/westpalmbeach.png,US_Cities_List/carmel.png,,,,,,,,,,,,,,,,,,
null,,rt_thecrossant_black,433579,,,black_plus_sign,,,,,null,,,1,1,,,,,,,,,,,,,,,,
null,,color_black,433690,,,black_plus_sign,,,,,null,,,,,,,,,,,,,,,,,,,,
null,,learn_phase(without_color),436752,,,black_plus_sign,,,,,null,US_Cities_List/newhope.png,US_Cities_List/hotsprings.png,,,,,,,,,,,,,,,,,,
null,,black_cross(without_color),437814,,,yellow,,,,,null,US_Cities_List/newhope.png,US_Cities_List/hotsprings.png,,,,,,,,,,,,,,,,,,
441,,rt_plussign_withcolor,438330,,,yellow,,,,,50,US_Cities_List/newhope.png,US_Cities_List/hotsprings.png,,,,,,,,,,,,,,,,,,
null,,rt_thecrossant_black,439291,,,black_plus_sign,,,,,null,,,1,1,,,,,,,,,,,,,,,,
null,,color_black,439402,,,black_plus_sign,,,,,null,,,,,,,,,,,,,,,,,,,,
null,,learn_phase(without_color),442459,,,black_plus_sign,,,,,null,US_Cities_List/hotsprings.png,US_Cities_List/racine.png,,,,,,,,,,,,,,,,,,
null,,black_cross(without_color),443337,,,yellow,,,,,null,US_Cities_List/hotsprings.png,US_Cities_List/racine.png,,,,,,,,,,,,,,,,,,
460.89999985694885,,rt_plussign_withcolor,443840,,,yellow,,,,,50,US_Cities_List/hotsprings.png,US_Cities_List/racine.png,,,,,,,,,,,,,,,,,,
null,,rt_thecrossant_black,444976,,,black_plus_sign,,,,,null,,,1,1,,,,,,,,,,,,,,,,
null,,color_black,445081,,,black_plus_sign,,,,,null,,,,,,,,,,,,,,,,,,,,
null,,learn_phase(without_color),448131,,,black_plus_sign,,,,,null,US_Cities_List/cornwall.png,US_Cities_List/boulder.png,,,,,,,,,,,,,,,,,,
null,,black_cross(without_color),449042,,,blue,,,,,null,US_Cities_List/cornwall.png,US_Cities_List/boulder.png,,,,,,,,,,,,,,,,,,
null,,rt_plussign_withcolor,449551,,,blue,,,,,null,US_Cities_List/cornwall.png,US_Cities_List/boulder.png,,,,,,,,,,,,,,,,,,
1324.0999999046326,,rt_thecrossant_black,450667,,,black_plus_sign,,,,,49,,,1,1,,,,,,,,,,,,,,,,
null,,color_black,450778,,,black_plus_sign,,,,,null,,,,,,,,,,,,,,,,,,,,
null,,learn_phase(without_color),453834,,,black_plus_sign,,,,,null,US_Cities_List/cornwall.png,US_Cities_List/boulder.png,,,,,,,,,,,,,,,,,,
null,,black_cross(without_color),454261,,,blue,,,,,null,US_Cities_List/cornwall.png,US_Cities_List/boulder.png,,,,,,,,,,,,,,,,,,
401.2000000476837,,rt_plussign_withcolor,454773,,,blue,,,,,49,US_Cities_List/cornwall.png,US_Cities_List/boulder.png,,,,,,,,,,,,,,,,,,
null,,rt_thecrossant_black,456366,,,black_plus_sign,,,,,null,,,1,1,,,,,,,,,,,,,,,,
null,,color_black,456486,,,black_plus_sign,,,,,null,,,,,,,,,,,,,,,,,,,,
null,,learn_phase(without_color),459525,,,black_plus_sign,,,,,null,US_Cities_List/leesburg.png,US_Cities_List/gatlinburg.png,,,,,,,,,,,,,,,,,,
null,,black_cross(without_color),460091,,,blue,,,,,null,US_Cities_List/leesburg.png,US_Cities_List/gatlinburg.png,,,,,,,,,,,,,,,,,,
null,,rt_plussign_withcolor,460607,,,blue,,,,,null,US_Cities_List/leesburg.png,US_Cities_List/gatlinburg.png,,,,,,,,,,,,,,,,,,
576.0999999046326,,rt_thecrossant_black,462067,,,black_plus_sign,,,,,49,,,1,1,,,,,,,,,,,,,,,,
null,,color_black,462179,,,black_plus_sign,,,,,null,,,,,,,,,,,,,,,,,,,,
null,,learn_phase(without_color),465229,,,black_plus_sign,,,,,null,US_Cities_List/hotsprings.png,US_Cities_List/racine.png,,,,,,,,,,,,,,,,,,
null,,black_cross(without_color),466286,,,yellow,,,,,null,US_Cities_List/hotsprings.png,US_Cities_List/racine.png,,,,,,,,,,,,,,,,,,
433,,rt_plussign_withcolor,466801,,,yellow,,,,,50,US_Cities_List/hotsprings.png,US_Cities_List/racine.png,,,,,,,,,,,,,,,,,,
null,,rt_thecrossant_black,467757,,,black_plus_sign,,,,,null,,,1,1,,,,,,,,,,,,,,,,
null,,color_black,467865,,,black_plus_sign,,,,,null,,,,,,,,,,,,,,,,,,,,
null,,learn_phase(without_color),470910,,,black_plus_sign,,,,,null,US_Cities_List/boulder.png,US_Cities_List/newhope.png,,,,,,,,,,,,,,,,,,
null,,black_cross(without_color),471649,,,blue,,,,,null,US_Cities_List/boulder.png,US_Cities_List/newhope.png,,,,,,,,,,,,,,,,,,
null,,rt_plussign_withcolor,472167,,,blue,,,,,null,US_Cities_List/boulder.png,US_Cities_List/newhope.png,,,,,,,,,,,,,,,,,,
1221,,rt_thecrossant_black,473438,,,black_plus_sign,,,,,49,,,1,1,,,,,,,,,,,,,,,,
null,,color_black,473545,,,black_plus_sign,,,,,null,,,,,,,,,,,,,,,,,,,,
null,,learn_phase(without_color),476587,,,black_plus_sign,,,,,null,US_Cities_List/westpalmbeach.png,US_Cities_List/racine.png,,,,,,,,,,,,,,,,,,
null,,black_cross(without_color),477366,,,blue,,,,,null,US_Cities_List/westpalmbeach.png,US_Cities_List/racine.png,,,,,,,,,,,,,,,,,,
null,,rt_plussign_withcolor,477877,,,blue,,,,,null,US_Cities_List/westpalmbeach.png,US_Cities_List/racine.png,,,,,,,,,,,,,,,,,,
991.7000000476837,,rt_thecrossant_black,479115,,,black_plus_sign,,,,,49,,,1,1,,,,,,,,,,,,,,,,
null,,color_black,479221,,,black_plus_sign,,,,,null,,,,,,,,,,,,,,,,,,,,
null,,learn_phase(without_color),482288,,,black_plus_sign,,,,,null,US_Cities_List/westpalmbeach.png,US_Cities_List/newhope.png,,,,,,,,,,,,,,,,,,
null,,black_cross(without_color),482760,,,blue,,,,,null,US_Cities_List/westpalmbeach.png,US_Cities_List/newhope.png,,,,,,,,,,,,,,,,,,
459.7000000476837,,rt_plussign_withcolor,483276,,,blue,,,,,49,US_Cities_List/westpalmbeach.png,US_Cities_List/newhope.png,,,,,,,,,,,,,,,,,,
null,,rt_thecrossant_black,484828,,,black_plus_sign,,,,,null,,,1,1,,,,,,,,,,,,,,,,
null,,color_black,484937,,,black_plus_sign,,,,,null,,,,,,,,,,,,,,,,,,,,
null,,learn_phase(without_color),488004,,,black_plus_sign,,,,,null,US_Cities_List/hotsprings.png,US_Cities_List/racine.png,,,,,,,,,,,,,,,,,,
null,,black_cross(without_color),488558,,,blue,,,,,null,US_Cities_List/hotsprings.png,US_Cities_List/racine.png,,,,,,,,,,,,,,,,,,
449,,rt_plussign_withcolor,489071,,,blue,,,,,49,US_Cities_List/hotsprings.png,US_Cities_List/racine.png,,,,,,,,,,,,,,,,,,
null,,rt_thecrossant_black,490531,,,black_plus_sign,,,,,null,,,1,1,,,,,,,,,,,,,,,,
null,,color_black,490642,,,black_plus_sign,,,,,null,,,,,,,,,,,,,,,,,,,,
null,,learn_phase(without_color),493699,,,black_plus_sign,,,,,null,US_Cities_List/hotsprings.png,US_Cities_List/newhope.png,,,,,,,,,,,,,,,,,,
null,,black_cross(without_color),494511,,,blue,,,,,null,US_Cities_List/hotsprings.png,US_Cities_List/newhope.png,,,,,,,,,,,,,,,,,,
409.19999980926514,,rt_plussign_withcolor,495015,,,blue,,,,,49,US_Cities_List/hotsprings.png,US_Cities_List/newhope.png,,,,,,,,,,,,,,,,,,
null,,rt_thecrossant_black,496222,,,black_plus_sign,,,,,null,,,1,1,,,,,,,,,,,,,,,,
null,,color_black,496331,,,black_plus_sign,,,,,null,,,,,,,,,,,,,,,,,,,,
null,,learn_phase(without_color),499382,,,black_plus_sign,,,,,null,US_Cities_List/racine.png,US_Cities_List/peoria.png,,,,,,,,,,,,,,,,,,
null,,black_cross(without_color),500127,,,blue,,,,,null,US_Cities_List/racine.png,US_Cities_List/peoria.png,,,,,,,,,,,,,,,,,,
470.5,,rt_plussign_withcolor,500629,,,blue,,,,,49,US_Cities_List/racine.png,US_Cities_List/peoria.png,,,,,,,,,,,,,,,,,,
null,,rt_thecrossant_black,501907,,,black_plus_sign,,,,,null,,,1,1,,,,,,,,,,,,,,,,
null,,color_black,502026,,,black_plus_sign,,,,,null,,,,,,,,,,,,,,,,,,,,
null,,learn_phase(without_color),505063,,,black_plus_sign,,,,,null,US_Cities_List/leesburg.png,US_Cities_List/gatlinburg.png,,,,,,,,,,,,,,,,,,
null,,black_cross(without_color),505536,,,blue,,,,,null,US_Cities_List/leesburg.png,US_Cities_List/gatlinburg.png,,,,,,,,,,,,,,,,,,
485,,rt_plussign_withcolor,506045,,,blue,,,,,49,US_Cities_List/leesburg.png,US_Cities_List/gatlinburg.png,,,,,,,,,,,,,,,,,,
null,,rt_thecrossant_black,507585,,,black_plus_sign,,,,,null,,,1,1,,,,,,,,,,,,,,,,
null,,color_black,507693,,,black_plus_sign,,,,,null,,,,,,,,,,,,,,,,,,,,
null,,learn_phase(without_color),510727,,,black_plus_sign,,,,,null,US_Cities_List/shreveport.png,US_Cities_List/boulder.png,,,,,,,,,,,,,,,,,,
null,,black_cross(without_color),511137,,,yellow,,,,,null,US_Cities_List/shreveport.png,US_Cities_List/boulder.png,,,,,,,,,,,,,,,,,,
305.40000009536743,,rt_plussign_withcolor,511646,,,yellow,,,,,50,US_Cities_List/shreveport.png,US_Cities_List/boulder.png,,,,,,,,,,,,,,,,,,
null,,rt_thecrossant_black,513254,,,black_plus_sign,,,,,null,,,1,1,,,,,,,,,,,,,,,,
null,,color_black,513361,,,black_plus_sign,,,,,null,,,,,,,,,,,,,,,,,,,,
null,,learn_phase(without_color),516427,,,black_plus_sign,,,,,null,US_Cities_List/newhope.png,US_Cities_List/hotsprings.png,,,,,,,,,,,,,,,,,,
null,,black_cross(without_color),516995,,,blue,,,,,null,US_Cities_List/newhope.png,US_Cities_List/hotsprings.png,,,,,,,,,,,,,,,,,,
463.2999999523163,,rt_plussign_withcolor,517500,,,blue,,,,,49,US_Cities_List/newhope.png,US_Cities_List/hotsprings.png,,,,,,,,,,,,,,,,,,
null,,rt_thecrossant_black,518948,,,black_plus_sign,,,,,null,,,1,1,,,,,,,,,,,,,,,,
null,,color_black,519057,,,black_plus_sign,,,,,null,,,,,,,,,,,,,,,,,,,,
null,,learn_phase(without_color),522129,,,black_plus_sign,,,,,null,US_Cities_List/hotsprings.png,US_Cities_List/newhope.png,,,,,,,,,,,,,,,,,,
null,,black_cross(without_color),523034,,,yellow,,,,,null,US_Cities_List/hotsprings.png,US_Cities_List/newhope.png,,,,,,,,,,,,,,,,,,
null,,rt_plussign_withcolor,523537,,,yellow,,,,,null,US_Cities_List/hotsprings.png,US_Cities_List/newhope.png,,,,,,,,,,,,,,,,,,
669.2000000476837,,rt_thecrossant_black,524647,,,black_plus_sign,,,,,50,,,1,1,,,,,,,,,,,,,,,,
null,,color_black,524762,,,black_plus_sign,,,,,null,,,,,,,,,,,,,,,,,,,,
null,,learn_phase(without_color),527806,,,black_plus_sign,,,,,null,US_Cities_List/westpalmbeach.png,US_Cities_List/carmel.png,,,,,,,,,,,,,,,,,,
null,,black_cross(without_color),528601,,,blue,,,,,null,US_Cities_List/westpalmbeach.png,US_Cities_List/carmel.png,,,,,,,,,,,,,,,,,,
384.2000000476837,,rt_plussign_withcolor,529115,,,blue,,,,,49,US_Cities_List/westpalmbeach.png,US_Cities_List/carmel.png,,,,,,,,,,,,,,,,,,
null,,rt_thecrossant_black,530339,,,black_plus_sign,,,,,null,,,1,1,,,,,,,,,,,,,,,,
null,,color_black,530457,,,black_plus_sign,,,,,null,,,,,,,,,,,,,,,,,,,,
null,,learn_phase(without_color),533525,,,black_plus_sign,,,,,null,US_Cities_List/cornwall.png,US_Cities_List/boulder.png,,,,,,,,,,,,,,,,,,
null,,black_cross(without_color),533931,,,blue,,,,,null,US_Cities_List/cornwall.png,US_Cities_List/boulder.png,,,,,,,,,,,,,,,,,,
null,,rt_plussign_withcolor,534434,,,blue,,,,,null,US_Cities_List/cornwall.png,US_Cities_List/boulder.png,,,,,,,,,,,,,,,,,,
997.5,,rt_thecrossant_black,536040,,,black_plus_sign,,,,,49,,,1,1,,,,,,,,,,,,,,,,
null,,color_black,536149,,,black_plus_sign,,,,,null,,,,,,,,,,,,,,,,,,,,
null,,learn_phase(without_color),539197,,,black_plus_sign,,,,,null,US_Cities_List/shreveport.png,US_Cities_List/boulder.png,,,,,,,,,,,,,,,,,,
null,,black_cross(without_color),540078,,,yellow,,,,,null,US_Cities_List/shreveport.png,US_Cities_List/boulder.png,,,,,,,,,,,,,,,,,,
349.09999990463257,,rt_plussign_withcolor,540590,,,yellow,,,,,50,US_Cities_List/shreveport.png,US_Cities_List/boulder.png,,,,,,,,,,,,,,,,,,
null,,rt_thecrossant_black,541728,,,black_plus_sign,,,,,null,,,1,1,,,,,,,,,,,,,,,,
null,,color_black,541837,,,black_plus_sign,,,,,null,,,,,,,,,,,,,,,,,,,,
null,,learn_phase(without_color),544880,,,black_plus_sign,,,,,null,US_Cities_List/gatlinburg.png,US_Cities_List/leesburg.png,,,,,,,,,,,,,,,,,,
null,,black_cross(without_color),545391,,,yellow,,,,,null,US_Cities_List/gatlinburg.png,US_Cities_List/leesburg.png,,,,,,,,,,,,,,,,,,
510.60000014305115,,rt_plussign_withcolor,545908,,,yellow,,,,,50,US_Cities_List/gatlinburg.png,US_Cities_List/leesburg.png,,,,,,,,,,,,,,,,,,
null,,rt_thecrossant_black,547421,,,black_plus_sign,,,,,null,,,1,1,,,,,,,,,,,,,,,,
null,,color_black,547536,,,black_plus_sign,,,,,null,,,,,,,,,,,,,,,,,,,,
null,,learn_phase(without_color),550589,,,black_plus_sign,,,,,null,US_Cities_List/cornwall.png,US_Cities_List/boulder.png,,,,,,,,,,,,,,,,,,
null,,black_cross(without_color),551180,,,yellow,,,,,null,US_Cities_List/cornwall.png,US_Cities_List/boulder.png,,,,,,,,,,,,,,,,,,
null,,rt_plussign_withcolor,551690,,,yellow,,,,,null,US_Cities_List/cornwall.png,US_Cities_List/boulder.png,,,,,,,,,,,,,,,,,,
648.2000000476837,,rt_thecrossant_black,553111,,,black_plus_sign,,,,,49,,,0,0.9807692307692307,,,,,,,,,,,,,,,,
null,,color_black,553217,,,black_plus_sign,,,,,null,,,,,,,,,,,,,,,,,,,,
null,,learn_phase(without_color),556264,,,black_plus_sign,,,,,null,US_Cities_List/peoria.png,US_Cities_List/gatlinburg.png,,,,,,,,,,,,,,,,,,
null,,black_cross(without_color),557189,,,yellow,,,,,null,US_Cities_List/peoria.png,US_Cities_List/gatlinburg.png,,,,,,,,,,,,,,,,,,
null,,rt_plussign_withcolor,557695,,,yellow,,,,,null,US_Cities_List/peoria.png,US_Cities_List/gatlinburg.png,,,,,,,,,,,,,,,,,,
963.9000000953674,,rt_thecrossant_black,558782,,,black_plus_sign,,,,,50,,,1,0.9811320754716981,,,,,,,,,,,,,,,,
null,,color_black,558891,,,black_plus_sign,,,,,null,,,,,,,,,,,,,,,,,,,,
null,,learn_phase(without_color),561945,,,black_plus_sign,,,,,null,US_Cities_List/carmel.png,US_Cities_List/gatlinburg.png,,,,,,,,,,,,,,,,,,
null,,black_cross(without_color),562692,,,yellow,,,,,null,US_Cities_List/carmel.png,US_Cities_List/gatlinburg.png,,,,,,,,,,,,,,,,,,
null,,rt_plussign_withcolor,563197,,,yellow,,,,,null,US_Cities_List/carmel.png,US_Cities_List/gatlinburg.png,,,,,,,,,,,,,,,,,,
1157.9000000953674,,rt_thecrossant_black,564464,,,black_plus_sign,,,,,50,,,1,0.9814814814814815,,,,,,,,,,,,,,,,
null,,color_black,564573,,,black_plus_sign,,,,,null,,,,,,,,,,,,,,,,,,,,
null,,learn_phase(without_color),567633,,,black_plus_sign,,,,,null,US_Cities_List/peoria.png,US_Cities_List/gatlinburg.png,,,,,,,,,,,,,,,,,,
null,,black_cross(without_color),568677,,,yellow,,,,,null,US_Cities_List/peoria.png,US_Cities_List/gatlinburg.png,,,,,,,,,,,,,,,,,,
470.5,,rt_plussign_withcolor,569185,,,yellow,,,,,50,US_Cities_List/peoria.png,US_Cities_List/gatlinburg.png,,,,,,,,,,,,,,,,,,
null,,rt_thecrossant_black,570159,,,black_plus_sign,,,,,null,,,1,0.9818181818181818,,,,,,,,,,,,,,,,
null,,color_black,570270,,,black_plus_sign,,,,,null,,,,,,,,,,,,,,,,,,,,
null,,learn_phase(without_color),573311,,,black_plus_sign,,,,,null,US_Cities_List/shreveport.png,US_Cities_List/newhope.png,,,,,,,,,,,,,,,,,,
null,,black_cross(without_color),573834,,,yellow,,,,,null,US_Cities_List/shreveport.png,US_Cities_List/newhope.png,,,,,,,,,,,,,,,,,,
493.5,,rt_plussign_withcolor,574348,,,yellow,,,,,50,US_Cities_List/shreveport.png,US_Cities_List/newhope.png,,,,,,,,,,,,,,,,,,
null,,rt_thecrossant_black,575835,,,black_plus_sign,,,,,null,,,1,0.9821428571428571,,,,,,,,,,,,,,,,
null,,color_black,575951,,,black_plus_sign,,,,,null,,,,,,,,,,,,,,,,,,,,
null,,learn_phase(without_color),579001,,,black_plus_sign,,,,,null,US_Cities_List/racine.png,US_Cities_List/hotsprings.png,,,,,,,,,,,,,,,,,,
null,,black_cross(without_color),579497,,,yellow,,,,,null,US_Cities_List/racine.png,US_Cities_List/hotsprings.png,,,,,,,,,,,,,,,,,,
442.2000000476837,,rt_plussign_withcolor,580014,,,yellow,,,,,50,US_Cities_List/racine.png,US_Cities_List/hotsprings.png,,,,,,,,,,,,,,,,,,
null,,rt_thecrossant_black,581534,,,black_plus_sign,,,,,null,,,1,0.9824561403508771,,,,,,,,,,,,,,,,
null,,color_black,581646,,,black_plus_sign,,,,,null,,,,,,,,,,,,,,,,,,,,
null,,learn_phase(without_color),584699,,,black_plus_sign,,,,,null,US_Cities_List/boulder.png,US_Cities_List/hotsprings.png,,,,,,,,,,,,,,,,,,
null,,black_cross(without_color),585505,,,blue,,,,,null,US_Cities_List/boulder.png,US_Cities_List/hotsprings.png,,,,,,,,,,,,,,,,,,
null,,rt_plussign_withcolor,586008,,,blue,,,,,null,US_Cities_List/boulder.png,US_Cities_List/hotsprings.png,,,,,,,,,,,,,,,,,,
611,,rt_thecrossant_black,587220,,,black_plus_sign,,,,,49,,,1,0.9827586206896551,,,,,,,,,,,,,,,,
null,,color_black,587337,,,black_plus_sign,,,,,null,,,,,,,,,,,,,,,,,,,,
null,,learn_phase(without_color),590403,,,black_plus_sign,,,,,null,US_Cities_List/shreveport.png,US_Cities_List/newhope.png,,,,,,,,,,,,,,,,,,
null,,black_cross(without_color),591121,,,yellow,,,,,null,US_Cities_List/shreveport.png,US_Cities_List/newhope.png,,,,,,,,,,,,,,,,,,
null,,rt_plussign_withcolor,591628,,,yellow,,,,,null,US_Cities_List/shreveport.png,US_Cities_List/newhope.png,,,,,,,,,,,,,,,,,,
976.9000000953674,,rt_thecrossant_black,592927,,,black_plus_sign,,,,,50,,,1,0.9830508474576272,,,,,,,,,,,,,,,,
null,,color_black,593038,,,black_plus_sign,,,,,null,,,,,,,,,,,,,,,,,,,,
null,,learn_phase(without_color),596080,,,black_plus_sign,,,,,null,US_Cities_List/westpalmbeach.png,US_Cities_List/carmel.png,,,,,,,,,,,,,,,,,,
null,,black_cross(without_color),597173,,,blue,,,,,null,US_Cities_List/westpalmbeach.png,US_Cities_List/carmel.png,,,,,,,,,,,,,,,,,,
null,,rt_plussign_withcolor,597678,,,blue,,,,,null,US_Cities_List/westpalmbeach.png,US_Cities_List/carmel.png,,,,,,,,,,,,,,,,,,
854.7999999523163,,rt_thecrossant_black,598604,,,black_plus_sign,,,,,50,,,0,0.9666666666666667,,,,,,,,,,,,,,,,
null,,color_black,598716,,,black_plus_sign,,,,,null,,,,,,,,,,,,,,,,,,,,
null,,learn_phase(without_color),601763,,,black_plus_sign,,,,,null,US_Cities_List/leesburg.png,US_Cities_List/gatlinburg.png,,,,,,,,,,,,,,,,,,
null,,black_cross(without_color),602310,,,yellow,,,,,null,US_Cities_List/leesburg.png,US_Cities_List/gatlinburg.png,,,,,,,,,,,,,,,,,,
null,,rt_plussign_withcolor,602817,,,yellow,,,,,null,US_Cities_List/leesburg.png,US_Cities_List/gatlinburg.png,,,,,,,,,,,,,,,,,,
1530.2000000476837,,rt_thecrossant_black,604277,,,black_plus_sign,,,,,50,,,1,0.9672131147540983,,,,,,,,,,,,,,,,
null,,color_black,604386,,,black_plus_sign,,,,,null,,,,,,,,,,,,,,,,,,,,
null,,learn_phase(without_color),607444,,,black_plus_sign,,,,,null,US_Cities_List/peoria.png,US_Cities_List/gatlinburg.png,,,,,,,,,,,,,,,,,,
null,,black_cross(without_color),607921,,,blue,,,,,null,US_Cities_List/peoria.png,US_Cities_List/gatlinburg.png,,,,,,,,,,,,,,,,,,
null,,rt_plussign_withcolor,608427,,,blue,,,,,null,US_Cities_List/peoria.png,US_Cities_List/gatlinburg.png,,,,,,,,,,,,,,,,,,
687.0999999046326,,rt_thecrossant_black,609975,,,black_plus_sign,,,,,49,,,1,0.967741935483871,,,,,,,,,,,,,,,,
null,,color_black,610080,,,black_plus_sign,,,,,null,,,,,,,,,,,,,,,,,,,,
null,,learn_break,670090,,,learn_break,,,,,null,,,,,,,,,,,,,,,,,,,,
null,,html-keyboard-response,671093,,,<p></p>,,,,,null,,,,,,,,,,,,,,,,,,,,
null,,learn_phase(without_color),674149,,,black_plus_sign,,,,,null,US_Cities_List/newhope.png,US_Cities_List/westpalmbeach.png,,,,,,,,,,,,,,,,,,
null,,black_cross(without_color),674839,,,blue,,,,,null,US_Cities_List/newhope.png,US_Cities_List/westpalmbeach.png,,,,,,,,,,,,,,,,,,
null,,rt_plussign_withcolor,675346,,,blue,,,,,null,US_Cities_List/newhope.png,US_Cities_List/westpalmbeach.png,,,,,,,,,,,,,,,,,,
633.4000000953674,,rt_thecrossant_black,676671,,,black_plus_sign,,,,,49,,,1,0.9682539682539683,,,,,,,,,,,,,,,,
null,,color_black,676779,,,black_plus_sign,,,,,null,,,,,,,,,,,,,,,,,,,,
null,,learn_phase(without_color),679819,,,black_plus_sign,,,,,null,US_Cities_List/peoria.png,US_Cities_List/huntsville.png,,,,,,,,,,,,,,,,,,
null,,black_cross(without_color),680371,,,blue,,,,,null,US_Cities_List/peoria.png,US_Cities_List/huntsville.png,,,,,,,,,,,,,,,,,,
478.80000019073486,,rt_plussign_withcolor,680878,,,blue,,,,,49,US_Cities_List/peoria.png,US_Cities_List/huntsville.png,,,,,,,,,,,,,,,,,,
null,,rt_thecrossant_black,682354,,,black_plus_sign,,,,,null,,,1,0.96875,,,,,,,,,,,,,,,,
null,,color_black,682467,,,black_plus_sign,,,,,null,,,,,,,,,,,,,,,,,,,,
null,,learn_phase(without_color),685541,,,black_plus_sign,,,,,null,US_Cities_List/newhope.png,US_Cities_List/shreveport.png,,,,,,,,,,,,,,,,,,
null,,black_cross(without_color),686579,,,blue,,,,,null,US_Cities_List/newhope.png,US_Cities_List/shreveport.png,,,,,,,,,,,,,,,,,,
478.7999999523163,,rt_plussign_withcolor,687086,,,blue,,,,,49,US_Cities_List/newhope.png,US_Cities_List/shreveport.png,,,,,,,,,,,,,,,,,,
null,,rt_thecrossant_black,688060,,,black_plus_sign,,,,,null,,,1,0.9692307692307692,,,,,,,,,,,,,,,,
null,,color_black,688177,,,black_plus_sign,,,,,null,,,,,,,,,,,,,,,,,,,,
null,,learn_phase(without_color),691210,,,black_plus_sign,,,,,null,US_Cities_List/shreveport.png,US_Cities_List/boulder.png,,,,,,,,,,,,,,,,,,
null,,black_cross(without_color),691775,,,yellow,,,,,null,US_Cities_List/shreveport.png,US_Cities_List/boulder.png,,,,,,,,,,,,,,,,,,
471.80000019073486,,rt_plussign_withcolor,692281,,,yellow,,,,,50,US_Cities_List/shreveport.png,US_Cities_List/boulder.png,,,,,,,,,,,,,,,,,,
null,,rt_thecrossant_black,693740,,,black_plus_sign,,,,,null,,,1,0.9696969696969697,,,,,,,,,,,,,,,,
null,,color_black,693848,,,black_plus_sign,,,,,null,,,,,,,,,,,,,,,,,,,,
null,,learn_phase(without_color),696906,,,black_plus_sign,,,,,null,US_Cities_List/gatlinburg.png,US_Cities_List/leesburg.png,,,,,,,,,,,,,,,,,,
null,,black_cross(without_color),697976,,,yellow,,,,,null,US_Cities_List/gatlinburg.png,US_Cities_List/leesburg.png,,,,,,,,,,,,,,,,,,
null,,rt_plussign_withcolor,698487,,,yellow,,,,,null,US_Cities_List/gatlinburg.png,US_Cities_List/leesburg.png,,,,,,,,,,,,,,,,,,
669.7000000476837,,rt_thecrossant_black,699430,,,black_plus_sign,,,,,50,,,1,0.9701492537313433,,,,,,,,,,,,,,,,
null,,color_black,699540,,,black_plus_sign,,,,,null,,,,,,,,,,,,,,,,,,,,
null,,learn_phase(without_color),702587,,,black_plus_sign,,,,,null,US_Cities_List/westpalmbeach.png,US_Cities_List/carmel.png,,,,,,,,,,,,,,,,,,
null,,black_cross(without_color),703353,,,yellow,,,,,null,US_Cities_List/westpalmbeach.png,US_Cities_List/carmel.png,,,,,,,,,,,,,,,,,,
null,,rt_plussign_withcolor,703862,,,yellow,,,,,null,US_Cities_List/westpalmbeach.png,US_Cities_List/carmel.png,,,,,,,,,,,,,,,,,,
1344.7999999523163,,rt_thecrossant_black,705129,,,black_plus_sign,,,,,50,,,1,0.9705882352941176,,,,,,,,,,,,,,,,
null,,color_black,705240,,,black_plus_sign,,,,,null,,,,,,,,,,,,,,,,,,,,
null,,learn_phase(without_color),708290,,,black_plus_sign,,,,,null,US_Cities_List/racine.png,US_Cities_List/westpalmbeach.png,,,,,,,,,,,,,,,,,,
null,,black_cross(without_color),709253,,,yellow,,,,,null,US_Cities_List/racine.png,US_Cities_List/westpalmbeach.png,,,,,,,,,,,,,,,,,,
475.60000014305115,,rt_plussign_withcolor,709758,,,yellow,,,,,50,US_Cities_List/racine.png,US_Cities_List/westpalmbeach.png,,,,,,,,,,,,,,,,,,
null,,rt_thecrossant_black,710817,,,black_plus_sign,,,,,null,,,1,0.9710144927536232,,,,,,,,,,,,,,,,
null,,color_black,710936,,,black_plus_sign,,,,,null,,,,,,,,,,,,,,,,,,,,
null,,learn_phase(without_color),713970,,,black_plus_sign,,,,,null,US_Cities_List/boulder.png,US_Cities_List/shreveport.png,,,,,,,,,,,,,,,,,,
null,,black_cross(without_color),714426,,,blue,,,,,null,US_Cities_List/boulder.png,US_Cities_List/shreveport.png,,,,,,,,,,,,,,,,,,
null,,rt_plussign_withcolor,714941,,,blue,,,,,null,US_Cities_List/boulder.png,US_Cities_List/shreveport.png,,,,,,,,,,,,,,,,,,
1163.8000001907349,,rt_thecrossant_black,716503,,,black_plus_sign,,,,,49,,,1,0.9714285714285714,,,,,,,,,,,,,,,,
null,,color_black,716617,,,black_plus_sign,,,,,null,,,,,,,,,,,,,,,,,,,,
null,,learn_phase(without_color),719652,,,black_plus_sign,,,,,null,US_Cities_List/shreveport.png,US_Cities_List/newhope.png,,,,,,,,,,,,,,,,,,
null,,black_cross(without_color),720201,,,blue,,,,,null,US_Cities_List/shreveport.png,US_Cities_List/newhope.png,,,,,,,,,,,,,,,,,,
null,,rt_plussign_withcolor,720711,,,blue,,,,,null,US_Cities_List/shreveport.png,US_Cities_List/newhope.png,,,,,,,,,,,,,,,,,,
581.2000000476837,,rt_thecrossant_black,722180,,,black_plus_sign,,,,,49,,,1,0.971830985915493,,,,,,,,,,,,,,,,
null,,color_black,722290,,,black_plus_sign,,,,,null,,,,,,,,,,,,,,,,,,,,
null,,learn_phase(without_color),725344,,,black_plus_sign,,,,,null,US_Cities_List/newhope.png,US_Cities_List/shreveport.png,,,,,,,,,,,,,,,,,,
null,,black_cross(without_color),726365,,,yellow,,,,,null,US_Cities_List/newhope.png,US_Cities_List/shreveport.png,,,,,,,,,,,,,,,,,,
348.2999999523163,,rt_plussign_withcolor,726881,,,yellow,,,,,50,US_Cities_List/newhope.png,US_Cities_List/shreveport.png,,,,,,,,,,,,,,,,,,
null,,rt_thecrossant_black,727877,,,black_plus_sign,,,,,null,,,1,0.9722222222222222,,,,,,,,,,,,,,,,
null,,color_black,727997,,,black_plus_sign,,,,,null,,,,,,,,,,,,,,,,,,,,
null,,learn_phase(without_color),731048,,,black_plus_sign,,,,,null,US_Cities_List/newhope.png,US_Cities_List/boulder.png,,,,,,,,,,,,,,,,,,
null,,black_cross(without_color),731633,,,blue,,,,,null,US_Cities_List/newhope.png,US_Cities_List/boulder.png,,,,,,,,,,,,,,,,,,
null,,rt_plussign_withcolor,732135,,,blue,,,,,null,US_Cities_List/newhope.png,US_Cities_List/boulder.png,,,,,,,,,,,,,,,,,,
1227.5999999046326,,rt_thecrossant_black,733568,,,black_plus_sign,,,,,49,,,1,0.9726027397260274,,,,,,,,,,,,,,,,
null,,color_black,733677,,,black_plus_sign,,,,,null,,,,,,,,,,,,,,,,,,,,
null,,learn_phase(without_color),736729,,,black_plus_sign,,,,,null,US_Cities_List/shreveport.png,US_Cities_List/boulder.png,,,,,,,,,,,,,,,,,,
null,,black_cross(without_color),737414,,,yellow,,,,,null,US_Cities_List/shreveport.png,US_Cities_List/boulder.png,,,,,,,,,,,,,,,,,,
481.40000009536743,,rt_plussign_withcolor,737919,,,yellow,,,,,50,US_Cities_List/shreveport.png,US_Cities_List/boulder.png,,,,,,,,,,,,,,,,,,
null,,rt_thecrossant_black,739261,,,black_plus_sign,,,,,null,,,1,0.972972972972973,,,,,,,,,,,,,,,,
null,,color_black,739378,,,black_plus_sign,,,,,null,,,,,,,,,,,,,,,,,,,,
null,,learn_phase(without_color),742434,,,black_plus_sign,,,,,null,US_Cities_List/racine.png,US_Cities_List/peoria.png,,,,,,,,,,,,,,,,,,
null,,black_cross(without_color),743114,,,yellow,,,,,null,US_Cities_List/racine.png,US_Cities_List/peoria.png,,,,,,,,,,,,,,,,,,
null,,rt_plussign_withcolor,743620,,,yellow,,,,,null,US_Cities_List/racine.png,US_Cities_List/peoria.png,,,,,,,,,,,,,,,,,,
930.2999999523163,,rt_thecrossant_black,744967,,,black_plus_sign,,,,,50,,,1,0.9733333333333334,,,,,,,,,,,,,,,,
null,,color_black,745070,,,black_plus_sign,,,,,null,,,,,,,,,,,,,,,,,,,,
null,,learn_phase(without_color),748120,,,black_plus_sign,,,,,null,US_Cities_List/boulder.png,US_Cities_List/hotsprings.png,,,,,,,,,,,,,,,,,,
null,,black_cross(without_color),748934,,,blue,,,,,null,US_Cities_List/boulder.png,US_Cities_List/hotsprings.png,,,,,,,,,,,,,,,,,,
419.59999990463257,,rt_plussign_withcolor,749444,,,blue,,,,,49,US_Cities_List/boulder.png,US_Cities_List/hotsprings.png,,,,,,,,,,,,,,,,,,
null,,rt_thecrossant_black,750660,,,black_plus_sign,,,,,null,,,1,0.9736842105263158,,,,,,,,,,,,,,,,
null,,color_black,750778,,,black_plus_sign,,,,,null,,,,,,,,,,,,,,,,,,,,
null,,learn_phase(without_color),753829,,,black_plus_sign,,,,,null,US_Cities_List/westpalmbeach.png,US_Cities_List/newhope.png,,,,,,,,,,,,,,,,,,
null,,black_cross(without_color),754427,,,blue,,,,,null,US_Cities_List/westpalmbeach.png,US_Cities_List/newhope.png,,,,,,,,,,,,,,,,,,
null,,rt_plussign_withcolor,754941,,,blue,,,,,null,US_Cities_List/westpalmbeach.png,US_Cities_List/newhope.png,,,,,,,,,,,,,,,,,,
944.4000000953674,,rt_thecrossant_black,756367,,,black_plus_sign,,,,,49,,,1,0.974025974025974,,,,,,,,,,,,,,,,
null,,color_black,756486,,,black_plus_sign,,,,,null,,,,,,,,,,,,,,,,,,,,
null,,learn_phase(without_color),759545,,,black_plus_sign,,,,,null,US_Cities_List/racine.png,US_Cities_List/westpalmbeach.png,,,,,,,,,,,,,,,,,,
null,,black_cross(without_color),760420,,,yellow,,,,,null,US_Cities_List/racine.png,US_Cities_List/westpalmbeach.png,,,,,,,,,,,,,,,,,,
null,,rt_plussign_withcolor,760929,,,yellow,,,,,null,US_Cities_List/racine.png,US_Cities_List/westpalmbeach.png,,,,,,,,,,,,,,,,,,
779.2000000476837,,rt_thecrossant_black,762080,,,black_plus_sign,,,,,50,,,1,0.9743589743589743,,,,,,,,,,,,,,,,
null,,color_black,762196,,,black_plus_sign,,,,,null,,,,,,,,,,,,,,,,,,,,
null,,learn_phase(without_color),765233,,,black_plus_sign,,,,,null,US_Cities_List/hanover.png,US_Cities_List/shreveport.png,,,,,,,,,,,,,,,,,,
null,,black_cross(without_color),765965,,,blue,,,,,null,US_Cities_List/hanover.png,US_Cities_List/shreveport.png,,,,,,,,,,,,,,,,,,
427.2999999523163,,rt_plussign_withcolor,766470,,,blue,,,,,50,US_Cities_List/hanover.png,US_Cities_List/shreveport.png,,,,,,,,,,,,,,,,,,
null,,rt_thecrossant_black,767757,,,black_plus_sign,,,,,null,,,0,0.9620253164556962,,,,,,,,,,,,,,,,
null,,color_black,767867,,,black_plus_sign,,,,,null,,,,,,,,,,,,,,,,,,,,
null,,learn_phase(without_color),770915,,,black_plus_sign,,,,,null,US_Cities_List/carmel.png,US_Cities_List/westpalmbeach.png,,,,,,,,,,,,,,,,,,
null,,black_cross(without_color),771621,,,blue,,,,,null,US_Cities_List/carmel.png,US_Cities_List/westpalmbeach.png,,,,,,,,,,,,,,,,,,
null,,rt_plussign_withcolor,772131,,,blue,,,,,null,US_Cities_List/carmel.png,US_Cities_List/westpalmbeach.png,,,,,,,,,,,,,,,,,,
836.2000000476837,,rt_thecrossant_black,773462,,,black_plus_sign,,,,,50,,,0,0.95,,,,,,,,,,,,,,,,
null,,warning_page,776473,,,warning,,,,,null,,,,,,,,,,,,,,,,,,,,
null,,color_black,776581,,,black_plus_sign,,,,,null,,,,,,,,,,,,,,,,,,,,
null,,learn_phase(without_color),779628,,,black_plus_sign,,,,,null,US_Cities_List/boulder.png,US_Cities_List/newhope.png,,,,,,,,,,,,,,,,,,
null,,black_cross(without_color),780309,,,blue,,,,,null,US_Cities_List/boulder.png,US_Cities_List/newhope.png,,,,,,,,,,,,,,,,,,
null,,rt_plussign_withcolor,780813,,,blue,,,,,null,US_Cities_List/boulder.png,US_Cities_List/newhope.png,,,,,,,,,,,,,,,,,,
874.5,,rt_thecrossant_black,782140,,,black_plus_sign,,,,,49,,,1,0.9506172839506173,,,,,,,,,,,,,,,,
null,,color_black,782248,,,black_plus_sign,,,,,null,,,,,,,,,,,,,,,,,,,,
null,,learn_phase(without_color),785308,,,black_plus_sign,,,,,null,US_Cities_List/boulder.png,US_Cities_List/newhope.png,,,,,,,,,,,,,,,,,,
null,,black_cross(without_color),786050,,,blue,,,,,null,US_Cities_List/boulder.png,US_Cities_List/newhope.png,,,,,,,,,,,,,,,,,,
495.89999985694885,,rt_plussign_withcolor,786552,,,blue,,,,,49,US_Cities_List/boulder.png,US_Cities_List/newhope.png,,,,,,,,,,,,,,,,,,
null,,rt_thecrossant_black,787836,,,black_plus_sign,,,,,null,,,1,0.9512195121951219,,,,,,,,,,,,,,,,
null,,color_black,787947,,,black_plus_sign,,,,,null,,,,,,,,,,,,,,,,,,,,
null,,learn_phase(without_color),791008,,,black_plus_sign,,,,,null,US_Cities_List/peoria.png,US_Cities_List/racine.png,,,,,,,,,,,,,,,,,,
null,,black_cross(without_color),791664,,,yellow,,,,,null,US_Cities_List/peoria.png,US_Cities_List/racine.png,,,,,,,,,,,,,,,,,,
null,,rt_plussign_withcolor,792168,,,yellow,,,,,null,US_Cities_List/peoria.png,US_Cities_List/racine.png,,,,,,,,,,,,,,,,,,
874.6000001430511,,rt_thecrossant_black,793523,,,black_plus_sign,,,,,50,,,1,0.9518072289156626,,,,,,,,,,,,,,,,
null,,color_black,793631,,,black_plus_sign,,,,,null,,,,,,,,,,,,,,,,,,,,
null,,learn_phase(without_color),796697,,,black_plus_sign,,,,,null,US_Cities_List/racine.png,US_Cities_List/peoria.png,,,,,,,,,,,,,,,,,,
null,,black_cross(without_color),797668,,,blue,,,,,null,US_Cities_List/racine.png,US_Cities_List/peoria.png,,,,,,,,,,,,,,,,,,
null,,rt_plussign_withcolor,798177,,,blue,,,,,null,US_Cities_List/racine.png,US_Cities_List/peoria.png,,,,,,,,,,,,,,,,,,
797.6000001430511,,rt_thecrossant_black,799225,,,black_plus_sign,,,,,49,,,1,0.9523809523809523,,,,,,,,,,,,,,,,
null,,color_black,799334,,,black_plus_sign,,,,,null,,,,,,,,,,,,,,,,,,,,
null,,learn_phase(without_color),802398,,,black_plus_sign,,,,,null,US_Cities_List/peoria.png,US_Cities_List/gatlinburg.png,,,,,,,,,,,,,,,,,,
null,,black_cross(without_color),803197,,,yellow,,,,,null,US_Cities_List/peoria.png,US_Cities_List/gatlinburg.png,,,,,,,,,,,,,,,,,,
null,,rt_plussign_withcolor,803708,,,yellow,,,,,null,US_Cities_List/peoria.png,US_Cities_List/gatlinburg.png,,,,,,,,,,,,,,,,,,
1154.7000000476837,,rt_thecrossant_black,804920,,,black_plus_sign,,,,,50,,,1,0.9529411764705882,,,,,,,,,,,,,,,,
null,,color_black,805030,,,black_plus_sign,,,,,null,,,,,,,,,,,,,,,,,,,,
null,,learn_phase(without_color),808072,,,black_plus_sign,,,,,null,US_Cities_List/shreveport.png,US_Cities_List/boulder.png,,,,,,,,,,,,,,,,,,
null,,black_cross(without_color),808900,,,yellow,,,,,null,US_Cities_List/shreveport.png,US_Cities_List/boulder.png,,,,,,,,,,,,,,,,,,
null,,rt_plussign_withcolor,809405,,,yellow,,,,,null,US_Cities_List/shreveport.png,US_Cities_List/boulder.png,,,,,,,,,,,,,,,,,,
914.7000000476837,,rt_thecrossant_black,810610,,,black_plus_sign,,,,,50,,,1,0.9534883720930233,,,,,,,,,,,,,,,,
null,,color_black,810720,,,black_plus_sign,,,,,null,,,,,,,,,,,,,,,,,,,,
null,,learn_phase(without_color),813765,,,black_plus_sign,,,,,null,US_Cities_List/racine.png,US_Cities_List/hotsprings.png,,,,,,,,,,,,,,,,,,
null,,black_cross(without_color),814211,,,yellow,,,,,null,US_Cities_List/racine.png,US_Cities_List/hotsprings.png,,,,,,,,,,,,,,,,,,
null,,rt_plussign_withcolor,814724,,,yellow,,,,,null,US_Cities_List/racine.png,US_Cities_List/hotsprings.png,,,,,,,,,,,,,,,,,,
995.9000000953674,,rt_thecrossant_black,816300,,,black_plus_sign,,,,,50,,,1,0.9540229885057471,,,,,,,,,,,,,,,,
null,,color_black,816410,,,black_plus_sign,,,,,null,,,,,,,,,,,,,,,,,,,,
null,,learn_phase(without_color),819448,,,black_plus_sign,,,,,null,US_Cities_List/boulder.png,US_Cities_List/shreveport.png,,,,,,,,,,,,,,,,,,
null,,black_cross(without_color),820493,,,blue,,,,,null,US_Cities_List/boulder.png,US_Cities_List/shreveport.png,,,,,,,,,,,,,,,,,,
419,,rt_plussign_withcolor,820998,,,blue,,,,,49,US_Cities_List/boulder.png,US_Cities_List/shreveport.png,,,,,,,,,,,,,,,,,,
null,,rt_thecrossant_black,821969,,,black_plus_sign,,,,,null,,,1,0.9545454545454546,,,,,,,,,,,,,,,,
null,,color_black,822080,,,black_plus_sign,,,,,null,,,,,,,,,,,,,,,,,,,,
null,,learn_phase(without_color),825128,,,black_plus_sign,,,,,null,US_Cities_List/shreveport.png,US_Cities_List/hanover.png,,,,,,,,,,,,,,,,,,
null,,black_cross(without_color),826190,,,yellow,,,,,null,US_Cities_List/shreveport.png,US_Cities_List/hanover.png,,,,,,,,,,,,,,,,,,
379.90000009536743,,rt_plussign_withcolor,826694,,,yellow,,,,,50,US_Cities_List/shreveport.png,US_Cities_List/hanover.png,,,,,,,,,,,,,,,,,,
null,,rt_thecrossant_black,827641,,,black_plus_sign,,,,,null,,,1,0.9550561797752809,,,,,,,,,,,,,,,,
null,,color_black,827750,,,black_plus_sign,,,,,null,,,,,,,,,,,,,,,,,,,,
null,,learn_phase(without_color),830805,,,black_plus_sign,,,,,null,US_Cities_List/hotsprings.png,US_Cities_List/boulder.png,,,,,,,,,,,,,,,,,,
null,,black_cross(without_color),831892,,,blue,,,,,null,US_Cities_List/hotsprings.png,US_Cities_List/boulder.png,,,,,,,,,,,,,,,,,,
347.2000000476837,,rt_plussign_withcolor,832401,,,blue,,,,,49,US_Cities_List/hotsprings.png,US_Cities_List/boulder.png,,,,,,,,,,,,,,,,,,
null,,rt_thecrossant_black,833327,,,black_plus_sign,,,,,null,,,1,0.9555555555555556,,,,,,,,,,,,,,,,
null,,color_black,833434,,,black_plus_sign,,,,,null,,,,,,,,,,,,,,,,,,,,
null,,learn_phase(without_color),836477,,,black_plus_sign,,,,,null,US_Cities_List/hotsprings.png,US_Cities_List/newhope.png,,,,,,,,,,,,,,,,,,
null,,black_cross(without_color),837030,,,yellow,,,,,null,US_Cities_List/hotsprings.png,US_Cities_List/newhope.png,,,,,,,,,,,,,,,,,,
null,,rt_plussign_withcolor,837540,,,yellow,,,,,null,US_Cities_List/hotsprings.png,US_Cities_List/newhope.png,,,,,,,,,,,,,,,,,,
1245.5,,rt_thecrossant_black,839002,,,black_plus_sign,,,,,50,,,1,0.9560439560439561,,,,,,,,,,,,,,,,
null,,color_black,839111,,,black_plus_sign,,,,,null,,,,,,,,,,,,,,,,,,,,
null,,learn_phase(without_color),842168,,,black_plus_sign,,,,,null,US_Cities_List/newhope.png,US_Cities_List/westpalmbeach.png,,,,,,,,,,,,,,,,,,
null,,black_cross(without_color),843178,,,yellow,,,,,null,US_Cities_List/newhope.png,US_Cities_List/westpalmbeach.png,,,,,,,,,,,,,,,,,,
null,,rt_plussign_withcolor,843689,,,yellow,,,,,null,US_Cities_List/newhope.png,US_Cities_List/westpalmbeach.png,,,,,,,,,,,,,,,,,,
806,,rt_thecrossant_black,844706,,,black_plus_sign,,,,,50,,,1,0.9565217391304348,,,,,,,,,,,,,,,,
null,,color_black,844824,,,black_plus_sign,,,,,null,,,,,,,,,,,,,,,,,,,,
null,,learn_phase(without_color),847859,,,black_plus_sign,,,,,null,US_Cities_List/huntsville.png,US_Cities_List/peoria.png,,,,,,,,,,,,,,,,,,
null,,black_cross(without_color),848964,,,yellow,,,,,null,US_Cities_List/huntsville.png,US_Cities_List/peoria.png,,,,,,,,,,,,,,,,,,
null,,rt_plussign_withcolor,849470,,,yellow,,,,,null,US_Cities_List/huntsville.png,US_Cities_List/peoria.png,,,,,,,,,,,,,,,,,,
1096.5999999046326,,rt_thecrossant_black,850380,,,black_plus_sign,,,,,50,,,1,0.956989247311828,,,,,,,,,,,,,,,,
null,,color_black,850491,,,black_plus_sign,,,,,null,,,,,,,,,,,,,,,,,,,,
null,,learn_phase(without_color),853550,,,black_plus_sign,,,,,null,US_Cities_List/newhope.png,US_Cities_List/shreveport.png,,,,,,,,,,,,,,,,,,
null,,black_cross(without_color),854301,,,yellow,,,,,null,US_Cities_List/newhope.png,US_Cities_List/shreveport.png,,,,,,,,,,,,,,,,,,
493.5,,rt_plussign_withcolor,854805,,,yellow,,,,,50,US_Cities_List/newhope.png,US_Cities_List/shreveport.png,,,,,,,,,,,,,,,,,,
null,,rt_thecrossant_black,856064,,,black_plus_sign,,,,,null,,,1,0.9574468085106383,,,,,,,,,,,,,,,,
null,,color_black,856176,,,black_plus_sign,,,,,null,,,,,,,,,,,,,,,,,,,,
null,,learn_phase(without_color),859245,,,black_plus_sign,,,,,null,US_Cities_List/peoria.png,US_Cities_List/racine.png,,,,,,,,,,,,,,,,,,
null,,black_cross(without_color),860262,,,blue,,,,,null,US_Cities_List/peoria.png,US_Cities_List/racine.png,,,,,,,,,,,,,,,,,,
496.60000014305115,,rt_plussign_withcolor,860765,,,blue,,,,,49,US_Cities_List/peoria.png,US_Cities_List/racine.png,,,,,,,,,,,,,,,,,,
null,,rt_thecrossant_black,861764,,,black_plus_sign,,,,,null,,,1,0.9578947368421052,,,,,,,,,,,,,,,,
null,,color_black,861872,,,black_plus_sign,,,,,null,,,,,,,,,,,,,,,,,,,,
null,,learn_phase(without_color),864914,,,black_plus_sign,,,,,null,US_Cities_List/racine.png,US_Cities_List/westpalmbeach.png,,,,,,,,,,,,,,,,,,
null,,black_cross(without_color),865870,,,yellow,,,,,null,US_Cities_List/racine.png,US_Cities_List/westpalmbeach.png,,,,,,,,,,,,,,,,,,
null,,rt_plussign_withcolor,866380,,,yellow,,,,,null,US_Cities_List/racine.png,US_Cities_List/westpalmbeach.png,,,,,,,,,,,,,,,,,,
1501.2999999523163,,rt_thecrossant_black,867442,,,black_plus_sign,,,,,50,,,1,0.9583333333333334,,,,,,,,,,,,,,,,
null,,color_black,867551,,,black_plus_sign,,,,,null,,,,,,,,,,,,,,,,,,,,
null,,learn_phase(without_color),870604,,,black_plus_sign,,,,,null,US_Cities_List/cornwall.png,US_Cities_List/boulder.png,,,,,,,,,,,,,,,,,,
null,,black_cross(without_color),871365,,,blue,,,,,null,US_Cities_List/cornwall.png,US_Cities_List/boulder.png,,,,,,,,,,,,,,,,,,
504.2000000476837,,rt_plussign_withcolor,871872,,,blue,,,,,49,US_Cities_List/cornwall.png,US_Cities_List/boulder.png,,,,,,,,,,,,,,,,,,
null,,rt_thecrossant_black,873139,,,black_plus_sign,,,,,null,,,1,0.9587628865979382,,,,,,,,,,,,,,,,
null,,color_black,873255,,,black_plus_sign,,,,,null,,,,,,,,,,,,,,,,,,,,
null,,learn_phase(without_color),876291,,,black_plus_sign,,,,,null,US_Cities_List/hanover.png,US_Cities_List/shreveport.png,,,,,,,,,,,,,,,,,,
null,,black_cross(without_color),876787,,,yellow,,,,,null,US_Cities_List/hanover.png,US_Cities_List/shreveport.png,,,,,,,,,,,,,,,,,,
null,,rt_plussign_withcolor,877292,,,yellow,,,,,null,US_Cities_List/hanover.png,US_Cities_List/shreveport.png,,,,,,,,,,,,,,,,,,
1202.2999999523163,,rt_thecrossant_black,878811,,,black_plus_sign,,,,,50,,,1,0.9591836734693877,,,,,,,,,,,,,,,,
null,,color_black,878927,,,black_plus_sign,,,,,null,,,,,,,,,,,,,,,,,,,,
null,,learn_phase(without_color),881980,,,black_plus_sign,,,,,null,US_Cities_List/peoria.png,US_Cities_List/gatlinburg.png,,,,,,,,,,,,,,,,,,
null,,black_cross(without_color),882593,,,yellow,,,,,null,US_Cities_List/peoria.png,US_Cities_List/gatlinburg.png,,,,,,,,,,,,,,,,,,
null,,rt_plussign_withcolor,883108,,,yellow,,,,,null,US_Cities_List/peoria.png,US_Cities_List/gatlinburg.png,,,,,,,,,,,,,,,,,,
661,,rt_thecrossant_black,884519,,,black_plus_sign,,,,,50,,,1,0.9595959595959596,,,,,,,,,,,,,,,,
null,,color_black,884627,,,black_plus_sign,,,,,null,,,,,,,,,,,,,,,,,,,,
null,,learn_phase(without_color),887686,,,black_plus_sign,,,,,null,US_Cities_List/boulder.png,US_Cities_List/cornwall.png,,,,,,,,,,,,,,,,,,
null,,black_cross(without_color),888780,,,yellow,,,,,null,US_Cities_List/boulder.png,US_Cities_List/cornwall.png,,,,,,,,,,,,,,,,,,
497,,rt_plussign_withcolor,889285,,,yellow,,,,,50,US_Cities_List/boulder.png,US_Cities_List/cornwall.png,,,,,,,,,,,,,,,,,,
null,,rt_thecrossant_black,890204,,,black_plus_sign,,,,,null,,,1,0.96,,,,,,,,,,,,,,,,
null,,color_black,890311,,,black_plus_sign,,,,,null,,,,,,,,,,,,,,,,,,,,
null,,learn_phase(without_color),893369,,,black_plus_sign,,,,,null,US_Cities_List/gatlinburg.png,US_Cities_List/carmel.png,,,,,,,,,,,,,,,,,,
null,,black_cross(without_color),894395,,,blue,,,,,null,US_Cities_List/gatlinburg.png,US_Cities_List/carmel.png,,,,,,,,,,,,,,,,,,
null,,rt_plussign_withcolor,894911,,,blue,,,,,null,US_Cities_List/gatlinburg.png,US_Cities_List/carmel.png,,,,,,,,,,,,,,,,,,
1237,,rt_thecrossant_black,895901,,,black_plus_sign,,,,,49,,,1,0.9603960396039604,,,,,,,,,,,,,,,,
null,,color_black,896009,,,black_plus_sign,,,,,null,,,,,,,,,,,,,,,,,,,,
null,,learn_phase(without_color),899055,,,black_plus_sign,,,,,null,US_Cities_List/hotsprings.png,US_Cities_List/boulder.png,,,,,,,,,,,,,,,,,,
null,,black_cross(without_color),900100,,,yellow,,,,,null,US_Cities_List/hotsprings.png,US_Cities_List/boulder.png,,,,,,,,,,,,,,,,,,
null,,rt_plussign_withcolor,900605,,,yellow,,,,,null,US_Cities_List/hotsprings.png,US_Cities_List/boulder.png,,,,,,,,,,,,,,,,,,
1145.8000001907349,,rt_thecrossant_black,901582,,,black_plus_sign,,,,,50,,,1,0.9607843137254902,,,,,,,,,,,,,,,,
null,,color_black,901687,,,black_plus_sign,,,,,null,,,,,,,,,,,,,,,,,,,,
null,,learn_phase(without_color),904719,,,black_plus_sign,,,,,null,US_Cities_List/racine.png,US_Cities_List/westpalmbeach.png,,,,,,,,,,,,,,,,,,
null,,black_cross(without_color),905337,,,blue,,,,,null,US_Cities_List/racine.png,US_Cities_List/westpalmbeach.png,,,,,,,,,,,,,,,,,,
null,,rt_plussign_withcolor,905846,,,blue,,,,,null,US_Cities_List/racine.png,US_Cities_List/westpalmbeach.png,,,,,,,,,,,,,,,,,,
1360.5,,rt_thecrossant_black,907250,,,black_plus_sign,,,,,49,,,1,0.9611650485436893,,,,,,,,,,,,,,,,
null,,color_black,907359,,,black_plus_sign,,,,,null,,,,,,,,,,,,,,,,,,,,
null,,learn_phase(without_color),910414,,,black_plus_sign,,,,,null,US_Cities_List/newhope.png,US_Cities_List/boulder.png,,,,,,,,,,,,,,,,,,
null,,black_cross(without_color),911202,,,blue,,,,,null,US_Cities_List/newhope.png,US_Cities_List/boulder.png,,,,,,,,,,,,,,,,,,
null,,rt_plussign_withcolor,911720,,,blue,,,,,null,US_Cities_List/newhope.png,US_Cities_List/boulder.png,,,,,,,,,,,,,,,,,,
872,,rt_thecrossant_black,912950,,,black_plus_sign,,,,,49,,,1,0.9615384615384616,,,,,,,,,,,,,,,,
null,,color_black,913067,,,black_plus_sign,,,,,null,,,,,,,,,,,,,,,,,,,,
null,,learn_phase(without_color),916121,,,black_plus_sign,,,,,null,US_Cities_List/boulder.png,US_Cities_List/hotsprings.png,,,,,,,,,,,,,,,,,,
null,,black_cross(without_color),916938,,,yellow,,,,,null,US_Cities_List/boulder.png,US_Cities_List/hotsprings.png,,,,,,,,,,,,,,,,,,
null,,rt_plussign_withcolor,917450,,,yellow,,,,,null,US_Cities_List/boulder.png,US_Cities_List/hotsprings.png,,,,,,,,,,,,,,,,,,
1032.6000001430511,,rt_thecrossant_black,918656,,,black_plus_sign,,,,,50,,,1,0.9619047619047619,,,,,,,,,,,,,,,,
null,,color_black,918767,,,black_plus_sign,,,,,null,,,,,,,,,,,,,,,,,,,,
null,,learn_phase(without_color),921817,,,black_plus_sign,,,,,null,US_Cities_List/carmel.png,US_Cities_List/gatlinburg.png,,,,,,,,,,,,,,,,,,
null,,black_cross(without_color),922337,,,yellow,,,,,null,US_Cities_List/carmel.png,US_Cities_List/gatlinburg.png,,,,,,,,,,,,,,,,,,
null,,rt_plussign_withcolor,922840,,,yellow,,,,,null,US_Cities_List/carmel.png,US_Cities_List/gatlinburg.png,,,,,,,,,,,,,,,,,,
1030.2000000476837,,rt_thecrossant_black,924341,,,black_plus_sign,,,,,50,,,1,0.9622641509433962,,,,,,,,,,,,,,,,
null,,color_black,924461,,,black_plus_sign,,,,,null,,,,,,,,,,,,,,,,,,,,
null,,learn_phase(without_color),927509,,,black_plus_sign,,,,,null,US_Cities_List/hotsprings.png,US_Cities_List/newhope.png,,,,,,,,,,,,,,,,,,
null,,black_cross(without_color),928497,,,blue,,,,,null,US_Cities_List/hotsprings.png,US_Cities_List/newhope.png,,,,,,,,,,,,,,,,,,
null,,rt_plussign_withcolor,929004,,,blue,,,,,null,US_Cities_List/hotsprings.png,US_Cities_List/newhope.png,,,,,,,,,,,,,,,,,,
657,,rt_thecrossant_black,930028,,,black_plus_sign,,,,,49,,,1,0.9626168224299065,,,,,,,,,,,,,,,,
null,,color_black,930140,,,black_plus_sign,,,,,null,,,,,,,,,,,,,,,,,,,,
null,,learn_phase(without_color),933157,,,black_plus_sign,,,,,null,US_Cities_List/shreveport.png,US_Cities_List/hanover.png,,,,,,,,,,,,,,,,,,
null,,black_cross(without_color),934160,,,blue,,,,,null,US_Cities_List/shreveport.png,US_Cities_List/hanover.png,,,,,,,,,,,,,,,,,,
null,,rt_plussign_withcolor,934665,,,blue,,,,,null,US_Cities_List/shreveport.png,US_Cities_List/hanover.png,,,,,,,,,,,,,,,,,,
1317.7000000476837,,rt_thecrossant_black,935687,,,black_plus_sign,,,,,49,,,1,0.9629629629629629,,,,,,,,,,,,,,,,
null,,color_black,935791,,,black_plus_sign,,,,,null,,,,,,,,,,,,,,,,,,,,
null,,learn_phase(without_color),938826,,,black_plus_sign,,,,,null,US_Cities_List/huntsville.png,US_Cities_List/peoria.png,,,,,,,,,,,,,,,,,,
null,,black_cross(without_color),939368,,,yellow,,,,,null,US_Cities_List/huntsville.png,US_Cities_List/peoria.png,,,,,,,,,,,,,,,,,,
null,,rt_plussign_withcolor,939882,,,yellow,,,,,null,US_Cities_List/huntsville.png,US_Cities_List/peoria.png,,,,,,,,,,,,,,,,,,
1095.2000000476837,,rt_thecrossant_black,941361,,,black_plus_sign,,,,,50,,,1,0.963302752293578,,,,,,,,,,,,,,,,
null,,color_black,941470,,,black_plus_sign,,,,,null,,,,,,,,,,,,,,,,,,,,
null,,learn_phase(without_color),944525,,,black_plus_sign,,,,,null,US_Cities_List/boulder.png,US_Cities_List/shreveport.png,,,,,,,,,,,,,,,,,,
null,,black_cross(without_color),945052,,,blue,,,,,null,US_Cities_List/boulder.png,US_Cities_List/shreveport.png,,,,,,,,,,,,,,,,,,
null,,rt_plussign_withcolor,945570,,,blue,,,,,null,US_Cities_List/boulder.png,US_Cities_List/shreveport.png,,,,,,,,,,,,,,,,,,
907.5,,rt_thecrossant_black,947062,,,black_plus_sign,,,,,49,,,1,0.9636363636363636,,,,,,,,,,,,,,,,
null,,color_black,947175,,,black_plus_sign,,,,,null,,,,,,,,,,,,,,,,,,,,
null,,learn_phase(without_color),950235,,,black_plus_sign,,,,,null,US_Cities_List/racine.png,US_Cities_List/hotsprings.png,,,,,,,,,,,,,,,,,,
null,,black_cross(without_color),950985,,,blue,,,,,null,US_Cities_List/racine.png,US_Cities_List/hotsprings.png,,,,,,,,,,,,,,,,,,
null,,rt_plussign_withcolor,951494,,,blue,,,,,null,US_Cities_List/racine.png,US_Cities_List/hotsprings.png,,,,,,,,,,,,,,,,,,
1106.9000000953674,,rt_thecrossant_black,952761,,,black_plus_sign,,,,,49,,,1,0.963963963963964,,,,,,,,,,,,,,,,
null,,color_black,952874,,,black_plus_sign,,,,,null,,,,,,,,,,,,,,,,,,,,
null,,learn_phase(without_color),955930,,,black_plus_sign,,,,,null,US_Cities_List/hotsprings.png,US_Cities_List/newhope.png,,,,,,,,,,,,,,,,,,
null,,black_cross(without_color),956512,,,blue,,,,,null,US_Cities_List/hotsprings.png,US_Cities_List/newhope.png,,,,,,,,,,,,,,,,,,
null,,rt_plussign_withcolor,957018,,,blue,,,,,null,US_Cities_List/hotsprings.png,US_Cities_List/newhope.png,,,,,,,,,,,,,,,,,,
862.2000000476837,,rt_thecrossant_black,958462,,,black_plus_sign,,,,,49,,,1,0.9642857142857143,,,,,,,,,,,,,,,,
null,,color_black,958567,,,black_plus_sign,,,,,null,,,,,,,,,,,,,,,,,,,,
null,,learn_phase(without_color),961629,,,black_plus_sign,,,,,null,US_Cities_List/westpalmbeach.png,US_Cities_List/newhope.png,,,,,,,,,,,,,,,,,,
null,,black_cross(without_color),962341,,,blue,,,,,null,US_Cities_List/westpalmbeach.png,US_Cities_List/newhope.png,,,,,,,,,,,,,,,,,,
null,,rt_plussign_withcolor,962850,,,blue,,,,,null,US_Cities_List/westpalmbeach.png,US_Cities_List/newhope.png,,,,,,,,,,,,,,,,,,
920.9000000953674,,rt_thecrossant_black,964168,,,black_plus_sign,,,,,49,,,1,0.9646017699115044,,,,,,,,,,,,,,,,
null,,color_black,964274,,,black_plus_sign,,,,,null,,,,,,,,,,,,,,,,,,,,
null,,learn_phase(without_color),967325,,,black_plus_sign,,,,,null,US_Cities_List/hanover.png,US_Cities_List/shreveport.png,,,,,,,,,,,,,,,,,,
null,,black_cross(without_color),968256,,,yellow,,,,,null,US_Cities_List/hanover.png,US_Cities_List/shreveport.png,,,,,,,,,,,,,,,,,,
471.59999990463257,,rt_plussign_withcolor,968763,,,yellow,,,,,50,US_Cities_List/hanover.png,US_Cities_List/shreveport.png,,,,,,,,,,,,,,,,,,
null,,rt_thecrossant_black,969851,,,black_plus_sign,,,,,null,,,1,0.9649122807017544,,,,,,,,,,,,,,,,
null,,color_black,969959,,,black_plus_sign,,,,,null,,,,,,,,,,,,,,,,,,,,
null,,learn_phase(without_color),972990,,,black_plus_sign,,,,,null,US_Cities_List/peoria.png,US_Cities_List/gatlinburg.png,,,,,,,,,,,,,,,,,,
null,,black_cross(without_color),973400,,,yellow,,,,,null,US_Cities_List/peoria.png,US_Cities_List/gatlinburg.png,,,,,,,,,,,,,,,,,,
null,,rt_plussign_withcolor,973917,,,yellow,,,,,null,US_Cities_List/peoria.png,US_Cities_List/gatlinburg.png,,,,,,,,,,,,,,,,,,
1022.2000000476837,,rt_thecrossant_black,975527,,,black_plus_sign,,,,,50,,,1,0.9652173913043478,,,,,,,,,,,,,,,,
null,,color_black,975636,,,black_plus_sign,,,,,null,,,,,,,,,,,,,,,,,,,,
null,,learn_phase(without_color),978689,,,black_plus_sign,,,,,null,US_Cities_List/racine.png,US_Cities_List/westpalmbeach.png,,,,,,,,,,,,,,,,,,
null,,black_cross(without_color),979614,,,blue,,,,,null,US_Cities_List/racine.png,US_Cities_List/westpalmbeach.png,,,,,,,,,,,,,,,,,,
null,,rt_plussign_withcolor,980117,,,blue,,,,,null,US_Cities_List/racine.png,US_Cities_List/westpalmbeach.png,,,,,,,,,,,,,,,,,,
526.4000000953674,,rt_thecrossant_black,981205,,,black_plus_sign,,,,,49,,,1,0.9655172413793104,,,,,,,,,,,,,,,,
null,,color_black,981317,,,black_plus_sign,,,,,null,,,,,,,,,,,,,,,,,,,,
null,,learn_phase(without_color),984368,,,black_plus_sign,,,,,null,US_Cities_List/carmel.png,US_Cities_List/gatlinburg.png,,,,,,,,,,,,,,,,,,
null,,black_cross(without_color),985150,,,yellow,,,,,null,US_Cities_List/carmel.png,US_Cities_List/gatlinburg.png,,,,,,,,,,,,,,,,,,
null,,rt_plussign_withcolor,985662,,,yellow,,,,,null,US_Cities_List/carmel.png,US_Cities_List/gatlinburg.png,,,,,,,,,,,,,,,,,,
1238.7999999523163,,rt_thecrossant_black,986900,,,black_plus_sign,,,,,50,,,1,0.9658119658119658,,,,,,,,,,,,,,,,
null,,color_black,987007,,,black_plus_sign,,,,,null,,,,,,,,,,,,,,,,,,,,
null,,learn_phase(without_color),990031,,,black_plus_sign,,,,,null,US_Cities_List/racine.png,US_Cities_List/westpalmbeach.png,,,,,,,,,,,,,,,,,,
null,,black_cross(without_color),990482,,,blue,,,,,null,US_Cities_List/racine.png,US_Cities_List/westpalmbeach.png,,,,,,,,,,,,,,,,,,
445.7000000476837,,rt_plussign_withcolor,990984,,,blue,,,,,49,US_Cities_List/racine.png,US_Cities_List/westpalmbeach.png,,,,,,,,,,,,,,,,,,
null,,rt_thecrossant_black,992552,,,black_plus_sign,,,,,null,,,1,0.9661016949152542,,,,,,,,,,,,,,,,
null,,color_black,992661,,,black_plus_sign,,,,,null,,,,,,,,,,,,,,,,,,,,
null,,learn_phase(without_color),995706,,,black_plus_sign,,,,,null,US_Cities_List/newhope.png,US_Cities_List/boulder.png,,,,,,,,,,,,,,,,,,
null,,black_cross(without_color),996625,,,blue,,,,,null,US_Cities_List/newhope.png,US_Cities_List/boulder.png,,,,,,,,,,,,,,,,,,
507.7000000476837,,rt_plussign_withcolor,997136,,,blue,,,,,49,US_Cities_List/newhope.png,US_Cities_List/boulder.png,,,,,,,,,,,,,,,,,,
null,,rt_thecrossant_black,998243,,,black_plus_sign,,,,,null,,,1,0.9663865546218487,,,,,,,,,,,,,,,,
null,,color_black,998358,,,black_plus_sign,,,,,null,,,,,,,,,,,,,,,,,,,,
null,,learn_phase(without_color),1001421,,,black_plus_sign,,,,,null,US_Cities_List/hotsprings.png,US_Cities_List/racine.png,,,,,,,,,,,,,,,,,,
null,,black_cross(without_color),1002072,,,blue,,,,,null,US_Cities_List/hotsprings.png,US_Cities_List/racine.png,,,,,,,,,,,,,,,,,,
null,,rt_plussign_withcolor,1002579,,,blue,,,,,null,US_Cities_List/hotsprings.png,US_Cities_List/racine.png,,,,,,,,,,,,,,,,,,
1120.3999998569489,,rt_thecrossant_black,1003942,,,black_plus_sign,,,,,49,,,1,0.9666666666666667,,,,,,,,,,,,,,,,
null,,color_black,1004059,,,black_plus_sign,,,,,null,,,,,,,,,,,,,,,,,,,,
null,,learn_phase(without_color),1007077,,,black_plus_sign,,,,,null,US_Cities_List/shreveport.png,US_Cities_List/hanover.png,,,,,,,,,,,,,,,,,,
null,,black_cross(without_color),1007859,,,blue,,,,,null,US_Cities_List/shreveport.png,US_Cities_List/hanover.png,,,,,,,,,,,,,,,,,,
500.39999985694885,,rt_plussign_withcolor,1008362,,,blue,,,,,49,US_Cities_List/shreveport.png,US_Cities_List/hanover.png,,,,,,,,,,,,,,,,,,
null,,rt_thecrossant_black,1009598,,,black_plus_sign,,,,,null,,,1,0.9669421487603306,,,,,,,,,,,,,,,,
null,,color_black,1009704,,,black_plus_sign,,,,,null,,,,,,,,,,,,,,,,,,,,
null,,learn_phase(without_color),1012738,,,black_plus_sign,,,,,null,US_Cities_List/westpalmbeach.png,US_Cities_List/newhope.png,,,,,,,,,,,,,,,,,,
null,,black_cross(without_color),1013663,,,yellow,,,,,null,US_Cities_List/westpalmbeach.png,US_Cities_List/newhope.png,,,,,,,,,,,,,,,,,,
null,,rt_plussign_withcolor,1014175,,,yellow,,,,,null,US_Cities_List/westpalmbeach.png,US_Cities_List/newhope.png,,,,,,,,,,,,,,,,,,
1063.4000000953674,,rt_thecrossant_black,1015265,,,black_plus_sign,,,,,50,,,1,0.9672131147540983,,,,,,,,,,,,,,,,
null,,color_black,1015371,,,black_plus_sign,,,,,null,,,,,,,,,,,,,,,,,,,,
null,,learn_phase(without_color),1018397,,,black_plus_sign,,,,,null,US_Cities_List/boulder.png,US_Cities_List/newhope.png,,,,,,,,,,,,,,,,,,
null,,black_cross(without_color),1018942,,,yellow,,,,,null,US_Cities_List/boulder.png,US_Cities_List/newhope.png,,,,,,,,,,,,,,,,,,
null,,rt_plussign_withcolor,1019447,,,yellow,,,,,null,US_Cities_List/boulder.png,US_Cities_List/newhope.png,,,,,,,,,,,,,,,,,,
1186.4000000953674,,rt_thecrossant_black,1020908,,,black_plus_sign,,,,,50,,,1,0.967479674796748,,,,,,,,,,,,,,,,
null,,color_black,1021023,,,black_plus_sign,,,,,null,,,,,,,,,,,,,,,,,,,,
null,,learn_phase(without_color),1024041,,,black_plus_sign,,,,,null,US_Cities_List/huntsville.png,US_Cities_List/peoria.png,,,,,,,,,,,,,,,,,,
null,,black_cross(without_color),1025060,,,blue,,,,,null,US_Cities_List/huntsville.png,US_Cities_List/peoria.png,,,,,,,,,,,,,,,,,,
null,,rt_plussign_withcolor,1025565,,,blue,,,,,null,US_Cities_List/huntsville.png,US_Cities_List/peoria.png,,,,,,,,,,,,,,,,,,
790.7999999523163,,rt_thecrossant_black,1026562,,,black_plus_sign,,,,,49,,,1,0.967741935483871,,,,,,,,,,,,,,,,
null,,color_black,1026669,,,black_plus_sign,,,,,null,,,,,,,,,,,,,,,,,,,,
null,,learn_phase(without_color),1029695,,,black_plus_sign,,,,,null,US_Cities_List/carmel.png,US_Cities_List/westpalmbeach.png,,,,,,,,,,,,,,,,,,
null,,black_cross(without_color),1030106,,,yellow,,,,,null,US_Cities_List/carmel.png,US_Cities_List/westpalmbeach.png,,,,,,,,,,,,,,,,,,
null,,rt_plussign_withcolor,1030615,,,yellow,,,,,null,US_Cities_List/carmel.png,US_Cities_List/westpalmbeach.png,,,,,,,,,,,,,,,,,,
1262.2999999523163,,rt_thecrossant_black,1032222,,,black_plus_sign,,,,,50,,,1,0.968,,,,,,,,,,,,,,,,
null,,color_black,1032329,,,black_plus_sign,,,,,null,,,,,,,,,,,,,,,,,,,,
null,,learn_phase(without_color),1035412,,,black_plus_sign,,,,,null,US_Cities_List/hotsprings.png,US_Cities_List/racine.png,,,,,,,,,,,,,,,,,,
null,,black_cross(without_color),1036367,,,yellow,,,,,null,US_Cities_List/hotsprings.png,US_Cities_List/racine.png,,,,,,,,,,,,,,,,,,
null,,rt_plussign_withcolor,1036870,,,yellow,,,,,null,US_Cities_List/hotsprings.png,US_Cities_List/racine.png,,,,,,,,,,,,,,,,,,
591.0999999046326,,rt_thecrossant_black,1037930,,,black_plus_sign,,,,,50,,,1,0.9682539682539683,,,,,,,,,,,,,,,,
null,,color_black,1038050,,,black_plus_sign,,,,,null,,,,,,,,,,,,,,,,,,,,
null,,learn_break,1098057,,,learn_break,,,,,null,,,,,,,,,,,,,,,,,,,,
40123.09999990463,,intro_1,1138184,,,instruct,,,0,,,,,,,,,,,,,,,,,,,,,,
14919.300000190735,,intro_2,1153109,,,instruct,,,1,Next,,,,,,,,,,,,,,,,,,,,,
null,,directmemory_phase,1159681,,,../static/images/US_Cities_List/shreveport.png,,,,,null,,,0,0,../static/images/US_Cities_List/westpalmbeach.png,../static/images/US_Cities_List/hanover.png,../static/images/US_Cities_List/carmel.png,../static/images/US_Cities_List/hanover.png,../static/images/US_Cities_List/westpalmbeach.png,../static/images/US_Cities_List/carmel.png,0,,,,,,,,,
null,,warning_page,1162702,,,warning,,,,,null,,,,,,,,,,,,,,,,,,,,
null,,html-keyboard-response,1163714,,,<p></p>,,,,,null,,,,,,,,,,,,,,,,,,,,
2488.2000000476837,,directmemory_phase,1166281,,,../static/images/US_Cities_List/leesburg.png,,,,,51,,,1,0.5,../static/images/US_Cities_List/westpalmbeach.png,../static/images/US_Cities_List/carmel.png,../static/images/US_Cities_List/gatlinburg.png,../static/images/US_Cities_List/gatlinburg.png,../static/images/US_Cities_List/carmel.png,../static/images/US_Cities_List/westpalmbeach.png,1,,,,,,,,,
null,,html-keyboard-response,1167291,,,<p></p>,,,,,null,,,,,,,,,,,,,,,,,,,,
3033.7999999523163,,directmemory_phase,1170380,,,../static/images/US_Cities_List/boulder.png,,,,,50,,,0,0.3333333333333333,../static/images/US_Cities_List/gatlinburg.png,../static/images/US_Cities_List/hanover.png,../static/images/US_Cities_List/shreveport.png,../static/images/US_Cities_List/shreveport.png,../static/images/US_Cities_List/hanover.png,../static/images/US_Cities_List/gatlinburg.png,0.5,closer,,,,,,,,
null,,html-keyboard-response,1171390,,,<p></p>,,,,,null,,,,,,,,,,,,,,,,,,,,
2725.2999999523163,,directmemory_phase,1174199,,,../static/images/US_Cities_List/hotsprings.png,,,,,51,,,1,0.5,../static/images/US_Cities_List/leesburg.png,../static/images/US_Cities_List/peoria.png,../static/images/US_Cities_List/newhope.png,../static/images/US_Cities_List/newhope.png,../static/images/US_Cities_List/peoria.png,../static/images/US_Cities_List/leesburg.png,1,,,,,,,,,
null,,html-keyboard-response,1175222,,,<p></p>,,,,,null,,,,,,,,,,,,,,,,,,,,
2657,,directmemory_phase,1177947,,,../static/images/US_Cities_List/shreveport.png,,,,,49,,,0,0.4,../static/images/US_Cities_List/racine.png,../static/images/US_Cities_List/hotsprings.png,../static/images/US_Cities_List/boulder.png,../static/images/US_Cities_List/boulder.png,../static/images/US_Cities_List/hotsprings.png,../static/images/US_Cities_List/racine.png,0.5,closer,,,,,,,,
null,,html-keyboard-response,1178964,,,<p></p>,,,,,null,,,,,,,,,,,,,,,,,,,,
1575,,directmemory_phase,1180591,,,../static/images/US_Cities_List/peoria.png,,,,,50,,,0,0.3333333333333333,../static/images/US_Cities_List/boulder.png,../static/images/US_Cities_List/carmel.png,../static/images/US_Cities_List/huntsville.png,../static/images/US_Cities_List/huntsville.png,../static/images/US_Cities_List/carmel.png,../static/images/US_Cities_List/boulder.png,0.5,closer,,,,,,,,
null,,html-keyboard-response,1181612,,,<p></p>,,,,,null,,,,,,,,,,,,,,,,,,,,
3188.5999999046326,,directmemory_phase,1184874,,,../static/images/US_Cities_List/newhope.png,,,,,49,,,1,0.42857142857142855,../static/images/US_Cities_List/hotsprings.png,../static/images/US_Cities_List/peoria.png,../static/images/US_Cities_List/hanover.png,../static/images/US_Cities_List/hotsprings.png,../static/images/US_Cities_List/hanover.png,../static/images/US_Cities_List/peoria.png,1,,,,,,,,,
null,,html-keyboard-response,1185885,,,<p></p>,,,,,null,,,,,,,,,,,,,,,,,,,,
1517.5999999046326,,directmemory_phase,1187455,,,../static/images/US_Cities_List/huntsville.png,,,,,50,,,1,0.5,../static/images/US_Cities_List/racine.png,../static/images/US_Cities_List/peoria.png,../static/images/US_Cities_List/boulder.png,../static/images/US_Cities_List/peoria.png,../static/images/US_Cities_List/racine.png,../static/images/US_Cities_List/boulder.png,1,,,,,,,,,
null,,html-keyboard-response,1188469,,,<p></p>,,,,,null,,,,,,,,,,,,,,,,,,,,
1523.3000001907349,,directmemory_phase,1190048,,,../static/images/US_Cities_List/shreveport.png,,,,,51,,,1,0.5555555555555556,../static/images/US_Cities_List/racine.png,../static/images/US_Cities_List/hotsprings.png,../static/images/US_Cities_List/newhope.png,../static/images/US_Cities_List/newhope.png,../static/images/US_Cities_List/hotsprings.png,../static/images/US_Cities_List/racine.png,1,,,,,,,,,
null,,html-keyboard-response,1191063,,,<p></p>,,,,,null,,,,,,,,,,,,,,,,,,,,
2340.2000000476837,,directmemory_phase,1193470,,,../static/images/US_Cities_List/hotsprings.png,,,,,51,,,0,0.5,../static/images/US_Cities_List/racine.png,../static/images/US_Cities_List/huntsville.png,../static/images/US_Cities_List/westpalmbeach.png,../static/images/US_Cities_List/racine.png,../static/images/US_Cities_List/westpalmbeach.png,../static/images/US_Cities_List/huntsville.png,0.5,closer,,,,,,,,
null,,html-keyboard-response,1194482,,,<p></p>,,,,,null,,,,,,,,,,,,,,,,,,,,
1838.2000000476837,,directmemory_phase,1196367,,,../static/images/US_Cities_List/carmel.png,,,,,51,,,1,0.5454545454545454,../static/images/US_Cities_List/huntsville.png,../static/images/US_Cities_List/newhope.png,../static/images/US_Cities_List/gatlinburg.png,../static/images/US_Cities_List/gatlinburg.png,../static/images/US_Cities_List/newhope.png,../static/images/US_Cities_List/huntsville.png,1,,,,,,,,,
null,,html-keyboard-response,1197379,,,<p></p>,,,,,null,,,,,,,,,,,,,,,,,,,,
2143.2000000476837,,directmemory_phase,1199581,,,../static/images/US_Cities_List/westpalmbeach.png,,,,,49,,,0,0.5,../static/images/US_Cities_List/shreveport.png,../static/images/US_Cities_List/newhope.png,../static/images/US_Cities_List/leesburg.png,../static/images/US_Cities_List/newhope.png,../static/images/US_Cities_List/shreveport.png,../static/images/US_Cities_List/leesburg.png,0.5,closer,,,,,,,,
null,,html-keyboard-response,1200594,,,<p></p>,,,,,null,,,,,,,,,,,,,,,,,,,,
1475.2999999523163,,directmemory_phase,1202131,,,../static/images/US_Cities_List/racine.png,,,,,51,,,1,0.5384615384615384,../static/images/US_Cities_List/leesburg.png,../static/images/US_Cities_List/newhope.png,../static/images/US_Cities_List/hotsprings.png,../static/images/US_Cities_List/hotsprings.png,../static/images/US_Cities_List/newhope.png,../static/images/US_Cities_List/leesburg.png,1,,,,,,,,,
null,,html-keyboard-response,1203138,,,<p></p>,,,,,null,,,,,,,,,,,,,,,,,,,,
2712.5999999046326,,directmemory_phase,1205909,,,../static/images/US_Cities_List/newhope.png,,,,,49,,,1,0.5714285714285714,../static/images/US_Cities_List/shreveport.png,../static/images/US_Cities_List/gatlinburg.png,../static/images/US_Cities_List/hanover.png,../static/images/US_Cities_List/shreveport.png,../static/images/US_Cities_List/hanover.png,../static/images/US_Cities_List/gatlinburg.png,1,,,,,,,,,
null,,html-keyboard-response,1206919,,,<p></p>,,,,,null,,,,,,,,,,,,,,,,,,,,
2417.9000000953674,,directmemory_phase,1209424,,,../static/images/US_Cities_List/racine.png,,,,,51,,,0,0.5333333333333333,../static/images/US_Cities_List/peoria.png,../static/images/US_Cities_List/shreveport.png,../static/images/US_Cities_List/newhope.png,../static/images/US_Cities_List/peoria.png,../static/images/US_Cities_List/newhope.png,../static/images/US_Cities_List/shreveport.png,0.5,closer,,,,,,,,
null,,html-keyboard-response,1210431,,,<p></p>,,,,,null,,,,,,,,,,,,,,,,,,,,
1985.5,,directmemory_phase,1212465,,,../static/images/US_Cities_List/hotsprings.png,,,,,51,,,1,0.5625,../static/images/US_Cities_List/gatlinburg.png,../static/images/US_Cities_List/westpalmbeach.png,../static/images/US_Cities_List/boulder.png,../static/images/US_Cities_List/boulder.png,../static/images/US_Cities_List/westpalmbeach.png,../static/images/US_Cities_List/gatlinburg.png,1,,,,,,,,,
null,,html-keyboard-response,1213480,,,<p></p>,,,,,null,,,,,,,,,,,,,,,,,,,,
2032.5,,directmemory_phase,1215575,,,../static/images/US_Cities_List/racine.png,,,,,50,,,0,0.5294117647058824,../static/images/US_Cities_List/westpalmbeach.png,../static/images/US_Cities_List/cornwall.png,../static/images/US_Cities_List/carmel.png,../static/images/US_Cities_List/westpalmbeach.png,../static/images/US_Cities_List/carmel.png,../static/images/US_Cities_List/cornwall.png,0.5,closer,,,,,,,,
null,,html-keyboard-response,1216586,,,<p></p>,,,,,null,,,,,,,,,,,,,,,,,,,,
1536,,directmemory_phase,1218193,,,../static/images/US_Cities_List/gatlinburg.png,,,,,51,,,1,0.5555555555555556,../static/images/US_Cities_List/shreveport.png,../static/images/US_Cities_List/huntsville.png,../static/images/US_Cities_List/carmel.png,../static/images/US_Cities_List/carmel.png,../static/images/US_Cities_List/huntsville.png,../static/images/US_Cities_List/shreveport.png,1,,,,,,,,,
null,,html-keyboard-response,1219201,,,<p></p>,,,,,null,,,,,,,,,,,,,,,,,,,,
1265.5,,directmemory_phase,1220528,,,../static/images/US_Cities_List/westpalmbeach.png,,,,,51,,,0,0.5263157894736842,../static/images/US_Cities_List/hotsprings.png,../static/images/US_Cities_List/racine.png,../static/images/US_Cities_List/huntsville.png,../static/images/US_Cities_List/racine.png,../static/images/US_Cities_List/hotsprings.png,../static/images/US_Cities_List/huntsville.png,0.5,closer,,,,,,,,
null,,html-keyboard-response,1221536,,,<p></p>,,,,,null,,,,,,,,,,,,,,,,,,,,
2188.4000000953674,,directmemory_phase,1223780,,,../static/images/US_Cities_List/gatlinburg.png,,,,,49,,,0,0.5,../static/images/US_Cities_List/racine.png,../static/images/US_Cities_List/peoria.png,../static/images/US_Cities_List/hotsprings.png,../static/images/US_Cities_List/peoria.png,../static/images/US_Cities_List/racine.png,../static/images/US_Cities_List/hotsprings.png,0.5,closer,,,,,,,,
null,,html-keyboard-response,1224802,,,<p></p>,,,,,null,,,,,,,,,,,,,,,,,,,,
2228,,directmemory_phase,1227095,,,../static/images/US_Cities_List/carmel.png,,,,,51,,,0,0.47619047619047616,../static/images/US_Cities_List/westpalmbeach.png,../static/images/US_Cities_List/cornwall.png,../static/images/US_Cities_List/peoria.png,../static/images/US_Cities_List/westpalmbeach.png,../static/images/US_Cities_List/peoria.png,../static/images/US_Cities_List/cornwall.png,0.5,closer,,,,,,,,
null,,html-keyboard-response,1228111,,,<p></p>,,,,,null,,,,,,,,,,,,,,,,,,,,
1413.9000000953674,,directmemory_phase,1229589,,,../static/images/US_Cities_List/newhope.png,,,,,51,,,0,0.45454545454545453,../static/images/US_Cities_List/carmel.png,../static/images/US_Cities_List/boulder.png,../static/images/US_Cities_List/leesburg.png,../static/images/US_Cities_List/boulder.png,../static/images/US_Cities_List/carmel.png,../static/images/US_Cities_List/leesburg.png,0.5,closer,,,,,,,,
null,,html-keyboard-response,1230602,,,<p></p>,,,,,null,,,,,,,,,,,,,,,,,,,,
1547.0999999046326,,directmemory_phase,1232201,,,../static/images/US_Cities_List/gatlinburg.png,,,,,51,,,0,0.43478260869565216,../static/images/US_Cities_List/leesburg.png,../static/images/US_Cities_List/boulder.png,../static/images/US_Cities_List/huntsville.png,../static/images/US_Cities_List/leesburg.png,../static/images/US_Cities_List/huntsville.png,../static/images/US_Cities_List/boulder.png,0.5,closer,,,,,,,,
null,,html-keyboard-response,1233214,,,<p></p>,,,,,null,,,,,,,,,,,,,,,,,,,,
2117.4000000953674,,directmemory_phase,1235410,,,../static/images/US_Cities_List/newhope.png,,,,,51,,,0,0.4166666666666667,../static/images/US_Cities_List/cornwall.png,../static/images/US_Cities_List/westpalmbeach.png,../static/images/US_Cities_List/peoria.png,../static/images/US_Cities_List/westpalmbeach.png,../static/images/US_Cities_List/cornwall.png,../static/images/US_Cities_List/peoria.png,0.5,closer,,,,,,,,
null,,html-keyboard-response,1236425,,,<p></p>,,,,,null,,,,,,,,,,,,,,,,,,,,
1655.6000001430511,,directmemory_phase,1238198,,,../static/images/US_Cities_List/boulder.png,,,,,50,,,0,0.4,../static/images/US_Cities_List/cornwall.png,../static/images/US_Cities_List/peoria.png,../static/images/US_Cities_List/racine.png,../static/images/US_Cities_List/cornwall.png,../static/images/US_Cities_List/racine.png,../static/images/US_Cities_List/peoria.png,0.5,closer,,,,,,,,
null,,html-keyboard-response,1239206,,,<p></p>,,,,,null,,,,,,,,,,,,,,,,,,,,
2658,,directmemory_phase,1241917,,,../static/images/US_Cities_List/hanover.png,,,,,49,,,0,0.38461538461538464,../static/images/US_Cities_List/newhope.png,../static/images/US_Cities_List/shreveport.png,../static/images/US_Cities_List/westpalmbeach.png,../static/images/US_Cities_List/shreveport.png,../static/images/US_Cities_List/newhope.png,../static/images/US_Cities_List/westpalmbeach.png,0.5,closer,,,,,,,,
null,,html-keyboard-response,1242931,,,<p></p>,,,,,null,,,,,,,,,,,,,,,,,,,,
2321.0999999046326,,directmemory_phase,1245312,,,../static/images/US_Cities_List/boulder.png,,,,,50,,,0,0.37037037037037035,../static/images/US_Cities_List/huntsville.png,../static/images/US_Cities_List/racine.png,../static/images/US_Cities_List/newhope.png,../static/images/US_Cities_List/newhope.png,../static/images/US_Cities_List/racine.png,../static/images/US_Cities_List/huntsville.png,0.5,closer,,,,,,,,
null,,html-keyboard-response,1246325,,,<p></p>,,,,,null,,,,,,,,,,,,,,,,,,,,
2651.9000000953674,,directmemory_phase,1249039,,,../static/images/US_Cities_List/westpalmbeach.png,,,,,49,,,0,0.35714285714285715,../static/images/US_Cities_List/leesburg.png,../static/images/US_Cities_List/gatlinburg.png,../static/images/US_Cities_List/carmel.png,../static/images/US_Cities_List/carmel.png,../static/images/US_Cities_List/gatlinburg.png,../static/images/US_Cities_List/leesburg.png,0.5,closer,,,,,,,,
null,,html-keyboard-response,1250052,,,<p></p>,,,,,null,,,,,,,,,,,,,,,,,,,,
1156.8999998569489,,directmemory_phase,1251267,,,../static/images/US_Cities_List/boulder.png,,,,,51,,,1,0.3793103448275862,../static/images/US_Cities_List/carmel.png,../static/images/US_Cities_List/hanover.png,../static/images/US_Cities_List/hotsprings.png,../static/images/US_Cities_List/hotsprings.png,../static/images/US_Cities_List/hanover.png,../static/images/US_Cities_List/carmel.png,1,,,,,,,,,
null,,html-keyboard-response,1252274,,,<p></p>,,,,,null,,,,,,,,,,,,,,,,,,,,
2085.9000000953674,,directmemory_phase,1254422,,,../static/images/US_Cities_List/peoria.png,,,,,50,,,0,0.36666666666666664,../static/images/US_Cities_List/racine.png,../static/images/US_Cities_List/cornwall.png,../static/images/US_Cities_List/hotsprings.png,../static/images/US_Cities_List/racine.png,../static/images/US_Cities_List/hotsprings.png,../static/images/US_Cities_List/cornwall.png,0.5,closer,,,,,,,,
null,,html-keyboard-response,1255434,,,<p></p>,,,,,null,,,,,,,,,,,,,,,,,,,,
1754.1000001430511,,directmemory_phase,1257252,,,../static/images/US_Cities_List/cornwall.png,,,,,50,,,1,0.3870967741935484,../static/images/US_Cities_List/newhope.png,../static/images/US_Cities_List/boulder.png,../static/images/US_Cities_List/westpalmbeach.png,../static/images/US_Cities_List/boulder.png,../static/images/US_Cities_List/newhope.png,../static/images/US_Cities_List/westpalmbeach.png,1,,,,,,,,,
null,,html-keyboard-response,1258267,,,<p></p>,,,,,null,,,,,,,,,,,,,,,,,,,,
1760,,directmemory_phase,1260100,,,../static/images/US_Cities_List/peoria.png,,,,,51,,,0,0.375,../static/images/US_Cities_List/hotsprings.png,../static/images/US_Cities_List/gatlinburg.png,../static/images/US_Cities_List/newhope.png,../static/images/US_Cities_List/gatlinburg.png,../static/images/US_Cities_List/hotsprings.png,../static/images/US_Cities_List/newhope.png,0.5,closer,,,,,,,,
null,,html-keyboard-response,1261112,,,<p></p>,,,,,null,,,,,,,,,,,,,,,,,,,,
14559.699999809265,,intro_1,1275675,,,instruct,,,0,,,,,,,,,,,,,,,,,,,,,,
5119.300000190735,,intro_2,1280800,,,instruct,,,1,Next,,,,,,,,,,,,,,,,,,,,,
5688.599999904633,,intro_3,1286494,,,instruct,,,1,Next,,,,,,,,,,,,,,,,,,,,,
5264.099999904633,,intro_4,1291763,,,instruct,,,1,Next,,,,,,,,,,,,,,,,,,,,,
4178.700000047684,,intro_5,1295947,,,instruct,,,1,Next,,,,,,,,,,,,,,,,,,,,,
2620.2999999523163,,intro_6,1298573,,,instruct,,,1,Next,,,,,,,,,,,,,,,,,,,,,
5852.400000095367,,intro_7,1304431,,,instruct,,,1,Next,,,,,,,,,,,,,,,,,,,,,
9800.799999952316,,intro_8,1314237,,,instruct,,,1,Next,,,,,,,,,,,,,,,,,,,,,
4366.400000095367,,intro_9,1318610,,,instruct,,,1,Next,,,,,,,,,,,,,,,,,,,,,
5088.600000143051,,intro_10,1323704,,,instruct,,,1,Next,,,,,,,,,,,,,,,,,,,,,
9268,,intro_11,1332978,,,instruct,,,1,Next,,,,,,,,,,,,,,,,,,,,,
2718.4000000953674,,shortestpath_phase,1335788,,,../static/images/US_Cities_List/hanover.png,,,,,49,../static/images/US_Cities_List/peoria.png,../static/images/US_Cities_List/newhope.png,0,0,,,,../static/images/US_Cities_List/newhope.png,,,,,Three Edge Diff,Two Edge Five Edge,,,,,,
null,,html-keyboard-response,1336801,,,<p></p>,,,,,null,,,,,,,,,,,,,,,,,,,,
3205.600000143051,,shortestpath_phase,1340044,,,../static/images/US_Cities_List/huntsville.png,,,,,50,../static/images/US_Cities_List/hanover.png,../static/images/US_Cities_List/shreveport.png,1,0.5,,,,../static/images/US_Cities_List/shreveport.png,,,,,One Edge Diff,Five Edge Six Edge,,,,,,
null,,html-keyboard-response,1341062,,,<p></p>,,,,,null,,,,,,,,,,,,,,,,,,,,
3040.800000190735,,shortestpath_phase,1344145,,,../static/images/US_Cities_List/hanover.png,,,,,49,../static/images/US_Cities_List/carmel.png,../static/images/US_Cities_List/huntsville.png,1,0.6666666666666666,,,,../static/images/US_Cities_List/carmel.png,,,,,Two Edge Diff,Four Edge Six Edge,,,,,,
null,,html-keyboard-response,1345153,,,<p></p>,,,,,null,,,,,,,,,,,,,,,,,,,,
2654.9000000953674,,shortestpath_phase,1347864,,,../static/images/US_Cities_List/boulder.png,,,,,50,../static/images/US_Cities_List/carmel.png,../static/images/US_Cities_List/westpalmbeach.png,1,0.75,,,,../static/images/US_Cities_List/westpalmbeach.png,,,,,One Edge Diff,Two Edge Three Edge,,,,,,
null,,html-keyboard-response,1348872,,,<p></p>,,,,,null,,,,,,,,,,,,,,,,,,,,
2999,,shortestpath_phase,1351951,,,../static/images/US_Cities_List/gatlinburg.png,,,,,50,../static/images/US_Cities_List/hanover.png,../static/images/US_Cities_List/racine.png,1,0.8,,,,../static/images/US_Cities_List/racine.png,,,,,Three Edge Diff,Three Edge Six Edge,,,,,,
null,,html-keyboard-response,1352964,,,<p></p>,,,,,null,,,,,,,,,,,,,,,,,,,,
1356.7999999523163,,shortestpath_phase,1354367,,,../static/images/US_Cities_List/leesburg.png,,,,,50,../static/images/US_Cities_List/racine.png,../static/images/US_Cities_List/peoria.png,1,0.8333333333333334,,,,../static/images/US_Cities_List/peoria.png,,,,,One Edge Diff,Two Edge Three Edge,,,,,,
null,,html-keyboard-response,1355375,,,<p></p>,,,,,null,,,,,,,,,,,,,,,,,,,,
1184.2000000476837,,shortestpath_phase,1356634,,,../static/images/US_Cities_List/cornwall.png,,,,,50,../static/images/US_Cities_List/gatlinburg.png,../static/images/US_Cities_List/newhope.png,1,0.8571428571428571,,,,../static/images/US_Cities_List/newhope.png,,,,,Three Edge Diff,Two Edge Five Edge,,,,,,
null,,html-keyboard-response,1357646,,,<p></p>,,,,,null,,,,,,,,,,,,,,,,,,,,
2462.0999999046326,,shortestpath_phase,1360147,,,../static/images/US_Cities_List/leesburg.png,,,,,49,../static/images/US_Cities_List/boulder.png,../static/images/US_Cities_List/hotsprings.png,0,0.75,,,,../static/images/US_Cities_List/hotsprings.png,,,,,One Edge Diff,Four Edge Five Edge,,,,,,
null,,html-keyboard-response,1361164,,,<p></p>,,,,,null,,,,,,,,,,,,,,,,,,,,
2234.7000000476837,,shortestpath_phase,1363434,,,../static/images/US_Cities_List/hanover.png,,,,,50,../static/images/US_Cities_List/boulder.png,../static/images/US_Cities_List/peoria.png,0,0.6666666666666666,,,,../static/images/US_Cities_List/boulder.png,,,,,Three Edge Diff,Two Edge Five Edge,,,,,,
null,,html-keyboard-response,1364447,,,<p></p>,,,,,null,,,,,,,,,,,,,,,,,,,,
2389.2999999523163,,shortestpath_phase,1366897,,,../static/images/US_Cities_List/shreveport.png,,,,,50,../static/images/US_Cities_List/leesburg.png,../static/images/US_Cities_List/westpalmbeach.png,1,0.7,,,,../static/images/US_Cities_List/westpalmbeach.png,,,,,Three Edge Diff,Two Edge Five Edge,,,,,,
null,,html-keyboard-response,1367908,,,<p></p>,,,,,null,,,,,,,,,,,,,,,,,,,,
1355.7000000476837,,shortestpath_phase,1369329,,,../static/images/US_Cities_List/cornwall.png,,,,,49,../static/images/US_Cities_List/huntsville.png,../static/images/US_Cities_List/hotsprings.png,0,0.6363636363636364,,,,../static/images/US_Cities_List/hotsprings.png,,,,,Three Edge Diff,Three Edge Six Edge,,,,,,
null,,html-keyboard-response,1370337,,,<p></p>,,,,,null,,,,,,,,,,,,,,,,,,,,
