rt,responses,trial_type,time_elapsed,image_type,sequence,stimulus,cities,city_images,button_pressed,response,key_press,stimulus_left,stimulus_right,accuracy,cumulative_accuracy,stimulus_down_left,stimulus_down_mid,stimulus_down_right,stimulus_correct,stimulus_short,stimulus_far,weighted_accuracy,missedtrial,condition,specific_pairs,imgL_ID,imgR_ID,linedress,linedressed,detour_trial,linedressed_detor
36414.5,{worker_id:68474cc30bedb8b982a92c8b},id_enter,36416,fictional,interleaved,flights,Granton Ridge; New Verdan; Orchard Bend; North Arroya; Cedarwyn; Juniper Creek; Delaro Park; Hollendale; Riverlyn; Claywater; Sunmere; Baymarsh; Hawthorne Bluffs,US_Cities_List/hanover.png; US_Cities_List/racine.png; US_Cities_List/peoria.png; US_Cities_List/newhope.png; US_Cities_List/huntsville.png; US_Cities_List/gatlinburg.png; US_Cities_List/cornwall.png; US_Cities_List/carmel.png; US_Cities_List/westpalmbeach.png; US_Cities_List/boulder.png; US_Cities_List/hotsprings.png; US_Cities_List/leesburg.png; US_Cities_List/shreveport.png,,,,,,,,,,,,,,,,,,,,,,,
24687,,fullscreen,61111,,,make_fullscreen,,,0,,,,,,,,,,,,,,,,,,,,,,
12382,,intro_1,73495,,,instruct,,,0,,,,,,,,,,,,,,,,,,,,,,
18254.900000035763,,intro_2,91751,,,instruct,,,1,Next,,,,,,,,,,,,,,,,,,,,,
17494.80000001192,,intro_3,109247,,,instruct,,,1,Next,,,,,,,,,,,,,,,,,,,,,
18430.399999976158,,intro_4,127679,,,instruct,,,1,Next,,,,,,,,,,,,,,,,,,,,,
18415.30000001192,,intro_5,146095,,,instruct,,,1,Next,,,,,,,,,,,,,,,,,,,,,
28990.5,,intro_6,175087,,,instruct,,,1,Next,,,,,,,,,,,,,,,,,,,,,
13639,,intro_7,188726,,,instruct,,,1,Next,,,,,,,,,,,,,,,,,,,,,
null,,learn_prac_1,191728,,,lean_prac_1,,,,,null,,,,,,,,,,,,,,,,,,,,
null,,html-keyboard-response,192730,,,<p></p>,,,,,null,,,,,,,,,,,,,,,,,,,,
7003,,intro_1,199734,,,instruct,,,0,,,,,,,,,,,,,,,,,,,,,,
10183.199999988079,,intro_2,209918,,,instruct,,,1,Next,,,,,,,,,,,,,,,,,,,,,
null,,learn_prac_2,212920,,,lean_prac_2,,,,,null,,,,,,,,,,,,,,,,,,,,
null,,html-keyboard-response,213923,,,<p></p>,,,,,null,,,,,,,,,,,,,,,,,,,,
6418,,intro_1,220343,,,instruct,,,0,,,,,,,,,,,,,,,,,,,,,,
9199.199999988079,,intro_2,229543,,,instruct,,,1,Next,,,,,,,,,,,,,,,,,,,,,
77934.80000001192,,intro_3,307479,,,instruct,,,1,Next,,,,,,,,,,,,,,,,,,,,,
null,,prac_atten_color_black,308281,,,black_plus_sign,,,,,null,,,,,,,,,,,,,,,,,,,,
null,,prac_atten_color,308884,,,prac_stop_color,,,,,null,,,,,,,,,,,,,,,,,,,,
null,,prac_atten_color_black,310886,,,black_plus_sign,,,,,null,,,,,,,,,,,,,,,,,,,,
18229.5,,attentioncheck_help,329118,,,instruct,,,,,32,,,,,,,,,,,,,,,,,,,,
null,,prac_atten_color_black,329920,,,black_plus_sign,,,,,null,,,,,,,,,,,,,,,,,,,,
null,,prac_atten_color,330453,,,prac_stop_color,,,,,null,,,,,,,,,,,,,,,,,,,,
761.5,,prac_atten_color_black,332455,,,black_plus_sign,,,,,50,,,,,,,,,,,,,,,,,,,,
null,,prac_atten_color_black,333326,,,black_plus_sign,,,,,null,,,,,,,,,,,,,,,,,,,,
null,,prac_atten_color,333883,,,prac_stop_color,,,,,null,,,,,,,,,,,,,,,,,,,,
770,,prac_atten_color_black,335885,,,black_plus_sign,,,,,50,,,,,,,,,,,,,,,,,,,,
null,,prac_atten_color_black,336733,,,black_plus_sign,,,,,null,,,,,,,,,,,,,,,,,,,,
960.5,,prac_atten_color,337762,,,prac_stop_color,,,,,49,,,,,,,,,,,,,,,,,,,,
null,,prac_atten_color_black,339763,,,black_plus_sign,,,,,null,,,,,,,,,,,,,,,,,,,,
null,,prac_atten_color_black,340139,,,black_plus_sign,,,,,null,,,,,,,,,,,,,,,,,,,,
null,,prac_atten_color,340917,,,prac_stop_color,,,,,null,,,,,,,,,,,,,,,,,,,,
346.39999997615814,,prac_atten_color_black,342919,,,black_plus_sign,,,,,50,,,,,,,,,,,,,,,,,,,,
null,,prac_atten_color_black,343562,,,black_plus_sign,,,,,null,,,,,,,,,,,,,,,,,,,,
null,,prac_atten_color,343999,,,prac_stop_color,,,,,null,,,,,,,,,,,,,,,,,,,,
605.6000000238419,,prac_atten_color_black,346001,,,black_plus_sign,,,,,50,,,,,,,,,,,,,,,,,,,,
null,,prac_atten_color_black,346969,,,black_plus_sign,,,,,null,,,,,,,,,,,,,,,,,,,,
null,,prac_atten_color,347523,,,prac_stop_color,,,,,null,,,,,,,,,,,,,,,,,,,,
411,,prac_atten_color_black,349525,,,black_plus_sign,,,,,49,,,,,,,,,,,,,,,,,,,,
null,,prac_atten_color_black,350375,,,black_plus_sign,,,,,null,,,,,,,,,,,,,,,,,,,,
null,,prac_atten_color,351258,,,prac_stop_color,,,,,null,,,,,,,,,,,,,,,,,,,,
82.60000002384186,,prac_atten_color_black,353261,,,black_plus_sign,,,,,50,,,,,,,,,,,,,,,,,,,,
null,,prac_atten_color_black,353783,,,black_plus_sign,,,,,null,,,,,,,,,,,,,,,,,,,,
null,,prac_atten_color,354365,,,prac_stop_color,,,,,null,,,,,,,,,,,,,,,,,,,,
305.5,,prac_atten_color_black,356367,,,black_plus_sign,,,,,49,,,,,,,,,,,,,,,,,,,,
null,,prac_atten_color_black,357190,,,black_plus_sign,,,,,null,,,,,,,,,,,,,,,,,,,,
null,,prac_atten_color,357741,,,prac_stop_color,,,,,null,,,,,,,,,,,,,,,,,,,,
273.0999999642372,,prac_atten_color_black,359742,,,black_plus_sign,,,,,49,,,,,,,,,,,,,,,,,,,,
9358.899999976158,,attentioncheck_feedback,369103,,,cross_check_feedback,,,0,,,,,,,,,,,,,,,,,,,,,,
16896.399999976158,,last_instruct,386000,,,instruct,,,,,32,,,,,,,,,,,,,,,,,,,,
null,,learn_phase(without_color),389009,,,black_plus_sign,,,,,null,US_Cities_List/carmel.png,US_Cities_List/boulder.png,,,,,,,,,,,,,,,,,,
null,,black_cross(without_color),389611,,,blue,,,,,null,US_Cities_List/carmel.png,US_Cities_List/boulder.png,,,,,,,,,,,,,,,,,,
null,,rt_plussign_withcolor,390114,,,blue,,,,,null,US_Cities_List/carmel.png,US_Cities_List/boulder.png,,,,,,,,,,,,,,,,,,
906.5,,rt_thecrossant_black,391518,,,black_plus_sign,,,,,49,,,1,1,,,,,,,,,,,,,,,,
null,,color_black,391621,,,black_plus_sign,,,,,null,,,,,,,,,,,,,,,,,,,,
null,,learn_phase(without_color),394632,,,black_plus_sign,,,,,null,US_Cities_List/newhope.png,US_Cities_List/huntsville.png,,,,,,,,,,,,,,,,,,
null,,black_cross(without_color),395087,,,yellow,,,,,null,US_Cities_List/newhope.png,US_Cities_List/huntsville.png,,,,,,,,,,,,,,,,,,
null,,rt_plussign_withcolor,395590,,,yellow,,,,,null,US_Cities_List/newhope.png,US_Cities_List/huntsville.png,,,,,,,,,,,,,,,,,,
1184.199999988079,,rt_thecrossant_black,397150,,,black_plus_sign,,,,,50,,,1,1,,,,,,,,,,,,,,,,
null,,color_black,397253,,,black_plus_sign,,,,,null,,,,,,,,,,,,,,,,,,,,
null,,learn_phase(without_color),400279,,,black_plus_sign,,,,,null,US_Cities_List/hanover.png,US_Cities_List/racine.png,,,,,,,,,,,,,,,,,,
null,,black_cross(without_color),401228,,,yellow,,,,,null,US_Cities_List/hanover.png,US_Cities_List/racine.png,,,,,,,,,,,,,,,,,,
null,,rt_plussign_withcolor,401730,,,yellow,,,,,null,US_Cities_List/hanover.png,US_Cities_List/racine.png,,,,,,,,,,,,,,,,,,
842.5,,rt_thecrossant_black,402786,,,black_plus_sign,,,,,50,,,1,1,,,,,,,,,,,,,,,,
null,,color_black,402889,,,black_plus_sign,,,,,null,,,,,,,,,,,,,,,,,,,,
null,,learn_phase(without_color),405902,,,black_plus_sign,,,,,null,US_Cities_List/shreveport.png,US_Cities_List/cornwall.png,,,,,,,,,,,,,,,,,,
null,,black_cross(without_color),406902,,,yellow,,,,,null,US_Cities_List/shreveport.png,US_Cities_List/cornwall.png,,,,,,,,,,,,,,,,,,
null,,rt_plussign_withcolor,407403,,,yellow,,,,,null,US_Cities_List/shreveport.png,US_Cities_List/cornwall.png,,,,,,,,,,,,,,,,,,
1289.800000011921,,rt_thecrossant_black,408414,,,black_plus_sign,,,,,50,,,1,1,,,,,,,,,,,,,,,,
null,,color_black,408524,,,black_plus_sign,,,,,null,,,,,,,,,,,,,,,,,,,,
null,,learn_phase(without_color),411536,,,black_plus_sign,,,,,null,US_Cities_List/leesburg.png,US_Cities_List/hotsprings.png,,,,,,,,,,,,,,,,,,
null,,black_cross(without_color),411972,,,yellow,,,,,null,US_Cities_List/leesburg.png,US_Cities_List/hotsprings.png,,,,,,,,,,,,,,,,,,
null,,rt_plussign_withcolor,412474,,,yellow,,,,,null,US_Cities_List/leesburg.png,US_Cities_List/hotsprings.png,,,,,,,,,,,,,,,,,,
1468.1000000238419,,rt_thecrossant_black,414044,,,black_plus_sign,,,,,50,,,1,1,,,,,,,,,,,,,,,,
null,,color_black,414146,,,black_plus_sign,,,,,null,,,,,,,,,,,,,,,,,,,,
null,,learn_phase(without_color),417159,,,black_plus_sign,,,,,null,US_Cities_List/westpalmbeach.png,US_Cities_List/gatlinburg.png,,,,,,,,,,,,,,,,,,
null,,black_cross(without_color),417918,,,blue,,,,,null,US_Cities_List/westpalmbeach.png,US_Cities_List/gatlinburg.png,,,,,,,,,,,,,,,,,,
null,,rt_plussign_withcolor,418420,,,blue,,,,,null,US_Cities_List/westpalmbeach.png,US_Cities_List/gatlinburg.png,,,,,,,,,,,,,,,,,,
1167.1000000238419,,rt_thecrossant_black,419664,,,black_plus_sign,,,,,49,,,1,1,,,,,,,,,,,,,,,,
null,,color_black,419766,,,black_plus_sign,,,,,null,,,,,,,,,,,,,,,,,,,,
null,,learn_phase(without_color),422794,,,black_plus_sign,,,,,null,US_Cities_List/leesburg.png,US_Cities_List/newhope.png,,,,,,,,,,,,,,,,,,
null,,black_cross(without_color),423244,,,blue,,,,,null,US_Cities_List/leesburg.png,US_Cities_List/newhope.png,,,,,,,,,,,,,,,,,,
null,,rt_plussign_withcolor,423746,,,blue,,,,,null,US_Cities_List/leesburg.png,US_Cities_List/newhope.png,,,,,,,,,,,,,,,,,,
1398.300000011921,,rt_thecrossant_black,425301,,,black_plus_sign,,,,,49,,,1,1,,,,,,,,,,,,,,,,
null,,color_black,425404,,,black_plus_sign,,,,,null,,,,,,,,,,,,,,,,,,,,
null,,learn_phase(without_color),428423,,,black_plus_sign,,,,,null,US_Cities_List/cornwall.png,US_Cities_List/westpalmbeach.png,,,,,,,,,,,,,,,,,,
null,,black_cross(without_color),429188,,,blue,,,,,null,US_Cities_List/cornwall.png,US_Cities_List/westpalmbeach.png,,,,,,,,,,,,,,,,,,
null,,rt_plussign_withcolor,429690,,,blue,,,,,null,US_Cities_List/cornwall.png,US_Cities_List/westpalmbeach.png,,,,,,,,,,,,,,,,,,
1062.699999988079,,rt_thecrossant_black,430930,,,black_plus_sign,,,,,49,,,1,1,,,,,,,,,,,,,,,,
null,,color_black,431033,,,black_plus_sign,,,,,null,,,,,,,,,,,,,,,,,,,,
null,,learn_phase(without_color),434045,,,black_plus_sign,,,,,null,US_Cities_List/peoria.png,US_Cities_List/gatlinburg.png,,,,,,,,,,,,,,,,,,
null,,black_cross(without_color),434783,,,blue,,,,,null,US_Cities_List/peoria.png,US_Cities_List/gatlinburg.png,,,,,,,,,,,,,,,,,,
null,,rt_plussign_withcolor,435286,,,blue,,,,,null,US_Cities_List/peoria.png,US_Cities_List/gatlinburg.png,,,,,,,,,,,,,,,,,,
1253.8999999761581,,rt_thecrossant_black,436553,,,black_plus_sign,,,,,49,,,1,1,,,,,,,,,,,,,,,,
null,,color_black,436662,,,black_plus_sign,,,,,null,,,,,,,,,,,,,,,,,,,,
null,,learn_phase(without_color),439677,,,black_plus_sign,,,,,null,US_Cities_List/newhope.png,US_Cities_List/leesburg.png,,,,,,,,,,,,,,,,,,
null,,black_cross(without_color),440734,,,blue,,,,,null,US_Cities_List/newhope.png,US_Cities_List/leesburg.png,,,,,,,,,,,,,,,,,,
null,,rt_plussign_withcolor,441237,,,blue,,,,,null,US_Cities_List/newhope.png,US_Cities_List/leesburg.png,,,,,,,,,,,,,,,,,,
1275.800000011921,,rt_thecrossant_black,442190,,,black_plus_sign,,,,,49,,,1,1,,,,,,,,,,,,,,,,
null,,color_black,442293,,,black_plus_sign,,,,,null,,,,,,,,,,,,,,,,,,,,
null,,learn_phase(without_color),445310,,,black_plus_sign,,,,,null,US_Cities_List/hotsprings.png,US_Cities_List/westpalmbeach.png,,,,,,,,,,,,,,,,,,
null,,black_cross(without_color),445861,,,yellow,,,,,null,US_Cities_List/hotsprings.png,US_Cities_List/westpalmbeach.png,,,,,,,,,,,,,,,,,,
null,,rt_plussign_withcolor,446374,,,yellow,,,,,null,US_Cities_List/hotsprings.png,US_Cities_List/westpalmbeach.png,,,,,,,,,,,,,,,,,,
1515.5,,rt_thecrossant_black,447853,,,black_plus_sign,,,,,50,,,1,1,,,,,,,,,,,,,,,,
null,,color_black,447956,,,black_plus_sign,,,,,null,,,,,,,,,,,,,,,,,,,,
null,,learn_phase(without_color),450970,,,black_plus_sign,,,,,null,US_Cities_List/gatlinburg.png,US_Cities_List/peoria.png,,,,,,,,,,,,,,,,,,
null,,black_cross(without_color),451716,,,blue,,,,,null,US_Cities_List/gatlinburg.png,US_Cities_List/peoria.png,,,,,,,,,,,,,,,,,,
null,,rt_plussign_withcolor,452218,,,blue,,,,,null,US_Cities_List/gatlinburg.png,US_Cities_List/peoria.png,,,,,,,,,,,,,,,,,,
974.6999999880791,,rt_thecrossant_black,453475,,,black_plus_sign,,,,,49,,,1,1,,,,,,,,,,,,,,,,
null,,color_black,453576,,,black_plus_sign,,,,,null,,,,,,,,,,,,,,,,,,,,
null,,learn_phase(without_color),456588,,,black_plus_sign,,,,,null,US_Cities_List/hanover.png,US_Cities_List/racine.png,,,,,,,,,,,,,,,,,,
null,,black_cross(without_color),457568,,,yellow,,,,,null,US_Cities_List/hanover.png,US_Cities_List/racine.png,,,,,,,,,,,,,,,,,,
null,,rt_plussign_withcolor,458071,,,yellow,,,,,null,US_Cities_List/hanover.png,US_Cities_List/racine.png,,,,,,,,,,,,,,,,,,
1170.5999999642372,,rt_thecrossant_black,459094,,,black_plus_sign,,,,,50,,,1,1,,,,,,,,,,,,,,,,
null,,color_black,459196,,,black_plus_sign,,,,,null,,,,,,,,,,,,,,,,,,,,
null,,learn_phase(without_color),462206,,,black_plus_sign,,,,,null,US_Cities_List/huntsville.png,US_Cities_List/newhope.png,,,,,,,,,,,,,,,,,,
null,,black_cross(without_color),463252,,,blue,,,,,null,US_Cities_List/huntsville.png,US_Cities_List/newhope.png,,,,,,,,,,,,,,,,,,
null,,rt_plussign_withcolor,463754,,,blue,,,,,null,US_Cities_List/huntsville.png,US_Cities_List/newhope.png,,,,,,,,,,,,,,,,,,
1531,,rt_thecrossant_black,464714,,,black_plus_sign,,,,,49,,,1,1,,,,,,,,,,,,,,,,
null,,color_black,464816,,,black_plus_sign,,,,,null,,,,,,,,,,,,,,,,,,,,
null,,learn_phase(without_color),467841,,,black_plus_sign,,,,,null,US_Cities_List/gatlinburg.png,US_Cities_List/westpalmbeach.png,,,,,,,,,,,,,,,,,,
null,,black_cross(without_color),468286,,,yellow,,,,,null,US_Cities_List/gatlinburg.png,US_Cities_List/westpalmbeach.png,,,,,,,,,,,,,,,,,,
null,,rt_plussign_withcolor,468787,,,yellow,,,,,null,US_Cities_List/gatlinburg.png,US_Cities_List/westpalmbeach.png,,,,,,,,,,,,,,,,,,
1489.800000011921,,rt_thecrossant_black,470348,,,black_plus_sign,,,,,50,,,1,1,,,,,,,,,,,,,,,,
null,,color_black,470450,,,black_plus_sign,,,,,null,,,,,,,,,,,,,,,,,,,,
null,,learn_phase(without_color),473457,,,black_plus_sign,,,,,null,US_Cities_List/hotsprings.png,US_Cities_List/leesburg.png,,,,,,,,,,,,,,,,,,
null,,black_cross(without_color),474378,,,blue,,,,,null,US_Cities_List/hotsprings.png,US_Cities_List/leesburg.png,,,,,,,,,,,,,,,,,,
null,,rt_plussign_withcolor,474881,,,blue,,,,,null,US_Cities_List/hotsprings.png,US_Cities_List/leesburg.png,,,,,,,,,,,,,,,,,,
985.5,,rt_thecrossant_black,475972,,,black_plus_sign,,,,,49,,,1,1,,,,,,,,,,,,,,,,
null,,color_black,476075,,,black_plus_sign,,,,,null,,,,,,,,,,,,,,,,,,,,
null,,learn_phase(without_color),479088,,,black_plus_sign,,,,,null,US_Cities_List/hotsprings.png,US_Cities_List/westpalmbeach.png,,,,,,,,,,,,,,,,,,
null,,black_cross(without_color),480169,,,blue,,,,,null,US_Cities_List/hotsprings.png,US_Cities_List/westpalmbeach.png,,,,,,,,,,,,,,,,,,
null,,rt_plussign_withcolor,480672,,,blue,,,,,null,US_Cities_List/hotsprings.png,US_Cities_List/westpalmbeach.png,,,,,,,,,,,,,,,,,,
1401,,rt_thecrossant_black,481596,,,black_plus_sign,,,,,49,,,1,1,,,,,,,,,,,,,,,,
null,,color_black,481699,,,black_plus_sign,,,,,null,,,,,,,,,,,,,,,,,,,,
null,,learn_phase(without_color),484722,,,black_plus_sign,,,,,null,US_Cities_List/huntsville.png,US_Cities_List/newhope.png,,,,,,,,,,,,,,,,,,
null,,black_cross(without_color),485518,,,yellow,,,,,null,US_Cities_List/huntsville.png,US_Cities_List/newhope.png,,,,,,,,,,,,,,,,,,
null,,rt_plussign_withcolor,486020,,,yellow,,,,,null,US_Cities_List/huntsville.png,US_Cities_List/newhope.png,,,,,,,,,,,,,,,,,,
1507.800000011921,,rt_thecrossant_black,487228,,,black_plus_sign,,,,,50,,,1,1,,,,,,,,,,,,,,,,
null,,color_black,487330,,,black_plus_sign,,,,,null,,,,,,,,,,,,,,,,,,,,
null,,learn_phase(without_color),490345,,,black_plus_sign,,,,,null,US_Cities_List/racine.png,US_Cities_List/newhope.png,,,,,,,,,,,,,,,,,,
null,,black_cross(without_color),491280,,,yellow,,,,,null,US_Cities_List/racine.png,US_Cities_List/newhope.png,,,,,,,,,,,,,,,,,,
null,,rt_plussign_withcolor,491781,,,yellow,,,,,null,US_Cities_List/racine.png,US_Cities_List/newhope.png,,,,,,,,,,,,,,,,,,
1157,,rt_thecrossant_black,492851,,,black_plus_sign,,,,,50,,,1,1,,,,,,,,,,,,,,,,
null,,color_black,492954,,,black_plus_sign,,,,,null,,,,,,,,,,,,,,,,,,,,
null,,learn_phase(without_color),495969,,,black_plus_sign,,,,,null,US_Cities_List/carmel.png,US_Cities_List/cornwall.png,,,,,,,,,,,,,,,,,,
null,,black_cross(without_color),497045,,,blue,,,,,null,US_Cities_List/carmel.png,US_Cities_List/cornwall.png,,,,,,,,,,,,,,,,,,
null,,rt_plussign_withcolor,497548,,,blue,,,,,null,US_Cities_List/carmel.png,US_Cities_List/cornwall.png,,,,,,,,,,,,,,,,,,
1579.300000011921,,rt_thecrossant_black,498476,,,black_plus_sign,,,,,49,,,1,1,,,,,,,,,,,,,,,,
null,,color_black,498578,,,black_plus_sign,,,,,null,,,,,,,,,,,,,,,,,,,,
null,,learn_phase(without_color),501590,,,black_plus_sign,,,,,null,US_Cities_List/huntsville.png,US_Cities_List/newhope.png,,,,,,,,,,,,,,,,,,
null,,black_cross(without_color),502095,,,blue,,,,,null,US_Cities_List/huntsville.png,US_Cities_List/newhope.png,,,,,,,,,,,,,,,,,,
null,,rt_plussign_withcolor,502597,,,blue,,,,,null,US_Cities_List/huntsville.png,US_Cities_List/newhope.png,,,,,,,,,,,,,,,,,,
1678.800000011921,,rt_thecrossant_black,504101,,,black_plus_sign,,,,,49,,,1,1,,,,,,,,,,,,,,,,
null,,color_black,504204,,,black_plus_sign,,,,,null,,,,,,,,,,,,,,,,,,,,
null,,learn_phase(without_color),507220,,,black_plus_sign,,,,,null,US_Cities_List/racine.png,US_Cities_List/newhope.png,,,,,,,,,,,,,,,,,,
null,,black_cross(without_color),508236,,,blue,,,,,null,US_Cities_List/racine.png,US_Cities_List/newhope.png,,,,,,,,,,,,,,,,,,
null,,rt_plussign_withcolor,508738,,,blue,,,,,null,US_Cities_List/racine.png,US_Cities_List/newhope.png,,,,,,,,,,,,,,,,,,
995.2999999523163,,rt_thecrossant_black,509726,,,black_plus_sign,,,,,49,,,1,1,,,,,,,,,,,,,,,,
null,,color_black,509829,,,black_plus_sign,,,,,null,,,,,,,,,,,,,,,,,,,,
null,,learn_phase(without_color),512842,,,black_plus_sign,,,,,null,US_Cities_List/peoria.png,US_Cities_List/racine.png,,,,,,,,,,,,,,,,,,
null,,black_cross(without_color),513319,,,yellow,,,,,null,US_Cities_List/peoria.png,US_Cities_List/racine.png,,,,,,,,,,,,,,,,,,
null,,rt_plussign_withcolor,513820,,,yellow,,,,,null,US_Cities_List/peoria.png,US_Cities_List/racine.png,,,,,,,,,,,,,,,,,,
1643,,rt_thecrossant_black,515349,,,black_plus_sign,,,,,50,,,1,1,,,,,,,,,,,,,,,,
null,,color_black,515452,,,black_plus_sign,,,,,null,,,,,,,,,,,,,,,,,,,,
null,,learn_phase(without_color),518467,,,black_plus_sign,,,,,null,US_Cities_List/peoria.png,US_Cities_List/hotsprings.png,,,,,,,,,,,,,,,,,,
null,,black_cross(without_color),519353,,,yellow,,,,,null,US_Cities_List/peoria.png,US_Cities_List/hotsprings.png,,,,,,,,,,,,,,,,,,
null,,rt_plussign_withcolor,519856,,,yellow,,,,,null,US_Cities_List/peoria.png,US_Cities_List/hotsprings.png,,,,,,,,,,,,,,,,,,
1066.5,,rt_thecrossant_black,520975,,,black_plus_sign,,,,,50,,,1,1,,,,,,,,,,,,,,,,
null,,color_black,521079,,,black_plus_sign,,,,,null,,,,,,,,,,,,,,,,,,,,
null,,learn_phase(without_color),524094,,,black_plus_sign,,,,,null,US_Cities_List/westpalmbeach.png,US_Cities_List/cornwall.png,,,,,,,,,,,,,,,,,,
null,,black_cross(without_color),524559,,,yellow,,,,,null,US_Cities_List/westpalmbeach.png,US_Cities_List/cornwall.png,,,,,,,,,,,,,,,,,,
null,,rt_plussign_withcolor,525061,,,yellow,,,,,null,US_Cities_List/westpalmbeach.png,US_Cities_List/cornwall.png,,,,,,,,,,,,,,,,,,
1344.800000011921,,rt_thecrossant_black,526601,,,black_plus_sign,,,,,50,,,1,1,,,,,,,,,,,,,,,,
null,,color_black,526703,,,black_plus_sign,,,,,null,,,,,,,,,,,,,,,,,,,,
null,,learn_phase(without_color),529717,,,black_plus_sign,,,,,null,US_Cities_List/westpalmbeach.png,US_Cities_List/carmel.png,,,,,,,,,,,,,,,,,,
null,,black_cross(without_color),530662,,,blue,,,,,null,US_Cities_List/westpalmbeach.png,US_Cities_List/carmel.png,,,,,,,,,,,,,,,,,,
null,,rt_plussign_withcolor,531164,,,blue,,,,,null,US_Cities_List/westpalmbeach.png,US_Cities_List/carmel.png,,,,,,,,,,,,,,,,,,
867.3000000119209,,rt_thecrossant_black,532224,,,black_plus_sign,,,,,49,,,1,1,,,,,,,,,,,,,,,,
null,,color_black,532326,,,black_plus_sign,,,,,null,,,,,,,,,,,,,,,,,,,,
null,,learn_phase(without_color),535341,,,black_plus_sign,,,,,null,US_Cities_List/cornwall.png,US_Cities_List/carmel.png,,,,,,,,,,,,,,,,,,
null,,black_cross(without_color),535842,,,blue,,,,,null,US_Cities_List/cornwall.png,US_Cities_List/carmel.png,,,,,,,,,,,,,,,,,,
null,,rt_plussign_withcolor,536345,,,blue,,,,,null,US_Cities_List/cornwall.png,US_Cities_List/carmel.png,,,,,,,,,,,,,,,,,,
1415.8999999761581,,rt_thecrossant_black,537849,,,black_plus_sign,,,,,49,,,1,1,,,,,,,,,,,,,,,,
null,,color_black,537951,,,black_plus_sign,,,,,null,,,,,,,,,,,,,,,,,,,,
null,,learn_phase(without_color),540968,,,black_plus_sign,,,,,null,US_Cities_List/cornwall.png,US_Cities_List/gatlinburg.png,,,,,,,,,,,,,,,,,,
null,,black_cross(without_color),541470,,,yellow,,,,,null,US_Cities_List/cornwall.png,US_Cities_List/gatlinburg.png,,,,,,,,,,,,,,,,,,
null,,rt_plussign_withcolor,541972,,,yellow,,,,,null,US_Cities_List/cornwall.png,US_Cities_List/gatlinburg.png,,,,,,,,,,,,,,,,,,
991.1999999880791,,rt_thecrossant_black,543475,,,black_plus_sign,,,,,50,,,1,1,,,,,,,,,,,,,,,,
null,,color_black,543577,,,black_plus_sign,,,,,null,,,,,,,,,,,,,,,,,,,,
null,,learn_phase(without_color),546611,,,black_plus_sign,,,,,null,US_Cities_List/carmel.png,US_Cities_List/cornwall.png,,,,,,,,,,,,,,,,,,
null,,black_cross(without_color),547298,,,yellow,,,,,null,US_Cities_List/carmel.png,US_Cities_List/cornwall.png,,,,,,,,,,,,,,,,,,
null,,rt_plussign_withcolor,547800,,,yellow,,,,,null,US_Cities_List/carmel.png,US_Cities_List/cornwall.png,,,,,,,,,,,,,,,,,,
974.5,,rt_thecrossant_black,549116,,,black_plus_sign,,,,,50,,,1,1,,,,,,,,,,,,,,,,
null,,color_black,549219,,,black_plus_sign,,,,,null,,,,,,,,,,,,,,,,,,,,
null,,learn_phase(without_color),552236,,,black_plus_sign,,,,,null,US_Cities_List/gatlinburg.png,US_Cities_List/cornwall.png,,,,,,,,,,,,,,,,,,
null,,black_cross(without_color),553030,,,blue,,,,,null,US_Cities_List/gatlinburg.png,US_Cities_List/cornwall.png,,,,,,,,,,,,,,,,,,
null,,rt_plussign_withcolor,553532,,,blue,,,,,null,US_Cities_List/gatlinburg.png,US_Cities_List/cornwall.png,,,,,,,,,,,,,,,,,,
1282.300000011921,,rt_thecrossant_black,554743,,,black_plus_sign,,,,,49,,,1,1,,,,,,,,,,,,,,,,
null,,color_black,554846,,,black_plus_sign,,,,,null,,,,,,,,,,,,,,,,,,,,
null,,learn_phase(without_color),557861,,,black_plus_sign,,,,,null,US_Cities_List/racine.png,US_Cities_List/peoria.png,,,,,,,,,,,,,,,,,,
null,,black_cross(without_color),558315,,,blue,,,,,null,US_Cities_List/racine.png,US_Cities_List/peoria.png,,,,,,,,,,,,,,,,,,
null,,rt_plussign_withcolor,558817,,,blue,,,,,null,US_Cities_List/racine.png,US_Cities_List/peoria.png,,,,,,,,,,,,,,,,,,
1431,,rt_thecrossant_black,560367,,,black_plus_sign,,,,,49,,,1,1,,,,,,,,,,,,,,,,
null,,color_black,560470,,,black_plus_sign,,,,,null,,,,,,,,,,,,,,,,,,,,
null,,learn_phase(without_color),563480,,,black_plus_sign,,,,,null,US_Cities_List/hanover.png,US_Cities_List/racine.png,,,,,,,,,,,,,,,,,,
null,,black_cross(without_color),564070,,,blue,,,,,null,US_Cities_List/hanover.png,US_Cities_List/racine.png,,,,,,,,,,,,,,,,,,
null,,rt_plussign_withcolor,564571,,,blue,,,,,null,US_Cities_List/hanover.png,US_Cities_List/racine.png,,,,,,,,,,,,,,,,,,
1145.1000000238419,,rt_thecrossant_black,565986,,,black_plus_sign,,,,,49,,,1,1,,,,,,,,,,,,,,,,
null,,color_black,566088,,,black_plus_sign,,,,,null,,,,,,,,,,,,,,,,,,,,
null,,learn_phase(without_color),569099,,,black_plus_sign,,,,,null,US_Cities_List/carmel.png,US_Cities_List/boulder.png,,,,,,,,,,,,,,,,,,
null,,black_cross(without_color),569932,,,yellow,,,,,null,US_Cities_List/carmel.png,US_Cities_List/boulder.png,,,,,,,,,,,,,,,,,,
null,,rt_plussign_withcolor,570435,,,yellow,,,,,null,US_Cities_List/carmel.png,US_Cities_List/boulder.png,,,,,,,,,,,,,,,,,,
1050,,rt_thecrossant_black,571609,,,black_plus_sign,,,,,50,,,1,1,,,,,,,,,,,,,,,,
null,,color_black,571711,,,black_plus_sign,,,,,null,,,,,,,,,,,,,,,,,,,,
null,,learn_phase(without_color),574723,,,black_plus_sign,,,,,null,US_Cities_List/leesburg.png,US_Cities_List/newhope.png,,,,,,,,,,,,,,,,,,
null,,black_cross(without_color),575181,,,blue,,,,,null,US_Cities_List/leesburg.png,US_Cities_List/newhope.png,,,,,,,,,,,,,,,,,,
null,,rt_plussign_withcolor,575683,,,blue,,,,,null,US_Cities_List/leesburg.png,US_Cities_List/newhope.png,,,,,,,,,,,,,,,,,,
1339.699999988079,,rt_thecrossant_black,577228,,,black_plus_sign,,,,,49,,,1,1,,,,,,,,,,,,,,,,
null,,color_black,577330,,,black_plus_sign,,,,,null,,,,,,,,,,,,,,,,,,,,
null,,learn_phase(without_color),580341,,,black_plus_sign,,,,,null,US_Cities_List/hotsprings.png,US_Cities_List/westpalmbeach.png,,,,,,,,,,,,,,,,,,
null,,black_cross(without_color),581152,,,yellow,,,,,null,US_Cities_List/hotsprings.png,US_Cities_List/westpalmbeach.png,,,,,,,,,,,,,,,,,,
null,,rt_plussign_withcolor,581654,,,yellow,,,,,null,US_Cities_List/hotsprings.png,US_Cities_List/westpalmbeach.png,,,,,,,,,,,,,,,,,,
915.8999999761581,,rt_thecrossant_black,582852,,,black_plus_sign,,,,,50,,,1,1,,,,,,,,,,,,,,,,
null,,color_black,582954,,,black_plus_sign,,,,,null,,,,,,,,,,,,,,,,,,,,
null,,learn_phase(without_color),585986,,,black_plus_sign,,,,,null,US_Cities_List/newhope.png,US_Cities_List/racine.png,,,,,,,,,,,,,,,,,,
null,,black_cross(without_color),586610,,,blue,,,,,null,US_Cities_List/newhope.png,US_Cities_List/racine.png,,,,,,,,,,,,,,,,,,
null,,rt_plussign_withcolor,587112,,,blue,,,,,null,US_Cities_List/newhope.png,US_Cities_List/racine.png,,,,,,,,,,,,,,,,,,
1358.4000000357628,,rt_thecrossant_black,588507,,,black_plus_sign,,,,,49,,,1,1,,,,,,,,,,,,,,,,
null,,color_black,588610,,,black_plus_sign,,,,,null,,,,,,,,,,,,,,,,,,,,
null,,learn_phase(without_color),591624,,,black_plus_sign,,,,,null,US_Cities_List/leesburg.png,US_Cities_List/hotsprings.png,,,,,,,,,,,,,,,,,,
null,,black_cross(without_color),592579,,,blue,,,,,null,US_Cities_List/leesburg.png,US_Cities_List/hotsprings.png,,,,,,,,,,,,,,,,,,
null,,rt_plussign_withcolor,593080,,,blue,,,,,null,US_Cities_List/leesburg.png,US_Cities_List/hotsprings.png,,,,,,,,,,,,,,,,,,
1173.300000011921,,rt_thecrossant_black,594131,,,black_plus_sign,,,,,49,,,1,1,,,,,,,,,,,,,,,,
null,,color_black,594234,,,black_plus_sign,,,,,null,,,,,,,,,,,,,,,,,,,,
null,,learn_phase(without_color),597267,,,black_plus_sign,,,,,null,US_Cities_List/cornwall.png,US_Cities_List/westpalmbeach.png,,,,,,,,,,,,,,,,,,
null,,black_cross(without_color),598034,,,blue,,,,,null,US_Cities_List/cornwall.png,US_Cities_List/westpalmbeach.png,,,,,,,,,,,,,,,,,,
null,,rt_plussign_withcolor,598536,,,blue,,,,,null,US_Cities_List/cornwall.png,US_Cities_List/westpalmbeach.png,,,,,,,,,,,,,,,,,,
1425.2999999523163,,rt_thecrossant_black,599774,,,black_plus_sign,,,,,49,,,1,1,,,,,,,,,,,,,,,,
null,,color_black,599878,,,black_plus_sign,,,,,null,,,,,,,,,,,,,,,,,,,,
null,,learn_phase(without_color),602904,,,black_plus_sign,,,,,null,US_Cities_List/gatlinburg.png,US_Cities_List/westpalmbeach.png,,,,,,,,,,,,,,,,,,
null,,black_cross(without_color),603863,,,yellow,,,,,null,US_Cities_List/gatlinburg.png,US_Cities_List/westpalmbeach.png,,,,,,,,,,,,,,,,,,
null,,rt_plussign_withcolor,604365,,,yellow,,,,,null,US_Cities_List/gatlinburg.png,US_Cities_List/westpalmbeach.png,,,,,,,,,,,,,,,,,,
1280.800000011921,,rt_thecrossant_black,605412,,,black_plus_sign,,,,,50,,,1,1,,,,,,,,,,,,,,,,
null,,color_black,605513,,,black_plus_sign,,,,,null,,,,,,,,,,,,,,,,,,,,
null,,learn_phase(without_color),608550,,,black_plus_sign,,,,,null,US_Cities_List/cornwall.png,US_Cities_List/westpalmbeach.png,,,,,,,,,,,,,,,,,,
null,,black_cross(without_color),609423,,,blue,,,,,null,US_Cities_List/cornwall.png,US_Cities_List/westpalmbeach.png,,,,,,,,,,,,,,,,,,
null,,rt_plussign_withcolor,609926,,,blue,,,,,null,US_Cities_List/cornwall.png,US_Cities_List/westpalmbeach.png,,,,,,,,,,,,,,,,,,
1559.300000011921,,rt_thecrossant_black,611059,,,black_plus_sign,,,,,49,,,1,1,,,,,,,,,,,,,,,,
null,,color_black,611163,,,black_plus_sign,,,,,null,,,,,,,,,,,,,,,,,,,,
null,,learn_phase(without_color),614174,,,black_plus_sign,,,,,null,US_Cities_List/racine.png,US_Cities_List/hanover.png,,,,,,,,,,,,,,,,,,
null,,black_cross(without_color),614701,,,yellow,,,,,null,US_Cities_List/racine.png,US_Cities_List/hanover.png,,,,,,,,,,,,,,,,,,
null,,rt_plussign_withcolor,615202,,,yellow,,,,,null,US_Cities_List/racine.png,US_Cities_List/hanover.png,,,,,,,,,,,,,,,,,,
1509.300000011921,,rt_thecrossant_black,616679,,,black_plus_sign,,,,,50,,,1,1,,,,,,,,,,,,,,,,
null,,color_black,616781,,,black_plus_sign,,,,,null,,,,,,,,,,,,,,,,,,,,
null,,learn_phase(without_color),619793,,,black_plus_sign,,,,,null,US_Cities_List/westpalmbeach.png,US_Cities_List/hotsprings.png,,,,,,,,,,,,,,,,,,
null,,black_cross(without_color),620889,,,blue,,,,,null,US_Cities_List/westpalmbeach.png,US_Cities_List/hotsprings.png,,,,,,,,,,,,,,,,,,
null,,rt_plussign_withcolor,621391,,,blue,,,,,null,US_Cities_List/westpalmbeach.png,US_Cities_List/hotsprings.png,,,,,,,,,,,,,,,,,,
942.8000000119209,,rt_thecrossant_black,622299,,,black_plus_sign,,,,,49,,,1,1,,,,,,,,,,,,,,,,
null,,color_black,622401,,,black_plus_sign,,,,,null,,,,,,,,,,,,,,,,,,,,
null,,learn_phase(without_color),625424,,,black_plus_sign,,,,,null,US_Cities_List/racine.png,US_Cities_List/newhope.png,,,,,,,,,,,,,,,,,,
null,,black_cross(without_color),626146,,,blue,,,,,null,US_Cities_List/racine.png,US_Cities_List/newhope.png,,,,,,,,,,,,,,,,,,
null,,rt_plussign_withcolor,626649,,,blue,,,,,null,US_Cities_List/racine.png,US_Cities_List/newhope.png,,,,,,,,,,,,,,,,,,
1533.1000000238419,,rt_thecrossant_black,627932,,,black_plus_sign,,,,,49,,,1,1,,,,,,,,,,,,,,,,
null,,color_black,628034,,,black_plus_sign,,,,,null,,,,,,,,,,,,,,,,,,,,
null,,learn_phase(without_color),631065,,,black_plus_sign,,,,,null,US_Cities_List/racine.png,US_Cities_List/peoria.png,,,,,,,,,,,,,,,,,,
null,,black_cross(without_color),632000,,,blue,,,,,null,US_Cities_List/racine.png,US_Cities_List/peoria.png,,,,,,,,,,,,,,,,,,
null,,rt_plussign_withcolor,632507,,,blue,,,,,null,US_Cities_List/racine.png,US_Cities_List/peoria.png,,,,,,,,,,,,,,,,,,
1253.9000000357628,,rt_thecrossant_black,633579,,,black_plus_sign,,,,,49,,,1,1,,,,,,,,,,,,,,,,
null,,color_black,633682,,,black_plus_sign,,,,,null,,,,,,,,,,,,,,,,,,,,
null,,learn_phase(without_color),636713,,,black_plus_sign,,,,,null,US_Cities_List/hanover.png,US_Cities_List/racine.png,,,,,,,,,,,,,,,,,,
null,,black_cross(without_color),637169,,,yellow,,,,,null,US_Cities_List/hanover.png,US_Cities_List/racine.png,,,,,,,,,,,,,,,,,,
null,,rt_plussign_withcolor,637671,,,yellow,,,,,null,US_Cities_List/hanover.png,US_Cities_List/racine.png,,,,,,,,,,,,,,,,,,
1373.699999988079,,rt_thecrossant_black,639220,,,black_plus_sign,,,,,50,,,1,1,,,,,,,,,,,,,,,,
null,,color_black,639323,,,black_plus_sign,,,,,null,,,,,,,,,,,,,,,,,,,,
null,,learn_phase(without_color),642332,,,black_plus_sign,,,,,null,US_Cities_List/carmel.png,US_Cities_List/boulder.png,,,,,,,,,,,,,,,,,,
null,,black_cross(without_color),642993,,,yellow,,,,,null,US_Cities_List/carmel.png,US_Cities_List/boulder.png,,,,,,,,,,,,,,,,,,
null,,rt_plussign_withcolor,643495,,,yellow,,,,,null,US_Cities_List/carmel.png,US_Cities_List/boulder.png,,,,,,,,,,,,,,,,,,
831.5,,rt_thecrossant_black,644840,,,black_plus_sign,,,,,50,,,1,1,,,,,,,,,,,,,,,,
null,,color_black,644942,,,black_plus_sign,,,,,null,,,,,,,,,,,,,,,,,,,,
null,,learn_phase(without_color),647956,,,black_plus_sign,,,,,null,US_Cities_List/peoria.png,US_Cities_List/gatlinburg.png,,,,,,,,,,,,,,,,,,
null,,black_cross(without_color),648609,,,blue,,,,,null,US_Cities_List/peoria.png,US_Cities_List/gatlinburg.png,,,,,,,,,,,,,,,,,,
null,,rt_plussign_withcolor,649111,,,blue,,,,,null,US_Cities_List/peoria.png,US_Cities_List/gatlinburg.png,,,,,,,,,,,,,,,,,,
1067.5,,rt_thecrossant_black,650464,,,black_plus_sign,,,,,49,,,1,1,,,,,,,,,,,,,,,,
null,,color_black,650578,,,black_plus_sign,,,,,null,,,,,,,,,,,,,,,,,,,,
null,,learn_phase(without_color),653600,,,black_plus_sign,,,,,null,US_Cities_List/peoria.png,US_Cities_List/gatlinburg.png,,,,,,,,,,,,,,,,,,
null,,black_cross(without_color),654644,,,blue,,,,,null,US_Cities_List/peoria.png,US_Cities_List/gatlinburg.png,,,,,,,,,,,,,,,,,,
null,,rt_plussign_withcolor,655145,,,blue,,,,,null,US_Cities_List/peoria.png,US_Cities_List/gatlinburg.png,,,,,,,,,,,,,,,,,,
1298.5,,rt_thecrossant_black,656104,,,black_plus_sign,,,,,49,,,1,1,,,,,,,,,,,,,,,,
null,,color_black,656207,,,black_plus_sign,,,,,null,,,,,,,,,,,,,,,,,,,,
null,,learn_phase(without_color),659241,,,black_plus_sign,,,,,null,US_Cities_List/westpalmbeach.png,US_Cities_List/cornwall.png,,,,,,,,,,,,,,,,,,
null,,black_cross(without_color),660266,,,blue,,,,,null,US_Cities_List/westpalmbeach.png,US_Cities_List/cornwall.png,,,,,,,,,,,,,,,,,,
null,,rt_plussign_withcolor,660767,,,blue,,,,,null,US_Cities_List/westpalmbeach.png,US_Cities_List/cornwall.png,,,,,,,,,,,,,,,,,,
1572.800000011921,,rt_thecrossant_black,661747,,,black_plus_sign,,,,,49,,,1,1,,,,,,,,,,,,,,,,
null,,color_black,661849,,,black_plus_sign,,,,,null,,,,,,,,,,,,,,,,,,,,
null,,learn_phase(without_color),664862,,,black_plus_sign,,,,,null,US_Cities_List/hotsprings.png,US_Cities_List/peoria.png,,,,,,,,,,,,,,,,,,
null,,black_cross(without_color),665587,,,blue,,,,,null,US_Cities_List/hotsprings.png,US_Cities_List/peoria.png,,,,,,,,,,,,,,,,,,
null,,rt_plussign_withcolor,666090,,,blue,,,,,null,US_Cities_List/hotsprings.png,US_Cities_List/peoria.png,,,,,,,,,,,,,,,,,,
1622.5999999642372,,rt_thecrossant_black,667369,,,black_plus_sign,,,,,49,,,1,1,,,,,,,,,,,,,,,,
null,,color_black,667472,,,black_plus_sign,,,,,null,,,,,,,,,,,,,,,,,,,,
null,,learn_phase(without_color),670486,,,black_plus_sign,,,,,null,US_Cities_List/cornwall.png,US_Cities_List/shreveport.png,,,,,,,,,,,,,,,,,,
null,,black_cross(without_color),671246,,,yellow,,,,,null,US_Cities_List/cornwall.png,US_Cities_List/shreveport.png,,,,,,,,,,,,,,,,,,
null,,rt_plussign_withcolor,671748,,,yellow,,,,,null,US_Cities_List/cornwall.png,US_Cities_List/shreveport.png,,,,,,,,,,,,,,,,,,
1232.7999999523163,,rt_thecrossant_black,672992,,,black_plus_sign,,,,,50,,,1,1,,,,,,,,,,,,,,,,
null,,color_black,673095,,,black_plus_sign,,,,,null,,,,,,,,,,,,,,,,,,,,
null,,learn_phase(without_color),676121,,,black_plus_sign,,,,,null,US_Cities_List/peoria.png,US_Cities_List/hotsprings.png,,,,,,,,,,,,,,,,,,
null,,black_cross(without_color),677077,,,yellow,,,,,null,US_Cities_List/peoria.png,US_Cities_List/hotsprings.png,,,,,,,,,,,,,,,,,,
null,,rt_plussign_withcolor,677580,,,yellow,,,,,null,US_Cities_List/peoria.png,US_Cities_List/hotsprings.png,,,,,,,,,,,,,,,,,,
1194.9000000357628,,rt_thecrossant_black,678631,,,black_plus_sign,,,,,50,,,1,1,,,,,,,,,,,,,,,,
null,,color_black,678734,,,black_plus_sign,,,,,null,,,,,,,,,,,,,,,,,,,,
null,,learn_phase(without_color),681747,,,black_plus_sign,,,,,null,US_Cities_List/newhope.png,US_Cities_List/leesburg.png,,,,,,,,,,,,,,,,,,
null,,black_cross(without_color),682453,,,yellow,,,,,null,US_Cities_List/newhope.png,US_Cities_List/leesburg.png,,,,,,,,,,,,,,,,,,
null,,rt_plussign_withcolor,682955,,,yellow,,,,,null,US_Cities_List/newhope.png,US_Cities_List/leesburg.png,,,,,,,,,,,,,,,,,,
1503.2000000476837,,rt_thecrossant_black,684253,,,black_plus_sign,,,,,50,,,1,1,,,,,,,,,,,,,,,,
null,,color_black,684355,,,black_plus_sign,,,,,null,,,,,,,,,,,,,,,,,,,,
null,,learn_phase(without_color),687369,,,black_plus_sign,,,,,null,US_Cities_List/gatlinburg.png,US_Cities_List/cornwall.png,,,,,,,,,,,,,,,,,,
null,,black_cross(without_color),688155,,,yellow,,,,,null,US_Cities_List/gatlinburg.png,US_Cities_List/cornwall.png,,,,,,,,,,,,,,,,,,
null,,rt_plussign_withcolor,688657,,,yellow,,,,,null,US_Cities_List/gatlinburg.png,US_Cities_List/cornwall.png,,,,,,,,,,,,,,,,,,
1103.6000000238419,,rt_thecrossant_black,689876,,,black_plus_sign,,,,,50,,,1,1,,,,,,,,,,,,,,,,
null,,color_black,689978,,,black_plus_sign,,,,,null,,,,,,,,,,,,,,,,,,,,
null,,learn_phase(without_color),693013,,,black_plus_sign,,,,,null,US_Cities_List/carmel.png,US_Cities_List/cornwall.png,,,,,,,,,,,,,,,,,,
null,,black_cross(without_color),693712,,,blue,,,,,null,US_Cities_List/carmel.png,US_Cities_List/cornwall.png,,,,,,,,,,,,,,,,,,
null,,rt_plussign_withcolor,694215,,,blue,,,,,null,US_Cities_List/carmel.png,US_Cities_List/cornwall.png,,,,,,,,,,,,,,,,,,
1402.5,,rt_thecrossant_black,695523,,,black_plus_sign,,,,,49,,,1,1,,,,,,,,,,,,,,,,
null,,color_black,695625,,,black_plus_sign,,,,,null,,,,,,,,,,,,,,,,,,,,
null,,learn_phase(without_color),698642,,,black_plus_sign,,,,,null,US_Cities_List/carmel.png,US_Cities_List/cornwall.png,,,,,,,,,,,,,,,,,,
null,,black_cross(without_color),699101,,,blue,,,,,null,US_Cities_List/carmel.png,US_Cities_List/cornwall.png,,,,,,,,,,,,,,,,,,
null,,rt_plussign_withcolor,699603,,,blue,,,,,null,US_Cities_List/carmel.png,US_Cities_List/cornwall.png,,,,,,,,,,,,,,,,,,
1256,,rt_thecrossant_black,701149,,,black_plus_sign,,,,,49,,,1,1,,,,,,,,,,,,,,,,
null,,color_black,701254,,,black_plus_sign,,,,,null,,,,,,,,,,,,,,,,,,,,
null,,learn_phase(without_color),704274,,,black_plus_sign,,,,,null,US_Cities_List/carmel.png,US_Cities_List/cornwall.png,,,,,,,,,,,,,,,,,,
null,,black_cross(without_color),704804,,,yellow,,,,,null,US_Cities_List/carmel.png,US_Cities_List/cornwall.png,,,,,,,,,,,,,,,,,,
null,,rt_plussign_withcolor,705305,,,yellow,,,,,null,US_Cities_List/carmel.png,US_Cities_List/cornwall.png,,,,,,,,,,,,,,,,,,
846.8000000119209,,rt_thecrossant_black,706781,,,black_plus_sign,,,,,50,,,1,1,,,,,,,,,,,,,,,,
null,,color_black,706883,,,black_plus_sign,,,,,null,,,,,,,,,,,,,,,,,,,,
null,,learn_phase(without_color),709895,,,black_plus_sign,,,,,null,US_Cities_List/racine.png,US_Cities_List/peoria.png,,,,,,,,,,,,,,,,,,
null,,black_cross(without_color),710468,,,blue,,,,,null,US_Cities_List/racine.png,US_Cities_List/peoria.png,,,,,,,,,,,,,,,,,,
null,,rt_plussign_withcolor,710970,,,blue,,,,,null,US_Cities_List/racine.png,US_Cities_List/peoria.png,,,,,,,,,,,,,,,,,,
1014.1999999880791,,rt_thecrossant_black,712402,,,black_plus_sign,,,,,49,,,1,1,,,,,,,,,,,,,,,,
null,,color_black,712505,,,black_plus_sign,,,,,null,,,,,,,,,,,,,,,,,,,,
null,,learn_phase(without_color),715520,,,black_plus_sign,,,,,null,US_Cities_List/carmel.png,US_Cities_List/westpalmbeach.png,,,,,,,,,,,,,,,,,,
null,,black_cross(without_color),716357,,,blue,,,,,null,US_Cities_List/carmel.png,US_Cities_List/westpalmbeach.png,,,,,,,,,,,,,,,,,,
null,,rt_plussign_withcolor,716859,,,blue,,,,,null,US_Cities_List/carmel.png,US_Cities_List/westpalmbeach.png,,,,,,,,,,,,,,,,,,
1089.2999999523163,,rt_thecrossant_black,718029,,,black_plus_sign,,,,,49,,,1,1,,,,,,,,,,,,,,,,
null,,color_black,718131,,,black_plus_sign,,,,,null,,,,,,,,,,,,,,,,,,,,
null,,learn_phase(without_color),721144,,,black_plus_sign,,,,,null,US_Cities_List/westpalmbeach.png,US_Cities_List/hotsprings.png,,,,,,,,,,,,,,,,,,
null,,black_cross(without_color),721987,,,blue,,,,,null,US_Cities_List/westpalmbeach.png,US_Cities_List/hotsprings.png,,,,,,,,,,,,,,,,,,
null,,rt_plussign_withcolor,722489,,,blue,,,,,null,US_Cities_List/westpalmbeach.png,US_Cities_List/hotsprings.png,,,,,,,,,,,,,,,,,,
1402.699999988079,,rt_thecrossant_black,723656,,,black_plus_sign,,,,,49,,,1,1,,,,,,,,,,,,,,,,
null,,color_black,723758,,,black_plus_sign,,,,,null,,,,,,,,,,,,,,,,,,,,
null,,learn_phase(without_color),726789,,,black_plus_sign,,,,,null,US_Cities_List/carmel.png,US_Cities_List/westpalmbeach.png,,,,,,,,,,,,,,,,,,
null,,black_cross(without_color),727439,,,yellow,,,,,null,US_Cities_List/carmel.png,US_Cities_List/westpalmbeach.png,,,,,,,,,,,,,,,,,,
null,,rt_plussign_withcolor,727940,,,yellow,,,,,null,US_Cities_List/carmel.png,US_Cities_List/westpalmbeach.png,,,,,,,,,,,,,,,,,,
1279.699999988079,,rt_thecrossant_black,729294,,,black_plus_sign,,,,,50,,,1,1,,,,,,,,,,,,,,,,
null,,color_black,729398,,,black_plus_sign,,,,,null,,,,,,,,,,,,,,,,,,,,
null,,learn_phase(without_color),732421,,,black_plus_sign,,,,,null,US_Cities_List/newhope.png,US_Cities_List/racine.png,,,,,,,,,,,,,,,,,,
null,,black_cross(without_color),733351,,,yellow,,,,,null,US_Cities_List/newhope.png,US_Cities_List/racine.png,,,,,,,,,,,,,,,,,,
null,,rt_plussign_withcolor,733854,,,yellow,,,,,null,US_Cities_List/newhope.png,US_Cities_List/racine.png,,,,,,,,,,,,,,,,,,
1115.0999999642372,,rt_thecrossant_black,734941,,,black_plus_sign,,,,,50,,,1,1,,,,,,,,,,,,,,,,
null,,color_black,735043,,,black_plus_sign,,,,,null,,,,,,,,,,,,,,,,,,,,
null,,learn_phase(without_color),738061,,,black_plus_sign,,,,,null,US_Cities_List/newhope.png,US_Cities_List/racine.png,,,,,,,,,,,,,,,,,,
null,,black_cross(without_color),738959,,,blue,,,,,null,US_Cities_List/newhope.png,US_Cities_List/racine.png,,,,,,,,,,,,,,,,,,
null,,rt_plussign_withcolor,739461,,,blue,,,,,null,US_Cities_List/newhope.png,US_Cities_List/racine.png,,,,,,,,,,,,,,,,,,
1391.800000011921,,rt_thecrossant_black,740567,,,black_plus_sign,,,,,49,,,1,1,,,,,,,,,,,,,,,,
null,,color_black,740669,,,black_plus_sign,,,,,null,,,,,,,,,,,,,,,,,,,,
null,,learn_phase(without_color),743694,,,black_plus_sign,,,,,null,US_Cities_List/peoria.png,US_Cities_List/racine.png,,,,,,,,,,,,,,,,,,
null,,black_cross(without_color),744390,,,blue,,,,,null,US_Cities_List/peoria.png,US_Cities_List/racine.png,,,,,,,,,,,,,,,,,,
null,,rt_plussign_withcolor,744891,,,blue,,,,,null,US_Cities_List/peoria.png,US_Cities_List/racine.png,,,,,,,,,,,,,,,,,,
1462.4000000357628,,rt_thecrossant_black,746199,,,black_plus_sign,,,,,49,,,1,1,,,,,,,,,,,,,,,,
null,,color_black,746301,,,black_plus_sign,,,,,null,,,,,,,,,,,,,,,,,,,,
null,,learn_break,806304,,,learn_break,,,,,null,,,,,,,,,,,,,,,,,,,,
null,,html-keyboard-response,807306,,,<p></p>,,,,,null,,,,,,,,,,,,,,,,,,,,
null,,learn_phase(without_color),810330,,,black_plus_sign,,,,,null,US_Cities_List/peoria.png,US_Cities_List/hotsprings.png,,,,,,,,,,,,,,,,,,
null,,black_cross(without_color),811383,,,blue,,,,,null,US_Cities_List/peoria.png,US_Cities_List/hotsprings.png,,,,,,,,,,,,,,,,,,
null,,rt_plussign_withcolor,811886,,,blue,,,,,null,US_Cities_List/peoria.png,US_Cities_List/hotsprings.png,,,,,,,,,,,,,,,,,,
1178.199999988079,,rt_thecrossant_black,812840,,,black_plus_sign,,,,,49,,,1,1,,,,,,,,,,,,,,,,
null,,color_black,812943,,,black_plus_sign,,,,,null,,,,,,,,,,,,,,,,,,,,
null,,learn_phase(without_color),815956,,,black_plus_sign,,,,,null,US_Cities_List/cornwall.png,US_Cities_List/shreveport.png,,,,,,,,,,,,,,,,,,
null,,black_cross(without_color),816552,,,yellow,,,,,null,US_Cities_List/cornwall.png,US_Cities_List/shreveport.png,,,,,,,,,,,,,,,,,,
null,,rt_plussign_withcolor,817054,,,yellow,,,,,null,US_Cities_List/cornwall.png,US_Cities_List/shreveport.png,,,,,,,,,,,,,,,,,,
1565.3999999761581,,rt_thecrossant_black,818472,,,black_plus_sign,,,,,50,,,1,1,,,,,,,,,,,,,,,,
null,,color_black,818575,,,black_plus_sign,,,,,null,,,,,,,,,,,,,,,,,,,,
null,,learn_phase(without_color),821588,,,black_plus_sign,,,,,null,US_Cities_List/westpalmbeach.png,US_Cities_List/carmel.png,,,,,,,,,,,,,,,,,,
null,,black_cross(without_color),822660,,,yellow,,,,,null,US_Cities_List/westpalmbeach.png,US_Cities_List/carmel.png,,,,,,,,,,,,,,,,,,
null,,rt_plussign_withcolor,823162,,,yellow,,,,,null,US_Cities_List/westpalmbeach.png,US_Cities_List/carmel.png,,,,,,,,,,,,,,,,,,
1064.199999988079,,rt_thecrossant_black,824096,,,black_plus_sign,,,,,50,,,1,1,,,,,,,,,,,,,,,,
null,,color_black,824198,,,black_plus_sign,,,,,null,,,,,,,,,,,,,,,,,,,,
null,,learn_phase(without_color),827224,,,black_plus_sign,,,,,null,US_Cities_List/carmel.png,US_Cities_List/boulder.png,,,,,,,,,,,,,,,,,,
null,,black_cross(without_color),828274,,,blue,,,,,null,US_Cities_List/carmel.png,US_Cities_List/boulder.png,,,,,,,,,,,,,,,,,,
null,,rt_plussign_withcolor,828776,,,blue,,,,,null,US_Cities_List/carmel.png,US_Cities_List/boulder.png,,,,,,,,,,,,,,,,,,
1462,,rt_thecrossant_black,829731,,,black_plus_sign,,,,,49,,,1,1,,,,,,,,,,,,,,,,
null,,color_black,829833,,,black_plus_sign,,,,,null,,,,,,,,,,,,,,,,,,,,
null,,learn_phase(without_color),832846,,,black_plus_sign,,,,,null,US_Cities_List/newhope.png,US_Cities_List/leesburg.png,,,,,,,,,,,,,,,,,,
null,,black_cross(without_color),833323,,,blue,,,,,null,US_Cities_List/newhope.png,US_Cities_List/leesburg.png,,,,,,,,,,,,,,,,,,
null,,rt_plussign_withcolor,833824,,,blue,,,,,null,US_Cities_List/newhope.png,US_Cities_List/leesburg.png,,,,,,,,,,,,,,,,,,
1543.6000000238419,,rt_thecrossant_black,835353,,,black_plus_sign,,,,,49,,,1,1,,,,,,,,,,,,,,,,
null,,color_black,835457,,,black_plus_sign,,,,,null,,,,,,,,,,,,,,,,,,,,
null,,learn_phase(without_color),838487,,,black_plus_sign,,,,,null,US_Cities_List/newhope.png,US_Cities_List/leesburg.png,,,,,,,,,,,,,,,,,,
null,,black_cross(without_color),839319,,,yellow,,,,,null,US_Cities_List/newhope.png,US_Cities_List/leesburg.png,,,,,,,,,,,,,,,,,,
null,,rt_plussign_withcolor,839820,,,yellow,,,,,null,US_Cities_List/newhope.png,US_Cities_List/leesburg.png,,,,,,,,,,,,,,,,,,
830.9000000357628,,rt_thecrossant_black,840994,,,black_plus_sign,,,,,50,,,1,1,,,,,,,,,,,,,,,,
null,,color_black,841096,,,black_plus_sign,,,,,null,,,,,,,,,,,,,,,,,,,,
null,,learn_phase(without_color),844110,,,black_plus_sign,,,,,null,US_Cities_List/peoria.png,US_Cities_List/hotsprings.png,,,,,,,,,,,,,,,,,,
null,,black_cross(without_color),844728,,,yellow,,,,,null,US_Cities_List/peoria.png,US_Cities_List/hotsprings.png,,,,,,,,,,,,,,,,,,
null,,rt_plussign_withcolor,845230,,,yellow,,,,,null,US_Cities_List/peoria.png,US_Cities_List/hotsprings.png,,,,,,,,,,,,,,,,,,
1184.3999999761581,,rt_thecrossant_black,846617,,,black_plus_sign,,,,,50,,,1,1,,,,,,,,,,,,,,,,
null,,color_black,846720,,,black_plus_sign,,,,,null,,,,,,,,,,,,,,,,,,,,
null,,learn_phase(without_color),849756,,,black_plus_sign,,,,,null,US_Cities_List/cornwall.png,US_Cities_List/westpalmbeach.png,,,,,,,,,,,,,,,,,,
null,,black_cross(without_color),850542,,,yellow,,,,,null,US_Cities_List/cornwall.png,US_Cities_List/westpalmbeach.png,,,,,,,,,,,,,,,,,,
null,,rt_plussign_withcolor,851044,,,yellow,,,,,null,US_Cities_List/cornwall.png,US_Cities_List/westpalmbeach.png,,,,,,,,,,,,,,,,,,
1028.1000000238419,,rt_thecrossant_black,852264,,,black_plus_sign,,,,,50,,,1,1,,,,,,,,,,,,,,,,
null,,color_black,852368,,,black_plus_sign,,,,,null,,,,,,,,,,,,,,,,,,,,
null,,learn_phase(without_color),855394,,,black_plus_sign,,,,,null,US_Cities_List/huntsville.png,US_Cities_List/newhope.png,,,,,,,,,,,,,,,,,,
null,,black_cross(without_color),856063,,,yellow,,,,,null,US_Cities_List/huntsville.png,US_Cities_List/newhope.png,,,,,,,,,,,,,,,,,,
null,,rt_plussign_withcolor,856565,,,yellow,,,,,null,US_Cities_List/huntsville.png,US_Cities_List/newhope.png,,,,,,,,,,,,,,,,,,
1227.199999988079,,rt_thecrossant_black,857901,,,black_plus_sign,,,,,50,,,1,1,,,,,,,,,,,,,,,,
null,,color_black,858004,,,black_plus_sign,,,,,null,,,,,,,,,,,,,,,,,,,,
null,,learn_phase(without_color),861018,,,black_plus_sign,,,,,null,US_Cities_List/shreveport.png,US_Cities_List/cornwall.png,,,,,,,,,,,,,,,,,,
null,,black_cross(without_color),861639,,,yellow,,,,,null,US_Cities_List/shreveport.png,US_Cities_List/cornwall.png,,,,,,,,,,,,,,,,,,
null,,rt_plussign_withcolor,862140,,,yellow,,,,,null,US_Cities_List/shreveport.png,US_Cities_List/cornwall.png,,,,,,,,,,,,,,,,,,
1359.7000000476837,,rt_thecrossant_black,863521,,,black_plus_sign,,,,,50,,,1,1,,,,,,,,,,,,,,,,
null,,color_black,863623,,,black_plus_sign,,,,,null,,,,,,,,,,,,,,,,,,,,
null,,learn_phase(without_color),866634,,,black_plus_sign,,,,,null,US_Cities_List/leesburg.png,US_Cities_List/hotsprings.png,,,,,,,,,,,,,,,,,,
null,,black_cross(without_color),867104,,,blue,,,,,null,US_Cities_List/leesburg.png,US_Cities_List/hotsprings.png,,,,,,,,,,,,,,,,,,
null,,rt_plussign_withcolor,867607,,,blue,,,,,null,US_Cities_List/leesburg.png,US_Cities_List/hotsprings.png,,,,,,,,,,,,,,,,,,
1334.199999988079,,rt_thecrossant_black,869142,,,black_plus_sign,,,,,49,,,1,1,,,,,,,,,,,,,,,,
null,,color_black,869245,,,black_plus_sign,,,,,null,,,,,,,,,,,,,,,,,,,,
null,,learn_phase(without_color),872262,,,black_plus_sign,,,,,null,US_Cities_List/cornwall.png,US_Cities_List/westpalmbeach.png,,,,,,,,,,,,,,,,,,
null,,black_cross(without_color),873342,,,blue,,,,,null,US_Cities_List/cornwall.png,US_Cities_List/westpalmbeach.png,,,,,,,,,,,,,,,,,,
null,,rt_plussign_withcolor,873858,,,blue,,,,,null,US_Cities_List/cornwall.png,US_Cities_List/westpalmbeach.png,,,,,,,,,,,,,,,,,,
851.1999999880791,,rt_thecrossant_black,874783,,,black_plus_sign,,,,,49,,,1,1,,,,,,,,,,,,,,,,
null,,color_black,874899,,,black_plus_sign,,,,,null,,,,,,,,,,,,,,,,,,,,
null,,learn_phase(without_color),877921,,,black_plus_sign,,,,,null,US_Cities_List/gatlinburg.png,US_Cities_List/peoria.png,,,,,,,,,,,,,,,,,,
null,,black_cross(without_color),878958,,,yellow,,,,,null,US_Cities_List/gatlinburg.png,US_Cities_List/peoria.png,,,,,,,,,,,,,,,,,,
null,,rt_plussign_withcolor,879460,,,yellow,,,,,null,US_Cities_List/gatlinburg.png,US_Cities_List/peoria.png,,,,,,,,,,,,,,,,,,
1475.0999999642372,,rt_thecrossant_black,880427,,,black_plus_sign,,,,,50,,,1,1,,,,,,,,,,,,,,,,
null,,color_black,880529,,,black_plus_sign,,,,,null,,,,,,,,,,,,,,,,,,,,
null,,learn_phase(without_color),883541,,,black_plus_sign,,,,,null,US_Cities_List/racine.png,US_Cities_List/hanover.png,,,,,,,,,,,,,,,,,,
null,,black_cross(without_color),884599,,,blue,,,,,null,US_Cities_List/racine.png,US_Cities_List/hanover.png,,,,,,,,,,,,,,,,,,
null,,rt_plussign_withcolor,885110,,,blue,,,,,null,US_Cities_List/racine.png,US_Cities_List/hanover.png,,,,,,,,,,,,,,,,,,
1525.3999999761581,,rt_thecrossant_black,886059,,,black_plus_sign,,,,,49,,,1,1,,,,,,,,,,,,,,,,
null,,color_black,886161,,,black_plus_sign,,,,,null,,,,,,,,,,,,,,,,,,,,
null,,learn_phase(without_color),889179,,,black_plus_sign,,,,,null,US_Cities_List/gatlinburg.png,US_Cities_List/cornwall.png,,,,,,,,,,,,,,,,,,
null,,black_cross(without_color),890101,,,blue,,,,,null,US_Cities_List/gatlinburg.png,US_Cities_List/cornwall.png,,,,,,,,,,,,,,,,,,
null,,rt_plussign_withcolor,890604,,,blue,,,,,null,US_Cities_List/gatlinburg.png,US_Cities_List/cornwall.png,,,,,,,,,,,,,,,,,,
1443.7999999523163,,rt_thecrossant_black,891686,,,black_plus_sign,,,,,49,,,1,1,,,,,,,,,,,,,,,,
null,,color_black,891788,,,black_plus_sign,,,,,null,,,,,,,,,,,,,,,,,,,,
null,,learn_phase(without_color),894800,,,black_plus_sign,,,,,null,US_Cities_List/peoria.png,US_Cities_List/racine.png,,,,,,,,,,,,,,,,,,
null,,black_cross(without_color),895631,,,yellow,,,,,null,US_Cities_List/peoria.png,US_Cities_List/racine.png,,,,,,,,,,,,,,,,,,
null,,rt_plussign_withcolor,896135,,,yellow,,,,,null,US_Cities_List/peoria.png,US_Cities_List/racine.png,,,,,,,,,,,,,,,,,,
1473.800000011921,,rt_thecrossant_black,897310,,,black_plus_sign,,,,,50,,,1,1,,,,,,,,,,,,,,,,
null,,color_black,897414,,,black_plus_sign,,,,,null,,,,,,,,,,,,,,,,,,,,
null,,learn_phase(without_color),900444,,,black_plus_sign,,,,,null,US_Cities_List/leesburg.png,US_Cities_List/hotsprings.png,,,,,,,,,,,,,,,,,,
null,,black_cross(without_color),901423,,,yellow,,,,,null,US_Cities_List/leesburg.png,US_Cities_List/hotsprings.png,,,,,,,,,,,,,,,,,,
null,,rt_plussign_withcolor,901926,,,yellow,,,,,null,US_Cities_List/leesburg.png,US_Cities_List/hotsprings.png,,,,,,,,,,,,,,,,,,
1191.5,,rt_thecrossant_black,902953,,,black_plus_sign,,,,,50,,,1,1,,,,,,,,,,,,,,,,
null,,color_black,903055,,,black_plus_sign,,,,,null,,,,,,,,,,,,,,,,,,,,
null,,learn_phase(without_color),906070,,,black_plus_sign,,,,,null,US_Cities_List/cornwall.png,US_Cities_List/shreveport.png,,,,,,,,,,,,,,,,,,
null,,black_cross(without_color),906613,,,yellow,,,,,null,US_Cities_List/cornwall.png,US_Cities_List/shreveport.png,,,,,,,,,,,,,,,,,,
null,,rt_plussign_withcolor,907115,,,yellow,,,,,null,US_Cities_List/cornwall.png,US_Cities_List/shreveport.png,,,,,,,,,,,,,,,,,,
1716.6000000238419,,rt_thecrossant_black,908577,,,black_plus_sign,,,,,50,,,1,1,,,,,,,,,,,,,,,,
null,,color_black,908680,,,black_plus_sign,,,,,null,,,,,,,,,,,,,,,,,,,,
null,,learn_phase(without_color),911707,,,black_plus_sign,,,,,null,US_Cities_List/westpalmbeach.png,US_Cities_List/gatlinburg.png,,,,,,,,,,,,,,,,,,
null,,black_cross(without_color),912446,,,blue,,,,,null,US_Cities_List/westpalmbeach.png,US_Cities_List/gatlinburg.png,,,,,,,,,,,,,,,,,,
null,,rt_plussign_withcolor,912949,,,blue,,,,,null,US_Cities_List/westpalmbeach.png,US_Cities_List/gatlinburg.png,,,,,,,,,,,,,,,,,,
937,,rt_thecrossant_black,914223,,,black_plus_sign,,,,,49,,,1,1,,,,,,,,,,,,,,,,
null,,color_black,914325,,,black_plus_sign,,,,,null,,,,,,,,,,,,,,,,,,,,
null,,learn_phase(without_color),917339,,,black_plus_sign,,,,,null,US_Cities_List/gatlinburg.png,US_Cities_List/westpalmbeach.png,,,,,,,,,,,,,,,,,,
null,,black_cross(without_color),918063,,,yellow,,,,,null,US_Cities_List/gatlinburg.png,US_Cities_List/westpalmbeach.png,,,,,,,,,,,,,,,,,,
null,,rt_plussign_withcolor,918565,,,yellow,,,,,null,US_Cities_List/gatlinburg.png,US_Cities_List/westpalmbeach.png,,,,,,,,,,,,,,,,,,
1196.5,,rt_thecrossant_black,919847,,,black_plus_sign,,,,,50,,,1,1,,,,,,,,,,,,,,,,
null,,color_black,919949,,,black_plus_sign,,,,,null,,,,,,,,,,,,,,,,,,,,
null,,learn_phase(without_color),922975,,,black_plus_sign,,,,,null,US_Cities_List/peoria.png,US_Cities_List/gatlinburg.png,,,,,,,,,,,,,,,,,,
null,,black_cross(without_color),923380,,,yellow,,,,,null,US_Cities_List/peoria.png,US_Cities_List/gatlinburg.png,,,,,,,,,,,,,,,,,,
null,,rt_plussign_withcolor,923882,,,yellow,,,,,null,US_Cities_List/peoria.png,US_Cities_List/gatlinburg.png,,,,,,,,,,,,,,,,,,
1272.5,,rt_thecrossant_black,925483,,,black_plus_sign,,,,,50,,,1,1,,,,,,,,,,,,,,,,
null,,color_black,925587,,,black_plus_sign,,,,,null,,,,,,,,,,,,,,,,,,,,
null,,learn_phase(without_color),928611,,,black_plus_sign,,,,,null,US_Cities_List/boulder.png,US_Cities_List/carmel.png,,,,,,,,,,,,,,,,,,
null,,black_cross(without_color),929424,,,yellow,,,,,null,US_Cities_List/boulder.png,US_Cities_List/carmel.png,,,,,,,,,,,,,,,,,,
null,,rt_plussign_withcolor,929926,,,yellow,,,,,null,US_Cities_List/boulder.png,US_Cities_List/carmel.png,,,,,,,,,,,,,,,,,,
779.8000000119209,,rt_thecrossant_black,931119,,,black_plus_sign,,,,,50,,,1,1,,,,,,,,,,,,,,,,
null,,color_black,931222,,,black_plus_sign,,,,,null,,,,,,,,,,,,,,,,,,,,
null,,learn_phase(without_color),934236,,,black_plus_sign,,,,,null,US_Cities_List/westpalmbeach.png,US_Cities_List/carmel.png,,,,,,,,,,,,,,,,,,
null,,black_cross(without_color),934672,,,yellow,,,,,null,US_Cities_List/westpalmbeach.png,US_Cities_List/carmel.png,,,,,,,,,,,,,,,,,,
null,,rt_plussign_withcolor,935184,,,yellow,,,,,null,US_Cities_List/westpalmbeach.png,US_Cities_List/carmel.png,,,,,,,,,,,,,,,,,,
1482.5,,rt_thecrossant_black,936753,,,black_plus_sign,,,,,50,,,1,1,,,,,,,,,,,,,,,,
null,,color_black,936870,,,black_plus_sign,,,,,null,,,,,,,,,,,,,,,,,,,,
null,,learn_phase(without_color),939883,,,black_plus_sign,,,,,null,US_Cities_List/hanover.png,US_Cities_List/racine.png,,,,,,,,,,,,,,,,,,
null,,black_cross(without_color),940481,,,yellow,,,,,null,US_Cities_List/hanover.png,US_Cities_List/racine.png,,,,,,,,,,,,,,,,,,
null,,rt_plussign_withcolor,940983,,,yellow,,,,,null,US_Cities_List/hanover.png,US_Cities_List/racine.png,,,,,,,,,,,,,,,,,,
795.5,,rt_thecrossant_black,942390,,,black_plus_sign,,,,,50,,,1,1,,,,,,,,,,,,,,,,
null,,color_black,942492,,,black_plus_sign,,,,,null,,,,,,,,,,,,,,,,,,,,
null,,learn_phase(without_color),945511,,,black_plus_sign,,,,,null,US_Cities_List/shreveport.png,US_Cities_List/cornwall.png,,,,,,,,,,,,,,,,,,
null,,black_cross(without_color),945975,,,blue,,,,,null,US_Cities_List/shreveport.png,US_Cities_List/cornwall.png,,,,,,,,,,,,,,,,,,
null,,rt_plussign_withcolor,946478,,,blue,,,,,null,US_Cities_List/shreveport.png,US_Cities_List/cornwall.png,,,,,,,,,,,,,,,,,,
1143.699999988079,,rt_thecrossant_black,948030,,,black_plus_sign,,,,,49,,,1,1,,,,,,,,,,,,,,,,
null,,color_black,948133,,,black_plus_sign,,,,,null,,,,,,,,,,,,,,,,,,,,
null,,learn_phase(without_color),951158,,,black_plus_sign,,,,,null,US_Cities_List/shreveport.png,US_Cities_List/cornwall.png,,,,,,,,,,,,,,,,,,
null,,black_cross(without_color),951664,,,yellow,,,,,null,US_Cities_List/shreveport.png,US_Cities_List/cornwall.png,,,,,,,,,,,,,,,,,,
null,,rt_plussign_withcolor,952166,,,yellow,,,,,null,US_Cities_List/shreveport.png,US_Cities_List/cornwall.png,,,,,,,,,,,,,,,,,,
924.7000000476837,,rt_thecrossant_black,953665,,,black_plus_sign,,,,,50,,,1,1,,,,,,,,,,,,,,,,
null,,color_black,953776,,,black_plus_sign,,,,,null,,,,,,,,,,,,,,,,,,,,
null,,learn_phase(without_color),956804,,,black_plus_sign,,,,,null,US_Cities_List/shreveport.png,US_Cities_List/cornwall.png,,,,,,,,,,,,,,,,,,
null,,black_cross(without_color),957351,,,yellow,,,,,null,US_Cities_List/shreveport.png,US_Cities_List/cornwall.png,,,,,,,,,,,,,,,,,,
null,,rt_plussign_withcolor,957852,,,yellow,,,,,null,US_Cities_List/shreveport.png,US_Cities_List/cornwall.png,,,,,,,,,,,,,,,,,,
1005.6999999880791,,rt_thecrossant_black,959311,,,black_plus_sign,,,,,50,,,1,1,,,,,,,,,,,,,,,,
null,,color_black,959414,,,black_plus_sign,,,,,null,,,,,,,,,,,,,,,,,,,,
null,,learn_phase(without_color),962428,,,black_plus_sign,,,,,null,US_Cities_List/hotsprings.png,US_Cities_List/peoria.png,,,,,,,,,,,,,,,,,,
null,,black_cross(without_color),963370,,,yellow,,,,,null,US_Cities_List/hotsprings.png,US_Cities_List/peoria.png,,,,,,,,,,,,,,,,,,
null,,rt_plussign_withcolor,963872,,,yellow,,,,,null,US_Cities_List/hotsprings.png,US_Cities_List/peoria.png,,,,,,,,,,,,,,,,,,
991.5999999642372,,rt_thecrossant_black,964937,,,black_plus_sign,,,,,50,,,1,1,,,,,,,,,,,,,,,,
null,,color_black,965039,,,black_plus_sign,,,,,null,,,,,,,,,,,,,,,,,,,,
null,,learn_phase(without_color),968065,,,black_plus_sign,,,,,null,US_Cities_List/hanover.png,US_Cities_List/racine.png,,,,,,,,,,,,,,,,,,
null,,black_cross(without_color),968828,,,yellow,,,,,null,US_Cities_List/hanover.png,US_Cities_List/racine.png,,,,,,,,,,,,,,,,,,
null,,rt_plussign_withcolor,969330,,,yellow,,,,,null,US_Cities_List/hanover.png,US_Cities_List/racine.png,,,,,,,,,,,,,,,,,,
1420.6000000238419,,rt_thecrossant_black,970571,,,black_plus_sign,,,,,50,,,1,1,,,,,,,,,,,,,,,,
null,,color_black,970674,,,black_plus_sign,,,,,null,,,,,,,,,,,,,,,,,,,,
null,,learn_phase(without_color),973684,,,black_plus_sign,,,,,null,US_Cities_List/boulder.png,US_Cities_List/carmel.png,,,,,,,,,,,,,,,,,,
null,,black_cross(without_color),974683,,,blue,,,,,null,US_Cities_List/boulder.png,US_Cities_List/carmel.png,,,,,,,,,,,,,,,,,,
null,,rt_plussign_withcolor,975193,,,blue,,,,,null,US_Cities_List/boulder.png,US_Cities_List/carmel.png,,,,,,,,,,,,,,,,,,
1377.699999988079,,rt_thecrossant_black,976197,,,black_plus_sign,,,,,49,,,1,1,,,,,,,,,,,,,,,,
null,,color_black,976300,,,black_plus_sign,,,,,null,,,,,,,,,,,,,,,,,,,,
null,,learn_phase(without_color),979308,,,black_plus_sign,,,,,null,US_Cities_List/huntsville.png,US_Cities_List/newhope.png,,,,,,,,,,,,,,,,,,
null,,black_cross(without_color),980395,,,yellow,,,,,null,US_Cities_List/huntsville.png,US_Cities_List/newhope.png,,,,,,,,,,,,,,,,,,
null,,rt_plussign_withcolor,980897,,,yellow,,,,,null,US_Cities_List/huntsville.png,US_Cities_List/newhope.png,,,,,,,,,,,,,,,,,,
1444,,rt_thecrossant_black,981816,,,black_plus_sign,,,,,50,,,1,1,,,,,,,,,,,,,,,,
null,,color_black,981918,,,black_plus_sign,,,,,null,,,,,,,,,,,,,,,,,,,,
null,,learn_phase(without_color),984929,,,black_plus_sign,,,,,null,US_Cities_List/westpalmbeach.png,US_Cities_List/carmel.png,,,,,,,,,,,,,,,,,,
null,,black_cross(without_color),985751,,,blue,,,,,null,US_Cities_List/westpalmbeach.png,US_Cities_List/carmel.png,,,,,,,,,,,,,,,,,,
null,,rt_plussign_withcolor,986252,,,blue,,,,,null,US_Cities_List/westpalmbeach.png,US_Cities_List/carmel.png,,,,,,,,,,,,,,,,,,
1553.199999988079,,rt_thecrossant_black,987436,,,black_plus_sign,,,,,49,,,1,1,,,,,,,,,,,,,,,,
null,,color_black,987539,,,black_plus_sign,,,,,null,,,,,,,,,,,,,,,,,,,,
null,,learn_phase(without_color),990569,,,black_plus_sign,,,,,null,US_Cities_List/carmel.png,US_Cities_List/westpalmbeach.png,,,,,,,,,,,,,,,,,,
null,,black_cross(without_color),991173,,,yellow,,,,,null,US_Cities_List/carmel.png,US_Cities_List/westpalmbeach.png,,,,,,,,,,,,,,,,,,
null,,rt_plussign_withcolor,991688,,,yellow,,,,,null,US_Cities_List/carmel.png,US_Cities_List/westpalmbeach.png,,,,,,,,,,,,,,,,,,
1212.6000000238419,,rt_thecrossant_black,993090,,,black_plus_sign,,,,,50,,,1,1,,,,,,,,,,,,,,,,
null,,color_black,993193,,,black_plus_sign,,,,,null,,,,,,,,,,,,,,,,,,,,
null,,learn_phase(without_color),996204,,,black_plus_sign,,,,,null,US_Cities_List/hotsprings.png,US_Cities_List/leesburg.png,,,,,,,,,,,,,,,,,,
null,,black_cross(without_color),996705,,,blue,,,,,null,US_Cities_List/hotsprings.png,US_Cities_List/leesburg.png,,,,,,,,,,,,,,,,,,
null,,rt_plussign_withcolor,997207,,,blue,,,,,null,US_Cities_List/hotsprings.png,US_Cities_List/leesburg.png,,,,,,,,,,,,,,,,,,
1137.9000000357628,,rt_thecrossant_black,998712,,,black_plus_sign,,,,,49,,,1,1,,,,,,,,,,,,,,,,
null,,color_black,998816,,,black_plus_sign,,,,,null,,,,,,,,,,,,,,,,,,,,
null,,learn_phase(without_color),1001844,,,black_plus_sign,,,,,null,US_Cities_List/newhope.png,US_Cities_List/huntsville.png,,,,,,,,,,,,,,,,,,
null,,black_cross(without_color),1002917,,,blue,,,,,null,US_Cities_List/newhope.png,US_Cities_List/huntsville.png,,,,,,,,,,,,,,,,,,
null,,rt_plussign_withcolor,1003419,,,blue,,,,,null,US_Cities_List/newhope.png,US_Cities_List/huntsville.png,,,,,,,,,,,,,,,,,,
1176.0999999642372,,rt_thecrossant_black,1004352,,,black_plus_sign,,,,,49,,,1,1,,,,,,,,,,,,,,,,
null,,color_black,1004455,,,black_plus_sign,,,,,null,,,,,,,,,,,,,,,,,,,,
null,,learn_phase(without_color),1007485,,,black_plus_sign,,,,,null,US_Cities_List/carmel.png,US_Cities_List/cornwall.png,,,,,,,,,,,,,,,,,,
null,,black_cross(without_color),1008369,,,blue,,,,,null,US_Cities_List/carmel.png,US_Cities_List/cornwall.png,,,,,,,,,,,,,,,,,,
null,,rt_plussign_withcolor,1008872,,,blue,,,,,null,US_Cities_List/carmel.png,US_Cities_List/cornwall.png,,,,,,,,,,,,,,,,,,
1493.699999988079,,rt_thecrossant_black,1009995,,,black_plus_sign,,,,,49,,,1,1,,,,,,,,,,,,,,,,
null,,color_black,1010099,,,black_plus_sign,,,,,null,,,,,,,,,,,,,,,,,,,,
null,,learn_phase(without_color),1013121,,,black_plus_sign,,,,,null,US_Cities_List/newhope.png,US_Cities_List/racine.png,,,,,,,,,,,,,,,,,,
null,,black_cross(without_color),1013542,,,blue,,,,,null,US_Cities_List/newhope.png,US_Cities_List/racine.png,,,,,,,,,,,,,,,,,,
null,,rt_plussign_withcolor,1014044,,,blue,,,,,null,US_Cities_List/newhope.png,US_Cities_List/racine.png,,,,,,,,,,,,,,,,,,
1365.8999999761581,,rt_thecrossant_black,1015643,,,black_plus_sign,,,,,49,,,1,1,,,,,,,,,,,,,,,,
null,,color_black,1015745,,,black_plus_sign,,,,,null,,,,,,,,,,,,,,,,,,,,
null,,learn_phase(without_color),1018759,,,black_plus_sign,,,,,null,US_Cities_List/westpalmbeach.png,US_Cities_List/hotsprings.png,,,,,,,,,,,,,,,,,,
null,,black_cross(without_color),1019424,,,yellow,,,,,null,US_Cities_List/westpalmbeach.png,US_Cities_List/hotsprings.png,,,,,,,,,,,,,,,,,,
null,,rt_plussign_withcolor,1019926,,,yellow,,,,,null,US_Cities_List/westpalmbeach.png,US_Cities_List/hotsprings.png,,,,,,,,,,,,,,,,,,
846.7000000476837,,rt_thecrossant_black,1021271,,,black_plus_sign,,,,,50,,,1,1,,,,,,,,,,,,,,,,
null,,color_black,1021375,,,black_plus_sign,,,,,null,,,,,,,,,,,,,,,,,,,,
null,,learn_phase(without_color),1024391,,,black_plus_sign,,,,,null,US_Cities_List/gatlinburg.png,US_Cities_List/cornwall.png,,,,,,,,,,,,,,,,,,
null,,black_cross(without_color),1024928,,,yellow,,,,,null,US_Cities_List/gatlinburg.png,US_Cities_List/cornwall.png,,,,,,,,,,,,,,,,,,
null,,rt_plussign_withcolor,1025430,,,yellow,,,,,null,US_Cities_List/gatlinburg.png,US_Cities_List/cornwall.png,,,,,,,,,,,,,,,,,,
1489.0999999642372,,rt_thecrossant_black,1026899,,,black_plus_sign,,,,,50,,,1,1,,,,,,,,,,,,,,,,
null,,color_black,1027002,,,black_plus_sign,,,,,null,,,,,,,,,,,,,,,,,,,,
null,,learn_phase(without_color),1030038,,,black_plus_sign,,,,,null,US_Cities_List/carmel.png,US_Cities_List/cornwall.png,,,,,,,,,,,,,,,,,,
null,,black_cross(without_color),1030510,,,blue,,,,,null,US_Cities_List/carmel.png,US_Cities_List/cornwall.png,,,,,,,,,,,,,,,,,,
null,,rt_plussign_withcolor,1031013,,,blue,,,,,null,US_Cities_List/carmel.png,US_Cities_List/cornwall.png,,,,,,,,,,,,,,,,,,
1106.5,,rt_thecrossant_black,1032547,,,black_plus_sign,,,,,49,,,1,1,,,,,,,,,,,,,,,,
null,,color_black,1032650,,,black_plus_sign,,,,,null,,,,,,,,,,,,,,,,,,,,
null,,learn_phase(without_color),1035663,,,black_plus_sign,,,,,null,US_Cities_List/gatlinburg.png,US_Cities_List/peoria.png,,,,,,,,,,,,,,,,,,
null,,black_cross(without_color),1036540,,,blue,,,,,null,US_Cities_List/gatlinburg.png,US_Cities_List/peoria.png,,,,,,,,,,,,,,,,,,
null,,rt_plussign_withcolor,1037043,,,blue,,,,,null,US_Cities_List/gatlinburg.png,US_Cities_List/peoria.png,,,,,,,,,,,,,,,,,,
1010.5,,rt_thecrossant_black,1038172,,,black_plus_sign,,,,,49,,,1,1,,,,,,,,,,,,,,,,
null,,color_black,1038275,,,black_plus_sign,,,,,null,,,,,,,,,,,,,,,,,,,,
null,,learn_phase(without_color),1041296,,,black_plus_sign,,,,,null,US_Cities_List/peoria.png,US_Cities_List/hotsprings.png,,,,,,,,,,,,,,,,,,
null,,black_cross(without_color),1042372,,,blue,,,,,null,US_Cities_List/peoria.png,US_Cities_List/hotsprings.png,,,,,,,,,,,,,,,,,,
null,,rt_plussign_withcolor,1042874,,,blue,,,,,null,US_Cities_List/peoria.png,US_Cities_List/hotsprings.png,,,,,,,,,,,,,,,,,,
1281.3999999761581,,rt_thecrossant_black,1043802,,,black_plus_sign,,,,,49,,,1,1,,,,,,,,,,,,,,,,
null,,color_black,1043906,,,black_plus_sign,,,,,null,,,,,,,,,,,,,,,,,,,,
null,,learn_phase(without_color),1046920,,,black_plus_sign,,,,,null,US_Cities_List/westpalmbeach.png,US_Cities_List/gatlinburg.png,,,,,,,,,,,,,,,,,,
null,,black_cross(without_color),1047807,,,blue,,,,,null,US_Cities_List/westpalmbeach.png,US_Cities_List/gatlinburg.png,,,,,,,,,,,,,,,,,,
null,,rt_plussign_withcolor,1048310,,,blue,,,,,null,US_Cities_List/westpalmbeach.png,US_Cities_List/gatlinburg.png,,,,,,,,,,,,,,,,,,
1422.199999988079,,rt_thecrossant_black,1049440,,,black_plus_sign,,,,,49,,,1,1,,,,,,,,,,,,,,,,
null,,color_black,1049544,,,black_plus_sign,,,,,null,,,,,,,,,,,,,,,,,,,,
null,,learn_phase(without_color),1052571,,,black_plus_sign,,,,,null,US_Cities_List/leesburg.png,US_Cities_List/hotsprings.png,,,,,,,,,,,,,,,,,,
null,,black_cross(without_color),1053099,,,yellow,,,,,null,US_Cities_List/leesburg.png,US_Cities_List/hotsprings.png,,,,,,,,,,,,,,,,,,
null,,rt_plussign_withcolor,1053602,,,yellow,,,,,null,US_Cities_List/leesburg.png,US_Cities_List/hotsprings.png,,,,,,,,,,,,,,,,,,
1255.1000000238419,,rt_thecrossant_black,1055081,,,black_plus_sign,,,,,50,,,1,1,,,,,,,,,,,,,,,,
null,,color_black,1055184,,,black_plus_sign,,,,,null,,,,,,,,,,,,,,,,,,,,
null,,learn_phase(without_color),1058199,,,black_plus_sign,,,,,null,US_Cities_List/peoria.png,US_Cities_List/racine.png,,,,,,,,,,,,,,,,,,
null,,black_cross(without_color),1058627,,,blue,,,,,null,US_Cities_List/peoria.png,US_Cities_List/racine.png,,,,,,,,,,,,,,,,,,
null,,rt_plussign_withcolor,1059129,,,blue,,,,,null,US_Cities_List/peoria.png,US_Cities_List/racine.png,,,,,,,,,,,,,,,,,,
1027.7999999523163,,rt_thecrossant_black,1060709,,,black_plus_sign,,,,,49,,,1,1,,,,,,,,,,,,,,,,
null,,color_black,1060812,,,black_plus_sign,,,,,null,,,,,,,,,,,,,,,,,,,,
null,,learn_phase(without_color),1063833,,,black_plus_sign,,,,,null,US_Cities_List/westpalmbeach.png,US_Cities_List/hotsprings.png,,,,,,,,,,,,,,,,,,
null,,black_cross(without_color),1064525,,,yellow,,,,,null,US_Cities_List/westpalmbeach.png,US_Cities_List/hotsprings.png,,,,,,,,,,,,,,,,,,
null,,rt_plussign_withcolor,1065027,,,yellow,,,,,null,US_Cities_List/westpalmbeach.png,US_Cities_List/hotsprings.png,,,,,,,,,,,,,,,,,,
934.0999999642372,,rt_thecrossant_black,1066342,,,black_plus_sign,,,,,50,,,1,1,,,,,,,,,,,,,,,,
null,,color_black,1066444,,,black_plus_sign,,,,,null,,,,,,,,,,,,,,,,,,,,
null,,learn_phase(without_color),1069473,,,black_plus_sign,,,,,null,US_Cities_List/gatlinburg.png,US_Cities_List/westpalmbeach.png,,,,,,,,,,,,,,,,,,
null,,black_cross(without_color),1070524,,,blue,,,,,null,US_Cities_List/gatlinburg.png,US_Cities_List/westpalmbeach.png,,,,,,,,,,,,,,,,,,
null,,rt_plussign_withcolor,1071026,,,blue,,,,,null,US_Cities_List/gatlinburg.png,US_Cities_List/westpalmbeach.png,,,,,,,,,,,,,,,,,,
1136.6000000238419,,rt_thecrossant_black,1071980,,,black_plus_sign,,,,,49,,,1,1,,,,,,,,,,,,,,,,
null,,color_black,1072083,,,black_plus_sign,,,,,null,,,,,,,,,,,,,,,,,,,,
null,,learn_phase(without_color),1075106,,,black_plus_sign,,,,,null,US_Cities_List/newhope.png,US_Cities_List/huntsville.png,,,,,,,,,,,,,,,,,,
null,,black_cross(without_color),1075902,,,blue,,,,,null,US_Cities_List/newhope.png,US_Cities_List/huntsville.png,,,,,,,,,,,,,,,,,,
null,,rt_plussign_withcolor,1076404,,,blue,,,,,null,US_Cities_List/newhope.png,US_Cities_List/huntsville.png,,,,,,,,,,,,,,,,,,
1684.3999999761581,,rt_thecrossant_black,1077614,,,black_plus_sign,,,,,49,,,1,1,,,,,,,,,,,,,,,,
null,,color_black,1077718,,,black_plus_sign,,,,,null,,,,,,,,,,,,,,,,,,,,
null,,learn_phase(without_color),1080732,,,black_plus_sign,,,,,null,US_Cities_List/westpalmbeach.png,US_Cities_List/gatlinburg.png,,,,,,,,,,,,,,,,,,
null,,black_cross(without_color),1081195,,,yellow,,,,,null,US_Cities_List/westpalmbeach.png,US_Cities_List/gatlinburg.png,,,,,,,,,,,,,,,,,,
null,,rt_plussign_withcolor,1081698,,,yellow,,,,,null,US_Cities_List/westpalmbeach.png,US_Cities_List/gatlinburg.png,,,,,,,,,,,,,,,,,,
1414.5,,rt_thecrossant_black,1083241,,,black_plus_sign,,,,,50,,,1,1,,,,,,,,,,,,,,,,
null,,color_black,1083343,,,black_plus_sign,,,,,null,,,,,,,,,,,,,,,,,,,,
null,,learn_phase(without_color),1086365,,,black_plus_sign,,,,,null,US_Cities_List/leesburg.png,US_Cities_List/newhope.png,,,,,,,,,,,,,,,,,,
null,,black_cross(without_color),1086859,,,blue,,,,,null,US_Cities_List/leesburg.png,US_Cities_List/newhope.png,,,,,,,,,,,,,,,,,,
null,,rt_plussign_withcolor,1087361,,,blue,,,,,null,US_Cities_List/leesburg.png,US_Cities_List/newhope.png,,,,,,,,,,,,,,,,,,
1132.5,,rt_thecrossant_black,1088872,,,black_plus_sign,,,,,49,,,1,1,,,,,,,,,,,,,,,,
null,,color_black,1088975,,,black_plus_sign,,,,,null,,,,,,,,,,,,,,,,,,,,
null,,learn_phase(without_color),1091998,,,black_plus_sign,,,,,null,US_Cities_List/carmel.png,US_Cities_List/boulder.png,,,,,,,,,,,,,,,,,,
null,,black_cross(without_color),1092872,,,blue,,,,,null,US_Cities_List/carmel.png,US_Cities_List/boulder.png,,,,,,,,,,,,,,,,,,
null,,rt_plussign_withcolor,1093374,,,blue,,,,,null,US_Cities_List/carmel.png,US_Cities_List/boulder.png,,,,,,,,,,,,,,,,,,
878,,rt_thecrossant_black,1094505,,,black_plus_sign,,,,,49,,,1,1,,,,,,,,,,,,,,,,
null,,color_black,1094608,,,black_plus_sign,,,,,null,,,,,,,,,,,,,,,,,,,,
null,,learn_phase(without_color),1097626,,,black_plus_sign,,,,,null,US_Cities_List/cornwall.png,US_Cities_List/gatlinburg.png,,,,,,,,,,,,,,,,,,
null,,black_cross(without_color),1098528,,,yellow,,,,,null,US_Cities_List/cornwall.png,US_Cities_List/gatlinburg.png,,,,,,,,,,,,,,,,,,
null,,rt_plussign_withcolor,1099030,,,yellow,,,,,null,US_Cities_List/cornwall.png,US_Cities_List/gatlinburg.png,,,,,,,,,,,,,,,,,,
1313.199999988079,,rt_thecrossant_black,1100134,,,black_plus_sign,,,,,50,,,1,1,,,,,,,,,,,,,,,,
null,,color_black,1100251,,,black_plus_sign,,,,,null,,,,,,,,,,,,,,,,,,,,
null,,learn_phase(without_color),1103264,,,black_plus_sign,,,,,null,US_Cities_List/hotsprings.png,US_Cities_List/leesburg.png,,,,,,,,,,,,,,,,,,
null,,black_cross(without_color),1103766,,,yellow,,,,,null,US_Cities_List/hotsprings.png,US_Cities_List/leesburg.png,,,,,,,,,,,,,,,,,,
null,,rt_plussign_withcolor,1104268,,,yellow,,,,,null,US_Cities_List/hotsprings.png,US_Cities_List/leesburg.png,,,,,,,,,,,,,,,,,,
1287.5,,rt_thecrossant_black,1105772,,,black_plus_sign,,,,,50,,,1,1,,,,,,,,,,,,,,,,
null,,color_black,1105876,,,black_plus_sign,,,,,null,,,,,,,,,,,,,,,,,,,,
null,,learn_phase(without_color),1108910,,,black_plus_sign,,,,,null,US_Cities_List/gatlinburg.png,US_Cities_List/cornwall.png,,,,,,,,,,,,,,,,,,
null,,black_cross(without_color),1109474,,,blue,,,,,null,US_Cities_List/gatlinburg.png,US_Cities_List/cornwall.png,,,,,,,,,,,,,,,,,,
null,,rt_plussign_withcolor,1109976,,,blue,,,,,null,US_Cities_List/gatlinburg.png,US_Cities_List/cornwall.png,,,,,,,,,,,,,,,,,,
907.8999999761581,,rt_thecrossant_black,1111415,,,black_plus_sign,,,,,49,,,1,1,,,,,,,,,,,,,,,,
null,,color_black,1111517,,,black_plus_sign,,,,,null,,,,,,,,,,,,,,,,,,,,
null,,learn_phase(without_color),1114531,,,black_plus_sign,,,,,null,US_Cities_List/carmel.png,US_Cities_List/boulder.png,,,,,,,,,,,,,,,,,,
null,,black_cross(without_color),1115497,,,blue,,,,,null,US_Cities_List/carmel.png,US_Cities_List/boulder.png,,,,,,,,,,,,,,,,,,
null,,rt_plussign_withcolor,1115999,,,blue,,,,,null,US_Cities_List/carmel.png,US_Cities_List/boulder.png,,,,,,,,,,,,,,,,,,
1140.6000000238419,,rt_thecrossant_black,1117039,,,black_plus_sign,,,,,49,,,1,1,,,,,,,,,,,,,,,,
null,,color_black,1117141,,,black_plus_sign,,,,,null,,,,,,,,,,,,,,,,,,,,
null,,learn_phase(without_color),1120154,,,black_plus_sign,,,,,null,US_Cities_List/newhope.png,US_Cities_List/racine.png,,,,,,,,,,,,,,,,,,
null,,black_cross(without_color),1121156,,,yellow,,,,,null,US_Cities_List/newhope.png,US_Cities_List/racine.png,,,,,,,,,,,,,,,,,,
null,,rt_plussign_withcolor,1121659,,,yellow,,,,,null,US_Cities_List/newhope.png,US_Cities_List/racine.png,,,,,,,,,,,,,,,,,,
1337.5999999642372,,rt_thecrossant_black,1122663,,,black_plus_sign,,,,,50,,,1,1,,,,,,,,,,,,,,,,
null,,color_black,1122779,,,black_plus_sign,,,,,null,,,,,,,,,,,,,,,,,,,,
null,,learn_phase(without_color),1125789,,,black_plus_sign,,,,,null,US_Cities_List/gatlinburg.png,US_Cities_List/peoria.png,,,,,,,,,,,,,,,,,,
null,,black_cross(without_color),1126326,,,yellow,,,,,null,US_Cities_List/gatlinburg.png,US_Cities_List/peoria.png,,,,,,,,,,,,,,,,,,
null,,rt_plussign_withcolor,1126830,,,yellow,,,,,null,US_Cities_List/gatlinburg.png,US_Cities_List/peoria.png,,,,,,,,,,,,,,,,,,
1403,,rt_thecrossant_black,1128299,,,black_plus_sign,,,,,50,,,1,1,,,,,,,,,,,,,,,,
null,,color_black,1128401,,,black_plus_sign,,,,,null,,,,,,,,,,,,,,,,,,,,
null,,learn_phase(without_color),1131411,,,black_plus_sign,,,,,null,US_Cities_List/newhope.png,US_Cities_List/leesburg.png,,,,,,,,,,,,,,,,,,
null,,black_cross(without_color),1132042,,,yellow,,,,,null,US_Cities_List/newhope.png,US_Cities_List/leesburg.png,,,,,,,,,,,,,,,,,,
null,,rt_plussign_withcolor,1132549,,,yellow,,,,,null,US_Cities_List/newhope.png,US_Cities_List/leesburg.png,,,,,,,,,,,,,,,,,,
1122.199999988079,,rt_thecrossant_black,1133923,,,black_plus_sign,,,,,50,,,1,1,,,,,,,,,,,,,,,,
null,,color_black,1134026,,,black_plus_sign,,,,,null,,,,,,,,,,,,,,,,,,,,
null,,learn_phase(without_color),1137039,,,black_plus_sign,,,,,null,US_Cities_List/hotsprings.png,US_Cities_List/westpalmbeach.png,,,,,,,,,,,,,,,,,,
null,,black_cross(without_color),1137866,,,blue,,,,,null,US_Cities_List/hotsprings.png,US_Cities_List/westpalmbeach.png,,,,,,,,,,,,,,,,,,
null,,rt_plussign_withcolor,1138369,,,blue,,,,,null,US_Cities_List/hotsprings.png,US_Cities_List/westpalmbeach.png,,,,,,,,,,,,,,,,,,
1060,,rt_thecrossant_black,1139549,,,black_plus_sign,,,,,49,,,1,1,,,,,,,,,,,,,,,,
null,,color_black,1139651,,,black_plus_sign,,,,,null,,,,,,,,,,,,,,,,,,,,
null,,learn_phase(without_color),1142683,,,black_plus_sign,,,,,null,US_Cities_List/gatlinburg.png,US_Cities_List/cornwall.png,,,,,,,,,,,,,,,,,,
null,,black_cross(without_color),1143195,,,blue,,,,,null,US_Cities_List/gatlinburg.png,US_Cities_List/cornwall.png,,,,,,,,,,,,,,,,,,
null,,rt_plussign_withcolor,1143698,,,blue,,,,,null,US_Cities_List/gatlinburg.png,US_Cities_List/cornwall.png,,,,,,,,,,,,,,,,,,
1398.3999999761581,,rt_thecrossant_black,1145192,,,black_plus_sign,,,,,49,,,1,1,,,,,,,,,,,,,,,,
null,,color_black,1145295,,,black_plus_sign,,,,,null,,,,,,,,,,,,,,,,,,,,
null,,learn_phase(without_color),1148325,,,black_plus_sign,,,,,null,US_Cities_List/racine.png,US_Cities_List/peoria.png,,,,,,,,,,,,,,,,,,
null,,black_cross(without_color),1148927,,,yellow,,,,,null,US_Cities_List/racine.png,US_Cities_List/peoria.png,,,,,,,,,,,,,,,,,,
null,,rt_plussign_withcolor,1149429,,,yellow,,,,,null,US_Cities_List/racine.png,US_Cities_List/peoria.png,,,,,,,,,,,,,,,,,,
968.6999999880791,,rt_thecrossant_black,1150834,,,black_plus_sign,,,,,50,,,1,1,,,,,,,,,,,,,,,,
null,,color_black,1150937,,,black_plus_sign,,,,,null,,,,,,,,,,,,,,,,,,,,
null,,learn_phase(without_color),1153964,,,black_plus_sign,,,,,null,US_Cities_List/westpalmbeach.png,US_Cities_List/carmel.png,,,,,,,,,,,,,,,,,,
null,,black_cross(without_color),1154891,,,yellow,,,,,null,US_Cities_List/westpalmbeach.png,US_Cities_List/carmel.png,,,,,,,,,,,,,,,,,,
null,,rt_plussign_withcolor,1155393,,,yellow,,,,,null,US_Cities_List/westpalmbeach.png,US_Cities_List/carmel.png,,,,,,,,,,,,,,,,,,
1750.699999988079,,rt_thecrossant_black,1156472,,,black_plus_sign,,,,,50,,,1,1,,,,,,,,,,,,,,,,
null,,color_black,1156574,,,black_plus_sign,,,,,null,,,,,,,,,,,,,,,,,,,,
null,,learn_phase(without_color),1159587,,,black_plus_sign,,,,,null,US_Cities_List/hotsprings.png,US_Cities_List/peoria.png,,,,,,,,,,,,,,,,,,
null,,black_cross(without_color),1160558,,,yellow,,,,,null,US_Cities_List/hotsprings.png,US_Cities_List/peoria.png,,,,,,,,,,,,,,,,,,
null,,rt_plussign_withcolor,1161060,,,yellow,,,,,null,US_Cities_List/hotsprings.png,US_Cities_List/peoria.png,,,,,,,,,,,,,,,,,,
1465.1000000238419,,rt_thecrossant_black,1162094,,,black_plus_sign,,,,,50,,,1,1,,,,,,,,,,,,,,,,
null,,color_black,1162196,,,black_plus_sign,,,,,null,,,,,,,,,,,,,,,,,,,,
null,,learn_phase(without_color),1165212,,,black_plus_sign,,,,,null,US_Cities_List/westpalmbeach.png,US_Cities_List/cornwall.png,,,,,,,,,,,,,,,,,,
null,,black_cross(without_color),1165783,,,blue,,,,,null,US_Cities_List/westpalmbeach.png,US_Cities_List/cornwall.png,,,,,,,,,,,,,,,,,,
null,,rt_plussign_withcolor,1166285,,,blue,,,,,null,US_Cities_List/westpalmbeach.png,US_Cities_List/cornwall.png,,,,,,,,,,,,,,,,,,
1612.7999999523163,,rt_thecrossant_black,1167732,,,black_plus_sign,,,,,49,,,1,1,,,,,,,,,,,,,,,,
null,,color_black,1167835,,,black_plus_sign,,,,,null,,,,,,,,,,,,,,,,,,,,
null,,learn_break,1227840,,,learn_break,,,,,null,,,,,,,,,,,,,,,,,,,,
16003.799999952316,,intro_1,1243846,,,instruct,,,0,,,,,,,,,,,,,,,,,,,,,,
41070.89999997616,,intro_2,1284918,,,instruct,,,1,Next,,,,,,,,,,,,,,,,,,,,,
2153.300000011921,,directmemory_phase,1287087,,,../static/images/US_Cities_List/newhope.png,,,,,49,,,0,0,../static/images/US_Cities_List/gatlinburg.png,../static/images/US_Cities_List/hanover.png,../static/images/US_Cities_List/racine.png,../static/images/US_Cities_List/racine.png,../static/images/US_Cities_List/hanover.png,../static/images/US_Cities_List/gatlinburg.png,0.5,closer,,,,,,,,
null,,html-keyboard-response,1288096,,,<p></p>,,,,,null,,,,,,,,,,,,,,,,,,,,
1114.199999988079,,directmemory_phase,1289231,,,../static/images/US_Cities_List/cornwall.png,,,,,50,,,0,0,../static/images/US_Cities_List/racine.png,../static/images/US_Cities_List/peoria.png,../static/images/US_Cities_List/westpalmbeach.png,../static/images/US_Cities_List/westpalmbeach.png,../static/images/US_Cities_List/peoria.png,../static/images/US_Cities_List/racine.png,0.5,closer,,,,,,,,
null,,html-keyboard-response,1290235,,,<p></p>,,,,,null,,,,,,,,,,,,,,,,,,,,
1345.0999999642372,,directmemory_phase,1291598,,,../static/images/US_Cities_List/gatlinburg.png,,,,,49,,,0,0,../static/images/US_Cities_List/leesburg.png,../static/images/US_Cities_List/carmel.png,../static/images/US_Cities_List/peoria.png,../static/images/US_Cities_List/peoria.png,../static/images/US_Cities_List/carmel.png,../static/images/US_Cities_List/leesburg.png,0.5,closer,,,,,,,,
null,,html-keyboard-response,1292602,,,<p></p>,,,,,null,,,,,,,,,,,,,,,,,,,,
1680.0999999642372,,directmemory_phase,1294302,,,../static/images/US_Cities_List/hanover.png,,,,,51,,,1,0.25,../static/images/US_Cities_List/gatlinburg.png,../static/images/US_Cities_List/newhope.png,../static/images/US_Cities_List/racine.png,../static/images/US_Cities_List/racine.png,../static/images/US_Cities_List/newhope.png,../static/images/US_Cities_List/gatlinburg.png,1,,,,,,,,,
null,,html-keyboard-response,1295310,,,<p></p>,,,,,null,,,,,,,,,,,,,,,,,,,,
2155.5,,directmemory_phase,1297486,,,../static/images/US_Cities_List/leesburg.png,,,,,51,,,0,0.2,../static/images/US_Cities_List/newhope.png,../static/images/US_Cities_List/carmel.png,../static/images/US_Cities_List/peoria.png,../static/images/US_Cities_List/newhope.png,../static/images/US_Cities_List/peoria.png,../static/images/US_Cities_List/carmel.png,0.5,closer,,,,,,,,
null,,html-keyboard-response,1298491,,,<p></p>,,,,,null,,,,,,,,,,,,,,,,,,,,
2499.2000000476837,,directmemory_phase,1301007,,,../static/images/US_Cities_List/racine.png,,,,,51,,,0,0.16666666666666666,../static/images/US_Cities_List/peoria.png,../static/images/US_Cities_List/shreveport.png,../static/images/US_Cities_List/hotsprings.png,../static/images/US_Cities_List/peoria.png,../static/images/US_Cities_List/hotsprings.png,../static/images/US_Cities_List/shreveport.png,0.5,closer,,,,,,,,
null,,html-keyboard-response,1302014,,,<p></p>,,,,,null,,,,,,,,,,,,,,,,,,,,
2009,,directmemory_phase,1304047,,,../static/images/US_Cities_List/carmel.png,,,,,50,,,0,0.14285714285714285,../static/images/US_Cities_List/cornwall.png,../static/images/US_Cities_List/leesburg.png,../static/images/US_Cities_List/gatlinburg.png,../static/images/US_Cities_List/cornwall.png,../static/images/US_Cities_List/gatlinburg.png,../static/images/US_Cities_List/leesburg.png,0.5,closer,,,,,,,,
null,,html-keyboard-response,1305054,,,<p></p>,,,,,null,,,,,,,,,,,,,,,,,,,,
2228.600000023842,,directmemory_phase,1307294,,,../static/images/US_Cities_List/leesburg.png,,,,,49,,,1,0.25,../static/images/US_Cities_List/hotsprings.png,../static/images/US_Cities_List/boulder.png,../static/images/US_Cities_List/peoria.png,../static/images/US_Cities_List/hotsprings.png,../static/images/US_Cities_List/peoria.png,../static/images/US_Cities_List/boulder.png,1,,,,,,,,,
null,,html-keyboard-response,1308300,,,<p></p>,,,,,null,,,,,,,,,,,,,,,,,,,,
1811.199999988079,,directmemory_phase,1310127,,,../static/images/US_Cities_List/cornwall.png,,,,,49,,,0,0.2222222222222222,../static/images/US_Cities_List/hanover.png,../static/images/US_Cities_List/boulder.png,../static/images/US_Cities_List/carmel.png,../static/images/US_Cities_List/carmel.png,../static/images/US_Cities_List/boulder.png,../static/images/US_Cities_List/hanover.png,0.5,closer,,,,,,,,
null,,html-keyboard-response,1311133,,,<p></p>,,,,,null,,,,,,,,,,,,,,,,,,,,
2130.899999976158,,directmemory_phase,1313278,,,../static/images/US_Cities_List/newhope.png,,,,,51,,,0,0.2,../static/images/US_Cities_List/huntsville.png,../static/images/US_Cities_List/gatlinburg.png,../static/images/US_Cities_List/hotsprings.png,../static/images/US_Cities_List/huntsville.png,../static/images/US_Cities_List/hotsprings.png,../static/images/US_Cities_List/gatlinburg.png,0.5,closer,,,,,,,,
null,,html-keyboard-response,1314284,,,<p></p>,,,,,null,,,,,,,,,,,,,,,,,,,,
2435,,directmemory_phase,1316733,,,../static/images/US_Cities_List/carmel.png,,,,,50,,,0,0.18181818181818182,../static/images/US_Cities_List/westpalmbeach.png,../static/images/US_Cities_List/newhope.png,../static/images/US_Cities_List/shreveport.png,../static/images/US_Cities_List/westpalmbeach.png,../static/images/US_Cities_List/shreveport.png,../static/images/US_Cities_List/newhope.png,0.5,closer,,,,,,,,
null,,html-keyboard-response,1317736,,,<p></p>,,,,,null,,,,,,,,,,,,,,,,,,,,
2249.900000035763,,directmemory_phase,1319999,,,../static/images/US_Cities_List/peoria.png,,,,,49,,,0,0.16666666666666666,../static/images/US_Cities_List/huntsville.png,../static/images/US_Cities_List/hanover.png,../static/images/US_Cities_List/racine.png,../static/images/US_Cities_List/racine.png,../static/images/US_Cities_List/hanover.png,../static/images/US_Cities_List/huntsville.png,0.5,closer,,,,,,,,
null,,html-keyboard-response,1321005,,,<p></p>,,,,,null,,,,,,,,,,,,,,,,,,,,
2939.7000000476837,,directmemory_phase,1323983,,,../static/images/US_Cities_List/westpalmbeach.png,,,,,51,,,0,0.15384615384615385,../static/images/US_Cities_List/carmel.png,../static/images/US_Cities_List/racine.png,../static/images/US_Cities_List/leesburg.png,../static/images/US_Cities_List/carmel.png,../static/images/US_Cities_List/leesburg.png,../static/images/US_Cities_List/racine.png,0.5,closer,,,,,,,,
null,,html-keyboard-response,1324989,,,<p></p>,,,,,null,,,,,,,,,,,,,,,,,,,,
2624.699999988079,,directmemory_phase,1327630,,,../static/images/US_Cities_List/huntsville.png,,,,,51,,,1,0.21428571428571427,../static/images/US_Cities_List/hanover.png,../static/images/US_Cities_List/leesburg.png,../static/images/US_Cities_List/newhope.png,../static/images/US_Cities_List/newhope.png,../static/images/US_Cities_List/leesburg.png,../static/images/US_Cities_List/hanover.png,1,,,,,,,,,
null,,html-keyboard-response,1328636,,,<p></p>,,,,,null,,,,,,,,,,,,,,,,,,,,
3230.199999988079,,directmemory_phase,1331903,,,../static/images/US_Cities_List/peoria.png,,,,,50,,,0,0.2,../static/images/US_Cities_List/hotsprings.png,../static/images/US_Cities_List/shreveport.png,../static/images/US_Cities_List/westpalmbeach.png,../static/images/US_Cities_List/hotsprings.png,../static/images/US_Cities_List/westpalmbeach.png,../static/images/US_Cities_List/shreveport.png,0.5,closer,,,,,,,,
null,,html-keyboard-response,1332909,,,<p></p>,,,,,null,,,,,,,,,,,,,,,,,,,,
2057.400000035763,,directmemory_phase,1335007,,,../static/images/US_Cities_List/westpalmbeach.png,,,,,50,,,0,0.1875,../static/images/US_Cities_List/newhope.png,../static/images/US_Cities_List/boulder.png,../static/images/US_Cities_List/cornwall.png,../static/images/US_Cities_List/cornwall.png,../static/images/US_Cities_List/boulder.png,../static/images/US_Cities_List/newhope.png,0.5,closer,,,,,,,,
null,,html-keyboard-response,1336016,,,<p></p>,,,,,null,,,,,,,,,,,,,,,,,,,,
2775.699999988079,,directmemory_phase,1338831,,,../static/images/US_Cities_List/peoria.png,,,,,49,,,0,0.17647058823529413,../static/images/US_Cities_List/boulder.png,../static/images/US_Cities_List/newhope.png,../static/images/US_Cities_List/gatlinburg.png,../static/images/US_Cities_List/gatlinburg.png,../static/images/US_Cities_List/newhope.png,../static/images/US_Cities_List/boulder.png,0.5,closer,,,,,,,,
null,,html-keyboard-response,1339837,,,<p></p>,,,,,null,,,,,,,,,,,,,,,,,,,,
1802.5999999642372,,directmemory_phase,1341663,,,../static/images/US_Cities_List/boulder.png,,,,,49,,,0,0.16666666666666666,../static/images/US_Cities_List/westpalmbeach.png,../static/images/US_Cities_List/carmel.png,../static/images/US_Cities_List/shreveport.png,../static/images/US_Cities_List/carmel.png,../static/images/US_Cities_List/westpalmbeach.png,../static/images/US_Cities_List/shreveport.png,0.5,closer,,,,,,,,
null,,html-keyboard-response,1342671,,,<p></p>,,,,,null,,,,,,,,,,,,,,,,,,,,
2750.300000011921,,directmemory_phase,1345455,,,../static/images/US_Cities_List/westpalmbeach.png,,,,,50,,,0,0.15789473684210525,../static/images/US_Cities_List/racine.png,../static/images/US_Cities_List/peoria.png,../static/images/US_Cities_List/hotsprings.png,../static/images/US_Cities_List/hotsprings.png,../static/images/US_Cities_List/peoria.png,../static/images/US_Cities_List/racine.png,0.5,closer,,,,,,,,
null,,html-keyboard-response,1346460,,,<p></p>,,,,,null,,,,,,,,,,,,,,,,,,,,
2544,,directmemory_phase,1349022,,,../static/images/US_Cities_List/cornwall.png,,,,,49,,,1,0.2,../static/images/US_Cities_List/shreveport.png,../static/images/US_Cities_List/newhope.png,../static/images/US_Cities_List/hotsprings.png,../static/images/US_Cities_List/shreveport.png,../static/images/US_Cities_List/hotsprings.png,../static/images/US_Cities_List/newhope.png,1,,,,,,,,,
null,,html-keyboard-response,1350025,,,<p></p>,,,,,null,,,,,,,,,,,,,,,,,,,,
2270.900000035763,,directmemory_phase,1352318,,,../static/images/US_Cities_List/carmel.png,,,,,49,,,1,0.23809523809523808,../static/images/US_Cities_List/boulder.png,../static/images/US_Cities_List/leesburg.png,../static/images/US_Cities_List/gatlinburg.png,../static/images/US_Cities_List/boulder.png,../static/images/US_Cities_List/gatlinburg.png,../static/images/US_Cities_List/leesburg.png,1,,,,,,,,,
null,,html-keyboard-response,1353321,,,<p></p>,,,,,null,,,,,,,,,,,,,,,,,,,,
1921.1000000238419,,directmemory_phase,1355262,,,../static/images/US_Cities_List/gatlinburg.png,,,,,50,,,0,0.22727272727272727,../static/images/US_Cities_List/cornwall.png,../static/images/US_Cities_List/leesburg.png,../static/images/US_Cities_List/racine.png,../static/images/US_Cities_List/cornwall.png,../static/images/US_Cities_List/racine.png,../static/images/US_Cities_List/leesburg.png,0.5,closer,,,,,,,,
null,,html-keyboard-response,1356271,,,<p></p>,,,,,null,,,,,,,,,,,,,,,,,,,,
2797.899999976158,,directmemory_phase,1359086,,,../static/images/US_Cities_List/racine.png,,,,,50,,,0,0.21739130434782608,../static/images/US_Cities_List/shreveport.png,../static/images/US_Cities_List/hotsprings.png,../static/images/US_Cities_List/newhope.png,../static/images/US_Cities_List/newhope.png,../static/images/US_Cities_List/hotsprings.png,../static/images/US_Cities_List/shreveport.png,0.5,closer,,,,,,,,
null,,html-keyboard-response,1360090,,,<p></p>,,,,,null,,,,,,,,,,,,,,,,,,,,
3436.899999976158,,directmemory_phase,1363551,,,../static/images/US_Cities_List/cornwall.png,,,,,49,,,0,0.20833333333333334,../static/images/US_Cities_List/racine.png,../static/images/US_Cities_List/hotsprings.png,../static/images/US_Cities_List/gatlinburg.png,../static/images/US_Cities_List/gatlinburg.png,../static/images/US_Cities_List/hotsprings.png,../static/images/US_Cities_List/racine.png,0.5,closer,,,,,,,,
null,,html-keyboard-response,1364556,,,<p></p>,,,,,null,,,,,,,,,,,,,,,,,,,,
1913.1000000238419,,directmemory_phase,1366494,,,../static/images/US_Cities_List/hotsprings.png,,,,,49,,,1,0.24,../static/images/US_Cities_List/leesburg.png,../static/images/US_Cities_List/shreveport.png,../static/images/US_Cities_List/cornwall.png,../static/images/US_Cities_List/leesburg.png,../static/images/US_Cities_List/cornwall.png,../static/images/US_Cities_List/shreveport.png,1,,,,,,,,,
null,,html-keyboard-response,1367499,,,<p></p>,,,,,null,,,,,,,,,,,,,,,,,,,,
2578.600000023842,,directmemory_phase,1370095,,,../static/images/US_Cities_List/gatlinburg.png,,,,,51,,,1,0.2692307692307692,../static/images/US_Cities_List/hanover.png,../static/images/US_Cities_List/carmel.png,../static/images/US_Cities_List/westpalmbeach.png,../static/images/US_Cities_List/westpalmbeach.png,../static/images/US_Cities_List/carmel.png,../static/images/US_Cities_List/hanover.png,1,,,,,,,,,
null,,html-keyboard-response,1371101,,,<p></p>,,,,,null,,,,,,,,,,,,,,,,,,,,
2317.800000011921,,directmemory_phase,1373437,,,../static/images/US_Cities_List/shreveport.png,,,,,49,,,0,0.25925925925925924,../static/images/US_Cities_List/westpalmbeach.png,../static/images/US_Cities_List/cornwall.png,../static/images/US_Cities_List/boulder.png,../static/images/US_Cities_List/cornwall.png,../static/images/US_Cities_List/westpalmbeach.png,../static/images/US_Cities_List/boulder.png,0.5,closer,,,,,,,,
null,,html-keyboard-response,1374452,,,<p></p>,,,,,null,,,,,,,,,,,,,,,,,,,,
1976.7000000476837,,directmemory_phase,1376447,,,../static/images/US_Cities_List/hotsprings.png,,,,,49,,,0,0.25,../static/images/US_Cities_List/huntsville.png,../static/images/US_Cities_List/racine.png,../static/images/US_Cities_List/westpalmbeach.png,../static/images/US_Cities_List/westpalmbeach.png,../static/images/US_Cities_List/racine.png,../static/images/US_Cities_List/huntsville.png,0.5,closer,,,,,,,,
null,,html-keyboard-response,1377462,,,<p></p>,,,,,null,,,,,,,,,,,,,,,,,,,,
2211.600000023842,,directmemory_phase,1379694,,,../static/images/US_Cities_List/racine.png,,,,,51,,,1,0.27586206896551724,../static/images/US_Cities_List/westpalmbeach.png,../static/images/US_Cities_List/hotsprings.png,../static/images/US_Cities_List/hanover.png,../static/images/US_Cities_List/hanover.png,../static/images/US_Cities_List/hotsprings.png,../static/images/US_Cities_List/westpalmbeach.png,1,,,,,,,,,
null,,html-keyboard-response,1380696,,,<p></p>,,,,,null,,,,,,,,,,,,,,,,,,,,
2575.300000011921,,directmemory_phase,1383293,,,../static/images/US_Cities_List/westpalmbeach.png,,,,,50,,,0,0.26666666666666666,../static/images/US_Cities_List/racine.png,../static/images/US_Cities_List/shreveport.png,../static/images/US_Cities_List/gatlinburg.png,../static/images/US_Cities_List/gatlinburg.png,../static/images/US_Cities_List/shreveport.png,../static/images/US_Cities_List/racine.png,0.5,closer,,,,,,,,
null,,html-keyboard-response,1384298,,,<p></p>,,,,,null,,,,,,,,,,,,,,,,,,,,
1941.800000011921,,directmemory_phase,1386255,,,../static/images/US_Cities_List/hotsprings.png,,,,,50,,,0,0.25806451612903225,../static/images/US_Cities_List/peoria.png,../static/images/US_Cities_List/boulder.png,../static/images/US_Cities_List/newhope.png,../static/images/US_Cities_List/peoria.png,../static/images/US_Cities_List/newhope.png,../static/images/US_Cities_List/boulder.png,0.5,closer,,,,,,,,
null,,html-keyboard-response,1387262,,,<p></p>,,,,,null,,,,,,,,,,,,,,,,,,,,
2220.900000035763,,directmemory_phase,1389503,,,../static/images/US_Cities_List/newhope.png,,,,,51,,,0,0.25,../static/images/US_Cities_List/leesburg.png,../static/images/US_Cities_List/gatlinburg.png,../static/images/US_Cities_List/peoria.png,../static/images/US_Cities_List/leesburg.png,../static/images/US_Cities_List/peoria.png,../static/images/US_Cities_List/gatlinburg.png,0.5,closer,,,,,,,,
null,,html-keyboard-response,1390507,,,<p></p>,,,,,null,,,,,,,,,,,,,,,,,,,,
27432.69999998808,,intro_1,1417942,,,instruct,,,0,,,,,,,,,,,,,,,,,,,,,,
28206.30000001192,,intro_2,1446150,,,instruct,,,1,Next,,,,,,,,,,,,,,,,,,,,,
9031.5,,intro_3,1455183,,,instruct,,,1,Next,,,,,,,,,,,,,,,,,,,,,
13301.5,,intro_4,1468486,,,instruct,,,1,Next,,,,,,,,,,,,,,,,,,,,,
9766.5,,intro_5,1478254,,,instruct,,,1,Next,,,,,,,,,,,,,,,,,,,,,
7078.600000023842,,intro_6,1485334,,,instruct,,,1,Next,,,,,,,,,,,,,,,,,,,,,
7926.300000011921,,intro_7,1493261,,,instruct,,,1,Next,,,,,,,,,,,,,,,,,,,,,
15230.699999988079,,intro_8,1508494,,,instruct,,,1,Next,,,,,,,,,,,,,,,,,,,,,
14262.300000011921,,intro_9,1522757,,,instruct,,,1,Next,,,,,,,,,,,,,,,,,,,,,
13182.399999976158,,intro_10,1535941,,,instruct,,,1,Next,,,,,,,,,,,,,,,,,,,,,
24990.19999998808,,intro_11,1560934,,,instruct,,,1,Next,,,,,,,,,,,,,,,,,,,,,
1279.6000000238419,,shortestpath_phase,1562223,,,../static/images/US_Cities_List/huntsville.png,,,,,49,../static/images/US_Cities_List/shreveport.png,../static/images/US_Cities_List/leesburg.png,0,0,,,,../static/images/US_Cities_List/leesburg.png,,,,,Four Edge Diff,Two Edge Six Edge,,,,,,
null,,html-keyboard-response,1563230,,,<p></p>,,,,,null,,,,,,,,,,,,,,,,,,,,
1233.1000000238419,,shortestpath_phase,1564479,,,../static/images/US_Cities_List/cornwall.png,,,,,49,../static/images/US_Cities_List/racine.png,../static/images/US_Cities_List/hanover.png,1,0.5,,,,../static/images/US_Cities_List/racine.png,,,,,One Edge Diff,Three Edge Four Edge,,,,,,
null,,html-keyboard-response,1565483,,,<p></p>,,,,,null,,,,,,,,,,,,,,,,,,,,
1042.699999988079,,shortestpath_phase,1566558,,,../static/images/US_Cities_List/huntsville.png,,,,,49,../static/images/US_Cities_List/cornwall.png,../static/images/US_Cities_List/hanover.png,0,0.3333333333333333,,,,../static/images/US_Cities_List/hanover.png,,,,,Two Edge Diff,Three Edge Five Edge,,,,,,
null,,html-keyboard-response,1567561,,,<p></p>,,,,,null,,,,,,,,,,,,,,,,,,,,
999.3000000119209,,shortestpath_phase,1568575,,,../static/images/US_Cities_List/shreveport.png,,,,,50,../static/images/US_Cities_List/huntsville.png,../static/images/US_Cities_List/leesburg.png,1,0.5,,,,../static/images/US_Cities_List/leesburg.png,,,,,Two Edge Diff,Four Edge Six Edge,,,,,,
null,,html-keyboard-response,1569580,,,<p></p>,,,,,null,,,,,,,,,,,,,,,,,,,,
806.1000000238419,,shortestpath_phase,1570413,,,../static/images/US_Cities_List/huntsville.png,,,,,49,../static/images/US_Cities_List/cornwall.png,../static/images/US_Cities_List/shreveport.png,1,0.6,,,,../static/images/US_Cities_List/cornwall.png,,,,,One Edge Diff,Five Edge Six Edge,,,,,,
null,,html-keyboard-response,1571424,,,<p></p>,,,,,null,,,,,,,,,,,,,,,,,,,,
1218.9000000357628,,shortestpath_phase,1572655,,,../static/images/US_Cities_List/carmel.png,,,,,49,../static/images/US_Cities_List/gatlinburg.png,../static/images/US_Cities_List/hanover.png,1,0.6666666666666666,,,,../static/images/US_Cities_List/gatlinburg.png,,,,,Three Edge Diff,Three Edge Six Edge,,,,,,
null,,html-keyboard-response,1573660,,,<p></p>,,,,,null,,,,,,,,,,,,,,,,,,,,
1102.4000000357628,,shortestpath_phase,1574782,,,../static/images/US_Cities_List/cornwall.png,,,,,50,../static/images/US_Cities_List/leesburg.png,../static/images/US_Cities_List/newhope.png,0,0.5714285714285714,,,,../static/images/US_Cities_List/leesburg.png,,,,,One Edge Diff,Three Edge Four Edge,,,,,,
null,,html-keyboard-response,1575789,,,<p></p>,,,,,null,,,,,,,,,,,,,,,,,,,,
1235.5999999642372,,shortestpath_phase,1577054,,,../static/images/US_Cities_List/newhope.png,,,,,49,../static/images/US_Cities_List/boulder.png,../static/images/US_Cities_List/peoria.png,0,0.5,,,,../static/images/US_Cities_List/peoria.png,,,,,Three Edge Diff,Three Edge Six Edge,,,,,,
null,,html-keyboard-response,1578061,,,<p></p>,,,,,null,,,,,,,,,,,,,,,,,,,,
1396.4000000357628,,shortestpath_phase,1579469,,,../static/images/US_Cities_List/shreveport.png,,,,,50,../static/images/US_Cities_List/leesburg.png,../static/images/US_Cities_List/gatlinburg.png,1,0.5555555555555556,,,,../static/images/US_Cities_List/gatlinburg.png,,,,,Two Edge Diff,Two Edge Four Edge,,,,,,
null,,html-keyboard-response,1580472,,,<p></p>,,,,,null,,,,,,,,,,,,,,,,,,,,
919.1000000238419,,shortestpath_phase,1581406,,,../static/images/US_Cities_List/huntsville.png,,,,,49,../static/images/US_Cities_List/cornwall.png,../static/images/US_Cities_List/leesburg.png,0,0.5,,,,../static/images/US_Cities_List/leesburg.png,,,,,Three Edge Diff,Three Edge Six Edge,,,,,,
null,,html-keyboard-response,1582411,,,<p></p>,,,,,null,,,,,,,,,,,,,,,,,,,,
1060.8999999761581,,shortestpath_phase,1583487,,,../static/images/US_Cities_List/boulder.png,,,,,49,../static/images/US_Cities_List/cornwall.png,../static/images/US_Cities_List/hanover.png,1,0.5454545454545454,,,,../static/images/US_Cities_List/cornwall.png,,,,,Four Edge Diff,Two Edge Six Edge,,,,,,
null,,html-keyboard-response,1584493,,,<p></p>,,,,,null,,,,,,,,,,,,,,,,,,,,
1235.300000011921,,shortestpath_phase,1585743,,,../static/images/US_Cities_List/leesburg.png,,,,,49,../static/images/US_Cities_List/boulder.png,../static/images/US_Cities_List/carmel.png,0,0.5,,,,../static/images/US_Cities_List/carmel.png,,,,,One Edge Diff,Three Edge Four Edge,,,,,,
null,,html-keyboard-response,1586749,,,<p></p>,,,,,null,,,,,,,,,,,,,,,,,,,,
1139.1000000238419,,shortestpath_phase,1587903,,,../static/images/US_Cities_List/shreveport.png,,,,,49,../static/images/US_Cities_List/gatlinburg.png,../static/images/US_Cities_List/hanover.png,1,0.5384615384615384,,,,../static/images/US_Cities_List/gatlinburg.png,,,,,Three Edge Diff,Three Edge Six Edge,,,,,,
null,,html-keyboard-response,1588909,,,<p></p>,,,,,null,,,,,,,,,,,,,,,,,,,,
1348,,shortestpath_phase,1590271,,,../static/images/US_Cities_List/huntsville.png,,,,,50,../static/images/US_Cities_List/shreveport.png,../static/images/US_Cities_List/carmel.png,1,0.5714285714285714,,,,../static/images/US_Cities_List/carmel.png,,,,,One Edge Diff,Five Edge Six Edge,,,,,,
null,,html-keyboard-response,1591277,,,<p></p>,,,,,null,,,,,,,,,,,,,,,,,,,,
