rt,responses,trial_type,time_elapsed,stimulus,button_pressed,key_press,name_trial,city_type,rating,probe,probe_accuracy,response,correct,accuracy,problems,smooth,distraction,strategies,familiar,memorable,unique,realistic,similar,comments
15321,{worker_id:608437f0b139060610c9f0c1},id_enter,15324,,,,,,,,,,,,,,,,,,,,,
12532.299999952316,,fullscreen,27861,fullscreen,0,,,,,,,,,,,,,,,,,,,
7208.100000143051,,intro_0,35071,instruct,,32,,,,,,,,,,,,,,,,,,
9868,,intro_1,44940,instruct,,32,,,,,,,,,,,,,,,,,,
7059.900000095367,,intro_2,52001,instruct,,32,,,,,,,,,,,,,,,,,,
null,,instruct_dir_4,53503,instruct,,null,,,,,,,,,,,,,,,,,,
null,,thebreak,54004,break,,null,,,,,,,,,,,,,,,,,,
11299.399999856949,,familiar_rating,65304,US_Cities_List/nat_okoboji.png,,51,US_Cities_List/nat_okoboji.png,NAT,3,,,,,,,,,,,,,,,
null,,confidence_buffer,65407,confidence_buffer,,null,,,,,,,,,,,,,,,,,,
3662.100000143051,,probe_rating,69070,probe_rating,,50,,,,2,1,,,,,,,,,,,,,
null,,confidence_buffer,69172,confidence_buffer,,null,,,,,,,,,,,,,,,,,,
5844.599999904633,,unique_rating,75018,US_Cities_List/nat_okoboji.png,,51,,,3,,,,,,,,,,,,,,,
null,,confidence_buffer,75120,confidence_buffer,,null,,,,,,,,,,,,,,,,,,
3196,,memorable_rating,78317,US_Cities_List/nat_okoboji.png,,50,,,2,,,,,,,,,,,,,,,
null,,confidence_buffer,78419,confidence_buffer,,null,,,,,,,,,,,,,,,,,,
null,,thebreak,78921,break,,null,,,,,,,,,,,,,,,,,,
5820.700000047684,,familiar_rating,84743,Fictional_Cities_List/img_natural_22.png,,49,Fictional_Cities_List/img_natural_22.png,NAT,1,,,,,,,,,,,,,,,
null,,confidence_buffer,84844,confidence_buffer,,null,,,,,,,,,,,,,,,,,,
5327,,unique_rating,90172,Fictional_Cities_List/img_natural_22.png,,52,,,4,,,,,,,,,,,,,,,
null,,confidence_buffer,90274,confidence_buffer,,null,,,,,,,,,,,,,,,,,,
6523.299999952316,,memorable_rating,96799,Fictional_Cities_List/img_natural_22.png,,51,,,3,,,,,,,,,,,,,,,
null,,confidence_buffer,96900,confidence_buffer,,null,,,,,,,,,,,,,,,,,,
null,,thebreak,97402,break,,null,,,,,,,,,,,,,,,,,,
7726.299999952316,,familiar_rating,105130,Fictional_Cities_List/img_natural_07.png,,51,Fictional_Cities_List/img_natural_07.png,NAT,3,,,,,,,,,,,,,,,
null,,confidence_buffer,105231,confidence_buffer,,null,,,,,,,,,,,,,,,,,,
4262.699999809265,,unique_rating,109495,Fictional_Cities_List/img_natural_07.png,,50,,,2,,,,,,,,,,,,,,,
null,,confidence_buffer,109597,confidence_buffer,,null,,,,,,,,,,,,,,,,,,
3315.7999999523163,,probe_rating,112914,probe_rating,,49,,,,1,1,,,,,,,,,,,,,
null,,confidence_buffer,113016,confidence_buffer,,null,,,,,,,,,,,,,,,,,,
2955.600000143051,,memorable_rating,115973,Fictional_Cities_List/img_natural_07.png,,51,,,3,,,,,,,,,,,,,,,
null,,confidence_buffer,116074,confidence_buffer,,null,,,,,,,,,,,,,,,,,,
null,,thebreak,116575,break,,null,,,,,,,,,,,,,,,,,,
4515.900000095367,,familiar_rating,121092,US_Cities_List/nat_coeurdalene.png,,53,US_Cities_List/nat_coeurdalene.png,NAT,5,,,,,,,,,,,,,,,
null,,confidence_buffer,121194,confidence_buffer,,null,,,,,,,,,,,,,,,,,,
2651.5,,unique_rating,123847,US_Cities_List/nat_coeurdalene.png,,52,,,4,,,,,,,,,,,,,,,
null,,confidence_buffer,123949,confidence_buffer,,null,,,,,,,,,,,,,,,,,,
5090,,memorable_rating,129040,US_Cities_List/nat_coeurdalene.png,,52,,,4,,,,,,,,,,,,,,,
null,,confidence_buffer,129142,confidence_buffer,,null,,,,,,,,,,,,,,,,,,
null,,thebreak,129643,break,,null,,,,,,,,,,,,,,,,,,
3616.4000000953674,,familiar_rating,133260,US_Cities_List/mm_boulder.png,,49,US_Cities_List/mm_boulder.png,MM,1,,,,,,,,,,,,,,,
null,,confidence_buffer,133376,confidence_buffer,,null,,,,,,,,,,,,,,,,,,
3577.2000000476837,,unique_rating,136955,US_Cities_List/mm_boulder.png,,53,,,5,,,,,,,,,,,,,,,
null,,confidence_buffer,137057,confidence_buffer,,null,,,,,,,,,,,,,,,,,,
1901,,memorable_rating,138959,US_Cities_List/mm_boulder.png,,52,,,4,,,,,,,,,,,,,,,
null,,confidence_buffer,139070,confidence_buffer,,null,,,,,,,,,,,,,,,,,,
null,,thebreak,139572,break,,null,,,,,,,,,,,,,,,,,,
5712.100000143051,,familiar_rating,145285,US_Cities_List/nat_hilo.png,,49,US_Cities_List/nat_hilo.png,NAT,1,,,,,,,,,,,,,,,
null,,confidence_buffer,145388,confidence_buffer,,null,,,,,,,,,,,,,,,,,,
5855.400000095367,,unique_rating,151244,US_Cities_List/nat_hilo.png,,52,,,4,,,,,,,,,,,,,,,
null,,confidence_buffer,151346,confidence_buffer,,null,,,,,,,,,,,,,,,,,,
1927.5,,memorable_rating,153274,US_Cities_List/nat_hilo.png,,52,,,4,,,,,,,,,,,,,,,
null,,confidence_buffer,153376,confidence_buffer,,null,,,,,,,,,,,,,,,,,,
null,,thebreak,153878,break,,null,,,,,,,,,,,,,,,,,,
2571.9000000953674,,familiar_rating,156451,US_Cities_List/mm_abilene.png,,49,US_Cities_List/mm_abilene.png,MM,1,,,,,,,,,,,,,,,
null,,confidence_buffer,156554,confidence_buffer,,null,,,,,,,,,,,,,,,,,,
3105.100000143051,,unique_rating,159660,US_Cities_List/mm_abilene.png,,53,,,5,,,,,,,,,,,,,,,
null,,confidence_buffer,159762,confidence_buffer,,null,,,,,,,,,,,,,,,,,,
1677.7000000476837,,memorable_rating,161441,US_Cities_List/mm_abilene.png,,52,,,4,,,,,,,,,,,,,,,
null,,confidence_buffer,161543,confidence_buffer,,null,,,,,,,,,,,,,,,,,,
null,,thebreak,162046,break,,null,,,,,,,,,,,,,,,,,,
4345.099999904633,,familiar_rating,166392,Fictional_Cities_List/img_manmade_04.png,,49,Fictional_Cities_List/img_manmade_04.png,MM,1,,,,,,,,,,,,,,,
null,,confidence_buffer,166494,confidence_buffer,,null,,,,,,,,,,,,,,,,,,
5045.799999952316,,unique_rating,171541,Fictional_Cities_List/img_manmade_04.png,,49,,,1,,,,,,,,,,,,,,,
null,,confidence_buffer,171642,confidence_buffer,,null,,,,,,,,,,,,,,,,,,
1231.9000000953674,,memorable_rating,172875,Fictional_Cities_List/img_manmade_04.png,,49,,,1,,,,,,,,,,,,,,,
null,,confidence_buffer,172977,confidence_buffer,,null,,,,,,,,,,,,,,,,,,
2321.5999999046326,,probe_rating,175300,probe_rating,,49,,,,1,1,,,,,,,,,,,,,
null,,confidence_buffer,175403,confidence_buffer,,null,,,,,,,,,,,,,,,,,,
null,,thebreak,175905,break,,null,,,,,,,,,,,,,,,,,,
6581.299999952316,,familiar_rating,182487,US_Cities_List/nat_peoria.png,,52,US_Cities_List/nat_peoria.png,NAT,4,,,,,,,,,,,,,,,
null,,confidence_buffer,182588,confidence_buffer,,null,,,,,,,,,,,,,,,,,,
2825,,unique_rating,185414,US_Cities_List/nat_peoria.png,,51,,,3,,,,,,,,,,,,,,,
null,,confidence_buffer,185516,confidence_buffer,,null,,,,,,,,,,,,,,,,,,
1742.5,,memorable_rating,187260,US_Cities_List/nat_peoria.png,,51,,,3,,,,,,,,,,,,,,,
null,,confidence_buffer,187362,confidence_buffer,,null,,,,,,,,,,,,,,,,,,
null,,thebreak,187863,break,,null,,,,,,,,,,,,,,,,,,
3560.7999999523163,,familiar_rating,191425,US_Cities_List/mm_athens.png,,51,US_Cities_List/mm_athens.png,MM,3,,,,,,,,,,,,,,,
null,,confidence_buffer,191527,confidence_buffer,,null,,,,,,,,,,,,,,,,,,
1670.5999999046326,,unique_rating,193198,US_Cities_List/mm_athens.png,,50,,,2,,,,,,,,,,,,,,,
null,,confidence_buffer,193300,confidence_buffer,,null,,,,,,,,,,,,,,,,,,
4218.399999856949,,memorable_rating,197520,US_Cities_List/mm_athens.png,,51,,,3,,,,,,,,,,,,,,,
null,,confidence_buffer,197632,confidence_buffer,,null,,,,,,,,,,,,,,,,,,
null,,thebreak,198134,break,,null,,,,,,,,,,,,,,,,,,
6894.799999952316,,familiar_rating,205030,Fictional_Cities_List/img_manmade_10.png,,50,Fictional_Cities_List/img_manmade_10.png,MM,2,,,,,,,,,,,,,,,
null,,confidence_buffer,205131,confidence_buffer,,null,,,,,,,,,,,,,,,,,,
1978.0999999046326,,unique_rating,207111,Fictional_Cities_List/img_manmade_10.png,,49,,,1,,,,,,,,,,,,,,,
null,,confidence_buffer,207213,confidence_buffer,,null,,,,,,,,,,,,,,,,,,
2617.800000190735,,memorable_rating,209832,Fictional_Cities_List/img_manmade_10.png,,50,,,2,,,,,,,,,,,,,,,
null,,confidence_buffer,209934,confidence_buffer,,null,,,,,,,,,,,,,,,,,,
null,,thebreak,210436,break,,null,,,,,,,,,,,,,,,,,,
5992.299999952316,,familiar_rating,216429,US_Cities_List/nat_bisbee.png,,53,US_Cities_List/nat_bisbee.png,NAT,5,,,,,,,,,,,,,,,
null,,confidence_buffer,216531,confidence_buffer,,null,,,,,,,,,,,,,,,,,,
3820,,unique_rating,220352,US_Cities_List/nat_bisbee.png,,52,,,4,,,,,,,,,,,,,,,
null,,confidence_buffer,220455,confidence_buffer,,null,,,,,,,,,,,,,,,,,,
2780.5,,memorable_rating,223236,US_Cities_List/nat_bisbee.png,,52,,,4,,,,,,,,,,,,,,,
null,,confidence_buffer,223338,confidence_buffer,,null,,,,,,,,,,,,,,,,,,
null,,thebreak,223839,break,,null,,,,,,,,,,,,,,,,,,
3796.899999856949,,familiar_rating,227637,US_Cities_List/mm_delawarecity.png,,49,US_Cities_List/mm_delawarecity.png,MM,1,,,,,,,,,,,,,,,
null,,confidence_buffer,227739,confidence_buffer,,null,,,,,,,,,,,,,,,,,,
2720.699999809265,,unique_rating,230461,US_Cities_List/mm_delawarecity.png,,52,,,4,,,,,,,,,,,,,,,
null,,confidence_buffer,230563,confidence_buffer,,null,,,,,,,,,,,,,,,,,,
1233.5,,memorable_rating,231797,US_Cities_List/mm_delawarecity.png,,51,,,3,,,,,,,,,,,,,,,
null,,confidence_buffer,231900,confidence_buffer,,null,,,,,,,,,,,,,,,,,,
null,,thebreak,232401,break,,null,,,,,,,,,,,,,,,,,,
6027.5,,familiar_rating,238430,Fictional_Cities_List/img_manmade_26.png,,49,Fictional_Cities_List/img_manmade_26.png,MM,1,,,,,,,,,,,,,,,
null,,confidence_buffer,238531,confidence_buffer,,null,,,,,,,,,,,,,,,,,,
3719.100000143051,,unique_rating,242251,Fictional_Cities_List/img_manmade_26.png,,53,,,5,,,,,,,,,,,,,,,
null,,confidence_buffer,242353,confidence_buffer,,null,,,,,,,,,,,,,,,,,,
1837.6000001430511,,memorable_rating,244192,Fictional_Cities_List/img_manmade_26.png,,52,,,4,,,,,,,,,,,,,,,
null,,confidence_buffer,244294,confidence_buffer,,null,,,,,,,,,,,,,,,,,,
3097,,probe_rating,247392,probe_rating,,52,,,,4,1,,,,,,,,,,,,,
null,,confidence_buffer,247495,confidence_buffer,,null,,,,,,,,,,,,,,,,,,
null,,thebreak,247996,break,,null,,,,,,,,,,,,,,,,,,
3156.800000190735,,familiar_rating,251154,Fictional_Cities_List/img_natural_47.png,,49,Fictional_Cities_List/img_natural_47.png,NAT,1,,,,,,,,,,,,,,,
null,,confidence_buffer,251256,confidence_buffer,,null,,,,,,,,,,,,,,,,,,
1527.8000001907349,,unique_rating,252785,Fictional_Cities_List/img_natural_47.png,,50,,,2,,,,,,,,,,,,,,,
null,,confidence_buffer,252887,confidence_buffer,,null,,,,,,,,,,,,,,,,,,
1860.2999999523163,,memorable_rating,254749,Fictional_Cities_List/img_natural_47.png,,51,,,3,,,,,,,,,,,,,,,
null,,confidence_buffer,254852,confidence_buffer,,null,,,,,,,,,,,,,,,,,,
null,,thebreak,255353,break,,null,,,,,,,,,,,,,,,,,,
1919.3999998569489,,familiar_rating,257274,US_Cities_List/mm_bisbee.png,,49,US_Cities_List/mm_bisbee.png,MM,1,,,,,,,,,,,,,,,
null,,confidence_buffer,257376,confidence_buffer,,null,,,,,,,,,,,,,,,,,,
4252.799999952316,,unique_rating,261630,US_Cities_List/mm_bisbee.png,,52,,,4,,,,,,,,,,,,,,,
null,,confidence_buffer,261739,confidence_buffer,,null,,,,,,,,,,,,,,,,,,
1389.7000000476837,,memorable_rating,263130,US_Cities_List/mm_bisbee.png,,51,,,3,,,,,,,,,,,,,,,
null,,confidence_buffer,263233,confidence_buffer,,null,,,,,,,,,,,,,,,,,,
null,,thebreak,263735,break,,null,,,,,,,,,,,,,,,,,,
3243.2000000476837,,familiar_rating,266980,US_Cities_List/mm_hotsprings.png,,49,US_Cities_List/mm_hotsprings.png,MM,1,,,,,,,,,,,,,,,
null,,confidence_buffer,267083,confidence_buffer,,null,,,,,,,,,,,,,,,,,,
3171.2999999523163,,probe_rating,270255,probe_rating,,49,,,,1,1,,,,,,,,,,,,,
null,,confidence_buffer,270357,confidence_buffer,,null,,,,,,,,,,,,,,,,,,
5555.799999952316,,unique_rating,275914,US_Cities_List/mm_hotsprings.png,,51,,,3,,,,,,,,,,,,,,,
null,,confidence_buffer,276016,confidence_buffer,,null,,,,,,,,,,,,,,,,,,
4198.900000095367,,memorable_rating,280216,US_Cities_List/mm_hotsprings.png,,52,,,4,,,,,,,,,,,,,,,
null,,confidence_buffer,280319,confidence_buffer,,null,,,,,,,,,,,,,,,,,,
null,,thebreak,280821,break,,null,,,,,,,,,,,,,,,,,,
3701.399999856949,,familiar_rating,284523,Fictional_Cities_List/img_manmade_07.png,,50,Fictional_Cities_List/img_manmade_07.png,MM,2,,,,,,,,,,,,,,,
null,,confidence_buffer,284626,confidence_buffer,,null,,,,,,,,,,,,,,,,,,
2066.7999999523163,,unique_rating,286695,Fictional_Cities_List/img_manmade_07.png,,51,,,3,,,,,,,,,,,,,,,
null,,confidence_buffer,286797,confidence_buffer,,null,,,,,,,,,,,,,,,,,,
1933,,memorable_rating,288731,Fictional_Cities_List/img_manmade_07.png,,51,,,3,,,,,,,,,,,,,,,
null,,confidence_buffer,288834,confidence_buffer,,null,,,,,,,,,,,,,,,,,,
null,,thebreak,289335,break,,null,,,,,,,,,,,,,,,,,,
5800.700000047684,,familiar_rating,295137,Fictional_Cities_List/img_natural_39.png,,53,Fictional_Cities_List/img_natural_39.png,NAT,5,,,,,,,,,,,,,,,
null,,confidence_buffer,295239,confidence_buffer,,null,,,,,,,,,,,,,,,,,,
2264.5999999046326,,unique_rating,297505,Fictional_Cities_List/img_natural_39.png,,51,,,3,,,,,,,,,,,,,,,
null,,confidence_buffer,297606,confidence_buffer,,null,,,,,,,,,,,,,,,,,,
1555.0999999046326,,memorable_rating,299162,Fictional_Cities_List/img_natural_39.png,,52,,,4,,,,,,,,,,,,,,,
null,,confidence_buffer,299265,confidence_buffer,,null,,,,,,,,,,,,,,,,,,
null,,thebreak,299766,break,,null,,,,,,,,,,,,,,,,,,
3674.399999856949,,familiar_rating,303441,US_Cities_List/nat_cornwall.png,,49,US_Cities_List/nat_cornwall.png,NAT,1,,,,,,,,,,,,,,,
null,,confidence_buffer,303544,confidence_buffer,,null,,,,,,,,,,,,,,,,,,
2343,,unique_rating,305889,US_Cities_List/nat_cornwall.png,,51,,,3,,,,,,,,,,,,,,,
null,,confidence_buffer,305991,confidence_buffer,,null,,,,,,,,,,,,,,,,,,
1086,,memorable_rating,307078,US_Cities_List/nat_cornwall.png,,52,,,4,,,,,,,,,,,,,,,
null,,confidence_buffer,307180,confidence_buffer,,null,,,,,,,,,,,,,,,,,,
null,,thebreak,307681,break,,null,,,,,,,,,,,,,,,,,,
2047,,familiar_rating,309729,US_Cities_List/mm_peoria.png,,49,US_Cities_List/mm_peoria.png,MM,1,,,,,,,,,,,,,,,
null,,confidence_buffer,309831,confidence_buffer,,null,,,,,,,,,,,,,,,,,,
2822.5,,unique_rating,312655,US_Cities_List/mm_peoria.png,,52,,,4,,,,,,,,,,,,,,,
null,,confidence_buffer,312757,confidence_buffer,,null,,,,,,,,,,,,,,,,,,
685.5,,memorable_rating,313444,US_Cities_List/mm_peoria.png,,51,,,3,,,,,,,,,,,,,,,
null,,confidence_buffer,313546,confidence_buffer,,null,,,,,,,,,,,,,,,,,,
null,,thebreak,314048,break,,null,,,,,,,,,,,,,,,,,,
3652.7000000476837,,familiar_rating,317702,Fictional_Cities_List/img_manmade_42.png,,49,Fictional_Cities_List/img_manmade_42.png,MM,1,,,,,,,,,,,,,,,
null,,confidence_buffer,317805,confidence_buffer,,null,,,,,,,,,,,,,,,,,,
2036.8999998569489,,unique_rating,319842,Fictional_Cities_List/img_manmade_42.png,,51,,,3,,,,,,,,,,,,,,,
null,,confidence_buffer,319944,confidence_buffer,,null,,,,,,,,,,,,,,,,,,
4743.599999904633,,memorable_rating,324689,Fictional_Cities_List/img_manmade_42.png,,51,,,3,,,,,,,,,,,,,,,
null,,confidence_buffer,324794,confidence_buffer,,null,,,,,,,,,,,,,,,,,,
null,,thebreak,325296,break,,null,,,,,,,,,,,,,,,,,,
2893.2000000476837,,familiar_rating,328190,Fictional_Cities_List/img_manmade_17.png,,49,Fictional_Cities_List/img_manmade_17.png,MM,1,,,,,,,,,,,,,,,
null,,confidence_buffer,328292,confidence_buffer,,null,,,,,,,,,,,,,,,,,,
802.2000000476837,,unique_rating,329096,Fictional_Cities_List/img_manmade_17.png,,51,,,3,,,,,,,,,,,,,,,
null,,confidence_buffer,329198,confidence_buffer,,null,,,,,,,,,,,,,,,,,,
1831.5999999046326,,memorable_rating,331031,Fictional_Cities_List/img_manmade_17.png,,52,,,4,,,,,,,,,,,,,,,
null,,confidence_buffer,331147,confidence_buffer,,null,,,,,,,,,,,,,,,,,,
null,,thebreak,331649,break,,null,,,,,,,,,,,,,,,,,,
1911.8999998569489,,familiar_rating,333562,Fictional_Cities_List/img_manmade_08.png,,49,Fictional_Cities_List/img_manmade_08.png,MM,1,,,,,,,,,,,,,,,
null,,confidence_buffer,333666,confidence_buffer,,null,,,,,,,,,,,,,,,,,,
1544.7000000476837,,unique_rating,335211,Fictional_Cities_List/img_manmade_08.png,,51,,,3,,,,,,,,,,,,,,,
null,,confidence_buffer,335313,confidence_buffer,,null,,,,,,,,,,,,,,,,,,
1676.7999999523163,,memorable_rating,336991,Fictional_Cities_List/img_manmade_08.png,,52,,,4,,,,,,,,,,,,,,,
null,,confidence_buffer,337093,confidence_buffer,,null,,,,,,,,,,,,,,,,,,
null,,thebreak,337594,break,,null,,,,,,,,,,,,,,,,,,
1613.7999999523163,,familiar_rating,339209,Fictional_Cities_List/img_natural_27.png,,49,Fictional_Cities_List/img_natural_27.png,NAT,1,,,,,,,,,,,,,,,
null,,confidence_buffer,339314,confidence_buffer,,null,,,,,,,,,,,,,,,,,,
4909.600000143051,,unique_rating,344225,Fictional_Cities_List/img_natural_27.png,,51,,,3,,,,,,,,,,,,,,,
null,,confidence_buffer,344326,confidence_buffer,,null,,,,,,,,,,,,,,,,,,
3266.300000190735,,memorable_rating,347594,Fictional_Cities_List/img_natural_27.png,,50,,,2,,,,,,,,,,,,,,,
null,,confidence_buffer,347696,confidence_buffer,,null,,,,,,,,,,,,,,,,,,
null,,thebreak,348198,break,,null,,,,,,,,,,,,,,,,,,
2499.4000000953674,,familiar_rating,350698,Fictional_Cities_List/img_natural_20.png,,49,Fictional_Cities_List/img_natural_20.png,NAT,1,,,,,,,,,,,,,,,
null,,confidence_buffer,350811,confidence_buffer,,null,,,,,,,,,,,,,,,,,,
2958.7999999523163,,unique_rating,353771,Fictional_Cities_List/img_natural_20.png,,53,,,5,,,,,,,,,,,,,,,
null,,confidence_buffer,353873,confidence_buffer,,null,,,,,,,,,,,,,,,,,,
972.7999999523163,,memorable_rating,354847,Fictional_Cities_List/img_natural_20.png,,52,,,4,,,,,,,,,,,,,,,
null,,confidence_buffer,354949,confidence_buffer,,null,,,,,,,,,,,,,,,,,,
null,,thebreak,355450,break,,null,,,,,,,,,,,,,,,,,,
1608.0999999046326,,familiar_rating,357059,Fictional_Cities_List/img_natural_19.png,,49,Fictional_Cities_List/img_natural_19.png,NAT,1,,,,,,,,,,,,,,,
null,,confidence_buffer,357162,confidence_buffer,,null,,,,,,,,,,,,,,,,,,
1329.7999999523163,,unique_rating,358493,Fictional_Cities_List/img_natural_19.png,,52,,,4,,,,,,,,,,,,,,,
null,,confidence_buffer,358595,confidence_buffer,,null,,,,,,,,,,,,,,,,,,
1109.2000000476837,,memorable_rating,359706,Fictional_Cities_List/img_natural_19.png,,53,,,5,,,,,,,,,,,,,,,
null,,confidence_buffer,359808,confidence_buffer,,null,,,,,,,,,,,,,,,,,,
null,,thebreak,360322,break,,null,,,,,,,,,,,,,,,,,,
1398.8999998569489,,familiar_rating,361722,US_Cities_List/mm_carmel.png,,49,US_Cities_List/mm_carmel.png,MM,1,,,,,,,,,,,,,,,
null,,confidence_buffer,361825,confidence_buffer,,null,,,,,,,,,,,,,,,,,,
3408.2000000476837,,unique_rating,365234,US_Cities_List/mm_carmel.png,,52,,,4,,,,,,,,,,,,,,,
null,,confidence_buffer,365336,confidence_buffer,,null,,,,,,,,,,,,,,,,,,
1426.0999999046326,,memorable_rating,366764,US_Cities_List/mm_carmel.png,,51,,,3,,,,,,,,,,,,,,,
null,,confidence_buffer,366865,confidence_buffer,,null,,,,,,,,,,,,,,,,,,
null,,thebreak,367366,break,,null,,,,,,,,,,,,,,,,,,
3016.600000143051,,familiar_rating,370384,US_Cities_List/nat_delawarecity.png,,50,US_Cities_List/nat_delawarecity.png,NAT,2,,,,,,,,,,,,,,,
null,,confidence_buffer,370486,confidence_buffer,,null,,,,,,,,,,,,,,,,,,
3418.2000000476837,,unique_rating,373906,US_Cities_List/nat_delawarecity.png,,51,,,3,,,,,,,,,,,,,,,
null,,confidence_buffer,374008,confidence_buffer,,null,,,,,,,,,,,,,,,,,,
1477.8999998569489,,memorable_rating,375487,US_Cities_List/nat_delawarecity.png,,51,,,3,,,,,,,,,,,,,,,
null,,confidence_buffer,375588,confidence_buffer,,null,,,,,,,,,,,,,,,,,,
null,,thebreak,376090,break,,null,,,,,,,,,,,,,,,,,,
3334.9000000953674,,familiar_rating,379425,Fictional_Cities_List/img_natural_08.png,,50,Fictional_Cities_List/img_natural_08.png,NAT,2,,,,,,,,,,,,,,,
null,,confidence_buffer,379529,confidence_buffer,,null,,,,,,,,,,,,,,,,,,
1952,,unique_rating,381482,Fictional_Cities_List/img_natural_08.png,,51,,,3,,,,,,,,,,,,,,,
null,,confidence_buffer,381583,confidence_buffer,,null,,,,,,,,,,,,,,,,,,
1272.4000000953674,,memorable_rating,382857,Fictional_Cities_List/img_natural_08.png,,51,,,3,,,,,,,,,,,,,,,
null,,confidence_buffer,382959,confidence_buffer,,null,,,,,,,,,,,,,,,,,,
null,,thebreak,383460,break,,null,,,,,,,,,,,,,,,,,,
6646.700000047684,,intro_0,390107,instruct,,32,,,,,,,,,,,,,,,,,,
13172,,intro_1,403280,instruct,,32,,,,,,,,,,,,,,,,,,
24609.5,,intro_2,427890,instruct,,32,,,,,,,,,,,,,,,,,,
null,,instruct_dir_4,429392,instruct,,null,,,,,,,,,,,,,,,,,,
13303.800000190735,,pt2_realistic_rating,442697,Fictional_Cities_List/img_natural_42.png,,50,Fictional_Cities_List/img_natural_42.png,NAT,2,,,,,,,,,,,,,,,
null,,confidence_buffer,442800,confidence_buffer,,null,,,,,,,,,,,,,,,,,,
3754,,pt2_unique_rating,446555,Fictional_Cities_List/img_natural_42.png,,50,,,2,,,,,,,,,,,,,,,
null,,confidence_buffer,446657,confidence_buffer,,null,,,,,,,,,,,,,,,,,,
4209,,probe_rating,450867,probe_rating,,52,,,,4,1,,,,,,,,,,,,,
null,,confidence_buffer,450969,confidence_buffer,,null,,,,,,,,,,,,,,,,,,
3146.5,,pt2_memorable_rating,454117,Fictional_Cities_List/img_natural_42.png,,51,,,3,,,,,,,,,,,,,,,
null,,confidence_buffer,454219,confidence_buffer,,null,,,,,,,,,,,,,,,,,,
5100.300000190735,,recognition_phase,459320,Fictional_Cities_List/img_natural_42.png,,52,,,,,,new,1,1,,,,,,,,,,
null,,confidence_buffer,459423,confidence_buffer,,null,,,,,,,,,,,,,,,,,,
null,,thebreak,459925,break,,null,,,,,,,,,,,,,,,,,,
4974.900000095367,,pt2_realistic_rating,464901,US_Cities_List/mm_okoboji.png,,49,US_Cities_List/mm_okoboji.png,MM,1,,,,,,,,,,,,,,,
null,,confidence_buffer,465010,confidence_buffer,,null,,,,,,,,,,,,,,,,,,
3422.100000143051,,pt2_unique_rating,468434,US_Cities_List/mm_okoboji.png,,51,,,3,,,,,,,,,,,,,,,
null,,confidence_buffer,468536,confidence_buffer,,null,,,,,,,,,,,,,,,,,,
1370.9000000953674,,pt2_memorable_rating,469908,US_Cities_List/mm_okoboji.png,,50,,,2,,,,,,,,,,,,,,,
null,,confidence_buffer,470011,confidence_buffer,,null,,,,,,,,,,,,,,,,,,
4251.399999856949,,recognition_phase,474263,US_Cities_List/mm_okoboji.png,,52,,,,,,new,1,1,,,,,,,,,,
null,,confidence_buffer,474366,confidence_buffer,,null,,,,,,,,,,,,,,,,,,
null,,thebreak,474867,break,,null,,,,,,,,,,,,,,,,,,
6769,,pt2_realistic_rating,481637,US_Cities_List/mm_coeurdalene.png,,50,US_Cities_List/mm_coeurdalene.png,MM,2,,,,,,,,,,,,,,,
null,,confidence_buffer,481739,confidence_buffer,,null,,,,,,,,,,,,,,,,,,
1658.6000001430511,,pt2_unique_rating,483398,US_Cities_List/mm_coeurdalene.png,,49,,,1,,,,,,,,,,,,,,,
null,,confidence_buffer,483501,confidence_buffer,,null,,,,,,,,,,,,,,,,,,
3992.4000000953674,,pt2_memorable_rating,487495,US_Cities_List/mm_coeurdalene.png,,49,,,1,,,,,,,,,,,,,,,
null,,confidence_buffer,487597,confidence_buffer,,null,,,,,,,,,,,,,,,,,,
2402.0999999046326,,recognition_phase,490000,US_Cities_List/mm_coeurdalene.png,,49,,,,,,old,0,0.6666666666666666,,,,,,,,,,
null,,confidence_buffer,490103,confidence_buffer,,null,,,,,,,,,,,,,,,,,,
null,,thebreak,490605,break,,null,,,,,,,,,,,,,,,,,,
4270.899999856949,,pt2_realistic_rating,494877,Fictional_Cities_List/img_manmade_04.png,,49,Fictional_Cities_List/img_manmade_04.png,MM,1,,,,,,,,,,,,,,,
null,,confidence_buffer,494979,confidence_buffer,,null,,,,,,,,,,,,,,,,,,
891.5,,pt2_unique_rating,495872,Fictional_Cities_List/img_manmade_04.png,,49,,,1,,,,,,,,,,,,,,,
null,,confidence_buffer,495974,confidence_buffer,,null,,,,,,,,,,,,,,,,,,
1140.5,,pt2_memorable_rating,497115,Fictional_Cities_List/img_manmade_04.png,,49,,,1,,,,,,,,,,,,,,,
null,,confidence_buffer,497217,confidence_buffer,,null,,,,,,,,,,,,,,,,,,
2458.199999809265,,recognition_phase,499676,Fictional_Cities_List/img_manmade_04.png,,49,,,,,,old,1,0.75,,,,,,,,,,
null,,confidence_buffer,499779,confidence_buffer,,null,,,,,,,,,,,,,,,,,,
null,,thebreak,500280,break,,null,,,,,,,,,,,,,,,,,,
3389.2000000476837,,pt2_realistic_rating,503670,US_Cities_List/mm_peoria.png,,49,US_Cities_List/mm_peoria.png,MM,1,,,,,,,,,,,,,,,
null,,confidence_buffer,503773,confidence_buffer,,null,,,,,,,,,,,,,,,,,,
1144.9000000953674,,pt2_unique_rating,504919,US_Cities_List/mm_peoria.png,,49,,,1,,,,,,,,,,,,,,,
null,,confidence_buffer,505021,confidence_buffer,,null,,,,,,,,,,,,,,,,,,
607.0999999046326,,pt2_memorable_rating,505629,US_Cities_List/mm_peoria.png,,49,,,1,,,,,,,,,,,,,,,
null,,confidence_buffer,505731,confidence_buffer,,null,,,,,,,,,,,,,,,,,,
1019.5,,recognition_phase,506752,US_Cities_List/mm_peoria.png,,49,,,,,,old,1,0.8,,,,,,,,,,
null,,confidence_buffer,506859,confidence_buffer,,null,,,,,,,,,,,,,,,,,,
null,,thebreak,507361,break,,null,,,,,,,,,,,,,,,,,,
5988.700000047684,,pt2_realistic_rating,513350,Fictional_Cities_List/img_manmade_39.png,,52,Fictional_Cities_List/img_manmade_39.png,MM,4,,,,,,,,,,,,,,,
null,,confidence_buffer,513453,confidence_buffer,,null,,,,,,,,,,,,,,,,,,
2514.5,,pt2_unique_rating,515968,Fictional_Cities_List/img_manmade_39.png,,51,,,3,,,,,,,,,,,,,,,
null,,confidence_buffer,516071,confidence_buffer,,null,,,,,,,,,,,,,,,,,,
3002.399999856949,,pt2_memorable_rating,519074,Fictional_Cities_List/img_manmade_39.png,,52,,,4,,,,,,,,,,,,,,,
null,,confidence_buffer,519176,confidence_buffer,,null,,,,,,,,,,,,,,,,,,
5345.599999904633,,recognition_phase,524523,Fictional_Cities_List/img_manmade_39.png,,52,,,,,,new,1,0.8333333333333334,,,,,,,,,,
null,,confidence_buffer,524625,confidence_buffer,,null,,,,,,,,,,,,,,,,,,
null,,thebreak,525127,break,,null,,,,,,,,,,,,,,,,,,
3497,,pt2_realistic_rating,528625,US_Cities_List/mm_bisbee.png,,50,US_Cities_List/mm_bisbee.png,MM,2,,,,,,,,,,,,,,,
null,,confidence_buffer,528728,confidence_buffer,,null,,,,,,,,,,,,,,,,,,
743.2999999523163,,pt2_unique_rating,529472,US_Cities_List/mm_bisbee.png,,51,,,3,,,,,,,,,,,,,,,
null,,confidence_buffer,529574,confidence_buffer,,null,,,,,,,,,,,,,,,,,,
3645.9000000953674,,pt2_memorable_rating,533221,US_Cities_List/mm_bisbee.png,,52,,,4,,,,,,,,,,,,,,,
null,,confidence_buffer,533323,confidence_buffer,,null,,,,,,,,,,,,,,,,,,
3998.0999999046326,,recognition_phase,537323,US_Cities_List/mm_bisbee.png,,50,,,,,,old,1,0.8571428571428571,,,,,,,,,,
null,,confidence_buffer,537425,confidence_buffer,,null,,,,,,,,,,,,,,,,,,
null,,thebreak,537927,break,,null,,,,,,,,,,,,,,,,,,
3335,,pt2_realistic_rating,541262,US_Cities_List/mm_abilene.png,,50,US_Cities_List/mm_abilene.png,MM,2,,,,,,,,,,,,,,,
null,,confidence_buffer,541364,confidence_buffer,,null,,,,,,,,,,,,,,,,,,
862.3999998569489,,pt2_unique_rating,542228,US_Cities_List/mm_abilene.png,,52,,,4,,,,,,,,,,,,,,,
null,,confidence_buffer,542330,confidence_buffer,,null,,,,,,,,,,,,,,,,,,
909.4000000953674,,pt2_memorable_rating,543240,US_Cities_List/mm_abilene.png,,51,,,3,,,,,,,,,,,,,,,
null,,confidence_buffer,543358,confidence_buffer,,null,,,,,,,,,,,,,,,,,,
2790.399999856949,,recognition_phase,546149,US_Cities_List/mm_abilene.png,,49,,,,,,old,1,0.875,,,,,,,,,,
null,,confidence_buffer,546251,confidence_buffer,,null,,,,,,,,,,,,,,,,,,
null,,thebreak,546753,break,,null,,,,,,,,,,,,,,,,,,
3584.9000000953674,,pt2_realistic_rating,550339,Fictional_Cities_List/img_manmade_07.png,,50,Fictional_Cities_List/img_manmade_07.png,MM,2,,,,,,,,,,,,,,,
null,,confidence_buffer,550450,confidence_buffer,,null,,,,,,,,,,,,,,,,,,
388,,pt2_unique_rating,550840,Fictional_Cities_List/img_manmade_07.png,,51,,,3,,,,,,,,,,,,,,,
null,,confidence_buffer,550943,confidence_buffer,,null,,,,,,,,,,,,,,,,,,
477.09999990463257,,pt2_memorable_rating,551421,Fictional_Cities_List/img_manmade_07.png,,50,,,2,,,,,,,,,,,,,,,
null,,confidence_buffer,551522,confidence_buffer,,null,,,,,,,,,,,,,,,,,,
790.1999998092651,,recognition_phase,552314,Fictional_Cities_List/img_manmade_07.png,,49,,,,,,old,1,0.8888888888888888,,,,,,,,,,
null,,confidence_buffer,552415,confidence_buffer,,null,,,,,,,,,,,,,,,,,,
null,,thebreak,552921,break,,null,,,,,,,,,,,,,,,,,,
3491.4000000953674,,pt2_realistic_rating,556414,Fictional_Cities_List/img_natural_17.png,,51,Fictional_Cities_List/img_natural_17.png,NAT,3,,,,,,,,,,,,,,,
null,,confidence_buffer,556515,confidence_buffer,,null,,,,,,,,,,,,,,,,,,
1267,,pt2_unique_rating,557784,Fictional_Cities_List/img_natural_17.png,,51,,,3,,,,,,,,,,,,,,,
null,,confidence_buffer,557886,confidence_buffer,,null,,,,,,,,,,,,,,,,,,
812.7999999523163,,pt2_memorable_rating,558700,Fictional_Cities_List/img_natural_17.png,,50,,,2,,,,,,,,,,,,,,,
null,,confidence_buffer,558803,confidence_buffer,,null,,,,,,,,,,,,,,,,,,
3246.0999999046326,,recognition_phase,562050,Fictional_Cities_List/img_natural_17.png,,50,,,,,,old,0,0.8,,,,,,,,,,
null,,confidence_buffer,562151,confidence_buffer,,null,,,,,,,,,,,,,,,,,,
null,,thebreak,562653,break,,null,,,,,,,,,,,,,,,,,,
3894,,pt2_realistic_rating,566548,Fictional_Cities_List/img_natural_19.png,,49,Fictional_Cities_List/img_natural_19.png,NAT,1,,,,,,,,,,,,,,,
null,,confidence_buffer,566651,confidence_buffer,,null,,,,,,,,,,,,,,,,,,
997.1999998092651,,pt2_unique_rating,567650,Fictional_Cities_List/img_natural_19.png,,50,,,2,,,,,,,,,,,,,,,
null,,confidence_buffer,567752,confidence_buffer,,null,,,,,,,,,,,,,,,,,,
2095.5,,pt2_memorable_rating,569848,Fictional_Cities_List/img_natural_19.png,,51,,,3,,,,,,,,,,,,,,,
null,,confidence_buffer,569950,confidence_buffer,,null,,,,,,,,,,,,,,,,,,
1337.1999998092651,,recognition_phase,571289,Fictional_Cities_List/img_natural_19.png,,49,,,,,,old,1,0.8181818181818182,,,,,,,,,,
null,,confidence_buffer,571391,confidence_buffer,,null,,,,,,,,,,,,,,,,,,
null,,thebreak,571893,break,,null,,,,,,,,,,,,,,,,,,
2938.600000143051,,pt2_realistic_rating,574832,US_Cities_List/nat_cornwall.png,,51,US_Cities_List/nat_cornwall.png,NAT,3,,,,,,,,,,,,,,,
null,,confidence_buffer,574935,confidence_buffer,,null,,,,,,,,,,,,,,,,,,
807.2999999523163,,pt2_unique_rating,575744,US_Cities_List/nat_cornwall.png,,50,,,2,,,,,,,,,,,,,,,
null,,confidence_buffer,575845,confidence_buffer,,null,,,,,,,,,,,,,,,,,,
1352.5,,pt2_memorable_rating,577199,US_Cities_List/nat_cornwall.png,,50,,,2,,,,,,,,,,,,,,,
null,,confidence_buffer,577301,confidence_buffer,,null,,,,,,,,,,,,,,,,,,
4232.200000047684,,recognition_phase,581535,US_Cities_List/nat_cornwall.png,,51,,,,,,new,0,0.75,,,,,,,,,,
null,,confidence_buffer,581637,confidence_buffer,,null,,,,,,,,,,,,,,,,,,
null,,thebreak,582139,break,,null,,,,,,,,,,,,,,,,,,
3760.800000190735,,pt2_realistic_rating,585902,Fictional_Cities_List/img_manmade_17.png,,49,Fictional_Cities_List/img_manmade_17.png,MM,1,,,,,,,,,,,,,,,
null,,confidence_buffer,586004,confidence_buffer,,null,,,,,,,,,,,,,,,,,,
1078.3000001907349,,pt2_unique_rating,587083,Fictional_Cities_List/img_manmade_17.png,,49,,,1,,,,,,,,,,,,,,,
null,,confidence_buffer,587186,confidence_buffer,,null,,,,,,,,,,,,,,,,,,
428.10000014305115,,pt2_memorable_rating,587615,Fictional_Cities_List/img_manmade_17.png,,50,,,2,,,,,,,,,,,,,,,
null,,confidence_buffer,587717,confidence_buffer,,null,,,,,,,,,,,,,,,,,,
1710,,recognition_phase,589428,Fictional_Cities_List/img_manmade_17.png,,49,,,,,,old,1,0.7692307692307693,,,,,,,,,,
null,,confidence_buffer,589530,confidence_buffer,,null,,,,,,,,,,,,,,,,,,
null,,thebreak,590031,break,,null,,,,,,,,,,,,,,,,,,
4088.0999999046326,,pt2_realistic_rating,594120,US_Cities_List/mm_hilo.png,,51,US_Cities_List/mm_hilo.png,MM,3,,,,,,,,,,,,,,,
null,,confidence_buffer,594222,confidence_buffer,,null,,,,,,,,,,,,,,,,,,
1068,,pt2_unique_rating,595291,US_Cities_List/mm_hilo.png,,50,,,2,,,,,,,,,,,,,,,
null,,confidence_buffer,595393,confidence_buffer,,null,,,,,,,,,,,,,,,,,,
847.9000000953674,,pt2_memorable_rating,596242,US_Cities_List/mm_hilo.png,,51,,,3,,,,,,,,,,,,,,,
null,,confidence_buffer,596345,confidence_buffer,,null,,,,,,,,,,,,,,,,,,
2837.5,,recognition_phase,599183,US_Cities_List/mm_hilo.png,,52,,,,,,new,1,0.7857142857142857,,,,,,,,,,
null,,confidence_buffer,599285,confidence_buffer,,null,,,,,,,,,,,,,,,,,,
null,,thebreak,599788,break,,null,,,,,,,,,,,,,,,,,,
1912.2999999523163,,pt2_realistic_rating,601701,US_Cities_List/nat_bisbee.png,,50,US_Cities_List/nat_bisbee.png,NAT,2,,,,,,,,,,,,,,,
null,,confidence_buffer,601803,confidence_buffer,,null,,,,,,,,,,,,,,,,,,
692.9000000953674,,pt2_unique_rating,602498,US_Cities_List/nat_bisbee.png,,50,,,2,,,,,,,,,,,,,,,
null,,confidence_buffer,602600,confidence_buffer,,null,,,,,,,,,,,,,,,,,,
739.0999999046326,,pt2_memorable_rating,603340,US_Cities_List/nat_bisbee.png,,51,,,3,,,,,,,,,,,,,,,
null,,confidence_buffer,603443,confidence_buffer,,null,,,,,,,,,,,,,,,,,,
2759.899999856949,,recognition_phase,606205,US_Cities_List/nat_bisbee.png,,49,,,,,,old,1,0.8,,,,,,,,,,
null,,confidence_buffer,606307,confidence_buffer,,null,,,,,,,,,,,,,,,,,,
null,,thebreak,606814,break,,null,,,,,,,,,,,,,,,,,,
2418,,pt2_realistic_rating,609234,US_Cities_List/nat_delawarecity.png,,51,US_Cities_List/nat_delawarecity.png,NAT,3,,,,,,,,,,,,,,,
null,,confidence_buffer,609336,confidence_buffer,,null,,,,,,,,,,,,,,,,,,
1431.5999999046326,,pt2_unique_rating,610769,US_Cities_List/nat_delawarecity.png,,50,,,2,,,,,,,,,,,,,,,
null,,confidence_buffer,610872,confidence_buffer,,null,,,,,,,,,,,,,,,,,,
812,,pt2_memorable_rating,611685,US_Cities_List/nat_delawarecity.png,,50,,,2,,,,,,,,,,,,,,,
null,,confidence_buffer,611787,confidence_buffer,,null,,,,,,,,,,,,,,,,,,
1954.5999999046326,,recognition_phase,613743,US_Cities_List/nat_delawarecity.png,,49,,,,,,old,1,0.8125,,,,,,,,,,
null,,confidence_buffer,613845,confidence_buffer,,null,,,,,,,,,,,,,,,,,,
null,,thebreak,614347,break,,null,,,,,,,,,,,,,,,,,,
3247.5999999046326,,pt2_realistic_rating,617595,Fictional_Cities_List/img_manmade_26.png,,50,Fictional_Cities_List/img_manmade_26.png,MM,2,,,,,,,,,,,,,,,
null,,confidence_buffer,617698,confidence_buffer,,null,,,,,,,,,,,,,,,,,,
1547.2000000476837,,pt2_unique_rating,619246,Fictional_Cities_List/img_manmade_26.png,,51,,,3,,,,,,,,,,,,,,,
null,,confidence_buffer,619349,confidence_buffer,,null,,,,,,,,,,,,,,,,,,
1731.2000000476837,,pt2_memorable_rating,621081,Fictional_Cities_List/img_manmade_26.png,,50,,,2,,,,,,,,,,,,,,,
null,,confidence_buffer,621183,confidence_buffer,,null,,,,,,,,,,,,,,,,,,
2674.0999999046326,,recognition_phase,623858,Fictional_Cities_List/img_manmade_26.png,,50,,,,,,old,1,0.8235294117647058,,,,,,,,,,
null,,confidence_buffer,623960,confidence_buffer,,null,,,,,,,,,,,,,,,,,,
null,,thebreak,624462,break,,null,,,,,,,,,,,,,,,,,,
3177,,pt2_realistic_rating,627640,US_Cities_List/mm_sitka.png,,50,US_Cities_List/mm_sitka.png,MM,2,,,,,,,,,,,,,,,
null,,confidence_buffer,627751,confidence_buffer,,null,,,,,,,,,,,,,,,,,,
586.1999998092651,,pt2_unique_rating,628339,US_Cities_List/mm_sitka.png,,51,,,3,,,,,,,,,,,,,,,
null,,confidence_buffer,628448,confidence_buffer,,null,,,,,,,,,,,,,,,,,,
837.3999998569489,,pt2_memorable_rating,629286,US_Cities_List/mm_sitka.png,,50,,,2,,,,,,,,,,,,,,,
null,,confidence_buffer,629388,confidence_buffer,,null,,,,,,,,,,,,,,,,,,
4777.700000047684,,recognition_phase,634167,US_Cities_List/mm_sitka.png,,52,,,,,,new,1,0.8333333333333334,,,,,,,,,,
null,,confidence_buffer,634269,confidence_buffer,,null,,,,,,,,,,,,,,,,,,
null,,thebreak,634770,break,,null,,,,,,,,,,,,,,,,,,
3913,,pt2_realistic_rating,638684,Fictional_Cities_List/img_manmade_25.png,,49,Fictional_Cities_List/img_manmade_25.png,MM,1,,,,,,,,,,,,,,,
null,,confidence_buffer,638787,confidence_buffer,,null,,,,,,,,,,,,,,,,,,
1233.8999998569489,,pt2_unique_rating,640022,Fictional_Cities_List/img_manmade_25.png,,50,,,2,,,,,,,,,,,,,,,
null,,confidence_buffer,640123,confidence_buffer,,null,,,,,,,,,,,,,,,,,,
846.5,,pt2_memorable_rating,640971,Fictional_Cities_List/img_manmade_25.png,,50,,,2,,,,,,,,,,,,,,,
null,,confidence_buffer,641073,confidence_buffer,,null,,,,,,,,,,,,,,,,,,
4854.400000095367,,recognition_phase,645929,Fictional_Cities_List/img_manmade_25.png,,51,,,,,,new,1,0.8421052631578947,,,,,,,,,,
null,,confidence_buffer,646031,confidence_buffer,,null,,,,,,,,,,,,,,,,,,
null,,thebreak,646533,break,,null,,,,,,,,,,,,,,,,,,
2964.100000143051,,pt2_realistic_rating,649498,Fictional_Cities_List/img_natural_04.png,,50,Fictional_Cities_List/img_natural_04.png,NAT,2,,,,,,,,,,,,,,,
null,,confidence_buffer,649611,confidence_buffer,,null,,,,,,,,,,,,,,,,,,
298.5,,pt2_unique_rating,649910,Fictional_Cities_List/img_natural_04.png,,51,,,3,,,,,,,,,,,,,,,
null,,confidence_buffer,650013,confidence_buffer,,null,,,,,,,,,,,,,,,,,,
321.5,,pt2_memorable_rating,650336,Fictional_Cities_List/img_natural_04.png,,50,,,2,,,,,,,,,,,,,,,
null,,confidence_buffer,650438,confidence_buffer,,null,,,,,,,,,,,,,,,,,,
4027.899999856949,,recognition_phase,654467,Fictional_Cities_List/img_natural_04.png,,50,,,,,,old,0,0.8,,,,,,,,,,
null,,confidence_buffer,654570,confidence_buffer,,null,,,,,,,,,,,,,,,,,,
null,,thebreak,655071,break,,null,,,,,,,,,,,,,,,,,,
2371.100000143051,,pt2_realistic_rating,657443,US_Cities_List/mm_hotsprings.png,,50,US_Cities_List/mm_hotsprings.png,MM,2,,,,,,,,,,,,,,,
null,,confidence_buffer,657545,confidence_buffer,,null,,,,,,,,,,,,,,,,,,
707.8999998569489,,pt2_unique_rating,658254,US_Cities_List/mm_hotsprings.png,,50,,,2,,,,,,,,,,,,,,,
null,,confidence_buffer,658357,confidence_buffer,,null,,,,,,,,,,,,,,,,,,
1122.1000001430511,,pt2_memorable_rating,659480,US_Cities_List/mm_hotsprings.png,,51,,,3,,,,,,,,,,,,,,,
null,,confidence_buffer,659582,confidence_buffer,,null,,,,,,,,,,,,,,,,,,
4402.900000095367,,probe_rating,663986,probe_rating,,50,,,,2,1,,,,,,,,,,,,,
null,,confidence_buffer,664088,confidence_buffer,,null,,,,,,,,,,,,,,,,,,
3509.9000000953674,,recognition_phase,667599,US_Cities_List/mm_hotsprings.png,,49,,,,,,old,1,0.8095238095238095,,,,,,,,,,
null,,confidence_buffer,667701,confidence_buffer,,null,,,,,,,,,,,,,,,,,,
null,,thebreak,668203,break,,null,,,,,,,,,,,,,,,,,,
3167.5999999046326,,pt2_realistic_rating,671372,Fictional_Cities_List/img_manmade_19.png,,51,Fictional_Cities_List/img_manmade_19.png,MM,3,,,,,,,,,,,,,,,
null,,confidence_buffer,671473,confidence_buffer,,null,,,,,,,,,,,,,,,,,,
815.2999999523163,,pt2_unique_rating,672290,Fictional_Cities_List/img_manmade_19.png,,50,,,2,,,,,,,,,,,,,,,
null,,confidence_buffer,672393,confidence_buffer,,null,,,,,,,,,,,,,,,,,,
520.3999998569489,,pt2_memorable_rating,672914,Fictional_Cities_List/img_manmade_19.png,,51,,,3,,,,,,,,,,,,,,,
null,,confidence_buffer,673016,confidence_buffer,,null,,,,,,,,,,,,,,,,,,
6055.100000143051,,recognition_phase,679073,Fictional_Cities_List/img_manmade_19.png,,51,,,,,,new,1,0.8181818181818182,,,,,,,,,,
null,,confidence_buffer,679174,confidence_buffer,,null,,,,,,,,,,,,,,,,,,
null,,thebreak,679675,break,,null,,,,,,,,,,,,,,,,,,
2843.5,,pt2_realistic_rating,682520,Fictional_Cities_List/img_manmade_27.png,,49,Fictional_Cities_List/img_manmade_27.png,MM,1,,,,,,,,,,,,,,,
null,,confidence_buffer,682622,confidence_buffer,,null,,,,,,,,,,,,,,,,,,
1530.6000001430511,,pt2_unique_rating,684154,Fictional_Cities_List/img_manmade_27.png,,50,,,2,,,,,,,,,,,,,,,
null,,confidence_buffer,684256,confidence_buffer,,null,,,,,,,,,,,,,,,,,,
323.60000014305115,,pt2_memorable_rating,684581,Fictional_Cities_List/img_manmade_27.png,,49,,,1,,,,,,,,,,,,,,,
null,,confidence_buffer,684683,confidence_buffer,,null,,,,,,,,,,,,,,,,,,
4136,,recognition_phase,688820,Fictional_Cities_List/img_manmade_27.png,,52,,,,,,new,1,0.8260869565217391,,,,,,,,,,
null,,confidence_buffer,688923,confidence_buffer,,null,,,,,,,,,,,,,,,,,,
null,,thebreak,689425,break,,null,,,,,,,,,,,,,,,,,,
2643.7000000476837,,pt2_realistic_rating,692070,US_Cities_List/nat_coeurdalene.png,,50,US_Cities_List/nat_coeurdalene.png,NAT,2,,,,,,,,,,,,,,,
null,,confidence_buffer,692171,confidence_buffer,,null,,,,,,,,,,,,,,,,,,
849.6000001430511,,pt2_unique_rating,693021,US_Cities_List/nat_coeurdalene.png,,51,,,3,,,,,,,,,,,,,,,
null,,confidence_buffer,693124,confidence_buffer,,null,,,,,,,,,,,,,,,,,,
642.2999999523163,,pt2_memorable_rating,693767,US_Cities_List/nat_coeurdalene.png,,50,,,2,,,,,,,,,,,,,,,
null,,confidence_buffer,693869,confidence_buffer,,null,,,,,,,,,,,,,,,,,,
5001.099999904633,,recognition_phase,698871,US_Cities_List/nat_coeurdalene.png,,52,,,,,,new,0,0.7916666666666666,,,,,,,,,,
null,,confidence_buffer,698973,confidence_buffer,,null,,,,,,,,,,,,,,,,,,
null,,thebreak,699474,break,,null,,,,,,,,,,,,,,,,,,
2503.2000000476837,,pt2_realistic_rating,701979,US_Cities_List/nat_westpalmbeach.png,,51,US_Cities_List/nat_westpalmbeach.png,NAT,3,,,,,,,,,,,,,,,
null,,confidence_buffer,702081,confidence_buffer,,null,,,,,,,,,,,,,,,,,,
2124.5,,pt2_unique_rating,704207,US_Cities_List/nat_westpalmbeach.png,,52,,,4,,,,,,,,,,,,,,,
null,,confidence_buffer,704308,confidence_buffer,,null,,,,,,,,,,,,,,,,,,
811.2999999523163,,pt2_memorable_rating,705121,US_Cities_List/nat_westpalmbeach.png,,52,,,4,,,,,,,,,,,,,,,
null,,confidence_buffer,705223,confidence_buffer,,null,,,,,,,,,,,,,,,,,,
6734.100000143051,,recognition_phase,711958,US_Cities_List/nat_westpalmbeach.png,,51,,,,,,new,1,0.8,,,,,,,,,,
null,,confidence_buffer,712061,confidence_buffer,,null,,,,,,,,,,,,,,,,,,
null,,thebreak,712563,break,,null,,,,,,,,,,,,,,,,,,
2331.5,,pt2_realistic_rating,714895,US_Cities_List/nat_okoboji.png,,50,US_Cities_List/nat_okoboji.png,NAT,2,,,,,,,,,,,,,,,
null,,confidence_buffer,714997,confidence_buffer,,null,,,,,,,,,,,,,,,,,,
293.09999990463257,,pt2_unique_rating,715292,US_Cities_List/nat_okoboji.png,,51,,,3,,,,,,,,,,,,,,,
null,,confidence_buffer,715393,confidence_buffer,,null,,,,,,,,,,,,,,,,,,
3291.5999999046326,,probe_rating,718686,probe_rating,,49,,,,1,1,,,,,,,,,,,,,
null,,confidence_buffer,718788,confidence_buffer,,null,,,,,,,,,,,,,,,,,,
5802.599999904633,,pt2_memorable_rating,724592,US_Cities_List/nat_okoboji.png,,50,,,2,,,,,,,,,,,,,,,
null,,confidence_buffer,724693,confidence_buffer,,null,,,,,,,,,,,,,,,,,,
3949.5,,recognition_phase,728644,US_Cities_List/nat_okoboji.png,,50,,,,,,old,1,0.8076923076923077,,,,,,,,,,
null,,confidence_buffer,728746,confidence_buffer,,null,,,,,,,,,,,,,,,,,,
null,,thebreak,729249,break,,null,,,,,,,,,,,,,,,,,,
4023.399999856949,,pt2_realistic_rating,733273,US_Cities_List/mm_carmel.png,,50,US_Cities_List/mm_carmel.png,MM,2,,,,,,,,,,,,,,,
null,,confidence_buffer,733375,confidence_buffer,,null,,,,,,,,,,,,,,,,,,
508.09999990463257,,pt2_unique_rating,733884,US_Cities_List/mm_carmel.png,,51,,,3,,,,,,,,,,,,,,,
null,,confidence_buffer,733987,confidence_buffer,,null,,,,,,,,,,,,,,,,,,
492.7999999523163,,pt2_memorable_rating,734481,US_Cities_List/mm_carmel.png,,50,,,2,,,,,,,,,,,,,,,
null,,confidence_buffer,734584,confidence_buffer,,null,,,,,,,,,,,,,,,,,,
1471.5,,recognition_phase,736057,US_Cities_List/mm_carmel.png,,49,,,,,,old,1,0.8148148148148148,,,,,,,,,,
null,,confidence_buffer,736158,confidence_buffer,,null,,,,,,,,,,,,,,,,,,
null,,thebreak,736660,break,,null,,,,,,,,,,,,,,,,,,
3287.7999999523163,,pt2_realistic_rating,739949,Fictional_Cities_List/img_natural_08.png,,51,Fictional_Cities_List/img_natural_08.png,NAT,3,,,,,,,,,,,,,,,
null,,confidence_buffer,740057,confidence_buffer,,null,,,,,,,,,,,,,,,,,,
1324.0999999046326,,pt2_unique_rating,741383,Fictional_Cities_List/img_natural_08.png,,51,,,3,,,,,,,,,,,,,,,
null,,confidence_buffer,741485,confidence_buffer,,null,,,,,,,,,,,,,,,,,,
42.40000009536743,,probe_rating,741529,probe_rating,,51,,,,3,1,,,,,,,,,,,,,
null,,confidence_buffer,741631,confidence_buffer,,null,,,,,,,,,,,,,,,,,,
403.5,,pt2_memorable_rating,742036,Fictional_Cities_List/img_natural_08.png,,50,,,2,,,,,,,,,,,,,,,
null,,confidence_buffer,742138,confidence_buffer,,null,,,,,,,,,,,,,,,,,,
2212.5,,recognition_phase,744352,Fictional_Cities_List/img_natural_08.png,,49,,,,,,old,1,0.8214285714285714,,,,,,,,,,
null,,confidence_buffer,744454,confidence_buffer,,null,,,,,,,,,,,,,,,,,,
null,,thebreak,744956,break,,null,,,,,,,,,,,,,,,,,,
3111.5,,pt2_realistic_rating,748068,US_Cities_List/mm_cornwall.png,,49,US_Cities_List/mm_cornwall.png,MM,1,,,,,,,,,,,,,,,
null,,confidence_buffer,748171,confidence_buffer,,null,,,,,,,,,,,,,,,,,,
681.4000000953674,,probe_rating,748853,probe_rating,,50,,,,2,1,,,,,,,,,,,,,
null,,confidence_buffer,748956,confidence_buffer,,null,,,,,,,,,,,,,,,,,,
2825.899999856949,,pt2_unique_rating,751783,US_Cities_List/mm_cornwall.png,,50,,,2,,,,,,,,,,,,,,,
null,,confidence_buffer,751885,confidence_buffer,,null,,,,,,,,,,,,,,,,,,
2618,,pt2_memorable_rating,754504,US_Cities_List/mm_cornwall.png,,51,,,3,,,,,,,,,,,,,,,
null,,confidence_buffer,754606,confidence_buffer,,null,,,,,,,,,,,,,,,,,,
58.80000019073486,,recognition_phase,754666,US_Cities_List/mm_cornwall.png,,50,,,,,,old,0,0.7931034482758621,,,,,,,,,,
null,,confidence_buffer,754769,confidence_buffer,,null,,,,,,,,,,,,,,,,,,
null,,thebreak,755270,break,,null,,,,,,,,,,,,,,,,,,
5872.299999952316,,pt2_realistic_rating,761144,Fictional_Cities_List/img_manmade_22.png,,50,Fictional_Cities_List/img_manmade_22.png,MM,2,,,,,,,,,,,,,,,
null,,confidence_buffer,761246,confidence_buffer,,null,,,,,,,,,,,,,,,,,,
1097,,pt2_unique_rating,762344,Fictional_Cities_List/img_manmade_22.png,,50,,,2,,,,,,,,,,,,,,,
null,,confidence_buffer,762446,confidence_buffer,,null,,,,,,,,,,,,,,,,,,
746.9000000953674,,pt2_memorable_rating,763194,Fictional_Cities_List/img_manmade_22.png,,51,,,3,,,,,,,,,,,,,,,
null,,confidence_buffer,763297,confidence_buffer,,null,,,,,,,,,,,,,,,,,,
4838.600000143051,,recognition_phase,768136,Fictional_Cities_List/img_manmade_22.png,,51,,,,,,new,1,0.8,,,,,,,,,,
null,,confidence_buffer,768238,confidence_buffer,,null,,,,,,,,,,,,,,,,,,
null,,thebreak,768740,break,,null,,,,,,,,,,,,,,,,,,
2801.2000000476837,,pt2_realistic_rating,771542,US_Cities_List/nat_peoria.png,,51,US_Cities_List/nat_peoria.png,NAT,3,,,,,,,,,,,,,,,
null,,confidence_buffer,771644,confidence_buffer,,null,,,,,,,,,,,,,,,,,,
1018.2000000476837,,pt2_unique_rating,772663,US_Cities_List/nat_peoria.png,,52,,,4,,,,,,,,,,,,,,,
null,,confidence_buffer,772765,confidence_buffer,,null,,,,,,,,,,,,,,,,,,
723.0999999046326,,pt2_memorable_rating,773489,US_Cities_List/nat_peoria.png,,51,,,3,,,,,,,,,,,,,,,
null,,confidence_buffer,773590,confidence_buffer,,null,,,,,,,,,,,,,,,,,,
575.2000000476837,,recognition_phase,774166,US_Cities_List/nat_peoria.png,,51,,,,,,new,0,0.7741935483870968,,,,,,,,,,
null,,confidence_buffer,774269,confidence_buffer,,null,,,,,,,,,,,,,,,,,,
null,,thebreak,774770,break,,null,,,,,,,,,,,,,,,,,,
4420,,pt2_realistic_rating,779192,Fictional_Cities_List/img_natural_25.png,,49,Fictional_Cities_List/img_natural_25.png,NAT,1,,,,,,,,,,,,,,,
null,,confidence_buffer,779294,confidence_buffer,,null,,,,,,,,,,,,,,,,,,
1072.2000000476837,,pt2_unique_rating,780367,Fictional_Cities_List/img_natural_25.png,,49,,,1,,,,,,,,,,,,,,,
null,,confidence_buffer,780470,confidence_buffer,,null,,,,,,,,,,,,,,,,,,
1162.8999998569489,,pt2_memorable_rating,781634,Fictional_Cities_List/img_natural_25.png,,50,,,2,,,,,,,,,,,,,,,
null,,confidence_buffer,781735,confidence_buffer,,null,,,,,,,,,,,,,,,,,,
3198.199999809265,,recognition_phase,784935,Fictional_Cities_List/img_natural_25.png,,51,,,,,,new,1,0.78125,,,,,,,,,,
null,,confidence_buffer,785036,confidence_buffer,,null,,,,,,,,,,,,,,,,,,
null,,thebreak,785537,break,,null,,,,,,,,,,,,,,,,,,
3176,,pt2_realistic_rating,788714,US_Cities_List/nat_athens.png,,50,US_Cities_List/nat_athens.png,NAT,2,,,,,,,,,,,,,,,
null,,confidence_buffer,788817,confidence_buffer,,null,,,,,,,,,,,,,,,,,,
976.7000000476837,,pt2_unique_rating,789795,US_Cities_List/nat_athens.png,,51,,,3,,,,,,,,,,,,,,,
null,,confidence_buffer,789897,confidence_buffer,,null,,,,,,,,,,,,,,,,,,
549.1000001430511,,pt2_memorable_rating,790447,US_Cities_List/nat_athens.png,,50,,,2,,,,,,,,,,,,,,,
null,,confidence_buffer,790551,confidence_buffer,,null,,,,,,,,,,,,,,,,,,
3672.199999809265,,recognition_phase,794224,US_Cities_List/nat_athens.png,,52,,,,,,new,1,0.7878787878787878,,,,,,,,,,
null,,confidence_buffer,794326,confidence_buffer,,null,,,,,,,,,,,,,,,,,,
null,,thebreak,794827,break,,null,,,,,,,,,,,,,,,,,,
5477.699999809265,,pt2_realistic_rating,800306,Fictional_Cities_List/img_natural_40.png,,50,Fictional_Cities_List/img_natural_40.png,NAT,2,,,,,,,,,,,,,,,
null,,confidence_buffer,800409,confidence_buffer,,null,,,,,,,,,,,,,,,,,,
1308.0999999046326,,pt2_unique_rating,801718,Fictional_Cities_List/img_natural_40.png,,49,,,1,,,,,,,,,,,,,,,
null,,confidence_buffer,801821,confidence_buffer,,null,,,,,,,,,,,,,,,,,,
1124,,pt2_memorable_rating,802946,Fictional_Cities_List/img_natural_40.png,,50,,,2,,,,,,,,,,,,,,,
null,,confidence_buffer,803048,confidence_buffer,,null,,,,,,,,,,,,,,,,,,
4193.300000190735,,recognition_phase,807242,Fictional_Cities_List/img_natural_40.png,,49,,,,,,old,0,0.7647058823529411,,,,,,,,,,
null,,confidence_buffer,807345,confidence_buffer,,null,,,,,,,,,,,,,,,,,,
null,,thebreak,807847,break,,null,,,,,,,,,,,,,,,,,,
2337.7999999523163,,pt2_realistic_rating,810186,Fictional_Cities_List/img_natural_20.png,,50,Fictional_Cities_List/img_natural_20.png,NAT,2,,,,,,,,,,,,,,,
null,,confidence_buffer,810289,confidence_buffer,,null,,,,,,,,,,,,,,,,,,
1117.3000001907349,,pt2_unique_rating,811407,Fictional_Cities_List/img_natural_20.png,,51,,,3,,,,,,,,,,,,,,,
null,,confidence_buffer,811509,confidence_buffer,,null,,,,,,,,,,,,,,,,,,
485.60000014305115,,pt2_memorable_rating,811995,Fictional_Cities_List/img_natural_20.png,,49,,,1,,,,,,,,,,,,,,,
null,,confidence_buffer,812098,confidence_buffer,,null,,,,,,,,,,,,,,,,,,
4573.700000047684,,recognition_phase,816672,Fictional_Cities_List/img_natural_20.png,,51,,,,,,new,0,0.7428571428571429,,,,,,,,,,
null,,confidence_buffer,816774,confidence_buffer,,null,,,,,,,,,,,,,,,,,,
null,,thebreak,817275,break,,null,,,,,,,,,,,,,,,,,,
3880.399999856949,,pt2_realistic_rating,821157,Fictional_Cities_List/img_natural_10.png,,49,Fictional_Cities_List/img_natural_10.png,NAT,1,,,,,,,,,,,,,,,
null,,confidence_buffer,821259,confidence_buffer,,null,,,,,,,,,,,,,,,,,,
1185.9000000953674,,pt2_unique_rating,822446,Fictional_Cities_List/img_natural_10.png,,50,,,2,,,,,,,,,,,,,,,
null,,confidence_buffer,822547,confidence_buffer,,null,,,,,,,,,,,,,,,,,,
1641.1000001430511,,pt2_memorable_rating,824189,Fictional_Cities_List/img_natural_10.png,,50,,,2,,,,,,,,,,,,,,,
null,,confidence_buffer,824291,confidence_buffer,,null,,,,,,,,,,,,,,,,,,
3542.800000190735,,recognition_phase,827835,Fictional_Cities_List/img_natural_10.png,,52,,,,,,new,1,0.75,,,,,,,,,,
null,,confidence_buffer,827937,confidence_buffer,,null,,,,,,,,,,,,,,,,,,
null,,thebreak,828439,break,,null,,,,,,,,,,,,,,,,,,
3686.9000000953674,,pt2_realistic_rating,832127,Fictional_Cities_List/img_manmade_42.png,,50,Fictional_Cities_List/img_manmade_42.png,MM,2,,,,,,,,,,,,,,,
null,,confidence_buffer,832229,confidence_buffer,,null,,,,,,,,,,,,,,,,,,
1100.9000000953674,,pt2_unique_rating,833331,Fictional_Cities_List/img_manmade_42.png,,51,,,3,,,,,,,,,,,,,,,
null,,confidence_buffer,833447,confidence_buffer,,null,,,,,,,,,,,,,,,,,,
624.4000000953674,,pt2_memorable_rating,834073,Fictional_Cities_List/img_manmade_42.png,,50,,,2,,,,,,,,,,,,,,,
null,,confidence_buffer,834175,confidence_buffer,,null,,,,,,,,,,,,,,,,,,
1542.0999999046326,,recognition_phase,835718,Fictional_Cities_List/img_manmade_42.png,,49,,,,,,old,1,0.7567567567567568,,,,,,,,,,
null,,confidence_buffer,835820,confidence_buffer,,null,,,,,,,,,,,,,,,,,,
null,,thebreak,836322,break,,null,,,,,,,,,,,,,,,,,,
4059.2999999523163,,pt2_realistic_rating,840382,Fictional_Cities_List/img_manmade_10.png,,50,Fictional_Cities_List/img_manmade_10.png,MM,2,,,,,,,,,,,,,,,
null,,confidence_buffer,840484,confidence_buffer,,null,,,,,,,,,,,,,,,,,,
1374.7999999523163,,pt2_unique_rating,841860,Fictional_Cities_List/img_manmade_10.png,,50,,,2,,,,,,,,,,,,,,,
null,,confidence_buffer,841964,confidence_buffer,,null,,,,,,,,,,,,,,,,,,
1679.2000000476837,,pt2_memorable_rating,843644,Fictional_Cities_List/img_manmade_10.png,,50,,,2,,,,,,,,,,,,,,,
null,,confidence_buffer,843746,confidence_buffer,,null,,,,,,,,,,,,,,,,,,
1707.2999999523163,,recognition_phase,845455,Fictional_Cities_List/img_manmade_10.png,,49,,,,,,old,1,0.7631578947368421,,,,,,,,,,
null,,confidence_buffer,845556,confidence_buffer,,null,,,,,,,,,,,,,,,,,,
null,,thebreak,846058,break,,null,,,,,,,,,,,,,,,,,,
4071.5999999046326,,pt2_realistic_rating,850131,US_Cities_List/mm_boulder.png,,50,US_Cities_List/mm_boulder.png,MM,2,,,,,,,,,,,,,,,
null,,confidence_buffer,850247,confidence_buffer,,null,,,,,,,,,,,,,,,,,,
843.7999999523163,,pt2_unique_rating,851092,US_Cities_List/mm_boulder.png,,49,,,1,,,,,,,,,,,,,,,
null,,confidence_buffer,851195,confidence_buffer,,null,,,,,,,,,,,,,,,,,,
1020.5,,pt2_memorable_rating,852216,US_Cities_List/mm_boulder.png,,50,,,2,,,,,,,,,,,,,,,
null,,confidence_buffer,852319,confidence_buffer,,null,,,,,,,,,,,,,,,,,,
1058,,recognition_phase,853378,US_Cities_List/mm_boulder.png,,49,,,,,,old,1,0.7692307692307693,,,,,,,,,,
null,,confidence_buffer,853480,confidence_buffer,,null,,,,,,,,,,,,,,,,,,
null,,thebreak,853981,break,,null,,,,,,,,,,,,,,,,,,
2420.2999999523163,,pt2_realistic_rating,856403,US_Cities_List/mm_athens.png,,51,US_Cities_List/mm_athens.png,MM,3,,,,,,,,,,,,,,,
null,,confidence_buffer,856505,confidence_buffer,,null,,,,,,,,,,,,,,,,,,
532.5,,pt2_unique_rating,857038,US_Cities_List/mm_athens.png,,50,,,2,,,,,,,,,,,,,,,
null,,confidence_buffer,857140,confidence_buffer,,null,,,,,,,,,,,,,,,,,,
985.9000000953674,,pt2_memorable_rating,858127,US_Cities_List/mm_athens.png,,49,,,1,,,,,,,,,,,,,,,
null,,confidence_buffer,858229,confidence_buffer,,null,,,,,,,,,,,,,,,,,,
1305,,recognition_phase,859535,US_Cities_List/mm_athens.png,,49,,,,,,old,1,0.775,,,,,,,,,,
null,,confidence_buffer,859637,confidence_buffer,,null,,,,,,,,,,,,,,,,,,
null,,thebreak,860138,break,,null,,,,,,,,,,,,,,,,,,
3228.0999999046326,,pt2_realistic_rating,863367,Fictional_Cities_List/img_manmade_40.png,,50,Fictional_Cities_List/img_manmade_40.png,MM,2,,,,,,,,,,,,,,,
null,,confidence_buffer,863470,confidence_buffer,,null,,,,,,,,,,,,,,,,,,
1264,,pt2_unique_rating,864735,Fictional_Cities_List/img_manmade_40.png,,50,,,2,,,,,,,,,,,,,,,
null,,confidence_buffer,864837,confidence_buffer,,null,,,,,,,,,,,,,,,,,,
598.8999998569489,,pt2_memorable_rating,865437,Fictional_Cities_List/img_manmade_40.png,,51,,,3,,,,,,,,,,,,,,,
null,,confidence_buffer,865540,confidence_buffer,,null,,,,,,,,,,,,,,,,,,
3852.100000143051,,recognition_phase,869393,Fictional_Cities_List/img_manmade_40.png,,52,,,,,,new,1,0.7804878048780488,,,,,,,,,,
null,,confidence_buffer,869495,confidence_buffer,,null,,,,,,,,,,,,,,,,,,
null,,thebreak,869997,break,,null,,,,,,,,,,,,,,,,,,
2480.9000000953674,,pt2_realistic_rating,872479,Fictional_Cities_List/img_natural_26.png,,50,Fictional_Cities_List/img_natural_26.png,NAT,2,,,,,,,,,,,,,,,
null,,confidence_buffer,872592,confidence_buffer,,null,,,,,,,,,,,,,,,,,,
837,,pt2_unique_rating,873430,Fictional_Cities_List/img_natural_26.png,,49,,,1,,,,,,,,,,,,,,,
null,,confidence_buffer,873532,confidence_buffer,,null,,,,,,,,,,,,,,,,,,
970.6999998092651,,pt2_memorable_rating,874504,Fictional_Cities_List/img_natural_26.png,,50,,,2,,,,,,,,,,,,,,,
null,,confidence_buffer,874606,confidence_buffer,,null,,,,,,,,,,,,,,,,,,
4028.2999999523163,,recognition_phase,878635,Fictional_Cities_List/img_natural_26.png,,52,,,,,,new,1,0.7857142857142857,,,,,,,,,,
null,,confidence_buffer,878738,confidence_buffer,,null,,,,,,,,,,,,,,,,,,
null,,thebreak,879240,break,,null,,,,,,,,,,,,,,,,,,
2683.9000000953674,,pt2_realistic_rating,881925,US_Cities_List/nat_sitka.png,,51,US_Cities_List/nat_sitka.png,NAT,3,,,,,,,,,,,,,,,
null,,confidence_buffer,882027,confidence_buffer,,null,,,,,,,,,,,,,,,,,,
657.7999999523163,,pt2_unique_rating,882686,US_Cities_List/nat_sitka.png,,50,,,2,,,,,,,,,,,,,,,
null,,confidence_buffer,882787,confidence_buffer,,null,,,,,,,,,,,,,,,,,,
629.2000000476837,,probe_rating,883418,probe_rating,,50,,,,2,0,,,,,,,,,,,,,
null,,confidence_buffer,883529,confidence_buffer,,null,,,,,,,,,,,,,,,,,,
5325,,pt2_memorable_rating,888855,US_Cities_List/nat_sitka.png,,50,,,2,,,,,,,,,,,,,,,
null,,confidence_buffer,888957,confidence_buffer,,null,,,,,,,,,,,,,,,,,,
6967,,recognition_phase,895925,US_Cities_List/nat_sitka.png,,51,,,,,,new,1,0.7906976744186046,,,,,,,,,,
null,,confidence_buffer,896028,confidence_buffer,,null,,,,,,,,,,,,,,,,,,
null,,thebreak,896529,break,,null,,,,,,,,,,,,,,,,,,
2280.399999856949,,pt2_realistic_rating,898811,US_Cities_List/nat_carmel.png,,50,US_Cities_List/nat_carmel.png,NAT,2,,,,,,,,,,,,,,,
null,,confidence_buffer,898912,confidence_buffer,,null,,,,,,,,,,,,,,,,,,
4035.4000000953674,,pt2_unique_rating,902949,US_Cities_List/nat_carmel.png,,50,,,2,,,,,,,,,,,,,,,
null,,confidence_buffer,903063,confidence_buffer,,null,,,,,,,,,,,,,,,,,,
928.2000000476837,,pt2_memorable_rating,903993,US_Cities_List/nat_carmel.png,,51,,,3,,,,,,,,,,,,,,,
null,,confidence_buffer,904095,confidence_buffer,,null,,,,,,,,,,,,,,,,,,
5150.700000047684,,recognition_phase,909247,US_Cities_List/nat_carmel.png,,52,,,,,,new,1,0.7954545454545454,,,,,,,,,,
null,,confidence_buffer,909349,confidence_buffer,,null,,,,,,,,,,,,,,,,,,
null,,thebreak,909851,break,,null,,,,,,,,,,,,,,,,,,
2322.0999999046326,,pt2_realistic_rating,912174,Fictional_Cities_List/img_manmade_47.png,,49,Fictional_Cities_List/img_manmade_47.png,MM,1,,,,,,,,,,,,,,,
null,,confidence_buffer,912276,confidence_buffer,,null,,,,,,,,,,,,,,,,,,
707.1000001430511,,pt2_unique_rating,912984,Fictional_Cities_List/img_manmade_47.png,,50,,,2,,,,,,,,,,,,,,,
null,,confidence_buffer,913086,confidence_buffer,,null,,,,,,,,,,,,,,,,,,
822.2000000476837,,pt2_memorable_rating,913909,Fictional_Cities_List/img_manmade_47.png,,50,,,2,,,,,,,,,,,,,,,
null,,confidence_buffer,914012,confidence_buffer,,null,,,,,,,,,,,,,,,,,,
862.2999999523163,,recognition_phase,914876,Fictional_Cities_List/img_manmade_47.png,,49,,,,,,old,0,0.7777777777777778,,,,,,,,,,
null,,confidence_buffer,914978,confidence_buffer,,null,,,,,,,,,,,,,,,,,,
null,,thebreak,915480,break,,null,,,,,,,,,,,,,,,,,,
8233.299999952316,,pt2_realistic_rating,923714,Fictional_Cities_List/img_natural_27.png,,49,Fictional_Cities_List/img_natural_27.png,NAT,1,,,,,,,,,,,,,,,
null,,confidence_buffer,923817,confidence_buffer,,null,,,,,,,,,,,,,,,,,,
2697.5,,pt2_unique_rating,926516,Fictional_Cities_List/img_natural_27.png,,50,,,2,,,,,,,,,,,,,,,
null,,confidence_buffer,926618,confidence_buffer,,null,,,,,,,,,,,,,,,,,,
5646.599999904633,,probe_rating,932266,probe_rating,,51,,,,3,1,,,,,,,,,,,,,
null,,confidence_buffer,932368,confidence_buffer,,null,,,,,,,,,,,,,,,,,,
3744.5,,pt2_memorable_rating,936114,Fictional_Cities_List/img_natural_27.png,,50,,,2,,,,,,,,,,,,,,,
null,,confidence_buffer,936216,confidence_buffer,,null,,,,,,,,,,,,,,,,,,
3455.7000000476837,,recognition_phase,939673,Fictional_Cities_List/img_natural_27.png,,50,,,,,,old,1,0.782608695652174,,,,,,,,,,
null,,confidence_buffer,939776,confidence_buffer,,null,,,,,,,,,,,,,,,,,,
null,,thebreak,940277,break,,null,,,,,,,,,,,,,,,,,,
3363.0999999046326,,pt2_realistic_rating,943641,Fictional_Cities_List/img_natural_47.png,,50,Fictional_Cities_List/img_natural_47.png,NAT,2,,,,,,,,,,,,,,,
null,,confidence_buffer,943743,confidence_buffer,,null,,,,,,,,,,,,,,,,,,
896.9000000953674,,pt2_unique_rating,944641,Fictional_Cities_List/img_natural_47.png,,49,,,1,,,,,,,,,,,,,,,
null,,confidence_buffer,944742,confidence_buffer,,null,,,,,,,,,,,,,,,,,,
1151.0999999046326,,pt2_memorable_rating,945895,Fictional_Cities_List/img_natural_47.png,,50,,,2,,,,,,,,,,,,,,,
null,,confidence_buffer,945997,confidence_buffer,,null,,,,,,,,,,,,,,,,,,
1915.1000001430511,,recognition_phase,947914,Fictional_Cities_List/img_natural_47.png,,49,,,,,,old,1,0.7872340425531915,,,,,,,,,,
null,,confidence_buffer,948016,confidence_buffer,,null,,,,,,,,,,,,,,,,,,
null,,thebreak,948517,break,,null,,,,,,,,,,,,,,,,,,
2992.7999999523163,,pt2_realistic_rating,951511,Fictional_Cities_List/img_manmade_08.png,,49,Fictional_Cities_List/img_manmade_08.png,MM,1,,,,,,,,,,,,,,,
null,,confidence_buffer,951615,confidence_buffer,,null,,,,,,,,,,,,,,,,,,
1035.7000000476837,,pt2_unique_rating,952652,Fictional_Cities_List/img_manmade_08.png,,49,,,1,,,,,,,,,,,,,,,
null,,confidence_buffer,952753,confidence_buffer,,null,,,,,,,,,,,,,,,,,,
815,,pt2_memorable_rating,953569,Fictional_Cities_List/img_manmade_08.png,,49,,,1,,,,,,,,,,,,,,,
null,,confidence_buffer,953672,confidence_buffer,,null,,,,,,,,,,,,,,,,,,
3960.7999999523163,,recognition_phase,957634,Fictional_Cities_List/img_manmade_08.png,,52,,,,,,new,0,0.7708333333333334,,,,,,,,,,
null,,confidence_buffer,957736,confidence_buffer,,null,,,,,,,,,,,,,,,,,,
null,,thebreak,958237,break,,null,,,,,,,,,,,,,,,,,,
2138.2000000476837,,pt2_realistic_rating,960376,US_Cities_List/nat_hilo.png,,50,US_Cities_List/nat_hilo.png,NAT,2,,,,,,,,,,,,,,,
null,,confidence_buffer,960478,confidence_buffer,,null,,,,,,,,,,,,,,,,,,
2271,,pt2_unique_rating,962750,US_Cities_List/nat_hilo.png,,51,,,3,,,,,,,,,,,,,,,
null,,confidence_buffer,962851,confidence_buffer,,null,,,,,,,,,,,,,,,,,,
647.5999999046326,,pt2_memorable_rating,963500,US_Cities_List/nat_hilo.png,,50,,,2,,,,,,,,,,,,,,,
null,,confidence_buffer,963603,confidence_buffer,,null,,,,,,,,,,,,,,,,,,
4524.099999904633,,recognition_phase,968128,US_Cities_List/nat_hilo.png,,50,,,,,,old,1,0.7755102040816326,,,,,,,,,,
null,,confidence_buffer,968244,confidence_buffer,,null,,,,,,,,,,,,,,,,,,
null,,thebreak,968745,break,,null,,,,,,,,,,,,,,,,,,
3464.0999999046326,,pt2_realistic_rating,972210,Fictional_Cities_List/img_manmade_20.png,,50,Fictional_Cities_List/img_manmade_20.png,MM,2,,,,,,,,,,,,,,,
null,,confidence_buffer,972312,confidence_buffer,,null,,,,,,,,,,,,,,,,,,
938.2999999523163,,pt2_unique_rating,973252,Fictional_Cities_List/img_manmade_20.png,,50,,,2,,,,,,,,,,,,,,,
null,,confidence_buffer,973353,confidence_buffer,,null,,,,,,,,,,,,,,,,,,
1112,,pt2_memorable_rating,974466,Fictional_Cities_List/img_manmade_20.png,,49,,,1,,,,,,,,,,,,,,,
null,,confidence_buffer,974569,confidence_buffer,,null,,,,,,,,,,,,,,,,,,
4579.5,,recognition_phase,979150,Fictional_Cities_List/img_manmade_20.png,,51,,,,,,new,1,0.78,,,,,,,,,,
null,,confidence_buffer,979253,confidence_buffer,,null,,,,,,,,,,,,,,,,,,
null,,thebreak,979755,break,,null,,,,,,,,,,,,,,,,,,
6104.200000047684,,pt2_realistic_rating,985860,US_Cities_List/mm_healdsburg.png,,51,US_Cities_List/mm_healdsburg.png,MM,3,,,,,,,,,,,,,,,
null,,confidence_buffer,985968,confidence_buffer,,null,,,,,,,,,,,,,,,,,,
993.1999998092651,,pt2_unique_rating,986962,US_Cities_List/mm_healdsburg.png,,50,,,2,,,,,,,,,,,,,,,
null,,confidence_buffer,987064,confidence_buffer,,null,,,,,,,,,,,,,,,,,,
691.5,,pt2_memorable_rating,987756,US_Cities_List/mm_healdsburg.png,,51,,,3,,,,,,,,,,,,,,,
null,,confidence_buffer,987858,confidence_buffer,,null,,,,,,,,,,,,,,,,,,
3021.5999999046326,,recognition_phase,990881,US_Cities_List/mm_healdsburg.png,,52,,,,,,new,1,0.7843137254901961,,,,,,,,,,
null,,confidence_buffer,990983,confidence_buffer,,null,,,,,,,,,,,,,,,,,,
null,,thebreak,991485,break,,null,,,,,,,,,,,,,,,,,,
2688.5999999046326,,pt2_realistic_rating,994175,Fictional_Cities_List/img_natural_22.png,,49,Fictional_Cities_List/img_natural_22.png,NAT,1,,,,,,,,,,,,,,,
null,,confidence_buffer,994276,confidence_buffer,,null,,,,,,,,,,,,,,,,,,
850,,pt2_unique_rating,995127,Fictional_Cities_List/img_natural_22.png,,49,,,1,,,,,,,,,,,,,,,
null,,confidence_buffer,995230,confidence_buffer,,null,,,,,,,,,,,,,,,,,,
311.59999990463257,,pt2_memorable_rating,995543,Fictional_Cities_List/img_natural_22.png,,50,,,2,,,,,,,,,,,,,,,
null,,confidence_buffer,995644,confidence_buffer,,null,,,,,,,,,,,,,,,,,,
5766.400000095367,,recognition_phase,1001412,Fictional_Cities_List/img_natural_22.png,,52,,,,,,new,0,0.7692307692307693,,,,,,,,,,
null,,confidence_buffer,1001515,confidence_buffer,,null,,,,,,,,,,,,,,,,,,
null,,thebreak,1002028,break,,null,,,,,,,,,,,,,,,,,,
2758,,pt2_realistic_rating,1004788,US_Cities_List/nat_hotsprings.png,,50,US_Cities_List/nat_hotsprings.png,NAT,2,,,,,,,,,,,,,,,
null,,confidence_buffer,1004889,confidence_buffer,,null,,,,,,,,,,,,,,,,,,
1208.7999999523163,,pt2_unique_rating,1006100,US_Cities_List/nat_hotsprings.png,,50,,,2,,,,,,,,,,,,,,,
null,,confidence_buffer,1006216,confidence_buffer,,null,,,,,,,,,,,,,,,,,,
3026.4000000953674,,pt2_memorable_rating,1009244,US_Cities_List/nat_hotsprings.png,,49,,,1,,,,,,,,,,,,,,,
null,,confidence_buffer,1009346,confidence_buffer,,null,,,,,,,,,,,,,,,,,,
2862.9000000953674,,recognition_phase,1012210,US_Cities_List/nat_hotsprings.png,,52,,,,,,new,1,0.7735849056603774,,,,,,,,,,
null,,confidence_buffer,1012320,confidence_buffer,,null,,,,,,,,,,,,,,,,,,
null,,thebreak,1012822,break,,null,,,,,,,,,,,,,,,,,,
7472.5,,pt2_realistic_rating,1020296,Fictional_Cities_List/img_natural_07.png,,50,Fictional_Cities_List/img_natural_07.png,NAT,2,,,,,,,,,,,,,,,
null,,confidence_buffer,1020397,confidence_buffer,,null,,,,,,,,,,,,,,,,,,
1066.6000001430511,,pt2_unique_rating,1021465,Fictional_Cities_List/img_natural_07.png,,51,,,3,,,,,,,,,,,,,,,
null,,confidence_buffer,1021568,confidence_buffer,,null,,,,,,,,,,,,,,,,,,
2476.7999999523163,,probe_rating,1024046,probe_rating,,53,,,,5,1,,,,,,,,,,,,,
null,,confidence_buffer,1024160,confidence_buffer,,null,,,,,,,,,,,,,,,,,,
4672.300000190735,,pt2_memorable_rating,1028833,Fictional_Cities_List/img_natural_07.png,,51,,,3,,,,,,,,,,,,,,,
null,,confidence_buffer,1028935,confidence_buffer,,null,,,,,,,,,,,,,,,,,,
2792,,recognition_phase,1031728,Fictional_Cities_List/img_natural_07.png,,49,,,,,,old,1,0.7777777777777778,,,,,,,,,,
null,,confidence_buffer,1031832,confidence_buffer,,null,,,,,,,,,,,,,,,,,,
null,,thebreak,1032333,break,,null,,,,,,,,,,,,,,,,,,
3664.7999999523163,,pt2_realistic_rating,1035999,Fictional_Cities_List/img_natural_39.png,,52,Fictional_Cities_List/img_natural_39.png,NAT,4,,,,,,,,,,,,,,,
null,,confidence_buffer,1036101,confidence_buffer,,null,,,,,,,,,,,,,,,,,,
3606,,pt2_unique_rating,1039708,Fictional_Cities_List/img_natural_39.png,,51,,,3,,,,,,,,,,,,,,,
null,,confidence_buffer,1039810,confidence_buffer,,null,,,,,,,,,,,,,,,,,,
1046.5,,pt2_memorable_rating,1040858,Fictional_Cities_List/img_natural_39.png,,52,,,4,,,,,,,,,,,,,,,
null,,confidence_buffer,1040960,confidence_buffer,,null,,,,,,,,,,,,,,,,,,
1895.5,,recognition_phase,1042856,Fictional_Cities_List/img_natural_39.png,,49,,,,,,old,1,0.7818181818181819,,,,,,,,,,
null,,confidence_buffer,1042959,confidence_buffer,,null,,,,,,,,,,,,,,,,,,
null,,thebreak,1043460,break,,null,,,,,,,,,,,,,,,,,,
4078.2999999523163,,pt2_realistic_rating,1047540,US_Cities_List/nat_abilene.png,,51,US_Cities_List/nat_abilene.png,NAT,3,,,,,,,,,,,,,,,
null,,confidence_buffer,1047641,confidence_buffer,,null,,,,,,,,,,,,,,,,,,
493.60000014305115,,pt2_unique_rating,1048136,US_Cities_List/nat_abilene.png,,51,,,3,,,,,,,,,,,,,,,
null,,confidence_buffer,1048237,confidence_buffer,,null,,,,,,,,,,,,,,,,,,
616.5999999046326,,pt2_memorable_rating,1048855,US_Cities_List/nat_abilene.png,,52,,,4,,,,,,,,,,,,,,,
null,,confidence_buffer,1048958,confidence_buffer,,null,,,,,,,,,,,,,,,,,,
4272.700000047684,,recognition_phase,1053232,US_Cities_List/nat_abilene.png,,52,,,,,,new,1,0.7857142857142857,,,,,,,,,,
null,,confidence_buffer,1053334,confidence_buffer,,null,,,,,,,,,,,,,,,,,,
null,,thebreak,1053836,break,,null,,,,,,,,,,,,,,,,,,
3994.100000143051,,pt2_realistic_rating,1057831,US_Cities_List/nat_healdsburg.png,,49,US_Cities_List/nat_healdsburg.png,NAT,1,,,,,,,,,,,,,,,
null,,confidence_buffer,1057934,confidence_buffer,,null,,,,,,,,,,,,,,,,,,
640.5,,pt2_unique_rating,1058576,US_Cities_List/nat_healdsburg.png,,50,,,2,,,,,,,,,,,,,,,
null,,confidence_buffer,1058677,confidence_buffer,,null,,,,,,,,,,,,,,,,,,
526.9000000953674,,pt2_memorable_rating,1059205,US_Cities_List/nat_healdsburg.png,,49,,,1,,,,,,,,,,,,,,,
null,,confidence_buffer,1059307,confidence_buffer,,null,,,,,,,,,,,,,,,,,,
3007.4000000953674,,recognition_phase,1062316,US_Cities_List/nat_healdsburg.png,,52,,,,,,new,1,0.7894736842105263,,,,,,,,,,
null,,confidence_buffer,1062418,confidence_buffer,,null,,,,,,,,,,,,,,,,,,
null,,thebreak,1062923,break,,null,,,,,,,,,,,,,,,,,,
2887.699999809265,,pt2_realistic_rating,1065812,US_Cities_List/nat_boulder.png,,49,US_Cities_List/nat_boulder.png,NAT,1,,,,,,,,,,,,,,,
null,,confidence_buffer,1065914,confidence_buffer,,null,,,,,,,,,,,,,,,,,,
455.09999990463257,,pt2_unique_rating,1066370,US_Cities_List/nat_boulder.png,,49,,,1,,,,,,,,,,,,,,,
null,,confidence_buffer,1066484,confidence_buffer,,null,,,,,,,,,,,,,,,,,,
1990.7000000476837,,pt2_memorable_rating,1068476,US_Cities_List/nat_boulder.png,,50,,,2,,,,,,,,,,,,,,,
null,,confidence_buffer,1068578,confidence_buffer,,null,,,,,,,,,,,,,,,,,,
2745.4000000953674,,recognition_phase,1071324,US_Cities_List/nat_boulder.png,,52,,,,,,new,1,0.7931034482758621,,,,,,,,,,
null,,confidence_buffer,1071426,confidence_buffer,,null,,,,,,,,,,,,,,,,,,
null,,thebreak,1071927,break,,null,,,,,,,,,,,,,,,,,,
3456.0999999046326,,pt2_realistic_rating,1075385,US_Cities_List/mm_westpalmbeach.png,,50,US_Cities_List/mm_westpalmbeach.png,MM,2,,,,,,,,,,,,,,,
null,,confidence_buffer,1075487,confidence_buffer,,null,,,,,,,,,,,,,,,,,,
569.2999999523163,,pt2_unique_rating,1076057,US_Cities_List/mm_westpalmbeach.png,,51,,,3,,,,,,,,,,,,,,,
null,,confidence_buffer,1076159,confidence_buffer,,null,,,,,,,,,,,,,,,,,,
334.59999990463257,,pt2_memorable_rating,1076495,US_Cities_List/mm_westpalmbeach.png,,50,,,2,,,,,,,,,,,,,,,
null,,confidence_buffer,1076597,confidence_buffer,,null,,,,,,,,,,,,,,,,,,
2939.7999999523163,,recognition_phase,1079538,US_Cities_List/mm_westpalmbeach.png,,52,,,,,,new,1,0.7966101694915254,,,,,,,,,,
null,,confidence_buffer,1079640,confidence_buffer,,null,,,,,,,,,,,,,,,,,,
null,,thebreak,1080141,break,,null,,,,,,,,,,,,,,,,,,
2618.300000190735,,pt2_realistic_rating,1082760,US_Cities_List/mm_delawarecity.png,,50,US_Cities_List/mm_delawarecity.png,MM,2,,,,,,,,,,,,,,,
null,,confidence_buffer,1082863,confidence_buffer,,null,,,,,,,,,,,,,,,,,,
2038.5999999046326,,pt2_unique_rating,1084902,US_Cities_List/mm_delawarecity.png,,49,,,1,,,,,,,,,,,,,,,
null,,confidence_buffer,1085004,confidence_buffer,,null,,,,,,,,,,,,,,,,,,
761.3999998569489,,pt2_memorable_rating,1085767,US_Cities_List/mm_delawarecity.png,,49,,,1,,,,,,,,,,,,,,,
null,,confidence_buffer,1085869,confidence_buffer,,null,,,,,,,,,,,,,,,,,,
1670.5,,recognition_phase,1087541,US_Cities_List/mm_delawarecity.png,,49,,,,,,old,1,0.8,,,,,,,,,,
null,,confidence_buffer,1087656,confidence_buffer,,null,,,,,,,,,,,,,,,,,,
null,,thebreak,1088168,break,,null,,,,,,,,,,,,,,,,,,
,,survey,1238946,survey-questions,,,,,,,,,,,,high,Totally focused!,Depended solely on memory.,I had seen similar scenes.,Took me back to a special time/moment,Would remember if I saw it again,Some were just fakes!,No,All OK!  Thanks for the opportunity.
