rt,responses,trial_type,time_elapsed,stimulus,button_pressed,key_press,name_trial,city_type,rating,probe,probe_accuracy,response,correct,accuracy,problems,smooth,distraction,strategies,familiar,memorable,unique,realistic,similar,comments,detectfocus,warning
14895.799999998882,{worker_id:67f30214cb36ae0391baac33},id_enter,14899,,,,,,,,,,,,,,,,,,,,,,,
60729.5,,fullscreen,75628,fullscreen,0,,,,,,,,,,,,,,,,,,,,,
1175.800000000745,,intro_0,76806,instruct,,32,,,,,,,,,,,,,,,,,,,,
37220.79999999888,,intro_1,114025,instruct,,32,,,,,,,,,,,,,,,,,,,,
5658.199999999255,,intro_2,119684,instruct,,32,,,,,,,,,,,,,,,,,,,,
null,,instruct_dir_4,121186,instruct,,null,,,,,,,,,,,,,,,,,,,,
null,,thebreak,121689,break,,null,,,,,,,,,,,,,,,,,,,,
6586,,familiar_rating,128276,Fictional_Cities_List/img_manmade_24.png,,49,Fictional_Cities_List/img_manmade_24.png,MM,1,,,,,,,,,,,,,,,,,
null,,confidence_buffer,128379,confidence_buffer,,null,,,,,,,,,,,,,,,,,,,,
4763.5999999996275,,unique_rating,133143,Fictional_Cities_List/img_manmade_24.png,,50,,,2,,,,,,,,,,,,,,,,,
null,,confidence_buffer,133245,confidence_buffer,,null,,,,,,,,,,,,,,,,,,,,
6216.5,,memorable_rating,139462,Fictional_Cities_List/img_manmade_24.png,,51,,,3,,,,,,,,,,,,,,,,,
null,,confidence_buffer,139564,confidence_buffer,,null,,,,,,,,,,,,,,,,,,,,
null,,thebreak,140067,break,,null,,,,,,,,,,,,,,,,,,,,
5329.5999999996275,,familiar_rating,145397,US_Cities_List/mm_boulder.png,,49,US_Cities_List/mm_boulder.png,MM,1,,,,,,,,,,,,,,,,,
null,,confidence_buffer,145499,confidence_buffer,,null,,,,,,,,,,,,,,,,,,,,
4979,,unique_rating,150479,US_Cities_List/mm_boulder.png,,51,,,3,,,,,,,,,,,,,,,,,
null,,confidence_buffer,150581,confidence_buffer,,null,,,,,,,,,,,,,,,,,,,,
3094.300000000745,,memorable_rating,153676,US_Cities_List/mm_boulder.png,,52,,,4,,,,,,,,,,,,,,,,,
null,,confidence_buffer,153777,confidence_buffer,,null,,,,,,,,,,,,,,,,,,,,
null,,thebreak,154280,break,,null,,,,,,,,,,,,,,,,,,,,
2818.0999999996275,,familiar_rating,157100,Fictional_Cities_List/img_natural_19.png,,49,Fictional_Cities_List/img_natural_19.png,NAT,1,,,,,,,,,,,,,,,,,
null,,confidence_buffer,157202,confidence_buffer,,null,,,,,,,,,,,,,,,,,,,,
3045.5999999996275,,unique_rating,160248,Fictional_Cities_List/img_natural_19.png,,53,,,5,,,,,,,,,,,,,,,,,
null,,confidence_buffer,160350,confidence_buffer,,null,,,,,,,,,,,,,,,,,,,,
3481.4000000003725,,memorable_rating,163832,Fictional_Cities_List/img_natural_19.png,,53,,,5,,,,,,,,,,,,,,,,,
null,,confidence_buffer,163934,confidence_buffer,,null,,,,,,,,,,,,,,,,,,,,
null,,thebreak,164436,break,,null,,,,,,,,,,,,,,,,,,,,
7353.9000000003725,,familiar_rating,171791,Fictional_Cities_List/img_natural_46.png,,51,Fictional_Cities_List/img_natural_46.png,NAT,3,,,,,,,,,,,,,,,,,
null,,confidence_buffer,171894,confidence_buffer,,null,,,,,,,,,,,,,,,,,,,,
3052.4000000003725,,unique_rating,174947,Fictional_Cities_List/img_natural_46.png,,52,,,4,,,,,,,,,,,,,,,,,
null,,confidence_buffer,175049,confidence_buffer,,null,,,,,,,,,,,,,,,,,,,,
4300.699999999255,,memorable_rating,179350,Fictional_Cities_List/img_natural_46.png,,52,,,4,,,,,,,,,,,,,,,,,
null,,confidence_buffer,179452,confidence_buffer,,null,,,,,,,,,,,,,,,,,,,,
null,,thebreak,179953,break,,null,,,,,,,,,,,,,,,,,,,,
4070.5999999996275,,familiar_rating,184025,Fictional_Cities_List/img_natural_10.png,,50,Fictional_Cities_List/img_natural_10.png,NAT,2,,,,,,,,,,,,,,,,,
null,,confidence_buffer,184127,confidence_buffer,,null,,,,,,,,,,,,,,,,,,,,
2354.0999999996275,,unique_rating,186482,Fictional_Cities_List/img_natural_10.png,,52,,,4,,,,,,,,,,,,,,,,,
null,,confidence_buffer,186585,confidence_buffer,,null,,,,,,,,,,,,,,,,,,,,
2744.4000000003725,,memorable_rating,189330,Fictional_Cities_List/img_natural_10.png,,52,,,4,,,,,,,,,,,,,,,,,
null,,confidence_buffer,189432,confidence_buffer,,null,,,,,,,,,,,,,,,,,,,,
null,,thebreak,189934,break,,null,,,,,,,,,,,,,,,,,,,,
26984.5,,familiar_rating,216917,US_Cities_List/mm_peoria.png,,50,US_Cities_List/mm_peoria.png,MM,2,,,,,,,,,,,,,,,,,
null,,confidence_buffer,217020,confidence_buffer,,null,,,,,,,,,,,,,,,,,,,,
3555.5999999996275,,unique_rating,220577,US_Cities_List/mm_peoria.png,,51,,,3,,,,,,,,,,,,,,,,,
null,,confidence_buffer,220679,confidence_buffer,,null,,,,,,,,,,,,,,,,,,,,
4457.9000000003725,,probe_rating,225138,probe_rating,,53,,,,5,1,,,,,,,,,,,,,,,
null,,confidence_buffer,225240,confidence_buffer,,null,,,,,,,,,,,,,,,,,,,,
2889.5999999996275,,memorable_rating,228131,US_Cities_List/mm_peoria.png,,51,,,3,,,,,,,,,,,,,,,,,
null,,confidence_buffer,228233,confidence_buffer,,null,,,,,,,,,,,,,,,,,,,,
null,,thebreak,228734,break,,null,,,,,,,,,,,,,,,,,,,,
2612,,familiar_rating,231347,Fictional_Cities_List/img_natural_14.png,,50,Fictional_Cities_List/img_natural_14.png,NAT,2,,,,,,,,,,,,,,,,,
null,,confidence_buffer,231449,confidence_buffer,,null,,,,,,,,,,,,,,,,,,,,
2296.9000000003725,,unique_rating,233747,Fictional_Cities_List/img_natural_14.png,,50,,,2,,,,,,,,,,,,,,,,,
null,,confidence_buffer,233850,confidence_buffer,,null,,,,,,,,,,,,,,,,,,,,
2114.60000000149,,memorable_rating,235966,Fictional_Cities_List/img_natural_14.png,,51,,,3,,,,,,,,,,,,,,,,,
null,,confidence_buffer,236068,confidence_buffer,,null,,,,,,,,,,,,,,,,,,,,
null,,thebreak,236571,break,,null,,,,,,,,,,,,,,,,,,,,
3629,,familiar_rating,240200,Fictional_Cities_List/img_manmade_46.png,,49,Fictional_Cities_List/img_manmade_46.png,MM,1,,,,,,,,,,,,,,,,,
null,,confidence_buffer,240303,confidence_buffer,,null,,,,,,,,,,,,,,,,,,,,
1513.2999999988824,,unique_rating,241817,Fictional_Cities_List/img_manmade_46.png,,50,,,2,,,,,,,,,,,,,,,,,
null,,confidence_buffer,241919,confidence_buffer,,null,,,,,,,,,,,,,,,,,,,,
3470.800000000745,,memorable_rating,245390,Fictional_Cities_List/img_manmade_46.png,,51,,,3,,,,,,,,,,,,,,,,,
null,,confidence_buffer,245493,confidence_buffer,,null,,,,,,,,,,,,,,,,,,,,
null,,thebreak,245995,break,,null,,,,,,,,,,,,,,,,,,,,
5278.699999999255,,familiar_rating,251275,US_Cities_List/nat_peoria.png,,49,US_Cities_List/nat_peoria.png,NAT,1,,,,,,,,,,,,,,,,,
null,,confidence_buffer,251378,confidence_buffer,,null,,,,,,,,,,,,,,,,,,,,
1797.0999999996275,,unique_rating,253176,US_Cities_List/nat_peoria.png,,51,,,3,,,,,,,,,,,,,,,,,
null,,confidence_buffer,253279,confidence_buffer,,null,,,,,,,,,,,,,,,,,,,,
11938,,probe_rating,265217,probe_rating,,51,,,,3,1,,,,,,,,,,,,,,,
null,,confidence_buffer,265320,confidence_buffer,,null,,,,,,,,,,,,,,,,,,,,
1881.300000000745,,memorable_rating,267202,US_Cities_List/nat_peoria.png,,50,,,2,,,,,,,,,,,,,,,,,
null,,confidence_buffer,267304,confidence_buffer,,null,,,,,,,,,,,,,,,,,,,,
null,,thebreak,267807,break,,null,,,,,,,,,,,,,,,,,,,,
3265.5999999996275,,familiar_rating,271074,US_Cities_List/nat_okoboji.png,,51,US_Cities_List/nat_okoboji.png,NAT,3,,,,,,,,,,,,,,,,,
null,,confidence_buffer,271175,confidence_buffer,,null,,,,,,,,,,,,,,,,,,,,
1796.5,,unique_rating,272973,US_Cities_List/nat_okoboji.png,,50,,,2,,,,,,,,,,,,,,,,,
null,,confidence_buffer,273075,confidence_buffer,,null,,,,,,,,,,,,,,,,,,,,
2491.5,,memorable_rating,275567,US_Cities_List/nat_okoboji.png,,51,,,3,,,,,,,,,,,,,,,,,
null,,confidence_buffer,275670,confidence_buffer,,null,,,,,,,,,,,,,,,,,,,,
null,,thebreak,276172,break,,null,,,,,,,,,,,,,,,,,,,,
5727.0999999996275,,familiar_rating,281900,US_Cities_List/mm_healdsburg.png,,50,US_Cities_List/mm_healdsburg.png,MM,2,,,,,,,,,,,,,,,,,
null,,confidence_buffer,282002,confidence_buffer,,null,,,,,,,,,,,,,,,,,,,,
2908.4000000003725,,unique_rating,284911,US_Cities_List/mm_healdsburg.png,,51,,,3,,,,,,,,,,,,,,,,,
null,,confidence_buffer,285013,confidence_buffer,,null,,,,,,,,,,,,,,,,,,,,
1439.800000000745,,memorable_rating,286454,US_Cities_List/mm_healdsburg.png,,51,,,3,,,,,,,,,,,,,,,,,
null,,confidence_buffer,286556,confidence_buffer,,null,,,,,,,,,,,,,,,,,,,,
1809,,probe_rating,288366,probe_rating,,53,,,,5,1,,,,,,,,,,,,,,,
null,,confidence_buffer,288468,confidence_buffer,,null,,,,,,,,,,,,,,,,,,,,
null,,thebreak,288971,break,,null,,,,,,,,,,,,,,,,,,,,
4409.700000001118,,familiar_rating,293382,Fictional_Cities_List/img_manmade_19.png,,49,Fictional_Cities_List/img_manmade_19.png,MM,1,,,,,,,,,,,,,,,,,
null,,confidence_buffer,293483,confidence_buffer,,null,,,,,,,,,,,,,,,,,,,,
3445.199999999255,,unique_rating,296929,Fictional_Cities_List/img_manmade_19.png,,52,,,4,,,,,,,,,,,,,,,,,
null,,confidence_buffer,297030,confidence_buffer,,null,,,,,,,,,,,,,,,,,,,,
1790.5999999996275,,memorable_rating,298822,Fictional_Cities_List/img_manmade_19.png,,52,,,4,,,,,,,,,,,,,,,,,
null,,confidence_buffer,298924,confidence_buffer,,null,,,,,,,,,,,,,,,,,,,,
null,,thebreak,299427,break,,null,,,,,,,,,,,,,,,,,,,,
5850.4000000003725,,familiar_rating,305278,Fictional_Cities_List/img_manmade_14.png,,49,Fictional_Cities_List/img_manmade_14.png,MM,1,,,,,,,,,,,,,,,,,
null,,confidence_buffer,305380,confidence_buffer,,null,,,,,,,,,,,,,,,,,,,,
1269,,unique_rating,306650,Fictional_Cities_List/img_manmade_14.png,,51,,,3,,,,,,,,,,,,,,,,,
null,,confidence_buffer,306752,confidence_buffer,,null,,,,,,,,,,,,,,,,,,,,
3054.9000000003725,,memorable_rating,309807,Fictional_Cities_List/img_manmade_14.png,,51,,,3,,,,,,,,,,,,,,,,,
null,,confidence_buffer,309911,confidence_buffer,,null,,,,,,,,,,,,,,,,,,,,
null,,thebreak,310413,break,,null,,,,,,,,,,,,,,,,,,,,
5095.800000000745,,familiar_rating,315510,US_Cities_List/mm_coeurdalene.png,,50,US_Cities_List/mm_coeurdalene.png,MM,2,,,,,,,,,,,,,,,,,
null,,confidence_buffer,315613,confidence_buffer,,null,,,,,,,,,,,,,,,,,,,,
2068.5,,probe_rating,317682,probe_rating,,52,,,,4,1,,,,,,,,,,,,,,,
null,,confidence_buffer,317785,confidence_buffer,,null,,,,,,,,,,,,,,,,,,,,
3262.699999999255,,unique_rating,321049,US_Cities_List/mm_coeurdalene.png,,50,,,2,,,,,,,,,,,,,,,,,
null,,confidence_buffer,321150,confidence_buffer,,null,,,,,,,,,,,,,,,,,,,,
2332.5,,memorable_rating,323484,US_Cities_List/mm_coeurdalene.png,,50,,,2,,,,,,,,,,,,,,,,,
null,,confidence_buffer,323586,confidence_buffer,,null,,,,,,,,,,,,,,,,,,,,
null,,thebreak,324088,break,,null,,,,,,,,,,,,,,,,,,,,
3221,,familiar_rating,327310,Fictional_Cities_List/img_manmade_35.png,,49,Fictional_Cities_List/img_manmade_35.png,MM,1,,,,,,,,,,,,,,,,,
null,,confidence_buffer,327412,confidence_buffer,,null,,,,,,,,,,,,,,,,,,,,
1631.2000000011176,,unique_rating,329044,Fictional_Cities_List/img_manmade_35.png,,51,,,3,,,,,,,,,,,,,,,,,
null,,confidence_buffer,329146,confidence_buffer,,null,,,,,,,,,,,,,,,,,,,,
1351.5999999996275,,memorable_rating,330499,Fictional_Cities_List/img_manmade_35.png,,51,,,3,,,,,,,,,,,,,,,,,
null,,confidence_buffer,330602,confidence_buffer,,null,,,,,,,,,,,,,,,,,,,,
null,,thebreak,331105,break,,null,,,,,,,,,,,,,,,,,,,,
2330.300000000745,,familiar_rating,333436,Fictional_Cities_List/img_natural_43.png,,49,Fictional_Cities_List/img_natural_43.png,NAT,1,,,,,,,,,,,,,,,,,
null,,confidence_buffer,333538,confidence_buffer,,null,,,,,,,,,,,,,,,,,,,,
1973.5,,unique_rating,335513,Fictional_Cities_List/img_natural_43.png,,52,,,4,,,,,,,,,,,,,,,,,
null,,confidence_buffer,335615,confidence_buffer,,null,,,,,,,,,,,,,,,,,,,,
1794,,memorable_rating,337409,Fictional_Cities_List/img_natural_43.png,,53,,,5,,,,,,,,,,,,,,,,,
null,,confidence_buffer,337512,confidence_buffer,,null,,,,,,,,,,,,,,,,,,,,
null,,thebreak,338014,break,,null,,,,,,,,,,,,,,,,,,,,
1996.699999999255,,familiar_rating,340012,US_Cities_List/nat_hotsprings.png,,50,US_Cities_List/nat_hotsprings.png,NAT,2,,,,,,,,,,,,,,,,,
null,,confidence_buffer,340115,confidence_buffer,,null,,,,,,,,,,,,,,,,,,,,
3198.7000000011176,,unique_rating,343314,US_Cities_List/nat_hotsprings.png,,50,,,2,,,,,,,,,,,,,,,,,
null,,confidence_buffer,343417,confidence_buffer,,null,,,,,,,,,,,,,,,,,,,,
1455.8999999985099,,memorable_rating,344873,US_Cities_List/nat_hotsprings.png,,51,,,3,,,,,,,,,,,,,,,,,
null,,confidence_buffer,344975,confidence_buffer,,null,,,,,,,,,,,,,,,,,,,,
null,,thebreak,345477,break,,null,,,,,,,,,,,,,,,,,,,,
5083.5,,familiar_rating,350561,US_Cities_List/mm_okoboji.png,,49,US_Cities_List/mm_okoboji.png,MM,1,,,,,,,,,,,,,,,,,
null,,confidence_buffer,350664,confidence_buffer,,null,,,,,,,,,,,,,,,,,,,,
2317.199999999255,,unique_rating,352982,US_Cities_List/mm_okoboji.png,,52,,,4,,,,,,,,,,,,,,,,,
null,,confidence_buffer,353084,confidence_buffer,,null,,,,,,,,,,,,,,,,,,,,
2486.4000000003725,,memorable_rating,355571,US_Cities_List/mm_okoboji.png,,52,,,4,,,,,,,,,,,,,,,,,
null,,confidence_buffer,355673,confidence_buffer,,null,,,,,,,,,,,,,,,,,,,,
null,,thebreak,356175,break,,null,,,,,,,,,,,,,,,,,,,,
2459.9000000003725,,familiar_rating,358636,Fictional_Cities_List/img_natural_39.png,,51,Fictional_Cities_List/img_natural_39.png,NAT,3,,,,,,,,,,,,,,,,,
null,,confidence_buffer,358738,confidence_buffer,,null,,,,,,,,,,,,,,,,,,,,
3364.9000000003725,,unique_rating,362104,Fictional_Cities_List/img_natural_39.png,,51,,,3,,,,,,,,,,,,,,,,,
null,,confidence_buffer,362205,confidence_buffer,,null,,,,,,,,,,,,,,,,,,,,
1724.5,,memorable_rating,363930,Fictional_Cities_List/img_natural_39.png,,51,,,3,,,,,,,,,,,,,,,,,
null,,confidence_buffer,364033,confidence_buffer,,null,,,,,,,,,,,,,,,,,,,,
null,,thebreak,364534,break,,null,,,,,,,,,,,,,,,,,,,,
3002.2000000011176,,familiar_rating,367537,US_Cities_List/nat_athens.png,,51,US_Cities_List/nat_athens.png,NAT,3,,,,,,,,,,,,,,,,,
null,,confidence_buffer,367640,confidence_buffer,,null,,,,,,,,,,,,,,,,,,,,
2300.5,,unique_rating,369941,US_Cities_List/nat_athens.png,,50,,,2,,,,,,,,,,,,,,,,,
null,,confidence_buffer,370044,confidence_buffer,,null,,,,,,,,,,,,,,,,,,,,
1889.199999999255,,memorable_rating,371934,US_Cities_List/nat_athens.png,,50,,,2,,,,,,,,,,,,,,,,,
null,,confidence_buffer,372036,confidence_buffer,,null,,,,,,,,,,,,,,,,,,,,
null,,thebreak,372538,break,,null,,,,,,,,,,,,,,,,,,,,
5916.39999999851,,familiar_rating,378455,US_Cities_List/nat_sitka.png,,51,US_Cities_List/nat_sitka.png,NAT,3,,,,,,,,,,,,,,,,,
null,,confidence_buffer,378558,confidence_buffer,,null,,,,,,,,,,,,,,,,,,,,
2035,,unique_rating,380594,US_Cities_List/nat_sitka.png,,53,,,5,,,,,,,,,,,,,,,,,
null,,confidence_buffer,380697,confidence_buffer,,null,,,,,,,,,,,,,,,,,,,,
5025.300000000745,,memorable_rating,385723,US_Cities_List/nat_sitka.png,,53,,,5,,,,,,,,,,,,,,,,,
null,,confidence_buffer,385825,confidence_buffer,,null,,,,,,,,,,,,,,,,,,,,
null,,thebreak,386328,break,,null,,,,,,,,,,,,,,,,,,,,
3178.800000000745,,familiar_rating,389508,Fictional_Cities_List/img_manmade_06.png,,49,Fictional_Cities_List/img_manmade_06.png,MM,1,,,,,,,,,,,,,,,,,
null,,confidence_buffer,389611,confidence_buffer,,null,,,,,,,,,,,,,,,,,,,,
1711.300000000745,,unique_rating,391323,Fictional_Cities_List/img_manmade_06.png,,50,,,2,,,,,,,,,,,,,,,,,
null,,confidence_buffer,391425,confidence_buffer,,null,,,,,,,,,,,,,,,,,,,,
904.5999999996275,,memorable_rating,392331,Fictional_Cities_List/img_manmade_06.png,,50,,,2,,,,,,,,,,,,,,,,,
null,,confidence_buffer,392433,confidence_buffer,,null,,,,,,,,,,,,,,,,,,,,
null,,thebreak,392936,break,,null,,,,,,,,,,,,,,,,,,,,
3115.800000000745,,familiar_rating,396053,US_Cities_List/mm_hilo.png,,49,US_Cities_List/mm_hilo.png,MM,1,,,,,,,,,,,,,,,,,
null,,confidence_buffer,396156,confidence_buffer,,null,,,,,,,,,,,,,,,,,,,,
4924.199999999255,,probe_rating,401080,probe_rating,,51,,,,3,1,,,,,,,,,,,,,,,
null,,confidence_buffer,401183,confidence_buffer,,null,,,,,,,,,,,,,,,,,,,,
1959.5,,unique_rating,403144,US_Cities_List/mm_hilo.png,,52,,,4,,,,,,,,,,,,,,,,,
null,,confidence_buffer,403246,confidence_buffer,,null,,,,,,,,,,,,,,,,,,,,
2126.9000000003725,,memorable_rating,405374,US_Cities_List/mm_hilo.png,,53,,,5,,,,,,,,,,,,,,,,,
null,,confidence_buffer,405476,confidence_buffer,,null,,,,,,,,,,,,,,,,,,,,
null,,thebreak,405977,break,,null,,,,,,,,,,,,,,,,,,,,
3375.0999999996275,,familiar_rating,409353,Fictional_Cities_List/img_natural_24.png,,50,Fictional_Cities_List/img_natural_24.png,NAT,2,,,,,,,,,,,,,,,,,
null,,confidence_buffer,409456,confidence_buffer,,null,,,,,,,,,,,,,,,,,,,,
1526.2999999988824,,unique_rating,410983,Fictional_Cities_List/img_natural_24.png,,53,,,5,,,,,,,,,,,,,,,,,
null,,confidence_buffer,411086,confidence_buffer,,null,,,,,,,,,,,,,,,,,,,,
994.0999999996275,,memorable_rating,412081,Fictional_Cities_List/img_natural_24.png,,53,,,5,,,,,,,,,,,,,,,,,
null,,confidence_buffer,412184,confidence_buffer,,null,,,,,,,,,,,,,,,,,,,,
null,,thebreak,412686,break,,null,,,,,,,,,,,,,,,,,,,,
2687.0999999996275,,familiar_rating,415374,Fictional_Cities_List/img_natural_29.png,,50,Fictional_Cities_List/img_natural_29.png,NAT,2,,,,,,,,,,,,,,,,,
null,,confidence_buffer,415476,confidence_buffer,,null,,,,,,,,,,,,,,,,,,,,
1552.5,,unique_rating,417029,Fictional_Cities_List/img_natural_29.png,,53,,,5,,,,,,,,,,,,,,,,,
null,,confidence_buffer,417131,confidence_buffer,,null,,,,,,,,,,,,,,,,,,,,
1244.2000000011176,,probe_rating,418377,probe_rating,,52,,,,4,1,,,,,,,,,,,,,,,
null,,confidence_buffer,418479,confidence_buffer,,null,,,,,,,,,,,,,,,,,,,,
1184.300000000745,,memorable_rating,419664,Fictional_Cities_List/img_natural_29.png,,53,,,5,,,,,,,,,,,,,,,,,
null,,confidence_buffer,419767,confidence_buffer,,null,,,,,,,,,,,,,,,,,,,,
null,,thebreak,420269,break,,null,,,,,,,,,,,,,,,,,,,,
6224.60000000149,,familiar_rating,426494,US_Cities_List/nat_boulder.png,,50,US_Cities_List/nat_boulder.png,NAT,2,,,,,,,,,,,,,,,,,
null,,confidence_buffer,426596,confidence_buffer,,null,,,,,,,,,,,,,,,,,,,,
1004.4000000003725,,unique_rating,427601,US_Cities_List/nat_boulder.png,,51,,,3,,,,,,,,,,,,,,,,,
null,,confidence_buffer,427704,confidence_buffer,,null,,,,,,,,,,,,,,,,,,,,
1346,,memorable_rating,429051,US_Cities_List/nat_boulder.png,,51,,,3,,,,,,,,,,,,,,,,,
null,,confidence_buffer,429154,confidence_buffer,,null,,,,,,,,,,,,,,,,,,,,
null,,thebreak,429656,break,,null,,,,,,,,,,,,,,,,,,,,
2720.4000000003725,,familiar_rating,432377,Fictional_Cities_List/img_manmade_21.png,,50,Fictional_Cities_List/img_manmade_21.png,MM,2,,,,,,,,,,,,,,,,,
null,,confidence_buffer,432480,confidence_buffer,,null,,,,,,,,,,,,,,,,,,,,
1837.4000000003725,,unique_rating,434318,Fictional_Cities_List/img_manmade_21.png,,51,,,3,,,,,,,,,,,,,,,,,
null,,confidence_buffer,434420,confidence_buffer,,null,,,,,,,,,,,,,,,,,,,,
929.0999999996275,,memorable_rating,435350,Fictional_Cities_List/img_manmade_21.png,,51,,,3,,,,,,,,,,,,,,,,,
null,,confidence_buffer,435453,confidence_buffer,,null,,,,,,,,,,,,,,,,,,,,
null,,thebreak,435956,break,,null,,,,,,,,,,,,,,,,,,,,
2706.39999999851,,familiar_rating,438663,US_Cities_List/mm_carmel.png,,50,US_Cities_List/mm_carmel.png,MM,2,,,,,,,,,,,,,,,,,
null,,confidence_buffer,438765,confidence_buffer,,null,,,,,,,,,,,,,,,,,,,,
1833.300000000745,,unique_rating,440599,US_Cities_List/mm_carmel.png,,51,,,3,,,,,,,,,,,,,,,,,
null,,confidence_buffer,440702,confidence_buffer,,null,,,,,,,,,,,,,,,,,,,,
1007.1999999992549,,memorable_rating,441710,US_Cities_List/mm_carmel.png,,51,,,3,,,,,,,,,,,,,,,,,
null,,confidence_buffer,441811,confidence_buffer,,null,,,,,,,,,,,,,,,,,,,,
null,,thebreak,442314,break,,null,,,,,,,,,,,,,,,,,,,,
2347.7000000011176,,familiar_rating,444662,US_Cities_List/nat_coeurdalene.png,,50,US_Cities_List/nat_coeurdalene.png,NAT,2,,,,,,,,,,,,,,,,,
null,,confidence_buffer,444763,confidence_buffer,,null,,,,,,,,,,,,,,,,,,,,
1420,,probe_rating,446184,probe_rating,,51,,,,3,1,,,,,,,,,,,,,,,
null,,confidence_buffer,446287,confidence_buffer,,null,,,,,,,,,,,,,,,,,,,,
1849.5,,unique_rating,448137,US_Cities_List/nat_coeurdalene.png,,51,,,3,,,,,,,,,,,,,,,,,
null,,confidence_buffer,448240,confidence_buffer,,null,,,,,,,,,,,,,,,,,,,,
851.0999999996275,,memorable_rating,449092,US_Cities_List/nat_coeurdalene.png,,51,,,3,,,,,,,,,,,,,,,,,
null,,confidence_buffer,449195,confidence_buffer,,null,,,,,,,,,,,,,,,,,,,,
null,,thebreak,449697,break,,null,,,,,,,,,,,,,,,,,,,,
2748.2000000011176,,familiar_rating,452446,US_Cities_List/mm_cornwall.png,,50,US_Cities_List/mm_cornwall.png,MM,2,,,,,,,,,,,,,,,,,
null,,confidence_buffer,452548,confidence_buffer,,null,,,,,,,,,,,,,,,,,,,,
1521.2000000011176,,unique_rating,454070,US_Cities_List/mm_cornwall.png,,50,,,2,,,,,,,,,,,,,,,,,
null,,confidence_buffer,454173,confidence_buffer,,null,,,,,,,,,,,,,,,,,,,,
1674.5999999996275,,memorable_rating,455848,US_Cities_List/mm_cornwall.png,,50,,,2,,,,,,,,,,,,,,,,,
null,,confidence_buffer,455951,confidence_buffer,,null,,,,,,,,,,,,,,,,,,,,
null,,thebreak,456453,break,,null,,,,,,,,,,,,,,,,,,,,
6320.700000001118,,intro_0,462775,instruct,,32,,,,,,,,,,,,,,,,,,,,
8327.200000001118,,intro_1,471102,instruct,,32,,,,,,,,,,,,,,,,,,,,
17061.799999998882,,intro_2,488163,instruct,,32,,,,,,,,,,,,,,,,,,,,
null,,instruct_dir_4,489665,instruct,,null,,,,,,,,,,,,,,,,,,,,
9835.39999999851,,pt2_realistic_rating,499501,Fictional_Cities_List/img_natural_33.png,,51,Fictional_Cities_List/img_natural_33.png,NAT,3,,,,,,,,,,,,,,,,,
null,,confidence_buffer,499604,confidence_buffer,,null,,,,,,,,,,,,,,,,,,,,
4982.300000000745,,pt2_unique_rating,505096,Fictional_Cities_List/img_natural_33.png,,51,,,3,,,,,,,,,,,,,,,,,
null,,confidence_buffer,505198,confidence_buffer,,null,,,,,,,,,,,,,,,,,,,,
1816.5999999996275,,pt2_memorable_rating,507016,Fictional_Cities_List/img_natural_33.png,,51,,,3,,,,,,,,,,,,,,,,,
null,,confidence_buffer,507119,confidence_buffer,,null,,,,,,,,,,,,,,,,,,,,
1754.699999999255,,probe_rating,508875,probe_rating,,52,,,,4,1,,,,,,,,,,,,,,,
null,,confidence_buffer,508977,confidence_buffer,,null,,,,,,,,,,,,,,,,,,,,
2326.9000000003725,,recognition_phase,511305,Fictional_Cities_List/img_natural_33.png,,49,,,,,,old,0,0,,,,,,,,,,,,
null,,confidence_buffer,511408,confidence_buffer,,null,,,,,,,,,,,,,,,,,,,,
null,,thebreak,511911,break,,null,,,,,,,,,,,,,,,,,,,,
5223.700000001118,,pt2_realistic_rating,517136,Fictional_Cities_List/img_manmade_33.png,,50,Fictional_Cities_List/img_manmade_33.png,MM,2,,,,,,,,,,,,,,,,,
null,,confidence_buffer,517238,confidence_buffer,,null,,,,,,,,,,,,,,,,,,,,
2568,,pt2_unique_rating,519807,Fictional_Cities_List/img_manmade_33.png,,51,,,3,,,,,,,,,,,,,,,,,
null,,confidence_buffer,519910,confidence_buffer,,null,,,,,,,,,,,,,,,,,,,,
1623.699999999255,,pt2_memorable_rating,521534,Fictional_Cities_List/img_manmade_33.png,,51,,,3,,,,,,,,,,,,,,,,,
null,,confidence_buffer,521636,confidence_buffer,,null,,,,,,,,,,,,,,,,,,,,
1799.199999999255,,recognition_phase,523436,Fictional_Cities_List/img_manmade_33.png,,49,,,,,,old,0,0,,,,,,,,,,,,
null,,confidence_buffer,523538,confidence_buffer,,null,,,,,,,,,,,,,,,,,,,,
null,,thebreak,524041,break,,null,,,,,,,,,,,,,,,,,,,,
10124.800000000745,,pt2_realistic_rating,534167,Fictional_Cities_List/img_natural_35.png,,51,Fictional_Cities_List/img_natural_35.png,NAT,3,,,,,,,,,,,,,,,,,
null,,confidence_buffer,534268,confidence_buffer,,null,,,,,,,,,,,,,,,,,,,,
2015.2000000011176,,pt2_unique_rating,536284,Fictional_Cities_List/img_natural_35.png,,51,,,3,,,,,,,,,,,,,,,,,
null,,confidence_buffer,536387,confidence_buffer,,null,,,,,,,,,,,,,,,,,,,,
1248.6000000014901,,pt2_memorable_rating,537637,Fictional_Cities_List/img_natural_35.png,,51,,,3,,,,,,,,,,,,,,,,,
null,,confidence_buffer,537740,confidence_buffer,,null,,,,,,,,,,,,,,,,,,,,
1944.5,,recognition_phase,539686,Fictional_Cities_List/img_natural_35.png,,52,,,,,,new,1,0.3333333333333333,,,,,,,,,,,,
null,,confidence_buffer,539788,confidence_buffer,,null,,,,,,,,,,,,,,,,,,,,
null,,thebreak,540291,break,,null,,,,,,,,,,,,,,,,,,,,
6157.699999999255,,pt2_realistic_rating,546450,US_Cities_List/nat_peoria.png,,53,US_Cities_List/nat_peoria.png,NAT,5,,,,,,,,,,,,,,,,,
null,,confidence_buffer,546551,confidence_buffer,,null,,,,,,,,,,,,,,,,,,,,
2085,,pt2_unique_rating,548637,US_Cities_List/nat_peoria.png,,51,,,3,,,,,,,,,,,,,,,,,
null,,confidence_buffer,548739,confidence_buffer,,null,,,,,,,,,,,,,,,,,,,,
4547.5,,pt2_memorable_rating,553287,US_Cities_List/nat_peoria.png,,51,,,3,,,,,,,,,,,,,,,,,
null,,confidence_buffer,553389,confidence_buffer,,null,,,,,,,,,,,,,,,,,,,,
2035.699999999255,,recognition_phase,555426,US_Cities_List/nat_peoria.png,,49,,,,,,old,1,0.5,,,,,,,,,,,,
null,,confidence_buffer,555528,confidence_buffer,,null,,,,,,,,,,,,,,,,,,,,
null,,thebreak,556031,break,,null,,,,,,,,,,,,,,,,,,,,
3620.89999999851,,pt2_realistic_rating,559653,US_Cities_List/nat_hilo.png,,51,US_Cities_List/nat_hilo.png,NAT,3,,,,,,,,,,,,,,,,,
null,,confidence_buffer,559755,confidence_buffer,,null,,,,,,,,,,,,,,,,,,,,
1979.5,,pt2_unique_rating,561736,US_Cities_List/nat_hilo.png,,51,,,3,,,,,,,,,,,,,,,,,
null,,confidence_buffer,561839,confidence_buffer,,null,,,,,,,,,,,,,,,,,,,,
1354,,pt2_memorable_rating,563193,US_Cities_List/nat_hilo.png,,51,,,3,,,,,,,,,,,,,,,,,
null,,confidence_buffer,563296,confidence_buffer,,null,,,,,,,,,,,,,,,,,,,,
3222,,recognition_phase,566518,US_Cities_List/nat_hilo.png,,52,,,,,,new,1,0.6,,,,,,,,,,,,
null,,confidence_buffer,566621,confidence_buffer,,null,,,,,,,,,,,,,,,,,,,,
null,,thebreak,567123,break,,null,,,,,,,,,,,,,,,,,,,,
3532.699999999255,,pt2_realistic_rating,570657,US_Cities_List/mm_hilo.png,,52,US_Cities_List/mm_hilo.png,MM,4,,,,,,,,,,,,,,,,,
null,,confidence_buffer,570760,confidence_buffer,,null,,,,,,,,,,,,,,,,,,,,
2338.60000000149,,pt2_unique_rating,573100,US_Cities_List/mm_hilo.png,,51,,,3,,,,,,,,,,,,,,,,,
null,,confidence_buffer,573203,confidence_buffer,,null,,,,,,,,,,,,,,,,,,,,
1576.800000000745,,pt2_memorable_rating,574780,US_Cities_List/mm_hilo.png,,52,,,4,,,,,,,,,,,,,,,,,
null,,confidence_buffer,574883,confidence_buffer,,null,,,,,,,,,,,,,,,,,,,,
2746.599999997765,,recognition_phase,577630,US_Cities_List/mm_hilo.png,,49,,,,,,old,1,0.6666666666666666,,,,,,,,,,,,
null,,confidence_buffer,577733,confidence_buffer,,null,,,,,,,,,,,,,,,,,,,,
null,,thebreak,578236,break,,null,,,,,,,,,,,,,,,,,,,,
3052.5,,pt2_realistic_rating,581290,Fictional_Cities_List/img_natural_19.png,,49,Fictional_Cities_List/img_natural_19.png,NAT,1,,,,,,,,,,,,,,,,,
null,,confidence_buffer,581393,confidence_buffer,,null,,,,,,,,,,,,,,,,,,,,
2855.5,,pt2_unique_rating,584249,Fictional_Cities_List/img_natural_19.png,,51,,,3,,,,,,,,,,,,,,,,,
null,,confidence_buffer,584352,confidence_buffer,,null,,,,,,,,,,,,,,,,,,,,
5612.5,,pt2_memorable_rating,589965,Fictional_Cities_List/img_natural_19.png,,51,,,3,,,,,,,,,,,,,,,,,
null,,confidence_buffer,590068,confidence_buffer,,null,,,,,,,,,,,,,,,,,,,,
2840.099999997765,,recognition_phase,592909,Fictional_Cities_List/img_natural_19.png,,49,,,,,,old,1,0.7142857142857143,,,,,,,,,,,,
null,,confidence_buffer,593011,confidence_buffer,,null,,,,,,,,,,,,,,,,,,,,
null,,thebreak,593514,break,,null,,,,,,,,,,,,,,,,,,,,
8049.199999999255,,pt2_realistic_rating,601564,US_Cities_List/mm_delawarecity.png,,51,US_Cities_List/mm_delawarecity.png,MM,3,,,,,,,,,,,,,,,,,
null,,confidence_buffer,601668,confidence_buffer,,null,,,,,,,,,,,,,,,,,,,,
1048.7999999970198,,pt2_unique_rating,602717,US_Cities_List/mm_delawarecity.png,,51,,,3,,,,,,,,,,,,,,,,,
null,,confidence_buffer,602820,confidence_buffer,,null,,,,,,,,,,,,,,,,,,,,
3717.10000000149,,pt2_memorable_rating,606538,US_Cities_List/mm_delawarecity.png,,50,,,2,,,,,,,,,,,,,,,,,
null,,confidence_buffer,606640,confidence_buffer,,null,,,,,,,,,,,,,,,,,,,,
1300.3999999985099,,probe_rating,607942,probe_rating,,51,,,,3,1,,,,,,,,,,,,,,,
null,,confidence_buffer,608044,confidence_buffer,,null,,,,,,,,,,,,,,,,,,,,
3487.5,,recognition_phase,611533,US_Cities_List/mm_delawarecity.png,,50,,,,,,old,0,0.625,,,,,,,,,,,,
null,,confidence_buffer,611634,confidence_buffer,,null,,,,,,,,,,,,,,,,,,,,
null,,thebreak,612137,break,,null,,,,,,,,,,,,,,,,,,,,
4975,,pt2_realistic_rating,617113,Fictional_Cities_List/img_manmade_19.png,,51,Fictional_Cities_List/img_manmade_19.png,MM,3,,,,,,,,,,,,,,,,,
null,,confidence_buffer,617216,confidence_buffer,,null,,,,,,,,,,,,,,,,,,,,
1455.3999999985099,,probe_rating,618672,probe_rating,,52,,,,4,1,,,,,,,,,,,,,,,
null,,confidence_buffer,618775,confidence_buffer,,null,,,,,,,,,,,,,,,,,,,,
2532.39999999851,,pt2_unique_rating,621308,Fictional_Cities_List/img_manmade_19.png,,52,,,4,,,,,,,,,,,,,,,,,
null,,confidence_buffer,621411,confidence_buffer,,null,,,,,,,,,,,,,,,,,,,,
2511.400000002235,,pt2_memorable_rating,623923,Fictional_Cities_List/img_manmade_19.png,,52,,,4,,,,,,,,,,,,,,,,,
null,,confidence_buffer,624025,confidence_buffer,,null,,,,,,,,,,,,,,,,,,,,
3352.699999999255,,recognition_phase,627379,Fictional_Cities_List/img_manmade_19.png,,49,,,,,,old,1,0.6666666666666666,,,,,,,,,,,,
null,,confidence_buffer,627480,confidence_buffer,,null,,,,,,,,,,,,,,,,,,,,
null,,thebreak,627983,break,,null,,,,,,,,,,,,,,,,,,,,
8597.20000000298,,pt2_realistic_rating,636581,Fictional_Cities_List/img_natural_24.png,,50,Fictional_Cities_List/img_natural_24.png,NAT,2,,,,,,,,,,,,,,,,,
null,,confidence_buffer,636684,confidence_buffer,,null,,,,,,,,,,,,,,,,,,,,
5462.10000000149,,pt2_unique_rating,642147,Fictional_Cities_List/img_natural_24.png,,51,,,3,,,,,,,,,,,,,,,,,
null,,confidence_buffer,642250,confidence_buffer,,null,,,,,,,,,,,,,,,,,,,,
1707,,pt2_memorable_rating,643958,Fictional_Cities_List/img_natural_24.png,,51,,,3,,,,,,,,,,,,,,,,,
null,,confidence_buffer,644060,confidence_buffer,,null,,,,,,,,,,,,,,,,,,,,
1821.699999999255,,recognition_phase,645883,Fictional_Cities_List/img_natural_24.png,,49,,,,,,old,1,0.7,,,,,,,,,,,,
null,,confidence_buffer,645985,confidence_buffer,,null,,,,,,,,,,,,,,,,,,,,
null,,thebreak,646487,break,,null,,,,,,,,,,,,,,,,,,,,
5440.599999997765,,pt2_realistic_rating,651928,US_Cities_List/mm_healdsburg.png,,52,US_Cities_List/mm_healdsburg.png,MM,4,,,,,,,,,,,,,,,,,
null,,confidence_buffer,652031,confidence_buffer,,null,,,,,,,,,,,,,,,,,,,,
2105.599999997765,,pt2_unique_rating,654137,US_Cities_List/mm_healdsburg.png,,51,,,3,,,,,,,,,,,,,,,,,
null,,confidence_buffer,654240,confidence_buffer,,null,,,,,,,,,,,,,,,,,,,,
1238.800000000745,,probe_rating,655480,probe_rating,,52,,,,4,1,,,,,,,,,,,,,,,
null,,confidence_buffer,655582,confidence_buffer,,null,,,,,,,,,,,,,,,,,,,,
4209,,pt2_memorable_rating,659792,US_Cities_List/mm_healdsburg.png,,51,,,3,,,,,,,,,,,,,,,,,
null,,confidence_buffer,659894,confidence_buffer,,null,,,,,,,,,,,,,,,,,,,,
1601.5999999977648,,recognition_phase,661497,US_Cities_List/mm_healdsburg.png,,49,,,,,,old,1,0.7272727272727273,,,,,,,,,,,,
null,,confidence_buffer,661600,confidence_buffer,,null,,,,,,,,,,,,,,,,,,,,
null,,thebreak,662103,break,,null,,,,,,,,,,,,,,,,,,,,
9594.39999999851,,pt2_realistic_rating,671698,US_Cities_List/nat_bisbee.png,,52,US_Cities_List/nat_bisbee.png,NAT,4,,,,,,,,,,,,,,,,,
null,,confidence_buffer,671801,confidence_buffer,,null,,,,,,,,,,,,,,,,,,,,
2147.300000000745,,pt2_unique_rating,673949,US_Cities_List/nat_bisbee.png,,51,,,3,,,,,,,,,,,,,,,,,
null,,confidence_buffer,674050,confidence_buffer,,null,,,,,,,,,,,,,,,,,,,,
2786.699999999255,,pt2_memorable_rating,676838,US_Cities_List/nat_bisbee.png,,52,,,4,,,,,,,,,,,,,,,,,
null,,confidence_buffer,676940,confidence_buffer,,null,,,,,,,,,,,,,,,,,,,,
2276.199999999255,,recognition_phase,679217,US_Cities_List/nat_bisbee.png,,52,,,,,,new,1,0.75,,,,,,,,,,,,
null,,confidence_buffer,679320,confidence_buffer,,null,,,,,,,,,,,,,,,,,,,,
null,,thebreak,679822,break,,null,,,,,,,,,,,,,,,,,,,,
9184.39999999851,,pt2_realistic_rating,689008,Fictional_Cities_List/img_manmade_24.png,,51,Fictional_Cities_List/img_manmade_24.png,MM,3,,,,,,,,,,,,,,,,,
null,,confidence_buffer,689110,confidence_buffer,,null,,,,,,,,,,,,,,,,,,,,
1768.199999999255,,pt2_unique_rating,690879,Fictional_Cities_List/img_manmade_24.png,,50,,,2,,,,,,,,,,,,,,,,,
null,,confidence_buffer,690982,confidence_buffer,,null,,,,,,,,,,,,,,,,,,,,
57.79999999701977,,pt2_memorable_rating,691041,Fictional_Cities_List/img_manmade_24.png,,50,,,2,,,,,,,,,,,,,,,,,
null,,confidence_buffer,691144,confidence_buffer,,null,,,,,,,,,,,,,,,,,,,,
4845.60000000149,,recognition_phase,695991,Fictional_Cities_List/img_manmade_24.png,,49,,,,,,old,1,0.7692307692307693,,,,,,,,,,,,
null,,confidence_buffer,696092,confidence_buffer,,null,,,,,,,,,,,,,,,,,,,,
null,,thebreak,696595,break,,null,,,,,,,,,,,,,,,,,,,,
3801.39999999851,,pt2_realistic_rating,700397,US_Cities_List/mm_abilene.png,,51,US_Cities_List/mm_abilene.png,MM,3,,,,,,,,,,,,,,,,,
null,,confidence_buffer,700500,confidence_buffer,,null,,,,,,,,,,,,,,,,,,,,
1044.6000000014901,,pt2_unique_rating,701545,US_Cities_List/mm_abilene.png,,51,,,3,,,,,,,,,,,,,,,,,
null,,confidence_buffer,701647,confidence_buffer,,null,,,,,,,,,,,,,,,,,,,,
2136.89999999851,,pt2_memorable_rating,703785,US_Cities_List/mm_abilene.png,,51,,,3,,,,,,,,,,,,,,,,,
null,,confidence_buffer,703887,confidence_buffer,,null,,,,,,,,,,,,,,,,,,,,
2140.800000000745,,recognition_phase,706029,US_Cities_List/mm_abilene.png,,52,,,,,,new,1,0.7857142857142857,,,,,,,,,,,,
null,,confidence_buffer,706131,confidence_buffer,,null,,,,,,,,,,,,,,,,,,,,
null,,thebreak,706634,break,,null,,,,,,,,,,,,,,,,,,,,
3624.800000000745,,pt2_realistic_rating,710260,US_Cities_List/nat_cornwall.png,,51,US_Cities_List/nat_cornwall.png,NAT,3,,,,,,,,,,,,,,,,,
null,,confidence_buffer,710363,confidence_buffer,,null,,,,,,,,,,,,,,,,,,,,
1489.699999999255,,pt2_unique_rating,711854,US_Cities_List/nat_cornwall.png,,51,,,3,,,,,,,,,,,,,,,,,
null,,confidence_buffer,711956,confidence_buffer,,null,,,,,,,,,,,,,,,,,,,,
2655,,pt2_memorable_rating,714612,US_Cities_List/nat_cornwall.png,,52,,,4,,,,,,,,,,,,,,,,,
null,,confidence_buffer,714714,confidence_buffer,,null,,,,,,,,,,,,,,,,,,,,
2654.60000000149,,recognition_phase,717370,US_Cities_List/nat_cornwall.png,,52,,,,,,new,1,0.8,,,,,,,,,,,,
null,,confidence_buffer,717472,confidence_buffer,,null,,,,,,,,,,,,,,,,,,,,
null,,thebreak,717974,break,,null,,,,,,,,,,,,,,,,,,,,
6354.5,,pt2_realistic_rating,724330,US_Cities_List/nat_delawarecity.png,,53,US_Cities_List/nat_delawarecity.png,NAT,5,,,,,,,,,,,,,,,,,
null,,confidence_buffer,724432,confidence_buffer,,null,,,,,,,,,,,,,,,,,,,,
2820.60000000149,,pt2_unique_rating,727253,US_Cities_List/nat_delawarecity.png,,50,,,2,,,,,,,,,,,,,,,,,
null,,confidence_buffer,727356,confidence_buffer,,null,,,,,,,,,,,,,,,,,,,,
2685,,pt2_memorable_rating,730042,US_Cities_List/nat_delawarecity.png,,50,,,2,,,,,,,,,,,,,,,,,
null,,confidence_buffer,730144,confidence_buffer,,null,,,,,,,,,,,,,,,,,,,,
3139.5,,recognition_phase,733284,US_Cities_List/nat_delawarecity.png,,51,,,,,,new,1,0.8125,,,,,,,,,,,,
null,,confidence_buffer,733387,confidence_buffer,,null,,,,,,,,,,,,,,,,,,,,
null,,thebreak,733889,break,,null,,,,,,,,,,,,,,,,,,,,
7789,,pt2_realistic_rating,741679,Fictional_Cities_List/img_manmade_06.png,,51,Fictional_Cities_List/img_manmade_06.png,MM,3,,,,,,,,,,,,,,,,,
null,,confidence_buffer,741782,confidence_buffer,,null,,,,,,,,,,,,,,,,,,,,
1708,,pt2_unique_rating,743491,Fictional_Cities_List/img_manmade_06.png,,50,,,2,,,,,,,,,,,,,,,,,
null,,confidence_buffer,743594,confidence_buffer,,null,,,,,,,,,,,,,,,,,,,,
1443.699999999255,,pt2_memorable_rating,745039,Fictional_Cities_List/img_manmade_06.png,,50,,,2,,,,,,,,,,,,,,,,,
null,,confidence_buffer,745142,confidence_buffer,,null,,,,,,,,,,,,,,,,,,,,
1055.199999999255,,probe_rating,746198,probe_rating,,49,,,,1,1,,,,,,,,,,,,,,,
null,,confidence_buffer,746301,confidence_buffer,,null,,,,,,,,,,,,,,,,,,,,
2429.800000000745,,recognition_phase,748731,Fictional_Cities_List/img_manmade_06.png,,49,,,,,,old,1,0.8235294117647058,,,,,,,,,,,,
null,,confidence_buffer,748834,confidence_buffer,,null,,,,,,,,,,,,,,,,,,,,
null,,thebreak,749336,break,,null,,,,,,,,,,,,,,,,,,,,
4602.900000002235,,pt2_realistic_rating,753940,Fictional_Cities_List/img_manmade_35.png,,49,Fictional_Cities_List/img_manmade_35.png,MM,1,,,,,,,,,,,,,,,,,
null,,confidence_buffer,754043,confidence_buffer,,null,,,,,,,,,,,,,,,,,,,,
2461.699999999255,,pt2_unique_rating,756506,Fictional_Cities_List/img_manmade_35.png,,50,,,2,,,,,,,,,,,,,,,,,
null,,confidence_buffer,756609,confidence_buffer,,null,,,,,,,,,,,,,,,,,,,,
1388.8999999985099,,pt2_memorable_rating,757999,Fictional_Cities_List/img_manmade_35.png,,50,,,2,,,,,,,,,,,,,,,,,
null,,confidence_buffer,758101,confidence_buffer,,null,,,,,,,,,,,,,,,,,,,,
1733.1000000014901,,recognition_phase,759835,Fictional_Cities_List/img_manmade_35.png,,49,,,,,,old,1,0.8333333333333334,,,,,,,,,,,,
null,,confidence_buffer,759938,confidence_buffer,,null,,,,,,,,,,,,,,,,,,,,
null,,thebreak,760441,break,,null,,,,,,,,,,,,,,,,,,,,
2539.300000000745,,pt2_realistic_rating,762981,Fictional_Cities_List/img_natural_39.png,,52,Fictional_Cities_List/img_natural_39.png,NAT,4,,,,,,,,,,,,,,,,,
null,,confidence_buffer,763083,confidence_buffer,,null,,,,,,,,,,,,,,,,,,,,
2032.300000000745,,pt2_unique_rating,765117,Fictional_Cities_List/img_natural_39.png,,52,,,4,,,,,,,,,,,,,,,,,
null,,confidence_buffer,765219,confidence_buffer,,null,,,,,,,,,,,,,,,,,,,,
4957.099999997765,,pt2_memorable_rating,770178,Fictional_Cities_List/img_natural_39.png,,51,,,3,,,,,,,,,,,,,,,,,
null,,confidence_buffer,770280,confidence_buffer,,null,,,,,,,,,,,,,,,,,,,,
1359.6000000014901,,recognition_phase,771641,Fictional_Cities_List/img_natural_39.png,,49,,,,,,old,1,0.8421052631578947,,,,,,,,,,,,
null,,confidence_buffer,771744,confidence_buffer,,null,,,,,,,,,,,,,,,,,,,,
null,,thebreak,772245,break,,null,,,,,,,,,,,,,,,,,,,,
4864,,pt2_realistic_rating,777110,Fictional_Cities_List/img_natural_06.png,,52,Fictional_Cities_List/img_natural_06.png,NAT,4,,,,,,,,,,,,,,,,,
null,,confidence_buffer,777213,confidence_buffer,,null,,,,,,,,,,,,,,,,,,,,
2037.199999999255,,pt2_unique_rating,779252,Fictional_Cities_List/img_natural_06.png,,52,,,4,,,,,,,,,,,,,,,,,
null,,confidence_buffer,779353,confidence_buffer,,null,,,,,,,,,,,,,,,,,,,,
2881.7999999970198,,pt2_memorable_rating,782236,Fictional_Cities_List/img_natural_06.png,,52,,,4,,,,,,,,,,,,,,,,,
null,,confidence_buffer,782339,confidence_buffer,,null,,,,,,,,,,,,,,,,,,,,
2940.099999997765,,recognition_phase,785280,Fictional_Cities_List/img_natural_06.png,,52,,,,,,new,1,0.85,,,,,,,,,,,,
null,,confidence_buffer,785383,confidence_buffer,,null,,,,,,,,,,,,,,,,,,,,
null,,thebreak,785886,break,,null,,,,,,,,,,,,,,,,,,,,
2981.2999999970198,,pt2_realistic_rating,788868,US_Cities_List/nat_sitka.png,,53,US_Cities_List/nat_sitka.png,NAT,5,,,,,,,,,,,,,,,,,
null,,confidence_buffer,788971,confidence_buffer,,null,,,,,,,,,,,,,,,,,,,,
3638,,pt2_unique_rating,792610,US_Cities_List/nat_sitka.png,,52,,,4,,,,,,,,,,,,,,,,,
null,,confidence_buffer,792712,confidence_buffer,,null,,,,,,,,,,,,,,,,,,,,
2061.5,,pt2_memorable_rating,794774,US_Cities_List/nat_sitka.png,,53,,,5,,,,,,,,,,,,,,,,,
null,,confidence_buffer,794876,confidence_buffer,,null,,,,,,,,,,,,,,,,,,,,
2122.800000000745,,recognition_phase,797000,US_Cities_List/nat_sitka.png,,49,,,,,,old,1,0.8571428571428571,,,,,,,,,,,,
null,,confidence_buffer,797101,confidence_buffer,,null,,,,,,,,,,,,,,,,,,,,
null,,thebreak,797604,break,,null,,,,,,,,,,,,,,,,,,,,
3661.5,,pt2_realistic_rating,801266,US_Cities_List/mm_westpalmbeach.png,,52,US_Cities_List/mm_westpalmbeach.png,MM,4,,,,,,,,,,,,,,,,,
null,,confidence_buffer,801368,confidence_buffer,,null,,,,,,,,,,,,,,,,,,,,
2434.199999999255,,pt2_unique_rating,803804,US_Cities_List/mm_westpalmbeach.png,,53,,,5,,,,,,,,,,,,,,,,,
null,,confidence_buffer,803905,confidence_buffer,,null,,,,,,,,,,,,,,,,,,,,
3996.599999997765,,pt2_memorable_rating,807903,US_Cities_List/mm_westpalmbeach.png,,53,,,5,,,,,,,,,,,,,,,,,
null,,confidence_buffer,808006,confidence_buffer,,null,,,,,,,,,,,,,,,,,,,,
2468.5,,recognition_phase,810475,US_Cities_List/mm_westpalmbeach.png,,52,,,,,,new,1,0.8636363636363636,,,,,,,,,,,,
null,,confidence_buffer,810578,confidence_buffer,,null,,,,,,,,,,,,,,,,,,,,
null,,thebreak,811080,break,,null,,,,,,,,,,,,,,,,,,,,
6026.699999999255,,pt2_realistic_rating,817108,US_Cities_List/mm_bisbee.png,,51,US_Cities_List/mm_bisbee.png,MM,3,,,,,,,,,,,,,,,,,
null,,confidence_buffer,817210,confidence_buffer,,null,,,,,,,,,,,,,,,,,,,,
1993.7999999970198,,pt2_unique_rating,819205,US_Cities_List/mm_bisbee.png,,50,,,2,,,,,,,,,,,,,,,,,
null,,confidence_buffer,819308,confidence_buffer,,null,,,,,,,,,,,,,,,,,,,,
1875.9000000022352,,pt2_memorable_rating,821184,US_Cities_List/mm_bisbee.png,,50,,,2,,,,,,,,,,,,,,,,,
null,,confidence_buffer,821287,confidence_buffer,,null,,,,,,,,,,,,,,,,,,,,
3580.800000000745,,recognition_phase,824869,US_Cities_List/mm_bisbee.png,,52,,,,,,new,1,0.8695652173913043,,,,,,,,,,,,
null,,confidence_buffer,824972,confidence_buffer,,null,,,,,,,,,,,,,,,,,,,,
null,,thebreak,825475,break,,null,,,,,,,,,,,,,,,,,,,,
2152.599999997765,,pt2_realistic_rating,827629,Fictional_Cities_List/img_manmade_30.png,,49,Fictional_Cities_List/img_manmade_30.png,MM,1,,,,,,,,,,,,,,,,,
null,,confidence_buffer,827731,confidence_buffer,,null,,,,,,,,,,,,,,,,,,,,
2556.400000002235,,pt2_unique_rating,830288,Fictional_Cities_List/img_manmade_30.png,,52,,,4,,,,,,,,,,,,,,,,,
null,,confidence_buffer,830390,confidence_buffer,,null,,,,,,,,,,,,,,,,,,,,
1942.8999999985099,,pt2_memorable_rating,832334,Fictional_Cities_List/img_manmade_30.png,,52,,,4,,,,,,,,,,,,,,,,,
null,,confidence_buffer,832435,confidence_buffer,,null,,,,,,,,,,,,,,,,,,,,
2579.2000000029802,,recognition_phase,835016,Fictional_Cities_List/img_manmade_30.png,,52,,,,,,new,1,0.875,,,,,,,,,,,,
null,,confidence_buffer,835118,confidence_buffer,,null,,,,,,,,,,,,,,,,,,,,
null,,thebreak,835620,break,,null,,,,,,,,,,,,,,,,,,,,
4656.89999999851,,pt2_realistic_rating,840278,Fictional_Cities_List/img_natural_29.png,,51,Fictional_Cities_List/img_natural_29.png,NAT,3,,,,,,,,,,,,,,,,,
null,,confidence_buffer,840380,confidence_buffer,,null,,,,,,,,,,,,,,,,,,,,
1496.3999999985099,,probe_rating,841877,probe_rating,,49,,,,1,1,,,,,,,,,,,,,,,
null,,confidence_buffer,841980,confidence_buffer,,null,,,,,,,,,,,,,,,,,,,,
4395.89999999851,,pt2_unique_rating,846377,Fictional_Cities_List/img_natural_29.png,,52,,,4,,,,,,,,,,,,,,,,,
null,,confidence_buffer,846480,confidence_buffer,,null,,,,,,,,,,,,,,,,,,,,
1186.0999999977648,,pt2_memorable_rating,847667,Fictional_Cities_List/img_natural_29.png,,52,,,4,,,,,,,,,,,,,,,,,
null,,confidence_buffer,847769,confidence_buffer,,null,,,,,,,,,,,,,,,,,,,,
1926.5999999977648,,recognition_phase,849697,Fictional_Cities_List/img_natural_29.png,,49,,,,,,old,1,0.88,,,,,,,,,,,,
null,,confidence_buffer,849800,confidence_buffer,,null,,,,,,,,,,,,,,,,,,,,
null,,thebreak,850300,break,,null,,,,,,,,,,,,,,,,,,,,
3078.5,,pt2_realistic_rating,853380,US_Cities_List/nat_boulder.png,,53,US_Cities_List/nat_boulder.png,NAT,5,,,,,,,,,,,,,,,,,
null,,confidence_buffer,853482,confidence_buffer,,null,,,,,,,,,,,,,,,,,,,,
2314.699999999255,,pt2_unique_rating,855797,US_Cities_List/nat_boulder.png,,50,,,2,,,,,,,,,,,,,,,,,
null,,confidence_buffer,855900,confidence_buffer,,null,,,,,,,,,,,,,,,,,,,,
2052.5,,pt2_memorable_rating,857953,US_Cities_List/nat_boulder.png,,50,,,2,,,,,,,,,,,,,,,,,
null,,confidence_buffer,858055,confidence_buffer,,null,,,,,,,,,,,,,,,,,,,,
1664.699999999255,,recognition_phase,859720,US_Cities_List/nat_boulder.png,,49,,,,,,old,1,0.8846153846153846,,,,,,,,,,,,
null,,confidence_buffer,859822,confidence_buffer,,null,,,,,,,,,,,,,,,,,,,,
null,,thebreak,860325,break,,null,,,,,,,,,,,,,,,,,,,,
8815.300000000745,,pt2_realistic_rating,869142,Fictional_Cities_List/img_manmade_10.png,,50,Fictional_Cities_List/img_manmade_10.png,MM,2,,,,,,,,,,,,,,,,,
null,,confidence_buffer,869244,confidence_buffer,,null,,,,,,,,,,,,,,,,,,,,
1807.199999999255,,pt2_unique_rating,871052,Fictional_Cities_List/img_manmade_10.png,,51,,,3,,,,,,,,,,,,,,,,,
null,,confidence_buffer,871154,confidence_buffer,,null,,,,,,,,,,,,,,,,,,,,
1115.5,,pt2_memorable_rating,872271,Fictional_Cities_List/img_manmade_10.png,,51,,,3,,,,,,,,,,,,,,,,,
null,,confidence_buffer,872373,confidence_buffer,,null,,,,,,,,,,,,,,,,,,,,
2583.400000002235,,recognition_phase,874958,Fictional_Cities_List/img_manmade_10.png,,51,,,,,,new,1,0.8888888888888888,,,,,,,,,,,,
null,,confidence_buffer,875061,confidence_buffer,,null,,,,,,,,,,,,,,,,,,,,
null,,thebreak,875564,break,,null,,,,,,,,,,,,,,,,,,,,
7855,,pt2_realistic_rating,883420,US_Cities_List/nat_carmel.png,,53,US_Cities_List/nat_carmel.png,NAT,5,,,,,,,,,,,,,,,,,
null,,confidence_buffer,883523,confidence_buffer,,null,,,,,,,,,,,,,,,,,,,,
3289.300000000745,,pt2_unique_rating,886813,US_Cities_List/nat_carmel.png,,51,,,3,,,,,,,,,,,,,,,,,
null,,confidence_buffer,886915,confidence_buffer,,null,,,,,,,,,,,,,,,,,,,,
1578.8999999985099,,pt2_memorable_rating,888495,US_Cities_List/nat_carmel.png,,51,,,3,,,,,,,,,,,,,,,,,
null,,confidence_buffer,888597,confidence_buffer,,null,,,,,,,,,,,,,,,,,,,,
2892.699999999255,,recognition_phase,891491,US_Cities_List/nat_carmel.png,,51,,,,,,new,1,0.8928571428571429,,,,,,,,,,,,
null,,confidence_buffer,891592,confidence_buffer,,null,,,,,,,,,,,,,,,,,,,,
null,,thebreak,892095,break,,null,,,,,,,,,,,,,,,,,,,,
4187,,pt2_realistic_rating,896283,Fictional_Cities_List/img_natural_21.png,,52,Fictional_Cities_List/img_natural_21.png,NAT,4,,,,,,,,,,,,,,,,,
null,,confidence_buffer,896386,confidence_buffer,,null,,,,,,,,,,,,,,,,,,,,
2664.60000000149,,pt2_unique_rating,899052,Fictional_Cities_List/img_natural_21.png,,51,,,3,,,,,,,,,,,,,,,,,
null,,confidence_buffer,899154,confidence_buffer,,null,,,,,,,,,,,,,,,,,,,,
1168.1000000014901,,pt2_memorable_rating,900323,Fictional_Cities_List/img_natural_21.png,,51,,,3,,,,,,,,,,,,,,,,,
null,,confidence_buffer,900426,confidence_buffer,,null,,,,,,,,,,,,,,,,,,,,
2510.89999999851,,recognition_phase,902938,Fictional_Cities_List/img_natural_21.png,,52,,,,,,new,1,0.896551724137931,,,,,,,,,,,,
null,,confidence_buffer,903040,confidence_buffer,,null,,,,,,,,,,,,,,,,,,,,
null,,thebreak,903543,break,,null,,,,,,,,,,,,,,,,,,,,
6418.39999999851,,pt2_realistic_rating,909963,Fictional_Cities_List/img_manmade_05.png,,49,Fictional_Cities_List/img_manmade_05.png,MM,1,,,,,,,,,,,,,,,,,
null,,confidence_buffer,910064,confidence_buffer,,null,,,,,,,,,,,,,,,,,,,,
1488.8999999985099,,probe_rating,911554,probe_rating,,51,,,,3,1,,,,,,,,,,,,,,,
null,,confidence_buffer,911655,confidence_buffer,,null,,,,,,,,,,,,,,,,,,,,
2199.5,,pt2_unique_rating,913856,Fictional_Cities_List/img_manmade_05.png,,51,,,3,,,,,,,,,,,,,,,,,
null,,confidence_buffer,913959,confidence_buffer,,null,,,,,,,,,,,,,,,,,,,,
1174.0999999977648,,pt2_memorable_rating,915134,Fictional_Cities_List/img_manmade_05.png,,51,,,3,,,,,,,,,,,,,,,,,
null,,confidence_buffer,915236,confidence_buffer,,null,,,,,,,,,,,,,,,,,,,,
1837,,recognition_phase,917074,Fictional_Cities_List/img_manmade_05.png,,51,,,,,,new,1,0.9,,,,,,,,,,,,
null,,confidence_buffer,917177,confidence_buffer,,null,,,,,,,,,,,,,,,,,,,,
null,,thebreak,917680,break,,null,,,,,,,,,,,,,,,,,,,,
3975.900000002235,,pt2_realistic_rating,921657,Fictional_Cities_List/img_natural_30.png,,50,Fictional_Cities_List/img_natural_30.png,NAT,2,,,,,,,,,,,,,,,,,
null,,confidence_buffer,921760,confidence_buffer,,null,,,,,,,,,,,,,,,,,,,,
3412.39999999851,,pt2_unique_rating,925173,Fictional_Cities_List/img_natural_30.png,,52,,,4,,,,,,,,,,,,,,,,,
null,,confidence_buffer,925275,confidence_buffer,,null,,,,,,,,,,,,,,,,,,,,
2624.60000000149,,pt2_memorable_rating,927901,Fictional_Cities_List/img_natural_30.png,,53,,,5,,,,,,,,,,,,,,,,,
null,,confidence_buffer,928002,confidence_buffer,,null,,,,,,,,,,,,,,,,,,,,
3442.10000000149,,recognition_phase,931445,Fictional_Cities_List/img_natural_30.png,,51,,,,,,new,1,0.9032258064516129,,,,,,,,,,,,
null,,confidence_buffer,931548,confidence_buffer,,null,,,,,,,,,,,,,,,,,,,,
null,,thebreak,932050,break,,null,,,,,,,,,,,,,,,,,,,,
4293.60000000149,,pt2_realistic_rating,936345,US_Cities_List/nat_healdsburg.png,,53,US_Cities_List/nat_healdsburg.png,NAT,5,,,,,,,,,,,,,,,,,
null,,confidence_buffer,936448,confidence_buffer,,null,,,,,,,,,,,,,,,,,,,,
2018.699999999255,,pt2_unique_rating,938467,US_Cities_List/nat_healdsburg.png,,51,,,3,,,,,,,,,,,,,,,,,
null,,confidence_buffer,938569,confidence_buffer,,null,,,,,,,,,,,,,,,,,,,,
3669.39999999851,,pt2_memorable_rating,942240,US_Cities_List/nat_healdsburg.png,,50,,,2,,,,,,,,,,,,,,,,,
null,,confidence_buffer,942343,confidence_buffer,,null,,,,,,,,,,,,,,,,,,,,
2790.5,,recognition_phase,945134,US_Cities_List/nat_healdsburg.png,,50,,,,,,old,0,0.875,,,,,,,,,,,,
null,,confidence_buffer,945237,confidence_buffer,,null,,,,,,,,,,,,,,,,,,,,
null,,thebreak,945740,break,,null,,,,,,,,,,,,,,,,,,,,
4985.900000002235,,pt2_realistic_rating,950727,US_Cities_List/mm_okoboji.png,,51,US_Cities_List/mm_okoboji.png,MM,3,,,,,,,,,,,,,,,,,
null,,confidence_buffer,950828,confidence_buffer,,null,,,,,,,,,,,,,,,,,,,,
1750,,pt2_unique_rating,952579,US_Cities_List/mm_okoboji.png,,51,,,3,,,,,,,,,,,,,,,,,
null,,confidence_buffer,952681,confidence_buffer,,null,,,,,,,,,,,,,,,,,,,,
2175.7999999970198,,pt2_memorable_rating,954858,US_Cities_List/mm_okoboji.png,,52,,,4,,,,,,,,,,,,,,,,,
null,,confidence_buffer,954960,confidence_buffer,,null,,,,,,,,,,,,,,,,,,,,
1653.5,,recognition_phase,956615,US_Cities_List/mm_okoboji.png,,49,,,,,,old,1,0.8787878787878788,,,,,,,,,,,,
null,,confidence_buffer,956717,confidence_buffer,,null,,,,,,,,,,,,,,,,,,,,
null,,thebreak,957220,break,,null,,,,,,,,,,,,,,,,,,,,
3914.199999999255,,pt2_realistic_rating,961136,US_Cities_List/mm_cornwall.png,,51,US_Cities_List/mm_cornwall.png,MM,3,,,,,,,,,,,,,,,,,
null,,confidence_buffer,961238,confidence_buffer,,null,,,,,,,,,,,,,,,,,,,,
1626.5,,probe_rating,962866,probe_rating,,53,,,,5,1,,,,,,,,,,,,,,,
null,,confidence_buffer,962969,confidence_buffer,,null,,,,,,,,,,,,,,,,,,,,
7777.39999999851,,pt2_unique_rating,970748,US_Cities_List/mm_cornwall.png,,51,,,3,,,,,,,,,,,,,,,,,
null,,confidence_buffer,970850,confidence_buffer,,null,,,,,,,,,,,,,,,,,,,,
1627.8999999985099,,pt2_memorable_rating,972479,US_Cities_List/mm_cornwall.png,,51,,,3,,,,,,,,,,,,,,,,,
null,,confidence_buffer,972582,confidence_buffer,,null,,,,,,,,,,,,,,,,,,,,
1530.7000000029802,,recognition_phase,974114,US_Cities_List/mm_cornwall.png,,49,,,,,,old,1,0.8823529411764706,,,,,,,,,,,,
null,,confidence_buffer,974216,confidence_buffer,,null,,,,,,,,,,,,,,,,,,,,
null,,thebreak,974718,break,,null,,,,,,,,,,,,,,,,,,,,
28818.10000000149,,pt2_realistic_rating,1003538,Fictional_Cities_List/img_manmade_39.png,,51,Fictional_Cities_List/img_manmade_39.png,MM,3,,,,,,,,,,,,,,,,,
null,,confidence_buffer,1003640,confidence_buffer,,null,,,,,,,,,,,,,,,,,,,,
1274.2999999970198,,pt2_unique_rating,1004915,Fictional_Cities_List/img_manmade_39.png,,51,,,3,,,,,,,,,,,,,,,,,
null,,confidence_buffer,1005017,confidence_buffer,,null,,,,,,,,,,,,,,,,,,,,
2139,,pt2_memorable_rating,1007157,Fictional_Cities_List/img_manmade_39.png,,52,,,4,,,,,,,,,,,,,,,,,
null,,confidence_buffer,1007259,confidence_buffer,,null,,,,,,,,,,,,,,,,,,,,
2605,,recognition_phase,1009865,Fictional_Cities_List/img_manmade_39.png,,51,,,,,,new,1,0.8857142857142857,,,,,,,,,,,,
null,,confidence_buffer,1009968,confidence_buffer,,null,,,,,,,,,,,,,,,,,,,,
null,,thebreak,1010469,break,,null,,,,,,,,,,,,,,,,,,,,
3053,,pt2_realistic_rating,1013522,Fictional_Cities_List/img_natural_46.png,,52,Fictional_Cities_List/img_natural_46.png,NAT,4,,,,,,,,,,,,,,,,,
null,,confidence_buffer,1013625,confidence_buffer,,null,,,,,,,,,,,,,,,,,,,,
1510.300000000745,,pt2_unique_rating,1015137,Fictional_Cities_List/img_natural_46.png,,52,,,4,,,,,,,,,,,,,,,,,
null,,confidence_buffer,1015238,confidence_buffer,,null,,,,,,,,,,,,,,,,,,,,
1802.7999999970198,,pt2_memorable_rating,1017042,Fictional_Cities_List/img_natural_46.png,,53,,,5,,,,,,,,,,,,,,,,,
null,,confidence_buffer,1017145,confidence_buffer,,null,,,,,,,,,,,,,,,,,,,,
1987.699999999255,,recognition_phase,1019134,Fictional_Cities_List/img_natural_46.png,,49,,,,,,old,1,0.8888888888888888,,,,,,,,,,,,
null,,confidence_buffer,1019236,confidence_buffer,,null,,,,,,,,,,,,,,,,,,,,
null,,thebreak,1019738,break,,null,,,,,,,,,,,,,,,,,,,,
5611.5,,pt2_realistic_rating,1025351,US_Cities_List/nat_hotsprings.png,,51,US_Cities_List/nat_hotsprings.png,NAT,3,,,,,,,,,,,,,,,,,
null,,confidence_buffer,1025453,confidence_buffer,,null,,,,,,,,,,,,,,,,,,,,
2269.10000000149,,pt2_unique_rating,1027723,US_Cities_List/nat_hotsprings.png,,52,,,4,,,,,,,,,,,,,,,,,
null,,confidence_buffer,1027826,confidence_buffer,,null,,,,,,,,,,,,,,,,,,,,
1626.800000000745,,pt2_memorable_rating,1029453,US_Cities_List/nat_hotsprings.png,,52,,,4,,,,,,,,,,,,,,,,,
null,,confidence_buffer,1029557,confidence_buffer,,null,,,,,,,,,,,,,,,,,,,,
1874.300000000745,,recognition_phase,1031432,US_Cities_List/nat_hotsprings.png,,50,,,,,,old,1,0.8918918918918919,,,,,,,,,,,,
null,,confidence_buffer,1031533,confidence_buffer,,null,,,,,,,,,,,,,,,,,,,,
null,,thebreak,1032036,break,,null,,,,,,,,,,,,,,,,,,,,
4042.099999997765,,pt2_realistic_rating,1036079,US_Cities_List/mm_athens.png,,52,US_Cities_List/mm_athens.png,MM,4,,,,,,,,,,,,,,,,,
null,,confidence_buffer,1036180,confidence_buffer,,null,,,,,,,,,,,,,,,,,,,,
2423.699999999255,,pt2_unique_rating,1038605,US_Cities_List/mm_athens.png,,50,,,2,,,,,,,,,,,,,,,,,
null,,confidence_buffer,1038707,confidence_buffer,,null,,,,,,,,,,,,,,,,,,,,
1264.5,,pt2_memorable_rating,1039972,US_Cities_List/mm_athens.png,,51,,,3,,,,,,,,,,,,,,,,,
null,,confidence_buffer,1040075,confidence_buffer,,null,,,,,,,,,,,,,,,,,,,,
2738,,recognition_phase,1042814,US_Cities_List/mm_athens.png,,52,,,,,,new,1,0.8947368421052632,,,,,,,,,,,,
null,,confidence_buffer,1042916,confidence_buffer,,null,,,,,,,,,,,,,,,,,,,,
null,,thebreak,1043418,break,,null,,,,,,,,,,,,,,,,,,,,
3318.800000000745,,pt2_realistic_rating,1046738,US_Cities_List/nat_okoboji.png,,53,US_Cities_List/nat_okoboji.png,NAT,5,,,,,,,,,,,,,,,,,
null,,confidence_buffer,1046841,confidence_buffer,,null,,,,,,,,,,,,,,,,,,,,
4032.599999997765,,pt2_unique_rating,1050874,US_Cities_List/nat_okoboji.png,,50,,,2,,,,,,,,,,,,,,,,,
null,,confidence_buffer,1050977,confidence_buffer,,null,,,,,,,,,,,,,,,,,,,,
2334.800000000745,,pt2_memorable_rating,1053313,US_Cities_List/nat_okoboji.png,,51,,,3,,,,,,,,,,,,,,,,,
null,,confidence_buffer,1053415,confidence_buffer,,null,,,,,,,,,,,,,,,,,,,,
1,,recognition_phase,1053417,US_Cities_List/nat_okoboji.png,,51,,,,,,new,0,0.8717948717948718,,,,,,,,,,,,
null,,confidence_buffer,1053519,confidence_buffer,,null,,,,,,,,,,,,,,,,,,,,
null,,thebreak,1054021,break,,null,,,,,,,,,,,,,,,,,,,,
6657.39999999851,,pt2_realistic_rating,1060679,US_Cities_List/mm_sitka.png,,52,US_Cities_List/mm_sitka.png,MM,4,,,,,,,,,,,,,,,,,
null,,confidence_buffer,1060782,confidence_buffer,,null,,,,,,,,,,,,,,,,,,,,
3372.599999997765,,pt2_unique_rating,1064155,US_Cities_List/mm_sitka.png,,52,,,4,,,,,,,,,,,,,,,,,
null,,confidence_buffer,1064258,confidence_buffer,,null,,,,,,,,,,,,,,,,,,,,
1293.4000000022352,,pt2_memorable_rating,1065552,US_Cities_List/mm_sitka.png,,52,,,4,,,,,,,,,,,,,,,,,
null,,confidence_buffer,1065654,confidence_buffer,,null,,,,,,,,,,,,,,,,,,,,
1220.800000000745,,probe_rating,1066876,probe_rating,,52,,,,4,1,,,,,,,,,,,,,,,
null,,confidence_buffer,1066979,confidence_buffer,,null,,,,,,,,,,,,,,,,,,,,
2538.599999997765,,recognition_phase,1069518,US_Cities_List/mm_sitka.png,,50,,,,,,old,0,0.85,,,,,,,,,,,,
null,,confidence_buffer,1069621,confidence_buffer,,null,,,,,,,,,,,,,,,,,,,,
null,,thebreak,1070124,break,,null,,,,,,,,,,,,,,,,,,,,
4558,,pt2_realistic_rating,1074683,US_Cities_List/nat_westpalmbeach.png,,51,US_Cities_List/nat_westpalmbeach.png,NAT,3,,,,,,,,,,,,,,,,,
null,,confidence_buffer,1074785,confidence_buffer,,null,,,,,,,,,,,,,,,,,,,,
1038.800000000745,,pt2_unique_rating,1075826,US_Cities_List/nat_westpalmbeach.png,,51,,,3,,,,,,,,,,,,,,,,,
null,,confidence_buffer,1075929,confidence_buffer,,null,,,,,,,,,,,,,,,,,,,,
2169.7000000029802,,pt2_memorable_rating,1078100,US_Cities_List/nat_westpalmbeach.png,,51,,,3,,,,,,,,,,,,,,,,,
null,,confidence_buffer,1078202,confidence_buffer,,null,,,,,,,,,,,,,,,,,,,,
3274.5,,recognition_phase,1081478,US_Cities_List/nat_westpalmbeach.png,,52,,,,,,new,1,0.8536585365853658,,,,,,,,,,,,
null,,confidence_buffer,1081580,confidence_buffer,,null,,,,,,,,,,,,,,,,,,,,
null,,thebreak,1082083,break,,null,,,,,,,,,,,,,,,,,,,,
4691.599999997765,,pt2_realistic_rating,1086775,Fictional_Cities_List/img_manmade_46.png,,50,Fictional_Cities_List/img_manmade_46.png,MM,2,,,,,,,,,,,,,,,,,
null,,confidence_buffer,1086878,confidence_buffer,,null,,,,,,,,,,,,,,,,,,,,
1533.800000000745,,pt2_unique_rating,1088412,Fictional_Cities_List/img_manmade_46.png,,50,,,2,,,,,,,,,,,,,,,,,
null,,confidence_buffer,1088515,confidence_buffer,,null,,,,,,,,,,,,,,,,,,,,
3009.400000002235,,pt2_memorable_rating,1091525,Fictional_Cities_List/img_manmade_46.png,,51,,,3,,,,,,,,,,,,,,,,,
null,,confidence_buffer,1091626,confidence_buffer,,null,,,,,,,,,,,,,,,,,,,,
1486.9000000022352,,recognition_phase,1093114,Fictional_Cities_List/img_manmade_46.png,,49,,,,,,old,1,0.8571428571428571,,,,,,,,,,,,
null,,confidence_buffer,1093216,confidence_buffer,,null,,,,,,,,,,,,,,,,,,,,
null,,thebreak,1093719,break,,null,,,,,,,,,,,,,,,,,,,,
4830,,pt2_realistic_rating,1098550,Fictional_Cities_List/img_natural_43.png,,51,Fictional_Cities_List/img_natural_43.png,NAT,3,,,,,,,,,,,,,,,,,
null,,confidence_buffer,1098652,confidence_buffer,,null,,,,,,,,,,,,,,,,,,,,
2595.60000000149,,pt2_unique_rating,1101248,Fictional_Cities_List/img_natural_43.png,,52,,,4,,,,,,,,,,,,,,,,,
null,,confidence_buffer,1101350,confidence_buffer,,null,,,,,,,,,,,,,,,,,,,,
1631.699999999255,,pt2_memorable_rating,1102983,Fictional_Cities_List/img_natural_43.png,,52,,,4,,,,,,,,,,,,,,,,,
null,,confidence_buffer,1103085,confidence_buffer,,null,,,,,,,,,,,,,,,,,,,,
1338.4000000022352,,recognition_phase,1104425,Fictional_Cities_List/img_natural_43.png,,49,,,,,,old,1,0.8604651162790697,,,,,,,,,,,,
null,,confidence_buffer,1104527,confidence_buffer,,null,,,,,,,,,,,,,,,,,,,,
null,,thebreak,1105030,break,,null,,,,,,,,,,,,,,,,,,,,
3859.900000002235,,pt2_realistic_rating,1108891,Fictional_Cities_List/img_natural_11.png,,51,Fictional_Cities_List/img_natural_11.png,NAT,3,,,,,,,,,,,,,,,,,
null,,confidence_buffer,1108993,confidence_buffer,,null,,,,,,,,,,,,,,,,,,,,
974.3000000007451,,pt2_unique_rating,1109969,Fictional_Cities_List/img_natural_11.png,,51,,,3,,,,,,,,,,,,,,,,,
null,,confidence_buffer,1110072,confidence_buffer,,null,,,,,,,,,,,,,,,,,,,,
1978.1000000014901,,pt2_memorable_rating,1112051,Fictional_Cities_List/img_natural_11.png,,52,,,4,,,,,,,,,,,,,,,,,
null,,confidence_buffer,1112153,confidence_buffer,,null,,,,,,,,,,,,,,,,,,,,
2280.10000000149,,recognition_phase,1114435,Fictional_Cities_List/img_natural_11.png,,52,,,,,,new,1,0.8636363636363636,,,,,,,,,,,,
null,,confidence_buffer,1114537,confidence_buffer,,null,,,,,,,,,,,,,,,,,,,,
null,,thebreak,1115039,break,,null,,,,,,,,,,,,,,,,,,,,
3728.39999999851,,pt2_realistic_rating,1118769,US_Cities_List/nat_coeurdalene.png,,52,US_Cities_List/nat_coeurdalene.png,NAT,4,,,,,,,,,,,,,,,,,
null,,confidence_buffer,1118871,confidence_buffer,,null,,,,,,,,,,,,,,,,,,,,
2520.89999999851,,pt2_unique_rating,1121392,US_Cities_List/nat_coeurdalene.png,,51,,,3,,,,,,,,,,,,,,,,,
null,,confidence_buffer,1121494,confidence_buffer,,null,,,,,,,,,,,,,,,,,,,,
1222.4000000022352,,pt2_memorable_rating,1122717,US_Cities_List/nat_coeurdalene.png,,52,,,4,,,,,,,,,,,,,,,,,
null,,confidence_buffer,1122820,confidence_buffer,,null,,,,,,,,,,,,,,,,,,,,
1618.0999999977648,,recognition_phase,1124439,US_Cities_List/nat_coeurdalene.png,,49,,,,,,old,1,0.8666666666666667,,,,,,,,,,,,
null,,confidence_buffer,1124541,confidence_buffer,,null,,,,,,,,,,,,,,,,,,,,
null,,thebreak,1125044,break,,null,,,,,,,,,,,,,,,,,,,,
4209.89999999851,,pt2_realistic_rating,1129255,Fictional_Cities_List/img_manmade_29.png,,51,Fictional_Cities_List/img_manmade_29.png,MM,3,,,,,,,,,,,,,,,,,
null,,confidence_buffer,1129358,confidence_buffer,,null,,,,,,,,,,,,,,,,,,,,
1939.4000000022352,,pt2_unique_rating,1131298,Fictional_Cities_List/img_manmade_29.png,,50,,,2,,,,,,,,,,,,,,,,,
null,,confidence_buffer,1131400,confidence_buffer,,null,,,,,,,,,,,,,,,,,,,,
1758,,pt2_memorable_rating,1133159,Fictional_Cities_List/img_manmade_29.png,,51,,,3,,,,,,,,,,,,,,,,,
null,,confidence_buffer,1133261,confidence_buffer,,null,,,,,,,,,,,,,,,,,,,,
2543.800000000745,,recognition_phase,1135806,Fictional_Cities_List/img_manmade_29.png,,51,,,,,,new,1,0.8695652173913043,,,,,,,,,,,,
null,,confidence_buffer,1135907,confidence_buffer,,null,,,,,,,,,,,,,,,,,,,,
null,,thebreak,1136410,break,,null,,,,,,,,,,,,,,,,,,,,
4668.89999999851,,pt2_realistic_rating,1141080,US_Cities_List/mm_peoria.png,,52,US_Cities_List/mm_peoria.png,MM,4,,,,,,,,,,,,,,,,,
null,,confidence_buffer,1141182,confidence_buffer,,null,,,,,,,,,,,,,,,,,,,,
1541.199999999255,,pt2_unique_rating,1142724,US_Cities_List/mm_peoria.png,,52,,,4,,,,,,,,,,,,,,,,,
null,,confidence_buffer,1142826,confidence_buffer,,null,,,,,,,,,,,,,,,,,,,,
2476.599999997765,,pt2_memorable_rating,1145304,US_Cities_List/mm_peoria.png,,51,,,3,,,,,,,,,,,,,,,,,
null,,confidence_buffer,1145406,confidence_buffer,,null,,,,,,,,,,,,,,,,,,,,
2461.400000002235,,recognition_phase,1147868,US_Cities_List/mm_peoria.png,,49,,,,,,old,1,0.8723404255319149,,,,,,,,,,,,
null,,confidence_buffer,1147971,confidence_buffer,,null,,,,,,,,,,,,,,,,,,,,
null,,thebreak,1148474,break,,null,,,,,,,,,,,,,,,,,,,,
3174.300000000745,,pt2_realistic_rating,1151649,US_Cities_List/mm_carmel.png,,50,US_Cities_List/mm_carmel.png,MM,2,,,,,,,,,,,,,,,,,
null,,confidence_buffer,1151751,confidence_buffer,,null,,,,,,,,,,,,,,,,,,,,
3601.2999999970198,,pt2_unique_rating,1155353,US_Cities_List/mm_carmel.png,,50,,,2,,,,,,,,,,,,,,,,,
null,,confidence_buffer,1155455,confidence_buffer,,null,,,,,,,,,,,,,,,,,,,,
1728.4000000022352,,pt2_memorable_rating,1157184,US_Cities_List/mm_carmel.png,,51,,,3,,,,,,,,,,,,,,,,,
null,,confidence_buffer,1157287,confidence_buffer,,null,,,,,,,,,,,,,,,,,,,,
1594.0999999977648,,recognition_phase,1158882,US_Cities_List/mm_carmel.png,,49,,,,,,old,1,0.875,,,,,,,,,,,,
null,,confidence_buffer,1158984,confidence_buffer,,null,,,,,,,,,,,,,,,,,,,,
null,,thebreak,1159487,break,,null,,,,,,,,,,,,,,,,,,,,
16729.39999999851,,pt2_realistic_rating,1176217,Fictional_Cities_List/img_manmade_14.png,,50,Fictional_Cities_List/img_manmade_14.png,MM,2,,,,,,,,,,,,,,,,,
null,,confidence_buffer,1176319,confidence_buffer,,null,,,,,,,,,,,,,,,,,,,,
4749,,pt2_unique_rating,1181070,Fictional_Cities_List/img_manmade_14.png,,51,,,3,,,,,,,,,,,,,,,,,
null,,confidence_buffer,1181171,confidence_buffer,,null,,,,,,,,,,,,,,,,,,,,
1200.2999999970198,,pt2_memorable_rating,1182372,Fictional_Cities_List/img_manmade_14.png,,51,,,3,,,,,,,,,,,,,,,,,
null,,confidence_buffer,1182474,confidence_buffer,,null,,,,,,,,,,,,,,,,,,,,
1601.6000000014901,,recognition_phase,1184077,Fictional_Cities_List/img_manmade_14.png,,49,,,,,,old,1,0.8775510204081632,,,,,,,,,,,,
null,,confidence_buffer,1184180,confidence_buffer,,null,,,,,,,,,,,,,,,,,,,,
null,,thebreak,1184682,break,,null,,,,,,,,,,,,,,,,,,,,
36865.900000002235,,pt2_realistic_rating,1221550,Fictional_Cities_List/img_natural_10.png,,52,Fictional_Cities_List/img_natural_10.png,NAT,4,,,,,,,,,,,,,,,,,
null,,confidence_buffer,1221653,confidence_buffer,,null,,,,,,,,,,,,,,,,,,,,
2089.699999999255,,pt2_unique_rating,1223743,Fictional_Cities_List/img_natural_10.png,,52,,,4,,,,,,,,,,,,,,,,,
null,,confidence_buffer,1223845,confidence_buffer,,null,,,,,,,,,,,,,,,,,,,,
4547.699999999255,,pt2_memorable_rating,1228394,Fictional_Cities_List/img_natural_10.png,,53,,,5,,,,,,,,,,,,,,,,,
null,,confidence_buffer,1228497,confidence_buffer,,null,,,,,,,,,,,,,,,,,,,,
1122.300000000745,,recognition_phase,1229620,Fictional_Cities_List/img_natural_10.png,,49,,,,,,old,1,0.88,,,,,,,,,,,,
null,,confidence_buffer,1229723,confidence_buffer,,null,,,,,,,,,,,,,,,,,,,,
null,,thebreak,1230225,break,,null,,,,,,,,,,,,,,,,,,,,
2195.099999997765,,pt2_realistic_rating,1232421,US_Cities_List/mm_coeurdalene.png,,51,US_Cities_List/mm_coeurdalene.png,MM,3,,,,,,,,,,,,,,,,,
null,,confidence_buffer,1232522,confidence_buffer,,null,,,,,,,,,,,,,,,,,,,,
804.5,,pt2_unique_rating,1233327,US_Cities_List/mm_coeurdalene.png,,51,,,3,,,,,,,,,,,,,,,,,
null,,confidence_buffer,1233429,confidence_buffer,,null,,,,,,,,,,,,,,,,,,,,
1605.5,,pt2_memorable_rating,1235036,US_Cities_List/mm_coeurdalene.png,,50,,,2,,,,,,,,,,,,,,,,,
null,,confidence_buffer,1235138,confidence_buffer,,null,,,,,,,,,,,,,,,,,,,,
1385.3999999985099,,recognition_phase,1236524,US_Cities_List/mm_coeurdalene.png,,49,,,,,,old,1,0.8823529411764706,,,,,,,,,,,,
null,,confidence_buffer,1236626,confidence_buffer,,null,,,,,,,,,,,,,,,,,,,,
null,,thebreak,1237128,break,,null,,,,,,,,,,,,,,,,,,,,
2654.199999999255,,pt2_realistic_rating,1239784,Fictional_Cities_List/img_natural_05.png,,49,Fictional_Cities_List/img_natural_05.png,NAT,1,,,,,,,,,,,,,,,,,
null,,confidence_buffer,1239886,confidence_buffer,,null,,,,,,,,,,,,,,,,,,,,
2029.7999999970198,,pt2_unique_rating,1241917,Fictional_Cities_List/img_natural_05.png,,51,,,3,,,,,,,,,,,,,,,,,
null,,confidence_buffer,1242020,confidence_buffer,,null,,,,,,,,,,,,,,,,,,,,
1370,,pt2_memorable_rating,1243391,Fictional_Cities_List/img_natural_05.png,,51,,,3,,,,,,,,,,,,,,,,,
null,,confidence_buffer,1243494,confidence_buffer,,null,,,,,,,,,,,,,,,,,,,,
1771.6000000014901,,recognition_phase,1245267,Fictional_Cities_List/img_natural_05.png,,51,,,,,,new,1,0.8846153846153846,,,,,,,,,,,,
null,,confidence_buffer,1245369,confidence_buffer,,null,,,,,,,,,,,,,,,,,,,,
null,,thebreak,1245871,break,,null,,,,,,,,,,,,,,,,,,,,
3681,,pt2_realistic_rating,1249553,Fictional_Cities_List/img_manmade_21.png,,51,Fictional_Cities_List/img_manmade_21.png,MM,3,,,,,,,,,,,,,,,,,
null,,confidence_buffer,1249655,confidence_buffer,,null,,,,,,,,,,,,,,,,,,,,
1361.6000000014901,,pt2_unique_rating,1251017,Fictional_Cities_List/img_manmade_21.png,,51,,,3,,,,,,,,,,,,,,,,,
null,,confidence_buffer,1251119,confidence_buffer,,null,,,,,,,,,,,,,,,,,,,,
1360.800000000745,,pt2_memorable_rating,1252481,Fictional_Cities_List/img_manmade_21.png,,51,,,3,,,,,,,,,,,,,,,,,
null,,confidence_buffer,1252582,confidence_buffer,,null,,,,,,,,,,,,,,,,,,,,
1322.3999999985099,,probe_rating,1253906,probe_rating,,50,,,,2,1,,,,,,,,,,,,,,,
null,,confidence_buffer,1254007,confidence_buffer,,null,,,,,,,,,,,,,,,,,,,,
1328.5999999977648,,recognition_phase,1255337,Fictional_Cities_List/img_manmade_21.png,,49,,,,,,old,1,0.8867924528301887,,,,,,,,,,,,
null,,confidence_buffer,1255438,confidence_buffer,,null,,,,,,,,,,,,,,,,,,,,
null,,thebreak,1255940,break,,null,,,,,,,,,,,,,,,,,,,,
12687.300000000745,,pt2_realistic_rating,1268628,Fictional_Cities_List/img_manmade_11.png,,50,Fictional_Cities_List/img_manmade_11.png,MM,2,,,,,,,,,,,,,,,,,
null,,confidence_buffer,1268729,confidence_buffer,,null,,,,,,,,,,,,,,,,,,,,
1645.6000000014901,,pt2_unique_rating,1270376,Fictional_Cities_List/img_manmade_11.png,,51,,,3,,,,,,,,,,,,,,,,,
null,,confidence_buffer,1270478,confidence_buffer,,null,,,,,,,,,,,,,,,,,,,,
2029.300000000745,,pt2_memorable_rating,1272508,Fictional_Cities_List/img_manmade_11.png,,52,,,4,,,,,,,,,,,,,,,,,
null,,confidence_buffer,1272611,confidence_buffer,,null,,,,,,,,,,,,,,,,,,,,
1728.3999999985099,,recognition_phase,1274341,Fictional_Cities_List/img_manmade_11.png,,51,,,,,,new,1,0.8888888888888888,,,,,,,,,,,,
null,,confidence_buffer,1274443,confidence_buffer,,null,,,,,,,,,,,,,,,,,,,,
null,,thebreak,1274945,break,,null,,,,,,,,,,,,,,,,,,,,
4620.5,,pt2_realistic_rating,1279567,US_Cities_List/mm_hotsprings.png,,51,US_Cities_List/mm_hotsprings.png,MM,3,,,,,,,,,,,,,,,,,
null,,confidence_buffer,1279669,confidence_buffer,,null,,,,,,,,,,,,,,,,,,,,
672.8999999985099,,pt2_unique_rating,1280343,US_Cities_List/mm_hotsprings.png,,51,,,3,,,,,,,,,,,,,,,,,
null,,confidence_buffer,1280445,confidence_buffer,,null,,,,,,,,,,,,,,,,,,,,
814.5,,pt2_memorable_rating,1281261,US_Cities_List/mm_hotsprings.png,,51,,,3,,,,,,,,,,,,,,,,,
null,,confidence_buffer,1281362,confidence_buffer,,null,,,,,,,,,,,,,,,,,,,,
1599.5999999977648,,recognition_phase,1282963,US_Cities_List/mm_hotsprings.png,,51,,,,,,new,1,0.8909090909090909,,,,,,,,,,,,
null,,confidence_buffer,1283066,confidence_buffer,,null,,,,,,,,,,,,,,,,,,,,
null,,thebreak,1283568,break,,null,,,,,,,,,,,,,,,,,,,,
4092.199999999255,,pt2_realistic_rating,1287662,US_Cities_List/nat_abilene.png,,50,US_Cities_List/nat_abilene.png,NAT,2,,,,,,,,,,,,,,,,,
null,,confidence_buffer,1287764,confidence_buffer,,null,,,,,,,,,,,,,,,,,,,,
1451.6000000014901,,probe_rating,1289217,probe_rating,,51,,,,3,1,,,,,,,,,,,,,,,
null,,confidence_buffer,1289321,confidence_buffer,,null,,,,,,,,,,,,,,,,,,,,
1352.199999999255,,pt2_unique_rating,1290674,US_Cities_List/nat_abilene.png,,51,,,3,,,,,,,,,,,,,,,,,
null,,confidence_buffer,1290777,confidence_buffer,,null,,,,,,,,,,,,,,,,,,,,
1360.6000000014901,,pt2_memorable_rating,1292138,US_Cities_List/nat_abilene.png,,52,,,4,,,,,,,,,,,,,,,,,
null,,confidence_buffer,1292241,confidence_buffer,,null,,,,,,,,,,,,,,,,,,,,
1697,,recognition_phase,1293939,US_Cities_List/nat_abilene.png,,51,,,,,,new,1,0.8928571428571429,,,,,,,,,,,,
null,,confidence_buffer,1294042,confidence_buffer,,null,,,,,,,,,,,,,,,,,,,,
null,,thebreak,1294545,break,,null,,,,,,,,,,,,,,,,,,,,
2830.2999999970198,,pt2_realistic_rating,1297376,US_Cities_List/mm_boulder.png,,52,US_Cities_List/mm_boulder.png,MM,4,,,,,,,,,,,,,,,,,
null,,confidence_buffer,1297479,confidence_buffer,,null,,,,,,,,,,,,,,,,,,,,
1473.1000000014901,,pt2_unique_rating,1298954,US_Cities_List/mm_boulder.png,,52,,,4,,,,,,,,,,,,,,,,,
null,,confidence_buffer,1299055,confidence_buffer,,null,,,,,,,,,,,,,,,,,,,,
1022.9000000022352,,pt2_memorable_rating,1300079,US_Cities_List/mm_boulder.png,,52,,,4,,,,,,,,,,,,,,,,,
null,,confidence_buffer,1300182,confidence_buffer,,null,,,,,,,,,,,,,,,,,,,,
1801.5999999977648,,recognition_phase,1301984,US_Cities_List/mm_boulder.png,,49,,,,,,old,1,0.8947368421052632,,,,,,,,,,,,
null,,confidence_buffer,1302086,confidence_buffer,,null,,,,,,,,,,,,,,,,,,,,
null,,thebreak,1302589,break,,null,,,,,,,,,,,,,,,,,,,,
2950.300000000745,,pt2_realistic_rating,1305540,US_Cities_List/nat_athens.png,,52,US_Cities_List/nat_athens.png,NAT,4,,,,,,,,,,,,,,,,,
null,,confidence_buffer,1305643,confidence_buffer,,null,,,,,,,,,,,,,,,,,,,,
1046.800000000745,,pt2_unique_rating,1306690,US_Cities_List/nat_athens.png,,52,,,4,,,,,,,,,,,,,,,,,
null,,confidence_buffer,1306793,confidence_buffer,,null,,,,,,,,,,,,,,,,,,,,
2204.800000000745,,pt2_memorable_rating,1308999,US_Cities_List/nat_athens.png,,50,,,2,,,,,,,,,,,,,,,,,
null,,confidence_buffer,1309101,confidence_buffer,,null,,,,,,,,,,,,,,,,,,,,
2375.60000000149,,recognition_phase,1311478,US_Cities_List/nat_athens.png,,49,,,,,,old,1,0.896551724137931,,,,,,,,,,,,
null,,confidence_buffer,1311580,confidence_buffer,,null,,,,,,,,,,,,,,,,,,,,
null,,thebreak,1312083,break,,null,,,,,,,,,,,,,,,,,,,,
5783.60000000149,,pt2_realistic_rating,1317868,Fictional_Cities_List/img_manmade_43.png,,50,Fictional_Cities_List/img_manmade_43.png,MM,2,,,,,,,,,,,,,,,,,
null,,confidence_buffer,1317970,confidence_buffer,,null,,,,,,,,,,,,,,,,,,,,
1143.3999999985099,,pt2_unique_rating,1319115,Fictional_Cities_List/img_manmade_43.png,,51,,,3,,,,,,,,,,,,,,,,,
null,,confidence_buffer,1319217,confidence_buffer,,null,,,,,,,,,,,,,,,,,,,,
1864.4000000022352,,pt2_memorable_rating,1321083,Fictional_Cities_List/img_manmade_43.png,,52,,,4,,,,,,,,,,,,,,,,,
null,,confidence_buffer,1321185,confidence_buffer,,null,,,,,,,,,,,,,,,,,,,,
2732.10000000149,,recognition_phase,1323919,Fictional_Cities_List/img_manmade_43.png,,50,,,,,,old,0,0.8813559322033898,,,,,,,,,,,,
null,,confidence_buffer,1324020,confidence_buffer,,null,,,,,,,,,,,,,,,,,,,,
null,,thebreak,1324523,break,,null,,,,,,,,,,,,,,,,,,,,
2784.89999999851,,pt2_realistic_rating,1327310,Fictional_Cities_List/img_natural_14.png,,50,Fictional_Cities_List/img_natural_14.png,NAT,2,,,,,,,,,,,,,,,,,
null,,confidence_buffer,1327411,confidence_buffer,,null,,,,,,,,,,,,,,,,,,,,
1675.5999999977648,,pt2_unique_rating,1329088,Fictional_Cities_List/img_natural_14.png,,51,,,3,,,,,,,,,,,,,,,,,
null,,confidence_buffer,1329191,confidence_buffer,,null,,,,,,,,,,,,,,,,,,,,
572.0999999977648,,pt2_memorable_rating,1329764,Fictional_Cities_List/img_natural_14.png,,51,,,3,,,,,,,,,,,,,,,,,
null,,confidence_buffer,1329867,confidence_buffer,,null,,,,,,,,,,,,,,,,,,,,
2120.199999999255,,recognition_phase,1331988,Fictional_Cities_List/img_natural_14.png,,49,,,,,,old,1,0.8833333333333333,,,,,,,,,,,,
null,,confidence_buffer,1332090,confidence_buffer,,null,,,,,,,,,,,,,,,,,,,,
null,,thebreak,1332593,break,,null,,,,,,,,,,,,,,,,,,,,
,,survey,1502703,survey-questions,,,,,,,,,,,none,high,No, I was not doing anything else,I just relied on my memory alone, the pictures just came to me as familoiar as I went by the task,If I had seen the scenery before or not,If its a place I will not forget if I visit,If its a landmark or scene that stands out to me or most people too.,How real it feels compared to Reality,No.,No.,,
5564.300000000745,,thank_you,1508295,all_done,,32,,,,,,,,,,,,,,,,,,,2,0
