rt,responses,trial_type,time_elapsed,stimulus,button_pressed,key_press,name_trial,city_type,rating,probe,probe_accuracy,response,correct,accuracy,problems,smooth,distraction,strategies,familiar,memorable,unique,realistic,similar,comments
5081.899999976158,{worker_id:55900dcffdf99b3f7aada3f5},id_enter,5089,,,,,,,,,,,,,,,,,,,,,
20227.600000023842,,fullscreen,25323,fullscreen,0,,,,,,,,,,,,,,,,,,,
7304.399999976158,,intro_0,32633,instruct,,32,,,,,,,,,,,,,,,,,,
8411.699999988079,,intro_1,41047,instruct,,32,,,,,,,,,,,,,,,,,,
6550.399999976158,,intro_2,47599,instruct,,32,,,,,,,,,,,,,,,,,,
null,,instruct_dir_4,49101,instruct,,null,,,,,,,,,,,,,,,,,,
null,,thebreak,49603,break,,null,,,,,,,,,,,,,,,,,,
14668.900000035763,,familiar_rating,64273,Fictional_Cities_List/img_manmade_42.png,,51,Fictional_Cities_List/img_manmade_42.png,MM,3,,,,,,,,,,,,,,,
null,,confidence_buffer,64379,confidence_buffer,,null,,,,,,,,,,,,,,,,,,
4696.600000023842,,unique_rating,69078,Fictional_Cities_List/img_manmade_42.png,,52,,,4,,,,,,,,,,,,,,,
null,,confidence_buffer,69181,confidence_buffer,,null,,,,,,,,,,,,,,,,,,
2544.5,,memorable_rating,71728,Fictional_Cities_List/img_manmade_42.png,,53,,,5,,,,,,,,,,,,,,,
null,,confidence_buffer,71831,confidence_buffer,,null,,,,,,,,,,,,,,,,,,
null,,thebreak,72333,break,,null,,,,,,,,,,,,,,,,,,
7397.599999964237,,familiar_rating,79731,Fictional_Cities_List/img_manmade_06.png,,50,Fictional_Cities_List/img_manmade_06.png,MM,2,,,,,,,,,,,,,,,
null,,confidence_buffer,79834,confidence_buffer,,null,,,,,,,,,,,,,,,,,,
4196.5,,unique_rating,84032,Fictional_Cities_List/img_manmade_06.png,,50,,,2,,,,,,,,,,,,,,,
null,,confidence_buffer,84135,confidence_buffer,,null,,,,,,,,,,,,,,,,,,
6454,,memorable_rating,90592,Fictional_Cities_List/img_manmade_06.png,,51,,,3,,,,,,,,,,,,,,,
null,,confidence_buffer,90695,confidence_buffer,,null,,,,,,,,,,,,,,,,,,
null,,thebreak,91197,break,,null,,,,,,,,,,,,,,,,,,
7761.699999988079,,familiar_rating,98961,Fictional_Cities_List/img_natural_44.png,,53,Fictional_Cities_List/img_natural_44.png,NAT,5,,,,,,,,,,,,,,,
null,,confidence_buffer,99063,confidence_buffer,,null,,,,,,,,,,,,,,,,,,
2599.100000023842,,unique_rating,101664,Fictional_Cities_List/img_natural_44.png,,53,,,5,,,,,,,,,,,,,,,
null,,confidence_buffer,101767,confidence_buffer,,null,,,,,,,,,,,,,,,,,,
964.2999999523163,,memorable_rating,102733,Fictional_Cities_List/img_natural_44.png,,53,,,5,,,,,,,,,,,,,,,
null,,confidence_buffer,102836,confidence_buffer,,null,,,,,,,,,,,,,,,,,,
null,,thebreak,103338,break,,null,,,,,,,,,,,,,,,,,,
3222.899999976158,,familiar_rating,106563,Fictional_Cities_List/img_natural_27.png,,49,Fictional_Cities_List/img_natural_27.png,NAT,1,,,,,,,,,,,,,,,
null,,confidence_buffer,106667,confidence_buffer,,null,,,,,,,,,,,,,,,,,,
2076.600000023842,,unique_rating,108745,Fictional_Cities_List/img_natural_27.png,,49,,,1,,,,,,,,,,,,,,,
null,,confidence_buffer,108858,confidence_buffer,,null,,,,,,,,,,,,,,,,,,
2873.899999976158,,memorable_rating,111734,Fictional_Cities_List/img_natural_27.png,,49,,,1,,,,,,,,,,,,,,,
null,,confidence_buffer,111836,confidence_buffer,,null,,,,,,,,,,,,,,,,,,
null,,thebreak,112338,break,,null,,,,,,,,,,,,,,,,,,
4450.399999976158,,familiar_rating,116790,Fictional_Cities_List/img_natural_39.png,,52,Fictional_Cities_List/img_natural_39.png,NAT,4,,,,,,,,,,,,,,,
null,,confidence_buffer,116892,confidence_buffer,,null,,,,,,,,,,,,,,,,,,
2586.399999976158,,probe_rating,119479,probe_rating,,53,,,,5,1,,,,,,,,,,,,,
null,,confidence_buffer,119581,confidence_buffer,,null,,,,,,,,,,,,,,,,,,
3858.899999976158,,unique_rating,123441,Fictional_Cities_List/img_natural_39.png,,49,,,1,,,,,,,,,,,,,,,
null,,confidence_buffer,123544,confidence_buffer,,null,,,,,,,,,,,,,,,,,,
2573.599999964237,,memorable_rating,126120,Fictional_Cities_List/img_natural_39.png,,50,,,2,,,,,,,,,,,,,,,
null,,confidence_buffer,126223,confidence_buffer,,null,,,,,,,,,,,,,,,,,,
null,,thebreak,126737,break,,null,,,,,,,,,,,,,,,,,,
3118.800000011921,,familiar_rating,129857,US_Cities_List/mm_athens.png,,50,US_Cities_List/mm_athens.png,MM,2,,,,,,,,,,,,,,,
null,,confidence_buffer,129961,confidence_buffer,,null,,,,,,,,,,,,,,,,,,
9500.199999988079,,unique_rating,139463,US_Cities_List/mm_athens.png,,51,,,3,,,,,,,,,,,,,,,
null,,confidence_buffer,139566,confidence_buffer,,null,,,,,,,,,,,,,,,,,,
2409.899999976158,,memorable_rating,141979,US_Cities_List/mm_athens.png,,52,,,4,,,,,,,,,,,,,,,
null,,confidence_buffer,142082,confidence_buffer,,null,,,,,,,,,,,,,,,,,,
null,,thebreak,142584,break,,null,,,,,,,,,,,,,,,,,,
6747.699999988079,,familiar_rating,149334,US_Cities_List/nat_westpalmbeach.png,,49,US_Cities_List/nat_westpalmbeach.png,NAT,1,,,,,,,,,,,,,,,
null,,confidence_buffer,149437,confidence_buffer,,null,,,,,,,,,,,,,,,,,,
1747.300000011921,,unique_rating,151186,US_Cities_List/nat_westpalmbeach.png,,52,,,4,,,,,,,,,,,,,,,
null,,confidence_buffer,151289,confidence_buffer,,null,,,,,,,,,,,,,,,,,,
1563.300000011921,,memorable_rating,152853,US_Cities_List/nat_westpalmbeach.png,,53,,,5,,,,,,,,,,,,,,,
null,,confidence_buffer,152954,confidence_buffer,,null,,,,,,,,,,,,,,,,,,
null,,thebreak,153457,break,,null,,,,,,,,,,,,,,,,,,
4678.900000035763,,familiar_rating,158137,Fictional_Cities_List/img_natural_42.png,,50,Fictional_Cities_List/img_natural_42.png,NAT,2,,,,,,,,,,,,,,,
null,,confidence_buffer,158239,confidence_buffer,,null,,,,,,,,,,,,,,,,,,
1662.699999988079,,unique_rating,159904,Fictional_Cities_List/img_natural_42.png,,52,,,4,,,,,,,,,,,,,,,
null,,confidence_buffer,160007,confidence_buffer,,null,,,,,,,,,,,,,,,,,,
1445.2999999523163,,memorable_rating,161455,Fictional_Cities_List/img_natural_42.png,,53,,,5,,,,,,,,,,,,,,,
null,,confidence_buffer,161557,confidence_buffer,,null,,,,,,,,,,,,,,,,,,
null,,thebreak,162062,break,,null,,,,,,,,,,,,,,,,,,
2549,,familiar_rating,164613,Fictional_Cities_List/img_natural_09.png,,52,Fictional_Cities_List/img_natural_09.png,NAT,4,,,,,,,,,,,,,,,
null,,confidence_buffer,164716,confidence_buffer,,null,,,,,,,,,,,,,,,,,,
5404.699999988079,,unique_rating,170123,Fictional_Cities_List/img_natural_09.png,,53,,,5,,,,,,,,,,,,,,,
null,,confidence_buffer,170226,confidence_buffer,,null,,,,,,,,,,,,,,,,,,
1475.300000011921,,memorable_rating,171704,Fictional_Cities_List/img_natural_09.png,,53,,,5,,,,,,,,,,,,,,,
null,,confidence_buffer,171820,confidence_buffer,,null,,,,,,,,,,,,,,,,,,
null,,thebreak,172322,break,,null,,,,,,,,,,,,,,,,,,
8586.899999976158,,familiar_rating,180911,US_Cities_List/nat_coeurdalene.png,,50,US_Cities_List/nat_coeurdalene.png,NAT,2,,,,,,,,,,,,,,,
null,,confidence_buffer,181014,confidence_buffer,,null,,,,,,,,,,,,,,,,,,
3109.099999964237,,unique_rating,184126,US_Cities_List/nat_coeurdalene.png,,50,,,2,,,,,,,,,,,,,,,
null,,confidence_buffer,184228,confidence_buffer,,null,,,,,,,,,,,,,,,,,,
3483.600000023842,,memorable_rating,187714,US_Cities_List/nat_coeurdalene.png,,51,,,3,,,,,,,,,,,,,,,
null,,confidence_buffer,187816,confidence_buffer,,null,,,,,,,,,,,,,,,,,,
null,,thebreak,188322,break,,null,,,,,,,,,,,,,,,,,,
5667.199999988079,,familiar_rating,193991,Fictional_Cities_List/img_natural_41.png,,50,Fictional_Cities_List/img_natural_41.png,NAT,2,,,,,,,,,,,,,,,
null,,confidence_buffer,194093,confidence_buffer,,null,,,,,,,,,,,,,,,,,,
2464.5,,unique_rating,196560,Fictional_Cities_List/img_natural_41.png,,51,,,3,,,,,,,,,,,,,,,
null,,confidence_buffer,196663,confidence_buffer,,null,,,,,,,,,,,,,,,,,,
2622.100000023842,,probe_rating,199287,probe_rating,,53,,,,5,1,,,,,,,,,,,,,
null,,confidence_buffer,199390,confidence_buffer,,null,,,,,,,,,,,,,,,,,,
3827.600000023842,,memorable_rating,203219,Fictional_Cities_List/img_natural_41.png,,52,,,4,,,,,,,,,,,,,,,
null,,confidence_buffer,203321,confidence_buffer,,null,,,,,,,,,,,,,,,,,,
null,,thebreak,203823,break,,null,,,,,,,,,,,,,,,,,,
2678.600000023842,,familiar_rating,206503,US_Cities_List/mm_delawarecity.png,,49,US_Cities_List/mm_delawarecity.png,MM,1,,,,,,,,,,,,,,,
null,,confidence_buffer,206606,confidence_buffer,,null,,,,,,,,,,,,,,,,,,
3013.600000023842,,unique_rating,209621,US_Cities_List/mm_delawarecity.png,,53,,,5,,,,,,,,,,,,,,,
null,,confidence_buffer,209724,confidence_buffer,,null,,,,,,,,,,,,,,,,,,
2938.300000011921,,memorable_rating,212664,US_Cities_List/mm_delawarecity.png,,53,,,5,,,,,,,,,,,,,,,
null,,confidence_buffer,212766,confidence_buffer,,null,,,,,,,,,,,,,,,,,,
null,,thebreak,213268,break,,null,,,,,,,,,,,,,,,,,,
4604.199999988079,,familiar_rating,217874,US_Cities_List/mm_hilo.png,,50,US_Cities_List/mm_hilo.png,MM,2,,,,,,,,,,,,,,,
null,,confidence_buffer,217977,confidence_buffer,,null,,,,,,,,,,,,,,,,,,
4246.400000035763,,unique_rating,222225,US_Cities_List/mm_hilo.png,,51,,,3,,,,,,,,,,,,,,,
null,,confidence_buffer,222327,confidence_buffer,,null,,,,,,,,,,,,,,,,,,
2040.6000000238419,,memorable_rating,224369,US_Cities_List/mm_hilo.png,,51,,,3,,,,,,,,,,,,,,,
null,,confidence_buffer,224472,confidence_buffer,,null,,,,,,,,,,,,,,,,,,
null,,thebreak,224973,break,,null,,,,,,,,,,,,,,,,,,
4575.099999964237,,familiar_rating,229550,US_Cities_List/mm_hotsprings.png,,51,US_Cities_List/mm_hotsprings.png,MM,3,,,,,,,,,,,,,,,
null,,confidence_buffer,229653,confidence_buffer,,null,,,,,,,,,,,,,,,,,,
3278.5,,unique_rating,232933,US_Cities_List/mm_hotsprings.png,,51,,,3,,,,,,,,,,,,,,,
null,,confidence_buffer,233036,confidence_buffer,,null,,,,,,,,,,,,,,,,,,
3110,,memorable_rating,236148,US_Cities_List/mm_hotsprings.png,,52,,,4,,,,,,,,,,,,,,,
null,,confidence_buffer,236251,confidence_buffer,,null,,,,,,,,,,,,,,,,,,
null,,thebreak,236753,break,,null,,,,,,,,,,,,,,,,,,
2994.199999988079,,familiar_rating,239749,US_Cities_List/nat_sitka.png,,52,US_Cities_List/nat_sitka.png,NAT,4,,,,,,,,,,,,,,,
null,,confidence_buffer,239853,confidence_buffer,,null,,,,,,,,,,,,,,,,,,
5041.699999988079,,unique_rating,244897,US_Cities_List/nat_sitka.png,,50,,,2,,,,,,,,,,,,,,,
null,,confidence_buffer,244999,confidence_buffer,,null,,,,,,,,,,,,,,,,,,
3127.100000023842,,memorable_rating,248129,US_Cities_List/nat_sitka.png,,50,,,2,,,,,,,,,,,,,,,
null,,confidence_buffer,248232,confidence_buffer,,null,,,,,,,,,,,,,,,,,,
null,,thebreak,248734,break,,null,,,,,,,,,,,,,,,,,,
3950.800000011921,,familiar_rating,252687,US_Cities_List/mm_peoria.png,,49,US_Cities_List/mm_peoria.png,MM,1,,,,,,,,,,,,,,,
null,,confidence_buffer,252789,confidence_buffer,,null,,,,,,,,,,,,,,,,,,
1974.300000011921,,unique_rating,254765,US_Cities_List/mm_peoria.png,,53,,,5,,,,,,,,,,,,,,,
null,,confidence_buffer,254867,confidence_buffer,,null,,,,,,,,,,,,,,,,,,
768.1999999880791,,memorable_rating,255636,US_Cities_List/mm_peoria.png,,53,,,5,,,,,,,,,,,,,,,
null,,confidence_buffer,255738,confidence_buffer,,null,,,,,,,,,,,,,,,,,,
null,,thebreak,256240,break,,null,,,,,,,,,,,,,,,,,,
6934,,familiar_rating,263175,US_Cities_List/mm_sitka.png,,50,US_Cities_List/mm_sitka.png,MM,2,,,,,,,,,,,,,,,
null,,confidence_buffer,263279,confidence_buffer,,null,,,,,,,,,,,,,,,,,,
4332.300000011921,,unique_rating,267612,US_Cities_List/mm_sitka.png,,51,,,3,,,,,,,,,,,,,,,
null,,confidence_buffer,267714,confidence_buffer,,null,,,,,,,,,,,,,,,,,,
3284.400000035763,,memorable_rating,271001,US_Cities_List/mm_sitka.png,,52,,,4,,,,,,,,,,,,,,,
null,,confidence_buffer,271104,confidence_buffer,,null,,,,,,,,,,,,,,,,,,
null,,thebreak,271606,break,,null,,,,,,,,,,,,,,,,,,
4702.800000011921,,familiar_rating,276310,Fictional_Cities_List/img_manmade_39.png,,52,Fictional_Cities_List/img_manmade_39.png,MM,4,,,,,,,,,,,,,,,
null,,confidence_buffer,276413,confidence_buffer,,null,,,,,,,,,,,,,,,,,,
2463.7000000476837,,unique_rating,278878,Fictional_Cities_List/img_manmade_39.png,,49,,,1,,,,,,,,,,,,,,,
null,,confidence_buffer,278981,confidence_buffer,,null,,,,,,,,,,,,,,,,,,
2560.5,,memorable_rating,281543,Fictional_Cities_List/img_manmade_39.png,,50,,,2,,,,,,,,,,,,,,,
null,,confidence_buffer,281654,confidence_buffer,,null,,,,,,,,,,,,,,,,,,
null,,thebreak,282156,break,,null,,,,,,,,,,,,,,,,,,
7804.5,,familiar_rating,289963,US_Cities_List/nat_okoboji.png,,50,US_Cities_List/nat_okoboji.png,NAT,2,,,,,,,,,,,,,,,
null,,confidence_buffer,290065,confidence_buffer,,null,,,,,,,,,,,,,,,,,,
1876,,unique_rating,291942,US_Cities_List/nat_okoboji.png,,49,,,1,,,,,,,,,,,,,,,
null,,confidence_buffer,292044,confidence_buffer,,null,,,,,,,,,,,,,,,,,,
1789.800000011921,,memorable_rating,293835,US_Cities_List/nat_okoboji.png,,50,,,2,,,,,,,,,,,,,,,
null,,confidence_buffer,293937,confidence_buffer,,null,,,,,,,,,,,,,,,,,,
null,,thebreak,294439,break,,null,,,,,,,,,,,,,,,,,,
3141.800000011921,,familiar_rating,297583,US_Cities_List/nat_abilene.png,,52,US_Cities_List/nat_abilene.png,NAT,4,,,,,,,,,,,,,,,
null,,confidence_buffer,297687,confidence_buffer,,null,,,,,,,,,,,,,,,,,,
2101.399999976158,,unique_rating,299791,US_Cities_List/nat_abilene.png,,50,,,2,,,,,,,,,,,,,,,
null,,confidence_buffer,299894,confidence_buffer,,null,,,,,,,,,,,,,,,,,,
884.0999999642372,,memorable_rating,300780,US_Cities_List/nat_abilene.png,,50,,,2,,,,,,,,,,,,,,,
null,,confidence_buffer,300883,confidence_buffer,,null,,,,,,,,,,,,,,,,,,
null,,thebreak,301391,break,,null,,,,,,,,,,,,,,,,,,
4913.900000035763,,familiar_rating,306307,Fictional_Cities_List/img_natural_40.png,,50,Fictional_Cities_List/img_natural_40.png,NAT,2,,,,,,,,,,,,,,,
null,,confidence_buffer,306411,confidence_buffer,,null,,,,,,,,,,,,,,,,,,
1997,,unique_rating,308410,Fictional_Cities_List/img_natural_40.png,,50,,,2,,,,,,,,,,,,,,,
null,,confidence_buffer,308513,confidence_buffer,,null,,,,,,,,,,,,,,,,,,
2951.599999964237,,probe_rating,311467,probe_rating,,52,,,,4,1,,,,,,,,,,,,,
null,,confidence_buffer,311571,confidence_buffer,,null,,,,,,,,,,,,,,,,,,
7193.900000035763,,memorable_rating,318767,Fictional_Cities_List/img_natural_40.png,,51,,,3,,,,,,,,,,,,,,,
null,,confidence_buffer,318869,confidence_buffer,,null,,,,,,,,,,,,,,,,,,
null,,thebreak,319372,break,,null,,,,,,,,,,,,,,,,,,
2482.099999964237,,familiar_rating,321857,Fictional_Cities_List/img_manmade_29.png,,49,Fictional_Cities_List/img_manmade_29.png,MM,1,,,,,,,,,,,,,,,
null,,confidence_buffer,321959,confidence_buffer,,null,,,,,,,,,,,,,,,,,,
2141.899999976158,,unique_rating,324103,Fictional_Cities_List/img_manmade_29.png,,53,,,5,,,,,,,,,,,,,,,
null,,confidence_buffer,324206,confidence_buffer,,null,,,,,,,,,,,,,,,,,,
2893.100000023842,,memorable_rating,327101,Fictional_Cities_List/img_manmade_29.png,,53,,,5,,,,,,,,,,,,,,,
null,,confidence_buffer,327203,confidence_buffer,,null,,,,,,,,,,,,,,,,,,
null,,thebreak,327704,break,,null,,,,,,,,,,,,,,,,,,
6870.899999976158,,familiar_rating,334577,US_Cities_List/nat_boulder.png,,49,US_Cities_List/nat_boulder.png,NAT,1,,,,,,,,,,,,,,,
null,,confidence_buffer,334680,confidence_buffer,,null,,,,,,,,,,,,,,,,,,
2563.699999988079,,unique_rating,337247,US_Cities_List/nat_boulder.png,,50,,,2,,,,,,,,,,,,,,,
null,,confidence_buffer,337350,confidence_buffer,,null,,,,,,,,,,,,,,,,,,
1609.199999988079,,memorable_rating,338961,US_Cities_List/nat_boulder.png,,52,,,4,,,,,,,,,,,,,,,
null,,confidence_buffer,339064,confidence_buffer,,null,,,,,,,,,,,,,,,,,,
null,,thebreak,339568,break,,null,,,,,,,,,,,,,,,,,,
3487.199999988079,,familiar_rating,343058,US_Cities_List/mm_abilene.png,,49,US_Cities_List/mm_abilene.png,MM,1,,,,,,,,,,,,,,,
null,,confidence_buffer,343162,confidence_buffer,,null,,,,,,,,,,,,,,,,,,
2514.600000023842,,unique_rating,345678,US_Cities_List/mm_abilene.png,,53,,,5,,,,,,,,,,,,,,,
null,,confidence_buffer,345783,confidence_buffer,,null,,,,,,,,,,,,,,,,,,
1928.199999988079,,memorable_rating,347713,US_Cities_List/mm_abilene.png,,53,,,5,,,,,,,,,,,,,,,
null,,confidence_buffer,347815,confidence_buffer,,null,,,,,,,,,,,,,,,,,,
null,,thebreak,348316,break,,null,,,,,,,,,,,,,,,,,,
5124,,familiar_rating,353442,Fictional_Cities_List/img_manmade_48.png,,51,Fictional_Cities_List/img_manmade_48.png,MM,3,,,,,,,,,,,,,,,
null,,confidence_buffer,353546,confidence_buffer,,null,,,,,,,,,,,,,,,,,,
4454.699999988079,,unique_rating,358002,Fictional_Cities_List/img_manmade_48.png,,52,,,4,,,,,,,,,,,,,,,
null,,confidence_buffer,358105,confidence_buffer,,null,,,,,,,,,,,,,,,,,,
3380.5,,memorable_rating,361487,Fictional_Cities_List/img_manmade_48.png,,52,,,4,,,,,,,,,,,,,,,
null,,confidence_buffer,361589,confidence_buffer,,null,,,,,,,,,,,,,,,,,,
null,,thebreak,362090,break,,null,,,,,,,,,,,,,,,,,,
3782,,familiar_rating,365874,Fictional_Cities_List/img_manmade_40.png,,49,Fictional_Cities_List/img_manmade_40.png,MM,1,,,,,,,,,,,,,,,
null,,confidence_buffer,365978,confidence_buffer,,null,,,,,,,,,,,,,,,,,,
1558.199999988079,,unique_rating,367538,Fictional_Cities_List/img_manmade_40.png,,53,,,5,,,,,,,,,,,,,,,
null,,confidence_buffer,367642,confidence_buffer,,null,,,,,,,,,,,,,,,,,,
941,,memorable_rating,368585,Fictional_Cities_List/img_manmade_40.png,,52,,,4,,,,,,,,,,,,,,,
null,,confidence_buffer,368689,confidence_buffer,,null,,,,,,,,,,,,,,,,,,
null,,thebreak,369191,break,,null,,,,,,,,,,,,,,,,,,
2892.800000011921,,familiar_rating,372086,Fictional_Cities_List/img_natural_29.png,,49,Fictional_Cities_List/img_natural_29.png,NAT,1,,,,,,,,,,,,,,,
null,,confidence_buffer,372189,confidence_buffer,,null,,,,,,,,,,,,,,,,,,
1754.9000000357628,,probe_rating,373946,probe_rating,,51,,,,3,1,,,,,,,,,,,,,
null,,confidence_buffer,374049,confidence_buffer,,null,,,,,,,,,,,,,,,,,,
2264.599999964237,,unique_rating,376315,Fictional_Cities_List/img_natural_29.png,,53,,,5,,,,,,,,,,,,,,,
null,,confidence_buffer,376417,confidence_buffer,,null,,,,,,,,,,,,,,,,,,
360.80000001192093,,memorable_rating,376780,Fictional_Cities_List/img_natural_29.png,,53,,,5,,,,,,,,,,,,,,,
null,,confidence_buffer,376883,confidence_buffer,,null,,,,,,,,,,,,,,,,,,
null,,thebreak,377385,break,,null,,,,,,,,,,,,,,,,,,
4476.600000023842,,familiar_rating,381864,Fictional_Cities_List/img_manmade_09.png,,51,Fictional_Cities_List/img_manmade_09.png,MM,3,,,,,,,,,,,,,,,
null,,confidence_buffer,381967,confidence_buffer,,null,,,,,,,,,,,,,,,,,,
3403.800000011921,,unique_rating,385373,Fictional_Cities_List/img_manmade_09.png,,50,,,2,,,,,,,,,,,,,,,
null,,confidence_buffer,385475,confidence_buffer,,null,,,,,,,,,,,,,,,,,,
3155.600000023842,,memorable_rating,388633,Fictional_Cities_List/img_manmade_09.png,,51,,,3,,,,,,,,,,,,,,,
null,,confidence_buffer,388735,confidence_buffer,,null,,,,,,,,,,,,,,,,,,
null,,thebreak,389238,break,,null,,,,,,,,,,,,,,,,,,
2547.699999988079,,familiar_rating,391788,US_Cities_List/nat_hotsprings.png,,52,US_Cities_List/nat_hotsprings.png,NAT,4,,,,,,,,,,,,,,,
null,,confidence_buffer,391891,confidence_buffer,,null,,,,,,,,,,,,,,,,,,
1435.8999999761581,,probe_rating,393328,probe_rating,,53,,,,5,1,,,,,,,,,,,,,
null,,confidence_buffer,393429,confidence_buffer,,null,,,,,,,,,,,,,,,,,,
4400.399999976158,,unique_rating,397831,US_Cities_List/nat_hotsprings.png,,50,,,2,,,,,,,,,,,,,,,
null,,confidence_buffer,397934,confidence_buffer,,null,,,,,,,,,,,,,,,,,,
2174.699999988079,,memorable_rating,400110,US_Cities_List/nat_hotsprings.png,,51,,,3,,,,,,,,,,,,,,,
null,,confidence_buffer,400212,confidence_buffer,,null,,,,,,,,,,,,,,,,,,
null,,thebreak,400713,break,,null,,,,,,,,,,,,,,,,,,
2574.300000011921,,familiar_rating,403289,US_Cities_List/mm_healdsburg.png,,49,US_Cities_List/mm_healdsburg.png,MM,1,,,,,,,,,,,,,,,
null,,confidence_buffer,403393,confidence_buffer,,null,,,,,,,,,,,,,,,,,,
1896.0999999642372,,unique_rating,405291,US_Cities_List/mm_healdsburg.png,,53,,,5,,,,,,,,,,,,,,,
null,,confidence_buffer,405393,confidence_buffer,,null,,,,,,,,,,,,,,,,,,
280.19999998807907,,memorable_rating,405675,US_Cities_List/mm_healdsburg.png,,53,,,5,,,,,,,,,,,,,,,
null,,confidence_buffer,405778,confidence_buffer,,null,,,,,,,,,,,,,,,,,,
null,,thebreak,406280,break,,null,,,,,,,,,,,,,,,,,,
5446.800000011921,,intro_0,411729,instruct,,32,,,,,,,,,,,,,,,,,,
9325.599999964237,,intro_1,421056,instruct,,32,,,,,,,,,,,,,,,,,,
30320.599999964237,,intro_2,451379,instruct,,32,,,,,,,,,,,,,,,,,,
null,,instruct_dir_4,452881,instruct,,null,,,,,,,,,,,,,,,,,,
14962.600000023842,,pt2_realistic_rating,467845,US_Cities_List/nat_abilene.png,,53,US_Cities_List/nat_abilene.png,NAT,5,,,,,,,,,,,,,,,
null,,confidence_buffer,467947,confidence_buffer,,null,,,,,,,,,,,,,,,,,,
3695.900000035763,,pt2_unique_rating,471644,US_Cities_List/nat_abilene.png,,51,,,3,,,,,,,,,,,,,,,
null,,confidence_buffer,471747,confidence_buffer,,null,,,,,,,,,,,,,,,,,,
18514.600000023842,,pt2_memorable_rating,490263,US_Cities_List/nat_abilene.png,,50,,,2,,,,,,,,,,,,,,,
null,,confidence_buffer,490364,confidence_buffer,,null,,,,,,,,,,,,,,,,,,
14611.599999964237,,recognition_phase,504977,US_Cities_List/nat_abilene.png,,50,,,,,,old,1,1,,,,,,,,,,
null,,confidence_buffer,505078,confidence_buffer,,null,,,,,,,,,,,,,,,,,,
null,,thebreak,505580,break,,null,,,,,,,,,,,,,,,,,,
20675.80000001192,,pt2_realistic_rating,526257,Fictional_Cities_List/img_manmade_06.png,,52,Fictional_Cities_List/img_manmade_06.png,MM,4,,,,,,,,,,,,,,,
null,,confidence_buffer,526361,confidence_buffer,,null,,,,,,,,,,,,,,,,,,
4089.300000011921,,pt2_unique_rating,530453,Fictional_Cities_List/img_manmade_06.png,,51,,,3,,,,,,,,,,,,,,,
null,,confidence_buffer,530555,confidence_buffer,,null,,,,,,,,,,,,,,,,,,
5601.300000011921,,pt2_memorable_rating,536157,Fictional_Cities_List/img_manmade_06.png,,53,,,5,,,,,,,,,,,,,,,
null,,confidence_buffer,536260,confidence_buffer,,null,,,,,,,,,,,,,,,,,,
3200.699999988079,,probe_rating,539462,probe_rating,,51,,,,3,1,,,,,,,,,,,,,
null,,confidence_buffer,539565,confidence_buffer,,null,,,,,,,,,,,,,,,,,,
4305.199999988079,,recognition_phase,543872,Fictional_Cities_List/img_manmade_06.png,,52,,,,,,new,0,0.5,,,,,,,,,,
null,,confidence_buffer,543974,confidence_buffer,,null,,,,,,,,,,,,,,,,,,
null,,thebreak,544476,break,,null,,,,,,,,,,,,,,,,,,
10843.099999964237,,pt2_realistic_rating,555321,US_Cities_List/mm_hilo.png,,53,US_Cities_List/mm_hilo.png,MM,5,,,,,,,,,,,,,,,
null,,confidence_buffer,555424,confidence_buffer,,null,,,,,,,,,,,,,,,,,,
3213.2000000476837,,pt2_unique_rating,558638,US_Cities_List/mm_hilo.png,,50,,,2,,,,,,,,,,,,,,,
null,,confidence_buffer,558740,confidence_buffer,,null,,,,,,,,,,,,,,,,,,
3069.2000000476837,,pt2_memorable_rating,561811,US_Cities_List/mm_hilo.png,,51,,,3,,,,,,,,,,,,,,,
null,,confidence_buffer,561913,confidence_buffer,,null,,,,,,,,,,,,,,,,,,
5692.599999964237,,recognition_phase,567608,US_Cities_List/mm_hilo.png,,49,,,,,,old,1,0.6666666666666666,,,,,,,,,,
null,,confidence_buffer,567712,confidence_buffer,,null,,,,,,,,,,,,,,,,,,
null,,thebreak,568214,break,,null,,,,,,,,,,,,,,,,,,
8628.699999988079,,pt2_realistic_rating,576845,US_Cities_List/mm_bisbee.png,,52,US_Cities_List/mm_bisbee.png,MM,4,,,,,,,,,,,,,,,
null,,confidence_buffer,576949,confidence_buffer,,null,,,,,,,,,,,,,,,,,,
2857,,pt2_unique_rating,579808,US_Cities_List/mm_bisbee.png,,52,,,4,,,,,,,,,,,,,,,
null,,confidence_buffer,579911,confidence_buffer,,null,,,,,,,,,,,,,,,,,,
17838.80000001192,,pt2_memorable_rating,597752,US_Cities_List/mm_bisbee.png,,53,,,5,,,,,,,,,,,,,,,
null,,confidence_buffer,597854,confidence_buffer,,null,,,,,,,,,,,,,,,,,,
5127.800000011921,,recognition_phase,602984,US_Cities_List/mm_bisbee.png,,52,,,,,,new,1,0.75,,,,,,,,,,
null,,confidence_buffer,603086,confidence_buffer,,null,,,,,,,,,,,,,,,,,,
null,,thebreak,603588,break,,null,,,,,,,,,,,,,,,,,,
6645.800000011921,,pt2_realistic_rating,610236,US_Cities_List/mm_cornwall.png,,53,US_Cities_List/mm_cornwall.png,MM,5,,,,,,,,,,,,,,,
null,,confidence_buffer,610337,confidence_buffer,,null,,,,,,,,,,,,,,,,,,
4320.699999988079,,pt2_unique_rating,614660,US_Cities_List/mm_cornwall.png,,53,,,5,,,,,,,,,,,,,,,
null,,confidence_buffer,614763,confidence_buffer,,null,,,,,,,,,,,,,,,,,,
2878.599999964237,,pt2_memorable_rating,617643,US_Cities_List/mm_cornwall.png,,52,,,4,,,,,,,,,,,,,,,
null,,confidence_buffer,617746,confidence_buffer,,null,,,,,,,,,,,,,,,,,,
3390.699999988079,,recognition_phase,621139,US_Cities_List/mm_cornwall.png,,52,,,,,,new,1,0.8,,,,,,,,,,
null,,confidence_buffer,621242,confidence_buffer,,null,,,,,,,,,,,,,,,,,,
null,,thebreak,621744,break,,null,,,,,,,,,,,,,,,,,,
3927.900000035763,,pt2_realistic_rating,625674,Fictional_Cities_List/img_manmade_39.png,,53,Fictional_Cities_List/img_manmade_39.png,MM,5,,,,,,,,,,,,,,,
null,,confidence_buffer,625778,confidence_buffer,,null,,,,,,,,,,,,,,,,,,
2548,,pt2_unique_rating,628327,Fictional_Cities_List/img_manmade_39.png,,50,,,2,,,,,,,,,,,,,,,
null,,confidence_buffer,628429,confidence_buffer,,null,,,,,,,,,,,,,,,,,,
5695,,pt2_memorable_rating,634126,Fictional_Cities_List/img_manmade_39.png,,53,,,5,,,,,,,,,,,,,,,
null,,confidence_buffer,634229,confidence_buffer,,null,,,,,,,,,,,,,,,,,,
2749.300000011921,,recognition_phase,636981,Fictional_Cities_List/img_manmade_39.png,,49,,,,,,old,1,0.8333333333333334,,,,,,,,,,
null,,confidence_buffer,637084,confidence_buffer,,null,,,,,,,,,,,,,,,,,,
null,,thebreak,637585,break,,null,,,,,,,,,,,,,,,,,,
5397.199999988079,,pt2_realistic_rating,642984,Fictional_Cities_List/img_manmade_24.png,,53,Fictional_Cities_List/img_manmade_24.png,MM,5,,,,,,,,,,,,,,,
null,,confidence_buffer,643086,confidence_buffer,,null,,,,,,,,,,,,,,,,,,
5338.300000011921,,pt2_unique_rating,648426,Fictional_Cities_List/img_manmade_24.png,,50,,,2,,,,,,,,,,,,,,,
null,,confidence_buffer,648530,confidence_buffer,,null,,,,,,,,,,,,,,,,,,
3446,,pt2_memorable_rating,651978,Fictional_Cities_List/img_manmade_24.png,,51,,,3,,,,,,,,,,,,,,,
null,,confidence_buffer,652080,confidence_buffer,,null,,,,,,,,,,,,,,,,,,
6744.100000023842,,recognition_phase,658826,Fictional_Cities_List/img_manmade_24.png,,51,,,,,,new,1,0.8571428571428571,,,,,,,,,,
null,,confidence_buffer,658933,confidence_buffer,,null,,,,,,,,,,,,,,,,,,
null,,thebreak,659435,break,,null,,,,,,,,,,,,,,,,,,
11389.899999976158,,pt2_realistic_rating,670827,Fictional_Cities_List/img_manmade_31.png,,51,Fictional_Cities_List/img_manmade_31.png,MM,3,,,,,,,,,,,,,,,
null,,confidence_buffer,670929,confidence_buffer,,null,,,,,,,,,,,,,,,,,,
4899.699999988079,,pt2_unique_rating,675830,Fictional_Cities_List/img_manmade_31.png,,52,,,4,,,,,,,,,,,,,,,
null,,confidence_buffer,675933,confidence_buffer,,null,,,,,,,,,,,,,,,,,,
3183.099999964237,,pt2_memorable_rating,679117,Fictional_Cities_List/img_manmade_31.png,,52,,,4,,,,,,,,,,,,,,,
null,,confidence_buffer,679218,confidence_buffer,,null,,,,,,,,,,,,,,,,,,
5040.899999976158,,recognition_phase,684260,Fictional_Cities_List/img_manmade_31.png,,52,,,,,,new,1,0.875,,,,,,,,,,
null,,confidence_buffer,684364,confidence_buffer,,null,,,,,,,,,,,,,,,,,,
null,,thebreak,684866,break,,null,,,,,,,,,,,,,,,,,,
5729.900000035763,,pt2_realistic_rating,690598,Fictional_Cities_List/img_manmade_42.png,,52,Fictional_Cities_List/img_manmade_42.png,MM,4,,,,,,,,,,,,,,,
null,,confidence_buffer,690700,confidence_buffer,,null,,,,,,,,,,,,,,,,,,
4241.599999964237,,pt2_unique_rating,694944,Fictional_Cities_List/img_manmade_42.png,,52,,,4,,,,,,,,,,,,,,,
null,,confidence_buffer,695047,confidence_buffer,,null,,,,,,,,,,,,,,,,,,
3261.599999964237,,pt2_memorable_rating,698311,Fictional_Cities_List/img_manmade_42.png,,53,,,5,,,,,,,,,,,,,,,
null,,confidence_buffer,698413,confidence_buffer,,null,,,,,,,,,,,,,,,,,,
1783.3999999761581,,probe_rating,700199,probe_rating,,51,,,,3,1,,,,,,,,,,,,,
null,,confidence_buffer,700302,confidence_buffer,,null,,,,,,,,,,,,,,,,,,
2333.5,,recognition_phase,702636,Fictional_Cities_List/img_manmade_42.png,,49,,,,,,old,1,0.8888888888888888,,,,,,,,,,
null,,confidence_buffer,702738,confidence_buffer,,null,,,,,,,,,,,,,,,,,,
null,,thebreak,703240,break,,null,,,,,,,,,,,,,,,,,,
4507.400000035763,,pt2_realistic_rating,707749,Fictional_Cities_List/img_natural_31.png,,50,Fictional_Cities_List/img_natural_31.png,NAT,2,,,,,,,,,,,,,,,
null,,confidence_buffer,707853,confidence_buffer,,null,,,,,,,,,,,,,,,,,,
5652.600000023842,,pt2_unique_rating,713507,Fictional_Cities_List/img_natural_31.png,,52,,,4,,,,,,,,,,,,,,,
null,,confidence_buffer,713608,confidence_buffer,,null,,,,,,,,,,,,,,,,,,
1788.5999999642372,,pt2_memorable_rating,715398,Fictional_Cities_List/img_natural_31.png,,53,,,5,,,,,,,,,,,,,,,
null,,confidence_buffer,715499,confidence_buffer,,null,,,,,,,,,,,,,,,,,,
1894.6000000238419,,probe_rating,717395,probe_rating,,51,,,,3,1,,,,,,,,,,,,,
null,,confidence_buffer,717497,confidence_buffer,,null,,,,,,,,,,,,,,,,,,
3663.699999988079,,recognition_phase,721162,Fictional_Cities_List/img_natural_31.png,,52,,,,,,new,1,0.9,,,,,,,,,,
null,,confidence_buffer,721265,confidence_buffer,,null,,,,,,,,,,,,,,,,,,
null,,thebreak,721767,break,,null,,,,,,,,,,,,,,,,,,
5255.399999976158,,pt2_realistic_rating,727024,US_Cities_List/nat_cornwall.png,,52,US_Cities_List/nat_cornwall.png,NAT,4,,,,,,,,,,,,,,,
null,,confidence_buffer,727127,confidence_buffer,,null,,,,,,,,,,,,,,,,,,
2967.099999964237,,pt2_unique_rating,730096,US_Cities_List/nat_cornwall.png,,50,,,2,,,,,,,,,,,,,,,
null,,confidence_buffer,730199,confidence_buffer,,null,,,,,,,,,,,,,,,,,,
76.59999996423721,,pt2_memorable_rating,730277,US_Cities_List/nat_cornwall.png,,50,,,2,,,,,,,,,,,,,,,
null,,confidence_buffer,730381,confidence_buffer,,null,,,,,,,,,,,,,,,,,,
5621.099999964237,,recognition_phase,736003,US_Cities_List/nat_cornwall.png,,52,,,,,,new,1,0.9090909090909091,,,,,,,,,,
null,,confidence_buffer,736107,confidence_buffer,,null,,,,,,,,,,,,,,,,,,
null,,thebreak,736609,break,,null,,,,,,,,,,,,,,,,,,
7552.199999988079,,pt2_realistic_rating,744164,US_Cities_List/mm_westpalmbeach.png,,52,US_Cities_List/mm_westpalmbeach.png,MM,4,,,,,,,,,,,,,,,
null,,confidence_buffer,744266,confidence_buffer,,null,,,,,,,,,,,,,,,,,,
1814.300000011921,,pt2_unique_rating,746081,US_Cities_List/mm_westpalmbeach.png,,52,,,4,,,,,,,,,,,,,,,
null,,confidence_buffer,746184,confidence_buffer,,null,,,,,,,,,,,,,,,,,,
3100.699999988079,,pt2_memorable_rating,749286,US_Cities_List/mm_westpalmbeach.png,,53,,,5,,,,,,,,,,,,,,,
null,,confidence_buffer,749391,confidence_buffer,,null,,,,,,,,,,,,,,,,,,
2268.199999988079,,recognition_phase,751661,US_Cities_List/mm_westpalmbeach.png,,52,,,,,,new,1,0.9166666666666666,,,,,,,,,,
null,,confidence_buffer,751763,confidence_buffer,,null,,,,,,,,,,,,,,,,,,
null,,thebreak,752265,break,,null,,,,,,,,,,,,,,,,,,
6480,,pt2_realistic_rating,758747,Fictional_Cities_List/img_natural_24.png,,50,Fictional_Cities_List/img_natural_24.png,NAT,2,,,,,,,,,,,,,,,
null,,confidence_buffer,758850,confidence_buffer,,null,,,,,,,,,,,,,,,,,,
4496.900000035763,,pt2_unique_rating,763348,Fictional_Cities_List/img_natural_24.png,,53,,,5,,,,,,,,,,,,,,,
null,,confidence_buffer,763451,confidence_buffer,,null,,,,,,,,,,,,,,,,,,
3186.5,,pt2_memorable_rating,766639,Fictional_Cities_List/img_natural_24.png,,53,,,5,,,,,,,,,,,,,,,
null,,confidence_buffer,766743,confidence_buffer,,null,,,,,,,,,,,,,,,,,,
6233.400000035763,,recognition_phase,772978,Fictional_Cities_List/img_natural_24.png,,51,,,,,,new,1,0.9230769230769231,,,,,,,,,,
null,,confidence_buffer,773081,confidence_buffer,,null,,,,,,,,,,,,,,,,,,
null,,thebreak,773583,break,,null,,,,,,,,,,,,,,,,,,
4340,,pt2_realistic_rating,777926,Fictional_Cities_List/img_natural_42.png,,51,Fictional_Cities_List/img_natural_42.png,NAT,3,,,,,,,,,,,,,,,
null,,confidence_buffer,778029,confidence_buffer,,null,,,,,,,,,,,,,,,,,,
3520.300000011921,,pt2_unique_rating,781551,Fictional_Cities_List/img_natural_42.png,,52,,,4,,,,,,,,,,,,,,,
null,,confidence_buffer,781654,confidence_buffer,,null,,,,,,,,,,,,,,,,,,
2479,,pt2_memorable_rating,784134,Fictional_Cities_List/img_natural_42.png,,53,,,5,,,,,,,,,,,,,,,
null,,confidence_buffer,784235,confidence_buffer,,null,,,,,,,,,,,,,,,,,,
2215.600000023842,,recognition_phase,786452,Fictional_Cities_List/img_natural_42.png,,49,,,,,,old,1,0.9285714285714286,,,,,,,,,,
null,,confidence_buffer,786554,confidence_buffer,,null,,,,,,,,,,,,,,,,,,
null,,thebreak,787071,break,,null,,,,,,,,,,,,,,,,,,
8150.100000023842,,pt2_realistic_rating,795223,US_Cities_List/mm_sitka.png,,51,US_Cities_List/mm_sitka.png,MM,3,,,,,,,,,,,,,,,
null,,confidence_buffer,795327,confidence_buffer,,null,,,,,,,,,,,,,,,,,,
2894.900000035763,,pt2_unique_rating,798224,US_Cities_List/mm_sitka.png,,53,,,5,,,,,,,,,,,,,,,
null,,confidence_buffer,798326,confidence_buffer,,null,,,,,,,,,,,,,,,,,,
2097.5,,pt2_memorable_rating,800425,US_Cities_List/mm_sitka.png,,53,,,5,,,,,,,,,,,,,,,
null,,confidence_buffer,800533,confidence_buffer,,null,,,,,,,,,,,,,,,,,,
1984,,probe_rating,802519,probe_rating,,50,,,,2,1,,,,,,,,,,,,,
null,,confidence_buffer,802623,confidence_buffer,,null,,,,,,,,,,,,,,,,,,
4039.300000011921,,recognition_phase,806664,US_Cities_List/mm_sitka.png,,49,,,,,,old,1,0.9333333333333333,,,,,,,,,,
null,,confidence_buffer,806767,confidence_buffer,,null,,,,,,,,,,,,,,,,,,
null,,thebreak,807269,break,,null,,,,,,,,,,,,,,,,,,
5851.100000023842,,pt2_realistic_rating,813122,US_Cities_List/mm_delawarecity.png,,52,US_Cities_List/mm_delawarecity.png,MM,4,,,,,,,,,,,,,,,
null,,confidence_buffer,813226,confidence_buffer,,null,,,,,,,,,,,,,,,,,,
2788,,pt2_unique_rating,816016,US_Cities_List/mm_delawarecity.png,,51,,,3,,,,,,,,,,,,,,,
null,,confidence_buffer,816118,confidence_buffer,,null,,,,,,,,,,,,,,,,,,
2646.899999976158,,pt2_memorable_rating,818766,US_Cities_List/mm_delawarecity.png,,51,,,3,,,,,,,,,,,,,,,
null,,confidence_buffer,818867,confidence_buffer,,null,,,,,,,,,,,,,,,,,,
3867.7999999523163,,recognition_phase,822736,US_Cities_List/mm_delawarecity.png,,50,,,,,,old,1,0.9375,,,,,,,,,,
null,,confidence_buffer,822839,confidence_buffer,,null,,,,,,,,,,,,,,,,,,
null,,thebreak,823341,break,,null,,,,,,,,,,,,,,,,,,
11089.199999988079,,pt2_realistic_rating,834432,Fictional_Cities_List/img_manmade_48.png,,50,Fictional_Cities_List/img_manmade_48.png,MM,2,,,,,,,,,,,,,,,
null,,confidence_buffer,834535,confidence_buffer,,null,,,,,,,,,,,,,,,,,,
3390.800000011921,,pt2_unique_rating,837928,Fictional_Cities_List/img_manmade_48.png,,53,,,5,,,,,,,,,,,,,,,
null,,confidence_buffer,838031,confidence_buffer,,null,,,,,,,,,,,,,,,,,,
2223.300000011921,,pt2_memorable_rating,840256,Fictional_Cities_List/img_manmade_48.png,,53,,,5,,,,,,,,,,,,,,,
null,,confidence_buffer,840359,confidence_buffer,,null,,,,,,,,,,,,,,,,,,
2543.100000023842,,recognition_phase,842904,Fictional_Cities_List/img_manmade_48.png,,49,,,,,,old,1,0.9411764705882353,,,,,,,,,,
null,,confidence_buffer,843006,confidence_buffer,,null,,,,,,,,,,,,,,,,,,
null,,thebreak,843508,break,,null,,,,,,,,,,,,,,,,,,
4136.899999976158,,pt2_realistic_rating,847648,Fictional_Cities_List/img_manmade_09.png,,52,Fictional_Cities_List/img_manmade_09.png,MM,4,,,,,,,,,,,,,,,
null,,confidence_buffer,847751,confidence_buffer,,null,,,,,,,,,,,,,,,,,,
2631.699999988079,,pt2_unique_rating,850384,Fictional_Cities_List/img_manmade_09.png,,50,,,2,,,,,,,,,,,,,,,
null,,confidence_buffer,850486,confidence_buffer,,null,,,,,,,,,,,,,,,,,,
2276.5,,pt2_memorable_rating,852764,Fictional_Cities_List/img_manmade_09.png,,50,,,2,,,,,,,,,,,,,,,
null,,confidence_buffer,852866,confidence_buffer,,null,,,,,,,,,,,,,,,,,,
2928.199999988079,,recognition_phase,855795,Fictional_Cities_List/img_manmade_09.png,,50,,,,,,old,1,0.9444444444444444,,,,,,,,,,
null,,confidence_buffer,855897,confidence_buffer,,null,,,,,,,,,,,,,,,,,,
null,,thebreak,856398,break,,null,,,,,,,,,,,,,,,,,,
5388,,pt2_realistic_rating,861788,Fictional_Cities_List/img_manmade_38.png,,52,Fictional_Cities_List/img_manmade_38.png,MM,4,,,,,,,,,,,,,,,
null,,confidence_buffer,861891,confidence_buffer,,null,,,,,,,,,,,,,,,,,,
3978.300000011921,,pt2_unique_rating,865871,Fictional_Cities_List/img_manmade_38.png,,52,,,4,,,,,,,,,,,,,,,
null,,confidence_buffer,865973,confidence_buffer,,null,,,,,,,,,,,,,,,,,,
1572.699999988079,,probe_rating,867548,probe_rating,,51,,,,3,1,,,,,,,,,,,,,
null,,confidence_buffer,867652,confidence_buffer,,null,,,,,,,,,,,,,,,,,,
3234.800000011921,,pt2_memorable_rating,870889,Fictional_Cities_List/img_manmade_38.png,,52,,,4,,,,,,,,,,,,,,,
null,,confidence_buffer,870992,confidence_buffer,,null,,,,,,,,,,,,,,,,,,
3351.699999988079,,recognition_phase,874346,Fictional_Cities_List/img_manmade_38.png,,52,,,,,,new,1,0.9473684210526315,,,,,,,,,,
null,,confidence_buffer,874449,confidence_buffer,,null,,,,,,,,,,,,,,,,,,
null,,thebreak,874951,break,,null,,,,,,,,,,,,,,,,,,
6141.800000011921,,pt2_realistic_rating,881095,US_Cities_List/mm_okoboji.png,,52,US_Cities_List/mm_okoboji.png,MM,4,,,,,,,,,,,,,,,
null,,confidence_buffer,881198,confidence_buffer,,null,,,,,,,,,,,,,,,,,,
7651.800000011921,,pt2_unique_rating,888851,US_Cities_List/mm_okoboji.png,,52,,,4,,,,,,,,,,,,,,,
null,,confidence_buffer,888953,confidence_buffer,,null,,,,,,,,,,,,,,,,,,
2237.100000023842,,pt2_memorable_rating,891192,US_Cities_List/mm_okoboji.png,,53,,,5,,,,,,,,,,,,,,,
null,,confidence_buffer,891294,confidence_buffer,,null,,,,,,,,,,,,,,,,,,
1843.8999999761581,,recognition_phase,893139,US_Cities_List/mm_okoboji.png,,52,,,,,,new,1,0.95,,,,,,,,,,
null,,confidence_buffer,893243,confidence_buffer,,null,,,,,,,,,,,,,,,,,,
null,,thebreak,893746,break,,null,,,,,,,,,,,,,,,,,,
5685.199999988079,,pt2_realistic_rating,899433,US_Cities_List/nat_hotsprings.png,,53,US_Cities_List/nat_hotsprings.png,NAT,5,,,,,,,,,,,,,,,
null,,confidence_buffer,899537,confidence_buffer,,null,,,,,,,,,,,,,,,,,,
2703.7000000476837,,pt2_unique_rating,902243,US_Cities_List/nat_hotsprings.png,,50,,,2,,,,,,,,,,,,,,,
null,,confidence_buffer,902345,confidence_buffer,,null,,,,,,,,,,,,,,,,,,
1966.5,,pt2_memorable_rating,904313,US_Cities_List/nat_hotsprings.png,,51,,,3,,,,,,,,,,,,,,,
null,,confidence_buffer,904416,confidence_buffer,,null,,,,,,,,,,,,,,,,,,
1549.0999999642372,,recognition_phase,905967,US_Cities_List/nat_hotsprings.png,,49,,,,,,old,1,0.9523809523809523,,,,,,,,,,
null,,confidence_buffer,906069,confidence_buffer,,null,,,,,,,,,,,,,,,,,,
null,,thebreak,906571,break,,null,,,,,,,,,,,,,,,,,,
4778,,pt2_realistic_rating,911352,US_Cities_List/nat_coeurdalene.png,,53,US_Cities_List/nat_coeurdalene.png,NAT,5,,,,,,,,,,,,,,,
null,,confidence_buffer,911455,confidence_buffer,,null,,,,,,,,,,,,,,,,,,
2591.699999988079,,pt2_unique_rating,914048,US_Cities_List/nat_coeurdalene.png,,51,,,3,,,,,,,,,,,,,,,
null,,confidence_buffer,914151,confidence_buffer,,null,,,,,,,,,,,,,,,,,,
4854,,pt2_memorable_rating,919006,US_Cities_List/nat_coeurdalene.png,,51,,,3,,,,,,,,,,,,,,,
null,,confidence_buffer,919109,confidence_buffer,,null,,,,,,,,,,,,,,,,,,
1578.2000000476837,,recognition_phase,920689,US_Cities_List/nat_coeurdalene.png,,49,,,,,,old,1,0.9545454545454546,,,,,,,,,,
null,,confidence_buffer,920791,confidence_buffer,,null,,,,,,,,,,,,,,,,,,
null,,thebreak,921292,break,,null,,,,,,,,,,,,,,,,,,
8404.5,,pt2_realistic_rating,929698,Fictional_Cities_List/img_natural_20.png,,51,Fictional_Cities_List/img_natural_20.png,NAT,3,,,,,,,,,,,,,,,
null,,confidence_buffer,929800,confidence_buffer,,null,,,,,,,,,,,,,,,,,,
3205.5,,pt2_unique_rating,933007,Fictional_Cities_List/img_natural_20.png,,53,,,5,,,,,,,,,,,,,,,
null,,confidence_buffer,933109,confidence_buffer,,null,,,,,,,,,,,,,,,,,,
1812.7999999523163,,pt2_memorable_rating,934924,Fictional_Cities_List/img_natural_20.png,,53,,,5,,,,,,,,,,,,,,,
null,,confidence_buffer,935025,confidence_buffer,,null,,,,,,,,,,,,,,,,,,
2100.399999976158,,recognition_phase,937129,Fictional_Cities_List/img_natural_20.png,,52,,,,,,new,1,0.9565217391304348,,,,,,,,,,
null,,confidence_buffer,937243,confidence_buffer,,null,,,,,,,,,,,,,,,,,,
null,,thebreak,937744,break,,null,,,,,,,,,,,,,,,,,,
4989.199999988079,,pt2_realistic_rating,942736,US_Cities_List/nat_delawarecity.png,,53,US_Cities_List/nat_delawarecity.png,NAT,5,,,,,,,,,,,,,,,
null,,confidence_buffer,942838,confidence_buffer,,null,,,,,,,,,,,,,,,,,,
1702.800000011921,,probe_rating,944543,probe_rating,,49,,,,1,1,,,,,,,,,,,,,
null,,confidence_buffer,944646,confidence_buffer,,null,,,,,,,,,,,,,,,,,,
5128.800000011921,,pt2_unique_rating,949777,US_Cities_List/nat_delawarecity.png,,51,,,3,,,,,,,,,,,,,,,
null,,confidence_buffer,949882,confidence_buffer,,null,,,,,,,,,,,,,,,,,,
2022.800000011921,,pt2_memorable_rating,951906,US_Cities_List/nat_delawarecity.png,,51,,,3,,,,,,,,,,,,,,,
null,,confidence_buffer,952009,confidence_buffer,,null,,,,,,,,,,,,,,,,,,
3788.800000011921,,recognition_phase,955799,US_Cities_List/nat_delawarecity.png,,52,,,,,,new,1,0.9583333333333334,,,,,,,,,,
null,,confidence_buffer,955901,confidence_buffer,,null,,,,,,,,,,,,,,,,,,
null,,thebreak,956402,break,,null,,,,,,,,,,,,,,,,,,
5299.599999964237,,pt2_realistic_rating,961703,Fictional_Cities_List/img_natural_39.png,,53,Fictional_Cities_List/img_natural_39.png,NAT,5,,,,,,,,,,,,,,,
null,,confidence_buffer,961807,confidence_buffer,,null,,,,,,,,,,,,,,,,,,
2125.199999988079,,pt2_unique_rating,963935,Fictional_Cities_List/img_natural_39.png,,50,,,2,,,,,,,,,,,,,,,
null,,confidence_buffer,964038,confidence_buffer,,null,,,,,,,,,,,,,,,,,,
1749.800000011921,,probe_rating,965790,probe_rating,,51,,,,3,1,,,,,,,,,,,,,
null,,confidence_buffer,965893,confidence_buffer,,null,,,,,,,,,,,,,,,,,,
2416.899999976158,,pt2_memorable_rating,968312,Fictional_Cities_List/img_natural_39.png,,51,,,3,,,,,,,,,,,,,,,
null,,confidence_buffer,968413,confidence_buffer,,null,,,,,,,,,,,,,,,,,,
1792.5,,recognition_phase,970208,Fictional_Cities_List/img_natural_39.png,,49,,,,,,old,1,0.96,,,,,,,,,,
null,,confidence_buffer,970312,confidence_buffer,,null,,,,,,,,,,,,,,,,,,
null,,thebreak,970824,break,,null,,,,,,,,,,,,,,,,,,
3832.800000011921,,pt2_realistic_rating,974659,US_Cities_List/nat_peoria.png,,53,US_Cities_List/nat_peoria.png,NAT,5,,,,,,,,,,,,,,,
null,,confidence_buffer,974762,confidence_buffer,,null,,,,,,,,,,,,,,,,,,
2321.800000011921,,pt2_unique_rating,977085,US_Cities_List/nat_peoria.png,,50,,,2,,,,,,,,,,,,,,,
null,,confidence_buffer,977187,confidence_buffer,,null,,,,,,,,,,,,,,,,,,
1667.5,,pt2_memorable_rating,978856,US_Cities_List/nat_peoria.png,,51,,,3,,,,,,,,,,,,,,,
null,,confidence_buffer,978964,confidence_buffer,,null,,,,,,,,,,,,,,,,,,
4749.800000011921,,recognition_phase,983716,US_Cities_List/nat_peoria.png,,51,,,,,,new,1,0.9615384615384616,,,,,,,,,,
null,,confidence_buffer,983818,confidence_buffer,,null,,,,,,,,,,,,,,,,,,
null,,thebreak,984321,break,,null,,,,,,,,,,,,,,,,,,
7962.800000011921,,pt2_realistic_rating,992284,US_Cities_List/nat_boulder.png,,52,US_Cities_List/nat_boulder.png,NAT,4,,,,,,,,,,,,,,,
null,,confidence_buffer,992386,confidence_buffer,,null,,,,,,,,,,,,,,,,,,
2870.100000023842,,pt2_unique_rating,995257,US_Cities_List/nat_boulder.png,,50,,,2,,,,,,,,,,,,,,,
null,,confidence_buffer,995359,confidence_buffer,,null,,,,,,,,,,,,,,,,,,
2099.899999976158,,pt2_memorable_rating,997460,US_Cities_List/nat_boulder.png,,52,,,4,,,,,,,,,,,,,,,
null,,confidence_buffer,997562,confidence_buffer,,null,,,,,,,,,,,,,,,,,,
1466,,recognition_phase,999029,US_Cities_List/nat_boulder.png,,49,,,,,,old,1,0.9629629629629629,,,,,,,,,,
null,,confidence_buffer,999131,confidence_buffer,,null,,,,,,,,,,,,,,,,,,
null,,thebreak,999632,break,,null,,,,,,,,,,,,,,,,,,
5212.299999952316,,pt2_realistic_rating,1004846,Fictional_Cities_List/img_manmade_20.png,,52,Fictional_Cities_List/img_manmade_20.png,MM,4,,,,,,,,,,,,,,,
null,,confidence_buffer,1004949,confidence_buffer,,null,,,,,,,,,,,,,,,,,,
3202,,pt2_unique_rating,1008153,Fictional_Cities_List/img_manmade_20.png,,52,,,4,,,,,,,,,,,,,,,
null,,confidence_buffer,1008256,confidence_buffer,,null,,,,,,,,,,,,,,,,,,
1768,,pt2_memorable_rating,1010025,Fictional_Cities_List/img_manmade_20.png,,51,,,3,,,,,,,,,,,,,,,
null,,confidence_buffer,1010128,confidence_buffer,,null,,,,,,,,,,,,,,,,,,
2665,,recognition_phase,1012795,Fictional_Cities_List/img_manmade_20.png,,49,,,,,,old,0,0.9285714285714286,,,,,,,,,,
null,,confidence_buffer,1012898,confidence_buffer,,null,,,,,,,,,,,,,,,,,,
null,,thebreak,1013399,break,,null,,,,,,,,,,,,,,,,,,
5590.700000047684,,pt2_realistic_rating,1018992,Fictional_Cities_List/img_natural_29.png,,50,Fictional_Cities_List/img_natural_29.png,NAT,2,,,,,,,,,,,,,,,
null,,confidence_buffer,1019095,confidence_buffer,,null,,,,,,,,,,,,,,,,,,
2192.600000023842,,pt2_unique_rating,1021290,Fictional_Cities_List/img_natural_29.png,,53,,,5,,,,,,,,,,,,,,,
null,,confidence_buffer,1021393,confidence_buffer,,null,,,,,,,,,,,,,,,,,,
2500.800000011921,,pt2_memorable_rating,1023896,Fictional_Cities_List/img_natural_29.png,,53,,,5,,,,,,,,,,,,,,,
null,,confidence_buffer,1023999,confidence_buffer,,null,,,,,,,,,,,,,,,,,,
1038.9000000357628,,recognition_phase,1025040,Fictional_Cities_List/img_natural_29.png,,49,,,,,,old,1,0.9310344827586207,,,,,,,,,,
null,,confidence_buffer,1025141,confidence_buffer,,null,,,,,,,,,,,,,,,,,,
null,,thebreak,1025642,break,,null,,,,,,,,,,,,,,,,,,
3832.399999976158,,pt2_realistic_rating,1029476,Fictional_Cities_List/img_natural_44.png,,53,Fictional_Cities_List/img_natural_44.png,NAT,5,,,,,,,,,,,,,,,
null,,confidence_buffer,1029577,confidence_buffer,,null,,,,,,,,,,,,,,,,,,
1238.300000011921,,pt2_unique_rating,1030816,Fictional_Cities_List/img_natural_44.png,,53,,,5,,,,,,,,,,,,,,,
null,,confidence_buffer,1030917,confidence_buffer,,null,,,,,,,,,,,,,,,,,,
1679.800000011921,,pt2_memorable_rating,1032598,Fictional_Cities_List/img_natural_44.png,,53,,,5,,,,,,,,,,,,,,,
null,,confidence_buffer,1032699,confidence_buffer,,null,,,,,,,,,,,,,,,,,,
1232.5,,recognition_phase,1033933,Fictional_Cities_List/img_natural_44.png,,49,,,,,,old,1,0.9333333333333333,,,,,,,,,,
null,,confidence_buffer,1034035,confidence_buffer,,null,,,,,,,,,,,,,,,,,,
null,,thebreak,1034537,break,,null,,,,,,,,,,,,,,,,,,
5652.700000047684,,pt2_realistic_rating,1040192,Fictional_Cities_List/img_natural_41.png,,53,Fictional_Cities_List/img_natural_41.png,NAT,5,,,,,,,,,,,,,,,
null,,confidence_buffer,1040295,confidence_buffer,,null,,,,,,,,,,,,,,,,,,
4969.600000023842,,pt2_unique_rating,1045266,Fictional_Cities_List/img_natural_41.png,,52,,,4,,,,,,,,,,,,,,,
null,,confidence_buffer,1045370,confidence_buffer,,null,,,,,,,,,,,,,,,,,,
1736.0999999642372,,pt2_memorable_rating,1047108,Fictional_Cities_List/img_natural_41.png,,51,,,3,,,,,,,,,,,,,,,
null,,confidence_buffer,1047221,confidence_buffer,,null,,,,,,,,,,,,,,,,,,
1509.7999999523163,,recognition_phase,1048733,Fictional_Cities_List/img_natural_41.png,,49,,,,,,old,1,0.9354838709677419,,,,,,,,,,
null,,confidence_buffer,1048835,confidence_buffer,,null,,,,,,,,,,,,,,,,,,
null,,thebreak,1049337,break,,null,,,,,,,,,,,,,,,,,,
3028.100000023842,,pt2_realistic_rating,1052368,US_Cities_List/nat_athens.png,,53,US_Cities_List/nat_athens.png,NAT,5,,,,,,,,,,,,,,,
null,,confidence_buffer,1052470,confidence_buffer,,null,,,,,,,,,,,,,,,,,,
5203.5,,pt2_unique_rating,1057676,US_Cities_List/nat_athens.png,,50,,,2,,,,,,,,,,,,,,,
null,,confidence_buffer,1057778,confidence_buffer,,null,,,,,,,,,,,,,,,,,,
2678.2000000476837,,pt2_memorable_rating,1060458,US_Cities_List/nat_athens.png,,50,,,2,,,,,,,,,,,,,,,
null,,confidence_buffer,1060560,confidence_buffer,,null,,,,,,,,,,,,,,,,,,
3144.5,,recognition_phase,1063706,US_Cities_List/nat_athens.png,,52,,,,,,new,1,0.9375,,,,,,,,,,
null,,confidence_buffer,1063807,confidence_buffer,,null,,,,,,,,,,,,,,,,,,
null,,thebreak,1064320,break,,null,,,,,,,,,,,,,,,,,,
3018,,pt2_realistic_rating,1067339,US_Cities_List/mm_peoria.png,,53,US_Cities_List/mm_peoria.png,MM,5,,,,,,,,,,,,,,,
null,,confidence_buffer,1067440,confidence_buffer,,null,,,,,,,,,,,,,,,,,,
1752.2999999523163,,pt2_unique_rating,1069194,US_Cities_List/mm_peoria.png,,53,,,5,,,,,,,,,,,,,,,
null,,confidence_buffer,1069296,confidence_buffer,,null,,,,,,,,,,,,,,,,,,
1751.1000000238419,,probe_rating,1071049,probe_rating,,53,,,,5,1,,,,,,,,,,,,,
null,,confidence_buffer,1071151,confidence_buffer,,null,,,,,,,,,,,,,,,,,,
1476.800000011921,,pt2_memorable_rating,1072629,US_Cities_List/mm_peoria.png,,53,,,5,,,,,,,,,,,,,,,
null,,confidence_buffer,1072742,confidence_buffer,,null,,,,,,,,,,,,,,,,,,
1185.8999999761581,,recognition_phase,1073931,US_Cities_List/mm_peoria.png,,49,,,,,,old,1,0.9393939393939394,,,,,,,,,,
null,,confidence_buffer,1074034,confidence_buffer,,null,,,,,,,,,,,,,,,,,,
null,,thebreak,1074536,break,,null,,,,,,,,,,,,,,,,,,
3005,,pt2_realistic_rating,1077543,Fictional_Cities_List/img_natural_27.png,,50,Fictional_Cities_List/img_natural_27.png,NAT,2,,,,,,,,,,,,,,,
null,,confidence_buffer,1077647,confidence_buffer,,null,,,,,,,,,,,,,,,,,,
6022.100000023842,,pt2_unique_rating,1083671,Fictional_Cities_List/img_natural_27.png,,53,,,5,,,,,,,,,,,,,,,
null,,confidence_buffer,1083773,confidence_buffer,,null,,,,,,,,,,,,,,,,,,
1146.699999988079,,pt2_memorable_rating,1084922,Fictional_Cities_List/img_natural_27.png,,53,,,5,,,,,,,,,,,,,,,
null,,confidence_buffer,1085026,confidence_buffer,,null,,,,,,,,,,,,,,,,,,
1012.5,,recognition_phase,1086041,Fictional_Cities_List/img_natural_27.png,,49,,,,,,old,1,0.9411764705882353,,,,,,,,,,
null,,confidence_buffer,1086145,confidence_buffer,,null,,,,,,,,,,,,,,,,,,
null,,thebreak,1086647,break,,null,,,,,,,,,,,,,,,,,,
3207.399999976158,,pt2_realistic_rating,1089855,Fictional_Cities_List/img_natural_13.png,,50,Fictional_Cities_List/img_natural_13.png,NAT,2,,,,,,,,,,,,,,,
null,,confidence_buffer,1089957,confidence_buffer,,null,,,,,,,,,,,,,,,,,,
2014.300000011921,,pt2_unique_rating,1091973,Fictional_Cities_List/img_natural_13.png,,53,,,5,,,,,,,,,,,,,,,
null,,confidence_buffer,1092076,confidence_buffer,,null,,,,,,,,,,,,,,,,,,
689.6999999880791,,pt2_memorable_rating,1092768,Fictional_Cities_List/img_natural_13.png,,53,,,5,,,,,,,,,,,,,,,
null,,confidence_buffer,1092871,confidence_buffer,,null,,,,,,,,,,,,,,,,,,
2834.199999988079,,recognition_phase,1095707,Fictional_Cities_List/img_natural_13.png,,52,,,,,,new,1,0.9428571428571428,,,,,,,,,,
null,,confidence_buffer,1095810,confidence_buffer,,null,,,,,,,,,,,,,,,,,,
null,,thebreak,1096311,break,,null,,,,,,,,,,,,,,,,,,
5764.800000011921,,pt2_realistic_rating,1102078,US_Cities_List/mm_healdsburg.png,,53,US_Cities_List/mm_healdsburg.png,MM,5,,,,,,,,,,,,,,,
null,,confidence_buffer,1102181,confidence_buffer,,null,,,,,,,,,,,,,,,,,,
1530.6000000238419,,pt2_unique_rating,1103713,US_Cities_List/mm_healdsburg.png,,53,,,5,,,,,,,,,,,,,,,
null,,confidence_buffer,1103816,confidence_buffer,,null,,,,,,,,,,,,,,,,,,
1825,,pt2_memorable_rating,1105642,US_Cities_List/mm_healdsburg.png,,52,,,4,,,,,,,,,,,,,,,
null,,confidence_buffer,1105745,confidence_buffer,,null,,,,,,,,,,,,,,,,,,
1274.300000011921,,recognition_phase,1107023,US_Cities_List/mm_healdsburg.png,,49,,,,,,old,1,0.9444444444444444,,,,,,,,,,
null,,confidence_buffer,1107126,confidence_buffer,,null,,,,,,,,,,,,,,,,,,
null,,thebreak,1107628,break,,null,,,,,,,,,,,,,,,,,,
5069.600000023842,,pt2_realistic_rating,1112700,Fictional_Cities_List/img_natural_48.png,,53,Fictional_Cities_List/img_natural_48.png,NAT,5,,,,,,,,,,,,,,,
null,,confidence_buffer,1112803,confidence_buffer,,null,,,,,,,,,,,,,,,,,,
3519.5,,pt2_unique_rating,1116324,Fictional_Cities_List/img_natural_48.png,,52,,,4,,,,,,,,,,,,,,,
null,,confidence_buffer,1116426,confidence_buffer,,null,,,,,,,,,,,,,,,,,,
2657.699999988079,,pt2_memorable_rating,1119087,Fictional_Cities_List/img_natural_48.png,,51,,,3,,,,,,,,,,,,,,,
null,,confidence_buffer,1119190,confidence_buffer,,null,,,,,,,,,,,,,,,,,,
5308.899999976158,,recognition_phase,1124501,Fictional_Cities_List/img_natural_48.png,,51,,,,,,new,1,0.9459459459459459,,,,,,,,,,
null,,confidence_buffer,1124604,confidence_buffer,,null,,,,,,,,,,,,,,,,,,
null,,thebreak,1125106,break,,null,,,,,,,,,,,,,,,,,,
4667.199999988079,,pt2_realistic_rating,1129774,US_Cities_List/nat_okoboji.png,,53,US_Cities_List/nat_okoboji.png,NAT,5,,,,,,,,,,,,,,,
null,,confidence_buffer,1129877,confidence_buffer,,null,,,,,,,,,,,,,,,,,,
2349.5,,pt2_unique_rating,1132228,US_Cities_List/nat_okoboji.png,,51,,,3,,,,,,,,,,,,,,,
null,,confidence_buffer,1132329,confidence_buffer,,null,,,,,,,,,,,,,,,,,,
2207.099999964237,,pt2_memorable_rating,1134538,US_Cities_List/nat_okoboji.png,,50,,,2,,,,,,,,,,,,,,,
null,,confidence_buffer,1134641,confidence_buffer,,null,,,,,,,,,,,,,,,,,,
2628.800000011921,,recognition_phase,1137271,US_Cities_List/nat_okoboji.png,,49,,,,,,old,1,0.9473684210526315,,,,,,,,,,
null,,confidence_buffer,1137372,confidence_buffer,,null,,,,,,,,,,,,,,,,,,
null,,thebreak,1137874,break,,null,,,,,,,,,,,,,,,,,,
3808.800000011921,,pt2_realistic_rating,1141685,US_Cities_List/nat_bisbee.png,,53,US_Cities_List/nat_bisbee.png,NAT,5,,,,,,,,,,,,,,,
null,,confidence_buffer,1141788,confidence_buffer,,null,,,,,,,,,,,,,,,,,,
2611.899999976158,,pt2_unique_rating,1144403,US_Cities_List/nat_bisbee.png,,50,,,2,,,,,,,,,,,,,,,
null,,confidence_buffer,1144505,confidence_buffer,,null,,,,,,,,,,,,,,,,,,
3461.599999964237,,pt2_memorable_rating,1147969,US_Cities_List/nat_bisbee.png,,51,,,3,,,,,,,,,,,,,,,
null,,confidence_buffer,1148074,confidence_buffer,,null,,,,,,,,,,,,,,,,,,
2607.5,,recognition_phase,1150684,US_Cities_List/nat_bisbee.png,,50,,,,,,old,0,0.9230769230769231,,,,,,,,,,
null,,confidence_buffer,1150792,confidence_buffer,,null,,,,,,,,,,,,,,,,,,
null,,thebreak,1151295,break,,null,,,,,,,,,,,,,,,,,,
2563.699999988079,,pt2_realistic_rating,1153861,Fictional_Cities_List/img_manmade_41.png,,53,Fictional_Cities_List/img_manmade_41.png,MM,5,,,,,,,,,,,,,,,
null,,confidence_buffer,1153964,confidence_buffer,,null,,,,,,,,,,,,,,,,,,
2007,,pt2_unique_rating,1155974,Fictional_Cities_List/img_manmade_41.png,,51,,,3,,,,,,,,,,,,,,,
null,,confidence_buffer,1156076,confidence_buffer,,null,,,,,,,,,,,,,,,,,,
1871,,pt2_memorable_rating,1157950,Fictional_Cities_List/img_manmade_41.png,,51,,,3,,,,,,,,,,,,,,,
null,,confidence_buffer,1158061,confidence_buffer,,null,,,,,,,,,,,,,,,,,,
3337.600000023842,,recognition_phase,1161400,Fictional_Cities_List/img_manmade_41.png,,51,,,,,,new,1,0.925,,,,,,,,,,
null,,confidence_buffer,1161501,confidence_buffer,,null,,,,,,,,,,,,,,,,,,
null,,thebreak,1162003,break,,null,,,,,,,,,,,,,,,,,,
6761.199999988079,,pt2_realistic_rating,1168765,US_Cities_List/mm_boulder.png,,52,US_Cities_List/mm_boulder.png,MM,4,,,,,,,,,,,,,,,
null,,confidence_buffer,1168869,confidence_buffer,,null,,,,,,,,,,,,,,,,,,
1709.199999988079,,pt2_unique_rating,1170580,US_Cities_List/mm_boulder.png,,53,,,5,,,,,,,,,,,,,,,
null,,confidence_buffer,1170683,confidence_buffer,,null,,,,,,,,,,,,,,,,,,
2404.599999964237,,pt2_memorable_rating,1173089,US_Cities_List/mm_boulder.png,,52,,,4,,,,,,,,,,,,,,,
null,,confidence_buffer,1173196,confidence_buffer,,null,,,,,,,,,,,,,,,,,,
2256.5,,recognition_phase,1175454,US_Cities_List/mm_boulder.png,,52,,,,,,new,1,0.926829268292683,,,,,,,,,,
null,,confidence_buffer,1175558,confidence_buffer,,null,,,,,,,,,,,,,,,,,,
null,,thebreak,1176060,break,,null,,,,,,,,,,,,,,,,,,
5122.800000011921,,pt2_realistic_rating,1181185,Fictional_Cities_List/img_manmade_40.png,,52,Fictional_Cities_List/img_manmade_40.png,MM,4,,,,,,,,,,,,,,,
null,,confidence_buffer,1181288,confidence_buffer,,null,,,,,,,,,,,,,,,,,,
1756.6000000238419,,pt2_unique_rating,1183047,Fictional_Cities_List/img_manmade_40.png,,53,,,5,,,,,,,,,,,,,,,
null,,confidence_buffer,1183149,confidence_buffer,,null,,,,,,,,,,,,,,,,,,
959.5999999642372,,pt2_memorable_rating,1184112,Fictional_Cities_List/img_manmade_40.png,,53,,,5,,,,,,,,,,,,,,,
null,,confidence_buffer,1184215,confidence_buffer,,null,,,,,,,,,,,,,,,,,,
1061.5,,recognition_phase,1185278,Fictional_Cities_List/img_manmade_40.png,,49,,,,,,old,1,0.9285714285714286,,,,,,,,,,
null,,confidence_buffer,1185382,confidence_buffer,,null,,,,,,,,,,,,,,,,,,
null,,thebreak,1185883,break,,null,,,,,,,,,,,,,,,,,,
4393.5,,pt2_realistic_rating,1190279,US_Cities_List/nat_carmel.png,,51,US_Cities_List/nat_carmel.png,NAT,3,,,,,,,,,,,,,,,
null,,confidence_buffer,1190382,confidence_buffer,,null,,,,,,,,,,,,,,,,,,
3892.300000011921,,pt2_unique_rating,1194276,US_Cities_List/nat_carmel.png,,51,,,3,,,,,,,,,,,,,,,
null,,confidence_buffer,1194378,confidence_buffer,,null,,,,,,,,,,,,,,,,,,
1395.6000000238419,,pt2_memorable_rating,1195776,US_Cities_List/nat_carmel.png,,52,,,4,,,,,,,,,,,,,,,
null,,confidence_buffer,1195878,confidence_buffer,,null,,,,,,,,,,,,,,,,,,
1628.1000000238419,,probe_rating,1197509,probe_rating,,49,,,,1,1,,,,,,,,,,,,,
null,,confidence_buffer,1197612,confidence_buffer,,null,,,,,,,,,,,,,,,,,,
3257.699999988079,,recognition_phase,1200872,US_Cities_List/nat_carmel.png,,52,,,,,,new,1,0.9302325581395349,,,,,,,,,,
null,,confidence_buffer,1200974,confidence_buffer,,null,,,,,,,,,,,,,,,,,,
null,,thebreak,1201476,break,,null,,,,,,,,,,,,,,,,,,
11078.099999964237,,pt2_realistic_rating,1212556,Fictional_Cities_List/img_natural_06.png,,50,Fictional_Cities_List/img_natural_06.png,NAT,2,,,,,,,,,,,,,,,
null,,confidence_buffer,1212661,confidence_buffer,,null,,,,,,,,,,,,,,,,,,
1829.800000011921,,pt2_unique_rating,1214493,Fictional_Cities_List/img_natural_06.png,,52,,,4,,,,,,,,,,,,,,,
null,,confidence_buffer,1214595,confidence_buffer,,null,,,,,,,,,,,,,,,,,,
2238.199999988079,,pt2_memorable_rating,1216835,Fictional_Cities_List/img_natural_06.png,,52,,,4,,,,,,,,,,,,,,,
null,,confidence_buffer,1216938,confidence_buffer,,null,,,,,,,,,,,,,,,,,,
3452.800000011921,,recognition_phase,1220392,Fictional_Cities_List/img_natural_06.png,,49,,,,,,old,0,0.9090909090909091,,,,,,,,,,
null,,confidence_buffer,1220494,confidence_buffer,,null,,,,,,,,,,,,,,,,,,
null,,thebreak,1220995,break,,null,,,,,,,,,,,,,,,,,,
3625.7999999523163,,pt2_realistic_rating,1224623,US_Cities_List/mm_abilene.png,,52,US_Cities_List/mm_abilene.png,MM,4,,,,,,,,,,,,,,,
null,,confidence_buffer,1224726,confidence_buffer,,null,,,,,,,,,,,,,,,,,,
1656.4000000357628,,pt2_unique_rating,1226385,US_Cities_List/mm_abilene.png,,53,,,5,,,,,,,,,,,,,,,
null,,confidence_buffer,1226488,confidence_buffer,,null,,,,,,,,,,,,,,,,,,
1633.699999988079,,pt2_memorable_rating,1228124,US_Cities_List/mm_abilene.png,,53,,,5,,,,,,,,,,,,,,,
null,,confidence_buffer,1228227,confidence_buffer,,null,,,,,,,,,,,,,,,,,,
2032.0999999642372,,recognition_phase,1230261,US_Cities_List/mm_abilene.png,,49,,,,,,old,1,0.9111111111111111,,,,,,,,,,
null,,confidence_buffer,1230364,confidence_buffer,,null,,,,,,,,,,,,,,,,,,
null,,thebreak,1230866,break,,null,,,,,,,,,,,,,,,,,,
5188.300000011921,,pt2_realistic_rating,1236055,US_Cities_List/mm_hotsprings.png,,52,US_Cities_List/mm_hotsprings.png,MM,4,,,,,,,,,,,,,,,
null,,confidence_buffer,1236158,confidence_buffer,,null,,,,,,,,,,,,,,,,,,
1984.8999999761581,,pt2_unique_rating,1238144,US_Cities_List/mm_hotsprings.png,,52,,,4,,,,,,,,,,,,,,,
null,,confidence_buffer,1238246,confidence_buffer,,null,,,,,,,,,,,,,,,,,,
2124.699999988079,,pt2_memorable_rating,1240372,US_Cities_List/mm_hotsprings.png,,53,,,5,,,,,,,,,,,,,,,
null,,confidence_buffer,1240474,confidence_buffer,,null,,,,,,,,,,,,,,,,,,
4416.699999988079,,recognition_phase,1244892,US_Cities_List/mm_hotsprings.png,,49,,,,,,old,1,0.9130434782608695,,,,,,,,,,
null,,confidence_buffer,1244995,confidence_buffer,,null,,,,,,,,,,,,,,,,,,
null,,thebreak,1245497,break,,null,,,,,,,,,,,,,,,,,,
4831.200000047684,,pt2_realistic_rating,1250330,US_Cities_List/nat_hilo.png,,51,US_Cities_List/nat_hilo.png,NAT,3,,,,,,,,,,,,,,,
null,,confidence_buffer,1250433,confidence_buffer,,null,,,,,,,,,,,,,,,,,,
5709.800000011921,,pt2_unique_rating,1256144,US_Cities_List/nat_hilo.png,,51,,,3,,,,,,,,,,,,,,,
null,,confidence_buffer,1256247,confidence_buffer,,null,,,,,,,,,,,,,,,,,,
1847.6000000238419,,pt2_memorable_rating,1258097,US_Cities_List/nat_hilo.png,,51,,,3,,,,,,,,,,,,,,,
null,,confidence_buffer,1258200,confidence_buffer,,null,,,,,,,,,,,,,,,,,,
2400.699999988079,,recognition_phase,1260604,US_Cities_List/nat_hilo.png,,51,,,,,,new,1,0.9148936170212766,,,,,,,,,,
null,,confidence_buffer,1260706,confidence_buffer,,null,,,,,,,,,,,,,,,,,,
null,,thebreak,1261208,break,,null,,,,,,,,,,,,,,,,,,
3397.900000035763,,pt2_realistic_rating,1264608,US_Cities_List/mm_athens.png,,53,US_Cities_List/mm_athens.png,MM,5,,,,,,,,,,,,,,,
null,,confidence_buffer,1264712,confidence_buffer,,null,,,,,,,,,,,,,,,,,,
2192.7999999523163,,pt2_unique_rating,1266906,US_Cities_List/mm_athens.png,,51,,,3,,,,,,,,,,,,,,,
null,,confidence_buffer,1267009,confidence_buffer,,null,,,,,,,,,,,,,,,,,,
1788.4000000357628,,pt2_memorable_rating,1268800,US_Cities_List/mm_athens.png,,52,,,4,,,,,,,,,,,,,,,
null,,confidence_buffer,1268903,confidence_buffer,,null,,,,,,,,,,,,,,,,,,
2297,,recognition_phase,1271202,US_Cities_List/mm_athens.png,,49,,,,,,old,1,0.9166666666666666,,,,,,,,,,
null,,confidence_buffer,1271312,confidence_buffer,,null,,,,,,,,,,,,,,,,,,
null,,thebreak,1271814,break,,null,,,,,,,,,,,,,,,,,,
3863.900000035763,,pt2_realistic_rating,1275679,Fictional_Cities_List/img_manmade_13.png,,52,Fictional_Cities_List/img_manmade_13.png,MM,4,,,,,,,,,,,,,,,
null,,confidence_buffer,1275780,confidence_buffer,,null,,,,,,,,,,,,,,,,,,
1367.0999999642372,,pt2_unique_rating,1277149,Fictional_Cities_List/img_manmade_13.png,,53,,,5,,,,,,,,,,,,,,,
null,,confidence_buffer,1277253,confidence_buffer,,null,,,,,,,,,,,,,,,,,,
1270.699999988079,,pt2_memorable_rating,1278526,Fictional_Cities_List/img_manmade_13.png,,53,,,5,,,,,,,,,,,,,,,
null,,confidence_buffer,1278629,confidence_buffer,,null,,,,,,,,,,,,,,,,,,
5310.5,,recognition_phase,1283942,Fictional_Cities_List/img_manmade_13.png,,52,,,,,,new,1,0.9183673469387755,,,,,,,,,,
null,,confidence_buffer,1284045,confidence_buffer,,null,,,,,,,,,,,,,,,,,,
null,,thebreak,1284547,break,,null,,,,,,,,,,,,,,,,,,
6095.5,,pt2_realistic_rating,1290646,Fictional_Cities_List/img_manmade_27.png,,50,Fictional_Cities_List/img_manmade_27.png,MM,2,,,,,,,,,,,,,,,
null,,confidence_buffer,1290750,confidence_buffer,,null,,,,,,,,,,,,,,,,,,
7399.100000023842,,pt2_unique_rating,1298152,Fictional_Cities_List/img_manmade_27.png,,53,,,5,,,,,,,,,,,,,,,
null,,confidence_buffer,1298254,confidence_buffer,,null,,,,,,,,,,,,,,,,,,
1762.5,,pt2_memorable_rating,1300019,Fictional_Cities_List/img_manmade_27.png,,52,,,4,,,,,,,,,,,,,,,
null,,confidence_buffer,1300123,confidence_buffer,,null,,,,,,,,,,,,,,,,,,
1258.2000000476837,,recognition_phase,1301383,Fictional_Cities_List/img_manmade_27.png,,52,,,,,,new,1,0.92,,,,,,,,,,
null,,confidence_buffer,1301486,confidence_buffer,,null,,,,,,,,,,,,,,,,,,
null,,thebreak,1301989,break,,null,,,,,,,,,,,,,,,,,,
6089.699999988079,,pt2_realistic_rating,1308080,US_Cities_List/mm_carmel.png,,52,US_Cities_List/mm_carmel.png,MM,4,,,,,,,,,,,,,,,
null,,confidence_buffer,1308183,confidence_buffer,,null,,,,,,,,,,,,,,,,,,
2404.600000023842,,pt2_unique_rating,1310588,US_Cities_List/mm_carmel.png,,53,,,5,,,,,,,,,,,,,,,
null,,confidence_buffer,1310690,confidence_buffer,,null,,,,,,,,,,,,,,,,,,
1340.8999999761581,,pt2_memorable_rating,1312032,US_Cities_List/mm_carmel.png,,52,,,4,,,,,,,,,,,,,,,
null,,confidence_buffer,1312135,confidence_buffer,,null,,,,,,,,,,,,,,,,,,
4188.300000011921,,recognition_phase,1316325,US_Cities_List/mm_carmel.png,,51,,,,,,new,1,0.9215686274509803,,,,,,,,,,
null,,confidence_buffer,1316428,confidence_buffer,,null,,,,,,,,,,,,,,,,,,
null,,thebreak,1316930,break,,null,,,,,,,,,,,,,,,,,,
5447.5,,pt2_realistic_rating,1322380,Fictional_Cities_List/img_natural_09.png,,53,Fictional_Cities_List/img_natural_09.png,NAT,5,,,,,,,,,,,,,,,
null,,confidence_buffer,1322482,confidence_buffer,,null,,,,,,,,,,,,,,,,,,
2510.5,,pt2_unique_rating,1324995,Fictional_Cities_List/img_natural_09.png,,53,,,5,,,,,,,,,,,,,,,
null,,confidence_buffer,1325096,confidence_buffer,,null,,,,,,,,,,,,,,,,,,
1243.199999988079,,pt2_memorable_rating,1326342,Fictional_Cities_List/img_natural_09.png,,53,,,5,,,,,,,,,,,,,,,
null,,confidence_buffer,1326445,confidence_buffer,,null,,,,,,,,,,,,,,,,,,
1240.800000011921,,recognition_phase,1327688,Fictional_Cities_List/img_natural_09.png,,49,,,,,,old,1,0.9230769230769231,,,,,,,,,,
null,,confidence_buffer,1327790,confidence_buffer,,null,,,,,,,,,,,,,,,,,,
null,,thebreak,1328292,break,,null,,,,,,,,,,,,,,,,,,
2953.099999964237,,pt2_realistic_rating,1331246,Fictional_Cities_List/img_manmade_29.png,,53,Fictional_Cities_List/img_manmade_29.png,MM,5,,,,,,,,,,,,,,,
null,,confidence_buffer,1331350,confidence_buffer,,null,,,,,,,,,,,,,,,,,,
996.6999999880791,,pt2_unique_rating,1332349,Fictional_Cities_List/img_manmade_29.png,,53,,,5,,,,,,,,,,,,,,,
null,,confidence_buffer,1332452,confidence_buffer,,null,,,,,,,,,,,,,,,,,,
1577.699999988079,,pt2_memorable_rating,1334032,Fictional_Cities_List/img_manmade_29.png,,53,,,5,,,,,,,,,,,,,,,
null,,confidence_buffer,1334135,confidence_buffer,,null,,,,,,,,,,,,,,,,,,
1688.0999999642372,,recognition_phase,1335826,Fictional_Cities_List/img_manmade_29.png,,49,,,,,,old,1,0.9245283018867925,,,,,,,,,,
null,,confidence_buffer,1335929,confidence_buffer,,null,,,,,,,,,,,,,,,,,,
null,,thebreak,1336431,break,,null,,,,,,,,,,,,,,,,,,
7063.299999952316,,pt2_realistic_rating,1343496,Fictional_Cities_List/img_manmade_44.png,,53,Fictional_Cities_List/img_manmade_44.png,MM,5,,,,,,,,,,,,,,,
null,,confidence_buffer,1343599,confidence_buffer,,null,,,,,,,,,,,,,,,,,,
2980.900000035763,,pt2_unique_rating,1346581,Fictional_Cities_List/img_manmade_44.png,,52,,,4,,,,,,,,,,,,,,,
null,,confidence_buffer,1346685,confidence_buffer,,null,,,,,,,,,,,,,,,,,,
1196.699999988079,,pt2_memorable_rating,1347884,Fictional_Cities_List/img_manmade_44.png,,52,,,4,,,,,,,,,,,,,,,
null,,confidence_buffer,1347987,confidence_buffer,,null,,,,,,,,,,,,,,,,,,
1835.3999999761581,,recognition_phase,1349825,Fictional_Cities_List/img_manmade_44.png,,49,,,,,,old,0,0.9074074074074074,,,,,,,,,,
null,,confidence_buffer,1349928,confidence_buffer,,null,,,,,,,,,,,,,,,,,,
null,,thebreak,1350431,break,,null,,,,,,,,,,,,,,,,,,
4023.699999988079,,pt2_realistic_rating,1354457,US_Cities_List/nat_healdsburg.png,,53,US_Cities_List/nat_healdsburg.png,NAT,5,,,,,,,,,,,,,,,
null,,confidence_buffer,1354561,confidence_buffer,,null,,,,,,,,,,,,,,,,,,
1307.0999999642372,,pt2_unique_rating,1355871,US_Cities_List/nat_healdsburg.png,,50,,,2,,,,,,,,,,,,,,,
null,,confidence_buffer,1355975,confidence_buffer,,null,,,,,,,,,,,,,,,,,,
1904.0999999642372,,probe_rating,1357882,probe_rating,,53,,,,5,1,,,,,,,,,,,,,
null,,confidence_buffer,1357985,confidence_buffer,,null,,,,,,,,,,,,,,,,,,
3290.199999988079,,pt2_memorable_rating,1361277,US_Cities_List/nat_healdsburg.png,,50,,,2,,,,,,,,,,,,,,,
null,,confidence_buffer,1361380,confidence_buffer,,null,,,,,,,,,,,,,,,,,,
3717.100000023842,,recognition_phase,1365099,US_Cities_List/nat_healdsburg.png,,50,,,,,,old,0,0.8909090909090909,,,,,,,,,,
null,,confidence_buffer,1365202,confidence_buffer,,null,,,,,,,,,,,,,,,,,,
null,,thebreak,1365704,break,,null,,,,,,,,,,,,,,,,,,
4850.800000011921,,pt2_realistic_rating,1370556,Fictional_Cities_List/img_natural_38.png,,52,Fictional_Cities_List/img_natural_38.png,NAT,4,,,,,,,,,,,,,,,
null,,confidence_buffer,1370658,confidence_buffer,,null,,,,,,,,,,,,,,,,,,
1673.3999999761581,,pt2_unique_rating,1372333,Fictional_Cities_List/img_natural_38.png,,51,,,3,,,,,,,,,,,,,,,
null,,confidence_buffer,1372436,confidence_buffer,,null,,,,,,,,,,,,,,,,,,
1312.5,,pt2_memorable_rating,1373750,Fictional_Cities_List/img_natural_38.png,,51,,,3,,,,,,,,,,,,,,,
null,,confidence_buffer,1373854,confidence_buffer,,null,,,,,,,,,,,,,,,,,,
3106.800000011921,,recognition_phase,1376963,Fictional_Cities_List/img_natural_38.png,,49,,,,,,old,0,0.875,,,,,,,,,,
null,,confidence_buffer,1377064,confidence_buffer,,null,,,,,,,,,,,,,,,,,,
null,,thebreak,1377566,break,,null,,,,,,,,,,,,,,,,,,
2428.699999988079,,pt2_realistic_rating,1379996,US_Cities_List/nat_sitka.png,,53,US_Cities_List/nat_sitka.png,NAT,5,,,,,,,,,,,,,,,
null,,confidence_buffer,1380099,confidence_buffer,,null,,,,,,,,,,,,,,,,,,
1764.7999999523163,,pt2_unique_rating,1381865,US_Cities_List/nat_sitka.png,,52,,,4,,,,,,,,,,,,,,,
null,,confidence_buffer,1381967,confidence_buffer,,null,,,,,,,,,,,,,,,,,,
3013.300000011921,,pt2_memorable_rating,1384983,US_Cities_List/nat_sitka.png,,51,,,3,,,,,,,,,,,,,,,
null,,confidence_buffer,1385085,confidence_buffer,,null,,,,,,,,,,,,,,,,,,
1389.5,,recognition_phase,1386478,US_Cities_List/nat_sitka.png,,49,,,,,,old,1,0.8771929824561403,,,,,,,,,,
null,,confidence_buffer,1386580,confidence_buffer,,null,,,,,,,,,,,,,,,,,,
null,,thebreak,1387083,break,,null,,,,,,,,,,,,,,,,,,
3412.100000023842,,pt2_realistic_rating,1390497,US_Cities_List/nat_westpalmbeach.png,,50,US_Cities_List/nat_westpalmbeach.png,NAT,2,,,,,,,,,,,,,,,
null,,confidence_buffer,1390599,confidence_buffer,,null,,,,,,,,,,,,,,,,,,
1991.7999999523163,,pt2_unique_rating,1392593,US_Cities_List/nat_westpalmbeach.png,,53,,,5,,,,,,,,,,,,,,,
null,,confidence_buffer,1392698,confidence_buffer,,null,,,,,,,,,,,,,,,,,,
990.5999999642372,,pt2_memorable_rating,1393690,US_Cities_List/nat_westpalmbeach.png,,52,,,4,,,,,,,,,,,,,,,
null,,confidence_buffer,1393793,confidence_buffer,,null,,,,,,,,,,,,,,,,,,
956.5999999642372,,recognition_phase,1394752,US_Cities_List/nat_westpalmbeach.png,,49,,,,,,old,1,0.8793103448275862,,,,,,,,,,
null,,confidence_buffer,1394855,confidence_buffer,,null,,,,,,,,,,,,,,,,,,
null,,thebreak,1395357,break,,null,,,,,,,,,,,,,,,,,,
3991.199999988079,,pt2_realistic_rating,1399350,US_Cities_List/mm_coeurdalene.png,,53,US_Cities_List/mm_coeurdalene.png,MM,5,,,,,,,,,,,,,,,
null,,confidence_buffer,1399453,confidence_buffer,,null,,,,,,,,,,,,,,,,,,
1636.300000011921,,pt2_unique_rating,1401090,US_Cities_List/mm_coeurdalene.png,,51,,,3,,,,,,,,,,,,,,,
null,,confidence_buffer,1401192,confidence_buffer,,null,,,,,,,,,,,,,,,,,,
1803.699999988079,,pt2_memorable_rating,1402996,US_Cities_List/mm_coeurdalene.png,,51,,,3,,,,,,,,,,,,,,,
null,,confidence_buffer,1403098,confidence_buffer,,null,,,,,,,,,,,,,,,,,,
4021.899999976158,,recognition_phase,1407121,US_Cities_List/mm_coeurdalene.png,,50,,,,,,old,0,0.864406779661017,,,,,,,,,,
null,,confidence_buffer,1407224,confidence_buffer,,null,,,,,,,,,,,,,,,,,,
null,,thebreak,1407726,break,,null,,,,,,,,,,,,,,,,,,
5086.700000047684,,pt2_realistic_rating,1412815,Fictional_Cities_List/img_natural_40.png,,53,Fictional_Cities_List/img_natural_40.png,NAT,5,,,,,,,,,,,,,,,
null,,confidence_buffer,1412917,confidence_buffer,,null,,,,,,,,,,,,,,,,,,
1797.5,,probe_rating,1414715,probe_rating,,52,,,,4,1,,,,,,,,,,,,,
null,,confidence_buffer,1414817,confidence_buffer,,null,,,,,,,,,,,,,,,,,,
2742.199999988079,,pt2_unique_rating,1417560,Fictional_Cities_List/img_natural_40.png,,51,,,3,,,,,,,,,,,,,,,
null,,confidence_buffer,1417663,confidence_buffer,,null,,,,,,,,,,,,,,,,,,
3059.600000023842,,pt2_memorable_rating,1420724,Fictional_Cities_List/img_natural_40.png,,51,,,3,,,,,,,,,,,,,,,
null,,confidence_buffer,1420827,confidence_buffer,,null,,,,,,,,,,,,,,,,,,
4799.299999952316,,recognition_phase,1425629,Fictional_Cities_List/img_natural_40.png,,50,,,,,,old,1,0.8666666666666667,,,,,,,,,,
null,,confidence_buffer,1425732,confidence_buffer,,null,,,,,,,,,,,,,,,,,,
null,,thebreak,1426233,break,,null,,,,,,,,,,,,,,,,,,
,,survey,2049412,survey-questions,,,,,,,,,,,none,high,No.,Just focused on task.,See above.,How it affected me. ,I estimated how common. Waterways and forests and ocean coasts are common; unique sculptures and geological formations (Grand Canyon) are not.,Difficult evaluate, because sometimes the scene was realistic, but the light/color filters were not. Obviously processed photos and AI generated images were rated less realistic. ,Never,Fun exercise!
