rt,responses,trial_type,time_elapsed,stimulus,button_pressed,key_press,name_trial,city_type,rating,probe,probe_accuracy,response,correct,accuracy,problems,smooth,distraction,strategies,familiar,memorable,unique,realistic,similar,comments
9409.29999999702,{worker_id:5e2f5b28129198070e2996db},id_enter,9414,,,,,,,,,,,,,,,,,,,,,
21919.79999999702,,fullscreen,31344,fullscreen,0,,,,,,,,,,,,,,,,,,,
8832.90000000596,,intro_0,40433,instruct,,32,,,,,,,,,,,,,,,,,,
21391.20000000298,,intro_1,61830,instruct,,32,,,,,,,,,,,,,,,,,,
7757.300000011921,,intro_2,69588,instruct,,32,,,,,,,,,,,,,,,,,,
null,,instruct_dir_4,71092,instruct,,null,,,,,,,,,,,,,,,,,,
null,,thebreak,71594,break,,null,,,,,,,,,,,,,,,,,,
16706.30000001192,,familiar_rating,88301,US_Cities_List/mm_carmel.png,,49,US_Cities_List/mm_carmel.png,MM,1,,,,,,,,,,,,,,,
null,,confidence_buffer,88404,confidence_buffer,,null,,,,,,,,,,,,,,,,,,
8176.399999991059,,unique_rating,96582,US_Cities_List/mm_carmel.png,,53,,,5,,,,,,,,,,,,,,,
null,,confidence_buffer,96684,confidence_buffer,,null,,,,,,,,,,,,,,,,,,
13780,,memorable_rating,110466,US_Cities_List/mm_carmel.png,,53,,,5,,,,,,,,,,,,,,,
null,,confidence_buffer,110568,confidence_buffer,,null,,,,,,,,,,,,,,,,,,
null,,thebreak,111071,break,,null,,,,,,,,,,,,,,,,,,
9032.79999999702,,familiar_rating,120106,US_Cities_List/mm_westpalmbeach.png,,49,US_Cities_List/mm_westpalmbeach.png,MM,1,,,,,,,,,,,,,,,
null,,confidence_buffer,120209,confidence_buffer,,null,,,,,,,,,,,,,,,,,,
7054.9000000059605,,unique_rating,127265,US_Cities_List/mm_westpalmbeach.png,,53,,,5,,,,,,,,,,,,,,,
null,,confidence_buffer,127370,confidence_buffer,,null,,,,,,,,,,,,,,,,,,
4590.20000000298,,memorable_rating,131962,US_Cities_List/mm_westpalmbeach.png,,53,,,5,,,,,,,,,,,,,,,
null,,confidence_buffer,132064,confidence_buffer,,null,,,,,,,,,,,,,,,,,,
null,,thebreak,132566,break,,null,,,,,,,,,,,,,,,,,,
16446,,familiar_rating,149013,Fictional_Cities_List/img_natural_29.png,,49,Fictional_Cities_List/img_natural_29.png,NAT,1,,,,,,,,,,,,,,,
null,,confidence_buffer,149116,confidence_buffer,,null,,,,,,,,,,,,,,,,,,
4736,,unique_rating,153853,Fictional_Cities_List/img_natural_29.png,,53,,,5,,,,,,,,,,,,,,,
null,,confidence_buffer,153956,confidence_buffer,,null,,,,,,,,,,,,,,,,,,
1480,,memorable_rating,155437,Fictional_Cities_List/img_natural_29.png,,53,,,5,,,,,,,,,,,,,,,
null,,confidence_buffer,155541,confidence_buffer,,null,,,,,,,,,,,,,,,,,,
null,,thebreak,156043,break,,null,,,,,,,,,,,,,,,,,,
14429.09999999404,,familiar_rating,170473,US_Cities_List/nat_carmel.png,,51,US_Cities_List/nat_carmel.png,NAT,3,,,,,,,,,,,,,,,
null,,confidence_buffer,170575,confidence_buffer,,null,,,,,,,,,,,,,,,,,,
1400.3999999910593,,unique_rating,171977,US_Cities_List/nat_carmel.png,,51,,,3,,,,,,,,,,,,,,,
null,,confidence_buffer,172080,confidence_buffer,,null,,,,,,,,,,,,,,,,,,
4768.100000008941,,memorable_rating,176849,US_Cities_List/nat_carmel.png,,52,,,4,,,,,,,,,,,,,,,
null,,confidence_buffer,176952,confidence_buffer,,null,,,,,,,,,,,,,,,,,,
null,,thebreak,177453,break,,null,,,,,,,,,,,,,,,,,,
8371.09999999404,,familiar_rating,185825,Fictional_Cities_List/img_manmade_30.png,,49,Fictional_Cities_List/img_manmade_30.png,MM,1,,,,,,,,,,,,,,,
null,,confidence_buffer,185927,confidence_buffer,,null,,,,,,,,,,,,,,,,,,
1928.7999999970198,,unique_rating,187857,Fictional_Cities_List/img_manmade_30.png,,49,,,1,,,,,,,,,,,,,,,
null,,confidence_buffer,187961,confidence_buffer,,null,,,,,,,,,,,,,,,,,,
4127.29999999702,,memorable_rating,192089,Fictional_Cities_List/img_manmade_30.png,,53,,,5,,,,,,,,,,,,,,,
null,,confidence_buffer,192193,confidence_buffer,,null,,,,,,,,,,,,,,,,,,
null,,thebreak,192695,break,,null,,,,,,,,,,,,,,,,,,
6928.79999999702,,familiar_rating,199625,Fictional_Cities_List/img_natural_22.png,,49,Fictional_Cities_List/img_natural_22.png,NAT,1,,,,,,,,,,,,,,,
null,,confidence_buffer,199727,confidence_buffer,,null,,,,,,,,,,,,,,,,,,
2460.5,,unique_rating,202189,Fictional_Cities_List/img_natural_22.png,,49,,,1,,,,,,,,,,,,,,,
null,,confidence_buffer,202292,confidence_buffer,,null,,,,,,,,,,,,,,,,,,
10103.90000000596,,memorable_rating,212397,Fictional_Cities_List/img_natural_22.png,,52,,,4,,,,,,,,,,,,,,,
null,,confidence_buffer,212500,confidence_buffer,,null,,,,,,,,,,,,,,,,,,
null,,thebreak,213002,break,,null,,,,,,,,,,,,,,,,,,
10490.10000000894,,familiar_rating,223494,US_Cities_List/nat_hotsprings.png,,51,US_Cities_List/nat_hotsprings.png,NAT,3,,,,,,,,,,,,,,,
null,,confidence_buffer,223596,confidence_buffer,,null,,,,,,,,,,,,,,,,,,
10774.79999999702,,unique_rating,234373,US_Cities_List/nat_hotsprings.png,,50,,,2,,,,,,,,,,,,,,,
null,,confidence_buffer,234475,confidence_buffer,,null,,,,,,,,,,,,,,,,,,
5396.5,,memorable_rating,239873,US_Cities_List/nat_hotsprings.png,,51,,,3,,,,,,,,,,,,,,,
null,,confidence_buffer,239976,confidence_buffer,,null,,,,,,,,,,,,,,,,,,
null,,thebreak,240479,break,,null,,,,,,,,,,,,,,,,,,
9593.5,,familiar_rating,250073,Fictional_Cities_List/img_natural_18.png,,49,Fictional_Cities_List/img_natural_18.png,NAT,1,,,,,,,,,,,,,,,
null,,confidence_buffer,250176,confidence_buffer,,null,,,,,,,,,,,,,,,,,,
9208.10000000894,,unique_rating,259386,Fictional_Cities_List/img_natural_18.png,,52,,,4,,,,,,,,,,,,,,,
null,,confidence_buffer,259489,confidence_buffer,,null,,,,,,,,,,,,,,,,,,
5114.29999999702,,memorable_rating,264605,Fictional_Cities_List/img_natural_18.png,,52,,,4,,,,,,,,,,,,,,,
null,,confidence_buffer,264707,confidence_buffer,,null,,,,,,,,,,,,,,,,,,
null,,thebreak,265209,break,,null,,,,,,,,,,,,,,,,,,
12282.5,,familiar_rating,277493,US_Cities_List/nat_bisbee.png,,51,US_Cities_List/nat_bisbee.png,NAT,3,,,,,,,,,,,,,,,
null,,confidence_buffer,277596,confidence_buffer,,null,,,,,,,,,,,,,,,,,,
5072.20000000298,,unique_rating,282669,US_Cities_List/nat_bisbee.png,,50,,,2,,,,,,,,,,,,,,,
null,,confidence_buffer,282771,confidence_buffer,,null,,,,,,,,,,,,,,,,,,
3201.0999999940395,,memorable_rating,285973,US_Cities_List/nat_bisbee.png,,50,,,2,,,,,,,,,,,,,,,
null,,confidence_buffer,286075,confidence_buffer,,null,,,,,,,,,,,,,,,,,,
null,,thebreak,286578,break,,null,,,,,,,,,,,,,,,,,,
9221.89999999106,,familiar_rating,295801,Fictional_Cities_List/img_manmade_43.png,,52,Fictional_Cities_List/img_manmade_43.png,MM,4,,,,,,,,,,,,,,,
null,,confidence_buffer,295904,confidence_buffer,,null,,,,,,,,,,,,,,,,,,
1799.6000000089407,,unique_rating,297705,Fictional_Cities_List/img_manmade_43.png,,52,,,4,,,,,,,,,,,,,,,
null,,confidence_buffer,297807,confidence_buffer,,null,,,,,,,,,,,,,,,,,,
4944.5,,memorable_rating,302753,Fictional_Cities_List/img_manmade_43.png,,53,,,5,,,,,,,,,,,,,,,
null,,confidence_buffer,302856,confidence_buffer,,null,,,,,,,,,,,,,,,,,,
null,,thebreak,303358,break,,null,,,,,,,,,,,,,,,,,,
8273.60000000894,,familiar_rating,311633,US_Cities_List/nat_athens.png,,51,US_Cities_List/nat_athens.png,NAT,3,,,,,,,,,,,,,,,
null,,confidence_buffer,311735,confidence_buffer,,null,,,,,,,,,,,,,,,,,,
6080.5999999940395,,unique_rating,317817,US_Cities_List/nat_athens.png,,49,,,1,,,,,,,,,,,,,,,
null,,confidence_buffer,317928,confidence_buffer,,null,,,,,,,,,,,,,,,,,,
5080.100000008941,,memorable_rating,323009,US_Cities_List/nat_athens.png,,51,,,3,,,,,,,,,,,,,,,
null,,confidence_buffer,323112,confidence_buffer,,null,,,,,,,,,,,,,,,,,,
null,,thebreak,323613,break,,null,,,,,,,,,,,,,,,,,,
8678.800000011921,,familiar_rating,332295,Fictional_Cities_List/img_manmade_14.png,,50,Fictional_Cities_List/img_manmade_14.png,MM,2,,,,,,,,,,,,,,,
null,,confidence_buffer,332397,confidence_buffer,,null,,,,,,,,,,,,,,,,,,
6127,,unique_rating,338525,Fictional_Cities_List/img_manmade_14.png,,50,,,2,,,,,,,,,,,,,,,
null,,confidence_buffer,338628,confidence_buffer,,null,,,,,,,,,,,,,,,,,,
3399.300000011921,,memorable_rating,342029,Fictional_Cities_List/img_manmade_14.png,,51,,,3,,,,,,,,,,,,,,,
null,,confidence_buffer,342132,confidence_buffer,,null,,,,,,,,,,,,,,,,,,
null,,thebreak,342634,break,,null,,,,,,,,,,,,,,,,,,
9905.90000000596,,familiar_rating,352541,US_Cities_List/mm_hilo.png,,49,US_Cities_List/mm_hilo.png,MM,1,,,,,,,,,,,,,,,
null,,confidence_buffer,352644,confidence_buffer,,null,,,,,,,,,,,,,,,,,,
7995.600000008941,,unique_rating,360641,US_Cities_List/mm_hilo.png,,52,,,4,,,,,,,,,,,,,,,
null,,confidence_buffer,360744,confidence_buffer,,null,,,,,,,,,,,,,,,,,,
9279.90000000596,,memorable_rating,370025,US_Cities_List/mm_hilo.png,,51,,,3,,,,,,,,,,,,,,,
null,,confidence_buffer,370128,confidence_buffer,,null,,,,,,,,,,,,,,,,,,
null,,thebreak,370630,break,,null,,,,,,,,,,,,,,,,,,
13221.40000000596,,familiar_rating,383853,US_Cities_List/nat_boulder.png,,50,US_Cities_List/nat_boulder.png,NAT,2,,,,,,,,,,,,,,,
null,,confidence_buffer,383955,confidence_buffer,,null,,,,,,,,,,,,,,,,,,
3800.8999999910593,,unique_rating,387757,US_Cities_List/nat_boulder.png,,50,,,2,,,,,,,,,,,,,,,
null,,confidence_buffer,387859,confidence_buffer,,null,,,,,,,,,,,,,,,,,,
3528.7999999970198,,memorable_rating,391389,US_Cities_List/nat_boulder.png,,50,,,2,,,,,,,,,,,,,,,
null,,confidence_buffer,391491,confidence_buffer,,null,,,,,,,,,,,,,,,,,,
null,,thebreak,391993,break,,null,,,,,,,,,,,,,,,,,,
8363.09999999404,,familiar_rating,400357,Fictional_Cities_List/img_natural_34.png,,51,Fictional_Cities_List/img_natural_34.png,NAT,3,,,,,,,,,,,,,,,
null,,confidence_buffer,400461,confidence_buffer,,null,,,,,,,,,,,,,,,,,,
5814.70000000298,,unique_rating,406277,Fictional_Cities_List/img_natural_34.png,,50,,,2,,,,,,,,,,,,,,,
null,,confidence_buffer,406385,confidence_buffer,,null,,,,,,,,,,,,,,,,,,
5466.699999988079,,memorable_rating,411853,Fictional_Cities_List/img_natural_34.png,,51,,,3,,,,,,,,,,,,,,,
null,,confidence_buffer,411955,confidence_buffer,,null,,,,,,,,,,,,,,,,,,
null,,thebreak,412458,break,,null,,,,,,,,,,,,,,,,,,
6670.5999999940395,,familiar_rating,419129,US_Cities_List/mm_cornwall.png,,49,US_Cities_List/mm_cornwall.png,MM,1,,,,,,,,,,,,,,,
null,,confidence_buffer,419231,confidence_buffer,,null,,,,,,,,,,,,,,,,,,
4752.800000011921,,probe_rating,423985,probe_rating,,50,,,,2,1,,,,,,,,,,,,,
null,,confidence_buffer,424102,confidence_buffer,,null,,,,,,,,,,,,,,,,,,
7081.699999988079,,unique_rating,431185,US_Cities_List/mm_cornwall.png,,53,,,5,,,,,,,,,,,,,,,
null,,confidence_buffer,431288,confidence_buffer,,null,,,,,,,,,,,,,,,,,,
8106.5,,memorable_rating,439396,US_Cities_List/mm_cornwall.png,,53,,,5,,,,,,,,,,,,,,,
null,,confidence_buffer,439499,confidence_buffer,,null,,,,,,,,,,,,,,,,,,
null,,thebreak,440003,break,,null,,,,,,,,,,,,,,,,,,
9142.300000011921,,familiar_rating,449146,US_Cities_List/mm_delawarecity.png,,50,US_Cities_List/mm_delawarecity.png,MM,2,,,,,,,,,,,,,,,
null,,confidence_buffer,449249,confidence_buffer,,null,,,,,,,,,,,,,,,,,,
3811.0999999940395,,unique_rating,453061,US_Cities_List/mm_delawarecity.png,,51,,,3,,,,,,,,,,,,,,,
null,,confidence_buffer,453163,confidence_buffer,,null,,,,,,,,,,,,,,,,,,
3048.7000000029802,,memorable_rating,456213,US_Cities_List/mm_delawarecity.png,,51,,,3,,,,,,,,,,,,,,,
null,,confidence_buffer,456315,confidence_buffer,,null,,,,,,,,,,,,,,,,,,
null,,thebreak,456817,break,,null,,,,,,,,,,,,,,,,,,
9402.60000000894,,familiar_rating,466221,US_Cities_List/mm_boulder.png,,49,US_Cities_List/mm_boulder.png,MM,1,,,,,,,,,,,,,,,
null,,confidence_buffer,466324,confidence_buffer,,null,,,,,,,,,,,,,,,,,,
5487.79999999702,,unique_rating,471813,US_Cities_List/mm_boulder.png,,51,,,3,,,,,,,,,,,,,,,
null,,confidence_buffer,471915,confidence_buffer,,null,,,,,,,,,,,,,,,,,,
4784.29999999702,,memorable_rating,476701,US_Cities_List/mm_boulder.png,,52,,,4,,,,,,,,,,,,,,,
null,,confidence_buffer,476803,confidence_buffer,,null,,,,,,,,,,,,,,,,,,
5788.9000000059605,,probe_rating,482593,probe_rating,,51,,,,3,1,,,,,,,,,,,,,
null,,confidence_buffer,482696,confidence_buffer,,null,,,,,,,,,,,,,,,,,,
null,,thebreak,483198,break,,null,,,,,,,,,,,,,,,,,,
5737.5,,familiar_rating,488937,US_Cities_List/nat_delawarecity.png,,50,US_Cities_List/nat_delawarecity.png,NAT,2,,,,,,,,,,,,,,,
null,,confidence_buffer,489042,confidence_buffer,,null,,,,,,,,,,,,,,,,,,
4406.5,,unique_rating,493450,US_Cities_List/nat_delawarecity.png,,49,,,1,,,,,,,,,,,,,,,
null,,confidence_buffer,493552,confidence_buffer,,null,,,,,,,,,,,,,,,,,,
5836.70000000298,,memorable_rating,499391,US_Cities_List/nat_delawarecity.png,,50,,,2,,,,,,,,,,,,,,,
null,,confidence_buffer,499492,confidence_buffer,,null,,,,,,,,,,,,,,,,,,
null,,thebreak,499994,break,,null,,,,,,,,,,,,,,,,,,
20977.79999999702,,familiar_rating,520973,Fictional_Cities_List/img_manmade_22.png,,49,Fictional_Cities_List/img_manmade_22.png,MM,1,,,,,,,,,,,,,,,
null,,confidence_buffer,521075,confidence_buffer,,null,,,,,,,,,,,,,,,,,,
5369.4000000059605,,unique_rating,526445,Fictional_Cities_List/img_manmade_22.png,,53,,,5,,,,,,,,,,,,,,,
null,,confidence_buffer,526548,confidence_buffer,,null,,,,,,,,,,,,,,,,,,
2903.3999999910593,,memorable_rating,529452,Fictional_Cities_List/img_manmade_22.png,,53,,,5,,,,,,,,,,,,,,,
null,,confidence_buffer,529556,confidence_buffer,,null,,,,,,,,,,,,,,,,,,
null,,thebreak,530058,break,,null,,,,,,,,,,,,,,,,,,
8961.29999999702,,familiar_rating,539021,US_Cities_List/mm_athens.png,,50,US_Cities_List/mm_athens.png,MM,2,,,,,,,,,,,,,,,
null,,confidence_buffer,539123,confidence_buffer,,null,,,,,,,,,,,,,,,,,,
4377.899999991059,,unique_rating,543502,US_Cities_List/mm_athens.png,,51,,,3,,,,,,,,,,,,,,,
null,,confidence_buffer,543605,confidence_buffer,,null,,,,,,,,,,,,,,,,,,
3659.2000000029802,,memorable_rating,547265,US_Cities_List/mm_athens.png,,51,,,3,,,,,,,,,,,,,,,
null,,confidence_buffer,547367,confidence_buffer,,null,,,,,,,,,,,,,,,,,,
null,,thebreak,547870,break,,null,,,,,,,,,,,,,,,,,,
9265.79999999702,,familiar_rating,557137,Fictional_Cities_List/img_natural_14.png,,51,Fictional_Cities_List/img_natural_14.png,NAT,3,,,,,,,,,,,,,,,
null,,confidence_buffer,557242,confidence_buffer,,null,,,,,,,,,,,,,,,,,,
4926.399999991059,,unique_rating,562169,Fictional_Cities_List/img_natural_14.png,,50,,,2,,,,,,,,,,,,,,,
null,,confidence_buffer,562272,confidence_buffer,,null,,,,,,,,,,,,,,,,,,
6120.29999999702,,probe_rating,568394,probe_rating,,52,,,,4,1,,,,,,,,,,,,,
null,,confidence_buffer,568507,confidence_buffer,,null,,,,,,,,,,,,,,,,,,
3525,,memorable_rating,572034,Fictional_Cities_List/img_natural_14.png,,52,,,4,,,,,,,,,,,,,,,
null,,confidence_buffer,572136,confidence_buffer,,null,,,,,,,,,,,,,,,,,,
null,,thebreak,572638,break,,null,,,,,,,,,,,,,,,,,,
9669.59999999404,,familiar_rating,582309,Fictional_Cities_List/img_natural_43.png,,49,Fictional_Cities_List/img_natural_43.png,NAT,1,,,,,,,,,,,,,,,
null,,confidence_buffer,582412,confidence_buffer,,null,,,,,,,,,,,,,,,,,,
6119.600000008941,,unique_rating,588533,Fictional_Cities_List/img_natural_43.png,,51,,,3,,,,,,,,,,,,,,,
null,,confidence_buffer,588635,confidence_buffer,,null,,,,,,,,,,,,,,,,,,
4104.5999999940395,,memorable_rating,592741,Fictional_Cities_List/img_natural_43.png,,50,,,2,,,,,,,,,,,,,,,
null,,confidence_buffer,592844,confidence_buffer,,null,,,,,,,,,,,,,,,,,,
null,,thebreak,593346,break,,null,,,,,,,,,,,,,,,,,,
10005.90000000596,,familiar_rating,603353,US_Cities_List/nat_coeurdalene.png,,51,US_Cities_List/nat_coeurdalene.png,NAT,3,,,,,,,,,,,,,,,
null,,confidence_buffer,603456,confidence_buffer,,null,,,,,,,,,,,,,,,,,,
3951.8999999910593,,unique_rating,607409,US_Cities_List/nat_coeurdalene.png,,49,,,1,,,,,,,,,,,,,,,
null,,confidence_buffer,607512,confidence_buffer,,null,,,,,,,,,,,,,,,,,,
5543.600000008941,,probe_rating,613057,probe_rating,,52,,,,4,0,,,,,,,,,,,,,
null,,confidence_buffer,613160,confidence_buffer,,null,,,,,,,,,,,,,,,,,,
3455.7000000029802,,memorable_rating,616617,US_Cities_List/nat_coeurdalene.png,,52,,,4,,,,,,,,,,,,,,,
null,,confidence_buffer,616719,confidence_buffer,,null,,,,,,,,,,,,,,,,,,
null,,thebreak,617221,break,,null,,,,,,,,,,,,,,,,,,
37485.79999999702,,familiar_rating,654708,Fictional_Cities_List/img_manmade_32.png,,49,Fictional_Cities_List/img_manmade_32.png,MM,1,,,,,,,,,,,,,,,
null,,confidence_buffer,654810,confidence_buffer,,null,,,,,,,,,,,,,,,,,,
4953.5,,unique_rating,659765,Fictional_Cities_List/img_manmade_32.png,,50,,,2,,,,,,,,,,,,,,,
null,,confidence_buffer,659867,confidence_buffer,,null,,,,,,,,,,,,,,,,,,
3088.5999999940395,,memorable_rating,662957,Fictional_Cities_List/img_manmade_32.png,,51,,,3,,,,,,,,,,,,,,,
null,,confidence_buffer,663059,confidence_buffer,,null,,,,,,,,,,,,,,,,,,
null,,thebreak,663561,break,,null,,,,,,,,,,,,,,,,,,
7318,,familiar_rating,670880,Fictional_Cities_List/img_manmade_18.png,,50,Fictional_Cities_List/img_manmade_18.png,MM,2,,,,,,,,,,,,,,,
null,,confidence_buffer,670983,confidence_buffer,,null,,,,,,,,,,,,,,,,,,
5216.0999999940395,,probe_rating,676200,probe_rating,,53,,,,5,1,,,,,,,,,,,,,
null,,confidence_buffer,676303,confidence_buffer,,null,,,,,,,,,,,,,,,,,,
5824.5,,unique_rating,682130,Fictional_Cities_List/img_manmade_18.png,,50,,,2,,,,,,,,,,,,,,,
null,,confidence_buffer,682232,confidence_buffer,,null,,,,,,,,,,,,,,,,,,
1623.4000000059605,,memorable_rating,683856,Fictional_Cities_List/img_manmade_18.png,,50,,,2,,,,,,,,,,,,,,,
null,,confidence_buffer,683959,confidence_buffer,,null,,,,,,,,,,,,,,,,,,
null,,thebreak,684462,break,,null,,,,,,,,,,,,,,,,,,
10658.10000000894,,familiar_rating,695122,Fictional_Cities_List/img_natural_07.png,,49,Fictional_Cities_List/img_natural_07.png,NAT,1,,,,,,,,,,,,,,,
null,,confidence_buffer,695223,confidence_buffer,,null,,,,,,,,,,,,,,,,,,
12404.40000000596,,unique_rating,707629,Fictional_Cities_List/img_natural_07.png,,52,,,4,,,,,,,,,,,,,,,
null,,confidence_buffer,707732,confidence_buffer,,null,,,,,,,,,,,,,,,,,,
4224.20000000298,,memorable_rating,711957,Fictional_Cities_List/img_natural_07.png,,53,,,5,,,,,,,,,,,,,,,
null,,confidence_buffer,712059,confidence_buffer,,null,,,,,,,,,,,,,,,,,,
null,,thebreak,712561,break,,null,,,,,,,,,,,,,,,,,,
9738.199999988079,,familiar_rating,722301,US_Cities_List/mm_peoria.png,,49,US_Cities_List/mm_peoria.png,MM,1,,,,,,,,,,,,,,,
null,,confidence_buffer,722403,confidence_buffer,,null,,,,,,,,,,,,,,,,,,
6620.9000000059605,,unique_rating,729025,US_Cities_List/mm_peoria.png,,52,,,4,,,,,,,,,,,,,,,
null,,confidence_buffer,729135,confidence_buffer,,null,,,,,,,,,,,,,,,,,,
3880.9000000059605,,memorable_rating,733017,US_Cities_List/mm_peoria.png,,53,,,5,,,,,,,,,,,,,,,
null,,confidence_buffer,733119,confidence_buffer,,null,,,,,,,,,,,,,,,,,,
4025,,probe_rating,737145,probe_rating,,49,,,,1,1,,,,,,,,,,,,,
null,,confidence_buffer,737248,confidence_buffer,,null,,,,,,,,,,,,,,,,,,
null,,thebreak,737751,break,,null,,,,,,,,,,,,,,,,,,
9168.89999999106,,familiar_rating,746921,Fictional_Cities_List/img_manmade_46.png,,49,Fictional_Cities_List/img_manmade_46.png,MM,1,,,,,,,,,,,,,,,
null,,confidence_buffer,747024,confidence_buffer,,null,,,,,,,,,,,,,,,,,,
3816.2999999970198,,unique_rating,750841,Fictional_Cities_List/img_manmade_46.png,,50,,,2,,,,,,,,,,,,,,,
null,,confidence_buffer,750944,confidence_buffer,,null,,,,,,,,,,,,,,,,,,
4191.79999999702,,memorable_rating,755137,Fictional_Cities_List/img_manmade_46.png,,51,,,3,,,,,,,,,,,,,,,
null,,confidence_buffer,755240,confidence_buffer,,null,,,,,,,,,,,,,,,,,,
null,,thebreak,755742,break,,null,,,,,,,,,,,,,,,,,,
9629.90000000596,,familiar_rating,765373,Fictional_Cities_List/img_natural_19.png,,49,Fictional_Cities_List/img_natural_19.png,NAT,1,,,,,,,,,,,,,,,
null,,confidence_buffer,765476,confidence_buffer,,null,,,,,,,,,,,,,,,,,,
5407.70000000298,,unique_rating,770885,Fictional_Cities_List/img_natural_19.png,,51,,,3,,,,,,,,,,,,,,,
null,,confidence_buffer,770987,confidence_buffer,,null,,,,,,,,,,,,,,,,,,
3208.0999999940395,,memorable_rating,774197,Fictional_Cities_List/img_natural_19.png,,51,,,3,,,,,,,,,,,,,,,
null,,confidence_buffer,774300,confidence_buffer,,null,,,,,,,,,,,,,,,,,,
null,,thebreak,774802,break,,null,,,,,,,,,,,,,,,,,,
10810.90000000596,,intro_0,785614,instruct,,32,,,,,,,,,,,,,,,,,,
12577.90000000596,,intro_1,798193,instruct,,32,,,,,,,,,,,,,,,,,,
20391.40000000596,,intro_2,818586,instruct,,32,,,,,,,,,,,,,,,,,,
null,,instruct_dir_4,820088,instruct,,null,,,,,,,,,,,,,,,,,,
77195.70000000298,,pt2_realistic_rating,897285,Fictional_Cities_List/img_natural_24.png,,49,Fictional_Cities_List/img_natural_24.png,NAT,1,,,,,,,,,,,,,,,
null,,confidence_buffer,897387,confidence_buffer,,null,,,,,,,,,,,,,,,,,,
3949.5,,pt2_unique_rating,901338,Fictional_Cities_List/img_natural_24.png,,53,,,5,,,,,,,,,,,,,,,
null,,confidence_buffer,901440,confidence_buffer,,null,,,,,,,,,,,,,,,,,,
2576.4000000059605,,pt2_memorable_rating,904018,Fictional_Cities_List/img_natural_24.png,,53,,,5,,,,,,,,,,,,,,,
null,,confidence_buffer,904121,confidence_buffer,,null,,,,,,,,,,,,,,,,,,
5714.5,,recognition_phase,909837,Fictional_Cities_List/img_natural_24.png,,52,,,,,,new,1,1,,,,,,,,,,
null,,confidence_buffer,909940,confidence_buffer,,null,,,,,,,,,,,,,,,,,,
null,,thebreak,910444,break,,null,,,,,,,,,,,,,,,,,,
7667.5999999940395,,pt2_realistic_rating,918113,Fictional_Cities_List/img_manmade_30.png,,49,Fictional_Cities_List/img_manmade_30.png,MM,1,,,,,,,,,,,,,,,
null,,confidence_buffer,918215,confidence_buffer,,null,,,,,,,,,,,,,,,,,,
4950.79999999702,,pt2_unique_rating,923168,Fictional_Cities_List/img_manmade_30.png,,53,,,5,,,,,,,,,,,,,,,
null,,confidence_buffer,923270,confidence_buffer,,null,,,,,,,,,,,,,,,,,,
3404.3999999910593,,pt2_memorable_rating,926676,Fictional_Cities_List/img_manmade_30.png,,53,,,5,,,,,,,,,,,,,,,
null,,confidence_buffer,926779,confidence_buffer,,null,,,,,,,,,,,,,,,,,,
5181.70000000298,,recognition_phase,931962,Fictional_Cities_List/img_manmade_30.png,,49,,,,,,old,1,1,,,,,,,,,,
null,,confidence_buffer,932065,confidence_buffer,,null,,,,,,,,,,,,,,,,,,
null,,thebreak,932567,break,,null,,,,,,,,,,,,,,,,,,
10567.10000000894,,pt2_realistic_rating,943135,US_Cities_List/nat_cornwall.png,,52,US_Cities_List/nat_cornwall.png,NAT,4,,,,,,,,,,,,,,,
null,,confidence_buffer,943238,confidence_buffer,,null,,,,,,,,,,,,,,,,,,
16221.20000000298,,pt2_unique_rating,959460,US_Cities_List/nat_cornwall.png,,51,,,3,,,,,,,,,,,,,,,
null,,confidence_buffer,959563,confidence_buffer,,null,,,,,,,,,,,,,,,,,,
4049,,pt2_memorable_rating,963613,US_Cities_List/nat_cornwall.png,,52,,,4,,,,,,,,,,,,,,,
null,,confidence_buffer,963715,confidence_buffer,,null,,,,,,,,,,,,,,,,,,
3183.7000000029802,,recognition_phase,966901,US_Cities_List/nat_cornwall.png,,52,,,,,,new,1,1,,,,,,,,,,
null,,confidence_buffer,967003,confidence_buffer,,null,,,,,,,,,,,,,,,,,,
null,,thebreak,967506,break,,null,,,,,,,,,,,,,,,,,,
8318.40000000596,,pt2_realistic_rating,975825,Fictional_Cities_List/img_manmade_18.png,,53,Fictional_Cities_List/img_manmade_18.png,MM,5,,,,,,,,,,,,,,,
null,,confidence_buffer,975937,confidence_buffer,,null,,,,,,,,,,,,,,,,,,
5046.600000008941,,pt2_unique_rating,980985,Fictional_Cities_List/img_manmade_18.png,,52,,,4,,,,,,,,,,,,,,,
null,,confidence_buffer,981099,confidence_buffer,,null,,,,,,,,,,,,,,,,,,
3339.3999999910593,,pt2_memorable_rating,984440,Fictional_Cities_List/img_manmade_18.png,,53,,,5,,,,,,,,,,,,,,,
null,,confidence_buffer,984542,confidence_buffer,,null,,,,,,,,,,,,,,,,,,
4505.5999999940395,,recognition_phase,989049,Fictional_Cities_List/img_manmade_18.png,,49,,,,,,old,1,1,,,,,,,,,,
null,,confidence_buffer,989152,confidence_buffer,,null,,,,,,,,,,,,,,,,,,
null,,thebreak,989654,break,,null,,,,,,,,,,,,,,,,,,
8322,,pt2_realistic_rating,997977,Fictional_Cities_List/img_manmade_46.png,,52,Fictional_Cities_List/img_manmade_46.png,MM,4,,,,,,,,,,,,,,,
null,,confidence_buffer,998080,confidence_buffer,,null,,,,,,,,,,,,,,,,,,
6731.79999999702,,pt2_unique_rating,1004813,Fictional_Cities_List/img_manmade_46.png,,50,,,2,,,,,,,,,,,,,,,
null,,confidence_buffer,1004916,confidence_buffer,,null,,,,,,,,,,,,,,,,,,
4255.800000011921,,pt2_memorable_rating,1009174,Fictional_Cities_List/img_manmade_46.png,,51,,,3,,,,,,,,,,,,,,,
null,,confidence_buffer,1009292,confidence_buffer,,null,,,,,,,,,,,,,,,,,,
3615.7999999970198,,recognition_phase,1012909,Fictional_Cities_List/img_manmade_46.png,,49,,,,,,old,1,1,,,,,,,,,,
null,,confidence_buffer,1013012,confidence_buffer,,null,,,,,,,,,,,,,,,,,,
null,,thebreak,1013514,break,,null,,,,,,,,,,,,,,,,,,
12377.5,,pt2_realistic_rating,1025893,US_Cities_List/nat_hotsprings.png,,53,US_Cities_List/nat_hotsprings.png,NAT,5,,,,,,,,,,,,,,,
null,,confidence_buffer,1025996,confidence_buffer,,null,,,,,,,,,,,,,,,,,,
4983.70000000298,,pt2_unique_rating,1030981,US_Cities_List/nat_hotsprings.png,,51,,,3,,,,,,,,,,,,,,,
null,,confidence_buffer,1031083,confidence_buffer,,null,,,,,,,,,,,,,,,,,,
1528.7999999970198,,pt2_memorable_rating,1032613,US_Cities_List/nat_hotsprings.png,,51,,,3,,,,,,,,,,,,,,,
null,,confidence_buffer,1032716,confidence_buffer,,null,,,,,,,,,,,,,,,,,,
5603.600000008941,,recognition_phase,1038321,US_Cities_List/nat_hotsprings.png,,50,,,,,,old,1,1,,,,,,,,,,
null,,confidence_buffer,1038423,confidence_buffer,,null,,,,,,,,,,,,,,,,,,
null,,thebreak,1038925,break,,null,,,,,,,,,,,,,,,,,,
14155,,pt2_realistic_rating,1053081,US_Cities_List/nat_hilo.png,,52,US_Cities_List/nat_hilo.png,NAT,4,,,,,,,,,,,,,,,
null,,confidence_buffer,1053184,confidence_buffer,,null,,,,,,,,,,,,,,,,,,
4983.79999999702,,pt2_unique_rating,1058169,US_Cities_List/nat_hilo.png,,51,,,3,,,,,,,,,,,,,,,
null,,confidence_buffer,1058272,confidence_buffer,,null,,,,,,,,,,,,,,,,,,
3099.8999999910593,,pt2_memorable_rating,1061373,US_Cities_List/nat_hilo.png,,52,,,4,,,,,,,,,,,,,,,
null,,confidence_buffer,1061476,confidence_buffer,,null,,,,,,,,,,,,,,,,,,
4347.899999991059,,recognition_phase,1065825,US_Cities_List/nat_hilo.png,,52,,,,,,new,1,1,,,,,,,,,,
null,,confidence_buffer,1065929,confidence_buffer,,null,,,,,,,,,,,,,,,,,,
null,,thebreak,1066430,break,,null,,,,,,,,,,,,,,,,,,
12125.70000000298,,pt2_realistic_rating,1078557,US_Cities_List/mm_bisbee.png,,53,US_Cities_List/mm_bisbee.png,MM,5,,,,,,,,,,,,,,,
null,,confidence_buffer,1078660,confidence_buffer,,null,,,,,,,,,,,,,,,,,,
4207.399999991059,,pt2_unique_rating,1082869,US_Cities_List/mm_bisbee.png,,51,,,3,,,,,,,,,,,,,,,
null,,confidence_buffer,1082971,confidence_buffer,,null,,,,,,,,,,,,,,,,,,
3568.2999999970198,,pt2_memorable_rating,1086541,US_Cities_List/mm_bisbee.png,,51,,,3,,,,,,,,,,,,,,,
null,,confidence_buffer,1086644,confidence_buffer,,null,,,,,,,,,,,,,,,,,,
4432.0999999940395,,recognition_phase,1091077,US_Cities_List/mm_bisbee.png,,52,,,,,,new,1,1,,,,,,,,,,
null,,confidence_buffer,1091179,confidence_buffer,,null,,,,,,,,,,,,,,,,,,
null,,thebreak,1091681,break,,null,,,,,,,,,,,,,,,,,,
26398.60000000894,,pt2_realistic_rating,1118081,Fictional_Cities_List/img_natural_34.png,,51,Fictional_Cities_List/img_natural_34.png,NAT,3,,,,,,,,,,,,,,,
null,,confidence_buffer,1118183,confidence_buffer,,null,,,,,,,,,,,,,,,,,,
3400.9000000059605,,probe_rating,1121585,probe_rating,,49,,,,1,1,,,,,,,,,,,,,
null,,confidence_buffer,1121693,confidence_buffer,,null,,,,,,,,,,,,,,,,,,
8334.5,,pt2_unique_rating,1130029,Fictional_Cities_List/img_natural_34.png,,50,,,2,,,,,,,,,,,,,,,
null,,confidence_buffer,1130131,confidence_buffer,,null,,,,,,,,,,,,,,,,,,
3776.5999999940395,,pt2_memorable_rating,1133909,Fictional_Cities_List/img_natural_34.png,,51,,,3,,,,,,,,,,,,,,,
null,,confidence_buffer,1134011,confidence_buffer,,null,,,,,,,,,,,,,,,,,,
6384.70000000298,,recognition_phase,1140397,Fictional_Cities_List/img_natural_34.png,,50,,,,,,old,1,1,,,,,,,,,,
null,,confidence_buffer,1140499,confidence_buffer,,null,,,,,,,,,,,,,,,,,,
null,,thebreak,1141001,break,,null,,,,,,,,,,,,,,,,,,
9715.10000000894,,pt2_realistic_rating,1150717,Fictional_Cities_List/img_natural_46.png,,52,Fictional_Cities_List/img_natural_46.png,NAT,4,,,,,,,,,,,,,,,
null,,confidence_buffer,1150821,confidence_buffer,,null,,,,,,,,,,,,,,,,,,
5711,,pt2_unique_rating,1156533,Fictional_Cities_List/img_natural_46.png,,52,,,4,,,,,,,,,,,,,,,
null,,confidence_buffer,1156635,confidence_buffer,,null,,,,,,,,,,,,,,,,,,
2800,,probe_rating,1159436,probe_rating,,49,,,,1,1,,,,,,,,,,,,,
null,,confidence_buffer,1159540,confidence_buffer,,null,,,,,,,,,,,,,,,,,,
3867.7999999970198,,pt2_memorable_rating,1163409,Fictional_Cities_List/img_natural_46.png,,53,,,5,,,,,,,,,,,,,,,
null,,confidence_buffer,1163512,confidence_buffer,,null,,,,,,,,,,,,,,,,,,
6070.70000000298,,recognition_phase,1169584,Fictional_Cities_List/img_natural_46.png,,52,,,,,,new,1,1,,,,,,,,,,
null,,confidence_buffer,1169686,confidence_buffer,,null,,,,,,,,,,,,,,,,,,
null,,thebreak,1170188,break,,null,,,,,,,,,,,,,,,,,,
10124.20000000298,,pt2_realistic_rating,1180313,US_Cities_List/mm_carmel.png,,53,US_Cities_List/mm_carmel.png,MM,5,,,,,,,,,,,,,,,
null,,confidence_buffer,1180416,confidence_buffer,,null,,,,,,,,,,,,,,,,,,
3983.1000000089407,,pt2_unique_rating,1184401,US_Cities_List/mm_carmel.png,,51,,,3,,,,,,,,,,,,,,,
null,,confidence_buffer,1184502,confidence_buffer,,null,,,,,,,,,,,,,,,,,,
3536.800000011921,,pt2_memorable_rating,1188041,US_Cities_List/mm_carmel.png,,52,,,4,,,,,,,,,,,,,,,
null,,confidence_buffer,1188143,confidence_buffer,,null,,,,,,,,,,,,,,,,,,
3377.199999988079,,recognition_phase,1191521,US_Cities_List/mm_carmel.png,,49,,,,,,old,1,1,,,,,,,,,,
null,,confidence_buffer,1191624,confidence_buffer,,null,,,,,,,,,,,,,,,,,,
null,,thebreak,1192126,break,,null,,,,,,,,,,,,,,,,,,
11837.59999999404,,pt2_realistic_rating,1203965,Fictional_Cities_List/img_natural_18.png,,51,Fictional_Cities_List/img_natural_18.png,NAT,3,,,,,,,,,,,,,,,
null,,confidence_buffer,1204068,confidence_buffer,,null,,,,,,,,,,,,,,,,,,
3463.7000000029802,,pt2_unique_rating,1207533,Fictional_Cities_List/img_natural_18.png,,51,,,3,,,,,,,,,,,,,,,
null,,confidence_buffer,1207635,confidence_buffer,,null,,,,,,,,,,,,,,,,,,
3504,,pt2_memorable_rating,1211140,Fictional_Cities_List/img_natural_18.png,,51,,,3,,,,,,,,,,,,,,,
null,,confidence_buffer,1211243,confidence_buffer,,null,,,,,,,,,,,,,,,,,,
3592.8999999910593,,recognition_phase,1214837,Fictional_Cities_List/img_natural_18.png,,49,,,,,,old,1,1,,,,,,,,,,
null,,confidence_buffer,1214940,confidence_buffer,,null,,,,,,,,,,,,,,,,,,
null,,thebreak,1215442,break,,null,,,,,,,,,,,,,,,,,,
8301.60000000894,,pt2_realistic_rating,1223745,US_Cities_List/mm_peoria.png,,53,US_Cities_List/mm_peoria.png,MM,5,,,,,,,,,,,,,,,
null,,confidence_buffer,1223854,confidence_buffer,,null,,,,,,,,,,,,,,,,,,
5560.9000000059605,,pt2_unique_rating,1229416,US_Cities_List/mm_peoria.png,,52,,,4,,,,,,,,,,,,,,,
null,,confidence_buffer,1229519,confidence_buffer,,null,,,,,,,,,,,,,,,,,,
3808.9000000059605,,pt2_memorable_rating,1233329,US_Cities_List/mm_peoria.png,,53,,,5,,,,,,,,,,,,,,,
null,,confidence_buffer,1233432,confidence_buffer,,null,,,,,,,,,,,,,,,,,,
3047.199999988079,,recognition_phase,1236481,US_Cities_List/mm_peoria.png,,49,,,,,,old,1,1,,,,,,,,,,
null,,confidence_buffer,1236583,confidence_buffer,,null,,,,,,,,,,,,,,,,,,
null,,thebreak,1237085,break,,null,,,,,,,,,,,,,,,,,,
6098.79999999702,,pt2_realistic_rating,1243185,Fictional_Cities_List/img_manmade_43.png,,53,Fictional_Cities_List/img_manmade_43.png,MM,5,,,,,,,,,,,,,,,
null,,confidence_buffer,1243288,confidence_buffer,,null,,,,,,,,,,,,,,,,,,
4248,,pt2_unique_rating,1247537,Fictional_Cities_List/img_manmade_43.png,,52,,,4,,,,,,,,,,,,,,,
null,,confidence_buffer,1247639,confidence_buffer,,null,,,,,,,,,,,,,,,,,,
2888.699999988079,,pt2_memorable_rating,1250529,Fictional_Cities_List/img_manmade_43.png,,52,,,4,,,,,,,,,,,,,,,
null,,confidence_buffer,1250632,confidence_buffer,,null,,,,,,,,,,,,,,,,,,
3922.7000000029802,,recognition_phase,1254556,Fictional_Cities_List/img_manmade_43.png,,49,,,,,,old,1,1,,,,,,,,,,
null,,confidence_buffer,1254659,confidence_buffer,,null,,,,,,,,,,,,,,,,,,
null,,thebreak,1255161,break,,null,,,,,,,,,,,,,,,,,,
6314.79999999702,,pt2_realistic_rating,1261477,US_Cities_List/mm_athens.png,,53,US_Cities_List/mm_athens.png,MM,5,,,,,,,,,,,,,,,
null,,confidence_buffer,1261580,confidence_buffer,,null,,,,,,,,,,,,,,,,,,
4367.600000008941,,pt2_unique_rating,1265949,US_Cities_List/mm_athens.png,,51,,,3,,,,,,,,,,,,,,,
null,,confidence_buffer,1266051,confidence_buffer,,null,,,,,,,,,,,,,,,,,,
3856.2000000029802,,pt2_memorable_rating,1269909,US_Cities_List/mm_athens.png,,51,,,3,,,,,,,,,,,,,,,
null,,confidence_buffer,1270011,confidence_buffer,,null,,,,,,,,,,,,,,,,,,
2562.5,,recognition_phase,1272575,US_Cities_List/mm_athens.png,,49,,,,,,old,1,1,,,,,,,,,,
null,,confidence_buffer,1272679,confidence_buffer,,null,,,,,,,,,,,,,,,,,,
null,,thebreak,1273181,break,,null,,,,,,,,,,,,,,,,,,
7278.29999999702,,pt2_realistic_rating,1280461,US_Cities_List/mm_delawarecity.png,,53,US_Cities_List/mm_delawarecity.png,MM,5,,,,,,,,,,,,,,,
null,,confidence_buffer,1280564,confidence_buffer,,null,,,,,,,,,,,,,,,,,,
26411.89999999106,,pt2_unique_rating,1306977,US_Cities_List/mm_delawarecity.png,,51,,,3,,,,,,,,,,,,,,,
null,,confidence_buffer,1307079,confidence_buffer,,null,,,,,,,,,,,,,,,,,,
3559.6000000089407,,pt2_memorable_rating,1310641,US_Cities_List/mm_delawarecity.png,,51,,,3,,,,,,,,,,,,,,,
null,,confidence_buffer,1310744,confidence_buffer,,null,,,,,,,,,,,,,,,,,,
3418.7999999970198,,probe_rating,1314164,probe_rating,,49,,,,1,1,,,,,,,,,,,,,
null,,confidence_buffer,1314268,confidence_buffer,,null,,,,,,,,,,,,,,,,,,
5246.70000000298,,recognition_phase,1319516,US_Cities_List/mm_delawarecity.png,,49,,,,,,old,1,1,,,,,,,,,,
null,,confidence_buffer,1319618,confidence_buffer,,null,,,,,,,,,,,,,,,,,,
null,,thebreak,1320119,break,,null,,,,,,,,,,,,,,,,,,
6484.300000011921,,pt2_realistic_rating,1326605,US_Cities_List/nat_peoria.png,,53,US_Cities_List/nat_peoria.png,NAT,5,,,,,,,,,,,,,,,
null,,confidence_buffer,1326708,confidence_buffer,,null,,,,,,,,,,,,,,,,,,
6047.4000000059605,,pt2_unique_rating,1332757,US_Cities_List/nat_peoria.png,,50,,,2,,,,,,,,,,,,,,,
null,,confidence_buffer,1332859,confidence_buffer,,null,,,,,,,,,,,,,,,,,,
3232.5,,pt2_memorable_rating,1336093,US_Cities_List/nat_peoria.png,,52,,,4,,,,,,,,,,,,,,,
null,,confidence_buffer,1336195,confidence_buffer,,null,,,,,,,,,,,,,,,,,,
6208.399999991059,,recognition_phase,1342405,US_Cities_List/nat_peoria.png,,52,,,,,,new,1,1,,,,,,,,,,
null,,confidence_buffer,1342509,confidence_buffer,,null,,,,,,,,,,,,,,,,,,
null,,thebreak,1343011,break,,null,,,,,,,,,,,,,,,,,,
10900.199999988079,,pt2_realistic_rating,1353913,US_Cities_List/mm_boulder.png,,53,US_Cities_List/mm_boulder.png,MM,5,,,,,,,,,,,,,,,
null,,confidence_buffer,1354015,confidence_buffer,,null,,,,,,,,,,,,,,,,,,
5423.5,,pt2_unique_rating,1359440,US_Cities_List/mm_boulder.png,,53,,,5,,,,,,,,,,,,,,,
null,,confidence_buffer,1359543,confidence_buffer,,null,,,,,,,,,,,,,,,,,,
4431.79999999702,,pt2_memorable_rating,1363977,US_Cities_List/mm_boulder.png,,52,,,4,,,,,,,,,,,,,,,
null,,confidence_buffer,1364081,confidence_buffer,,null,,,,,,,,,,,,,,,,,,
3982.8999999910593,,recognition_phase,1368065,US_Cities_List/mm_boulder.png,,49,,,,,,old,1,1,,,,,,,,,,
null,,confidence_buffer,1368168,confidence_buffer,,null,,,,,,,,,,,,,,,,,,
null,,thebreak,1368670,break,,null,,,,,,,,,,,,,,,,,,
6932.79999999702,,pt2_realistic_rating,1375604,Fictional_Cities_List/img_manmade_24.png,,53,Fictional_Cities_List/img_manmade_24.png,MM,5,,,,,,,,,,,,,,,
null,,confidence_buffer,1375707,confidence_buffer,,null,,,,,,,,,,,,,,,,,,
4048.3999999910593,,pt2_unique_rating,1379756,Fictional_Cities_List/img_manmade_24.png,,51,,,3,,,,,,,,,,,,,,,
null,,confidence_buffer,1379859,confidence_buffer,,null,,,,,,,,,,,,,,,,,,
3808,,pt2_memorable_rating,1383669,Fictional_Cities_List/img_manmade_24.png,,51,,,3,,,,,,,,,,,,,,,
null,,confidence_buffer,1383771,confidence_buffer,,null,,,,,,,,,,,,,,,,,,
10863.79999999702,,recognition_phase,1394636,Fictional_Cities_List/img_manmade_24.png,,52,,,,,,new,1,1,,,,,,,,,,
null,,confidence_buffer,1394741,confidence_buffer,,null,,,,,,,,,,,,,,,,,,
null,,thebreak,1395243,break,,null,,,,,,,,,,,,,,,,,,
6904.4000000059605,,pt2_realistic_rating,1402149,US_Cities_List/nat_okoboji.png,,52,US_Cities_List/nat_okoboji.png,NAT,4,,,,,,,,,,,,,,,
null,,confidence_buffer,1402252,confidence_buffer,,null,,,,,,,,,,,,,,,,,,
98787.79999999702,,pt2_unique_rating,1501041,US_Cities_List/nat_okoboji.png,,50,,,2,,,,,,,,,,,,,,,
null,,confidence_buffer,1501144,confidence_buffer,,null,,,,,,,,,,,,,,,,,,
33984,,pt2_memorable_rating,1535129,US_Cities_List/nat_okoboji.png,,51,,,3,,,,,,,,,,,,,,,
null,,confidence_buffer,1535232,confidence_buffer,,null,,,,,,,,,,,,,,,,,,
3375.5999999940395,,probe_rating,1538609,probe_rating,,49,,,,1,1,,,,,,,,,,,,,
null,,confidence_buffer,1538712,confidence_buffer,,null,,,,,,,,,,,,,,,,,,
21447.69999998808,,recognition_phase,1560161,US_Cities_List/nat_okoboji.png,,52,,,,,,new,1,1,,,,,,,,,,
null,,confidence_buffer,1560263,confidence_buffer,,null,,,,,,,,,,,,,,,,,,
null,,thebreak,1560765,break,,null,,,,,,,,,,,,,,,,,,
92582.20000000298,,pt2_realistic_rating,1653349,Fictional_Cities_List/img_manmade_22.png,,51,Fictional_Cities_List/img_manmade_22.png,MM,3,,,,,,,,,,,,,,,
null,,confidence_buffer,1653452,confidence_buffer,,null,,,,,,,,,,,,,,,,,,
19715.5,,pt2_unique_rating,1673169,Fictional_Cities_List/img_manmade_22.png,,51,,,3,,,,,,,,,,,,,,,
null,,confidence_buffer,1673271,confidence_buffer,,null,,,,,,,,,,,,,,,,,,
5184.800000011921,,pt2_memorable_rating,1678457,Fictional_Cities_List/img_manmade_22.png,,53,,,5,,,,,,,,,,,,,,,
null,,confidence_buffer,1678560,confidence_buffer,,null,,,,,,,,,,,,,,,,,,
9978.90000000596,,recognition_phase,1688541,Fictional_Cities_List/img_manmade_22.png,,49,,,,,,old,1,1,,,,,,,,,,
null,,confidence_buffer,1688644,confidence_buffer,,null,,,,,,,,,,,,,,,,,,
null,,thebreak,1689146,break,,null,,,,,,,,,,,,,,,,,,
17593.40000000596,,pt2_realistic_rating,1706741,Fictional_Cities_List/img_natural_12.png,,49,Fictional_Cities_List/img_natural_12.png,NAT,1,,,,,,,,,,,,,,,
null,,confidence_buffer,1706844,confidence_buffer,,null,,,,,,,,,,,,,,,,,,
30284.20000000298,,pt2_unique_rating,1737129,Fictional_Cities_List/img_natural_12.png,,53,,,5,,,,,,,,,,,,,,,
null,,confidence_buffer,1737232,confidence_buffer,,null,,,,,,,,,,,,,,,,,,
6119.79999999702,,pt2_memorable_rating,1743353,Fictional_Cities_List/img_natural_12.png,,53,,,5,,,,,,,,,,,,,,,
null,,confidence_buffer,1743456,confidence_buffer,,null,,,,,,,,,,,,,,,,,,
9755.70000000298,,recognition_phase,1753213,Fictional_Cities_List/img_natural_12.png,,52,,,,,,new,1,1,,,,,,,,,,
null,,confidence_buffer,1753315,confidence_buffer,,null,,,,,,,,,,,,,,,,,,
null,,thebreak,1753818,break,,null,,,,,,,,,,,,,,,,,,
6130.20000000298,,pt2_realistic_rating,1759949,US_Cities_List/mm_cornwall.png,,52,US_Cities_List/mm_cornwall.png,MM,4,,,,,,,,,,,,,,,
null,,confidence_buffer,1760052,confidence_buffer,,null,,,,,,,,,,,,,,,,,,
4135.20000000298,,probe_rating,1764189,probe_rating,,51,,,,3,1,,,,,,,,,,,,,
null,,confidence_buffer,1764292,confidence_buffer,,null,,,,,,,,,,,,,,,,,,
4335.800000011921,,pt2_unique_rating,1768629,US_Cities_List/mm_cornwall.png,,51,,,3,,,,,,,,,,,,,,,
null,,confidence_buffer,1768732,confidence_buffer,,null,,,,,,,,,,,,,,,,,,
3536.0999999940395,,pt2_memorable_rating,1772269,US_Cities_List/mm_cornwall.png,,52,,,4,,,,,,,,,,,,,,,
null,,confidence_buffer,1772372,confidence_buffer,,null,,,,,,,,,,,,,,,,,,
8971.40000000596,,recognition_phase,1781345,US_Cities_List/mm_cornwall.png,,49,,,,,,old,1,1,,,,,,,,,,
null,,confidence_buffer,1781448,confidence_buffer,,null,,,,,,,,,,,,,,,,,,
null,,thebreak,1781950,break,,null,,,,,,,,,,,,,,,,,,
7809.0999999940395,,pt2_realistic_rating,1789760,Fictional_Cities_List/img_natural_22.png,,49,Fictional_Cities_List/img_natural_22.png,NAT,1,,,,,,,,,,,,,,,
null,,confidence_buffer,1789864,confidence_buffer,,null,,,,,,,,,,,,,,,,,,
11343.59999999404,,pt2_unique_rating,1801209,Fictional_Cities_List/img_natural_22.png,,52,,,4,,,,,,,,,,,,,,,
null,,confidence_buffer,1801311,confidence_buffer,,null,,,,,,,,,,,,,,,,,,
3077.7000000029802,,probe_rating,1804390,probe_rating,,49,,,,1,1,,,,,,,,,,,,,
null,,confidence_buffer,1804494,confidence_buffer,,null,,,,,,,,,,,,,,,,,,
7893,,pt2_memorable_rating,1812389,Fictional_Cities_List/img_natural_22.png,,53,,,5,,,,,,,,,,,,,,,
null,,confidence_buffer,1812491,confidence_buffer,,null,,,,,,,,,,,,,,,,,,
6912,,recognition_phase,1819404,Fictional_Cities_List/img_natural_22.png,,49,,,,,,old,1,1,,,,,,,,,,
null,,confidence_buffer,1819508,confidence_buffer,,null,,,,,,,,,,,,,,,,,,
null,,thebreak,1820010,break,,null,,,,,,,,,,,,,,,,,,
57233.79999999702,,pt2_realistic_rating,1877245,Fictional_Cities_List/img_natural_14.png,,53,Fictional_Cities_List/img_natural_14.png,NAT,5,,,,,,,,,,,,,,,
null,,confidence_buffer,1877348,confidence_buffer,,null,,,,,,,,,,,,,,,,,,
5015.70000000298,,pt2_unique_rating,1882365,Fictional_Cities_List/img_natural_14.png,,52,,,4,,,,,,,,,,,,,,,
null,,confidence_buffer,1882467,confidence_buffer,,null,,,,,,,,,,,,,,,,,,
6144.79999999702,,pt2_memorable_rating,1888613,Fictional_Cities_List/img_natural_14.png,,52,,,4,,,,,,,,,,,,,,,
null,,confidence_buffer,1888716,confidence_buffer,,null,,,,,,,,,,,,,,,,,,
4015.7000000029802,,recognition_phase,1892733,Fictional_Cities_List/img_natural_14.png,,49,,,,,,old,1,1,,,,,,,,,,
null,,confidence_buffer,1892836,confidence_buffer,,null,,,,,,,,,,,,,,,,,,
null,,thebreak,1893338,break,,null,,,,,,,,,,,,,,,,,,
7106.0999999940395,,pt2_realistic_rating,1900445,US_Cities_List/mm_hotsprings.png,,53,US_Cities_List/mm_hotsprings.png,MM,5,,,,,,,,,,,,,,,
null,,confidence_buffer,1900547,confidence_buffer,,null,,,,,,,,,,,,,,,,,,
10500.09999999404,,pt2_unique_rating,1911049,US_Cities_List/mm_hotsprings.png,,50,,,2,,,,,,,,,,,,,,,
null,,confidence_buffer,1911151,confidence_buffer,,null,,,,,,,,,,,,,,,,,,
4456.29999999702,,pt2_memorable_rating,1915609,US_Cities_List/mm_hotsprings.png,,51,,,3,,,,,,,,,,,,,,,
null,,confidence_buffer,1915712,confidence_buffer,,null,,,,,,,,,,,,,,,,,,
5063.29999999702,,recognition_phase,1920777,US_Cities_List/mm_hotsprings.png,,52,,,,,,new,1,1,,,,,,,,,,
null,,confidence_buffer,1920880,confidence_buffer,,null,,,,,,,,,,,,,,,,,,
null,,thebreak,1921382,break,,null,,,,,,,,,,,,,,,,,,
6609.79999999702,,pt2_realistic_rating,1927993,US_Cities_List/nat_sitka.png,,53,US_Cities_List/nat_sitka.png,NAT,5,,,,,,,,,,,,,,,
null,,confidence_buffer,1928096,confidence_buffer,,null,,,,,,,,,,,,,,,,,,
9651.20000000298,,pt2_unique_rating,1937749,US_Cities_List/nat_sitka.png,,49,,,1,,,,,,,,,,,,,,,
null,,confidence_buffer,1937852,confidence_buffer,,null,,,,,,,,,,,,,,,,,,
4895.79999999702,,pt2_memorable_rating,1942749,US_Cities_List/nat_sitka.png,,50,,,2,,,,,,,,,,,,,,,
null,,confidence_buffer,1942852,confidence_buffer,,null,,,,,,,,,,,,,,,,,,
6517.399999991059,,recognition_phase,1949371,US_Cities_List/nat_sitka.png,,52,,,,,,new,1,1,,,,,,,,,,
null,,confidence_buffer,1949474,confidence_buffer,,null,,,,,,,,,,,,,,,,,,
null,,thebreak,1949976,break,,null,,,,,,,,,,,,,,,,,,
6483.79999999702,,pt2_realistic_rating,1956461,US_Cities_List/nat_healdsburg.png,,53,US_Cities_List/nat_healdsburg.png,NAT,5,,,,,,,,,,,,,,,
null,,confidence_buffer,1956564,confidence_buffer,,null,,,,,,,,,,,,,,,,,,
5335.5,,pt2_unique_rating,1961901,US_Cities_List/nat_healdsburg.png,,50,,,2,,,,,,,,,,,,,,,
null,,confidence_buffer,1962003,confidence_buffer,,null,,,,,,,,,,,,,,,,,,
3475.9000000059605,,pt2_memorable_rating,1965480,US_Cities_List/nat_healdsburg.png,,50,,,2,,,,,,,,,,,,,,,
null,,confidence_buffer,1965582,confidence_buffer,,null,,,,,,,,,,,,,,,,,,
5728.9000000059605,,recognition_phase,1971313,US_Cities_List/nat_healdsburg.png,,52,,,,,,new,1,1,,,,,,,,,,
null,,confidence_buffer,1971416,confidence_buffer,,null,,,,,,,,,,,,,,,,,,
null,,thebreak,1971919,break,,null,,,,,,,,,,,,,,,,,,
11472.60000000894,,pt2_realistic_rating,1983393,US_Cities_List/mm_westpalmbeach.png,,52,US_Cities_List/mm_westpalmbeach.png,MM,4,,,,,,,,,,,,,,,
null,,confidence_buffer,1983496,confidence_buffer,,null,,,,,,,,,,,,,,,,,,
5974.9000000059605,,pt2_unique_rating,1989473,US_Cities_List/mm_westpalmbeach.png,,53,,,5,,,,,,,,,,,,,,,
null,,confidence_buffer,1989575,confidence_buffer,,null,,,,,,,,,,,,,,,,,,
3549.9000000059605,,pt2_memorable_rating,1993126,US_Cities_List/mm_westpalmbeach.png,,53,,,5,,,,,,,,,,,,,,,
null,,confidence_buffer,1993229,confidence_buffer,,null,,,,,,,,,,,,,,,,,,
3390.7000000029802,,recognition_phase,1996621,US_Cities_List/mm_westpalmbeach.png,,49,,,,,,old,1,1,,,,,,,,,,
null,,confidence_buffer,1996724,confidence_buffer,,null,,,,,,,,,,,,,,,,,,
null,,thebreak,1997225,break,,null,,,,,,,,,,,,,,,,,,
10026.10000000894,,pt2_realistic_rating,2007253,Fictional_Cities_List/img_manmade_12.png,,52,Fictional_Cities_List/img_manmade_12.png,MM,4,,,,,,,,,,,,,,,
null,,confidence_buffer,2007356,confidence_buffer,,null,,,,,,,,,,,,,,,,,,
5967.4000000059605,,pt2_unique_rating,2013325,Fictional_Cities_List/img_manmade_12.png,,51,,,3,,,,,,,,,,,,,,,
null,,confidence_buffer,2013427,confidence_buffer,,null,,,,,,,,,,,,,,,,,,
10056.5,,pt2_memorable_rating,2023485,Fictional_Cities_List/img_manmade_12.png,,52,,,4,,,,,,,,,,,,,,,
null,,confidence_buffer,2023588,confidence_buffer,,null,,,,,,,,,,,,,,,,,,
5954.5,,recognition_phase,2029544,Fictional_Cities_List/img_manmade_12.png,,52,,,,,,new,1,1,,,,,,,,,,
null,,confidence_buffer,2029646,confidence_buffer,,null,,,,,,,,,,,,,,,,,,
null,,thebreak,2030148,break,,null,,,,,,,,,,,,,,,,,,
9402.40000000596,,pt2_realistic_rating,2039552,Fictional_Cities_List/img_natural_29.png,,51,Fictional_Cities_List/img_natural_29.png,NAT,3,,,,,,,,,,,,,,,
null,,confidence_buffer,2039655,confidence_buffer,,null,,,,,,,,,,,,,,,,,,
11464.79999999702,,pt2_unique_rating,2051121,Fictional_Cities_List/img_natural_29.png,,53,,,5,,,,,,,,,,,,,,,
null,,confidence_buffer,2051223,confidence_buffer,,null,,,,,,,,,,,,,,,,,,
25435.90000000596,,pt2_memorable_rating,2076661,Fictional_Cities_List/img_natural_29.png,,53,,,5,,,,,,,,,,,,,,,
null,,confidence_buffer,2076763,confidence_buffer,,null,,,,,,,,,,,,,,,,,,
4265.100000008941,,recognition_phase,2081029,Fictional_Cities_List/img_natural_29.png,,49,,,,,,old,1,1,,,,,,,,,,
null,,confidence_buffer,2081132,confidence_buffer,,null,,,,,,,,,,,,,,,,,,
null,,thebreak,2081634,break,,null,,,,,,,,,,,,,,,,,,
18309.40000000596,,pt2_realistic_rating,2099945,Fictional_Cities_List/img_natural_03.png,,50,Fictional_Cities_List/img_natural_03.png,NAT,2,,,,,,,,,,,,,,,
null,,confidence_buffer,2100058,confidence_buffer,,null,,,,,,,,,,,,,,,,,,
5172.600000008941,,pt2_unique_rating,2105232,Fictional_Cities_List/img_natural_03.png,,52,,,4,,,,,,,,,,,,,,,
null,,confidence_buffer,2105334,confidence_buffer,,null,,,,,,,,,,,,,,,,,,
3385.2000000029802,,pt2_memorable_rating,2108721,Fictional_Cities_List/img_natural_03.png,,53,,,5,,,,,,,,,,,,,,,
null,,confidence_buffer,2108824,confidence_buffer,,null,,,,,,,,,,,,,,,,,,
10562.70000000298,,recognition_phase,2119388,Fictional_Cities_List/img_natural_03.png,,52,,,,,,new,1,1,,,,,,,,,,
null,,confidence_buffer,2119493,confidence_buffer,,null,,,,,,,,,,,,,,,,,,
null,,thebreak,2120004,break,,null,,,,,,,,,,,,,,,,,,
8943.300000011921,,pt2_realistic_rating,2128949,Fictional_Cities_List/img_manmade_19.png,,53,Fictional_Cities_List/img_manmade_19.png,MM,5,,,,,,,,,,,,,,,
null,,confidence_buffer,2129051,confidence_buffer,,null,,,,,,,,,,,,,,,,,,
6720.100000008941,,pt2_unique_rating,2135772,Fictional_Cities_List/img_manmade_19.png,,50,,,2,,,,,,,,,,,,,,,
null,,confidence_buffer,2135874,confidence_buffer,,null,,,,,,,,,,,,,,,,,,
12581,,pt2_memorable_rating,2148457,Fictional_Cities_List/img_manmade_19.png,,51,,,3,,,,,,,,,,,,,,,
null,,confidence_buffer,2148560,confidence_buffer,,null,,,,,,,,,,,,,,,,,,
3895.5999999940395,,recognition_phase,2152457,Fictional_Cities_List/img_manmade_19.png,,52,,,,,,new,1,1,,,,,,,,,,
null,,confidence_buffer,2152560,confidence_buffer,,null,,,,,,,,,,,,,,,,,,
null,,thebreak,2153062,break,,null,,,,,,,,,,,,,,,,,,
13177.60000000894,,pt2_realistic_rating,2166241,Fictional_Cities_List/img_manmade_34.png,,53,Fictional_Cities_List/img_manmade_34.png,MM,5,,,,,,,,,,,,,,,
null,,confidence_buffer,2166343,confidence_buffer,,null,,,,,,,,,,,,,,,,,,
7655.9000000059605,,pt2_unique_rating,2174001,Fictional_Cities_List/img_manmade_34.png,,51,,,3,,,,,,,,,,,,,,,
null,,confidence_buffer,2174104,confidence_buffer,,null,,,,,,,,,,,,,,,,,,
4943.20000000298,,pt2_memorable_rating,2179049,Fictional_Cities_List/img_manmade_34.png,,52,,,4,,,,,,,,,,,,,,,
null,,confidence_buffer,2179150,confidence_buffer,,null,,,,,,,,,,,,,,,,,,
6524.800000011921,,recognition_phase,2185677,Fictional_Cities_List/img_manmade_34.png,,52,,,,,,new,1,1,,,,,,,,,,
null,,confidence_buffer,2185779,confidence_buffer,,null,,,,,,,,,,,,,,,,,,
null,,thebreak,2186281,break,,null,,,,,,,,,,,,,,,,,,
8346.09999999404,,pt2_realistic_rating,2194628,Fictional_Cities_List/img_manmade_29.png,,51,Fictional_Cities_List/img_manmade_29.png,MM,3,,,,,,,,,,,,,,,
null,,confidence_buffer,2194731,confidence_buffer,,null,,,,,,,,,,,,,,,,,,
4679.79999999702,,pt2_unique_rating,2199412,Fictional_Cities_List/img_manmade_29.png,,51,,,3,,,,,,,,,,,,,,,
null,,confidence_buffer,2199514,confidence_buffer,,null,,,,,,,,,,,,,,,,,,
3521.2000000029802,,pt2_memorable_rating,2203037,Fictional_Cities_List/img_manmade_29.png,,50,,,2,,,,,,,,,,,,,,,
null,,confidence_buffer,2203139,confidence_buffer,,null,,,,,,,,,,,,,,,,,,
3600,,probe_rating,2206741,probe_rating,,53,,,,5,1,,,,,,,,,,,,,
null,,confidence_buffer,2206844,confidence_buffer,,null,,,,,,,,,,,,,,,,,,
4319.9000000059605,,recognition_phase,2211165,Fictional_Cities_List/img_manmade_29.png,,52,,,,,,new,1,1,,,,,,,,,,
null,,confidence_buffer,2211268,confidence_buffer,,null,,,,,,,,,,,,,,,,,,
null,,thebreak,2211771,break,,null,,,,,,,,,,,,,,,,,,
13388.5,,pt2_realistic_rating,2225161,Fictional_Cities_List/img_manmade_03.png,,50,Fictional_Cities_List/img_manmade_03.png,MM,2,,,,,,,,,,,,,,,
null,,confidence_buffer,2225264,confidence_buffer,,null,,,,,,,,,,,,,,,,,,
5215.79999999702,,pt2_unique_rating,2230481,Fictional_Cities_List/img_manmade_03.png,,52,,,4,,,,,,,,,,,,,,,
null,,confidence_buffer,2230584,confidence_buffer,,null,,,,,,,,,,,,,,,,,,
6160.100000008941,,pt2_memorable_rating,2236745,Fictional_Cities_List/img_manmade_03.png,,53,,,5,,,,,,,,,,,,,,,
null,,confidence_buffer,2236847,confidence_buffer,,null,,,,,,,,,,,,,,,,,,
5555.79999999702,,recognition_phase,2242405,Fictional_Cities_List/img_manmade_03.png,,52,,,,,,new,1,1,,,,,,,,,,
null,,confidence_buffer,2242508,confidence_buffer,,null,,,,,,,,,,,,,,,,,,
null,,thebreak,2243011,break,,null,,,,,,,,,,,,,,,,,,
7296.100000008941,,pt2_realistic_rating,2250309,US_Cities_List/mm_healdsburg.png,,53,US_Cities_List/mm_healdsburg.png,MM,5,,,,,,,,,,,,,,,
null,,confidence_buffer,2250412,confidence_buffer,,null,,,,,,,,,,,,,,,,,,
4975.0999999940395,,pt2_unique_rating,2255389,US_Cities_List/mm_healdsburg.png,,52,,,4,,,,,,,,,,,,,,,
null,,confidence_buffer,2255492,confidence_buffer,,null,,,,,,,,,,,,,,,,,,
4840,,pt2_memorable_rating,2260333,US_Cities_List/mm_healdsburg.png,,51,,,3,,,,,,,,,,,,,,,
null,,confidence_buffer,2260435,confidence_buffer,,null,,,,,,,,,,,,,,,,,,
3335.8999999910593,,recognition_phase,2263773,US_Cities_List/mm_healdsburg.png,,52,,,,,,new,1,1,,,,,,,,,,
null,,confidence_buffer,2263875,confidence_buffer,,null,,,,,,,,,,,,,,,,,,
null,,thebreak,2264378,break,,null,,,,,,,,,,,,,,,,,,
8165.899999991059,,pt2_realistic_rating,2272545,Fictional_Cities_List/img_manmade_07.png,,53,Fictional_Cities_List/img_manmade_07.png,MM,5,,,,,,,,,,,,,,,
null,,confidence_buffer,2272647,confidence_buffer,,null,,,,,,,,,,,,,,,,,,
3935.7999999970198,,pt2_unique_rating,2276585,Fictional_Cities_List/img_manmade_07.png,,50,,,2,,,,,,,,,,,,,,,
null,,confidence_buffer,2276688,confidence_buffer,,null,,,,,,,,,,,,,,,,,,
4007.4000000059605,,pt2_memorable_rating,2280697,Fictional_Cities_List/img_manmade_07.png,,50,,,2,,,,,,,,,,,,,,,
null,,confidence_buffer,2280799,confidence_buffer,,null,,,,,,,,,,,,,,,,,,
3248.199999988079,,recognition_phase,2284049,Fictional_Cities_List/img_manmade_07.png,,52,,,,,,new,1,1,,,,,,,,,,
null,,confidence_buffer,2284153,confidence_buffer,,null,,,,,,,,,,,,,,,,,,
null,,thebreak,2284654,break,,null,,,,,,,,,,,,,,,,,,
8289,,pt2_realistic_rating,2292945,Fictional_Cities_List/img_manmade_44.png,,53,Fictional_Cities_List/img_manmade_44.png,MM,5,,,,,,,,,,,,,,,
null,,confidence_buffer,2293048,confidence_buffer,,null,,,,,,,,,,,,,,,,,,
3515.4000000059605,,pt2_unique_rating,2296565,Fictional_Cities_List/img_manmade_44.png,,50,,,2,,,,,,,,,,,,,,,
null,,confidence_buffer,2296667,confidence_buffer,,null,,,,,,,,,,,,,,,,,,
3759.7999999970198,,pt2_memorable_rating,2300428,Fictional_Cities_List/img_manmade_44.png,,50,,,2,,,,,,,,,,,,,,,
null,,confidence_buffer,2300530,confidence_buffer,,null,,,,,,,,,,,,,,,,,,
5505.199999988079,,recognition_phase,2306037,Fictional_Cities_List/img_manmade_44.png,,52,,,,,,new,1,1,,,,,,,,,,
null,,confidence_buffer,2306140,confidence_buffer,,null,,,,,,,,,,,,,,,,,,
null,,thebreak,2306642,break,,null,,,,,,,,,,,,,,,,,,
8553.40000000596,,pt2_realistic_rating,2315197,US_Cities_List/nat_bisbee.png,,53,US_Cities_List/nat_bisbee.png,NAT,5,,,,,,,,,,,,,,,
null,,confidence_buffer,2315300,confidence_buffer,,null,,,,,,,,,,,,,,,,,,
3359.5999999940395,,pt2_unique_rating,2318661,US_Cities_List/nat_bisbee.png,,50,,,2,,,,,,,,,,,,,,,
null,,confidence_buffer,2318763,confidence_buffer,,null,,,,,,,,,,,,,,,,,,
4672.4000000059605,,pt2_memorable_rating,2323437,US_Cities_List/nat_bisbee.png,,50,,,2,,,,,,,,,,,,,,,
null,,confidence_buffer,2323540,confidence_buffer,,null,,,,,,,,,,,,,,,,,,
5824,,recognition_phase,2329365,US_Cities_List/nat_bisbee.png,,50,,,,,,old,1,1,,,,,,,,,,
null,,confidence_buffer,2329469,confidence_buffer,,null,,,,,,,,,,,,,,,,,,
null,,thebreak,2329971,break,,null,,,,,,,,,,,,,,,,,,
8492.10000000894,,pt2_realistic_rating,2338465,US_Cities_List/nat_boulder.png,,52,US_Cities_List/nat_boulder.png,NAT,4,,,,,,,,,,,,,,,
null,,confidence_buffer,2338568,confidence_buffer,,null,,,,,,,,,,,,,,,,,,
8279.59999999404,,pt2_unique_rating,2346849,US_Cities_List/nat_boulder.png,,51,,,3,,,,,,,,,,,,,,,
null,,confidence_buffer,2346952,confidence_buffer,,null,,,,,,,,,,,,,,,,,,
8623.300000011921,,pt2_memorable_rating,2355577,US_Cities_List/nat_boulder.png,,51,,,3,,,,,,,,,,,,,,,
null,,confidence_buffer,2355679,confidence_buffer,,null,,,,,,,,,,,,,,,,,,
3363.7000000029802,,recognition_phase,2359045,US_Cities_List/nat_boulder.png,,49,,,,,,old,1,1,,,,,,,,,,
null,,confidence_buffer,2359146,confidence_buffer,,null,,,,,,,,,,,,,,,,,,
null,,thebreak,2359648,break,,null,,,,,,,,,,,,,,,,,,
8643.20000000298,,pt2_realistic_rating,2368292,Fictional_Cities_List/img_natural_43.png,,51,Fictional_Cities_List/img_natural_43.png,NAT,3,,,,,,,,,,,,,,,
null,,confidence_buffer,2368395,confidence_buffer,,null,,,,,,,,,,,,,,,,,,
4544.4000000059605,,pt2_unique_rating,2372941,Fictional_Cities_List/img_natural_43.png,,52,,,4,,,,,,,,,,,,,,,
null,,confidence_buffer,2373044,confidence_buffer,,null,,,,,,,,,,,,,,,,,,
4375.600000008941,,pt2_memorable_rating,2377420,Fictional_Cities_List/img_natural_43.png,,53,,,5,,,,,,,,,,,,,,,
null,,confidence_buffer,2377523,confidence_buffer,,null,,,,,,,,,,,,,,,,,,
6704.800000011921,,recognition_phase,2384230,Fictional_Cities_List/img_natural_43.png,,49,,,,,,old,1,1,,,,,,,,,,
null,,confidence_buffer,2384333,confidence_buffer,,null,,,,,,,,,,,,,,,,,,
null,,thebreak,2384836,break,,null,,,,,,,,,,,,,,,,,,
7496,,pt2_realistic_rating,2392333,Fictional_Cities_List/img_natural_19.png,,49,Fictional_Cities_List/img_natural_19.png,NAT,1,,,,,,,,,,,,,,,
null,,confidence_buffer,2392436,confidence_buffer,,null,,,,,,,,,,,,,,,,,,
8275.89999999106,,pt2_unique_rating,2400713,Fictional_Cities_List/img_natural_19.png,,53,,,5,,,,,,,,,,,,,,,
null,,confidence_buffer,2400829,confidence_buffer,,null,,,,,,,,,,,,,,,,,,
9178.20000000298,,pt2_memorable_rating,2410009,Fictional_Cities_List/img_natural_19.png,,53,,,5,,,,,,,,,,,,,,,
null,,confidence_buffer,2410111,confidence_buffer,,null,,,,,,,,,,,,,,,,,,
3616.300000011921,,recognition_phase,2413729,Fictional_Cities_List/img_natural_19.png,,49,,,,,,old,1,1,,,,,,,,,,
null,,confidence_buffer,2413831,confidence_buffer,,null,,,,,,,,,,,,,,,,,,
null,,thebreak,2414334,break,,null,,,,,,,,,,,,,,,,,,
6569.9000000059605,,pt2_realistic_rating,2420905,Fictional_Cities_List/img_natural_32.png,,53,Fictional_Cities_List/img_natural_32.png,NAT,5,,,,,,,,,,,,,,,
null,,confidence_buffer,2421009,confidence_buffer,,null,,,,,,,,,,,,,,,,,,
5378.70000000298,,pt2_unique_rating,2426389,Fictional_Cities_List/img_natural_32.png,,52,,,4,,,,,,,,,,,,,,,
null,,confidence_buffer,2426491,confidence_buffer,,null,,,,,,,,,,,,,,,,,,
3535.8999999910593,,pt2_memorable_rating,2430029,Fictional_Cities_List/img_natural_32.png,,53,,,5,,,,,,,,,,,,,,,
null,,confidence_buffer,2430132,confidence_buffer,,null,,,,,,,,,,,,,,,,,,
4518.9000000059605,,recognition_phase,2434652,Fictional_Cities_List/img_natural_32.png,,52,,,,,,new,1,1,,,,,,,,,,
null,,confidence_buffer,2434755,confidence_buffer,,null,,,,,,,,,,,,,,,,,,
null,,thebreak,2435257,break,,null,,,,,,,,,,,,,,,,,,
6018.4000000059605,,pt2_realistic_rating,2441277,US_Cities_List/nat_coeurdalene.png,,53,US_Cities_List/nat_coeurdalene.png,NAT,5,,,,,,,,,,,,,,,
null,,confidence_buffer,2441381,confidence_buffer,,null,,,,,,,,,,,,,,,,,,
5278.300000011921,,pt2_unique_rating,2446661,US_Cities_List/nat_coeurdalene.png,,49,,,1,,,,,,,,,,,,,,,
null,,confidence_buffer,2446763,confidence_buffer,,null,,,,,,,,,,,,,,,,,,
2609.0999999940395,,pt2_memorable_rating,2449373,US_Cities_List/nat_coeurdalene.png,,52,,,4,,,,,,,,,,,,,,,
null,,confidence_buffer,2449476,confidence_buffer,,null,,,,,,,,,,,,,,,,,,
5351.0999999940395,,recognition_phase,2454828,US_Cities_List/nat_coeurdalene.png,,50,,,,,,old,1,1,,,,,,,,,,
null,,confidence_buffer,2454932,confidence_buffer,,null,,,,,,,,,,,,,,,,,,
null,,thebreak,2455438,break,,null,,,,,,,,,,,,,,,,,,
55125.59999999404,,pt2_realistic_rating,2510565,US_Cities_List/mm_coeurdalene.png,,53,US_Cities_List/mm_coeurdalene.png,MM,5,,,,,,,,,,,,,,,
null,,confidence_buffer,2510667,confidence_buffer,,null,,,,,,,,,,,,,,,,,,
79643.20000000298,,pt2_unique_rating,2590312,US_Cities_List/mm_coeurdalene.png,,49,,,1,,,,,,,,,,,,,,,
null,,confidence_buffer,2590415,confidence_buffer,,null,,,,,,,,,,,,,,,,,,
4287.70000000298,,pt2_memorable_rating,2594704,US_Cities_List/mm_coeurdalene.png,,51,,,3,,,,,,,,,,,,,,,
null,,confidence_buffer,2594807,confidence_buffer,,null,,,,,,,,,,,,,,,,,,
4879,,recognition_phase,2599688,US_Cities_List/mm_coeurdalene.png,,52,,,,,,new,1,1,,,,,,,,,,
null,,confidence_buffer,2599791,confidence_buffer,,null,,,,,,,,,,,,,,,,,,
null,,thebreak,2600293,break,,null,,,,,,,,,,,,,,,,,,
7734.5999999940395,,pt2_realistic_rating,2608029,US_Cities_List/nat_abilene.png,,52,US_Cities_List/nat_abilene.png,NAT,4,,,,,,,,,,,,,,,
null,,confidence_buffer,2608132,confidence_buffer,,null,,,,,,,,,,,,,,,,,,
5807.29999999702,,pt2_unique_rating,2613941,US_Cities_List/nat_abilene.png,,50,,,2,,,,,,,,,,,,,,,
null,,confidence_buffer,2614042,confidence_buffer,,null,,,,,,,,,,,,,,,,,,
5328.5,,pt2_memorable_rating,2619372,US_Cities_List/nat_abilene.png,,51,,,3,,,,,,,,,,,,,,,
null,,confidence_buffer,2619474,confidence_buffer,,null,,,,,,,,,,,,,,,,,,
4712.79999999702,,recognition_phase,2624188,US_Cities_List/nat_abilene.png,,52,,,,,,new,1,1,,,,,,,,,,
null,,confidence_buffer,2624291,confidence_buffer,,null,,,,,,,,,,,,,,,,,,
null,,thebreak,2624794,break,,null,,,,,,,,,,,,,,,,,,
7321.29999999702,,pt2_realistic_rating,2632117,US_Cities_List/nat_westpalmbeach.png,,51,US_Cities_List/nat_westpalmbeach.png,NAT,3,,,,,,,,,,,,,,,
null,,confidence_buffer,2632219,confidence_buffer,,null,,,,,,,,,,,,,,,,,,
4483.9000000059605,,pt2_unique_rating,2636704,US_Cities_List/nat_westpalmbeach.png,,51,,,3,,,,,,,,,,,,,,,
null,,confidence_buffer,2636808,confidence_buffer,,null,,,,,,,,,,,,,,,,,,
4083.5999999940395,,pt2_memorable_rating,2640893,US_Cities_List/nat_westpalmbeach.png,,53,,,5,,,,,,,,,,,,,,,
null,,confidence_buffer,2640995,confidence_buffer,,null,,,,,,,,,,,,,,,,,,
3867.7000000029802,,recognition_phase,2644864,US_Cities_List/nat_westpalmbeach.png,,52,,,,,,new,1,1,,,,,,,,,,
null,,confidence_buffer,2644967,confidence_buffer,,null,,,,,,,,,,,,,,,,,,
null,,thebreak,2645469,break,,null,,,,,,,,,,,,,,,,,,
50069.70000000298,,pt2_realistic_rating,2695541,US_Cities_List/mm_abilene.png,,52,US_Cities_List/mm_abilene.png,MM,4,,,,,,,,,,,,,,,
null,,confidence_buffer,2695644,confidence_buffer,,null,,,,,,,,,,,,,,,,,,
7219.4000000059605,,pt2_unique_rating,2702865,US_Cities_List/mm_abilene.png,,53,,,5,,,,,,,,,,,,,,,
null,,confidence_buffer,2702968,confidence_buffer,,null,,,,,,,,,,,,,,,,,,
2339.6000000089407,,pt2_memorable_rating,2705309,US_Cities_List/mm_abilene.png,,53,,,5,,,,,,,,,,,,,,,
null,,confidence_buffer,2705411,confidence_buffer,,null,,,,,,,,,,,,,,,,,,
2807.2999999970198,,recognition_phase,2708220,US_Cities_List/mm_abilene.png,,52,,,,,,new,1,1,,,,,,,,,,
null,,confidence_buffer,2708324,confidence_buffer,,null,,,,,,,,,,,,,,,,,,
null,,thebreak,2708826,break,,null,,,,,,,,,,,,,,,,,,
10796.199999988079,,pt2_realistic_rating,2719624,Fictional_Cities_List/img_manmade_32.png,,52,Fictional_Cities_List/img_manmade_32.png,MM,4,,,,,,,,,,,,,,,
null,,confidence_buffer,2719726,confidence_buffer,,null,,,,,,,,,,,,,,,,,,
2592.8999999910593,,probe_rating,2722320,probe_rating,,50,,,,2,1,,,,,,,,,,,,,
null,,confidence_buffer,2722423,confidence_buffer,,null,,,,,,,,,,,,,,,,,,
4504,,pt2_unique_rating,2726928,Fictional_Cities_List/img_manmade_32.png,,50,,,2,,,,,,,,,,,,,,,
null,,confidence_buffer,2727031,confidence_buffer,,null,,,,,,,,,,,,,,,,,,
2623.2999999970198,,pt2_memorable_rating,2729656,Fictional_Cities_List/img_manmade_32.png,,51,,,3,,,,,,,,,,,,,,,
null,,confidence_buffer,2729759,confidence_buffer,,null,,,,,,,,,,,,,,,,,,
3720.3999999910593,,recognition_phase,2733481,Fictional_Cities_List/img_manmade_32.png,,50,,,,,,old,1,1,,,,,,,,,,
null,,confidence_buffer,2733583,confidence_buffer,,null,,,,,,,,,,,,,,,,,,
null,,thebreak,2734085,break,,null,,,,,,,,,,,,,,,,,,
7642,,pt2_realistic_rating,2741729,US_Cities_List/nat_delawarecity.png,,52,US_Cities_List/nat_delawarecity.png,NAT,4,,,,,,,,,,,,,,,
null,,confidence_buffer,2741832,confidence_buffer,,null,,,,,,,,,,,,,,,,,,
5951.5999999940395,,pt2_unique_rating,2747785,US_Cities_List/nat_delawarecity.png,,50,,,2,,,,,,,,,,,,,,,
null,,confidence_buffer,2747888,confidence_buffer,,null,,,,,,,,,,,,,,,,,,
2679.5,,pt2_memorable_rating,2750569,US_Cities_List/nat_delawarecity.png,,51,,,3,,,,,,,,,,,,,,,
null,,confidence_buffer,2750672,confidence_buffer,,null,,,,,,,,,,,,,,,,,,
3713.5999999940395,,recognition_phase,2754387,US_Cities_List/nat_delawarecity.png,,50,,,,,,old,1,1,,,,,,,,,,
null,,confidence_buffer,2754492,confidence_buffer,,null,,,,,,,,,,,,,,,,,,
null,,thebreak,2754994,break,,null,,,,,,,,,,,,,,,,,,
12777.79999999702,,pt2_realistic_rating,2767773,US_Cities_List/mm_okoboji.png,,51,US_Cities_List/mm_okoboji.png,MM,3,,,,,,,,,,,,,,,
null,,confidence_buffer,2767876,confidence_buffer,,null,,,,,,,,,,,,,,,,,,
5310.79999999702,,pt2_unique_rating,2773189,US_Cities_List/mm_okoboji.png,,53,,,5,,,,,,,,,,,,,,,
null,,confidence_buffer,2773292,confidence_buffer,,null,,,,,,,,,,,,,,,,,,
2199.6000000089407,,pt2_memorable_rating,2775493,US_Cities_List/mm_okoboji.png,,53,,,5,,,,,,,,,,,,,,,
null,,confidence_buffer,2775595,confidence_buffer,,null,,,,,,,,,,,,,,,,,,
2875.9000000059605,,probe_rating,2778473,probe_rating,,52,,,,4,1,,,,,,,,,,,,,
null,,confidence_buffer,2778576,confidence_buffer,,null,,,,,,,,,,,,,,,,,,
5543.199999988079,,recognition_phase,2784120,US_Cities_List/mm_okoboji.png,,52,,,,,,new,1,1,,,,,,,,,,
null,,confidence_buffer,2784222,confidence_buffer,,null,,,,,,,,,,,,,,,,,,
null,,thebreak,2784724,break,,null,,,,,,,,,,,,,,,,,,
10987,,pt2_realistic_rating,2795713,US_Cities_List/mm_sitka.png,,53,US_Cities_List/mm_sitka.png,MM,5,,,,,,,,,,,,,,,
null,,confidence_buffer,2795816,confidence_buffer,,null,,,,,,,,,,,,,,,,,,
5151.79999999702,,pt2_unique_rating,2800969,US_Cities_List/mm_sitka.png,,50,,,2,,,,,,,,,,,,,,,
null,,confidence_buffer,2801072,confidence_buffer,,null,,,,,,,,,,,,,,,,,,
3454.7000000029802,,pt2_memorable_rating,2804528,US_Cities_List/mm_sitka.png,,50,,,2,,,,,,,,,,,,,,,
null,,confidence_buffer,2804630,confidence_buffer,,null,,,,,,,,,,,,,,,,,,
5312.5999999940395,,recognition_phase,2809944,US_Cities_List/mm_sitka.png,,52,,,,,,new,1,1,,,,,,,,,,
null,,confidence_buffer,2810048,confidence_buffer,,null,,,,,,,,,,,,,,,,,,
null,,thebreak,2810551,break,,null,,,,,,,,,,,,,,,,,,
8108,,pt2_realistic_rating,2818660,Fictional_Cities_List/img_natural_30.png,,52,Fictional_Cities_List/img_natural_30.png,NAT,4,,,,,,,,,,,,,,,
null,,confidence_buffer,2818763,confidence_buffer,,null,,,,,,,,,,,,,,,,,,
4376.29999999702,,pt2_unique_rating,2823141,Fictional_Cities_List/img_natural_30.png,,53,,,5,,,,,,,,,,,,,,,
null,,confidence_buffer,2823243,confidence_buffer,,null,,,,,,,,,,,,,,,,,,
2960.5999999940395,,pt2_memorable_rating,2826205,Fictional_Cities_List/img_natural_30.png,,53,,,5,,,,,,,,,,,,,,,
null,,confidence_buffer,2826308,confidence_buffer,,null,,,,,,,,,,,,,,,,,,
5294.70000000298,,recognition_phase,2831604,Fictional_Cities_List/img_natural_30.png,,52,,,,,,new,1,1,,,,,,,,,,
null,,confidence_buffer,2831707,confidence_buffer,,null,,,,,,,,,,,,,,,,,,
null,,thebreak,2832209,break,,null,,,,,,,,,,,,,,,,,,
12180.90000000596,,pt2_realistic_rating,2844392,Fictional_Cities_List/img_natural_44.png,,52,Fictional_Cities_List/img_natural_44.png,NAT,4,,,,,,,,,,,,,,,
null,,confidence_buffer,2844495,confidence_buffer,,null,,,,,,,,,,,,,,,,,,
6288.199999988079,,pt2_unique_rating,2850784,Fictional_Cities_List/img_natural_44.png,,51,,,3,,,,,,,,,,,,,,,
null,,confidence_buffer,2850886,confidence_buffer,,null,,,,,,,,,,,,,,,,,,
3248.5,,pt2_memorable_rating,2854137,Fictional_Cities_List/img_natural_44.png,,51,,,3,,,,,,,,,,,,,,,
null,,confidence_buffer,2854240,confidence_buffer,,null,,,,,,,,,,,,,,,,,,
6303.4000000059605,,recognition_phase,2860545,Fictional_Cities_List/img_natural_44.png,,51,,,,,,new,1,1,,,,,,,,,,
null,,confidence_buffer,2860648,confidence_buffer,,null,,,,,,,,,,,,,,,,,,
null,,thebreak,2861154,break,,null,,,,,,,,,,,,,,,,,,
9645.70000000298,,pt2_realistic_rating,2870801,US_Cities_List/mm_hilo.png,,52,US_Cities_List/mm_hilo.png,MM,4,,,,,,,,,,,,,,,
null,,confidence_buffer,2870904,confidence_buffer,,null,,,,,,,,,,,,,,,,,,
5011.20000000298,,pt2_unique_rating,2875916,US_Cities_List/mm_hilo.png,,51,,,3,,,,,,,,,,,,,,,
null,,confidence_buffer,2876018,confidence_buffer,,null,,,,,,,,,,,,,,,,,,
4672.70000000298,,pt2_memorable_rating,2880693,US_Cities_List/mm_hilo.png,,52,,,4,,,,,,,,,,,,,,,
null,,confidence_buffer,2880795,confidence_buffer,,null,,,,,,,,,,,,,,,,,,
4344.100000008941,,recognition_phase,2885141,US_Cities_List/mm_hilo.png,,49,,,,,,old,1,1,,,,,,,,,,
null,,confidence_buffer,2885244,confidence_buffer,,null,,,,,,,,,,,,,,,,,,
null,,thebreak,2885746,break,,null,,,,,,,,,,,,,,,,,,
6577.20000000298,,pt2_realistic_rating,2892324,Fictional_Cities_List/img_manmade_14.png,,53,Fictional_Cities_List/img_manmade_14.png,MM,5,,,,,,,,,,,,,,,
null,,confidence_buffer,2892427,confidence_buffer,,null,,,,,,,,,,,,,,,,,,
4072,,pt2_unique_rating,2896501,Fictional_Cities_List/img_manmade_14.png,,50,,,2,,,,,,,,,,,,,,,
null,,confidence_buffer,2896603,confidence_buffer,,null,,,,,,,,,,,,,,,,,,
3905,,pt2_memorable_rating,2900510,Fictional_Cities_List/img_manmade_14.png,,51,,,3,,,,,,,,,,,,,,,
null,,confidence_buffer,2900612,confidence_buffer,,null,,,,,,,,,,,,,,,,,,
3035.4000000059605,,recognition_phase,2903649,Fictional_Cities_List/img_manmade_14.png,,49,,,,,,old,1,1,,,,,,,,,,
null,,confidence_buffer,2903751,confidence_buffer,,null,,,,,,,,,,,,,,,,,,
null,,thebreak,2904254,break,,null,,,,,,,,,,,,,,,,,,
9401.40000000596,,pt2_realistic_rating,2913657,US_Cities_List/nat_carmel.png,,50,US_Cities_List/nat_carmel.png,NAT,2,,,,,,,,,,,,,,,
null,,confidence_buffer,2913759,confidence_buffer,,null,,,,,,,,,,,,,,,,,,
2823.9000000059605,,pt2_unique_rating,2916585,US_Cities_List/nat_carmel.png,,51,,,3,,,,,,,,,,,,,,,
null,,confidence_buffer,2916687,confidence_buffer,,null,,,,,,,,,,,,,,,,,,
3575.6000000089407,,pt2_memorable_rating,2920264,US_Cities_List/nat_carmel.png,,52,,,4,,,,,,,,,,,,,,,
null,,confidence_buffer,2920366,confidence_buffer,,null,,,,,,,,,,,,,,,,,,
4120.20000000298,,recognition_phase,2924488,US_Cities_List/nat_carmel.png,,49,,,,,,old,1,1,,,,,,,,,,
null,,confidence_buffer,2924591,confidence_buffer,,null,,,,,,,,,,,,,,,,,,
null,,thebreak,2925094,break,,null,,,,,,,,,,,,,,,,,,
4841.70000000298,,pt2_realistic_rating,2929937,US_Cities_List/nat_athens.png,,53,US_Cities_List/nat_athens.png,NAT,5,,,,,,,,,,,,,,,
null,,confidence_buffer,2930039,confidence_buffer,,null,,,,,,,,,,,,,,,,,,
3568.0999999940395,,pt2_unique_rating,2933609,US_Cities_List/nat_athens.png,,49,,,1,,,,,,,,,,,,,,,
null,,confidence_buffer,2933711,confidence_buffer,,null,,,,,,,,,,,,,,,,,,
3796.3999999910593,,pt2_memorable_rating,2937509,US_Cities_List/nat_athens.png,,50,,,2,,,,,,,,,,,,,,,
null,,confidence_buffer,2937611,confidence_buffer,,null,,,,,,,,,,,,,,,,,,
3592,,recognition_phase,2941205,US_Cities_List/nat_athens.png,,49,,,,,,old,1,1,,,,,,,,,,
null,,confidence_buffer,2941311,confidence_buffer,,null,,,,,,,,,,,,,,,,,,
null,,thebreak,2941813,break,,null,,,,,,,,,,,,,,,,,,
8790.20000000298,,pt2_realistic_rating,2950604,Fictional_Cities_List/img_natural_07.png,,53,Fictional_Cities_List/img_natural_07.png,NAT,5,,,,,,,,,,,,,,,
null,,confidence_buffer,2950707,confidence_buffer,,null,,,,,,,,,,,,,,,,,,
3855.7000000029802,,pt2_unique_rating,2954564,Fictional_Cities_List/img_natural_07.png,,52,,,4,,,,,,,,,,,,,,,
null,,confidence_buffer,2954666,confidence_buffer,,null,,,,,,,,,,,,,,,,,,
3329.5,,pt2_memorable_rating,2957997,Fictional_Cities_List/img_natural_07.png,,53,,,5,,,,,,,,,,,,,,,
null,,confidence_buffer,2958099,confidence_buffer,,null,,,,,,,,,,,,,,,,,,
3463.9000000059605,,recognition_phase,2961565,Fictional_Cities_List/img_natural_07.png,,49,,,,,,old,1,1,,,,,,,,,,
null,,confidence_buffer,2961668,confidence_buffer,,null,,,,,,,,,,,,,,,,,,
null,,thebreak,2962171,break,,null,,,,,,,,,,,,,,,,,,
,,survey,3224569,survey-questions,,,,,,,,,,,none,high,I did take a brief phone call from my daughter during the survey.,No particular strategy.  I just resonded to each picture as it came.,Did I see it before?,Was it something I would remember,How different was it,Have I seen anything like it in the real world,no,It did feel a little long by the end.
