rt,responses,trial_type,time_elapsed,stimulus,button_pressed,key_press,name_trial,rating,probe,probe_accuracy,response,correct,accuracy,problems,smooth,distraction,strategies,familiar,memorable,unique,realistic,similar,comments,detectfocus,warning
30075.60000000894,{worker_id:6695541a6e0d986b02c25dd9},id_enter,30081,,,,,,,,,,,,,,,,,,,,,,
14535.29999999702,,fullscreen,44626,fullscreen,0,,,,,,,,,,,,,,,,,,,,
57022.59999999404,,intro_0,101658,instruct,,32,,,,,,,,,,,,,,,,,,,
21514.30000001192,,intro_1,123176,instruct,,32,,,,,,,,,,,,,,,,,,,
5985.800000011921,,intro_2,129168,instruct,,32,,,,,,,,,,,,,,,,,,,
null,,instruct_dir_4,130673,instruct,,null,,,,,,,,,,,,,,,,,,,
null,,thebreak,131178,break,,null,,,,,,,,,,,,,,,,,,,
9703.79999999702,,familiar_rating,140883,Bellingham,,50,Bellingham,2,,,,,,,,,,,,,,,,,
null,,confidence_buffer,140986,confidence_buffer,,null,,,,,,,,,,,,,,,,,,,
1662.300000011921,,unique_rating,142650,Bellingham,,51,,3,,,,,,,,,,,,,,,,,
null,,confidence_buffer,142756,confidence_buffer,,null,,,,,,,,,,,,,,,,,,,
1042,,memorable_rating,143799,Bellingham,,51,,3,,,,,,,,,,,,,,,,,
null,,confidence_buffer,143901,confidence_buffer,,null,,,,,,,,,,,,,,,,,,,
null,,thebreak,144406,break,,null,,,,,,,,,,,,,,,,,,,
3323.7999999970198,,familiar_rating,147731,Newport News,,52,Newport News,4,,,,,,,,,,,,,,,,,
null,,confidence_buffer,147842,confidence_buffer,,null,,,,,,,,,,,,,,,,,,,
1742.7999999970198,,unique_rating,149586,Newport News,,53,,5,,,,,,,,,,,,,,,,,
null,,confidence_buffer,149691,confidence_buffer,,null,,,,,,,,,,,,,,,,,,,
2178.7999999970198,,probe_rating,151871,probe_rating,,49,,,1,1,,,,,,,,,,,,,,,
null,,confidence_buffer,151980,confidence_buffer,,null,,,,,,,,,,,,,,,,,,,
3071.2999999970198,,memorable_rating,155053,Newport News,,52,,4,,,,,,,,,,,,,,,,,
null,,confidence_buffer,155168,confidence_buffer,,null,,,,,,,,,,,,,,,,,,,
null,,thebreak,155680,break,,null,,,,,,,,,,,,,,,,,,,
1724.5,,familiar_rating,157406,Ithaca,,49,Ithaca,1,,,,,,,,,,,,,,,,,
null,,confidence_buffer,157523,confidence_buffer,,null,,,,,,,,,,,,,,,,,,,
1312.2000000029802,,probe_rating,158837,probe_rating,,51,,,3,0,,,,,,,,,,,,,,,
null,,confidence_buffer,158943,confidence_buffer,,null,,,,,,,,,,,,,,,,,,,
1632.5,,unique_rating,160577,Ithaca,,52,,4,,,,,,,,,,,,,,,,,
null,,confidence_buffer,160694,confidence_buffer,,null,,,,,,,,,,,,,,,,,,,
6615.5999999940395,,memorable_rating,167311,Ithaca,,51,,3,,,,,,,,,,,,,,,,,
null,,confidence_buffer,167415,confidence_buffer,,null,,,,,,,,,,,,,,,,,,,
null,,thebreak,167938,break,,null,,,,,,,,,,,,,,,,,,,
3455,,familiar_rating,171403,Dover,,53,Dover,5,,,,,,,,,,,,,,,,,
null,,confidence_buffer,171508,confidence_buffer,,null,,,,,,,,,,,,,,,,,,,
2749.6000000089407,,unique_rating,174259,Dover,,53,,5,,,,,,,,,,,,,,,,,
null,,confidence_buffer,174367,confidence_buffer,,null,,,,,,,,,,,,,,,,,,,
1758.5,,memorable_rating,176127,Dover,,53,,5,,,,,,,,,,,,,,,,,
null,,confidence_buffer,176233,confidence_buffer,,null,,,,,,,,,,,,,,,,,,,
null,,thebreak,176746,break,,null,,,,,,,,,,,,,,,,,,,
1802.7999999970198,,familiar_rating,178550,Marquette,,50,Marquette,2,,,,,,,,,,,,,,,,,
null,,confidence_buffer,178659,confidence_buffer,,null,,,,,,,,,,,,,,,,,,,
1752.9000000059605,,unique_rating,180413,Marquette,,50,,2,,,,,,,,,,,,,,,,,
null,,confidence_buffer,180515,confidence_buffer,,null,,,,,,,,,,,,,,,,,,,
2250.0999999940395,,memorable_rating,182766,Marquette,,49,,1,,,,,,,,,,,,,,,,,
null,,confidence_buffer,182870,confidence_buffer,,null,,,,,,,,,,,,,,,,,,,
null,,thebreak,183374,break,,null,,,,,,,,,,,,,,,,,,,
2806.2999999970198,,familiar_rating,186182,Stamford,,51,Stamford,3,,,,,,,,,,,,,,,,,
null,,confidence_buffer,186296,confidence_buffer,,null,,,,,,,,,,,,,,,,,,,
49.5,,unique_rating,186347,Stamford,,53,,5,,,,,,,,,,,,,,,,,
null,,confidence_buffer,186456,confidence_buffer,,null,,,,,,,,,,,,,,,,,,,
3620.6000000089407,,memorable_rating,190078,Stamford,,53,,5,,,,,,,,,,,,,,,,,
null,,confidence_buffer,190195,confidence_buffer,,null,,,,,,,,,,,,,,,,,,,
1890.7000000029802,,probe_rating,192087,probe_rating,,52,,,4,1,,,,,,,,,,,,,,,
null,,confidence_buffer,192198,confidence_buffer,,null,,,,,,,,,,,,,,,,,,,
null,,thebreak,192702,break,,null,,,,,,,,,,,,,,,,,,,
5042,,familiar_rating,197745,Bozeman,,52,Bozeman,4,,,,,,,,,,,,,,,,,
null,,confidence_buffer,197851,confidence_buffer,,null,,,,,,,,,,,,,,,,,,,
2531.3999999910593,,unique_rating,200383,Bozeman,,53,,5,,,,,,,,,,,,,,,,,
null,,confidence_buffer,200487,confidence_buffer,,null,,,,,,,,,,,,,,,,,,,
958.8000000119209,,memorable_rating,201447,Bozeman,,53,,5,,,,,,,,,,,,,,,,,
null,,confidence_buffer,201551,confidence_buffer,,null,,,,,,,,,,,,,,,,,,,
null,,thebreak,202064,break,,null,,,,,,,,,,,,,,,,,,,
1360.0999999940395,,familiar_rating,203425,Carson City,,51,Carson City,3,,,,,,,,,,,,,,,,,
null,,confidence_buffer,203529,confidence_buffer,,null,,,,,,,,,,,,,,,,,,,
4581.600000008941,,unique_rating,208112,Carson City,,51,,3,,,,,,,,,,,,,,,,,
null,,confidence_buffer,208220,confidence_buffer,,null,,,,,,,,,,,,,,,,,,,
1872.2999999970198,,probe_rating,210094,probe_rating,,51,,,3,1,,,,,,,,,,,,,,,
null,,confidence_buffer,210201,confidence_buffer,,null,,,,,,,,,,,,,,,,,,,
2039.2000000029802,,memorable_rating,212242,Carson City,,52,,4,,,,,,,,,,,,,,,,,
null,,confidence_buffer,212351,confidence_buffer,,null,,,,,,,,,,,,,,,,,,,
null,,thebreak,212863,break,,null,,,,,,,,,,,,,,,,,,,
3483.5,,familiar_rating,216348,Scottsdale,,52,Scottsdale,4,,,,,,,,,,,,,,,,,
null,,confidence_buffer,216455,confidence_buffer,,null,,,,,,,,,,,,,,,,,,,
1554.8999999910593,,unique_rating,218011,Scottsdale,,52,,4,,,,,,,,,,,,,,,,,
null,,confidence_buffer,218120,confidence_buffer,,null,,,,,,,,,,,,,,,,,,,
2463.7000000029802,,memorable_rating,220584,Scottsdale,,52,,4,,,,,,,,,,,,,,,,,
null,,confidence_buffer,220689,confidence_buffer,,null,,,,,,,,,,,,,,,,,,,
null,,thebreak,221194,break,,null,,,,,,,,,,,,,,,,,,,
3585.2000000029802,,familiar_rating,224781,Peoria,,49,Peoria,1,,,,,,,,,,,,,,,,,
null,,confidence_buffer,224892,confidence_buffer,,null,,,,,,,,,,,,,,,,,,,
2503.7000000029802,,unique_rating,227397,Peoria,,53,,5,,,,,,,,,,,,,,,,,
null,,confidence_buffer,227503,confidence_buffer,,null,,,,,,,,,,,,,,,,,,,
2080.9000000059605,,memorable_rating,229585,Peoria,,51,,3,,,,,,,,,,,,,,,,,
null,,confidence_buffer,229692,confidence_buffer,,null,,,,,,,,,,,,,,,,,,,
null,,thebreak,230204,break,,null,,,,,,,,,,,,,,,,,,,
16741.70000000298,,familiar_rating,246948,Terre Haute,,49,Terre Haute,1,,,,,,,,,,,,,,,,,
null,,confidence_buffer,247059,confidence_buffer,,null,,,,,,,,,,,,,,,,,,,
4580.4000000059605,,unique_rating,251641,Terre Haute,,53,,5,,,,,,,,,,,,,,,,,
null,,confidence_buffer,251751,confidence_buffer,,null,,,,,,,,,,,,,,,,,,,
1596.1000000089407,,memorable_rating,253350,Terre Haute,,50,,2,,,,,,,,,,,,,,,,,
null,,confidence_buffer,253452,confidence_buffer,,null,,,,,,,,,,,,,,,,,,,
null,,thebreak,253961,break,,null,,,,,,,,,,,,,,,,,,,
3464.0999999940395,,familiar_rating,257427,Syracuse,,53,Syracuse,5,,,,,,,,,,,,,,,,,
null,,confidence_buffer,257535,confidence_buffer,,null,,,,,,,,,,,,,,,,,,,
1466.5,,unique_rating,259004,Syracuse,,52,,4,,,,,,,,,,,,,,,,,
null,,confidence_buffer,259106,confidence_buffer,,null,,,,,,,,,,,,,,,,,,,
1278.7000000029802,,memorable_rating,260387,Syracuse,,52,,4,,,,,,,,,,,,,,,,,
null,,confidence_buffer,260492,confidence_buffer,,null,,,,,,,,,,,,,,,,,,,
null,,thebreak,261008,break,,null,,,,,,,,,,,,,,,,,,,
3487.2999999970198,,familiar_rating,264498,Topeka,,49,Topeka,1,,,,,,,,,,,,,,,,,
null,,confidence_buffer,264601,confidence_buffer,,null,,,,,,,,,,,,,,,,,,,
2658.2000000029802,,unique_rating,267261,Topeka,,53,,5,,,,,,,,,,,,,,,,,
null,,confidence_buffer,267370,confidence_buffer,,null,,,,,,,,,,,,,,,,,,,
2075.9000000059605,,memorable_rating,269448,Topeka,,50,,2,,,,,,,,,,,,,,,,,
null,,confidence_buffer,269566,confidence_buffer,,null,,,,,,,,,,,,,,,,,,,
null,,thebreak,270070,break,,null,,,,,,,,,,,,,,,,,,,
3681.199999988079,,familiar_rating,273753,Toledo,,53,Toledo,5,,,,,,,,,,,,,,,,,
null,,confidence_buffer,273861,confidence_buffer,,null,,,,,,,,,,,,,,,,,,,
1693.800000011921,,unique_rating,275557,Toledo,,52,,4,,,,,,,,,,,,,,,,,
null,,confidence_buffer,275665,confidence_buffer,,null,,,,,,,,,,,,,,,,,,,
839.7999999970198,,memorable_rating,276506,Toledo,,52,,4,,,,,,,,,,,,,,,,,
null,,confidence_buffer,276610,confidence_buffer,,null,,,,,,,,,,,,,,,,,,,
3400.300000011921,,probe_rating,280012,probe_rating,,49,,,1,1,,,,,,,,,,,,,,,
null,,confidence_buffer,280124,confidence_buffer,,null,,,,,,,,,,,,,,,,,,,
null,,thebreak,280631,break,,null,,,,,,,,,,,,,,,,,,,
2640.1000000089407,,familiar_rating,283274,Pueblo,,49,Pueblo,1,,,,,,,,,,,,,,,,,
null,,confidence_buffer,283381,confidence_buffer,,null,,,,,,,,,,,,,,,,,,,
2573.2000000029802,,unique_rating,285956,Pueblo,,52,,4,,,,,,,,,,,,,,,,,
null,,confidence_buffer,286060,confidence_buffer,,null,,,,,,,,,,,,,,,,,,,
1536.6000000089407,,memorable_rating,287599,Pueblo,,49,,1,,,,,,,,,,,,,,,,,
null,,confidence_buffer,287702,confidence_buffer,,null,,,,,,,,,,,,,,,,,,,
6164.9000000059605,,probe_rating,293869,probe_rating,,52,,,4,1,,,,,,,,,,,,,,,
null,,confidence_buffer,293977,confidence_buffer,,null,,,,,,,,,,,,,,,,,,,
null,,thebreak,294501,break,,null,,,,,,,,,,,,,,,,,,,
14935.90000000596,,familiar_rating,309440,Altoona,,49,Altoona,1,,,,,,,,,,,,,,,,,
null,,confidence_buffer,309550,confidence_buffer,,null,,,,,,,,,,,,,,,,,,,
1700.2999999970198,,unique_rating,311252,Altoona,,53,,5,,,,,,,,,,,,,,,,,
null,,confidence_buffer,311362,confidence_buffer,,null,,,,,,,,,,,,,,,,,,,
1942.2000000029802,,probe_rating,313305,probe_rating,,51,,,3,1,,,,,,,,,,,,,,,
null,,confidence_buffer,313408,confidence_buffer,,null,,,,,,,,,,,,,,,,,,,
889,,memorable_rating,314298,Altoona,,51,,3,,,,,,,,,,,,,,,,,
null,,confidence_buffer,314402,confidence_buffer,,null,,,,,,,,,,,,,,,,,,,
null,,thebreak,314904,break,,null,,,,,,,,,,,,,,,,,,,
17074.59999999404,,familiar_rating,331980,Palo Alto,,52,Palo Alto,4,,,,,,,,,,,,,,,,,
null,,confidence_buffer,332086,confidence_buffer,,null,,,,,,,,,,,,,,,,,,,
2003.5999999940395,,unique_rating,334092,Palo Alto,,53,,5,,,,,,,,,,,,,,,,,
null,,confidence_buffer,334203,confidence_buffer,,null,,,,,,,,,,,,,,,,,,,
2389.199999988079,,memorable_rating,336595,Palo Alto,,52,,4,,,,,,,,,,,,,,,,,
null,,confidence_buffer,336705,confidence_buffer,,null,,,,,,,,,,,,,,,,,,,
null,,thebreak,337218,break,,null,,,,,,,,,,,,,,,,,,,
4449.399999991059,,familiar_rating,341670,Montpelier,,49,Montpelier,1,,,,,,,,,,,,,,,,,
null,,confidence_buffer,341776,confidence_buffer,,null,,,,,,,,,,,,,,,,,,,
1324.6000000089407,,unique_rating,343103,Montpelier,,53,,5,,,,,,,,,,,,,,,,,
null,,confidence_buffer,343209,confidence_buffer,,null,,,,,,,,,,,,,,,,,,,
1783.300000011921,,memorable_rating,344995,Montpelier,,50,,2,,,,,,,,,,,,,,,,,
null,,confidence_buffer,345102,confidence_buffer,,null,,,,,,,,,,,,,,,,,,,
null,,thebreak,345609,break,,null,,,,,,,,,,,,,,,,,,,
2964.5999999940395,,familiar_rating,348577,New Haven,,53,New Haven,5,,,,,,,,,,,,,,,,,
null,,confidence_buffer,348693,confidence_buffer,,null,,,,,,,,,,,,,,,,,,,
1903.5,,unique_rating,350599,New Haven,,52,,4,,,,,,,,,,,,,,,,,
null,,confidence_buffer,350712,confidence_buffer,,null,,,,,,,,,,,,,,,,,,,
1069.2999999970198,,memorable_rating,351784,New Haven,,52,,4,,,,,,,,,,,,,,,,,
null,,confidence_buffer,351894,confidence_buffer,,null,,,,,,,,,,,,,,,,,,,
null,,thebreak,352408,break,,null,,,,,,,,,,,,,,,,,,,
2124.0999999940395,,familiar_rating,354535,Pasadena,,53,Pasadena,5,,,,,,,,,,,,,,,,,
null,,confidence_buffer,354652,confidence_buffer,,null,,,,,,,,,,,,,,,,,,,
1159.5999999940395,,probe_rating,355814,probe_rating,,50,,,2,1,,,,,,,,,,,,,,,
null,,confidence_buffer,355921,confidence_buffer,,null,,,,,,,,,,,,,,,,,,,
2300.7000000029802,,unique_rating,358226,Pasadena,,52,,4,,,,,,,,,,,,,,,,,
null,,confidence_buffer,358329,confidence_buffer,,null,,,,,,,,,,,,,,,,,,,
1447,,memorable_rating,359779,Pasadena,,52,,4,,,,,,,,,,,,,,,,,
null,,confidence_buffer,359883,confidence_buffer,,null,,,,,,,,,,,,,,,,,,,
null,,thebreak,360395,break,,null,,,,,,,,,,,,,,,,,,,
1993.7999999970198,,familiar_rating,362391,Cheyenne,,49,Cheyenne,1,,,,,,,,,,,,,,,,,
null,,confidence_buffer,362499,confidence_buffer,,null,,,,,,,,,,,,,,,,,,,
2273.7000000029802,,unique_rating,364775,Cheyenne,,51,,3,,,,,,,,,,,,,,,,,
null,,confidence_buffer,364882,confidence_buffer,,null,,,,,,,,,,,,,,,,,,,
2386.7000000029802,,memorable_rating,367271,Cheyenne,,51,,3,,,,,,,,,,,,,,,,,
null,,confidence_buffer,367380,confidence_buffer,,null,,,,,,,,,,,,,,,,,,,
null,,thebreak,367889,break,,null,,,,,,,,,,,,,,,,,,,
10678.40000000596,,familiar_rating,378570,Santa Monica,,53,Santa Monica,5,,,,,,,,,,,,,,,,,
null,,confidence_buffer,378682,confidence_buffer,,null,,,,,,,,,,,,,,,,,,,
1118.4000000059605,,unique_rating,379803,Santa Monica,,52,,4,,,,,,,,,,,,,,,,,
null,,confidence_buffer,379910,confidence_buffer,,null,,,,,,,,,,,,,,,,,,,
1393.5999999940395,,memorable_rating,381305,Santa Monica,,52,,4,,,,,,,,,,,,,,,,,
null,,confidence_buffer,381412,confidence_buffer,,null,,,,,,,,,,,,,,,,,,,
1999.2000000029802,,probe_rating,383414,probe_rating,,53,,,5,1,,,,,,,,,,,,,,,
null,,confidence_buffer,383521,confidence_buffer,,null,,,,,,,,,,,,,,,,,,,
null,,thebreak,384030,break,,null,,,,,,,,,,,,,,,,,,,
15114.5,,familiar_rating,399147,Hagerstown,,49,Hagerstown,1,,,,,,,,,,,,,,,,,
null,,confidence_buffer,399254,confidence_buffer,,null,,,,,,,,,,,,,,,,,,,
6196.79999999702,,unique_rating,405453,Hagerstown,,52,,4,,,,,,,,,,,,,,,,,
null,,confidence_buffer,405563,confidence_buffer,,null,,,,,,,,,,,,,,,,,,,
2105.7000000029802,,memorable_rating,407671,Hagerstown,,50,,2,,,,,,,,,,,,,,,,,
null,,confidence_buffer,407780,confidence_buffer,,null,,,,,,,,,,,,,,,,,,,
null,,thebreak,408285,break,,null,,,,,,,,,,,,,,,,,,,
6421.600000008941,,familiar_rating,414709,Helena,,49,Helena,1,,,,,,,,,,,,,,,,,
null,,confidence_buffer,414814,confidence_buffer,,null,,,,,,,,,,,,,,,,,,,
1550.8999999910593,,unique_rating,416367,Helena,,51,,3,,,,,,,,,,,,,,,,,
null,,confidence_buffer,416469,confidence_buffer,,null,,,,,,,,,,,,,,,,,,,
659.8000000119209,,memorable_rating,417131,Helena,,51,,3,,,,,,,,,,,,,,,,,
null,,confidence_buffer,417245,confidence_buffer,,null,,,,,,,,,,,,,,,,,,,
null,,thebreak,417752,break,,null,,,,,,,,,,,,,,,,,,,
3373.7000000029802,,familiar_rating,421128,Reno,,51,Reno,3,,,,,,,,,,,,,,,,,
null,,confidence_buffer,421233,confidence_buffer,,null,,,,,,,,,,,,,,,,,,,
1874.5999999940395,,unique_rating,423110,Reno,,51,,3,,,,,,,,,,,,,,,,,
null,,confidence_buffer,423220,confidence_buffer,,null,,,,,,,,,,,,,,,,,,,
957.5,,probe_rating,424180,probe_rating,,50,,,2,1,,,,,,,,,,,,,,,
null,,confidence_buffer,424285,confidence_buffer,,null,,,,,,,,,,,,,,,,,,,
1636.0999999940395,,memorable_rating,425923,Reno,,51,,3,,,,,,,,,,,,,,,,,
null,,confidence_buffer,426027,confidence_buffer,,null,,,,,,,,,,,,,,,,,,,
null,,thebreak,426533,break,,null,,,,,,,,,,,,,,,,,,,
22960,,intro_0,449495,instruct,,32,,,,,,,,,,,,,,,,,,,
23342.29999999702,,intro_1,472839,instruct,,32,,,,,,,,,,,,,,,,,,,
29263.40000000596,,intro_2,502104,instruct,,32,,,,,,,,,,,,,,,,,,,
null,,instruct_dir_4,503613,instruct,,null,,,,,,,,,,,,,,,,,,,
7433.20000000298,,realistic_rating,511049,Syracuse,,53,Syracuse,5,,,,,,,,,,,,,,,,,
null,,confidence_buffer,511159,confidence_buffer,,null,,,,,,,,,,,,,,,,,,,
3264.2999999970198,,pt2_unique_rating,514426,Syracuse,,52,,4,,,,,,,,,,,,,,,,,
null,,confidence_buffer,514544,confidence_buffer,,null,,,,,,,,,,,,,,,,,,,
1407,,pt2_memorable_rating,515953,Syracuse,,52,,4,,,,,,,,,,,,,,,,,
null,,confidence_buffer,516068,confidence_buffer,,null,,,,,,,,,,,,,,,,,,,
2444.0999999940395,,recognition_phase,518515,Syracuse,,49,,,,,old,1,1,,,,,,,,,,,,
null,,confidence_buffer,518619,confidence_buffer,,null,,,,,,,,,,,,,,,,,,,
null,,thebreak,519125,break,,null,,,,,,,,,,,,,,,,,,,
5859.79999999702,,realistic_rating,524988,Fort Wayne,,52,Fort Wayne,4,,,,,,,,,,,,,,,,,
null,,confidence_buffer,525095,confidence_buffer,,null,,,,,,,,,,,,,,,,,,,
1268.7000000029802,,pt2_unique_rating,526366,Fort Wayne,,52,,4,,,,,,,,,,,,,,,,,
null,,confidence_buffer,526468,confidence_buffer,,null,,,,,,,,,,,,,,,,,,,
2267.8999999910593,,pt2_memorable_rating,528738,Fort Wayne,,51,,3,,,,,,,,,,,,,,,,,
null,,confidence_buffer,528850,confidence_buffer,,null,,,,,,,,,,,,,,,,,,,
4344.899999991059,,recognition_phase,533198,Fort Wayne,,52,,,,,new,1,1,,,,,,,,,,,,
null,,confidence_buffer,533300,confidence_buffer,,null,,,,,,,,,,,,,,,,,,,
null,,thebreak,533805,break,,null,,,,,,,,,,,,,,,,,,,
3685.8999999910593,,realistic_rating,537493,Olympia,,50,Olympia,2,,,,,,,,,,,,,,,,,
null,,confidence_buffer,537601,confidence_buffer,,null,,,,,,,,,,,,,,,,,,,
2424.8999999910593,,pt2_unique_rating,540029,Olympia,,52,,4,,,,,,,,,,,,,,,,,
null,,confidence_buffer,540133,confidence_buffer,,null,,,,,,,,,,,,,,,,,,,
1446.9000000059605,,pt2_memorable_rating,541583,Olympia,,51,,3,,,,,,,,,,,,,,,,,
null,,confidence_buffer,541687,confidence_buffer,,null,,,,,,,,,,,,,,,,,,,
3315.8999999910593,,recognition_phase,545005,Olympia,,52,,,,,new,1,1,,,,,,,,,,,,
null,,confidence_buffer,545115,confidence_buffer,,null,,,,,,,,,,,,,,,,,,,
null,,thebreak,545620,break,,null,,,,,,,,,,,,,,,,,,,
3028.2999999970198,,realistic_rating,548651,Ann Arbor,,53,Ann Arbor,5,,,,,,,,,,,,,,,,,
null,,confidence_buffer,548761,confidence_buffer,,null,,,,,,,,,,,,,,,,,,,
1860,,pt2_unique_rating,550623,Ann Arbor,,52,,4,,,,,,,,,,,,,,,,,
null,,confidence_buffer,550730,confidence_buffer,,null,,,,,,,,,,,,,,,,,,,
748.8999999910593,,pt2_memorable_rating,551481,Ann Arbor,,52,,4,,,,,,,,,,,,,,,,,
null,,confidence_buffer,551589,confidence_buffer,,null,,,,,,,,,,,,,,,,,,,
3242.5,,recognition_phase,554834,Ann Arbor,,50,,,,,old,0,0.75,,,,,,,,,,,,
null,,confidence_buffer,554945,confidence_buffer,,null,,,,,,,,,,,,,,,,,,,
null,,thebreak,555460,break,,null,,,,,,,,,,,,,,,,,,,
3510.7000000029802,,realistic_rating,558973,Fargo,,50,Fargo,2,,,,,,,,,,,,,,,,,
null,,confidence_buffer,559079,confidence_buffer,,null,,,,,,,,,,,,,,,,,,,
2308.2000000029802,,pt2_unique_rating,561389,Fargo,,51,,3,,,,,,,,,,,,,,,,,
null,,confidence_buffer,561506,confidence_buffer,,null,,,,,,,,,,,,,,,,,,,
1754.0999999940395,,pt2_memorable_rating,563262,Fargo,,51,,3,,,,,,,,,,,,,,,,,
null,,confidence_buffer,563372,confidence_buffer,,null,,,,,,,,,,,,,,,,,,,
1966.7000000029802,,probe_rating,565341,probe_rating,,51,,,3,1,,,,,,,,,,,,,,,
null,,confidence_buffer,565449,confidence_buffer,,null,,,,,,,,,,,,,,,,,,,
6656.199999988079,,recognition_phase,572107,Fargo,,52,,,,,new,1,0.8,,,,,,,,,,,,
null,,confidence_buffer,572209,confidence_buffer,,null,,,,,,,,,,,,,,,,,,,
null,,thebreak,572717,break,,null,,,,,,,,,,,,,,,,,,,
3508,,realistic_rating,576227,Hagerstown,,52,Hagerstown,4,,,,,,,,,,,,,,,,,
null,,confidence_buffer,576346,confidence_buffer,,null,,,,,,,,,,,,,,,,,,,
1321.5999999940395,,pt2_unique_rating,577670,Hagerstown,,52,,4,,,,,,,,,,,,,,,,,
null,,confidence_buffer,577787,confidence_buffer,,null,,,,,,,,,,,,,,,,,,,
481.3999999910593,,pt2_memorable_rating,578270,Hagerstown,,52,,4,,,,,,,,,,,,,,,,,
null,,confidence_buffer,578384,confidence_buffer,,null,,,,,,,,,,,,,,,,,,,
2637.7000000029802,,recognition_phase,581023,Hagerstown,,49,,,,,old,1,0.8333333333333334,,,,,,,,,,,,
null,,confidence_buffer,581130,confidence_buffer,,null,,,,,,,,,,,,,,,,,,,
null,,thebreak,581642,break,,null,,,,,,,,,,,,,,,,,,,
5171.70000000298,,realistic_rating,586815,Salem,,53,Salem,5,,,,,,,,,,,,,,,,,
null,,confidence_buffer,586924,confidence_buffer,,null,,,,,,,,,,,,,,,,,,,
1147.199999988079,,pt2_unique_rating,588073,Salem,,52,,4,,,,,,,,,,,,,,,,,
null,,confidence_buffer,588179,confidence_buffer,,null,,,,,,,,,,,,,,,,,,,
997.2000000029802,,pt2_memorable_rating,589178,Salem,,52,,4,,,,,,,,,,,,,,,,,
null,,confidence_buffer,589287,confidence_buffer,,null,,,,,,,,,,,,,,,,,,,
2314.5,,probe_rating,591604,probe_rating,,50,,,2,1,,,,,,,,,,,,,,,
null,,confidence_buffer,591711,confidence_buffer,,null,,,,,,,,,,,,,,,,,,,
3931.4000000059605,,recognition_phase,595645,Salem,,50,,,,,old,0,0.7142857142857143,,,,,,,,,,,,
null,,confidence_buffer,595750,confidence_buffer,,null,,,,,,,,,,,,,,,,,,,
null,,thebreak,596264,break,,null,,,,,,,,,,,,,,,,,,,
5443.899999991059,,realistic_rating,601710,Newport News,,53,Newport News,5,,,,,,,,,,,,,,,,,
null,,confidence_buffer,601815,confidence_buffer,,null,,,,,,,,,,,,,,,,,,,
4865.0999999940395,,pt2_unique_rating,606682,Newport News,,52,,4,,,,,,,,,,,,,,,,,
null,,confidence_buffer,606787,confidence_buffer,,null,,,,,,,,,,,,,,,,,,,
3969,,pt2_memorable_rating,610759,Newport News,,52,,4,,,,,,,,,,,,,,,,,
null,,confidence_buffer,610874,confidence_buffer,,null,,,,,,,,,,,,,,,,,,,
2084.4000000059605,,recognition_phase,612960,Newport News,,49,,,,,old,1,0.75,,,,,,,,,,,,
null,,confidence_buffer,613069,confidence_buffer,,null,,,,,,,,,,,,,,,,,,,
null,,thebreak,613582,break,,null,,,,,,,,,,,,,,,,,,,
6857,,realistic_rating,620442,Muncie,,50,Muncie,2,,,,,,,,,,,,,,,,,
null,,confidence_buffer,620548,confidence_buffer,,null,,,,,,,,,,,,,,,,,,,
1644.2000000029802,,probe_rating,622194,probe_rating,,52,,,4,1,,,,,,,,,,,,,,,
null,,confidence_buffer,622302,confidence_buffer,,null,,,,,,,,,,,,,,,,,,,
2438.2999999970198,,pt2_unique_rating,624742,Muncie,,53,,5,,,,,,,,,,,,,,,,,
null,,confidence_buffer,624847,confidence_buffer,,null,,,,,,,,,,,,,,,,,,,
1956,,pt2_memorable_rating,626806,Muncie,,51,,3,,,,,,,,,,,,,,,,,
null,,confidence_buffer,626916,confidence_buffer,,null,,,,,,,,,,,,,,,,,,,
2108.4000000059605,,recognition_phase,629027,Muncie,,52,,,,,new,1,0.7777777777777778,,,,,,,,,,,,
null,,confidence_buffer,629130,confidence_buffer,,null,,,,,,,,,,,,,,,,,,,
null,,thebreak,629633,break,,null,,,,,,,,,,,,,,,,,,,
2551.5999999940395,,realistic_rating,632188,Decatur,,53,Decatur,5,,,,,,,,,,,,,,,,,
null,,confidence_buffer,632295,confidence_buffer,,null,,,,,,,,,,,,,,,,,,,
1169.2000000029802,,probe_rating,633467,probe_rating,,49,,,1,1,,,,,,,,,,,,,,,
null,,confidence_buffer,633570,confidence_buffer,,null,,,,,,,,,,,,,,,,,,,
2074.199999988079,,pt2_unique_rating,635646,Decatur,,51,,3,,,,,,,,,,,,,,,,,
null,,confidence_buffer,635752,confidence_buffer,,null,,,,,,,,,,,,,,,,,,,
275,,pt2_memorable_rating,636029,Decatur,,51,,3,,,,,,,,,,,,,,,,,
null,,confidence_buffer,636133,confidence_buffer,,null,,,,,,,,,,,,,,,,,,,
2515.9000000059605,,recognition_phase,638651,Decatur,,52,,,,,new,1,0.8,,,,,,,,,,,,
null,,confidence_buffer,638754,confidence_buffer,,null,,,,,,,,,,,,,,,,,,,
null,,thebreak,639269,break,,null,,,,,,,,,,,,,,,,,,,
3670.7999999970198,,realistic_rating,642941,McKinney,,50,McKinney,2,,,,,,,,,,,,,,,,,
null,,confidence_buffer,643045,confidence_buffer,,null,,,,,,,,,,,,,,,,,,,
1666.7999999970198,,pt2_unique_rating,644714,McKinney,,51,,3,,,,,,,,,,,,,,,,,
null,,confidence_buffer,644822,confidence_buffer,,null,,,,,,,,,,,,,,,,,,,
454.70000000298023,,pt2_memorable_rating,645279,McKinney,,51,,3,,,,,,,,,,,,,,,,,
null,,confidence_buffer,645387,confidence_buffer,,null,,,,,,,,,,,,,,,,,,,
1853.9000000059605,,recognition_phase,647243,McKinney,,52,,,,,new,1,0.8181818181818182,,,,,,,,,,,,
null,,confidence_buffer,647352,confidence_buffer,,null,,,,,,,,,,,,,,,,,,,
null,,thebreak,647859,break,,null,,,,,,,,,,,,,,,,,,,
2302.5999999940395,,realistic_rating,650165,Youngstown,,50,Youngstown,2,,,,,,,,,,,,,,,,,
null,,confidence_buffer,650274,confidence_buffer,,null,,,,,,,,,,,,,,,,,,,
1640.5999999940395,,pt2_unique_rating,651917,Youngstown,,51,,3,,,,,,,,,,,,,,,,,
null,,confidence_buffer,652024,confidence_buffer,,null,,,,,,,,,,,,,,,,,,,
893.7000000029802,,pt2_memorable_rating,652920,Youngstown,,51,,3,,,,,,,,,,,,,,,,,
null,,confidence_buffer,653032,confidence_buffer,,null,,,,,,,,,,,,,,,,,,,
1914.5,,recognition_phase,654949,Youngstown,,52,,,,,new,1,0.8333333333333334,,,,,,,,,,,,
null,,confidence_buffer,655055,confidence_buffer,,null,,,,,,,,,,,,,,,,,,,
null,,thebreak,655569,break,,null,,,,,,,,,,,,,,,,,,,
4790.79999999702,,realistic_rating,660362,Cheyenne,,52,Cheyenne,4,,,,,,,,,,,,,,,,,
null,,confidence_buffer,660470,confidence_buffer,,null,,,,,,,,,,,,,,,,,,,
1617.4000000059605,,pt2_unique_rating,662089,Cheyenne,,51,,3,,,,,,,,,,,,,,,,,
null,,confidence_buffer,662198,confidence_buffer,,null,,,,,,,,,,,,,,,,,,,
1612.7000000029802,,pt2_memorable_rating,663813,Cheyenne,,51,,3,,,,,,,,,,,,,,,,,
null,,confidence_buffer,663925,confidence_buffer,,null,,,,,,,,,,,,,,,,,,,
2782.0999999940395,,recognition_phase,666709,Cheyenne,,50,,,,,old,1,0.8461538461538461,,,,,,,,,,,,
null,,confidence_buffer,666820,confidence_buffer,,null,,,,,,,,,,,,,,,,,,,
null,,thebreak,667326,break,,null,,,,,,,,,,,,,,,,,,,
2571.7999999970198,,realistic_rating,669901,Abilene,,50,Abilene,2,,,,,,,,,,,,,,,,,
null,,confidence_buffer,670004,confidence_buffer,,null,,,,,,,,,,,,,,,,,,,
974,,pt2_unique_rating,670980,Abilene,,51,,3,,,,,,,,,,,,,,,,,
null,,confidence_buffer,671089,confidence_buffer,,null,,,,,,,,,,,,,,,,,,,
1376.7000000029802,,pt2_memorable_rating,672468,Abilene,,51,,3,,,,,,,,,,,,,,,,,
null,,confidence_buffer,672572,confidence_buffer,,null,,,,,,,,,,,,,,,,,,,
2645.5,,recognition_phase,675220,Abilene,,52,,,,,new,1,0.8571428571428571,,,,,,,,,,,,
null,,confidence_buffer,675333,confidence_buffer,,null,,,,,,,,,,,,,,,,,,,
null,,thebreak,675846,break,,null,,,,,,,,,,,,,,,,,,,
5974.399999991059,,realistic_rating,681823,Boulder,,49,Boulder,1,,,,,,,,,,,,,,,,,
null,,confidence_buffer,681929,confidence_buffer,,null,,,,,,,,,,,,,,,,,,,
1643.8999999910593,,pt2_unique_rating,683576,Boulder,,51,,3,,,,,,,,,,,,,,,,,
null,,confidence_buffer,683693,confidence_buffer,,null,,,,,,,,,,,,,,,,,,,
1164.2999999970198,,probe_rating,684859,probe_rating,,49,,,1,1,,,,,,,,,,,,,,,
null,,confidence_buffer,684970,confidence_buffer,,null,,,,,,,,,,,,,,,,,,,
740.7999999970198,,pt2_memorable_rating,685713,Boulder,,51,,3,,,,,,,,,,,,,,,,,
null,,confidence_buffer,685817,confidence_buffer,,null,,,,,,,,,,,,,,,,,,,
1860,,recognition_phase,687680,Boulder,,52,,,,,new,1,0.8666666666666667,,,,,,,,,,,,
null,,confidence_buffer,687786,confidence_buffer,,null,,,,,,,,,,,,,,,,,,,
null,,thebreak,688300,break,,null,,,,,,,,,,,,,,,,,,,
4304.5,,realistic_rating,692607,Bozeman,,51,Bozeman,3,,,,,,,,,,,,,,,,,
null,,confidence_buffer,692717,confidence_buffer,,null,,,,,,,,,,,,,,,,,,,
2293.2000000029802,,pt2_unique_rating,695012,Bozeman,,51,,3,,,,,,,,,,,,,,,,,
null,,confidence_buffer,695124,confidence_buffer,,null,,,,,,,,,,,,,,,,,,,
1564.7000000029802,,pt2_memorable_rating,696691,Bozeman,,52,,4,,,,,,,,,,,,,,,,,
null,,confidence_buffer,696797,confidence_buffer,,null,,,,,,,,,,,,,,,,,,,
2738.5,,recognition_phase,699538,Bozeman,,49,,,,,old,1,0.875,,,,,,,,,,,,
null,,confidence_buffer,699647,confidence_buffer,,null,,,,,,,,,,,,,,,,,,,
null,,thebreak,700157,break,,null,,,,,,,,,,,,,,,,,,,
3115,,realistic_rating,703275,Burlington,,50,Burlington,2,,,,,,,,,,,,,,,,,
null,,confidence_buffer,703378,confidence_buffer,,null,,,,,,,,,,,,,,,,,,,
5612.699999988079,,pt2_unique_rating,708993,Burlington,,51,,3,,,,,,,,,,,,,,,,,
null,,confidence_buffer,709104,confidence_buffer,,null,,,,,,,,,,,,,,,,,,,
2557.5,,pt2_memorable_rating,711664,Burlington,,52,,4,,,,,,,,,,,,,,,,,
null,,confidence_buffer,711772,confidence_buffer,,null,,,,,,,,,,,,,,,,,,,
1869.0999999940395,,probe_rating,713643,probe_rating,,49,,,1,1,,,,,,,,,,,,,,,
null,,confidence_buffer,713750,confidence_buffer,,null,,,,,,,,,,,,,,,,,,,
1783,,recognition_phase,715536,Burlington,,52,,,,,new,1,0.8823529411764706,,,,,,,,,,,,
null,,confidence_buffer,715645,confidence_buffer,,null,,,,,,,,,,,,,,,,,,,
null,,thebreak,716150,break,,null,,,,,,,,,,,,,,,,,,,
4185.0999999940395,,realistic_rating,720338,Helena,,51,Helena,3,,,,,,,,,,,,,,,,,
null,,confidence_buffer,720442,confidence_buffer,,null,,,,,,,,,,,,,,,,,,,
34678.09999999404,,pt2_unique_rating,755121,Helena,,50,,2,,,,,,,,,,,,,,,,,
null,,confidence_buffer,755224,confidence_buffer,,null,,,,,,,,,,,,,,,,,,,
398.70000000298023,,pt2_memorable_rating,755625,Helena,,50,,2,,,,,,,,,,,,,,,,,
null,,confidence_buffer,755730,confidence_buffer,,null,,,,,,,,,,,,,,,,,,,
2333.8999999910593,,recognition_phase,758066,Helena,,49,,,,,old,1,0.8888888888888888,,,,,,,,,,,,
null,,confidence_buffer,758177,confidence_buffer,,null,,,,,,,,,,,,,,,,,,,
null,,thebreak,758681,break,,null,,,,,,,,,,,,,,,,,,,
3720,,realistic_rating,762403,Scottsdale,,53,Scottsdale,5,,,,,,,,,,,,,,,,,
null,,confidence_buffer,762510,confidence_buffer,,null,,,,,,,,,,,,,,,,,,,
3696.2999999970198,,pt2_unique_rating,766209,Scottsdale,,51,,3,,,,,,,,,,,,,,,,,
null,,confidence_buffer,766317,confidence_buffer,,null,,,,,,,,,,,,,,,,,,,
1257.7000000029802,,pt2_memorable_rating,767577,Scottsdale,,52,,4,,,,,,,,,,,,,,,,,
null,,confidence_buffer,767681,confidence_buffer,,null,,,,,,,,,,,,,,,,,,,
1710,,recognition_phase,769394,Scottsdale,,49,,,,,old,1,0.8947368421052632,,,,,,,,,,,,
null,,confidence_buffer,769508,confidence_buffer,,null,,,,,,,,,,,,,,,,,,,
null,,thebreak,770019,break,,null,,,,,,,,,,,,,,,,,,,
6720.800000011921,,realistic_rating,776742,Bellingham,,53,Bellingham,5,,,,,,,,,,,,,,,,,
null,,confidence_buffer,776846,confidence_buffer,,null,,,,,,,,,,,,,,,,,,,
3922.4000000059605,,pt2_unique_rating,780770,Bellingham,,52,,4,,,,,,,,,,,,,,,,,
null,,confidence_buffer,780890,confidence_buffer,,null,,,,,,,,,,,,,,,,,,,
1222.5,,pt2_memorable_rating,782114,Bellingham,,52,,4,,,,,,,,,,,,,,,,,
null,,confidence_buffer,782222,confidence_buffer,,null,,,,,,,,,,,,,,,,,,,
3586,,recognition_phase,785811,Bellingham,,50,,,,,old,1,0.9,,,,,,,,,,,,
null,,confidence_buffer,785914,confidence_buffer,,null,,,,,,,,,,,,,,,,,,,
null,,thebreak,786422,break,,null,,,,,,,,,,,,,,,,,,,
10425.40000000596,,realistic_rating,796850,Rock Springs,,51,Rock Springs,3,,,,,,,,,,,,,,,,,
null,,confidence_buffer,796955,confidence_buffer,,null,,,,,,,,,,,,,,,,,,,
3044.4000000059605,,pt2_unique_rating,800001,Rock Springs,,51,,3,,,,,,,,,,,,,,,,,
null,,confidence_buffer,800113,confidence_buffer,,null,,,,,,,,,,,,,,,,,,,
2858.2000000029802,,pt2_memorable_rating,802973,Rock Springs,,51,,3,,,,,,,,,,,,,,,,,
null,,confidence_buffer,803085,confidence_buffer,,null,,,,,,,,,,,,,,,,,,,
2928.5999999940395,,recognition_phase,806017,Rock Springs,,52,,,,,new,1,0.9047619047619048,,,,,,,,,,,,
null,,confidence_buffer,806130,confidence_buffer,,null,,,,,,,,,,,,,,,,,,,
null,,thebreak,806637,break,,null,,,,,,,,,,,,,,,,,,,
14955.60000000894,,realistic_rating,821595,Palo Alto,,53,Palo Alto,5,,,,,,,,,,,,,,,,,
null,,confidence_buffer,821711,confidence_buffer,,null,,,,,,,,,,,,,,,,,,,
1239.7999999970198,,pt2_unique_rating,822953,Palo Alto,,52,,4,,,,,,,,,,,,,,,,,
null,,confidence_buffer,823056,confidence_buffer,,null,,,,,,,,,,,,,,,,,,,
1083.2000000029802,,pt2_memorable_rating,824142,Palo Alto,,52,,4,,,,,,,,,,,,,,,,,
null,,confidence_buffer,824253,confidence_buffer,,null,,,,,,,,,,,,,,,,,,,
1369.0999999940395,,recognition_phase,825624,Palo Alto,,49,,,,,old,1,0.9090909090909091,,,,,,,,,,,,
null,,confidence_buffer,825731,confidence_buffer,,null,,,,,,,,,,,,,,,,,,,
null,,thebreak,826236,break,,null,,,,,,,,,,,,,,,,,,,
5435.600000008941,,realistic_rating,831674,Ithaca,,52,Ithaca,4,,,,,,,,,,,,,,,,,
null,,confidence_buffer,831780,confidence_buffer,,null,,,,,,,,,,,,,,,,,,,
939.2999999970198,,pt2_unique_rating,832722,Ithaca,,52,,4,,,,,,,,,,,,,,,,,
null,,confidence_buffer,832830,confidence_buffer,,null,,,,,,,,,,,,,,,,,,,
2057.0999999940395,,pt2_memorable_rating,834889,Ithaca,,53,,5,,,,,,,,,,,,,,,,,
null,,confidence_buffer,834999,confidence_buffer,,null,,,,,,,,,,,,,,,,,,,
1715.7000000029802,,recognition_phase,836717,Ithaca,,49,,,,,old,1,0.9130434782608695,,,,,,,,,,,,
null,,confidence_buffer,836819,confidence_buffer,,null,,,,,,,,,,,,,,,,,,,
null,,thebreak,837327,break,,null,,,,,,,,,,,,,,,,,,,
6225.5999999940395,,realistic_rating,843555,Terre Haute,,52,Terre Haute,4,,,,,,,,,,,,,,,,,
null,,confidence_buffer,843658,confidence_buffer,,null,,,,,,,,,,,,,,,,,,,
822,,probe_rating,844483,probe_rating,,52,,,4,1,,,,,,,,,,,,,,,
null,,confidence_buffer,844598,confidence_buffer,,null,,,,,,,,,,,,,,,,,,,
5168.5,,pt2_unique_rating,849768,Terre Haute,,52,,4,,,,,,,,,,,,,,,,,
null,,confidence_buffer,849876,confidence_buffer,,null,,,,,,,,,,,,,,,,,,,
733.5,,pt2_memorable_rating,850612,Terre Haute,,49,,1,,,,,,,,,,,,,,,,,
null,,confidence_buffer,850719,confidence_buffer,,null,,,,,,,,,,,,,,,,,,,
2767.4000000059605,,recognition_phase,853489,Terre Haute,,49,,,,,old,1,0.9166666666666666,,,,,,,,,,,,
null,,confidence_buffer,853602,confidence_buffer,,null,,,,,,,,,,,,,,,,,,,
null,,thebreak,854105,break,,null,,,,,,,,,,,,,,,,,,,
56258.40000000596,,realistic_rating,910366,Stamford,,52,Stamford,4,,,,,,,,,,,,,,,,,
null,,confidence_buffer,910475,confidence_buffer,,null,,,,,,,,,,,,,,,,,,,
1152.7000000029802,,pt2_unique_rating,911630,Stamford,,52,,4,,,,,,,,,,,,,,,,,
null,,confidence_buffer,911736,confidence_buffer,,null,,,,,,,,,,,,,,,,,,,
1108.7999999970198,,probe_rating,912847,probe_rating,,51,,,3,1,,,,,,,,,,,,,,,
null,,confidence_buffer,912951,confidence_buffer,,null,,,,,,,,,,,,,,,,,,,
3510.7999999970198,,pt2_memorable_rating,916464,Stamford,,53,,5,,,,,,,,,,,,,,,,,
null,,confidence_buffer,916575,confidence_buffer,,null,,,,,,,,,,,,,,,,,,,
1433.9000000059605,,recognition_phase,918011,Stamford,,49,,,,,old,1,0.92,,,,,,,,,,,,
null,,confidence_buffer,918115,confidence_buffer,,null,,,,,,,,,,,,,,,,,,,
null,,thebreak,918621,break,,null,,,,,,,,,,,,,,,,,,,
2200.9000000059605,,realistic_rating,920824,Las Cruces,,51,Las Cruces,3,,,,,,,,,,,,,,,,,
null,,confidence_buffer,920938,confidence_buffer,,null,,,,,,,,,,,,,,,,,,,
2531,,pt2_unique_rating,923471,Las Cruces,,52,,4,,,,,,,,,,,,,,,,,
null,,confidence_buffer,923576,confidence_buffer,,null,,,,,,,,,,,,,,,,,,,
1541,,pt2_memorable_rating,925119,Las Cruces,,52,,4,,,,,,,,,,,,,,,,,
null,,confidence_buffer,925228,confidence_buffer,,null,,,,,,,,,,,,,,,,,,,
2260.7000000029802,,recognition_phase,927491,Las Cruces,,52,,,,,new,1,0.9230769230769231,,,,,,,,,,,,
null,,confidence_buffer,927598,confidence_buffer,,null,,,,,,,,,,,,,,,,,,,
null,,thebreak,928103,break,,null,,,,,,,,,,,,,,,,,,,
15633,,realistic_rating,943738,Carson City,,53,Carson City,5,,,,,,,,,,,,,,,,,
null,,confidence_buffer,943848,confidence_buffer,,null,,,,,,,,,,,,,,,,,,,
1805.3999999910593,,pt2_unique_rating,945656,Carson City,,52,,4,,,,,,,,,,,,,,,,,
null,,confidence_buffer,945758,confidence_buffer,,null,,,,,,,,,,,,,,,,,,,
1313.800000011921,,pt2_memorable_rating,947074,Carson City,,53,,5,,,,,,,,,,,,,,,,,
null,,confidence_buffer,947181,confidence_buffer,,null,,,,,,,,,,,,,,,,,,,
1693.0999999940395,,recognition_phase,948877,Carson City,,49,,,,,old,1,0.9259259259259259,,,,,,,,,,,,
null,,confidence_buffer,948981,confidence_buffer,,null,,,,,,,,,,,,,,,,,,,
null,,thebreak,949495,break,,null,,,,,,,,,,,,,,,,,,,
3660.2000000029802,,realistic_rating,953158,Altoona,,50,Altoona,2,,,,,,,,,,,,,,,,,
null,,confidence_buffer,953266,confidence_buffer,,null,,,,,,,,,,,,,,,,,,,
1613.5,,pt2_unique_rating,954881,Altoona,,51,,3,,,,,,,,,,,,,,,,,
null,,confidence_buffer,954985,confidence_buffer,,null,,,,,,,,,,,,,,,,,,,
402.59999999403954,,pt2_memorable_rating,955390,Altoona,,51,,3,,,,,,,,,,,,,,,,,
null,,confidence_buffer,955500,confidence_buffer,,null,,,,,,,,,,,,,,,,,,,
1221.5,,probe_rating,956724,probe_rating,,50,,,2,1,,,,,,,,,,,,,,,
null,,confidence_buffer,956829,confidence_buffer,,null,,,,,,,,,,,,,,,,,,,
1851.1000000089407,,recognition_phase,958683,Altoona,,52,,,,,new,0,0.8928571428571429,,,,,,,,,,,,
null,,confidence_buffer,958785,confidence_buffer,,null,,,,,,,,,,,,,,,,,,,
null,,thebreak,959298,break,,null,,,,,,,,,,,,,,,,,,,
16184.10000000894,,realistic_rating,975484,Topeka,,51,Topeka,3,,,,,,,,,,,,,,,,,
null,,confidence_buffer,975588,confidence_buffer,,null,,,,,,,,,,,,,,,,,,,
1035,,pt2_unique_rating,976626,Topeka,,52,,4,,,,,,,,,,,,,,,,,
null,,confidence_buffer,976737,confidence_buffer,,null,,,,,,,,,,,,,,,,,,,
451.70000000298023,,pt2_memorable_rating,977191,Topeka,,52,,4,,,,,,,,,,,,,,,,,
null,,confidence_buffer,977294,confidence_buffer,,null,,,,,,,,,,,,,,,,,,,
3874.3999999910593,,recognition_phase,981170,Topeka,,52,,,,,new,0,0.8620689655172413,,,,,,,,,,,,
null,,confidence_buffer,981278,confidence_buffer,,null,,,,,,,,,,,,,,,,,,,
null,,thebreak,981791,break,,null,,,,,,,,,,,,,,,,,,,
7121.5,,realistic_rating,988915,Concord,,53,Concord,5,,,,,,,,,,,,,,,,,
null,,confidence_buffer,989019,confidence_buffer,,null,,,,,,,,,,,,,,,,,,,
1824.7999999970198,,pt2_unique_rating,990847,Concord,,51,,3,,,,,,,,,,,,,,,,,
null,,confidence_buffer,990958,confidence_buffer,,null,,,,,,,,,,,,,,,,,,,
1674.300000011921,,pt2_memorable_rating,992635,Concord,,52,,4,,,,,,,,,,,,,,,,,
null,,confidence_buffer,992744,confidence_buffer,,null,,,,,,,,,,,,,,,,,,,
4094.5,,recognition_phase,996841,Concord,,52,,,,,new,1,0.8666666666666667,,,,,,,,,,,,
null,,confidence_buffer,996947,confidence_buffer,,null,,,,,,,,,,,,,,,,,,,
null,,thebreak,997459,break,,null,,,,,,,,,,,,,,,,,,,
7717.20000000298,,realistic_rating,1005178,Berkeley,,53,Berkeley,5,,,,,,,,,,,,,,,,,
null,,confidence_buffer,1005286,confidence_buffer,,null,,,,,,,,,,,,,,,,,,,
1357.6000000089407,,pt2_unique_rating,1006647,Berkeley,,52,,4,,,,,,,,,,,,,,,,,
null,,confidence_buffer,1006750,confidence_buffer,,null,,,,,,,,,,,,,,,,,,,
1162.7000000029802,,pt2_memorable_rating,1007915,Berkeley,,52,,4,,,,,,,,,,,,,,,,,
null,,confidence_buffer,1008021,confidence_buffer,,null,,,,,,,,,,,,,,,,,,,
3513.2000000029802,,recognition_phase,1011537,Berkeley,,52,,,,,new,1,0.8709677419354839,,,,,,,,,,,,
null,,confidence_buffer,1011642,confidence_buffer,,null,,,,,,,,,,,,,,,,,,,
null,,thebreak,1012143,break,,null,,,,,,,,,,,,,,,,,,,
11911.70000000298,,realistic_rating,1024058,Reno,,53,Reno,5,,,,,,,,,,,,,,,,,
null,,confidence_buffer,1024164,confidence_buffer,,null,,,,,,,,,,,,,,,,,,,
1669.4000000059605,,pt2_unique_rating,1025836,Reno,,52,,4,,,,,,,,,,,,,,,,,
null,,confidence_buffer,1025941,confidence_buffer,,null,,,,,,,,,,,,,,,,,,,
776.0999999940395,,pt2_memorable_rating,1026720,Reno,,52,,4,,,,,,,,,,,,,,,,,
null,,confidence_buffer,1026837,confidence_buffer,,null,,,,,,,,,,,,,,,,,,,
1527.5,,recognition_phase,1028367,Reno,,49,,,,,old,1,0.875,,,,,,,,,,,,
null,,confidence_buffer,1028478,confidence_buffer,,null,,,,,,,,,,,,,,,,,,,
null,,thebreak,1028991,break,,null,,,,,,,,,,,,,,,,,,,
3680,,realistic_rating,1032674,Cambridge,,53,Cambridge,5,,,,,,,,,,,,,,,,,
null,,confidence_buffer,1032782,confidence_buffer,,null,,,,,,,,,,,,,,,,,,,
973.7999999970198,,pt2_unique_rating,1033758,Cambridge,,52,,4,,,,,,,,,,,,,,,,,
null,,confidence_buffer,1033868,confidence_buffer,,null,,,,,,,,,,,,,,,,,,,
1040.8999999910593,,pt2_memorable_rating,1034912,Cambridge,,52,,4,,,,,,,,,,,,,,,,,
null,,confidence_buffer,1035017,confidence_buffer,,null,,,,,,,,,,,,,,,,,,,
1854.5999999940395,,probe_rating,1036874,probe_rating,,53,,,5,1,,,,,,,,,,,,,,,
null,,confidence_buffer,1036982,confidence_buffer,,null,,,,,,,,,,,,,,,,,,,
3508.8999999910593,,recognition_phase,1040495,Cambridge,,51,,,,,new,1,0.8787878787878788,,,,,,,,,,,,
null,,confidence_buffer,1040612,confidence_buffer,,null,,,,,,,,,,,,,,,,,,,
null,,thebreak,1041128,break,,null,,,,,,,,,,,,,,,,,,,
6609.399999991059,,realistic_rating,1047740,Pasadena,,53,Pasadena,5,,,,,,,,,,,,,,,,,
null,,confidence_buffer,1047850,confidence_buffer,,null,,,,,,,,,,,,,,,,,,,
2423.6000000089407,,pt2_unique_rating,1050276,Pasadena,,53,,5,,,,,,,,,,,,,,,,,
null,,confidence_buffer,1050381,confidence_buffer,,null,,,,,,,,,,,,,,,,,,,
1370.5,,probe_rating,1051754,probe_rating,,49,,,1,1,,,,,,,,,,,,,,,
null,,confidence_buffer,1051858,confidence_buffer,,null,,,,,,,,,,,,,,,,,,,
2260.0999999940395,,pt2_memorable_rating,1054121,Pasadena,,53,,5,,,,,,,,,,,,,,,,,
null,,confidence_buffer,1054225,confidence_buffer,,null,,,,,,,,,,,,,,,,,,,
3435,,recognition_phase,1057662,Pasadena,,50,,,,,old,1,0.8823529411764706,,,,,,,,,,,,
null,,confidence_buffer,1057780,confidence_buffer,,null,,,,,,,,,,,,,,,,,,,
null,,thebreak,1058294,break,,null,,,,,,,,,,,,,,,,,,,
3048.7000000029802,,realistic_rating,1061345,Dubuque,,50,Dubuque,2,,,,,,,,,,,,,,,,,
null,,confidence_buffer,1061455,confidence_buffer,,null,,,,,,,,,,,,,,,,,,,
11109.90000000596,,pt2_unique_rating,1072568,Dubuque,,53,,5,,,,,,,,,,,,,,,,,
null,,confidence_buffer,1072677,confidence_buffer,,null,,,,,,,,,,,,,,,,,,,
2275.3999999910593,,pt2_memorable_rating,1074954,Dubuque,,51,,3,,,,,,,,,,,,,,,,,
null,,confidence_buffer,1075068,confidence_buffer,,null,,,,,,,,,,,,,,,,,,,
4433.70000000298,,recognition_phase,1079505,Dubuque,,52,,,,,new,1,0.8857142857142857,,,,,,,,,,,,
null,,confidence_buffer,1079618,confidence_buffer,,null,,,,,,,,,,,,,,,,,,,
null,,thebreak,1080123,break,,null,,,,,,,,,,,,,,,,,,,
10963.90000000596,,realistic_rating,1091089,Marquette,,50,Marquette,2,,,,,,,,,,,,,,,,,
null,,confidence_buffer,1091199,confidence_buffer,,null,,,,,,,,,,,,,,,,,,,
2579.1000000089407,,pt2_unique_rating,1093780,Marquette,,53,,5,,,,,,,,,,,,,,,,,
null,,confidence_buffer,1093886,confidence_buffer,,null,,,,,,,,,,,,,,,,,,,
2149.800000011921,,pt2_memorable_rating,1096037,Marquette,,52,,4,,,,,,,,,,,,,,,,,
null,,confidence_buffer,1096144,confidence_buffer,,null,,,,,,,,,,,,,,,,,,,
2373.6000000089407,,recognition_phase,1098521,Marquette,,52,,,,,new,0,0.8611111111111112,,,,,,,,,,,,
null,,confidence_buffer,1098628,confidence_buffer,,null,,,,,,,,,,,,,,,,,,,
null,,thebreak,1099141,break,,null,,,,,,,,,,,,,,,,,,,
3728.3999999910593,,realistic_rating,1102872,Norfolk,,53,Norfolk,5,,,,,,,,,,,,,,,,,
null,,confidence_buffer,1102986,confidence_buffer,,null,,,,,,,,,,,,,,,,,,,
1202.1000000089407,,pt2_unique_rating,1104191,Norfolk,,52,,4,,,,,,,,,,,,,,,,,
null,,confidence_buffer,1104296,confidence_buffer,,null,,,,,,,,,,,,,,,,,,,
506.59999999403954,,pt2_memorable_rating,1104805,Norfolk,,52,,4,,,,,,,,,,,,,,,,,
null,,confidence_buffer,1104914,confidence_buffer,,null,,,,,,,,,,,,,,,,,,,
2360.7999999970198,,recognition_phase,1107277,Norfolk,,52,,,,,new,1,0.8648648648648649,,,,,,,,,,,,
null,,confidence_buffer,1107380,confidence_buffer,,null,,,,,,,,,,,,,,,,,,,
null,,thebreak,1107890,break,,null,,,,,,,,,,,,,,,,,,,
2246.9000000059605,,realistic_rating,1110140,Tallahassee,,53,Tallahassee,5,,,,,,,,,,,,,,,,,
null,,confidence_buffer,1110244,confidence_buffer,,null,,,,,,,,,,,,,,,,,,,
3025.199999988079,,pt2_unique_rating,1113272,Tallahassee,,51,,3,,,,,,,,,,,,,,,,,
null,,confidence_buffer,1113377,confidence_buffer,,null,,,,,,,,,,,,,,,,,,,
1541.5999999940395,,pt2_memorable_rating,1114921,Tallahassee,,53,,5,,,,,,,,,,,,,,,,,
null,,confidence_buffer,1115027,confidence_buffer,,null,,,,,,,,,,,,,,,,,,,
2337.8999999910593,,recognition_phase,1117367,Tallahassee,,52,,,,,new,1,0.868421052631579,,,,,,,,,,,,
null,,confidence_buffer,1117480,confidence_buffer,,null,,,,,,,,,,,,,,,,,,,
null,,thebreak,1117983,break,,null,,,,,,,,,,,,,,,,,,,
3618.9000000059605,,realistic_rating,1121604,Peoria,,52,Peoria,4,,,,,,,,,,,,,,,,,
null,,confidence_buffer,1121711,confidence_buffer,,null,,,,,,,,,,,,,,,,,,,
2418.4000000059605,,pt2_unique_rating,1124131,Peoria,,53,,5,,,,,,,,,,,,,,,,,
null,,confidence_buffer,1124242,confidence_buffer,,null,,,,,,,,,,,,,,,,,,,
1431.8999999910593,,pt2_memorable_rating,1125676,Peoria,,53,,5,,,,,,,,,,,,,,,,,
null,,confidence_buffer,1125779,confidence_buffer,,null,,,,,,,,,,,,,,,,,,,
1673.2000000029802,,recognition_phase,1127454,Peoria,,49,,,,,old,1,0.8717948717948718,,,,,,,,,,,,
null,,confidence_buffer,1127558,confidence_buffer,,null,,,,,,,,,,,,,,,,,,,
null,,thebreak,1128065,break,,null,,,,,,,,,,,,,,,,,,,
5229.70000000298,,realistic_rating,1133297,Champaign,,49,Champaign,1,,,,,,,,,,,,,,,,,
null,,confidence_buffer,1133400,confidence_buffer,,null,,,,,,,,,,,,,,,,,,,
3490.1000000089407,,pt2_unique_rating,1136892,Champaign,,51,,3,,,,,,,,,,,,,,,,,
null,,confidence_buffer,1137007,confidence_buffer,,null,,,,,,,,,,,,,,,,,,,
2226.7000000029802,,pt2_memorable_rating,1139236,Champaign,,50,,2,,,,,,,,,,,,,,,,,
null,,confidence_buffer,1139342,confidence_buffer,,null,,,,,,,,,,,,,,,,,,,
2559.2999999970198,,recognition_phase,1141904,Champaign,,52,,,,,new,1,0.875,,,,,,,,,,,,
null,,confidence_buffer,1142019,confidence_buffer,,null,,,,,,,,,,,,,,,,,,,
null,,thebreak,1142524,break,,null,,,,,,,,,,,,,,,,,,,
6136.20000000298,,realistic_rating,1148662,Annapolis,,51,Annapolis,3,,,,,,,,,,,,,,,,,
null,,confidence_buffer,1148772,confidence_buffer,,null,,,,,,,,,,,,,,,,,,,
1439.699999988079,,probe_rating,1150214,probe_rating,,51,,,3,1,,,,,,,,,,,,,,,
null,,confidence_buffer,1150320,confidence_buffer,,null,,,,,,,,,,,,,,,,,,,
4818.0999999940395,,pt2_unique_rating,1155140,Annapolis,,51,,3,,,,,,,,,,,,,,,,,
null,,confidence_buffer,1155243,confidence_buffer,,null,,,,,,,,,,,,,,,,,,,
3860.7000000029802,,pt2_memorable_rating,1159106,Annapolis,,50,,2,,,,,,,,,,,,,,,,,
null,,confidence_buffer,1159211,confidence_buffer,,null,,,,,,,,,,,,,,,,,,,
2134,,recognition_phase,1161349,Annapolis,,52,,,,,new,1,0.8780487804878049,,,,,,,,,,,,
null,,confidence_buffer,1161459,confidence_buffer,,null,,,,,,,,,,,,,,,,,,,
null,,thebreak,1161962,break,,null,,,,,,,,,,,,,,,,,,,
4242.899999991059,,realistic_rating,1166208,Montpelier,,50,Montpelier,2,,,,,,,,,,,,,,,,,
null,,confidence_buffer,1166319,confidence_buffer,,null,,,,,,,,,,,,,,,,,,,
2624.2000000029802,,pt2_unique_rating,1168946,Montpelier,,52,,4,,,,,,,,,,,,,,,,,
null,,confidence_buffer,1169055,confidence_buffer,,null,,,,,,,,,,,,,,,,,,,
1966.2000000029802,,pt2_memorable_rating,1171023,Montpelier,,50,,2,,,,,,,,,,,,,,,,,
null,,confidence_buffer,1171141,confidence_buffer,,null,,,,,,,,,,,,,,,,,,,
5605.199999988079,,recognition_phase,1176749,Montpelier,,51,,,,,new,0,0.8571428571428571,,,,,,,,,,,,
null,,confidence_buffer,1176854,confidence_buffer,,null,,,,,,,,,,,,,,,,,,,
null,,thebreak,1177357,break,,null,,,,,,,,,,,,,,,,,,,
4263.100000008941,,realistic_rating,1181623,Boise,,52,Boise,4,,,,,,,,,,,,,,,,,
null,,confidence_buffer,1181734,confidence_buffer,,null,,,,,,,,,,,,,,,,,,,
3053.0999999940395,,pt2_unique_rating,1184789,Boise,,53,,5,,,,,,,,,,,,,,,,,
null,,confidence_buffer,1184900,confidence_buffer,,null,,,,,,,,,,,,,,,,,,,
2370.1000000089407,,pt2_memorable_rating,1187272,Boise,,51,,3,,,,,,,,,,,,,,,,,
null,,confidence_buffer,1187383,confidence_buffer,,null,,,,,,,,,,,,,,,,,,,
4357.79999999702,,recognition_phase,1191744,Boise,,52,,,,,new,1,0.8604651162790697,,,,,,,,,,,,
null,,confidence_buffer,1191852,confidence_buffer,,null,,,,,,,,,,,,,,,,,,,
null,,thebreak,1192358,break,,null,,,,,,,,,,,,,,,,,,,
3176.9000000059605,,realistic_rating,1195538,Santa Monica,,53,Santa Monica,5,,,,,,,,,,,,,,,,,
null,,confidence_buffer,1195649,confidence_buffer,,null,,,,,,,,,,,,,,,,,,,
36.099999994039536,,pt2_unique_rating,1195687,Santa Monica,,53,,5,,,,,,,,,,,,,,,,,
null,,confidence_buffer,1195801,confidence_buffer,,null,,,,,,,,,,,,,,,,,,,
2131.5,,pt2_memorable_rating,1197935,Santa Monica,,53,,5,,,,,,,,,,,,,,,,,
null,,confidence_buffer,1198043,confidence_buffer,,null,,,,,,,,,,,,,,,,,,,
2990.800000011921,,recognition_phase,1201037,Santa Monica,,49,,,,,old,1,0.8636363636363636,,,,,,,,,,,,
null,,confidence_buffer,1201147,confidence_buffer,,null,,,,,,,,,,,,,,,,,,,
null,,thebreak,1201663,break,,null,,,,,,,,,,,,,,,,,,,
2468.7999999970198,,realistic_rating,1204134,Dover,,53,Dover,5,,,,,,,,,,,,,,,,,
null,,confidence_buffer,1204238,confidence_buffer,,null,,,,,,,,,,,,,,,,,,,
1796.7000000029802,,pt2_unique_rating,1206037,Dover,,52,,4,,,,,,,,,,,,,,,,,
null,,confidence_buffer,1206141,confidence_buffer,,null,,,,,,,,,,,,,,,,,,,
1746.5,,pt2_memorable_rating,1207890,Dover,,53,,5,,,,,,,,,,,,,,,,,
null,,confidence_buffer,1207994,confidence_buffer,,null,,,,,,,,,,,,,,,,,,,
1815.7000000029802,,recognition_phase,1209813,Dover,,49,,,,,old,1,0.8666666666666667,,,,,,,,,,,,
null,,confidence_buffer,1209920,confidence_buffer,,null,,,,,,,,,,,,,,,,,,,
null,,thebreak,1210427,break,,null,,,,,,,,,,,,,,,,,,,
4241,,realistic_rating,1214670,Pueblo,,52,Pueblo,4,,,,,,,,,,,,,,,,,
null,,confidence_buffer,1214775,confidence_buffer,,null,,,,,,,,,,,,,,,,,,,
2103.4000000059605,,pt2_unique_rating,1216881,Pueblo,,50,,2,,,,,,,,,,,,,,,,,
null,,confidence_buffer,1216984,confidence_buffer,,null,,,,,,,,,,,,,,,,,,,
2336.7999999970198,,pt2_memorable_rating,1219324,Pueblo,,51,,3,,,,,,,,,,,,,,,,,
null,,confidence_buffer,1219433,confidence_buffer,,null,,,,,,,,,,,,,,,,,,,
1964.699999988079,,recognition_phase,1221401,Pueblo,,50,,,,,old,1,0.8695652173913043,,,,,,,,,,,,
null,,confidence_buffer,1221519,confidence_buffer,,null,,,,,,,,,,,,,,,,,,,
null,,thebreak,1222025,break,,null,,,,,,,,,,,,,,,,,,,
3414.5999999940395,,realistic_rating,1225442,New Haven,,53,New Haven,5,,,,,,,,,,,,,,,,,
null,,confidence_buffer,1225549,confidence_buffer,,null,,,,,,,,,,,,,,,,,,,
31926.29999999702,,pt2_unique_rating,1257480,New Haven,,52,,4,,,,,,,,,,,,,,,,,
null,,confidence_buffer,1257590,confidence_buffer,,null,,,,,,,,,,,,,,,,,,,
1842.7999999970198,,pt2_memorable_rating,1259435,New Haven,,53,,5,,,,,,,,,,,,,,,,,
null,,confidence_buffer,1259543,confidence_buffer,,null,,,,,,,,,,,,,,,,,,,
1379.1000000089407,,recognition_phase,1260923,New Haven,,49,,,,,old,1,0.8723404255319149,,,,,,,,,,,,
null,,confidence_buffer,1261032,confidence_buffer,,null,,,,,,,,,,,,,,,,,,,
null,,thebreak,1261538,break,,null,,,,,,,,,,,,,,,,,,,
8124.29999999702,,realistic_rating,1269664,Toledo,,53,Toledo,5,,,,,,,,,,,,,,,,,
null,,confidence_buffer,1269773,confidence_buffer,,null,,,,,,,,,,,,,,,,,,,
1071.7000000029802,,pt2_unique_rating,1270848,Toledo,,52,,4,,,,,,,,,,,,,,,,,
null,,confidence_buffer,1270957,confidence_buffer,,null,,,,,,,,,,,,,,,,,,,
1486.5,,pt2_memorable_rating,1272446,Toledo,,53,,5,,,,,,,,,,,,,,,,,
null,,confidence_buffer,1272549,confidence_buffer,,null,,,,,,,,,,,,,,,,,,,
1409.2000000029802,,recognition_phase,1273960,Toledo,,49,,,,,old,1,0.875,,,,,,,,,,,,
null,,confidence_buffer,1274066,confidence_buffer,,null,,,,,,,,,,,,,,,,,,,
null,,thebreak,1274572,break,,null,,,,,,,,,,,,,,,,,,,
3652.7000000029802,,realistic_rating,1278227,Fort Collins,,53,Fort Collins,5,,,,,,,,,,,,,,,,,
null,,confidence_buffer,1278345,confidence_buffer,,null,,,,,,,,,,,,,,,,,,,
1580,,pt2_unique_rating,1279927,Fort Collins,,51,,3,,,,,,,,,,,,,,,,,
null,,confidence_buffer,1280034,confidence_buffer,,null,,,,,,,,,,,,,,,,,,,
1325.0999999940395,,probe_rating,1281362,probe_rating,,49,,,1,1,,,,,,,,,,,,,,,
null,,confidence_buffer,1281470,confidence_buffer,,null,,,,,,,,,,,,,,,,,,,
6862.70000000298,,pt2_memorable_rating,1288335,Fort Collins,,51,,3,,,,,,,,,,,,,,,,,
null,,confidence_buffer,1288445,confidence_buffer,,null,,,,,,,,,,,,,,,,,,,
2050.300000011921,,recognition_phase,1290498,Fort Collins,,51,,,,,new,1,0.8775510204081632,,,,,,,,,,,,
null,,confidence_buffer,1290601,confidence_buffer,,null,,,,,,,,,,,,,,,,,,,
null,,thebreak,1291117,break,,null,,,,,,,,,,,,,,,,,,,
2194,,realistic_rating,1293313,Athens,,53,Athens,5,,,,,,,,,,,,,,,,,
null,,confidence_buffer,1293422,confidence_buffer,,null,,,,,,,,,,,,,,,,,,,
3550.699999988079,,pt2_unique_rating,1296976,Athens,,52,,4,,,,,,,,,,,,,,,,,
null,,confidence_buffer,1297087,confidence_buffer,,null,,,,,,,,,,,,,,,,,,,
1238.8999999910593,,pt2_memorable_rating,1298328,Athens,,52,,4,,,,,,,,,,,,,,,,,
null,,confidence_buffer,1298437,confidence_buffer,,null,,,,,,,,,,,,,,,,,,,
1361.2999999970198,,probe_rating,1299800,probe_rating,,49,,,1,1,,,,,,,,,,,,,,,
null,,confidence_buffer,1299904,confidence_buffer,,null,,,,,,,,,,,,,,,,,,,
3543.0999999940395,,recognition_phase,1303449,Athens,,51,,,,,new,1,0.88,,,,,,,,,,,,
null,,confidence_buffer,1303557,confidence_buffer,,null,,,,,,,,,,,,,,,,,,,
null,,thebreak,1304062,break,,null,,,,,,,,,,,,,,,,,,,
,,survey,1972784,survey-questions,,,,,,,,,,none,high,No; I was fully focused on this task.,I just thought back to the ratings I gave after I saw each city and if I did not remember rating one it must have been new.,Have I seen or heard of the place before? was my thought process for this question.,Would I remember this place name even after study ends? was my thought process for this question.,Have I heard something similar to this like a name or is it something I never really heard before? was my thought process for this question.,Did the city name sound like something that already exists in the real world? was my thought process for this question.,No; I have never participated in a study like this one before.,No additional feedback.,,
12858.5,,thank_you,1985724,all_done,,32,,,,,,,,,,,,,,,,,,4,1
