rt,responses,trial_type,time_elapsed,stimulus,button_pressed,key_press,name_trial,rating,probe,probe_accuracy,response,correct,accuracy,problems,smooth,distraction,strategies,familiar,memorable,unique,realistic,similar,comments
8355.100000000035,{worker_id:66077f409f9052bc169c56de},id_enter,8357,,,,,,,,,,,,,,,,,,,,
2008.5999999999767,,fullscreen,10369,fullscreen,0,,,,,,,,,,,,,,,,,,
4014.7000000000116,,intro_0,14387,instruct,,32,,,,,,,,,,,,,,,,,
5407.400000000023,,intro_1,19796,instruct,,32,,,,,,,,,,,,,,,,,
2802.399999999965,,intro_2,22599,instruct,,32,,,,,,,,,,,,,,,,,
null,,instruct_dir_4,24101,instruct,,null,,,,,,,,,,,,,,,,,
null,,thebreak,24603,break,,null,,,,,,,,,,,,,,,,,
5001.400000000023,,familiar_rating,29605,Concord,,53,Concord,5,,,,,,,,,,,,,,,
null,,confidence_buffer,29707,confidence_buffer,,null,,,,,,,,,,,,,,,,,
4744.900000000023,,unique_rating,34453,Concord,,50,,2,,,,,,,,,,,,,,,
null,,confidence_buffer,34555,confidence_buffer,,null,,,,,,,,,,,,,,,,,
4795.599999999977,,memorable_rating,39352,Concord,,52,,4,,,,,,,,,,,,,,,
null,,confidence_buffer,39453,confidence_buffer,,null,,,,,,,,,,,,,,,,,
null,,thebreak,39954,break,,null,,,,,,,,,,,,,,,,,
4363.100000000035,,familiar_rating,44318,Burlington,,50,Burlington,2,,,,,,,,,,,,,,,
null,,confidence_buffer,44420,confidence_buffer,,null,,,,,,,,,,,,,,,,,
2583.2999999999884,,unique_rating,47004,Burlington,,52,,4,,,,,,,,,,,,,,,
null,,confidence_buffer,47105,confidence_buffer,,null,,,,,,,,,,,,,,,,,
3630.8000000000466,,memorable_rating,50737,Burlington,,51,,3,,,,,,,,,,,,,,,
null,,confidence_buffer,50839,confidence_buffer,,null,,,,,,,,,,,,,,,,,
null,,thebreak,51339,break,,null,,,,,,,,,,,,,,,,,
2953.3000000000466,,familiar_rating,54293,Hagerstown,,49,Hagerstown,1,,,,,,,,,,,,,,,
null,,confidence_buffer,54395,confidence_buffer,,null,,,,,,,,,,,,,,,,,
2321.7000000000116,,unique_rating,56718,Hagerstown,,53,,5,,,,,,,,,,,,,,,
null,,confidence_buffer,56820,confidence_buffer,,null,,,,,,,,,,,,,,,,,
2679,,memorable_rating,59499,Hagerstown,,50,,2,,,,,,,,,,,,,,,
null,,confidence_buffer,59602,confidence_buffer,,null,,,,,,,,,,,,,,,,,
null,,thebreak,60103,break,,null,,,,,,,,,,,,,,,,,
4119.099999999977,,familiar_rating,64223,Ann Arbor,,50,Ann Arbor,2,,,,,,,,,,,,,,,
null,,confidence_buffer,64325,confidence_buffer,,null,,,,,,,,,,,,,,,,,
4744.800000000047,,unique_rating,69071,Ann Arbor,,51,,3,,,,,,,,,,,,,,,
null,,confidence_buffer,69172,confidence_buffer,,null,,,,,,,,,,,,,,,,,
2335.5999999999767,,memorable_rating,71509,Ann Arbor,,51,,3,,,,,,,,,,,,,,,
null,,confidence_buffer,71611,confidence_buffer,,null,,,,,,,,,,,,,,,,,
null,,thebreak,72112,break,,null,,,,,,,,,,,,,,,,,
3714.8000000000466,,familiar_rating,75828,Muncie,,49,Muncie,1,,,,,,,,,,,,,,,
null,,confidence_buffer,75929,confidence_buffer,,null,,,,,,,,,,,,,,,,,
2255.3000000000466,,unique_rating,78186,Muncie,,52,,4,,,,,,,,,,,,,,,
null,,confidence_buffer,78288,confidence_buffer,,null,,,,,,,,,,,,,,,,,
3660.5999999999767,,probe_rating,81950,probe_rating,,52,,,4,1,,,,,,,,,,,,,
null,,confidence_buffer,82051,confidence_buffer,,null,,,,,,,,,,,,,,,,,
6695.5,,memorable_rating,88747,Muncie,,50,,2,,,,,,,,,,,,,,,
null,,confidence_buffer,88848,confidence_buffer,,null,,,,,,,,,,,,,,,,,
null,,thebreak,89350,break,,null,,,,,,,,,,,,,,,,,
5602.699999999953,,familiar_rating,94953,Gainesville,,50,Gainesville,2,,,,,,,,,,,,,,,
null,,confidence_buffer,95055,confidence_buffer,,null,,,,,,,,,,,,,,,,,
24624.599999999977,,unique_rating,119681,Gainesville,,50,,2,,,,,,,,,,,,,,,
null,,confidence_buffer,119783,confidence_buffer,,null,,,,,,,,,,,,,,,,,
2576.5,,memorable_rating,122360,Gainesville,,50,,2,,,,,,,,,,,,,,,
null,,confidence_buffer,122461,confidence_buffer,,null,,,,,,,,,,,,,,,,,
null,,thebreak,122962,break,,null,,,,,,,,,,,,,,,,,
14553.100000000093,,familiar_rating,137517,Montpelier,,49,Montpelier,1,,,,,,,,,,,,,,,
null,,confidence_buffer,137619,confidence_buffer,,null,,,,,,,,,,,,,,,,,
12016.70000000007,,unique_rating,149636,Montpelier,,52,,4,,,,,,,,,,,,,,,
null,,confidence_buffer,149738,confidence_buffer,,null,,,,,,,,,,,,,,,,,
2561.6999999999534,,memorable_rating,152300,Montpelier,,49,,1,,,,,,,,,,,,,,,
null,,confidence_buffer,152402,confidence_buffer,,null,,,,,,,,,,,,,,,,,
null,,thebreak,152903,break,,null,,,,,,,,,,,,,,,,,
4543.29999999993,,familiar_rating,157447,Annapolis,,49,Annapolis,1,,,,,,,,,,,,,,,
null,,confidence_buffer,157548,confidence_buffer,,null,,,,,,,,,,,,,,,,,
5092.400000000023,,unique_rating,162642,Annapolis,,51,,3,,,,,,,,,,,,,,,
null,,confidence_buffer,162743,confidence_buffer,,null,,,,,,,,,,,,,,,,,
2178,,probe_rating,164922,probe_rating,,53,,,5,1,,,,,,,,,,,,,
null,,confidence_buffer,165023,confidence_buffer,,null,,,,,,,,,,,,,,,,,
3397.9000000000233,,memorable_rating,168422,Annapolis,,50,,2,,,,,,,,,,,,,,,
null,,confidence_buffer,168525,confidence_buffer,,null,,,,,,,,,,,,,,,,,
null,,thebreak,169027,break,,null,,,,,,,,,,,,,,,,,
2801.3000000000466,,familiar_rating,171829,Fargo,,49,Fargo,1,,,,,,,,,,,,,,,
null,,confidence_buffer,171932,confidence_buffer,,null,,,,,,,,,,,,,,,,,
4343.100000000093,,unique_rating,176276,Fargo,,50,,2,,,,,,,,,,,,,,,
null,,confidence_buffer,176378,confidence_buffer,,null,,,,,,,,,,,,,,,,,
3523.6999999999534,,memorable_rating,179903,Fargo,,51,,3,,,,,,,,,,,,,,,
null,,confidence_buffer,180005,confidence_buffer,,null,,,,,,,,,,,,,,,,,
null,,thebreak,180506,break,,null,,,,,,,,,,,,,,,,,
2621.29999999993,,familiar_rating,183128,Stamford,,49,Stamford,1,,,,,,,,,,,,,,,
null,,confidence_buffer,183230,confidence_buffer,,null,,,,,,,,,,,,,,,,,
2696.399999999907,,unique_rating,185927,Stamford,,49,,1,,,,,,,,,,,,,,,
null,,confidence_buffer,186030,confidence_buffer,,null,,,,,,,,,,,,,,,,,
3175.3000000000466,,memorable_rating,189206,Stamford,,50,,2,,,,,,,,,,,,,,,
null,,confidence_buffer,189307,confidence_buffer,,null,,,,,,,,,,,,,,,,,
null,,thebreak,189809,break,,null,,,,,,,,,,,,,,,,,
5612.5,,familiar_rating,195422,Frankfort,,50,Frankfort,2,,,,,,,,,,,,,,,
null,,confidence_buffer,195524,confidence_buffer,,null,,,,,,,,,,,,,,,,,
3173.6999999999534,,unique_rating,198698,Frankfort,,49,,1,,,,,,,,,,,,,,,
null,,confidence_buffer,198800,confidence_buffer,,null,,,,,,,,,,,,,,,,,
3965.5999999999767,,memorable_rating,202766,Frankfort,,51,,3,,,,,,,,,,,,,,,
null,,confidence_buffer,202867,confidence_buffer,,null,,,,,,,,,,,,,,,,,
null,,thebreak,203369,break,,null,,,,,,,,,,,,,,,,,
3022.8000000000466,,familiar_rating,206393,Tallahassee,,52,Tallahassee,4,,,,,,,,,,,,,,,
null,,confidence_buffer,206494,confidence_buffer,,null,,,,,,,,,,,,,,,,,
3460,,unique_rating,209955,Tallahassee,,50,,2,,,,,,,,,,,,,,,
null,,confidence_buffer,210057,confidence_buffer,,null,,,,,,,,,,,,,,,,,
2180.4000000000233,,memorable_rating,212238,Tallahassee,,52,,4,,,,,,,,,,,,,,,
null,,confidence_buffer,212340,confidence_buffer,,null,,,,,,,,,,,,,,,,,
null,,thebreak,212841,break,,null,,,,,,,,,,,,,,,,,
4662.099999999977,,familiar_rating,217504,Carson City,,53,Carson City,5,,,,,,,,,,,,,,,
null,,confidence_buffer,217606,confidence_buffer,,null,,,,,,,,,,,,,,,,,
3861.9000000000233,,unique_rating,221469,Carson City,,50,,2,,,,,,,,,,,,,,,
null,,confidence_buffer,221571,confidence_buffer,,null,,,,,,,,,,,,,,,,,
3415.79999999993,,memorable_rating,224988,Carson City,,50,,2,,,,,,,,,,,,,,,
null,,confidence_buffer,225088,confidence_buffer,,null,,,,,,,,,,,,,,,,,
null,,thebreak,225590,break,,null,,,,,,,,,,,,,,,,,
3427.899999999907,,familiar_rating,229018,Champaign,,49,Champaign,1,,,,,,,,,,,,,,,
null,,confidence_buffer,229119,confidence_buffer,,null,,,,,,,,,,,,,,,,,
1868.4000000000233,,unique_rating,230988,Champaign,,49,,1,,,,,,,,,,,,,,,
null,,confidence_buffer,231091,confidence_buffer,,null,,,,,,,,,,,,,,,,,
2102.9000000000233,,memorable_rating,233194,Champaign,,49,,1,,,,,,,,,,,,,,,
null,,confidence_buffer,233295,confidence_buffer,,null,,,,,,,,,,,,,,,,,
null,,thebreak,233798,break,,null,,,,,,,,,,,,,,,,,
2715.0999999999767,,familiar_rating,236513,New Haven,,52,New Haven,4,,,,,,,,,,,,,,,
null,,confidence_buffer,236615,confidence_buffer,,null,,,,,,,,,,,,,,,,,
3774.3000000000466,,unique_rating,240391,New Haven,,49,,1,,,,,,,,,,,,,,,
null,,confidence_buffer,240494,confidence_buffer,,null,,,,,,,,,,,,,,,,,
3846.4000000000233,,memorable_rating,244342,New Haven,,51,,3,,,,,,,,,,,,,,,
null,,confidence_buffer,244444,confidence_buffer,,null,,,,,,,,,,,,,,,,,
null,,thebreak,244947,break,,null,,,,,,,,,,,,,,,,,
2047.3999999999069,,familiar_rating,246995,Salem,,52,Salem,4,,,,,,,,,,,,,,,
null,,confidence_buffer,247096,confidence_buffer,,null,,,,,,,,,,,,,,,,,
3041.100000000093,,unique_rating,250138,Salem,,51,,3,,,,,,,,,,,,,,,
null,,confidence_buffer,250239,confidence_buffer,,null,,,,,,,,,,,,,,,,,
992.2999999999302,,memorable_rating,251233,Salem,,51,,3,,,,,,,,,,,,,,,
null,,confidence_buffer,251334,confidence_buffer,,null,,,,,,,,,,,,,,,,,
null,,thebreak,251835,break,,null,,,,,,,,,,,,,,,,,
3493.5999999999767,,familiar_rating,255330,Toledo,,50,Toledo,2,,,,,,,,,,,,,,,
null,,confidence_buffer,255432,confidence_buffer,,null,,,,,,,,,,,,,,,,,
4314.29999999993,,unique_rating,259747,Toledo,,51,,3,,,,,,,,,,,,,,,
null,,confidence_buffer,259849,confidence_buffer,,null,,,,,,,,,,,,,,,,,
1247.3999999999069,,probe_rating,261098,probe_rating,,51,,,3,1,,,,,,,,,,,,,
null,,confidence_buffer,261200,confidence_buffer,,null,,,,,,,,,,,,,,,,,
4356.29999999993,,memorable_rating,265558,Toledo,,51,,3,,,,,,,,,,,,,,,
null,,confidence_buffer,265660,confidence_buffer,,null,,,,,,,,,,,,,,,,,
null,,thebreak,266162,break,,null,,,,,,,,,,,,,,,,,
3594.5999999999767,,familiar_rating,269757,Dubuque,,49,Dubuque,1,,,,,,,,,,,,,,,
null,,confidence_buffer,269860,confidence_buffer,,null,,,,,,,,,,,,,,,,,
1522.2000000000698,,probe_rating,271384,probe_rating,,53,,,5,1,,,,,,,,,,,,,
null,,confidence_buffer,271487,confidence_buffer,,null,,,,,,,,,,,,,,,,,
4212.400000000023,,unique_rating,275701,Dubuque,,51,,3,,,,,,,,,,,,,,,
null,,confidence_buffer,275803,confidence_buffer,,null,,,,,,,,,,,,,,,,,
6002.099999999977,,memorable_rating,281806,Dubuque,,49,,1,,,,,,,,,,,,,,,
null,,confidence_buffer,281908,confidence_buffer,,null,,,,,,,,,,,,,,,,,
null,,thebreak,282410,break,,null,,,,,,,,,,,,,,,,,
3570.600000000093,,familiar_rating,285982,Syracuse,,51,Syracuse,3,,,,,,,,,,,,,,,
null,,confidence_buffer,286084,confidence_buffer,,null,,,,,,,,,,,,,,,,,
2718.5999999999767,,unique_rating,288804,Syracuse,,51,,3,,,,,,,,,,,,,,,
null,,confidence_buffer,288907,confidence_buffer,,null,,,,,,,,,,,,,,,,,
4422.70000000007,,memorable_rating,293331,Syracuse,,50,,2,,,,,,,,,,,,,,,
null,,confidence_buffer,293433,confidence_buffer,,null,,,,,,,,,,,,,,,,,
983.9000000000233,,probe_rating,294418,probe_rating,,50,,,2,1,,,,,,,,,,,,,
null,,confidence_buffer,294520,confidence_buffer,,null,,,,,,,,,,,,,,,,,
null,,thebreak,295022,break,,null,,,,,,,,,,,,,,,,,
1943,,familiar_rating,296966,Santa Monica,,53,Santa Monica,5,,,,,,,,,,,,,,,
null,,confidence_buffer,297068,confidence_buffer,,null,,,,,,,,,,,,,,,,,
1185.5,,probe_rating,298255,probe_rating,,50,,,2,1,,,,,,,,,,,,,
null,,confidence_buffer,298357,confidence_buffer,,null,,,,,,,,,,,,,,,,,
2650.20000000007,,unique_rating,301009,Santa Monica,,49,,1,,,,,,,,,,,,,,,
null,,confidence_buffer,301111,confidence_buffer,,null,,,,,,,,,,,,,,,,,
2360.70000000007,,memorable_rating,303473,Santa Monica,,53,,5,,,,,,,,,,,,,,,
null,,confidence_buffer,303574,confidence_buffer,,null,,,,,,,,,,,,,,,,,
null,,thebreak,304080,break,,null,,,,,,,,,,,,,,,,,
2511.6999999999534,,familiar_rating,306593,Topeka,,51,Topeka,3,,,,,,,,,,,,,,,
null,,confidence_buffer,306695,confidence_buffer,,null,,,,,,,,,,,,,,,,,
1674.5999999999767,,unique_rating,308371,Topeka,,50,,2,,,,,,,,,,,,,,,
null,,confidence_buffer,308474,confidence_buffer,,null,,,,,,,,,,,,,,,,,
2195.4000000000233,,memorable_rating,310671,Topeka,,49,,1,,,,,,,,,,,,,,,
null,,confidence_buffer,310774,confidence_buffer,,null,,,,,,,,,,,,,,,,,
1313.9000000000233,,probe_rating,312089,probe_rating,,53,,,5,1,,,,,,,,,,,,,
null,,confidence_buffer,312193,confidence_buffer,,null,,,,,,,,,,,,,,,,,
null,,thebreak,312695,break,,null,,,,,,,,,,,,,,,,,
6508.100000000093,,familiar_rating,319205,Newport News,,49,Newport News,1,,,,,,,,,,,,,,,
null,,confidence_buffer,319307,confidence_buffer,,null,,,,,,,,,,,,,,,,,
3594,,unique_rating,322903,Newport News,,50,,2,,,,,,,,,,,,,,,
null,,confidence_buffer,323006,confidence_buffer,,null,,,,,,,,,,,,,,,,,
2045.7000000000698,,memorable_rating,325053,Newport News,,49,,1,,,,,,,,,,,,,,,
null,,confidence_buffer,325154,confidence_buffer,,null,,,,,,,,,,,,,,,,,
null,,thebreak,325656,break,,null,,,,,,,,,,,,,,,,,
2542.79999999993,,familiar_rating,328200,Boulder,,52,Boulder,4,,,,,,,,,,,,,,,
null,,confidence_buffer,328301,confidence_buffer,,null,,,,,,,,,,,,,,,,,
3476.9000000000233,,unique_rating,331779,Boulder,,50,,2,,,,,,,,,,,,,,,
null,,confidence_buffer,331882,confidence_buffer,,null,,,,,,,,,,,,,,,,,
2199.5,,memorable_rating,334083,Boulder,,53,,5,,,,,,,,,,,,,,,
null,,confidence_buffer,334186,confidence_buffer,,null,,,,,,,,,,,,,,,,,
1442.0999999999767,,probe_rating,335630,probe_rating,,52,,,4,1,,,,,,,,,,,,,
null,,confidence_buffer,335733,confidence_buffer,,null,,,,,,,,,,,,,,,,,
null,,thebreak,336236,break,,null,,,,,,,,,,,,,,,,,
1624.2000000000698,,familiar_rating,337861,Scottsdale,,53,Scottsdale,5,,,,,,,,,,,,,,,
null,,confidence_buffer,337963,confidence_buffer,,null,,,,,,,,,,,,,,,,,
2578.5999999999767,,unique_rating,340543,Scottsdale,,50,,2,,,,,,,,,,,,,,,
null,,confidence_buffer,340647,confidence_buffer,,null,,,,,,,,,,,,,,,,,
1559.8000000000466,,probe_rating,342208,probe_rating,,52,,,4,1,,,,,,,,,,,,,
null,,confidence_buffer,342310,confidence_buffer,,null,,,,,,,,,,,,,,,,,
3225.6999999999534,,memorable_rating,345536,Scottsdale,,53,,5,,,,,,,,,,,,,,,
null,,confidence_buffer,345639,confidence_buffer,,null,,,,,,,,,,,,,,,,,
null,,thebreak,346141,break,,null,,,,,,,,,,,,,,,,,
1482.8000000000466,,familiar_rating,347625,Pasadena,,53,Pasadena,5,,,,,,,,,,,,,,,
null,,confidence_buffer,347728,confidence_buffer,,null,,,,,,,,,,,,,,,,,
3456,,unique_rating,351185,Pasadena,,50,,2,,,,,,,,,,,,,,,
null,,confidence_buffer,351287,confidence_buffer,,null,,,,,,,,,,,,,,,,,
1599.8000000000466,,memorable_rating,352888,Pasadena,,53,,5,,,,,,,,,,,,,,,
null,,confidence_buffer,352990,confidence_buffer,,null,,,,,,,,,,,,,,,,,
null,,thebreak,353491,break,,null,,,,,,,,,,,,,,,,,
3557.4000000000233,,intro_0,357050,instruct,,32,,,,,,,,,,,,,,,,,
4920.5,,intro_1,361971,instruct,,32,,,,,,,,,,,,,,,,,
8226.099999999977,,intro_2,370198,instruct,,32,,,,,,,,,,,,,,,,,
null,,instruct_dir_4,371701,instruct,,null,,,,,,,,,,,,,,,,,
6659.400000000023,,realistic_rating,378361,Boise,,53,Boise,5,,,,,,,,,,,,,,,
null,,confidence_buffer,378462,confidence_buffer,,null,,,,,,,,,,,,,,,,,
2319.0999999999767,,pt2_unique_rating,380782,Boise,,51,,3,,,,,,,,,,,,,,,
null,,confidence_buffer,380884,confidence_buffer,,null,,,,,,,,,,,,,,,,,
6448.599999999977,,pt2_memorable_rating,387334,Boise,,51,,3,,,,,,,,,,,,,,,
null,,confidence_buffer,387436,confidence_buffer,,null,,,,,,,,,,,,,,,,,
2869.5,,recognition_phase,390306,Boise,,52,,,,,new,1,1,,,,,,,,,,
null,,confidence_buffer,390407,confidence_buffer,,null,,,,,,,,,,,,,,,,,
null,,thebreak,390908,break,,null,,,,,,,,,,,,,,,,,
5871.599999999977,,realistic_rating,396781,Newport News,,49,Newport News,1,,,,,,,,,,,,,,,
null,,confidence_buffer,396882,confidence_buffer,,null,,,,,,,,,,,,,,,,,
3191.4000000000233,,pt2_unique_rating,400074,Newport News,,52,,4,,,,,,,,,,,,,,,
null,,confidence_buffer,400176,confidence_buffer,,null,,,,,,,,,,,,,,,,,
3620.8000000000466,,pt2_memorable_rating,403798,Newport News,,50,,2,,,,,,,,,,,,,,,
null,,confidence_buffer,403899,confidence_buffer,,null,,,,,,,,,,,,,,,,,
1499.5,,recognition_phase,405400,Newport News,,49,,,,,old,1,1,,,,,,,,,,
null,,confidence_buffer,405503,confidence_buffer,,null,,,,,,,,,,,,,,,,,
null,,thebreak,406004,break,,null,,,,,,,,,,,,,,,,,
5484.5,,realistic_rating,411490,Champaign,,52,Champaign,4,,,,,,,,,,,,,,,
null,,confidence_buffer,411592,confidence_buffer,,null,,,,,,,,,,,,,,,,,
3117.4000000000233,,pt2_unique_rating,414711,Champaign,,51,,3,,,,,,,,,,,,,,,
null,,confidence_buffer,414814,confidence_buffer,,null,,,,,,,,,,,,,,,,,
3059,,pt2_memorable_rating,417874,Champaign,,51,,3,,,,,,,,,,,,,,,
null,,confidence_buffer,417978,confidence_buffer,,null,,,,,,,,,,,,,,,,,
2358.6999999999534,,recognition_phase,420337,Champaign,,49,,,,,old,1,1,,,,,,,,,,
null,,confidence_buffer,420439,confidence_buffer,,null,,,,,,,,,,,,,,,,,
null,,thebreak,420941,break,,null,,,,,,,,,,,,,,,,,
4341.099999999977,,realistic_rating,425283,Burlington,,53,Burlington,5,,,,,,,,,,,,,,,
null,,confidence_buffer,425385,confidence_buffer,,null,,,,,,,,,,,,,,,,,
1501.3000000000466,,probe_rating,426887,probe_rating,,53,,,5,1,,,,,,,,,,,,,
null,,confidence_buffer,426990,confidence_buffer,,null,,,,,,,,,,,,,,,,,
2951.29999999993,,pt2_unique_rating,429943,Burlington,,51,,3,,,,,,,,,,,,,,,
null,,confidence_buffer,430045,confidence_buffer,,null,,,,,,,,,,,,,,,,,
2147.29999999993,,pt2_memorable_rating,432193,Burlington,,51,,3,,,,,,,,,,,,,,,
null,,confidence_buffer,432295,confidence_buffer,,null,,,,,,,,,,,,,,,,,
2173.3000000000466,,recognition_phase,434469,Burlington,,49,,,,,old,1,1,,,,,,,,,,
null,,confidence_buffer,434573,confidence_buffer,,null,,,,,,,,,,,,,,,,,
null,,thebreak,435074,break,,null,,,,,,,,,,,,,,,,,
2157.4000000000233,,realistic_rating,437233,Tallahassee,,53,Tallahassee,5,,,,,,,,,,,,,,,
null,,confidence_buffer,437335,confidence_buffer,,null,,,,,,,,,,,,,,,,,
1877.6000000000931,,pt2_unique_rating,439214,Tallahassee,,52,,4,,,,,,,,,,,,,,,
null,,confidence_buffer,439317,confidence_buffer,,null,,,,,,,,,,,,,,,,,
1628.1999999999534,,pt2_memorable_rating,440946,Tallahassee,,52,,4,,,,,,,,,,,,,,,
null,,confidence_buffer,441050,confidence_buffer,,null,,,,,,,,,,,,,,,,,
1530.6999999999534,,recognition_phase,442582,Tallahassee,,49,,,,,old,1,1,,,,,,,,,,
null,,confidence_buffer,442686,confidence_buffer,,null,,,,,,,,,,,,,,,,,
null,,thebreak,443187,break,,null,,,,,,,,,,,,,,,,,
5917.20000000007,,realistic_rating,449106,Montpelier,,53,Montpelier,5,,,,,,,,,,,,,,,
null,,confidence_buffer,449208,confidence_buffer,,null,,,,,,,,,,,,,,,,,
3708.3000000000466,,pt2_unique_rating,452918,Montpelier,,52,,4,,,,,,,,,,,,,,,
null,,confidence_buffer,453020,confidence_buffer,,null,,,,,,,,,,,,,,,,,
1774.1000000000931,,pt2_memorable_rating,454796,Montpelier,,51,,3,,,,,,,,,,,,,,,
null,,confidence_buffer,454898,confidence_buffer,,null,,,,,,,,,,,,,,,,,
1407.2999999999302,,recognition_phase,456307,Montpelier,,49,,,,,old,1,1,,,,,,,,,,
null,,confidence_buffer,456410,confidence_buffer,,null,,,,,,,,,,,,,,,,,
null,,thebreak,456912,break,,null,,,,,,,,,,,,,,,,,
4989.800000000047,,realistic_rating,461903,Hagerstown,,53,Hagerstown,5,,,,,,,,,,,,,,,
null,,confidence_buffer,462006,confidence_buffer,,null,,,,,,,,,,,,,,,,,
2093.6999999999534,,pt2_unique_rating,464101,Hagerstown,,52,,4,,,,,,,,,,,,,,,
null,,confidence_buffer,464203,confidence_buffer,,null,,,,,,,,,,,,,,,,,
2054.4000000000233,,pt2_memorable_rating,466259,Hagerstown,,51,,3,,,,,,,,,,,,,,,
null,,confidence_buffer,466361,confidence_buffer,,null,,,,,,,,,,,,,,,,,
1503,,probe_rating,467865,probe_rating,,52,,,4,1,,,,,,,,,,,,,
null,,confidence_buffer,467968,confidence_buffer,,null,,,,,,,,,,,,,,,,,
2840.20000000007,,recognition_phase,470809,Hagerstown,,49,,,,,old,1,1,,,,,,,,,,
null,,confidence_buffer,470913,confidence_buffer,,null,,,,,,,,,,,,,,,,,
null,,thebreak,471415,break,,null,,,,,,,,,,,,,,,,,
2916.1999999999534,,realistic_rating,474333,Toledo,,53,Toledo,5,,,,,,,,,,,,,,,
null,,confidence_buffer,474435,confidence_buffer,,null,,,,,,,,,,,,,,,,,
3265.5999999999767,,pt2_unique_rating,477702,Toledo,,51,,3,,,,,,,,,,,,,,,
null,,confidence_buffer,477804,confidence_buffer,,null,,,,,,,,,,,,,,,,,
2005.3000000000466,,pt2_memorable_rating,479810,Toledo,,52,,4,,,,,,,,,,,,,,,
null,,confidence_buffer,479911,confidence_buffer,,null,,,,,,,,,,,,,,,,,
1440.3000000000466,,recognition_phase,481352,Toledo,,49,,,,,old,1,1,,,,,,,,,,
null,,confidence_buffer,481455,confidence_buffer,,null,,,,,,,,,,,,,,,,,
null,,thebreak,481956,break,,null,,,,,,,,,,,,,,,,,
1614.3000000000466,,realistic_rating,483571,Pasadena,,53,Pasadena,5,,,,,,,,,,,,,,,
null,,confidence_buffer,483674,confidence_buffer,,null,,,,,,,,,,,,,,,,,
4238.899999999907,,pt2_unique_rating,487913,Pasadena,,50,,2,,,,,,,,,,,,,,,
null,,confidence_buffer,488014,confidence_buffer,,null,,,,,,,,,,,,,,,,,
2216.0999999999767,,pt2_memorable_rating,490231,Pasadena,,53,,5,,,,,,,,,,,,,,,
null,,confidence_buffer,490334,confidence_buffer,,null,,,,,,,,,,,,,,,,,
1462.8000000000466,,recognition_phase,491798,Pasadena,,49,,,,,old,1,1,,,,,,,,,,
null,,confidence_buffer,491901,confidence_buffer,,null,,,,,,,,,,,,,,,,,
null,,thebreak,492403,break,,null,,,,,,,,,,,,,,,,,
2297.5999999999767,,realistic_rating,494702,New Haven,,53,New Haven,5,,,,,,,,,,,,,,,
null,,confidence_buffer,494805,confidence_buffer,,null,,,,,,,,,,,,,,,,,
2061.20000000007,,pt2_unique_rating,496867,New Haven,,51,,3,,,,,,,,,,,,,,,
null,,confidence_buffer,496970,confidence_buffer,,null,,,,,,,,,,,,,,,,,
2045.5,,pt2_memorable_rating,499017,New Haven,,52,,4,,,,,,,,,,,,,,,
null,,confidence_buffer,499120,confidence_buffer,,null,,,,,,,,,,,,,,,,,
1421.7999999999302,,recognition_phase,500543,New Haven,,49,,,,,old,1,1,,,,,,,,,,
null,,confidence_buffer,500645,confidence_buffer,,null,,,,,,,,,,,,,,,,,
null,,thebreak,501148,break,,null,,,,,,,,,,,,,,,,,
2013.8000000000466,,realistic_rating,503163,Palo Alto,,53,Palo Alto,5,,,,,,,,,,,,,,,
null,,confidence_buffer,503265,confidence_buffer,,null,,,,,,,,,,,,,,,,,
2564.29999999993,,pt2_unique_rating,505831,Palo Alto,,50,,2,,,,,,,,,,,,,,,
null,,confidence_buffer,505934,confidence_buffer,,null,,,,,,,,,,,,,,,,,
1841.5999999999767,,pt2_memorable_rating,507777,Palo Alto,,53,,5,,,,,,,,,,,,,,,
null,,confidence_buffer,507879,confidence_buffer,,null,,,,,,,,,,,,,,,,,
1546.0999999999767,,probe_rating,509426,probe_rating,,51,,,3,1,,,,,,,,,,,,,
null,,confidence_buffer,509529,confidence_buffer,,null,,,,,,,,,,,,,,,,,
1828.0999999999767,,recognition_phase,511358,Palo Alto,,52,,,,,new,1,1,,,,,,,,,,
null,,confidence_buffer,511462,confidence_buffer,,null,,,,,,,,,,,,,,,,,
null,,thebreak,511964,break,,null,,,,,,,,,,,,,,,,,
5710.199999999953,,realistic_rating,517676,Annapolis,,51,Annapolis,3,,,,,,,,,,,,,,,
null,,confidence_buffer,517778,confidence_buffer,,null,,,,,,,,,,,,,,,,,
3273,,pt2_unique_rating,521052,Annapolis,,50,,2,,,,,,,,,,,,,,,
null,,confidence_buffer,521154,confidence_buffer,,null,,,,,,,,,,,,,,,,,
2592.7000000000116,,pt2_memorable_rating,523748,Annapolis,,52,,4,,,,,,,,,,,,,,,
null,,confidence_buffer,523851,confidence_buffer,,null,,,,,,,,,,,,,,,,,
1535.3000000000466,,recognition_phase,525387,Annapolis,,49,,,,,old,1,1,,,,,,,,,,
null,,confidence_buffer,525490,confidence_buffer,,null,,,,,,,,,,,,,,,,,
null,,thebreak,525992,break,,null,,,,,,,,,,,,,,,,,
5022.600000000093,,realistic_rating,531016,Norfolk,,53,Norfolk,5,,,,,,,,,,,,,,,
null,,confidence_buffer,531117,confidence_buffer,,null,,,,,,,,,,,,,,,,,
1334.8999999999069,,pt2_unique_rating,532454,Norfolk,,52,,4,,,,,,,,,,,,,,,
null,,confidence_buffer,532556,confidence_buffer,,null,,,,,,,,,,,,,,,,,
2179,,pt2_memorable_rating,534737,Norfolk,,51,,3,,,,,,,,,,,,,,,
null,,confidence_buffer,534840,confidence_buffer,,null,,,,,,,,,,,,,,,,,
4685.699999999953,,recognition_phase,539527,Norfolk,,49,,,,,old,0,0.9230769230769231,,,,,,,,,,
null,,confidence_buffer,539631,confidence_buffer,,null,,,,,,,,,,,,,,,,,
null,,thebreak,540133,break,,null,,,,,,,,,,,,,,,,,
3414.5,,realistic_rating,543549,Rock Springs,,53,Rock Springs,5,,,,,,,,,,,,,,,
null,,confidence_buffer,543651,confidence_buffer,,null,,,,,,,,,,,,,,,,,
2748.0999999998603,,pt2_unique_rating,546401,Rock Springs,,49,,1,,,,,,,,,,,,,,,
null,,confidence_buffer,546503,confidence_buffer,,null,,,,,,,,,,,,,,,,,
2797,,pt2_memorable_rating,549302,Rock Springs,,52,,4,,,,,,,,,,,,,,,
null,,confidence_buffer,549405,confidence_buffer,,null,,,,,,,,,,,,,,,,,
2275.600000000093,,recognition_phase,551681,Rock Springs,,52,,,,,new,1,0.9285714285714286,,,,,,,,,,
null,,confidence_buffer,551784,confidence_buffer,,null,,,,,,,,,,,,,,,,,
null,,thebreak,552285,break,,null,,,,,,,,,,,,,,,,,
3749.3000000000466,,realistic_rating,556036,Muncie,,50,Muncie,2,,,,,,,,,,,,,,,
null,,confidence_buffer,556138,confidence_buffer,,null,,,,,,,,,,,,,,,,,
2963.7999999998137,,pt2_unique_rating,559104,Muncie,,52,,4,,,,,,,,,,,,,,,
null,,confidence_buffer,559207,confidence_buffer,,null,,,,,,,,,,,,,,,,,
2401,,pt2_memorable_rating,561609,Muncie,,51,,3,,,,,,,,,,,,,,,
null,,confidence_buffer,561711,confidence_buffer,,null,,,,,,,,,,,,,,,,,
1707.8999999999069,,recognition_phase,563421,Muncie,,49,,,,,old,1,0.9333333333333333,,,,,,,,,,
null,,confidence_buffer,563522,confidence_buffer,,null,,,,,,,,,,,,,,,,,
null,,thebreak,564024,break,,null,,,,,,,,,,,,,,,,,
2854,,realistic_rating,566879,Stamford,,51,Stamford,3,,,,,,,,,,,,,,,
null,,confidence_buffer,566981,confidence_buffer,,null,,,,,,,,,,,,,,,,,
3222.7999999998137,,pt2_unique_rating,570205,Stamford,,50,,2,,,,,,,,,,,,,,,
null,,confidence_buffer,570308,confidence_buffer,,null,,,,,,,,,,,,,,,,,
1583.2000000001863,,pt2_memorable_rating,571892,Stamford,,52,,4,,,,,,,,,,,,,,,
null,,confidence_buffer,571995,confidence_buffer,,null,,,,,,,,,,,,,,,,,
1756.8000000000466,,recognition_phase,573753,Stamford,,49,,,,,old,1,0.9375,,,,,,,,,,
null,,confidence_buffer,573856,confidence_buffer,,null,,,,,,,,,,,,,,,,,
null,,thebreak,574359,break,,null,,,,,,,,,,,,,,,,,
2108,,realistic_rating,576468,Concord,,53,Concord,5,,,,,,,,,,,,,,,
null,,confidence_buffer,576570,confidence_buffer,,null,,,,,,,,,,,,,,,,,
2520.1999999999534,,pt2_unique_rating,579091,Concord,,51,,3,,,,,,,,,,,,,,,
null,,confidence_buffer,579193,confidence_buffer,,null,,,,,,,,,,,,,,,,,
1755.3000000000466,,pt2_memorable_rating,580949,Concord,,53,,5,,,,,,,,,,,,,,,
null,,confidence_buffer,581052,confidence_buffer,,null,,,,,,,,,,,,,,,,,
1412,,recognition_phase,582465,Concord,,49,,,,,old,1,0.9411764705882353,,,,,,,,,,
null,,confidence_buffer,582568,confidence_buffer,,null,,,,,,,,,,,,,,,,,
null,,thebreak,583070,break,,null,,,,,,,,,,,,,,,,,
2598.100000000093,,realistic_rating,585669,Cheyenne,,52,Cheyenne,4,,,,,,,,,,,,,,,
null,,confidence_buffer,585772,confidence_buffer,,null,,,,,,,,,,,,,,,,,
1912,,pt2_unique_rating,587685,Cheyenne,,51,,3,,,,,,,,,,,,,,,
null,,confidence_buffer,587788,confidence_buffer,,null,,,,,,,,,,,,,,,,,
2257.600000000093,,pt2_memorable_rating,590047,Cheyenne,,52,,4,,,,,,,,,,,,,,,
null,,confidence_buffer,590149,confidence_buffer,,null,,,,,,,,,,,,,,,,,
1106,,probe_rating,591257,probe_rating,,50,,,2,1,,,,,,,,,,,,,
null,,confidence_buffer,591359,confidence_buffer,,null,,,,,,,,,,,,,,,,,
3038.8000000000466,,recognition_phase,594399,Cheyenne,,52,,,,,new,1,0.9444444444444444,,,,,,,,,,
null,,confidence_buffer,594503,confidence_buffer,,null,,,,,,,,,,,,,,,,,
null,,thebreak,595005,break,,null,,,,,,,,,,,,,,,,,
2086,,realistic_rating,597092,McKinney,,52,McKinney,4,,,,,,,,,,,,,,,
null,,confidence_buffer,597195,confidence_buffer,,null,,,,,,,,,,,,,,,,,
1542,,probe_rating,598738,probe_rating,,51,,,3,1,,,,,,,,,,,,,
null,,confidence_buffer,598841,confidence_buffer,,null,,,,,,,,,,,,,,,,,
4898.5,,pt2_unique_rating,603740,McKinney,,51,,3,,,,,,,,,,,,,,,
null,,confidence_buffer,603841,confidence_buffer,,null,,,,,,,,,,,,,,,,,
2397,,pt2_memorable_rating,606239,McKinney,,52,,4,,,,,,,,,,,,,,,
null,,confidence_buffer,606342,confidence_buffer,,null,,,,,,,,,,,,,,,,,
2057.600000000093,,recognition_phase,608401,McKinney,,52,,,,,new,1,0.9473684210526315,,,,,,,,,,
null,,confidence_buffer,608502,confidence_buffer,,null,,,,,,,,,,,,,,,,,
null,,thebreak,609005,break,,null,,,,,,,,,,,,,,,,,
2420.100000000093,,realistic_rating,611426,Fort Collins,,53,Fort Collins,5,,,,,,,,,,,,,,,
null,,confidence_buffer,611530,confidence_buffer,,null,,,,,,,,,,,,,,,,,
2189.100000000093,,probe_rating,613720,probe_rating,,49,,,1,1,,,,,,,,,,,,,
null,,confidence_buffer,613823,confidence_buffer,,null,,,,,,,,,,,,,,,,,
3589.1999999999534,,pt2_unique_rating,617413,Fort Collins,,51,,3,,,,,,,,,,,,,,,
null,,confidence_buffer,617516,confidence_buffer,,null,,,,,,,,,,,,,,,,,
5753.399999999907,,pt2_memorable_rating,623270,Fort Collins,,52,,4,,,,,,,,,,,,,,,
null,,confidence_buffer,623372,confidence_buffer,,null,,,,,,,,,,,,,,,,,
4956.800000000047,,recognition_phase,628331,Fort Collins,,50,,,,,old,0,0.9,,,,,,,,,,
null,,confidence_buffer,628433,confidence_buffer,,null,,,,,,,,,,,,,,,,,
null,,thebreak,628935,break,,null,,,,,,,,,,,,,,,,,
3160.7999999998137,,realistic_rating,632097,Decatur,,52,Decatur,4,,,,,,,,,,,,,,,
null,,confidence_buffer,632200,confidence_buffer,,null,,,,,,,,,,,,,,,,,
3672.5,,pt2_unique_rating,635874,Decatur,,53,,5,,,,,,,,,,,,,,,
null,,confidence_buffer,635977,confidence_buffer,,null,,,,,,,,,,,,,,,,,
1979.6000000000931,,pt2_memorable_rating,637958,Decatur,,53,,5,,,,,,,,,,,,,,,
null,,confidence_buffer,638060,confidence_buffer,,null,,,,,,,,,,,,,,,,,
1157.5,,probe_rating,639219,probe_rating,,53,,,5,1,,,,,,,,,,,,,
null,,confidence_buffer,639321,confidence_buffer,,null,,,,,,,,,,,,,,,,,
1808,,recognition_phase,641131,Decatur,,52,,,,,new,1,0.9047619047619048,,,,,,,,,,
null,,confidence_buffer,641234,confidence_buffer,,null,,,,,,,,,,,,,,,,,
null,,thebreak,641737,break,,null,,,,,,,,,,,,,,,,,
2275.899999999907,,realistic_rating,644014,Yakima,,53,Yakima,5,,,,,,,,,,,,,,,
null,,confidence_buffer,644116,confidence_buffer,,null,,,,,,,,,,,,,,,,,
3014.9000000001397,,pt2_unique_rating,647132,Yakima,,52,,4,,,,,,,,,,,,,,,
null,,confidence_buffer,647235,confidence_buffer,,null,,,,,,,,,,,,,,,,,
1814.7000000001863,,pt2_memorable_rating,649051,Yakima,,53,,5,,,,,,,,,,,,,,,
null,,confidence_buffer,649153,confidence_buffer,,null,,,,,,,,,,,,,,,,,
1741,,recognition_phase,650896,Yakima,,52,,,,,new,1,0.9090909090909091,,,,,,,,,,
null,,confidence_buffer,650998,confidence_buffer,,null,,,,,,,,,,,,,,,,,
null,,thebreak,651500,break,,null,,,,,,,,,,,,,,,,,
2765.899999999907,,realistic_rating,654267,Marquette,,50,Marquette,2,,,,,,,,,,,,,,,
null,,confidence_buffer,654370,confidence_buffer,,null,,,,,,,,,,,,,,,,,
2287.1999999999534,,pt2_unique_rating,656659,Marquette,,52,,4,,,,,,,,,,,,,,,
null,,confidence_buffer,656762,confidence_buffer,,null,,,,,,,,,,,,,,,,,
1420.6999999999534,,probe_rating,658183,probe_rating,,53,,,5,1,,,,,,,,,,,,,
null,,confidence_buffer,658285,confidence_buffer,,null,,,,,,,,,,,,,,,,,
2266.3000000000466,,pt2_memorable_rating,660552,Marquette,,52,,4,,,,,,,,,,,,,,,
null,,confidence_buffer,660654,confidence_buffer,,null,,,,,,,,,,,,,,,,,
2191.1999999999534,,recognition_phase,662847,Marquette,,52,,,,,new,1,0.9130434782608695,,,,,,,,,,
null,,confidence_buffer,662949,confidence_buffer,,null,,,,,,,,,,,,,,,,,
null,,thebreak,663452,break,,null,,,,,,,,,,,,,,,,,
1827,,realistic_rating,665280,Boulder,,53,Boulder,5,,,,,,,,,,,,,,,
null,,confidence_buffer,665383,confidence_buffer,,null,,,,,,,,,,,,,,,,,
3038.1999999999534,,pt2_unique_rating,668423,Boulder,,51,,3,,,,,,,,,,,,,,,
null,,confidence_buffer,668526,confidence_buffer,,null,,,,,,,,,,,,,,,,,
1293.1999999999534,,pt2_memorable_rating,669821,Boulder,,53,,5,,,,,,,,,,,,,,,
null,,confidence_buffer,669923,confidence_buffer,,null,,,,,,,,,,,,,,,,,
1813.6999999999534,,recognition_phase,671738,Boulder,,49,,,,,old,1,0.9166666666666666,,,,,,,,,,
null,,confidence_buffer,671841,confidence_buffer,,null,,,,,,,,,,,,,,,,,
null,,thebreak,672343,break,,null,,,,,,,,,,,,,,,,,
4102.90000000014,,realistic_rating,676448,Pueblo,,51,Pueblo,3,,,,,,,,,,,,,,,
null,,confidence_buffer,676550,confidence_buffer,,null,,,,,,,,,,,,,,,,,
1938.8000000000466,,pt2_unique_rating,678490,Pueblo,,52,,4,,,,,,,,,,,,,,,
null,,confidence_buffer,678592,confidence_buffer,,null,,,,,,,,,,,,,,,,,
1339.3000000000466,,pt2_memorable_rating,679933,Pueblo,,52,,4,,,,,,,,,,,,,,,
null,,confidence_buffer,680035,confidence_buffer,,null,,,,,,,,,,,,,,,,,
3165.399999999907,,recognition_phase,683202,Pueblo,,52,,,,,new,1,0.92,,,,,,,,,,
null,,confidence_buffer,683305,confidence_buffer,,null,,,,,,,,,,,,,,,,,
null,,thebreak,683808,break,,null,,,,,,,,,,,,,,,,,
2325.1999999999534,,realistic_rating,686134,Topeka,,53,Topeka,5,,,,,,,,,,,,,,,
null,,confidence_buffer,686237,confidence_buffer,,null,,,,,,,,,,,,,,,,,
2033.6000000000931,,pt2_unique_rating,688272,Topeka,,51,,3,,,,,,,,,,,,,,,
null,,confidence_buffer,688374,confidence_buffer,,null,,,,,,,,,,,,,,,,,
3025.3000000000466,,pt2_memorable_rating,691400,Topeka,,52,,4,,,,,,,,,,,,,,,
null,,confidence_buffer,691502,confidence_buffer,,null,,,,,,,,,,,,,,,,,
1788,,recognition_phase,693292,Topeka,,52,,,,,new,0,0.8846153846153846,,,,,,,,,,
null,,confidence_buffer,693395,confidence_buffer,,null,,,,,,,,,,,,,,,,,
null,,thebreak,693898,break,,null,,,,,,,,,,,,,,,,,
5259.5,,realistic_rating,699159,Peoria,,50,Peoria,2,,,,,,,,,,,,,,,
null,,confidence_buffer,699262,confidence_buffer,,null,,,,,,,,,,,,,,,,,
3000.8000000000466,,pt2_unique_rating,702264,Peoria,,53,,5,,,,,,,,,,,,,,,
null,,confidence_buffer,702366,confidence_buffer,,null,,,,,,,,,,,,,,,,,
2309.3000000000466,,pt2_memorable_rating,704676,Peoria,,52,,4,,,,,,,,,,,,,,,
null,,confidence_buffer,704779,confidence_buffer,,null,,,,,,,,,,,,,,,,,
1634.6999999999534,,recognition_phase,706416,Peoria,,52,,,,,new,1,0.8888888888888888,,,,,,,,,,
null,,confidence_buffer,706517,confidence_buffer,,null,,,,,,,,,,,,,,,,,
null,,thebreak,707019,break,,null,,,,,,,,,,,,,,,,,
1636.6000000000931,,realistic_rating,708657,Carson City,,53,Carson City,5,,,,,,,,,,,,,,,
null,,confidence_buffer,708760,confidence_buffer,,null,,,,,,,,,,,,,,,,,
1778.3000000000466,,pt2_unique_rating,710540,Carson City,,51,,3,,,,,,,,,,,,,,,
null,,confidence_buffer,710642,confidence_buffer,,null,,,,,,,,,,,,,,,,,
8047.600000000093,,pt2_memorable_rating,718691,Carson City,,52,,4,,,,,,,,,,,,,,,
null,,confidence_buffer,718793,confidence_buffer,,null,,,,,,,,,,,,,,,,,
3787.1999999999534,,recognition_phase,722582,Carson City,,49,,,,,old,1,0.8928571428571429,,,,,,,,,,
null,,confidence_buffer,722685,confidence_buffer,,null,,,,,,,,,,,,,,,,,
null,,thebreak,723187,break,,null,,,,,,,,,,,,,,,,,
5677.300000000047,,realistic_rating,728866,Fargo,,53,Fargo,5,,,,,,,,,,,,,,,
null,,confidence_buffer,728968,confidence_buffer,,null,,,,,,,,,,,,,,,,,
1728.6000000000931,,pt2_unique_rating,730698,Fargo,,51,,3,,,,,,,,,,,,,,,
null,,confidence_buffer,730800,confidence_buffer,,null,,,,,,,,,,,,,,,,,
1610.6000000000931,,pt2_memorable_rating,732412,Fargo,,52,,4,,,,,,,,,,,,,,,
null,,confidence_buffer,732515,confidence_buffer,,null,,,,,,,,,,,,,,,,,
1696,,recognition_phase,734212,Fargo,,49,,,,,old,1,0.896551724137931,,,,,,,,,,
null,,confidence_buffer,734316,confidence_buffer,,null,,,,,,,,,,,,,,,,,
null,,thebreak,734817,break,,null,,,,,,,,,,,,,,,,,
2638.9000000001397,,realistic_rating,737458,Frankfort,,51,Frankfort,3,,,,,,,,,,,,,,,
null,,confidence_buffer,737559,confidence_buffer,,null,,,,,,,,,,,,,,,,,
1416.8000000000466,,pt2_unique_rating,738977,Frankfort,,50,,2,,,,,,,,,,,,,,,
null,,confidence_buffer,739079,confidence_buffer,,null,,,,,,,,,,,,,,,,,
1561.1999999999534,,pt2_memorable_rating,740641,Frankfort,,52,,4,,,,,,,,,,,,,,,
null,,confidence_buffer,740743,confidence_buffer,,null,,,,,,,,,,,,,,,,,
1789.6999999999534,,recognition_phase,742534,Frankfort,,49,,,,,old,1,0.9,,,,,,,,,,
null,,confidence_buffer,742636,confidence_buffer,,null,,,,,,,,,,,,,,,,,
null,,thebreak,743139,break,,null,,,,,,,,,,,,,,,,,
3243.100000000093,,realistic_rating,746384,Dothan,,50,Dothan,2,,,,,,,,,,,,,,,
null,,confidence_buffer,746486,confidence_buffer,,null,,,,,,,,,,,,,,,,,
2650.8000000000466,,pt2_unique_rating,749138,Dothan,,51,,3,,,,,,,,,,,,,,,
null,,confidence_buffer,749241,confidence_buffer,,null,,,,,,,,,,,,,,,,,
2098.3000000000466,,pt2_memorable_rating,751341,Dothan,,51,,3,,,,,,,,,,,,,,,
null,,confidence_buffer,751444,confidence_buffer,,null,,,,,,,,,,,,,,,,,
1621.8000000000466,,recognition_phase,753067,Dothan,,52,,,,,new,1,0.9032258064516129,,,,,,,,,,
null,,confidence_buffer,753169,confidence_buffer,,null,,,,,,,,,,,,,,,,,
null,,thebreak,753671,break,,null,,,,,,,,,,,,,,,,,
2828,,realistic_rating,756500,Dubuque,,52,Dubuque,4,,,,,,,,,,,,,,,
null,,confidence_buffer,756603,confidence_buffer,,null,,,,,,,,,,,,,,,,,
3118.100000000093,,pt2_unique_rating,759723,Dubuque,,52,,4,,,,,,,,,,,,,,,
null,,confidence_buffer,759825,confidence_buffer,,null,,,,,,,,,,,,,,,,,
1792.8999999999069,,pt2_memorable_rating,761620,Dubuque,,51,,3,,,,,,,,,,,,,,,
null,,confidence_buffer,761722,confidence_buffer,,null,,,,,,,,,,,,,,,,,
1853.8000000000466,,recognition_phase,763578,Dubuque,,49,,,,,old,1,0.90625,,,,,,,,,,
null,,confidence_buffer,763681,confidence_buffer,,null,,,,,,,,,,,,,,,,,
null,,thebreak,764183,break,,null,,,,,,,,,,,,,,,,,
1912.1000000000931,,realistic_rating,766097,Reno,,53,Reno,5,,,,,,,,,,,,,,,
null,,confidence_buffer,766200,confidence_buffer,,null,,,,,,,,,,,,,,,,,
2427,,pt2_unique_rating,768628,Reno,,51,,3,,,,,,,,,,,,,,,
null,,confidence_buffer,768731,confidence_buffer,,null,,,,,,,,,,,,,,,,,
2014.6999999999534,,pt2_memorable_rating,770747,Reno,,51,,3,,,,,,,,,,,,,,,
null,,confidence_buffer,770848,confidence_buffer,,null,,,,,,,,,,,,,,,,,
2421.399999999907,,recognition_phase,773270,Reno,,52,,,,,new,1,0.9090909090909091,,,,,,,,,,
null,,confidence_buffer,773373,confidence_buffer,,null,,,,,,,,,,,,,,,,,
null,,thebreak,773875,break,,null,,,,,,,,,,,,,,,,,
1916.8999999999069,,realistic_rating,775793,Salem,,53,Salem,5,,,,,,,,,,,,,,,
null,,confidence_buffer,775896,confidence_buffer,,null,,,,,,,,,,,,,,,,,
2077.399999999907,,pt2_unique_rating,777974,Salem,,51,,3,,,,,,,,,,,,,,,
null,,confidence_buffer,778077,confidence_buffer,,null,,,,,,,,,,,,,,,,,
3617,,pt2_memorable_rating,781695,Salem,,52,,4,,,,,,,,,,,,,,,
null,,confidence_buffer,781798,confidence_buffer,,null,,,,,,,,,,,,,,,,,
1066.3000000000466,,recognition_phase,782866,Salem,,49,,,,,old,1,0.9117647058823529,,,,,,,,,,
null,,confidence_buffer,782968,confidence_buffer,,null,,,,,,,,,,,,,,,,,
null,,thebreak,783469,break,,null,,,,,,,,,,,,,,,,,
2330.5,,realistic_rating,785801,Cambridge,,53,Cambridge,5,,,,,,,,,,,,,,,
null,,confidence_buffer,785903,confidence_buffer,,null,,,,,,,,,,,,,,,,,
1491.5,,pt2_unique_rating,787396,Cambridge,,52,,4,,,,,,,,,,,,,,,
null,,confidence_buffer,787498,confidence_buffer,,null,,,,,,,,,,,,,,,,,
937.6999999999534,,pt2_memorable_rating,788437,Cambridge,,53,,5,,,,,,,,,,,,,,,
null,,confidence_buffer,788540,confidence_buffer,,null,,,,,,,,,,,,,,,,,
1268.9000000001397,,recognition_phase,789810,Cambridge,,49,,,,,old,0,0.8857142857142857,,,,,,,,,,
null,,confidence_buffer,789912,confidence_buffer,,null,,,,,,,,,,,,,,,,,
null,,thebreak,790415,break,,null,,,,,,,,,,,,,,,,,
4813.199999999953,,realistic_rating,795230,Syracuse,,53,Syracuse,5,,,,,,,,,,,,,,,
null,,confidence_buffer,795331,confidence_buffer,,null,,,,,,,,,,,,,,,,,
2546.7000000001863,,pt2_unique_rating,797879,Syracuse,,52,,4,,,,,,,,,,,,,,,
null,,confidence_buffer,797982,confidence_buffer,,null,,,,,,,,,,,,,,,,,
1036.8000000000466,,pt2_memorable_rating,799020,Syracuse,,52,,4,,,,,,,,,,,,,,,
null,,confidence_buffer,799123,confidence_buffer,,null,,,,,,,,,,,,,,,,,
1634.5,,recognition_phase,800759,Syracuse,,49,,,,,old,1,0.8888888888888888,,,,,,,,,,
null,,confidence_buffer,800862,confidence_buffer,,null,,,,,,,,,,,,,,,,,
null,,thebreak,801363,break,,null,,,,,,,,,,,,,,,,,
2743.1999999999534,,realistic_rating,804108,Fort Wayne,,53,Fort Wayne,5,,,,,,,,,,,,,,,
null,,confidence_buffer,804210,confidence_buffer,,null,,,,,,,,,,,,,,,,,
2115.100000000093,,pt2_unique_rating,806326,Fort Wayne,,51,,3,,,,,,,,,,,,,,,
null,,confidence_buffer,806429,confidence_buffer,,null,,,,,,,,,,,,,,,,,
1322,,pt2_memorable_rating,807753,Fort Wayne,,52,,4,,,,,,,,,,,,,,,
null,,confidence_buffer,807856,confidence_buffer,,null,,,,,,,,,,,,,,,,,
1289.5,,recognition_phase,809147,Fort Wayne,,49,,,,,old,0,0.8648648648648649,,,,,,,,,,
null,,confidence_buffer,809249,confidence_buffer,,null,,,,,,,,,,,,,,,,,
null,,thebreak,809752,break,,null,,,,,,,,,,,,,,,,,
1876.9000000001397,,realistic_rating,811630,Ann Arbor,,53,Ann Arbor,5,,,,,,,,,,,,,,,
null,,confidence_buffer,811734,confidence_buffer,,null,,,,,,,,,,,,,,,,,
2225.100000000093,,pt2_unique_rating,813960,Ann Arbor,,51,,3,,,,,,,,,,,,,,,
null,,confidence_buffer,814064,confidence_buffer,,null,,,,,,,,,,,,,,,,,
2394,,pt2_memorable_rating,816459,Ann Arbor,,51,,3,,,,,,,,,,,,,,,
null,,confidence_buffer,816562,confidence_buffer,,null,,,,,,,,,,,,,,,,,
1294.6999999999534,,probe_rating,817858,probe_rating,,53,,,5,1,,,,,,,,,,,,,
null,,confidence_buffer,817961,confidence_buffer,,null,,,,,,,,,,,,,,,,,
1451.3000000000466,,recognition_phase,819413,Ann Arbor,,49,,,,,old,1,0.868421052631579,,,,,,,,,,
null,,confidence_buffer,819517,confidence_buffer,,null,,,,,,,,,,,,,,,,,
null,,thebreak,820019,break,,null,,,,,,,,,,,,,,,,,
2139.8000000000466,,realistic_rating,822160,Gainesville,,53,Gainesville,5,,,,,,,,,,,,,,,
null,,confidence_buffer,822263,confidence_buffer,,null,,,,,,,,,,,,,,,,,
1793.6999999999534,,pt2_unique_rating,824058,Gainesville,,51,,3,,,,,,,,,,,,,,,
null,,confidence_buffer,824161,confidence_buffer,,null,,,,,,,,,,,,,,,,,
1695.6999999999534,,probe_rating,825858,probe_rating,,52,,,4,1,,,,,,,,,,,,,
null,,confidence_buffer,825961,confidence_buffer,,null,,,,,,,,,,,,,,,,,
2155.7000000001863,,pt2_memorable_rating,828117,Gainesville,,52,,4,,,,,,,,,,,,,,,
null,,confidence_buffer,828220,confidence_buffer,,null,,,,,,,,,,,,,,,,,
1077.5999999998603,,recognition_phase,829299,Gainesville,,49,,,,,old,1,0.8717948717948718,,,,,,,,,,
null,,confidence_buffer,829401,confidence_buffer,,null,,,,,,,,,,,,,,,,,
null,,thebreak,829904,break,,null,,,,,,,,,,,,,,,,,
2019.9000000001397,,realistic_rating,831925,Bozeman,,51,Bozeman,3,,,,,,,,,,,,,,,
null,,confidence_buffer,832028,confidence_buffer,,null,,,,,,,,,,,,,,,,,
5021.800000000047,,pt2_unique_rating,837051,Bozeman,,51,,3,,,,,,,,,,,,,,,
null,,confidence_buffer,837152,confidence_buffer,,null,,,,,,,,,,,,,,,,,
2210.6999999999534,,pt2_memorable_rating,839364,Bozeman,,52,,4,,,,,,,,,,,,,,,
null,,confidence_buffer,839466,confidence_buffer,,null,,,,,,,,,,,,,,,,,
2122.600000000093,,recognition_phase,841590,Bozeman,,52,,,,,new,1,0.875,,,,,,,,,,
null,,confidence_buffer,841693,confidence_buffer,,null,,,,,,,,,,,,,,,,,
null,,thebreak,842195,break,,null,,,,,,,,,,,,,,,,,
2413.9000000001397,,realistic_rating,844611,Youngstown,,51,Youngstown,3,,,,,,,,,,,,,,,
null,,confidence_buffer,844713,confidence_buffer,,null,,,,,,,,,,,,,,,,,
4181.699999999953,,pt2_unique_rating,848896,Youngstown,,52,,4,,,,,,,,,,,,,,,
null,,confidence_buffer,848998,confidence_buffer,,null,,,,,,,,,,,,,,,,,
1018.3000000000466,,pt2_memorable_rating,850017,Youngstown,,52,,4,,,,,,,,,,,,,,,
null,,confidence_buffer,850120,confidence_buffer,,null,,,,,,,,,,,,,,,,,
1666.1999999999534,,recognition_phase,851788,Youngstown,,52,,,,,new,1,0.8780487804878049,,,,,,,,,,
null,,confidence_buffer,851890,confidence_buffer,,null,,,,,,,,,,,,,,,,,
null,,thebreak,852392,break,,null,,,,,,,,,,,,,,,,,
1636.4000000001397,,realistic_rating,854030,Berkeley,,53,Berkeley,5,,,,,,,,,,,,,,,
null,,confidence_buffer,854133,confidence_buffer,,null,,,,,,,,,,,,,,,,,
3504.6999999999534,,pt2_unique_rating,857639,Berkeley,,52,,4,,,,,,,,,,,,,,,
null,,confidence_buffer,857741,confidence_buffer,,null,,,,,,,,,,,,,,,,,
1976.5,,pt2_memorable_rating,859719,Berkeley,,53,,5,,,,,,,,,,,,,,,
null,,confidence_buffer,859822,confidence_buffer,,null,,,,,,,,,,,,,,,,,
2278.5,,recognition_phase,862102,Berkeley,,52,,,,,new,1,0.8809523809523809,,,,,,,,,,
null,,confidence_buffer,862204,confidence_buffer,,null,,,,,,,,,,,,,,,,,
null,,thebreak,862706,break,,null,,,,,,,,,,,,,,,,,
2328.8000000000466,,realistic_rating,865036,Terre Haute,,50,Terre Haute,2,,,,,,,,,,,,,,,
null,,confidence_buffer,865139,confidence_buffer,,null,,,,,,,,,,,,,,,,,
4300.90000000014,,pt2_unique_rating,869441,Terre Haute,,53,,5,,,,,,,,,,,,,,,
null,,confidence_buffer,869544,confidence_buffer,,null,,,,,,,,,,,,,,,,,
2185.100000000093,,pt2_memorable_rating,871730,Terre Haute,,52,,4,,,,,,,,,,,,,,,
null,,confidence_buffer,871833,confidence_buffer,,null,,,,,,,,,,,,,,,,,
1321.8999999999069,,recognition_phase,873156,Terre Haute,,52,,,,,new,1,0.8837209302325582,,,,,,,,,,
null,,confidence_buffer,873259,confidence_buffer,,null,,,,,,,,,,,,,,,,,
null,,thebreak,873762,break,,null,,,,,,,,,,,,,,,,,
1808.5999999998603,,realistic_rating,875572,Helena,,53,Helena,5,,,,,,,,,,,,,,,
null,,confidence_buffer,875674,confidence_buffer,,null,,,,,,,,,,,,,,,,,
10205.09999999986,,pt2_unique_rating,885881,Helena,,50,,2,,,,,,,,,,,,,,,
null,,confidence_buffer,885983,confidence_buffer,,null,,,,,,,,,,,,,,,,,
1805.1999999999534,,pt2_memorable_rating,887790,Helena,,51,,3,,,,,,,,,,,,,,,
null,,confidence_buffer,887892,confidence_buffer,,null,,,,,,,,,,,,,,,,,
4183.59999999986,,recognition_phase,892078,Helena,,52,,,,,new,1,0.8863636363636364,,,,,,,,,,
null,,confidence_buffer,892180,confidence_buffer,,null,,,,,,,,,,,,,,,,,
null,,thebreak,892682,break,,null,,,,,,,,,,,,,,,,,
1542.4000000001397,,realistic_rating,894225,Santa Monica,,53,Santa Monica,5,,,,,,,,,,,,,,,
null,,confidence_buffer,894329,confidence_buffer,,null,,,,,,,,,,,,,,,,,
2367,,pt2_unique_rating,896697,Santa Monica,,50,,2,,,,,,,,,,,,,,,
null,,confidence_buffer,896799,confidence_buffer,,null,,,,,,,,,,,,,,,,,
996.5999999998603,,pt2_memorable_rating,897797,Santa Monica,,53,,5,,,,,,,,,,,,,,,
null,,confidence_buffer,897899,confidence_buffer,,null,,,,,,,,,,,,,,,,,
1316.3000000000466,,recognition_phase,899216,Santa Monica,,49,,,,,old,1,0.8888888888888888,,,,,,,,,,
null,,confidence_buffer,899319,confidence_buffer,,null,,,,,,,,,,,,,,,,,
null,,thebreak,899821,break,,null,,,,,,,,,,,,,,,,,
2089.2999999998137,,realistic_rating,901912,Athens,,53,Athens,5,,,,,,,,,,,,,,,
null,,confidence_buffer,902014,confidence_buffer,,null,,,,,,,,,,,,,,,,,
3049.5,,pt2_unique_rating,905065,Athens,,51,,3,,,,,,,,,,,,,,,
null,,confidence_buffer,905167,confidence_buffer,,null,,,,,,,,,,,,,,,,,
1477.4000000001397,,pt2_memorable_rating,906646,Athens,,53,,5,,,,,,,,,,,,,,,
null,,confidence_buffer,906749,confidence_buffer,,null,,,,,,,,,,,,,,,,,
2550.0999999998603,,recognition_phase,909300,Athens,,52,,,,,new,1,0.8913043478260869,,,,,,,,,,
null,,confidence_buffer,909402,confidence_buffer,,null,,,,,,,,,,,,,,,,,
null,,thebreak,909905,break,,null,,,,,,,,,,,,,,,,,
4364.300000000047,,realistic_rating,914270,Altoona,,53,Altoona,5,,,,,,,,,,,,,,,
null,,confidence_buffer,914372,confidence_buffer,,null,,,,,,,,,,,,,,,,,
2058.3000000000466,,pt2_unique_rating,916432,Altoona,,52,,4,,,,,,,,,,,,,,,
null,,confidence_buffer,916534,confidence_buffer,,null,,,,,,,,,,,,,,,,,
1545.6000000000931,,probe_rating,918081,probe_rating,,53,,,5,1,,,,,,,,,,,,,
null,,confidence_buffer,918181,confidence_buffer,,null,,,,,,,,,,,,,,,,,
2394.5,,pt2_memorable_rating,920577,Altoona,,52,,4,,,,,,,,,,,,,,,
null,,confidence_buffer,920680,confidence_buffer,,null,,,,,,,,,,,,,,,,,
1630.5,,recognition_phase,922312,Altoona,,52,,,,,new,1,0.8936170212765957,,,,,,,,,,
null,,confidence_buffer,922414,confidence_buffer,,null,,,,,,,,,,,,,,,,,
null,,thebreak,922917,break,,null,,,,,,,,,,,,,,,,,
2144.7000000001863,,realistic_rating,925062,Las Cruces,,52,Las Cruces,4,,,,,,,,,,,,,,,
null,,confidence_buffer,925166,confidence_buffer,,null,,,,,,,,,,,,,,,,,
2088.8000000000466,,pt2_unique_rating,927256,Las Cruces,,51,,3,,,,,,,,,,,,,,,
null,,confidence_buffer,927357,confidence_buffer,,null,,,,,,,,,,,,,,,,,
5753.899999999907,,pt2_memorable_rating,933112,Las Cruces,,51,,3,,,,,,,,,,,,,,,
null,,confidence_buffer,933214,confidence_buffer,,null,,,,,,,,,,,,,,,,,
1620.8999999999069,,recognition_phase,934836,Las Cruces,,52,,,,,new,1,0.8958333333333334,,,,,,,,,,
null,,confidence_buffer,934938,confidence_buffer,,null,,,,,,,,,,,,,,,,,
null,,thebreak,935440,break,,null,,,,,,,,,,,,,,,,,
1606.3000000000466,,realistic_rating,937048,Scottsdale,,53,Scottsdale,5,,,,,,,,,,,,,,,
null,,confidence_buffer,937151,confidence_buffer,,null,,,,,,,,,,,,,,,,,
2334.4000000001397,,pt2_unique_rating,939487,Scottsdale,,50,,2,,,,,,,,,,,,,,,
null,,confidence_buffer,939590,confidence_buffer,,null,,,,,,,,,,,,,,,,,
1578,,probe_rating,941169,probe_rating,,53,,,5,1,,,,,,,,,,,,,
null,,confidence_buffer,941271,confidence_buffer,,null,,,,,,,,,,,,,,,,,
1547.3000000000466,,pt2_memorable_rating,942820,Scottsdale,,53,,5,,,,,,,,,,,,,,,
null,,confidence_buffer,942921,confidence_buffer,,null,,,,,,,,,,,,,,,,,
1524.6999999999534,,recognition_phase,944447,Scottsdale,,49,,,,,old,1,0.8979591836734694,,,,,,,,,,
null,,confidence_buffer,944550,confidence_buffer,,null,,,,,,,,,,,,,,,,,
null,,thebreak,945051,break,,null,,,,,,,,,,,,,,,,,
2313.0999999998603,,realistic_rating,947366,Olympia,,53,Olympia,5,,,,,,,,,,,,,,,
null,,confidence_buffer,947468,confidence_buffer,,null,,,,,,,,,,,,,,,,,
4848.399999999907,,pt2_unique_rating,952318,Olympia,,51,,3,,,,,,,,,,,,,,,
null,,confidence_buffer,952420,confidence_buffer,,null,,,,,,,,,,,,,,,,,
2136.7000000001863,,pt2_memorable_rating,954558,Olympia,,52,,4,,,,,,,,,,,,,,,
null,,confidence_buffer,954661,confidence_buffer,,null,,,,,,,,,,,,,,,,,
3226.5,,recognition_phase,957889,Olympia,,51,,,,,new,1,0.9,,,,,,,,,,
null,,confidence_buffer,957992,confidence_buffer,,null,,,,,,,,,,,,,,,,,
null,,thebreak,958494,break,,null,,,,,,,,,,,,,,,,,
,,survey,1243128,survey-questions,,,,,,,,,,none,high,no,I just read each name carefully and thought of the different states associated with the cities,Whether or not I knew that city had existed; either from hearing things about it; or if I had visited it.,I ranked some unique sounding cities as being more memorable; but I also ranked the cities that I have visited as memorable as well.,I ranked uniqueness based on whether I have heard the name before; and whether or not there are multiple cities/towns using that same name. I also considered whether or not the names were basic; or more creative.,I ranked this mostly based on whether or not I knew the city existed; or if i can imagine it being the real name of a city.,no,no; it was fine
