rt,responses,trial_type,time_elapsed,stimulus,button_pressed,key_press,name_trial,rating,probe,probe_accuracy,response,correct,accuracy,problems,smooth,distraction,strategies,familiar,memorable,unique,realistic,similar,comments,detectfocus,warning
14491,{worker_id:5c8f2ac8d7ecab0018d529aa},id_enter,14493,,,,,,,,,,,,,,,,,,,,,,
10169,,fullscreen,24667,fullscreen,0,,,,,,,,,,,,,,,,,,,,
6452,,intro_0,31122,instruct,,32,,,,,,,,,,,,,,,,,,,
13366,,intro_1,44489,instruct,,32,,,,,,,,,,,,,,,,,,,
6001,,intro_2,50490,instruct,,32,,,,,,,,,,,,,,,,,,,
null,,instruct_dir_4,51999,instruct,,null,,,,,,,,,,,,,,,,,,,
null,,thebreak,52501,break,,null,,,,,,,,,,,,,,,,,,,
22016,,familiar_rating,74519,Tallahassee,,51,Tallahassee,3,,,,,,,,,,,,,,,,,
null,,confidence_buffer,74633,confidence_buffer,,null,,,,,,,,,,,,,,,,,,,
3577,,unique_rating,78212,Tallahassee,,50,,2,,,,,,,,,,,,,,,,,
null,,confidence_buffer,78328,confidence_buffer,,null,,,,,,,,,,,,,,,,,,,
2824,,probe_rating,81152,probe_rating,,50,,,2,1,,,,,,,,,,,,,,,
null,,confidence_buffer,81267,confidence_buffer,,null,,,,,,,,,,,,,,,,,,,
5233,,memorable_rating,86500,Tallahassee,,51,,3,,,,,,,,,,,,,,,,,
null,,confidence_buffer,86608,confidence_buffer,,null,,,,,,,,,,,,,,,,,,,
null,,thebreak,87117,break,,null,,,,,,,,,,,,,,,,,,,
5073,,familiar_rating,92191,Hagerstown,,49,Hagerstown,1,,,,,,,,,,,,,,,,,
null,,confidence_buffer,92298,confidence_buffer,,null,,,,,,,,,,,,,,,,,,,
3812,,unique_rating,96111,Hagerstown,,49,,1,,,,,,,,,,,,,,,,,
null,,confidence_buffer,96215,confidence_buffer,,null,,,,,,,,,,,,,,,,,,,
5593,,memorable_rating,101809,Hagerstown,,49,,1,,,,,,,,,,,,,,,,,
null,,confidence_buffer,101913,confidence_buffer,,null,,,,,,,,,,,,,,,,,,,
1799,,probe_rating,103714,probe_rating,,52,,,4,1,,,,,,,,,,,,,,,
null,,confidence_buffer,103814,confidence_buffer,,null,,,,,,,,,,,,,,,,,,,
null,,thebreak,104320,break,,null,,,,,,,,,,,,,,,,,,,
10824,,familiar_rating,115143,Peoria,,50,Peoria,2,,,,,,,,,,,,,,,,,
null,,confidence_buffer,115250,confidence_buffer,,null,,,,,,,,,,,,,,,,,,,
1873,,unique_rating,117123,Peoria,,51,,3,,,,,,,,,,,,,,,,,
null,,confidence_buffer,117226,confidence_buffer,,null,,,,,,,,,,,,,,,,,,,
2729,,memorable_rating,119957,Peoria,,51,,3,,,,,,,,,,,,,,,,,
null,,confidence_buffer,120068,confidence_buffer,,null,,,,,,,,,,,,,,,,,,,
null,,thebreak,120570,break,,null,,,,,,,,,,,,,,,,,,,
8369,,familiar_rating,128940,Yakima,,49,Yakima,1,,,,,,,,,,,,,,,,,
null,,confidence_buffer,129051,confidence_buffer,,null,,,,,,,,,,,,,,,,,,,
1163,,unique_rating,130217,Yakima,,49,,1,,,,,,,,,,,,,,,,,
null,,confidence_buffer,130324,confidence_buffer,,null,,,,,,,,,,,,,,,,,,,
1418,,memorable_rating,131743,Yakima,,49,,1,,,,,,,,,,,,,,,,,
null,,confidence_buffer,131845,confidence_buffer,,null,,,,,,,,,,,,,,,,,,,
null,,thebreak,132347,break,,null,,,,,,,,,,,,,,,,,,,
7489,,familiar_rating,139837,Stamford,,52,Stamford,4,,,,,,,,,,,,,,,,,
null,,confidence_buffer,139943,confidence_buffer,,null,,,,,,,,,,,,,,,,,,,
1793,,unique_rating,141737,Stamford,,51,,3,,,,,,,,,,,,,,,,,
null,,confidence_buffer,141849,confidence_buffer,,null,,,,,,,,,,,,,,,,,,,
2864,,memorable_rating,144715,Stamford,,52,,4,,,,,,,,,,,,,,,,,
null,,confidence_buffer,144829,confidence_buffer,,null,,,,,,,,,,,,,,,,,,,
null,,thebreak,145331,break,,null,,,,,,,,,,,,,,,,,,,
9615,,familiar_rating,154947,Ann Arbor,,51,Ann Arbor,3,,,,,,,,,,,,,,,,,
null,,confidence_buffer,155057,confidence_buffer,,null,,,,,,,,,,,,,,,,,,,
1144,,unique_rating,156201,Ann Arbor,,52,,4,,,,,,,,,,,,,,,,,
null,,confidence_buffer,156304,confidence_buffer,,null,,,,,,,,,,,,,,,,,,,
895,,memorable_rating,157200,Ann Arbor,,52,,4,,,,,,,,,,,,,,,,,
null,,confidence_buffer,157307,confidence_buffer,,null,,,,,,,,,,,,,,,,,,,
1365,,probe_rating,158673,probe_rating,,51,,,3,1,,,,,,,,,,,,,,,
null,,confidence_buffer,158781,confidence_buffer,,null,,,,,,,,,,,,,,,,,,,
null,,thebreak,159283,break,,null,,,,,,,,,,,,,,,,,,,
13899,,familiar_rating,173181,Berkeley,,52,Berkeley,4,,,,,,,,,,,,,,,,,
null,,confidence_buffer,173285,confidence_buffer,,null,,,,,,,,,,,,,,,,,,,
1353,,unique_rating,174638,Berkeley,,52,,4,,,,,,,,,,,,,,,,,
null,,confidence_buffer,174743,confidence_buffer,,null,,,,,,,,,,,,,,,,,,,
1539,,memorable_rating,176285,Berkeley,,51,,3,,,,,,,,,,,,,,,,,
null,,confidence_buffer,176396,confidence_buffer,,null,,,,,,,,,,,,,,,,,,,
null,,thebreak,176899,break,,null,,,,,,,,,,,,,,,,,,,
9848,,familiar_rating,186746,Fargo,,49,Fargo,1,,,,,,,,,,,,,,,,,
null,,confidence_buffer,186854,confidence_buffer,,null,,,,,,,,,,,,,,,,,,,
531,,unique_rating,187385,Fargo,,49,,1,,,,,,,,,,,,,,,,,
null,,confidence_buffer,187493,confidence_buffer,,null,,,,,,,,,,,,,,,,,,,
505,,memorable_rating,188000,Fargo,,49,,1,,,,,,,,,,,,,,,,,
null,,confidence_buffer,188112,confidence_buffer,,null,,,,,,,,,,,,,,,,,,,
1154,,probe_rating,189266,probe_rating,,50,,,2,1,,,,,,,,,,,,,,,
null,,confidence_buffer,189378,confidence_buffer,,null,,,,,,,,,,,,,,,,,,,
null,,thebreak,189880,break,,null,,,,,,,,,,,,,,,,,,,
25759,,familiar_rating,215641,Norfolk,,50,Norfolk,2,,,,,,,,,,,,,,,,,
null,,confidence_buffer,215746,confidence_buffer,,null,,,,,,,,,,,,,,,,,,,
755,,unique_rating,216503,Norfolk,,50,,2,,,,,,,,,,,,,,,,,
null,,confidence_buffer,216618,confidence_buffer,,null,,,,,,,,,,,,,,,,,,,
970,,memorable_rating,217589,Norfolk,,49,,1,,,,,,,,,,,,,,,,,
null,,confidence_buffer,217700,confidence_buffer,,null,,,,,,,,,,,,,,,,,,,
null,,thebreak,218202,break,,null,,,,,,,,,,,,,,,,,,,
5629,,familiar_rating,223831,Altoona,,49,Altoona,1,,,,,,,,,,,,,,,,,
null,,confidence_buffer,223945,confidence_buffer,,null,,,,,,,,,,,,,,,,,,,
654,,unique_rating,224598,Altoona,,49,,1,,,,,,,,,,,,,,,,,
null,,confidence_buffer,224709,confidence_buffer,,null,,,,,,,,,,,,,,,,,,,
1215,,probe_rating,225924,probe_rating,,49,,,1,1,,,,,,,,,,,,,,,
null,,confidence_buffer,226029,confidence_buffer,,null,,,,,,,,,,,,,,,,,,,
1291,,memorable_rating,227322,Altoona,,49,,1,,,,,,,,,,,,,,,,,
null,,confidence_buffer,227434,confidence_buffer,,null,,,,,,,,,,,,,,,,,,,
null,,thebreak,227936,break,,null,,,,,,,,,,,,,,,,,,,
13466,,familiar_rating,241403,Salem,,50,Salem,2,,,,,,,,,,,,,,,,,
null,,confidence_buffer,241508,confidence_buffer,,null,,,,,,,,,,,,,,,,,,,
2414,,probe_rating,243923,probe_rating,,51,,,3,1,,,,,,,,,,,,,,,
null,,confidence_buffer,244032,confidence_buffer,,null,,,,,,,,,,,,,,,,,,,
3108,,unique_rating,247141,Salem,,51,,3,,,,,,,,,,,,,,,,,
null,,confidence_buffer,247244,confidence_buffer,,null,,,,,,,,,,,,,,,,,,,
1205,,memorable_rating,248450,Salem,,50,,2,,,,,,,,,,,,,,,,,
null,,confidence_buffer,248564,confidence_buffer,,null,,,,,,,,,,,,,,,,,,,
null,,thebreak,249066,break,,null,,,,,,,,,,,,,,,,,,,
10168,,familiar_rating,259235,New Haven,,49,New Haven,1,,,,,,,,,,,,,,,,,
null,,confidence_buffer,259348,confidence_buffer,,null,,,,,,,,,,,,,,,,,,,
2694,,unique_rating,262043,New Haven,,49,,1,,,,,,,,,,,,,,,,,
null,,confidence_buffer,262146,confidence_buffer,,null,,,,,,,,,,,,,,,,,,,
1671,,memorable_rating,263817,New Haven,,49,,1,,,,,,,,,,,,,,,,,
null,,confidence_buffer,263921,confidence_buffer,,null,,,,,,,,,,,,,,,,,,,
null,,thebreak,264423,break,,null,,,,,,,,,,,,,,,,,,,
21497,,familiar_rating,285920,Burlington,,51,Burlington,3,,,,,,,,,,,,,,,,,
null,,confidence_buffer,286036,confidence_buffer,,null,,,,,,,,,,,,,,,,,,,
1304,,unique_rating,287341,Burlington,,52,,4,,,,,,,,,,,,,,,,,
null,,confidence_buffer,287447,confidence_buffer,,null,,,,,,,,,,,,,,,,,,,
733,,memorable_rating,288181,Burlington,,51,,3,,,,,,,,,,,,,,,,,
null,,confidence_buffer,288289,confidence_buffer,,null,,,,,,,,,,,,,,,,,,,
null,,thebreak,288802,break,,null,,,,,,,,,,,,,,,,,,,
5778,,familiar_rating,294581,Abilene,,49,Abilene,1,,,,,,,,,,,,,,,,,
null,,confidence_buffer,294687,confidence_buffer,,null,,,,,,,,,,,,,,,,,,,
1049,,unique_rating,295738,Abilene,,49,,1,,,,,,,,,,,,,,,,,
null,,confidence_buffer,295838,confidence_buffer,,null,,,,,,,,,,,,,,,,,,,
459,,memorable_rating,296298,Abilene,,49,,1,,,,,,,,,,,,,,,,,
null,,confidence_buffer,296406,confidence_buffer,,null,,,,,,,,,,,,,,,,,,,
null,,thebreak,296908,break,,null,,,,,,,,,,,,,,,,,,,
12845,,familiar_rating,309751,Syracuse,,52,Syracuse,4,,,,,,,,,,,,,,,,,
null,,confidence_buffer,309856,confidence_buffer,,null,,,,,,,,,,,,,,,,,,,
1198,,unique_rating,311055,Syracuse,,52,,4,,,,,,,,,,,,,,,,,
null,,confidence_buffer,311164,confidence_buffer,,null,,,,,,,,,,,,,,,,,,,
1668,,probe_rating,312833,probe_rating,,53,,,5,1,,,,,,,,,,,,,,,
null,,confidence_buffer,312943,confidence_buffer,,null,,,,,,,,,,,,,,,,,,,
1438,,memorable_rating,314382,Syracuse,,53,,5,,,,,,,,,,,,,,,,,
null,,confidence_buffer,314494,confidence_buffer,,null,,,,,,,,,,,,,,,,,,,
null,,thebreak,315002,break,,null,,,,,,,,,,,,,,,,,,,
2944,,familiar_rating,317948,Boulder,,49,Boulder,1,,,,,,,,,,,,,,,,,
null,,confidence_buffer,318059,confidence_buffer,,null,,,,,,,,,,,,,,,,,,,
892,,unique_rating,318951,Boulder,,49,,1,,,,,,,,,,,,,,,,,
null,,confidence_buffer,319062,confidence_buffer,,null,,,,,,,,,,,,,,,,,,,
737,,memorable_rating,319800,Boulder,,49,,1,,,,,,,,,,,,,,,,,
null,,confidence_buffer,319912,confidence_buffer,,null,,,,,,,,,,,,,,,,,,,
null,,thebreak,320414,break,,null,,,,,,,,,,,,,,,,,,,
12013,,familiar_rating,332427,Annapolis,,50,Annapolis,2,,,,,,,,,,,,,,,,,
null,,confidence_buffer,332535,confidence_buffer,,null,,,,,,,,,,,,,,,,,,,
631,,unique_rating,333167,Annapolis,,51,,3,,,,,,,,,,,,,,,,,
null,,confidence_buffer,333280,confidence_buffer,,null,,,,,,,,,,,,,,,,,,,
2042,,memorable_rating,335322,Annapolis,,51,,3,,,,,,,,,,,,,,,,,
null,,confidence_buffer,335433,confidence_buffer,,null,,,,,,,,,,,,,,,,,,,
null,,thebreak,335941,break,,null,,,,,,,,,,,,,,,,,,,
8830,,familiar_rating,344774,Marquette,,51,Marquette,3,,,,,,,,,,,,,,,,,
null,,confidence_buffer,344887,confidence_buffer,,null,,,,,,,,,,,,,,,,,,,
1740,,unique_rating,346629,Marquette,,52,,4,,,,,,,,,,,,,,,,,
null,,confidence_buffer,346732,confidence_buffer,,null,,,,,,,,,,,,,,,,,,,
732,,memorable_rating,347464,Marquette,,51,,3,,,,,,,,,,,,,,,,,
null,,confidence_buffer,347565,confidence_buffer,,null,,,,,,,,,,,,,,,,,,,
null,,thebreak,348067,break,,null,,,,,,,,,,,,,,,,,,,
21894,,familiar_rating,369963,Olympia,,50,Olympia,2,,,,,,,,,,,,,,,,,
null,,confidence_buffer,370069,confidence_buffer,,null,,,,,,,,,,,,,,,,,,,
1346,,unique_rating,371416,Olympia,,50,,2,,,,,,,,,,,,,,,,,
null,,confidence_buffer,371527,confidence_buffer,,null,,,,,,,,,,,,,,,,,,,
2623,,memorable_rating,374151,Olympia,,51,,3,,,,,,,,,,,,,,,,,
null,,confidence_buffer,374252,confidence_buffer,,null,,,,,,,,,,,,,,,,,,,
878,,probe_rating,375130,probe_rating,,50,,,2,1,,,,,,,,,,,,,,,
null,,confidence_buffer,375241,confidence_buffer,,null,,,,,,,,,,,,,,,,,,,
null,,thebreak,375742,break,,null,,,,,,,,,,,,,,,,,,,
10396,,familiar_rating,386138,Bellingham,,51,Bellingham,3,,,,,,,,,,,,,,,,,
null,,confidence_buffer,386249,confidence_buffer,,null,,,,,,,,,,,,,,,,,,,
1534,,unique_rating,387783,Bellingham,,50,,2,,,,,,,,,,,,,,,,,
null,,confidence_buffer,387898,confidence_buffer,,null,,,,,,,,,,,,,,,,,,,
1369,,memorable_rating,389269,Bellingham,,50,,2,,,,,,,,,,,,,,,,,
null,,confidence_buffer,389379,confidence_buffer,,null,,,,,,,,,,,,,,,,,,,
null,,thebreak,389893,break,,null,,,,,,,,,,,,,,,,,,,
12630,,familiar_rating,402524,Cheyenne,,51,Cheyenne,3,,,,,,,,,,,,,,,,,
null,,confidence_buffer,402632,confidence_buffer,,null,,,,,,,,,,,,,,,,,,,
1032,,unique_rating,403664,Cheyenne,,52,,4,,,,,,,,,,,,,,,,,
null,,confidence_buffer,403770,confidence_buffer,,null,,,,,,,,,,,,,,,,,,,
1740,,memorable_rating,405511,Cheyenne,,52,,4,,,,,,,,,,,,,,,,,
null,,confidence_buffer,405619,confidence_buffer,,null,,,,,,,,,,,,,,,,,,,
null,,thebreak,406130,break,,null,,,,,,,,,,,,,,,,,,,
11695,,familiar_rating,417826,Santa Monica,,53,Santa Monica,5,,,,,,,,,,,,,,,,,
null,,confidence_buffer,417940,confidence_buffer,,null,,,,,,,,,,,,,,,,,,,
1263,,unique_rating,419204,Santa Monica,,52,,4,,,,,,,,,,,,,,,,,
null,,confidence_buffer,419318,confidence_buffer,,null,,,,,,,,,,,,,,,,,,,
1475,,probe_rating,420794,probe_rating,,53,,,5,1,,,,,,,,,,,,,,,
null,,confidence_buffer,420897,confidence_buffer,,null,,,,,,,,,,,,,,,,,,,
1007,,memorable_rating,421905,Santa Monica,,52,,4,,,,,,,,,,,,,,,,,
null,,confidence_buffer,422016,confidence_buffer,,null,,,,,,,,,,,,,,,,,,,
null,,thebreak,422523,break,,null,,,,,,,,,,,,,,,,,,,
22220,,familiar_rating,444744,Rock Springs,,49,Rock Springs,1,,,,,,,,,,,,,,,,,
null,,confidence_buffer,444845,confidence_buffer,,null,,,,,,,,,,,,,,,,,,,
1208,,unique_rating,446054,Rock Springs,,50,,2,,,,,,,,,,,,,,,,,
null,,confidence_buffer,446166,confidence_buffer,,null,,,,,,,,,,,,,,,,,,,
1359,,memorable_rating,447526,Rock Springs,,49,,1,,,,,,,,,,,,,,,,,
null,,confidence_buffer,447633,confidence_buffer,,null,,,,,,,,,,,,,,,,,,,
null,,thebreak,448135,break,,null,,,,,,,,,,,,,,,,,,,
11907,,familiar_rating,460042,McKinney,,49,McKinney,1,,,,,,,,,,,,,,,,,
null,,confidence_buffer,460145,confidence_buffer,,null,,,,,,,,,,,,,,,,,,,
851,,unique_rating,460997,McKinney,,49,,1,,,,,,,,,,,,,,,,,
null,,confidence_buffer,461100,confidence_buffer,,null,,,,,,,,,,,,,,,,,,,
611,,memorable_rating,461713,McKinney,,49,,1,,,,,,,,,,,,,,,,,
null,,confidence_buffer,461824,confidence_buffer,,null,,,,,,,,,,,,,,,,,,,
null,,thebreak,462342,break,,null,,,,,,,,,,,,,,,,,,,
2968,,familiar_rating,465310,Pasadena,,51,Pasadena,3,,,,,,,,,,,,,,,,,
null,,confidence_buffer,465415,confidence_buffer,,null,,,,,,,,,,,,,,,,,,,
1026,,unique_rating,466443,Pasadena,,52,,4,,,,,,,,,,,,,,,,,
null,,confidence_buffer,466557,confidence_buffer,,null,,,,,,,,,,,,,,,,,,,
1223,,memorable_rating,467782,Pasadena,,51,,3,,,,,,,,,,,,,,,,,
null,,confidence_buffer,467893,confidence_buffer,,null,,,,,,,,,,,,,,,,,,,
null,,thebreak,468395,break,,null,,,,,,,,,,,,,,,,,,,
5698,,intro_0,474094,instruct,,32,,,,,,,,,,,,,,,,,,,
12705,,intro_1,486799,instruct,,32,,,,,,,,,,,,,,,,,,,
27678,,intro_2,514477,instruct,,32,,,,,,,,,,,,,,,,,,,
null,,instruct_dir_4,515980,instruct,,null,,,,,,,,,,,,,,,,,,,
7985,,realistic_rating,523965,Dubuque,,49,Dubuque,1,,,,,,,,,,,,,,,,,
null,,confidence_buffer,524068,confidence_buffer,,null,,,,,,,,,,,,,,,,,,,
5549,,pt2_unique_rating,529617,Dubuque,,50,,2,,,,,,,,,,,,,,,,,
null,,confidence_buffer,529717,confidence_buffer,,null,,,,,,,,,,,,,,,,,,,
1462,,pt2_memorable_rating,531180,Dubuque,,49,,1,,,,,,,,,,,,,,,,,
null,,confidence_buffer,531291,confidence_buffer,,null,,,,,,,,,,,,,,,,,,,
3173,,recognition_phase,534465,Dubuque,,52,,,,,new,1,1,,,,,,,,,,,,
null,,confidence_buffer,534576,confidence_buffer,,null,,,,,,,,,,,,,,,,,,,
null,,thebreak,535080,break,,null,,,,,,,,,,,,,,,,,,,
2691,,realistic_rating,537772,Montpelier,,53,Montpelier,5,,,,,,,,,,,,,,,,,
null,,confidence_buffer,537874,confidence_buffer,,null,,,,,,,,,,,,,,,,,,,
2235,,pt2_unique_rating,540110,Montpelier,,52,,4,,,,,,,,,,,,,,,,,
null,,confidence_buffer,540222,confidence_buffer,,null,,,,,,,,,,,,,,,,,,,
2053,,pt2_memorable_rating,542276,Montpelier,,53,,5,,,,,,,,,,,,,,,,,
null,,confidence_buffer,542390,confidence_buffer,,null,,,,,,,,,,,,,,,,,,,
3164,,recognition_phase,545553,Montpelier,,52,,,,,new,1,1,,,,,,,,,,,,
null,,confidence_buffer,545660,confidence_buffer,,null,,,,,,,,,,,,,,,,,,,
null,,thebreak,546161,break,,null,,,,,,,,,,,,,,,,,,,
3105,,realistic_rating,549267,Frankfort,,51,Frankfort,3,,,,,,,,,,,,,,,,,
null,,confidence_buffer,549373,confidence_buffer,,null,,,,,,,,,,,,,,,,,,,
1451,,pt2_unique_rating,550825,Frankfort,,50,,2,,,,,,,,,,,,,,,,,
null,,confidence_buffer,550925,confidence_buffer,,null,,,,,,,,,,,,,,,,,,,
2857,,pt2_memorable_rating,553783,Frankfort,,49,,1,,,,,,,,,,,,,,,,,
null,,confidence_buffer,553890,confidence_buffer,,null,,,,,,,,,,,,,,,,,,,
1681,,recognition_phase,555572,Frankfort,,52,,,,,new,1,1,,,,,,,,,,,,
null,,confidence_buffer,555681,confidence_buffer,,null,,,,,,,,,,,,,,,,,,,
null,,thebreak,556182,break,,null,,,,,,,,,,,,,,,,,,,
3382,,realistic_rating,559564,Concord,,50,Concord,2,,,,,,,,,,,,,,,,,
null,,confidence_buffer,559680,confidence_buffer,,null,,,,,,,,,,,,,,,,,,,
1806,,pt2_unique_rating,561487,Concord,,50,,2,,,,,,,,,,,,,,,,,
null,,confidence_buffer,561602,confidence_buffer,,null,,,,,,,,,,,,,,,,,,,
1106,,pt2_memorable_rating,562709,Concord,,49,,1,,,,,,,,,,,,,,,,,
null,,confidence_buffer,562822,confidence_buffer,,null,,,,,,,,,,,,,,,,,,,
1306,,recognition_phase,564128,Concord,,52,,,,,new,1,1,,,,,,,,,,,,
null,,confidence_buffer,564242,confidence_buffer,,null,,,,,,,,,,,,,,,,,,,
null,,thebreak,564797,break,,null,,,,,,,,,,,,,,,,,,,
5476,,realistic_rating,570275,Annapolis,,52,Annapolis,4,,,,,,,,,,,,,,,,,
null,,confidence_buffer,570381,confidence_buffer,,null,,,,,,,,,,,,,,,,,,,
3760,,pt2_unique_rating,574142,Annapolis,,51,,3,,,,,,,,,,,,,,,,,
null,,confidence_buffer,574249,confidence_buffer,,null,,,,,,,,,,,,,,,,,,,
1933,,pt2_memorable_rating,576183,Annapolis,,51,,3,,,,,,,,,,,,,,,,,
null,,confidence_buffer,576288,confidence_buffer,,null,,,,,,,,,,,,,,,,,,,
1312,,recognition_phase,577601,Annapolis,,49,,,,,old,1,1,,,,,,,,,,,,
null,,confidence_buffer,577709,confidence_buffer,,null,,,,,,,,,,,,,,,,,,,
null,,thebreak,578210,break,,null,,,,,,,,,,,,,,,,,,,
1758,,realistic_rating,579968,Santa Monica,,53,Santa Monica,5,,,,,,,,,,,,,,,,,
null,,confidence_buffer,580069,confidence_buffer,,null,,,,,,,,,,,,,,,,,,,
1266,,pt2_unique_rating,581337,Santa Monica,,53,,5,,,,,,,,,,,,,,,,,
null,,confidence_buffer,581459,confidence_buffer,,null,,,,,,,,,,,,,,,,,,,
925,,pt2_memorable_rating,582386,Santa Monica,,52,,4,,,,,,,,,,,,,,,,,
null,,confidence_buffer,582494,confidence_buffer,,null,,,,,,,,,,,,,,,,,,,
1691,,recognition_phase,584185,Santa Monica,,49,,,,,old,1,1,,,,,,,,,,,,
null,,confidence_buffer,584300,confidence_buffer,,null,,,,,,,,,,,,,,,,,,,
null,,thebreak,584802,break,,null,,,,,,,,,,,,,,,,,,,
1858,,realistic_rating,586660,Tallahassee,,53,Tallahassee,5,,,,,,,,,,,,,,,,,
null,,confidence_buffer,586778,confidence_buffer,,null,,,,,,,,,,,,,,,,,,,
1384,,pt2_unique_rating,588161,Tallahassee,,53,,5,,,,,,,,,,,,,,,,,
null,,confidence_buffer,588283,confidence_buffer,,null,,,,,,,,,,,,,,,,,,,
1002,,pt2_memorable_rating,589286,Tallahassee,,51,,3,,,,,,,,,,,,,,,,,
null,,confidence_buffer,589388,confidence_buffer,,null,,,,,,,,,,,,,,,,,,,
1404,,recognition_phase,590792,Tallahassee,,49,,,,,old,1,1,,,,,,,,,,,,
null,,confidence_buffer,590892,confidence_buffer,,null,,,,,,,,,,,,,,,,,,,
null,,thebreak,591394,break,,null,,,,,,,,,,,,,,,,,,,
2403,,realistic_rating,593797,Toledo,,52,Toledo,4,,,,,,,,,,,,,,,,,
null,,confidence_buffer,593903,confidence_buffer,,null,,,,,,,,,,,,,,,,,,,
1362,,pt2_unique_rating,595266,Toledo,,51,,3,,,,,,,,,,,,,,,,,
null,,confidence_buffer,595371,confidence_buffer,,null,,,,,,,,,,,,,,,,,,,
828,,pt2_memorable_rating,596199,Toledo,,51,,3,,,,,,,,,,,,,,,,,
null,,confidence_buffer,596312,confidence_buffer,,null,,,,,,,,,,,,,,,,,,,
1808,,recognition_phase,598120,Toledo,,52,,,,,new,1,1,,,,,,,,,,,,
null,,confidence_buffer,598234,confidence_buffer,,null,,,,,,,,,,,,,,,,,,,
null,,thebreak,598735,break,,null,,,,,,,,,,,,,,,,,,,
2545,,realistic_rating,601281,Champaign,,50,Champaign,2,,,,,,,,,,,,,,,,,
null,,confidence_buffer,601392,confidence_buffer,,null,,,,,,,,,,,,,,,,,,,
883,,pt2_unique_rating,602276,Champaign,,49,,1,,,,,,,,,,,,,,,,,
null,,confidence_buffer,602379,confidence_buffer,,null,,,,,,,,,,,,,,,,,,,
959,,pt2_memorable_rating,603339,Champaign,,49,,1,,,,,,,,,,,,,,,,,
null,,confidence_buffer,603451,confidence_buffer,,null,,,,,,,,,,,,,,,,,,,
1471,,recognition_phase,604922,Champaign,,52,,,,,new,1,1,,,,,,,,,,,,
null,,confidence_buffer,605042,confidence_buffer,,null,,,,,,,,,,,,,,,,,,,
null,,thebreak,605544,break,,null,,,,,,,,,,,,,,,,,,,
4646,,realistic_rating,610190,New Haven,,50,New Haven,2,,,,,,,,,,,,,,,,,
null,,confidence_buffer,610293,confidence_buffer,,null,,,,,,,,,,,,,,,,,,,
1608,,pt2_unique_rating,611901,New Haven,,50,,2,,,,,,,,,,,,,,,,,
null,,confidence_buffer,612014,confidence_buffer,,null,,,,,,,,,,,,,,,,,,,
522,,pt2_memorable_rating,612537,New Haven,,49,,1,,,,,,,,,,,,,,,,,
null,,confidence_buffer,612648,confidence_buffer,,null,,,,,,,,,,,,,,,,,,,
1280,,recognition_phase,613928,New Haven,,49,,,,,old,1,1,,,,,,,,,,,,
null,,confidence_buffer,614037,confidence_buffer,,null,,,,,,,,,,,,,,,,,,,
null,,thebreak,614539,break,,null,,,,,,,,,,,,,,,,,,,
1915,,realistic_rating,616456,Salem,,52,Salem,4,,,,,,,,,,,,,,,,,
null,,confidence_buffer,616563,confidence_buffer,,null,,,,,,,,,,,,,,,,,,,
937,,pt2_unique_rating,617500,Salem,,51,,3,,,,,,,,,,,,,,,,,
null,,confidence_buffer,617603,confidence_buffer,,null,,,,,,,,,,,,,,,,,,,
457,,pt2_memorable_rating,618061,Salem,,52,,4,,,,,,,,,,,,,,,,,
null,,confidence_buffer,618168,confidence_buffer,,null,,,,,,,,,,,,,,,,,,,
1250,,recognition_phase,619419,Salem,,49,,,,,old,1,1,,,,,,,,,,,,
null,,confidence_buffer,619526,confidence_buffer,,null,,,,,,,,,,,,,,,,,,,
null,,thebreak,620027,break,,null,,,,,,,,,,,,,,,,,,,
1488,,realistic_rating,621517,Berkeley,,51,Berkeley,3,,,,,,,,,,,,,,,,,
null,,confidence_buffer,621617,confidence_buffer,,null,,,,,,,,,,,,,,,,,,,
1196,,pt2_unique_rating,622814,Berkeley,,50,,2,,,,,,,,,,,,,,,,,
null,,confidence_buffer,622922,confidence_buffer,,null,,,,,,,,,,,,,,,,,,,
840,,pt2_memorable_rating,623763,Berkeley,,51,,3,,,,,,,,,,,,,,,,,
null,,confidence_buffer,623872,confidence_buffer,,null,,,,,,,,,,,,,,,,,,,
1100,,recognition_phase,624973,Berkeley,,49,,,,,old,1,1,,,,,,,,,,,,
null,,confidence_buffer,625076,confidence_buffer,,null,,,,,,,,,,,,,,,,,,,
null,,thebreak,625578,break,,null,,,,,,,,,,,,,,,,,,,
1982,,realistic_rating,627561,Gainesville,,52,Gainesville,4,,,,,,,,,,,,,,,,,
null,,confidence_buffer,627670,confidence_buffer,,null,,,,,,,,,,,,,,,,,,,
1464,,pt2_unique_rating,629135,Gainesville,,50,,2,,,,,,,,,,,,,,,,,
null,,confidence_buffer,629244,confidence_buffer,,null,,,,,,,,,,,,,,,,,,,
1063,,pt2_memorable_rating,630307,Gainesville,,50,,2,,,,,,,,,,,,,,,,,
null,,confidence_buffer,630411,confidence_buffer,,null,,,,,,,,,,,,,,,,,,,
1066,,recognition_phase,631478,Gainesville,,52,,,,,new,1,1,,,,,,,,,,,,
null,,confidence_buffer,631583,confidence_buffer,,null,,,,,,,,,,,,,,,,,,,
null,,thebreak,632085,break,,null,,,,,,,,,,,,,,,,,,,
2449,,realistic_rating,634534,Yakima,,49,Yakima,1,,,,,,,,,,,,,,,,,
null,,confidence_buffer,634648,confidence_buffer,,null,,,,,,,,,,,,,,,,,,,
1360,,pt2_unique_rating,636010,Yakima,,49,,1,,,,,,,,,,,,,,,,,
null,,confidence_buffer,636115,confidence_buffer,,null,,,,,,,,,,,,,,,,,,,
948,,pt2_memorable_rating,637063,Yakima,,49,,1,,,,,,,,,,,,,,,,,
null,,confidence_buffer,637172,confidence_buffer,,null,,,,,,,,,,,,,,,,,,,
927,,recognition_phase,638099,Yakima,,49,,,,,old,1,1,,,,,,,,,,,,
null,,confidence_buffer,638207,confidence_buffer,,null,,,,,,,,,,,,,,,,,,,
null,,thebreak,638708,break,,null,,,,,,,,,,,,,,,,,,,
1998,,realistic_rating,640706,Carson City,,51,Carson City,3,,,,,,,,,,,,,,,,,
null,,confidence_buffer,640816,confidence_buffer,,null,,,,,,,,,,,,,,,,,,,
515,,pt2_unique_rating,641331,Carson City,,50,,2,,,,,,,,,,,,,,,,,
null,,confidence_buffer,641434,confidence_buffer,,null,,,,,,,,,,,,,,,,,,,
2449,,pt2_memorable_rating,643884,Carson City,,50,,2,,,,,,,,,,,,,,,,,
null,,confidence_buffer,643995,confidence_buffer,,null,,,,,,,,,,,,,,,,,,,
949,,recognition_phase,644945,Carson City,,52,,,,,new,1,1,,,,,,,,,,,,
null,,confidence_buffer,645060,confidence_buffer,,null,,,,,,,,,,,,,,,,,,,
null,,thebreak,645584,break,,null,,,,,,,,,,,,,,,,,,,
2860,,realistic_rating,648448,Burlington,,52,Burlington,4,,,,,,,,,,,,,,,,,
null,,confidence_buffer,648560,confidence_buffer,,null,,,,,,,,,,,,,,,,,,,
1048,,pt2_unique_rating,649608,Burlington,,50,,2,,,,,,,,,,,,,,,,,
null,,confidence_buffer,649713,confidence_buffer,,null,,,,,,,,,,,,,,,,,,,
979,,pt2_memorable_rating,650694,Burlington,,51,,3,,,,,,,,,,,,,,,,,
null,,confidence_buffer,650796,confidence_buffer,,null,,,,,,,,,,,,,,,,,,,
909,,recognition_phase,651706,Burlington,,52,,,,,new,0,0.9375,,,,,,,,,,,,
null,,confidence_buffer,651812,confidence_buffer,,null,,,,,,,,,,,,,,,,,,,
null,,thebreak,652327,break,,null,,,,,,,,,,,,,,,,,,,
6120,,realistic_rating,658447,Decatur,,49,Decatur,1,,,,,,,,,,,,,,,,,
null,,confidence_buffer,658550,confidence_buffer,,null,,,,,,,,,,,,,,,,,,,
586,,pt2_unique_rating,659135,Decatur,,49,,1,,,,,,,,,,,,,,,,,
null,,confidence_buffer,659237,confidence_buffer,,null,,,,,,,,,,,,,,,,,,,
2043,,pt2_memorable_rating,661282,Decatur,,50,,2,,,,,,,,,,,,,,,,,
null,,confidence_buffer,661395,confidence_buffer,,null,,,,,,,,,,,,,,,,,,,
1725,,recognition_phase,663122,Decatur,,52,,,,,new,1,0.9411764705882353,,,,,,,,,,,,
null,,confidence_buffer,663229,confidence_buffer,,null,,,,,,,,,,,,,,,,,,,
null,,thebreak,663733,break,,null,,,,,,,,,,,,,,,,,,,
2577,,realistic_rating,666310,Palo Alto,,53,Palo Alto,5,,,,,,,,,,,,,,,,,
null,,confidence_buffer,666421,confidence_buffer,,null,,,,,,,,,,,,,,,,,,,
1259,,pt2_unique_rating,667681,Palo Alto,,52,,4,,,,,,,,,,,,,,,,,
null,,confidence_buffer,667796,confidence_buffer,,null,,,,,,,,,,,,,,,,,,,
1129,,pt2_memorable_rating,668925,Palo Alto,,52,,4,,,,,,,,,,,,,,,,,
null,,confidence_buffer,669030,confidence_buffer,,null,,,,,,,,,,,,,,,,,,,
1679,,recognition_phase,670711,Palo Alto,,52,,,,,new,1,0.9444444444444444,,,,,,,,,,,,
null,,confidence_buffer,670815,confidence_buffer,,null,,,,,,,,,,,,,,,,,,,
null,,thebreak,671324,break,,null,,,,,,,,,,,,,,,,,,,
1583,,realistic_rating,672907,Pueblo,,49,Pueblo,1,,,,,,,,,,,,,,,,,
null,,confidence_buffer,673012,confidence_buffer,,null,,,,,,,,,,,,,,,,,,,
930,,pt2_unique_rating,673941,Pueblo,,51,,3,,,,,,,,,,,,,,,,,
null,,confidence_buffer,674049,confidence_buffer,,null,,,,,,,,,,,,,,,,,,,
918,,pt2_memorable_rating,674967,Pueblo,,51,,3,,,,,,,,,,,,,,,,,
null,,confidence_buffer,675080,confidence_buffer,,null,,,,,,,,,,,,,,,,,,,
1815,,recognition_phase,676895,Pueblo,,52,,,,,new,1,0.9473684210526315,,,,,,,,,,,,
null,,confidence_buffer,677000,confidence_buffer,,null,,,,,,,,,,,,,,,,,,,
null,,thebreak,677513,break,,null,,,,,,,,,,,,,,,,,,,
3891,,realistic_rating,681405,Boulder,,50,Boulder,2,,,,,,,,,,,,,,,,,
null,,confidence_buffer,681510,confidence_buffer,,null,,,,,,,,,,,,,,,,,,,
1515,,pt2_unique_rating,683026,Boulder,,49,,1,,,,,,,,,,,,,,,,,
null,,confidence_buffer,683131,confidence_buffer,,null,,,,,,,,,,,,,,,,,,,
1294,,probe_rating,684426,probe_rating,,49,,,1,1,,,,,,,,,,,,,,,
null,,confidence_buffer,684536,confidence_buffer,,null,,,,,,,,,,,,,,,,,,,
1040,,pt2_memorable_rating,685577,Boulder,,50,,2,,,,,,,,,,,,,,,,,
null,,confidence_buffer,685687,confidence_buffer,,null,,,,,,,,,,,,,,,,,,,
917,,recognition_phase,686604,Boulder,,52,,,,,new,0,0.9,,,,,,,,,,,,
null,,confidence_buffer,686711,confidence_buffer,,null,,,,,,,,,,,,,,,,,,,
null,,thebreak,687212,break,,null,,,,,,,,,,,,,,,,,,,
2210,,realistic_rating,689424,Ann Arbor,,52,Ann Arbor,4,,,,,,,,,,,,,,,,,
null,,confidence_buffer,689526,confidence_buffer,,null,,,,,,,,,,,,,,,,,,,
916,,pt2_unique_rating,690442,Ann Arbor,,51,,3,,,,,,,,,,,,,,,,,
null,,confidence_buffer,690544,confidence_buffer,,null,,,,,,,,,,,,,,,,,,,
265,,pt2_memorable_rating,690810,Ann Arbor,,51,,3,,,,,,,,,,,,,,,,,
null,,confidence_buffer,690915,confidence_buffer,,null,,,,,,,,,,,,,,,,,,,
1227,,recognition_phase,692143,Ann Arbor,,49,,,,,old,1,0.9047619047619048,,,,,,,,,,,,
null,,confidence_buffer,692251,confidence_buffer,,null,,,,,,,,,,,,,,,,,,,
null,,thebreak,692768,break,,null,,,,,,,,,,,,,,,,,,,
1352,,realistic_rating,694120,Youngstown,,51,Youngstown,3,,,,,,,,,,,,,,,,,
null,,confidence_buffer,694227,confidence_buffer,,null,,,,,,,,,,,,,,,,,,,
935,,pt2_unique_rating,695163,Youngstown,,50,,2,,,,,,,,,,,,,,,,,
null,,confidence_buffer,695278,confidence_buffer,,null,,,,,,,,,,,,,,,,,,,
1013,,pt2_memorable_rating,696291,Youngstown,,50,,2,,,,,,,,,,,,,,,,,
null,,confidence_buffer,696404,confidence_buffer,,null,,,,,,,,,,,,,,,,,,,
959,,recognition_phase,697363,Youngstown,,52,,,,,new,1,0.9090909090909091,,,,,,,,,,,,
null,,confidence_buffer,697470,confidence_buffer,,null,,,,,,,,,,,,,,,,,,,
null,,thebreak,697972,break,,null,,,,,,,,,,,,,,,,,,,
1617,,realistic_rating,699590,Newport News,,49,Newport News,1,,,,,,,,,,,,,,,,,
null,,confidence_buffer,699693,confidence_buffer,,null,,,,,,,,,,,,,,,,,,,
1349,,pt2_unique_rating,701044,Newport News,,52,,4,,,,,,,,,,,,,,,,,
null,,confidence_buffer,701152,confidence_buffer,,null,,,,,,,,,,,,,,,,,,,
1240,,pt2_memorable_rating,702392,Newport News,,52,,4,,,,,,,,,,,,,,,,,
null,,confidence_buffer,702504,confidence_buffer,,null,,,,,,,,,,,,,,,,,,,
1196,,recognition_phase,703701,Newport News,,52,,,,,new,1,0.9130434782608695,,,,,,,,,,,,
null,,confidence_buffer,703809,confidence_buffer,,null,,,,,,,,,,,,,,,,,,,
null,,thebreak,704310,break,,null,,,,,,,,,,,,,,,,,,,
1417,,realistic_rating,705728,Helena,,51,Helena,3,,,,,,,,,,,,,,,,,
null,,confidence_buffer,705838,confidence_buffer,,null,,,,,,,,,,,,,,,,,,,
1261,,pt2_unique_rating,707099,Helena,,52,,4,,,,,,,,,,,,,,,,,
null,,confidence_buffer,707205,confidence_buffer,,null,,,,,,,,,,,,,,,,,,,
621,,pt2_memorable_rating,707827,Helena,,52,,4,,,,,,,,,,,,,,,,,
null,,confidence_buffer,707945,confidence_buffer,,null,,,,,,,,,,,,,,,,,,,
999,,recognition_phase,708945,Helena,,51,,,,,new,1,0.9166666666666666,,,,,,,,,,,,
null,,confidence_buffer,709050,confidence_buffer,,null,,,,,,,,,,,,,,,,,,,
null,,thebreak,709551,break,,null,,,,,,,,,,,,,,,,,,,
2713,,realistic_rating,712265,Fargo,,50,Fargo,2,,,,,,,,,,,,,,,,,
null,,confidence_buffer,712377,confidence_buffer,,null,,,,,,,,,,,,,,,,,,,
1359,,pt2_unique_rating,713736,Fargo,,50,,2,,,,,,,,,,,,,,,,,
null,,confidence_buffer,713844,confidence_buffer,,null,,,,,,,,,,,,,,,,,,,
654,,pt2_memorable_rating,714500,Fargo,,49,,1,,,,,,,,,,,,,,,,,
null,,confidence_buffer,714617,confidence_buffer,,null,,,,,,,,,,,,,,,,,,,
1376,,recognition_phase,715992,Fargo,,49,,,,,old,1,0.92,,,,,,,,,,,,
null,,confidence_buffer,716105,confidence_buffer,,null,,,,,,,,,,,,,,,,,,,
null,,thebreak,716607,break,,null,,,,,,,,,,,,,,,,,,,
1691,,realistic_rating,718299,Topeka,,49,Topeka,1,,,,,,,,,,,,,,,,,
null,,confidence_buffer,718414,confidence_buffer,,null,,,,,,,,,,,,,,,,,,,
1138,,pt2_unique_rating,719552,Topeka,,49,,1,,,,,,,,,,,,,,,,,
null,,confidence_buffer,719665,confidence_buffer,,null,,,,,,,,,,,,,,,,,,,
1019,,pt2_memorable_rating,720685,Topeka,,49,,1,,,,,,,,,,,,,,,,,
null,,confidence_buffer,720791,confidence_buffer,,null,,,,,,,,,,,,,,,,,,,
1184,,recognition_phase,721976,Topeka,,52,,,,,new,1,0.9230769230769231,,,,,,,,,,,,
null,,confidence_buffer,722095,confidence_buffer,,null,,,,,,,,,,,,,,,,,,,
null,,thebreak,722597,break,,null,,,,,,,,,,,,,,,,,,,
2081,,realistic_rating,724681,Norfolk,,51,Norfolk,3,,,,,,,,,,,,,,,,,
null,,confidence_buffer,724783,confidence_buffer,,null,,,,,,,,,,,,,,,,,,,
641,,pt2_unique_rating,725424,Norfolk,,50,,2,,,,,,,,,,,,,,,,,
null,,confidence_buffer,725539,confidence_buffer,,null,,,,,,,,,,,,,,,,,,,
587,,pt2_memorable_rating,726127,Norfolk,,50,,2,,,,,,,,,,,,,,,,,
null,,confidence_buffer,726242,confidence_buffer,,null,,,,,,,,,,,,,,,,,,,
1078,,recognition_phase,727320,Norfolk,,49,,,,,old,1,0.9259259259259259,,,,,,,,,,,,
null,,confidence_buffer,727430,confidence_buffer,,null,,,,,,,,,,,,,,,,,,,
null,,thebreak,727932,break,,null,,,,,,,,,,,,,,,,,,,
2870,,realistic_rating,730804,Bozeman,,50,Bozeman,2,,,,,,,,,,,,,,,,,
null,,confidence_buffer,730910,confidence_buffer,,null,,,,,,,,,,,,,,,,,,,
532,,pt2_unique_rating,731442,Bozeman,,49,,1,,,,,,,,,,,,,,,,,
null,,confidence_buffer,731549,confidence_buffer,,null,,,,,,,,,,,,,,,,,,,
499,,pt2_memorable_rating,732049,Bozeman,,50,,2,,,,,,,,,,,,,,,,,
null,,confidence_buffer,732152,confidence_buffer,,null,,,,,,,,,,,,,,,,,,,
923,,recognition_phase,733075,Bozeman,,52,,,,,new,1,0.9285714285714286,,,,,,,,,,,,
null,,confidence_buffer,733187,confidence_buffer,,null,,,,,,,,,,,,,,,,,,,
null,,thebreak,733689,break,,null,,,,,,,,,,,,,,,,,,,
1325,,realistic_rating,735015,Reno,,52,Reno,4,,,,,,,,,,,,,,,,,
null,,confidence_buffer,735126,confidence_buffer,,null,,,,,,,,,,,,,,,,,,,
563,,pt2_unique_rating,735689,Reno,,51,,3,,,,,,,,,,,,,,,,,
null,,confidence_buffer,735797,confidence_buffer,,null,,,,,,,,,,,,,,,,,,,
1412,,pt2_memorable_rating,737210,Reno,,51,,3,,,,,,,,,,,,,,,,,
null,,confidence_buffer,737318,confidence_buffer,,null,,,,,,,,,,,,,,,,,,,
899,,recognition_phase,738217,Reno,,52,,,,,new,1,0.9310344827586207,,,,,,,,,,,,
null,,confidence_buffer,738322,confidence_buffer,,null,,,,,,,,,,,,,,,,,,,
null,,thebreak,738829,break,,null,,,,,,,,,,,,,,,,,,,
1329,,realistic_rating,740160,Syracuse,,53,Syracuse,5,,,,,,,,,,,,,,,,,
null,,confidence_buffer,740281,confidence_buffer,,null,,,,,,,,,,,,,,,,,,,
628,,pt2_unique_rating,740909,Syracuse,,53,,5,,,,,,,,,,,,,,,,,
null,,confidence_buffer,741015,confidence_buffer,,null,,,,,,,,,,,,,,,,,,,
995,,pt2_memorable_rating,742010,Syracuse,,51,,3,,,,,,,,,,,,,,,,,
null,,confidence_buffer,742119,confidence_buffer,,null,,,,,,,,,,,,,,,,,,,
661,,recognition_phase,742780,Syracuse,,49,,,,,old,1,0.9333333333333333,,,,,,,,,,,,
null,,confidence_buffer,742891,confidence_buffer,,null,,,,,,,,,,,,,,,,,,,
null,,thebreak,743392,break,,null,,,,,,,,,,,,,,,,,,,
1299,,realistic_rating,744691,Terre Haute,,49,Terre Haute,1,,,,,,,,,,,,,,,,,
null,,confidence_buffer,744797,confidence_buffer,,null,,,,,,,,,,,,,,,,,,,
1484,,pt2_unique_rating,746282,Terre Haute,,52,,4,,,,,,,,,,,,,,,,,
null,,confidence_buffer,746402,confidence_buffer,,null,,,,,,,,,,,,,,,,,,,
830,,pt2_memorable_rating,747233,Terre Haute,,49,,1,,,,,,,,,,,,,,,,,
null,,confidence_buffer,747337,confidence_buffer,,null,,,,,,,,,,,,,,,,,,,
1019,,recognition_phase,748356,Terre Haute,,52,,,,,new,1,0.9354838709677419,,,,,,,,,,,,
null,,confidence_buffer,748472,confidence_buffer,,null,,,,,,,,,,,,,,,,,,,
null,,thebreak,748974,break,,null,,,,,,,,,,,,,,,,,,,
895,,realistic_rating,749869,Cheyenne,,51,Cheyenne,3,,,,,,,,,,,,,,,,,
null,,confidence_buffer,749978,confidence_buffer,,null,,,,,,,,,,,,,,,,,,,
559,,pt2_unique_rating,750536,Cheyenne,,50,,2,,,,,,,,,,,,,,,,,
null,,confidence_buffer,750649,confidence_buffer,,null,,,,,,,,,,,,,,,,,,,
516,,pt2_memorable_rating,751165,Cheyenne,,51,,3,,,,,,,,,,,,,,,,,
null,,confidence_buffer,751267,confidence_buffer,,null,,,,,,,,,,,,,,,,,,,
1168,,recognition_phase,752436,Cheyenne,,49,,,,,old,1,0.9375,,,,,,,,,,,,
null,,confidence_buffer,752545,confidence_buffer,,null,,,,,,,,,,,,,,,,,,,
null,,thebreak,753053,break,,null,,,,,,,,,,,,,,,,,,,
1113,,realistic_rating,754167,Pasadena,,52,Pasadena,4,,,,,,,,,,,,,,,,,
null,,confidence_buffer,754270,confidence_buffer,,null,,,,,,,,,,,,,,,,,,,
1867,,pt2_unique_rating,756137,Pasadena,,50,,2,,,,,,,,,,,,,,,,,
null,,confidence_buffer,756243,confidence_buffer,,null,,,,,,,,,,,,,,,,,,,
654,,pt2_memorable_rating,756898,Pasadena,,52,,4,,,,,,,,,,,,,,,,,
null,,confidence_buffer,757013,confidence_buffer,,null,,,,,,,,,,,,,,,,,,,
1315,,recognition_phase,758329,Pasadena,,49,,,,,old,1,0.9393939393939394,,,,,,,,,,,,
null,,confidence_buffer,758430,confidence_buffer,,null,,,,,,,,,,,,,,,,,,,
null,,thebreak,758943,break,,null,,,,,,,,,,,,,,,,,,,
1078,,realistic_rating,760021,Dothan,,50,Dothan,2,,,,,,,,,,,,,,,,,
null,,confidence_buffer,760136,confidence_buffer,,null,,,,,,,,,,,,,,,,,,,
571,,pt2_unique_rating,760709,Dothan,,51,,3,,,,,,,,,,,,,,,,,
null,,confidence_buffer,760818,confidence_buffer,,null,,,,,,,,,,,,,,,,,,,
1449,,probe_rating,762268,probe_rating,,52,,,4,1,,,,,,,,,,,,,,,
null,,confidence_buffer,762369,confidence_buffer,,null,,,,,,,,,,,,,,,,,,,
1452,,pt2_memorable_rating,763822,Dothan,,49,,1,,,,,,,,,,,,,,,,,
null,,confidence_buffer,763937,confidence_buffer,,null,,,,,,,,,,,,,,,,,,,
1001,,recognition_phase,764938,Dothan,,52,,,,,new,1,0.9411764705882353,,,,,,,,,,,,
null,,confidence_buffer,765052,confidence_buffer,,null,,,,,,,,,,,,,,,,,,,
null,,thebreak,765563,break,,null,,,,,,,,,,,,,,,,,,,
992,,realistic_rating,766555,Marquette,,52,Marquette,4,,,,,,,,,,,,,,,,,
null,,confidence_buffer,766659,confidence_buffer,,null,,,,,,,,,,,,,,,,,,,
400,,pt2_unique_rating,767059,Marquette,,50,,2,,,,,,,,,,,,,,,,,
null,,confidence_buffer,767170,confidence_buffer,,null,,,,,,,,,,,,,,,,,,,
534,,pt2_memorable_rating,767703,Marquette,,52,,4,,,,,,,,,,,,,,,,,
null,,confidence_buffer,767816,confidence_buffer,,null,,,,,,,,,,,,,,,,,,,
2906,,recognition_phase,770724,Marquette,,49,,,,,old,1,0.9428571428571428,,,,,,,,,,,,
null,,confidence_buffer,770834,confidence_buffer,,null,,,,,,,,,,,,,,,,,,,
null,,thebreak,771343,break,,null,,,,,,,,,,,,,,,,,,,
1619,,realistic_rating,772963,Peoria,,50,Peoria,2,,,,,,,,,,,,,,,,,
null,,confidence_buffer,773073,confidence_buffer,,null,,,,,,,,,,,,,,,,,,,
1037,,pt2_unique_rating,774110,Peoria,,49,,1,,,,,,,,,,,,,,,,,
null,,confidence_buffer,774217,confidence_buffer,,null,,,,,,,,,,,,,,,,,,,
334,,pt2_memorable_rating,774552,Peoria,,49,,1,,,,,,,,,,,,,,,,,
null,,confidence_buffer,774655,confidence_buffer,,null,,,,,,,,,,,,,,,,,,,
1055,,recognition_phase,775711,Peoria,,49,,,,,old,1,0.9444444444444444,,,,,,,,,,,,
null,,confidence_buffer,775819,confidence_buffer,,null,,,,,,,,,,,,,,,,,,,
null,,thebreak,776330,break,,null,,,,,,,,,,,,,,,,,,,
1537,,realistic_rating,777868,Athens,,53,Athens,5,,,,,,,,,,,,,,,,,
null,,confidence_buffer,777971,confidence_buffer,,null,,,,,,,,,,,,,,,,,,,
441,,pt2_unique_rating,778412,Athens,,52,,4,,,,,,,,,,,,,,,,,
null,,confidence_buffer,778515,confidence_buffer,,null,,,,,,,,,,,,,,,,,,,
504,,pt2_memorable_rating,779020,Athens,,52,,4,,,,,,,,,,,,,,,,,
null,,confidence_buffer,779121,confidence_buffer,,null,,,,,,,,,,,,,,,,,,,
1451,,recognition_phase,780574,Athens,,52,,,,,new,1,0.9459459459459459,,,,,,,,,,,,
null,,confidence_buffer,780675,confidence_buffer,,null,,,,,,,,,,,,,,,,,,,
null,,thebreak,781190,break,,null,,,,,,,,,,,,,,,,,,,
1558,,realistic_rating,782748,Boise,,50,Boise,2,,,,,,,,,,,,,,,,,
null,,confidence_buffer,782863,confidence_buffer,,null,,,,,,,,,,,,,,,,,,,
371,,pt2_unique_rating,783234,Boise,,49,,1,,,,,,,,,,,,,,,,,
null,,confidence_buffer,783337,confidence_buffer,,null,,,,,,,,,,,,,,,,,,,
492,,pt2_memorable_rating,783829,Boise,,49,,1,,,,,,,,,,,,,,,,,
null,,confidence_buffer,783933,confidence_buffer,,null,,,,,,,,,,,,,,,,,,,
1026,,recognition_phase,784961,Boise,,52,,,,,new,1,0.9473684210526315,,,,,,,,,,,,
null,,confidence_buffer,785069,confidence_buffer,,null,,,,,,,,,,,,,,,,,,,
null,,thebreak,785572,break,,null,,,,,,,,,,,,,,,,,,,
1090,,realistic_rating,786662,Altoona,,50,Altoona,2,,,,,,,,,,,,,,,,,
null,,confidence_buffer,786775,confidence_buffer,,null,,,,,,,,,,,,,,,,,,,
669,,pt2_unique_rating,787443,Altoona,,50,,2,,,,,,,,,,,,,,,,,
null,,confidence_buffer,787554,confidence_buffer,,null,,,,,,,,,,,,,,,,,,,
1255,,pt2_memorable_rating,788810,Altoona,,49,,1,,,,,,,,,,,,,,,,,
null,,confidence_buffer,788913,confidence_buffer,,null,,,,,,,,,,,,,,,,,,,
1583,,recognition_phase,790496,Altoona,,50,,,,,old,1,0.9487179487179487,,,,,,,,,,,,
null,,confidence_buffer,790605,confidence_buffer,,null,,,,,,,,,,,,,,,,,,,
null,,thebreak,791117,break,,null,,,,,,,,,,,,,,,,,,,
1654,,realistic_rating,792773,Dover,,49,Dover,1,,,,,,,,,,,,,,,,,
null,,confidence_buffer,792887,confidence_buffer,,null,,,,,,,,,,,,,,,,,,,
780,,pt2_unique_rating,793668,Dover,,50,,2,,,,,,,,,,,,,,,,,
null,,confidence_buffer,793771,confidence_buffer,,null,,,,,,,,,,,,,,,,,,,
531,,pt2_memorable_rating,794301,Dover,,49,,1,,,,,,,,,,,,,,,,,
null,,confidence_buffer,794403,confidence_buffer,,null,,,,,,,,,,,,,,,,,,,
828,,recognition_phase,795232,Dover,,52,,,,,new,1,0.95,,,,,,,,,,,,
null,,confidence_buffer,795335,confidence_buffer,,null,,,,,,,,,,,,,,,,,,,
null,,thebreak,795845,break,,null,,,,,,,,,,,,,,,,,,,
988,,realistic_rating,796833,Hagerstown,,51,Hagerstown,3,,,,,,,,,,,,,,,,,
null,,confidence_buffer,796948,confidence_buffer,,null,,,,,,,,,,,,,,,,,,,
1394,,pt2_unique_rating,798344,Hagerstown,,50,,2,,,,,,,,,,,,,,,,,
null,,confidence_buffer,798456,confidence_buffer,,null,,,,,,,,,,,,,,,,,,,
385,,pt2_memorable_rating,798841,Hagerstown,,50,,2,,,,,,,,,,,,,,,,,
null,,confidence_buffer,798946,confidence_buffer,,null,,,,,,,,,,,,,,,,,,,
2469,,recognition_phase,801417,Hagerstown,,50,,,,,old,1,0.9512195121951219,,,,,,,,,,,,
null,,confidence_buffer,801522,confidence_buffer,,null,,,,,,,,,,,,,,,,,,,
null,,thebreak,802037,break,,null,,,,,,,,,,,,,,,,,,,
1265,,realistic_rating,803305,Olympia,,51,Olympia,3,,,,,,,,,,,,,,,,,
null,,confidence_buffer,803417,confidence_buffer,,null,,,,,,,,,,,,,,,,,,,
381,,probe_rating,803798,probe_rating,,52,,,4,0,,,,,,,,,,,,,,,
null,,confidence_buffer,803904,confidence_buffer,,null,,,,,,,,,,,,,,,,,,,
876,,pt2_unique_rating,804781,Olympia,,52,,4,,,,,,,,,,,,,,,,,
null,,confidence_buffer,804889,confidence_buffer,,null,,,,,,,,,,,,,,,,,,,
5331,,pt2_memorable_rating,810219,Olympia,,49,,1,,,,,,,,,,,,,,,,,
null,,confidence_buffer,810335,confidence_buffer,,null,,,,,,,,,,,,,,,,,,,
4499,,recognition_phase,814835,Olympia,,49,,,,,old,1,0.9523809523809523,,,,,,,,,,,,
null,,confidence_buffer,814945,confidence_buffer,,null,,,,,,,,,,,,,,,,,,,
null,,thebreak,815460,break,,null,,,,,,,,,,,,,,,,,,,
4727,,realistic_rating,820188,Scottsdale,,52,Scottsdale,4,,,,,,,,,,,,,,,,,
null,,confidence_buffer,820298,confidence_buffer,,null,,,,,,,,,,,,,,,,,,,
960,,pt2_unique_rating,821260,Scottsdale,,52,,4,,,,,,,,,,,,,,,,,
null,,confidence_buffer,821365,confidence_buffer,,null,,,,,,,,,,,,,,,,,,,
656,,pt2_memorable_rating,822022,Scottsdale,,51,,3,,,,,,,,,,,,,,,,,
null,,confidence_buffer,822132,confidence_buffer,,null,,,,,,,,,,,,,,,,,,,
960,,recognition_phase,823093,Scottsdale,,52,,,,,new,1,0.9534883720930233,,,,,,,,,,,,
null,,confidence_buffer,823207,confidence_buffer,,null,,,,,,,,,,,,,,,,,,,
null,,thebreak,823721,break,,null,,,,,,,,,,,,,,,,,,,
1118,,realistic_rating,824840,McKinney,,51,McKinney,3,,,,,,,,,,,,,,,,,
null,,confidence_buffer,824942,confidence_buffer,,null,,,,,,,,,,,,,,,,,,,
1685,,pt2_unique_rating,826626,McKinney,,50,,2,,,,,,,,,,,,,,,,,
null,,confidence_buffer,826739,confidence_buffer,,null,,,,,,,,,,,,,,,,,,,
604,,pt2_memorable_rating,827344,McKinney,,50,,2,,,,,,,,,,,,,,,,,
null,,confidence_buffer,827453,confidence_buffer,,null,,,,,,,,,,,,,,,,,,,
981,,recognition_phase,828434,McKinney,,49,,,,,old,1,0.9545454545454546,,,,,,,,,,,,
null,,confidence_buffer,828548,confidence_buffer,,null,,,,,,,,,,,,,,,,,,,
null,,thebreak,829049,break,,null,,,,,,,,,,,,,,,,,,,
1203,,realistic_rating,830253,Rock Springs,,52,Rock Springs,4,,,,,,,,,,,,,,,,,
null,,confidence_buffer,830353,confidence_buffer,,null,,,,,,,,,,,,,,,,,,,
725,,pt2_unique_rating,831079,Rock Springs,,50,,2,,,,,,,,,,,,,,,,,
null,,confidence_buffer,831187,confidence_buffer,,null,,,,,,,,,,,,,,,,,,,
908,,pt2_memorable_rating,832097,Rock Springs,,51,,3,,,,,,,,,,,,,,,,,
null,,confidence_buffer,832207,confidence_buffer,,null,,,,,,,,,,,,,,,,,,,
1272,,recognition_phase,833480,Rock Springs,,49,,,,,old,1,0.9555555555555556,,,,,,,,,,,,
null,,confidence_buffer,833581,confidence_buffer,,null,,,,,,,,,,,,,,,,,,,
null,,thebreak,834082,break,,null,,,,,,,,,,,,,,,,,,,
1251,,realistic_rating,835334,Stamford,,53,Stamford,5,,,,,,,,,,,,,,,,,
null,,confidence_buffer,835441,confidence_buffer,,null,,,,,,,,,,,,,,,,,,,
211,,pt2_unique_rating,835652,Stamford,,53,,5,,,,,,,,,,,,,,,,,
null,,confidence_buffer,835758,confidence_buffer,,null,,,,,,,,,,,,,,,,,,,
917,,pt2_memorable_rating,836674,Stamford,,52,,4,,,,,,,,,,,,,,,,,
null,,confidence_buffer,836777,confidence_buffer,,null,,,,,,,,,,,,,,,,,,,
958,,recognition_phase,837736,Stamford,,49,,,,,old,1,0.9565217391304348,,,,,,,,,,,,
null,,confidence_buffer,837849,confidence_buffer,,null,,,,,,,,,,,,,,,,,,,
null,,thebreak,838350,break,,null,,,,,,,,,,,,,,,,,,,
1542,,realistic_rating,839894,Fort Collins,,50,Fort Collins,2,,,,,,,,,,,,,,,,,
null,,confidence_buffer,840003,confidence_buffer,,null,,,,,,,,,,,,,,,,,,,
1239,,pt2_unique_rating,841244,Fort Collins,,50,,2,,,,,,,,,,,,,,,,,
null,,confidence_buffer,841361,confidence_buffer,,null,,,,,,,,,,,,,,,,,,,
872,,pt2_memorable_rating,842233,Fort Collins,,51,,3,,,,,,,,,,,,,,,,,
null,,confidence_buffer,842342,confidence_buffer,,null,,,,,,,,,,,,,,,,,,,
2708,,recognition_phase,845052,Fort Collins,,51,,,,,new,1,0.9574468085106383,,,,,,,,,,,,
null,,confidence_buffer,845153,confidence_buffer,,null,,,,,,,,,,,,,,,,,,,
null,,thebreak,845655,break,,null,,,,,,,,,,,,,,,,,,,
1866,,realistic_rating,847520,Las Cruces,,50,Las Cruces,2,,,,,,,,,,,,,,,,,
null,,confidence_buffer,847630,confidence_buffer,,null,,,,,,,,,,,,,,,,,,,
611,,pt2_unique_rating,848242,Las Cruces,,49,,1,,,,,,,,,,,,,,,,,
null,,confidence_buffer,848348,confidence_buffer,,null,,,,,,,,,,,,,,,,,,,
516,,pt2_memorable_rating,848865,Las Cruces,,49,,1,,,,,,,,,,,,,,,,,
null,,confidence_buffer,848966,confidence_buffer,,null,,,,,,,,,,,,,,,,,,,
780,,recognition_phase,849746,Las Cruces,,52,,,,,new,1,0.9583333333333334,,,,,,,,,,,,
null,,confidence_buffer,849854,confidence_buffer,,null,,,,,,,,,,,,,,,,,,,
null,,thebreak,850355,break,,null,,,,,,,,,,,,,,,,,,,
1706,,realistic_rating,852061,Bellingham,,49,Bellingham,1,,,,,,,,,,,,,,,,,
null,,confidence_buffer,852178,confidence_buffer,,null,,,,,,,,,,,,,,,,,,,
116,,pt2_unique_rating,852295,Bellingham,,49,,1,,,,,,,,,,,,,,,,,
null,,confidence_buffer,852401,confidence_buffer,,null,,,,,,,,,,,,,,,,,,,
675,,pt2_memorable_rating,853077,Bellingham,,50,,2,,,,,,,,,,,,,,,,,
null,,confidence_buffer,853181,confidence_buffer,,null,,,,,,,,,,,,,,,,,,,
920,,recognition_phase,854102,Bellingham,,49,,,,,old,1,0.9591836734693877,,,,,,,,,,,,
null,,confidence_buffer,854208,confidence_buffer,,null,,,,,,,,,,,,,,,,,,,
null,,thebreak,854709,break,,null,,,,,,,,,,,,,,,,,,,
1543,,realistic_rating,856253,Abilene,,50,Abilene,2,,,,,,,,,,,,,,,,,
null,,confidence_buffer,856362,confidence_buffer,,null,,,,,,,,,,,,,,,,,,,
503,,pt2_unique_rating,856866,Abilene,,51,,3,,,,,,,,,,,,,,,,,
null,,confidence_buffer,856979,confidence_buffer,,null,,,,,,,,,,,,,,,,,,,
982,,pt2_memorable_rating,857963,Abilene,,49,,1,,,,,,,,,,,,,,,,,
null,,confidence_buffer,858074,confidence_buffer,,null,,,,,,,,,,,,,,,,,,,
1216,,recognition_phase,859292,Abilene,,51,,,,,new,0,0.94,,,,,,,,,,,,
null,,confidence_buffer,859406,confidence_buffer,,null,,,,,,,,,,,,,,,,,,,
null,,thebreak,859917,break,,null,,,,,,,,,,,,,,,,,,,
,,survey,1032509,survey-questions,,,,,,,,,,none,high,Nothing at all,I just checked all the cities.,Past experience by visiting the city.,Places and activities I could perform there.,Innovative and different than others in the area.,Simple and comfortable to live with family.,N/A,N/A,,
36890,,thank_you,1069428,all_done,,32,,,,,,,,,,,,,,,,,,4,1
