rt,responses,trial_type,time_elapsed,stimulus,button_pressed,key_press,name_trial,rating,probe,probe_accuracy,response,correct,accuracy,problems,smooth,distraction,strategies,familiar,memorable,unique,realistic,similar,comments,detectfocus,warning
3749.0999999940395,{worker_id:5fd393664d8c020163cb3ef2},id_enter,3753,,,,,,,,,,,,,,,,,,,,,,
86779.39999999851,,fullscreen,90540,fullscreen,0,,,,,,,,,,,,,,,,,,,,
2900.1999999955297,,intro_0,93449,instruct,,32,,,,,,,,,,,,,,,,,,,
19909.20000000298,,intro_1,113363,instruct,,32,,,,,,,,,,,,,,,,,,,
10727.5,,intro_2,124094,instruct,,32,,,,,,,,,,,,,,,,,,,
null,,instruct_dir_4,125598,instruct,,null,,,,,,,,,,,,,,,,,,,
null,,thebreak,126103,break,,null,,,,,,,,,,,,,,,,,,,
11907.79999999702,,familiar_rating,138013,Helena,,50,Helena,2,,,,,,,,,,,,,,,,,
null,,confidence_buffer,138119,confidence_buffer,,null,,,,,,,,,,,,,,,,,,,
20786.10000000149,,unique_rating,158908,Helena,,51,,3,,,,,,,,,,,,,,,,,
null,,confidence_buffer,159010,confidence_buffer,,null,,,,,,,,,,,,,,,,,,,
5000.79999999702,,memorable_rating,164013,Helena,,51,,3,,,,,,,,,,,,,,,,,
null,,confidence_buffer,164115,confidence_buffer,,null,,,,,,,,,,,,,,,,,,,
null,,thebreak,164618,break,,null,,,,,,,,,,,,,,,,,,,
9788.5,,familiar_rating,174408,Athens,,53,Athens,5,,,,,,,,,,,,,,,,,
null,,confidence_buffer,174511,confidence_buffer,,null,,,,,,,,,,,,,,,,,,,
3817.4000000059605,,unique_rating,178331,Athens,,52,,4,,,,,,,,,,,,,,,,,
null,,confidence_buffer,178436,confidence_buffer,,null,,,,,,,,,,,,,,,,,,,
2597.10000000149,,memorable_rating,181036,Athens,,53,,5,,,,,,,,,,,,,,,,,
null,,confidence_buffer,181139,confidence_buffer,,null,,,,,,,,,,,,,,,,,,,
4483.80000000447,,probe_rating,185624,probe_rating,,49,,,1,1,,,,,,,,,,,,,,,
null,,confidence_buffer,185734,confidence_buffer,,null,,,,,,,,,,,,,,,,,,,
null,,thebreak,186235,break,,null,,,,,,,,,,,,,,,,,,,
33384.69999999553,,familiar_rating,219622,Cheyenne,,52,Cheyenne,4,,,,,,,,,,,,,,,,,
null,,confidence_buffer,219728,confidence_buffer,,null,,,,,,,,,,,,,,,,,,,
3886.7999999970198,,unique_rating,223617,Cheyenne,,53,,5,,,,,,,,,,,,,,,,,
null,,confidence_buffer,223722,confidence_buffer,,null,,,,,,,,,,,,,,,,,,,
6554.60000000149,,memorable_rating,230277,Cheyenne,,52,,4,,,,,,,,,,,,,,,,,
null,,confidence_buffer,230379,confidence_buffer,,null,,,,,,,,,,,,,,,,,,,
null,,thebreak,230882,break,,null,,,,,,,,,,,,,,,,,,,
13161.5,,familiar_rating,244046,Abilene,,53,Abilene,5,,,,,,,,,,,,,,,,,
null,,confidence_buffer,244147,confidence_buffer,,null,,,,,,,,,,,,,,,,,,,
5646.30000000447,,unique_rating,249797,Abilene,,51,,3,,,,,,,,,,,,,,,,,
null,,confidence_buffer,249899,confidence_buffer,,null,,,,,,,,,,,,,,,,,,,
6576.60000000149,,memorable_rating,256477,Abilene,,53,,5,,,,,,,,,,,,,,,,,
null,,confidence_buffer,256583,confidence_buffer,,null,,,,,,,,,,,,,,,,,,,
null,,thebreak,257094,break,,null,,,,,,,,,,,,,,,,,,,
4195.5999999940395,,familiar_rating,261291,Cambridge,,52,Cambridge,4,,,,,,,,,,,,,,,,,
null,,confidence_buffer,261393,confidence_buffer,,null,,,,,,,,,,,,,,,,,,,
3291.10000000149,,unique_rating,264685,Cambridge,,51,,3,,,,,,,,,,,,,,,,,
null,,confidence_buffer,264787,confidence_buffer,,null,,,,,,,,,,,,,,,,,,,
1530.5999999940395,,memorable_rating,266319,Cambridge,,53,,5,,,,,,,,,,,,,,,,,
null,,confidence_buffer,266420,confidence_buffer,,null,,,,,,,,,,,,,,,,,,,
null,,thebreak,266926,break,,null,,,,,,,,,,,,,,,,,,,
4104.5999999940395,,familiar_rating,271032,Salem,,51,Salem,3,,,,,,,,,,,,,,,,,
null,,confidence_buffer,271133,confidence_buffer,,null,,,,,,,,,,,,,,,,,,,
2978,,unique_rating,274112,Salem,,52,,4,,,,,,,,,,,,,,,,,
null,,confidence_buffer,274216,confidence_buffer,,null,,,,,,,,,,,,,,,,,,,
1300.5,,memorable_rating,275517,Salem,,53,,5,,,,,,,,,,,,,,,,,
null,,confidence_buffer,275619,confidence_buffer,,null,,,,,,,,,,,,,,,,,,,
null,,thebreak,276121,break,,null,,,,,,,,,,,,,,,,,,,
13323.5,,familiar_rating,289447,Decatur,,53,Decatur,5,,,,,,,,,,,,,,,,,
null,,confidence_buffer,289550,confidence_buffer,,null,,,,,,,,,,,,,,,,,,,
2355.9000000059605,,unique_rating,291909,Decatur,,52,,4,,,,,,,,,,,,,,,,,
null,,confidence_buffer,292010,confidence_buffer,,null,,,,,,,,,,,,,,,,,,,
3668.6999999955297,,memorable_rating,295681,Decatur,,50,,2,,,,,,,,,,,,,,,,,
null,,confidence_buffer,295783,confidence_buffer,,null,,,,,,,,,,,,,,,,,,,
null,,thebreak,296285,break,,null,,,,,,,,,,,,,,,,,,,
3422.5,,familiar_rating,299709,Syracuse,,53,Syracuse,5,,,,,,,,,,,,,,,,,
null,,confidence_buffer,299811,confidence_buffer,,null,,,,,,,,,,,,,,,,,,,
1037.1999999955297,,unique_rating,300849,Syracuse,,52,,4,,,,,,,,,,,,,,,,,
null,,confidence_buffer,300952,confidence_buffer,,null,,,,,,,,,,,,,,,,,,,
3795.7000000029802,,memorable_rating,304749,Syracuse,,52,,4,,,,,,,,,,,,,,,,,
null,,confidence_buffer,304852,confidence_buffer,,null,,,,,,,,,,,,,,,,,,,
3549.7000000029802,,probe_rating,308403,probe_rating,,49,,,1,1,,,,,,,,,,,,,,,
null,,confidence_buffer,308510,confidence_buffer,,null,,,,,,,,,,,,,,,,,,,
null,,thebreak,309012,break,,null,,,,,,,,,,,,,,,,,,,
3961.7000000029802,,familiar_rating,312974,Altoona,,52,Altoona,4,,,,,,,,,,,,,,,,,
null,,confidence_buffer,313076,confidence_buffer,,null,,,,,,,,,,,,,,,,,,,
3368.60000000149,,unique_rating,316446,Altoona,,50,,2,,,,,,,,,,,,,,,,,
null,,confidence_buffer,316548,confidence_buffer,,null,,,,,,,,,,,,,,,,,,,
4056.7000000029802,,memorable_rating,320606,Altoona,,49,,1,,,,,,,,,,,,,,,,,
null,,confidence_buffer,320707,confidence_buffer,,null,,,,,,,,,,,,,,,,,,,
null,,thebreak,321208,break,,null,,,,,,,,,,,,,,,,,,,
13651.60000000149,,familiar_rating,334862,Norfolk,,49,Norfolk,1,,,,,,,,,,,,,,,,,
null,,confidence_buffer,334967,confidence_buffer,,null,,,,,,,,,,,,,,,,,,,
6114.20000000298,,unique_rating,341084,Norfolk,,50,,2,,,,,,,,,,,,,,,,,
null,,confidence_buffer,341187,confidence_buffer,,null,,,,,,,,,,,,,,,,,,,
2025,,memorable_rating,343215,Norfolk,,49,,1,,,,,,,,,,,,,,,,,
null,,confidence_buffer,343316,confidence_buffer,,null,,,,,,,,,,,,,,,,,,,
null,,thebreak,343818,break,,null,,,,,,,,,,,,,,,,,,,
13706.40000000596,,familiar_rating,357528,Annapolis,,51,Annapolis,3,,,,,,,,,,,,,,,,,
null,,confidence_buffer,357630,confidence_buffer,,null,,,,,,,,,,,,,,,,,,,
2039.5,,unique_rating,359672,Annapolis,,52,,4,,,,,,,,,,,,,,,,,
null,,confidence_buffer,359774,confidence_buffer,,null,,,,,,,,,,,,,,,,,,,
1884.6000000014901,,memorable_rating,361660,Annapolis,,53,,5,,,,,,,,,,,,,,,,,
null,,confidence_buffer,361776,confidence_buffer,,null,,,,,,,,,,,,,,,,,,,
null,,thebreak,362278,break,,null,,,,,,,,,,,,,,,,,,,
2881.89999999851,,familiar_rating,365163,Berkeley,,53,Berkeley,5,,,,,,,,,,,,,,,,,
null,,confidence_buffer,365268,confidence_buffer,,null,,,,,,,,,,,,,,,,,,,
3961.8000000044703,,unique_rating,369233,Berkeley,,50,,2,,,,,,,,,,,,,,,,,
null,,confidence_buffer,369336,confidence_buffer,,null,,,,,,,,,,,,,,,,,,,
4471.30000000447,,memorable_rating,373809,Berkeley,,51,,3,,,,,,,,,,,,,,,,,
null,,confidence_buffer,373912,confidence_buffer,,null,,,,,,,,,,,,,,,,,,,
null,,thebreak,374415,break,,null,,,,,,,,,,,,,,,,,,,
16558.10000000149,,familiar_rating,390976,Newport News,,53,Newport News,5,,,,,,,,,,,,,,,,,
null,,confidence_buffer,391079,confidence_buffer,,null,,,,,,,,,,,,,,,,,,,
2380.5,,unique_rating,393461,Newport News,,52,,4,,,,,,,,,,,,,,,,,
null,,confidence_buffer,393562,confidence_buffer,,null,,,,,,,,,,,,,,,,,,,
790,,memorable_rating,394353,Newport News,,53,,5,,,,,,,,,,,,,,,,,
null,,confidence_buffer,394455,confidence_buffer,,null,,,,,,,,,,,,,,,,,,,
null,,thebreak,394957,break,,null,,,,,,,,,,,,,,,,,,,
5157.89999999851,,familiar_rating,400116,Youngstown,,51,Youngstown,3,,,,,,,,,,,,,,,,,
null,,confidence_buffer,400219,confidence_buffer,,null,,,,,,,,,,,,,,,,,,,
657.5,,unique_rating,400880,Youngstown,,50,,2,,,,,,,,,,,,,,,,,
null,,confidence_buffer,400984,confidence_buffer,,null,,,,,,,,,,,,,,,,,,,
134.30000000447035,,memorable_rating,401121,Youngstown,,49,,1,,,,,,,,,,,,,,,,,
null,,confidence_buffer,401225,confidence_buffer,,null,,,,,,,,,,,,,,,,,,,
null,,thebreak,401740,break,,null,,,,,,,,,,,,,,,,,,,
9767.60000000149,,familiar_rating,411510,Las Cruces,,52,Las Cruces,4,,,,,,,,,,,,,,,,,
null,,confidence_buffer,411614,confidence_buffer,,null,,,,,,,,,,,,,,,,,,,
2110.7999999970198,,unique_rating,413728,Las Cruces,,53,,5,,,,,,,,,,,,,,,,,
null,,confidence_buffer,413832,confidence_buffer,,null,,,,,,,,,,,,,,,,,,,
422.70000000298023,,memorable_rating,414259,Las Cruces,,51,,3,,,,,,,,,,,,,,,,,
null,,confidence_buffer,414361,confidence_buffer,,null,,,,,,,,,,,,,,,,,,,
null,,thebreak,414865,break,,null,,,,,,,,,,,,,,,,,,,
43316.80000000447,,familiar_rating,458185,Gainesville,,52,Gainesville,4,,,,,,,,,,,,,,,,,
null,,confidence_buffer,458286,confidence_buffer,,null,,,,,,,,,,,,,,,,,,,
985.2999999970198,,unique_rating,459273,Gainesville,,51,,3,,,,,,,,,,,,,,,,,
null,,confidence_buffer,459377,confidence_buffer,,null,,,,,,,,,,,,,,,,,,,
327.3999999985099,,memorable_rating,459705,Gainesville,,52,,4,,,,,,,,,,,,,,,,,
null,,confidence_buffer,459807,confidence_buffer,,null,,,,,,,,,,,,,,,,,,,
null,,thebreak,460308,break,,null,,,,,,,,,,,,,,,,,,,
1761.2999999970198,,familiar_rating,462072,Yakima,,53,Yakima,5,,,,,,,,,,,,,,,,,
null,,confidence_buffer,462175,confidence_buffer,,null,,,,,,,,,,,,,,,,,,,
916.5,,unique_rating,463093,Yakima,,51,,3,,,,,,,,,,,,,,,,,
null,,confidence_buffer,463196,confidence_buffer,,null,,,,,,,,,,,,,,,,,,,
1471.3999999985099,,memorable_rating,464669,Yakima,,51,,3,,,,,,,,,,,,,,,,,
null,,confidence_buffer,464772,confidence_buffer,,null,,,,,,,,,,,,,,,,,,,
null,,thebreak,465276,break,,null,,,,,,,,,,,,,,,,,,,
2404.6999999955297,,familiar_rating,467684,Olympia,,53,Olympia,5,,,,,,,,,,,,,,,,,
null,,confidence_buffer,467787,confidence_buffer,,null,,,,,,,,,,,,,,,,,,,
264.80000000447035,,unique_rating,468053,Olympia,,52,,4,,,,,,,,,,,,,,,,,
null,,confidence_buffer,468154,confidence_buffer,,null,,,,,,,,,,,,,,,,,,,
507.29999999701977,,memorable_rating,468663,Olympia,,51,,3,,,,,,,,,,,,,,,,,
null,,confidence_buffer,468765,confidence_buffer,,null,,,,,,,,,,,,,,,,,,,
null,,thebreak,469266,break,,null,,,,,,,,,,,,,,,,,,,
2018.5,,familiar_rating,471286,Rock Springs,,53,Rock Springs,5,,,,,,,,,,,,,,,,,
null,,confidence_buffer,471388,confidence_buffer,,null,,,,,,,,,,,,,,,,,,,
877.2999999970198,,unique_rating,472266,Rock Springs,,51,,3,,,,,,,,,,,,,,,,,
null,,confidence_buffer,472369,confidence_buffer,,null,,,,,,,,,,,,,,,,,,,
113.70000000298023,,memorable_rating,472484,Rock Springs,,52,,4,,,,,,,,,,,,,,,,,
null,,confidence_buffer,472587,confidence_buffer,,null,,,,,,,,,,,,,,,,,,,
null,,thebreak,473089,break,,null,,,,,,,,,,,,,,,,,,,
3883,,familiar_rating,476973,Scottsdale,,50,Scottsdale,2,,,,,,,,,,,,,,,,,
null,,confidence_buffer,477075,confidence_buffer,,null,,,,,,,,,,,,,,,,,,,
1872.8000000044703,,unique_rating,478949,Scottsdale,,51,,3,,,,,,,,,,,,,,,,,
null,,confidence_buffer,479050,confidence_buffer,,null,,,,,,,,,,,,,,,,,,,
2206.60000000149,,memorable_rating,481258,Scottsdale,,49,,1,,,,,,,,,,,,,,,,,
null,,confidence_buffer,481361,confidence_buffer,,null,,,,,,,,,,,,,,,,,,,
null,,thebreak,481874,break,,null,,,,,,,,,,,,,,,,,,,
5848.60000000149,,familiar_rating,487724,Peoria,,50,Peoria,2,,,,,,,,,,,,,,,,,
null,,confidence_buffer,487826,confidence_buffer,,null,,,,,,,,,,,,,,,,,,,
4059.7999999970198,,unique_rating,491887,Peoria,,49,,1,,,,,,,,,,,,,,,,,
null,,confidence_buffer,491989,confidence_buffer,,null,,,,,,,,,,,,,,,,,,,
175.40000000596046,,memorable_rating,492166,Peoria,,49,,1,,,,,,,,,,,,,,,,,
null,,confidence_buffer,492267,confidence_buffer,,null,,,,,,,,,,,,,,,,,,,
null,,thebreak,492769,break,,null,,,,,,,,,,,,,,,,,,,
31986,,familiar_rating,524756,Ann Arbor,,53,Ann Arbor,5,,,,,,,,,,,,,,,,,
null,,confidence_buffer,524858,confidence_buffer,,null,,,,,,,,,,,,,,,,,,,
2107.7999999970198,,unique_rating,526967,Ann Arbor,,52,,4,,,,,,,,,,,,,,,,,
null,,confidence_buffer,527069,confidence_buffer,,null,,,,,,,,,,,,,,,,,,,
2876.7999999970198,,memorable_rating,529947,Ann Arbor,,53,,5,,,,,,,,,,,,,,,,,
null,,confidence_buffer,530048,confidence_buffer,,null,,,,,,,,,,,,,,,,,,,
null,,thebreak,530549,break,,null,,,,,,,,,,,,,,,,,,,
3422.7999999970198,,familiar_rating,533974,Pasadena,,53,Pasadena,5,,,,,,,,,,,,,,,,,
null,,confidence_buffer,534076,confidence_buffer,,null,,,,,,,,,,,,,,,,,,,
2496.89999999851,,unique_rating,536575,Pasadena,,51,,3,,,,,,,,,,,,,,,,,
null,,confidence_buffer,536677,confidence_buffer,,null,,,,,,,,,,,,,,,,,,,
873.1999999955297,,memorable_rating,537551,Pasadena,,52,,4,,,,,,,,,,,,,,,,,
null,,confidence_buffer,537654,confidence_buffer,,null,,,,,,,,,,,,,,,,,,,
null,,thebreak,538156,break,,null,,,,,,,,,,,,,,,,,,,
3352.4000000059605,,familiar_rating,541510,McKinney,,52,McKinney,4,,,,,,,,,,,,,,,,,
null,,confidence_buffer,541615,confidence_buffer,,null,,,,,,,,,,,,,,,,,,,
2896.7999999970198,,unique_rating,544514,McKinney,,53,,5,,,,,,,,,,,,,,,,,
null,,confidence_buffer,544617,confidence_buffer,,null,,,,,,,,,,,,,,,,,,,
876.2000000029802,,memorable_rating,545494,McKinney,,53,,5,,,,,,,,,,,,,,,,,
null,,confidence_buffer,545598,confidence_buffer,,null,,,,,,,,,,,,,,,,,,,
null,,thebreak,546099,break,,null,,,,,,,,,,,,,,,,,,,
3559,,familiar_rating,549660,Fargo,,51,Fargo,3,,,,,,,,,,,,,,,,,
null,,confidence_buffer,549765,confidence_buffer,,null,,,,,,,,,,,,,,,,,,,
4112.4000000059605,,unique_rating,553880,Fargo,,50,,2,,,,,,,,,,,,,,,,,
null,,confidence_buffer,553982,confidence_buffer,,null,,,,,,,,,,,,,,,,,,,
246,,memorable_rating,554229,Fargo,,49,,1,,,,,,,,,,,,,,,,,
null,,confidence_buffer,554331,confidence_buffer,,null,,,,,,,,,,,,,,,,,,,
null,,thebreak,554834,break,,null,,,,,,,,,,,,,,,,,,,
41384.79999999702,,intro_0,596221,instruct,,32,,,,,,,,,,,,,,,,,,,
60688.30000000447,,intro_1,656910,instruct,,32,,,,,,,,,,,,,,,,,,,
36831.60000000149,,intro_2,693743,instruct,,32,,,,,,,,,,,,,,,,,,,
null,,instruct_dir_4,695255,instruct,,null,,,,,,,,,,,,,,,,,,,
30155.29999999702,,realistic_rating,725412,Pueblo,,52,Pueblo,4,,,,,,,,,,,,,,,,,
null,,confidence_buffer,725515,confidence_buffer,,null,,,,,,,,,,,,,,,,,,,
7697.4000000059605,,pt2_unique_rating,733214,Pueblo,,51,,3,,,,,,,,,,,,,,,,,
null,,confidence_buffer,733316,confidence_buffer,,null,,,,,,,,,,,,,,,,,,,
4163.89999999851,,pt2_memorable_rating,737481,Pueblo,,51,,3,,,,,,,,,,,,,,,,,
null,,confidence_buffer,737582,confidence_buffer,,null,,,,,,,,,,,,,,,,,,,
6112.20000000298,,recognition_phase,743697,Pueblo,,52,,,,,new,1,1,,,,,,,,,,,,
null,,confidence_buffer,743799,confidence_buffer,,null,,,,,,,,,,,,,,,,,,,
null,,thebreak,744300,break,,null,,,,,,,,,,,,,,,,,,,
4097.10000000149,,realistic_rating,748399,Stamford,,52,Stamford,4,,,,,,,,,,,,,,,,,
null,,confidence_buffer,748502,confidence_buffer,,null,,,,,,,,,,,,,,,,,,,
3315,,pt2_unique_rating,751819,Stamford,,53,,5,,,,,,,,,,,,,,,,,
null,,confidence_buffer,751921,confidence_buffer,,null,,,,,,,,,,,,,,,,,,,
4490.20000000298,,pt2_memorable_rating,756412,Stamford,,51,,3,,,,,,,,,,,,,,,,,
null,,confidence_buffer,756514,confidence_buffer,,null,,,,,,,,,,,,,,,,,,,
6467.80000000447,,recognition_phase,762983,Stamford,,50,,,,,old,0,0.5,,,,,,,,,,,,
null,,confidence_buffer,763085,confidence_buffer,,null,,,,,,,,,,,,,,,,,,,
null,,thebreak,763587,break,,null,,,,,,,,,,,,,,,,,,,
11613.70000000298,,realistic_rating,775204,Peoria,,51,Peoria,3,,,,,,,,,,,,,,,,,
null,,confidence_buffer,775305,confidence_buffer,,null,,,,,,,,,,,,,,,,,,,
3204.5999999940395,,pt2_unique_rating,778511,Peoria,,50,,2,,,,,,,,,,,,,,,,,
null,,confidence_buffer,778614,confidence_buffer,,null,,,,,,,,,,,,,,,,,,,
2252.89999999851,,pt2_memorable_rating,780868,Peoria,,49,,1,,,,,,,,,,,,,,,,,
null,,confidence_buffer,780969,confidence_buffer,,null,,,,,,,,,,,,,,,,,,,
2585.0999999940395,,recognition_phase,783556,Peoria,,49,,,,,old,1,0.6666666666666666,,,,,,,,,,,,
null,,confidence_buffer,783657,confidence_buffer,,null,,,,,,,,,,,,,,,,,,,
null,,thebreak,784158,break,,null,,,,,,,,,,,,,,,,,,,
40562.89999999851,,realistic_rating,824723,Scottsdale,,52,Scottsdale,4,,,,,,,,,,,,,,,,,
null,,confidence_buffer,824827,confidence_buffer,,null,,,,,,,,,,,,,,,,,,,
4817.69999999553,,pt2_unique_rating,829646,Scottsdale,,51,,3,,,,,,,,,,,,,,,,,
null,,confidence_buffer,829748,confidence_buffer,,null,,,,,,,,,,,,,,,,,,,
7442.20000000298,,pt2_memorable_rating,837192,Scottsdale,,52,,4,,,,,,,,,,,,,,,,,
null,,confidence_buffer,837294,confidence_buffer,,null,,,,,,,,,,,,,,,,,,,
1886.1000000014901,,recognition_phase,839181,Scottsdale,,49,,,,,old,1,0.75,,,,,,,,,,,,
null,,confidence_buffer,839283,confidence_buffer,,null,,,,,,,,,,,,,,,,,,,
null,,thebreak,839785,break,,null,,,,,,,,,,,,,,,,,,,
4633.5,,realistic_rating,844420,Marquette,,50,Marquette,2,,,,,,,,,,,,,,,,,
null,,confidence_buffer,844522,confidence_buffer,,null,,,,,,,,,,,,,,,,,,,
2193.7999999970198,,pt2_unique_rating,846718,Marquette,,51,,3,,,,,,,,,,,,,,,,,
null,,confidence_buffer,846820,confidence_buffer,,null,,,,,,,,,,,,,,,,,,,
1361.6000000014901,,pt2_memorable_rating,848183,Marquette,,49,,1,,,,,,,,,,,,,,,,,
null,,confidence_buffer,848286,confidence_buffer,,null,,,,,,,,,,,,,,,,,,,
3038.2000000029802,,recognition_phase,851325,Marquette,,52,,,,,new,1,0.8,,,,,,,,,,,,
null,,confidence_buffer,851427,confidence_buffer,,null,,,,,,,,,,,,,,,,,,,
null,,thebreak,851930,break,,null,,,,,,,,,,,,,,,,,,,
5601.79999999702,,realistic_rating,857534,Ithaca,,52,Ithaca,4,,,,,,,,,,,,,,,,,
null,,confidence_buffer,857638,confidence_buffer,,null,,,,,,,,,,,,,,,,,,,
1269.7000000029802,,pt2_unique_rating,858908,Ithaca,,52,,4,,,,,,,,,,,,,,,,,
null,,confidence_buffer,859009,confidence_buffer,,null,,,,,,,,,,,,,,,,,,,
1770.7000000029802,,pt2_memorable_rating,860783,Ithaca,,51,,3,,,,,,,,,,,,,,,,,
null,,confidence_buffer,860901,confidence_buffer,,null,,,,,,,,,,,,,,,,,,,
4466.80000000447,,recognition_phase,865372,Ithaca,,52,,,,,new,1,0.8333333333333334,,,,,,,,,,,,
null,,confidence_buffer,865477,confidence_buffer,,null,,,,,,,,,,,,,,,,,,,
null,,thebreak,865978,break,,null,,,,,,,,,,,,,,,,,,,
6937.9000000059605,,realistic_rating,872918,Annapolis,,52,Annapolis,4,,,,,,,,,,,,,,,,,
null,,confidence_buffer,873019,confidence_buffer,,null,,,,,,,,,,,,,,,,,,,
3089.7000000029802,,pt2_unique_rating,876110,Annapolis,,51,,3,,,,,,,,,,,,,,,,,
null,,confidence_buffer,876213,confidence_buffer,,null,,,,,,,,,,,,,,,,,,,
1778.7000000029802,,pt2_memorable_rating,877993,Annapolis,,52,,4,,,,,,,,,,,,,,,,,
null,,confidence_buffer,878096,confidence_buffer,,null,,,,,,,,,,,,,,,,,,,
2329.4000000059605,,recognition_phase,880427,Annapolis,,49,,,,,old,1,0.8571428571428571,,,,,,,,,,,,
null,,confidence_buffer,880529,confidence_buffer,,null,,,,,,,,,,,,,,,,,,,
null,,thebreak,881042,break,,null,,,,,,,,,,,,,,,,,,,
5292.89999999851,,realistic_rating,886336,Fort Collins,,52,Fort Collins,4,,,,,,,,,,,,,,,,,
null,,confidence_buffer,886439,confidence_buffer,,null,,,,,,,,,,,,,,,,,,,
4791,,pt2_unique_rating,891231,Fort Collins,,51,,3,,,,,,,,,,,,,,,,,
null,,confidence_buffer,891333,confidence_buffer,,null,,,,,,,,,,,,,,,,,,,
4567.69999999553,,pt2_memorable_rating,895903,Fort Collins,,50,,2,,,,,,,,,,,,,,,,,
null,,confidence_buffer,896013,confidence_buffer,,null,,,,,,,,,,,,,,,,,,,
2908.2000000029802,,recognition_phase,898923,Fort Collins,,50,,,,,old,0,0.75,,,,,,,,,,,,
null,,confidence_buffer,899025,confidence_buffer,,null,,,,,,,,,,,,,,,,,,,
null,,thebreak,899527,break,,null,,,,,,,,,,,,,,,,,,,
4004.89999999851,,realistic_rating,903533,Syracuse,,53,Syracuse,5,,,,,,,,,,,,,,,,,
null,,confidence_buffer,903635,confidence_buffer,,null,,,,,,,,,,,,,,,,,,,
2530.2999999970198,,pt2_unique_rating,906167,Syracuse,,51,,3,,,,,,,,,,,,,,,,,
null,,confidence_buffer,906269,confidence_buffer,,null,,,,,,,,,,,,,,,,,,,
3818.3000000044703,,probe_rating,910088,probe_rating,,52,,,4,1,,,,,,,,,,,,,,,
null,,confidence_buffer,910190,confidence_buffer,,null,,,,,,,,,,,,,,,,,,,
4011.7999999970198,,pt2_memorable_rating,914204,Syracuse,,52,,4,,,,,,,,,,,,,,,,,
null,,confidence_buffer,914306,confidence_buffer,,null,,,,,,,,,,,,,,,,,,,
4286.89999999851,,recognition_phase,918594,Syracuse,,49,,,,,old,1,0.7777777777777778,,,,,,,,,,,,
null,,confidence_buffer,918696,confidence_buffer,,null,,,,,,,,,,,,,,,,,,,
null,,thebreak,919197,break,,null,,,,,,,,,,,,,,,,,,,
3810.2000000029802,,realistic_rating,923009,Cambridge,,53,Cambridge,5,,,,,,,,,,,,,,,,,
null,,confidence_buffer,923111,confidence_buffer,,null,,,,,,,,,,,,,,,,,,,
3000,,pt2_unique_rating,926115,Cambridge,,52,,4,,,,,,,,,,,,,,,,,
null,,confidence_buffer,926233,confidence_buffer,,null,,,,,,,,,,,,,,,,,,,
2888.5,,pt2_memorable_rating,929123,Cambridge,,53,,5,,,,,,,,,,,,,,,,,
null,,confidence_buffer,929224,confidence_buffer,,null,,,,,,,,,,,,,,,,,,,
2151.5,,recognition_phase,931377,Cambridge,,49,,,,,old,1,0.8,,,,,,,,,,,,
null,,confidence_buffer,931478,confidence_buffer,,null,,,,,,,,,,,,,,,,,,,
null,,thebreak,931980,break,,null,,,,,,,,,,,,,,,,,,,
3653.60000000149,,realistic_rating,935635,Tallahassee,,51,Tallahassee,3,,,,,,,,,,,,,,,,,
null,,confidence_buffer,935738,confidence_buffer,,null,,,,,,,,,,,,,,,,,,,
1518.7000000029802,,pt2_unique_rating,937258,Tallahassee,,52,,4,,,,,,,,,,,,,,,,,
null,,confidence_buffer,937360,confidence_buffer,,null,,,,,,,,,,,,,,,,,,,
1413.5,,pt2_memorable_rating,938776,Tallahassee,,50,,2,,,,,,,,,,,,,,,,,
null,,confidence_buffer,938878,confidence_buffer,,null,,,,,,,,,,,,,,,,,,,
5028.89999999851,,recognition_phase,943908,Tallahassee,,52,,,,,new,1,0.8181818181818182,,,,,,,,,,,,
null,,confidence_buffer,944010,confidence_buffer,,null,,,,,,,,,,,,,,,,,,,
null,,thebreak,944512,break,,null,,,,,,,,,,,,,,,,,,,
3279.60000000149,,realistic_rating,947793,Decatur,,52,Decatur,4,,,,,,,,,,,,,,,,,
null,,confidence_buffer,947895,confidence_buffer,,null,,,,,,,,,,,,,,,,,,,
4164.60000000149,,probe_rating,952061,probe_rating,,51,,,3,0,,,,,,,,,,,,,,,
null,,confidence_buffer,952162,confidence_buffer,,null,,,,,,,,,,,,,,,,,,,
2428.7000000029802,,pt2_unique_rating,954592,Decatur,,51,,3,,,,,,,,,,,,,,,,,
null,,confidence_buffer,954694,confidence_buffer,,null,,,,,,,,,,,,,,,,,,,
2936.10000000149,,pt2_memorable_rating,957631,Decatur,,52,,4,,,,,,,,,,,,,,,,,
null,,confidence_buffer,957734,confidence_buffer,,null,,,,,,,,,,,,,,,,,,,
1891.6999999955297,,recognition_phase,959627,Decatur,,49,,,,,old,1,0.8333333333333334,,,,,,,,,,,,
null,,confidence_buffer,959729,confidence_buffer,,null,,,,,,,,,,,,,,,,,,,
null,,thebreak,960231,break,,null,,,,,,,,,,,,,,,,,,,
4790.80000000447,,realistic_rating,965023,Berkeley,,53,Berkeley,5,,,,,,,,,,,,,,,,,
null,,confidence_buffer,965125,confidence_buffer,,null,,,,,,,,,,,,,,,,,,,
1164.5,,probe_rating,966291,probe_rating,,52,,,4,1,,,,,,,,,,,,,,,
null,,confidence_buffer,966393,confidence_buffer,,null,,,,,,,,,,,,,,,,,,,
1581.1999999955297,,pt2_unique_rating,967976,Berkeley,,53,,5,,,,,,,,,,,,,,,,,
null,,confidence_buffer,968079,confidence_buffer,,null,,,,,,,,,,,,,,,,,,,
3645.4000000059605,,pt2_memorable_rating,971726,Berkeley,,52,,4,,,,,,,,,,,,,,,,,
null,,confidence_buffer,971829,confidence_buffer,,null,,,,,,,,,,,,,,,,,,,
2279.60000000149,,recognition_phase,974110,Berkeley,,52,,,,,new,0,0.7692307692307693,,,,,,,,,,,,
null,,confidence_buffer,974211,confidence_buffer,,null,,,,,,,,,,,,,,,,,,,
null,,thebreak,974713,break,,null,,,,,,,,,,,,,,,,,,,
2667.89999999851,,realistic_rating,977383,Altoona,,53,Altoona,5,,,,,,,,,,,,,,,,,
null,,confidence_buffer,977485,confidence_buffer,,null,,,,,,,,,,,,,,,,,,,
2067.89999999851,,pt2_unique_rating,979554,Altoona,,51,,3,,,,,,,,,,,,,,,,,
null,,confidence_buffer,979657,confidence_buffer,,null,,,,,,,,,,,,,,,,,,,
1477.5999999940395,,pt2_memorable_rating,981136,Altoona,,52,,4,,,,,,,,,,,,,,,,,
null,,confidence_buffer,981239,confidence_buffer,,null,,,,,,,,,,,,,,,,,,,
1980.1999999955297,,recognition_phase,983220,Altoona,,49,,,,,old,1,0.7857142857142857,,,,,,,,,,,,
null,,confidence_buffer,983323,confidence_buffer,,null,,,,,,,,,,,,,,,,,,,
null,,thebreak,983824,break,,null,,,,,,,,,,,,,,,,,,,
1778.6999999955297,,realistic_rating,985604,Athens,,53,Athens,5,,,,,,,,,,,,,,,,,
null,,confidence_buffer,985707,confidence_buffer,,null,,,,,,,,,,,,,,,,,,,
993.7999999970198,,pt2_unique_rating,986702,Athens,,53,,5,,,,,,,,,,,,,,,,,
null,,confidence_buffer,986804,confidence_buffer,,null,,,,,,,,,,,,,,,,,,,
2655.3000000044703,,pt2_memorable_rating,989460,Athens,,53,,5,,,,,,,,,,,,,,,,,
null,,confidence_buffer,989562,confidence_buffer,,null,,,,,,,,,,,,,,,,,,,
1869.6000000014901,,recognition_phase,991433,Athens,,49,,,,,old,1,0.8,,,,,,,,,,,,
null,,confidence_buffer,991535,confidence_buffer,,null,,,,,,,,,,,,,,,,,,,
null,,thebreak,992036,break,,null,,,,,,,,,,,,,,,,,,,
2960.60000000149,,realistic_rating,994998,Muncie,,52,Muncie,4,,,,,,,,,,,,,,,,,
null,,confidence_buffer,995101,confidence_buffer,,null,,,,,,,,,,,,,,,,,,,
3167.9000000059605,,pt2_unique_rating,998272,Muncie,,50,,2,,,,,,,,,,,,,,,,,
null,,confidence_buffer,998375,confidence_buffer,,null,,,,,,,,,,,,,,,,,,,
1312.8000000044703,,pt2_memorable_rating,999689,Muncie,,49,,1,,,,,,,,,,,,,,,,,
null,,confidence_buffer,999791,confidence_buffer,,null,,,,,,,,,,,,,,,,,,,
4491.4000000059605,,recognition_phase,1004284,Muncie,,52,,,,,new,1,0.8125,,,,,,,,,,,,
null,,confidence_buffer,1004386,confidence_buffer,,null,,,,,,,,,,,,,,,,,,,
null,,thebreak,1004887,break,,null,,,,,,,,,,,,,,,,,,,
4087.2000000029802,,realistic_rating,1008976,Helena,,52,Helena,4,,,,,,,,,,,,,,,,,
null,,confidence_buffer,1009079,confidence_buffer,,null,,,,,,,,,,,,,,,,,,,
1269,,pt2_unique_rating,1010350,Helena,,52,,4,,,,,,,,,,,,,,,,,
null,,confidence_buffer,1010451,confidence_buffer,,null,,,,,,,,,,,,,,,,,,,
2842.2999999970198,,pt2_memorable_rating,1013295,Helena,,51,,3,,,,,,,,,,,,,,,,,
null,,confidence_buffer,1013398,confidence_buffer,,null,,,,,,,,,,,,,,,,,,,
5673.60000000149,,recognition_phase,1019073,Helena,,49,,,,,old,1,0.8235294117647058,,,,,,,,,,,,
null,,confidence_buffer,1019175,confidence_buffer,,null,,,,,,,,,,,,,,,,,,,
null,,thebreak,1019677,break,,null,,,,,,,,,,,,,,,,,,,
4021.9000000059605,,realistic_rating,1023700,Olympia,,53,Olympia,5,,,,,,,,,,,,,,,,,
null,,confidence_buffer,1023803,confidence_buffer,,null,,,,,,,,,,,,,,,,,,,
2388.5,,pt2_unique_rating,1026193,Olympia,,51,,3,,,,,,,,,,,,,,,,,
null,,confidence_buffer,1026294,confidence_buffer,,null,,,,,,,,,,,,,,,,,,,
1075.6000000014901,,pt2_memorable_rating,1027371,Olympia,,52,,4,,,,,,,,,,,,,,,,,
null,,confidence_buffer,1027474,confidence_buffer,,null,,,,,,,,,,,,,,,,,,,
3402.4000000059605,,probe_rating,1030877,probe_rating,,49,,,1,1,,,,,,,,,,,,,,,
null,,confidence_buffer,1030978,confidence_buffer,,null,,,,,,,,,,,,,,,,,,,
2041.3999999985099,,recognition_phase,1033021,Olympia,,49,,,,,old,1,0.8333333333333334,,,,,,,,,,,,
null,,confidence_buffer,1033123,confidence_buffer,,null,,,,,,,,,,,,,,,,,,,
null,,thebreak,1033624,break,,null,,,,,,,,,,,,,,,,,,,
2049.3000000044703,,realistic_rating,1035675,New Haven,,53,New Haven,5,,,,,,,,,,,,,,,,,
null,,confidence_buffer,1035777,confidence_buffer,,null,,,,,,,,,,,,,,,,,,,
3568.2999999970198,,pt2_unique_rating,1039346,New Haven,,51,,3,,,,,,,,,,,,,,,,,
null,,confidence_buffer,1039449,confidence_buffer,,null,,,,,,,,,,,,,,,,,,,
1110.5,,pt2_memorable_rating,1040561,New Haven,,52,,4,,,,,,,,,,,,,,,,,
null,,confidence_buffer,1040662,confidence_buffer,,null,,,,,,,,,,,,,,,,,,,
1436.5999999940395,,recognition_phase,1042100,New Haven,,49,,,,,old,0,0.7894736842105263,,,,,,,,,,,,
null,,confidence_buffer,1042204,confidence_buffer,,null,,,,,,,,,,,,,,,,,,,
null,,thebreak,1042706,break,,null,,,,,,,,,,,,,,,,,,,
3074.5999999940395,,realistic_rating,1045782,Hagerstown,,51,Hagerstown,3,,,,,,,,,,,,,,,,,
null,,confidence_buffer,1045884,confidence_buffer,,null,,,,,,,,,,,,,,,,,,,
1764.5,,pt2_unique_rating,1047649,Hagerstown,,53,,5,,,,,,,,,,,,,,,,,
null,,confidence_buffer,1047752,confidence_buffer,,null,,,,,,,,,,,,,,,,,,,
947.7999999970198,,pt2_memorable_rating,1048701,Hagerstown,,52,,4,,,,,,,,,,,,,,,,,
null,,confidence_buffer,1048803,confidence_buffer,,null,,,,,,,,,,,,,,,,,,,
6518.39999999851,,recognition_phase,1055323,Hagerstown,,52,,,,,new,1,0.8,,,,,,,,,,,,
null,,confidence_buffer,1055424,confidence_buffer,,null,,,,,,,,,,,,,,,,,,,
null,,thebreak,1055925,break,,null,,,,,,,,,,,,,,,,,,,
4243.70000000298,,realistic_rating,1060171,Youngstown,,52,Youngstown,4,,,,,,,,,,,,,,,,,
null,,confidence_buffer,1060273,confidence_buffer,,null,,,,,,,,,,,,,,,,,,,
609.5,,pt2_unique_rating,1060884,Youngstown,,51,,3,,,,,,,,,,,,,,,,,
null,,confidence_buffer,1060986,confidence_buffer,,null,,,,,,,,,,,,,,,,,,,
637.1000000014901,,pt2_memorable_rating,1061624,Youngstown,,50,,2,,,,,,,,,,,,,,,,,
null,,confidence_buffer,1061727,confidence_buffer,,null,,,,,,,,,,,,,,,,,,,
3922.6999999955297,,recognition_phase,1065651,Youngstown,,51,,,,,new,0,0.7619047619047619,,,,,,,,,,,,
null,,confidence_buffer,1065752,confidence_buffer,,null,,,,,,,,,,,,,,,,,,,
null,,thebreak,1066255,break,,null,,,,,,,,,,,,,,,,,,,
2759.60000000149,,realistic_rating,1069016,Frankfort,,53,Frankfort,5,,,,,,,,,,,,,,,,,
null,,confidence_buffer,1069118,confidence_buffer,,null,,,,,,,,,,,,,,,,,,,
3532.2999999970198,,pt2_unique_rating,1072651,Frankfort,,51,,3,,,,,,,,,,,,,,,,,
null,,confidence_buffer,1072757,confidence_buffer,,null,,,,,,,,,,,,,,,,,,,
479,,pt2_memorable_rating,1073238,Frankfort,,53,,5,,,,,,,,,,,,,,,,,
null,,confidence_buffer,1073340,confidence_buffer,,null,,,,,,,,,,,,,,,,,,,
1781.3999999985099,,recognition_phase,1075123,Frankfort,,49,,,,,old,0,0.7272727272727273,,,,,,,,,,,,
null,,confidence_buffer,1075225,confidence_buffer,,null,,,,,,,,,,,,,,,,,,,
null,,thebreak,1075728,break,,null,,,,,,,,,,,,,,,,,,,
2862.6999999955297,,realistic_rating,1078592,Las Cruces,,52,Las Cruces,4,,,,,,,,,,,,,,,,,
null,,confidence_buffer,1078694,confidence_buffer,,null,,,,,,,,,,,,,,,,,,,
943.1000000014901,,probe_rating,1079638,probe_rating,,51,,,3,0,,,,,,,,,,,,,,,
null,,confidence_buffer,1079741,confidence_buffer,,null,,,,,,,,,,,,,,,,,,,
317.80000000447035,,pt2_unique_rating,1080059,Las Cruces,,52,,4,,,,,,,,,,,,,,,,,
null,,confidence_buffer,1080161,confidence_buffer,,null,,,,,,,,,,,,,,,,,,,
2404.7000000029802,,pt2_memorable_rating,1082567,Las Cruces,,51,,3,,,,,,,,,,,,,,,,,
null,,confidence_buffer,1082668,confidence_buffer,,null,,,,,,,,,,,,,,,,,,,
2144.6999999955297,,recognition_phase,1084814,Las Cruces,,49,,,,,old,1,0.7391304347826086,,,,,,,,,,,,
null,,confidence_buffer,1084916,confidence_buffer,,null,,,,,,,,,,,,,,,,,,,
null,,thebreak,1085417,break,,null,,,,,,,,,,,,,,,,,,,
2512.60000000149,,realistic_rating,1087931,Norfolk,,53,Norfolk,5,,,,,,,,,,,,,,,,,
null,,confidence_buffer,1088034,confidence_buffer,,null,,,,,,,,,,,,,,,,,,,
769.6999999955297,,pt2_unique_rating,1088805,Norfolk,,52,,4,,,,,,,,,,,,,,,,,
null,,confidence_buffer,1088907,confidence_buffer,,null,,,,,,,,,,,,,,,,,,,
3665.89999999851,,pt2_memorable_rating,1092574,Norfolk,,51,,3,,,,,,,,,,,,,,,,,
null,,confidence_buffer,1092676,confidence_buffer,,null,,,,,,,,,,,,,,,,,,,
3535.2999999970198,,recognition_phase,1096213,Norfolk,,49,,,,,old,1,0.75,,,,,,,,,,,,
null,,confidence_buffer,1096314,confidence_buffer,,null,,,,,,,,,,,,,,,,,,,
null,,thebreak,1096816,break,,null,,,,,,,,,,,,,,,,,,,
4164.69999999553,,realistic_rating,1100982,Gainesville,,51,Gainesville,3,,,,,,,,,,,,,,,,,
null,,confidence_buffer,1101085,confidence_buffer,,null,,,,,,,,,,,,,,,,,,,
1105.8999999985099,,pt2_unique_rating,1102191,Gainesville,,50,,2,,,,,,,,,,,,,,,,,
null,,confidence_buffer,1102294,confidence_buffer,,null,,,,,,,,,,,,,,,,,,,
469.8999999985099,,pt2_memorable_rating,1102765,Gainesville,,51,,3,,,,,,,,,,,,,,,,,
null,,confidence_buffer,1102866,confidence_buffer,,null,,,,,,,,,,,,,,,,,,,
3340.2999999970198,,recognition_phase,1106209,Gainesville,,52,,,,,new,0,0.72,,,,,,,,,,,,
null,,confidence_buffer,1106312,confidence_buffer,,null,,,,,,,,,,,,,,,,,,,
null,,thebreak,1106813,break,,null,,,,,,,,,,,,,,,,,,,
4283.20000000298,,realistic_rating,1111097,Topeka,,52,Topeka,4,,,,,,,,,,,,,,,,,
null,,confidence_buffer,1111199,confidence_buffer,,null,,,,,,,,,,,,,,,,,,,
1277.4000000059605,,pt2_unique_rating,1112478,Topeka,,50,,2,,,,,,,,,,,,,,,,,
null,,confidence_buffer,1112580,confidence_buffer,,null,,,,,,,,,,,,,,,,,,,
528.6000000014901,,pt2_memorable_rating,1113110,Topeka,,51,,3,,,,,,,,,,,,,,,,,
null,,confidence_buffer,1113212,confidence_buffer,,null,,,,,,,,,,,,,,,,,,,
4339.20000000298,,recognition_phase,1117553,Topeka,,52,,,,,new,1,0.7307692307692307,,,,,,,,,,,,
null,,confidence_buffer,1117655,confidence_buffer,,null,,,,,,,,,,,,,,,,,,,
null,,thebreak,1118157,break,,null,,,,,,,,,,,,,,,,,,,
3252.7999999970198,,realistic_rating,1121412,Palo Alto,,52,Palo Alto,4,,,,,,,,,,,,,,,,,
null,,confidence_buffer,1121516,confidence_buffer,,null,,,,,,,,,,,,,,,,,,,
2655.39999999851,,pt2_unique_rating,1124172,Palo Alto,,53,,5,,,,,,,,,,,,,,,,,
null,,confidence_buffer,1124275,confidence_buffer,,null,,,,,,,,,,,,,,,,,,,
709.0999999940395,,pt2_memorable_rating,1124986,Palo Alto,,51,,3,,,,,,,,,,,,,,,,,
null,,confidence_buffer,1125088,confidence_buffer,,null,,,,,,,,,,,,,,,,,,,
3286.2000000029802,,recognition_phase,1128375,Palo Alto,,49,,,,,old,0,0.7037037037037037,,,,,,,,,,,,
null,,confidence_buffer,1128478,confidence_buffer,,null,,,,,,,,,,,,,,,,,,,
null,,thebreak,1128979,break,,null,,,,,,,,,,,,,,,,,,,
3401.8000000044703,,realistic_rating,1132384,Salem,,52,Salem,4,,,,,,,,,,,,,,,,,
null,,confidence_buffer,1132488,confidence_buffer,,null,,,,,,,,,,,,,,,,,,,
202.39999999850988,,pt2_unique_rating,1132692,Salem,,51,,3,,,,,,,,,,,,,,,,,
null,,confidence_buffer,1132795,confidence_buffer,,null,,,,,,,,,,,,,,,,,,,
1379.1999999955297,,pt2_memorable_rating,1134176,Salem,,52,,4,,,,,,,,,,,,,,,,,
null,,confidence_buffer,1134278,confidence_buffer,,null,,,,,,,,,,,,,,,,,,,
4385.10000000149,,recognition_phase,1138664,Salem,,49,,,,,old,1,0.7142857142857143,,,,,,,,,,,,
null,,confidence_buffer,1138766,confidence_buffer,,null,,,,,,,,,,,,,,,,,,,
null,,thebreak,1139269,break,,null,,,,,,,,,,,,,,,,,,,
3372.60000000149,,realistic_rating,1142642,Boise,,50,Boise,2,,,,,,,,,,,,,,,,,
null,,confidence_buffer,1142748,confidence_buffer,,null,,,,,,,,,,,,,,,,,,,
1072.2999999970198,,pt2_unique_rating,1143822,Boise,,49,,1,,,,,,,,,,,,,,,,,
null,,confidence_buffer,1143925,confidence_buffer,,null,,,,,,,,,,,,,,,,,,,
3174.10000000149,,pt2_memorable_rating,1147101,Boise,,49,,1,,,,,,,,,,,,,,,,,
null,,confidence_buffer,1147202,confidence_buffer,,null,,,,,,,,,,,,,,,,,,,
2947.0999999940395,,probe_rating,1150150,probe_rating,,53,,,5,1,,,,,,,,,,,,,,,
null,,confidence_buffer,1150251,confidence_buffer,,null,,,,,,,,,,,,,,,,,,,
24045.10000000149,,recognition_phase,1174299,Boise,,52,,,,,new,1,0.7241379310344828,,,,,,,,,,,,
null,,confidence_buffer,1174418,confidence_buffer,,null,,,,,,,,,,,,,,,,,,,
null,,thebreak,1174920,break,,null,,,,,,,,,,,,,,,,,,,
4806.19999999553,,realistic_rating,1179728,Rock Springs,,52,Rock Springs,4,,,,,,,,,,,,,,,,,
null,,confidence_buffer,1179830,confidence_buffer,,null,,,,,,,,,,,,,,,,,,,
399.29999999701977,,pt2_unique_rating,1180231,Rock Springs,,51,,3,,,,,,,,,,,,,,,,,
null,,confidence_buffer,1180333,confidence_buffer,,null,,,,,,,,,,,,,,,,,,,
102.60000000149012,,pt2_memorable_rating,1180437,Rock Springs,,53,,5,,,,,,,,,,,,,,,,,
null,,confidence_buffer,1180539,confidence_buffer,,null,,,,,,,,,,,,,,,,,,,
4102,,recognition_phase,1184643,Rock Springs,,49,,,,,old,1,0.7333333333333333,,,,,,,,,,,,
null,,confidence_buffer,1184745,confidence_buffer,,null,,,,,,,,,,,,,,,,,,,
null,,thebreak,1185246,break,,null,,,,,,,,,,,,,,,,,,,
2648,,realistic_rating,1187896,Pasadena,,52,Pasadena,4,,,,,,,,,,,,,,,,,
null,,confidence_buffer,1187998,confidence_buffer,,null,,,,,,,,,,,,,,,,,,,
5386.70000000298,,probe_rating,1193386,probe_rating,,53,,,5,1,,,,,,,,,,,,,,,
null,,confidence_buffer,1193489,confidence_buffer,,null,,,,,,,,,,,,,,,,,,,
7640.19999999553,,pt2_unique_rating,1201131,Pasadena,,53,,5,,,,,,,,,,,,,,,,,
null,,confidence_buffer,1201241,confidence_buffer,,null,,,,,,,,,,,,,,,,,,,
2603.5,,pt2_memorable_rating,1203846,Pasadena,,52,,4,,,,,,,,,,,,,,,,,
null,,confidence_buffer,1203948,confidence_buffer,,null,,,,,,,,,,,,,,,,,,,
2436.10000000149,,recognition_phase,1206386,Pasadena,,49,,,,,old,1,0.7419354838709677,,,,,,,,,,,,
null,,confidence_buffer,1206488,confidence_buffer,,null,,,,,,,,,,,,,,,,,,,
null,,thebreak,1206990,break,,null,,,,,,,,,,,,,,,,,,,
4035.2000000029802,,realistic_rating,1211027,Dubuque,,51,Dubuque,3,,,,,,,,,,,,,,,,,
null,,confidence_buffer,1211129,confidence_buffer,,null,,,,,,,,,,,,,,,,,,,
1433.8999999985099,,pt2_unique_rating,1212564,Dubuque,,52,,4,,,,,,,,,,,,,,,,,
null,,confidence_buffer,1212667,confidence_buffer,,null,,,,,,,,,,,,,,,,,,,
3176.5,,pt2_memorable_rating,1215844,Dubuque,,50,,2,,,,,,,,,,,,,,,,,
null,,confidence_buffer,1215947,confidence_buffer,,null,,,,,,,,,,,,,,,,,,,
3395.5,,probe_rating,1219344,probe_rating,,51,,,3,1,,,,,,,,,,,,,,,
null,,confidence_buffer,1219445,confidence_buffer,,null,,,,,,,,,,,,,,,,,,,
7025.60000000149,,recognition_phase,1226472,Dubuque,,52,,,,,new,1,0.75,,,,,,,,,,,,
null,,confidence_buffer,1226574,confidence_buffer,,null,,,,,,,,,,,,,,,,,,,
null,,thebreak,1227076,break,,null,,,,,,,,,,,,,,,,,,,
4737.29999999702,,realistic_rating,1231814,Reno,,52,Reno,4,,,,,,,,,,,,,,,,,
null,,confidence_buffer,1231916,confidence_buffer,,null,,,,,,,,,,,,,,,,,,,
1438.1999999955297,,pt2_unique_rating,1233355,Reno,,51,,3,,,,,,,,,,,,,,,,,
null,,confidence_buffer,1233458,confidence_buffer,,null,,,,,,,,,,,,,,,,,,,
6037.5999999940395,,pt2_memorable_rating,1239497,Reno,,52,,4,,,,,,,,,,,,,,,,,
null,,confidence_buffer,1239599,confidence_buffer,,null,,,,,,,,,,,,,,,,,,,
9569.89999999851,,recognition_phase,1249171,Reno,,52,,,,,new,1,0.7575757575757576,,,,,,,,,,,,
null,,confidence_buffer,1249283,confidence_buffer,,null,,,,,,,,,,,,,,,,,,,
null,,thebreak,1249785,break,,null,,,,,,,,,,,,,,,,,,,
3214.60000000149,,realistic_rating,1253002,McKinney,,52,McKinney,4,,,,,,,,,,,,,,,,,
null,,confidence_buffer,1253106,confidence_buffer,,null,,,,,,,,,,,,,,,,,,,
1963.9000000059605,,pt2_unique_rating,1255072,McKinney,,51,,3,,,,,,,,,,,,,,,,,
null,,confidence_buffer,1255179,confidence_buffer,,null,,,,,,,,,,,,,,,,,,,
3249.1999999955297,,pt2_memorable_rating,1258430,McKinney,,52,,4,,,,,,,,,,,,,,,,,
null,,confidence_buffer,1258532,confidence_buffer,,null,,,,,,,,,,,,,,,,,,,
3831,,recognition_phase,1262364,McKinney,,49,,,,,old,1,0.7647058823529411,,,,,,,,,,,,
null,,confidence_buffer,1262467,confidence_buffer,,null,,,,,,,,,,,,,,,,,,,
null,,thebreak,1262969,break,,null,,,,,,,,,,,,,,,,,,,
3807.60000000149,,realistic_rating,1266779,Champaign,,50,Champaign,2,,,,,,,,,,,,,,,,,
null,,confidence_buffer,1266881,confidence_buffer,,null,,,,,,,,,,,,,,,,,,,
917.5,,pt2_unique_rating,1267799,Champaign,,49,,1,,,,,,,,,,,,,,,,,
null,,confidence_buffer,1267902,confidence_buffer,,null,,,,,,,,,,,,,,,,,,,
1567.6000000014901,,pt2_memorable_rating,1269470,Champaign,,49,,1,,,,,,,,,,,,,,,,,
null,,confidence_buffer,1269572,confidence_buffer,,null,,,,,,,,,,,,,,,,,,,
2543.10000000149,,recognition_phase,1272117,Champaign,,52,,,,,new,1,0.7714285714285715,,,,,,,,,,,,
null,,confidence_buffer,1272219,confidence_buffer,,null,,,,,,,,,,,,,,,,,,,
null,,thebreak,1272720,break,,null,,,,,,,,,,,,,,,,,,,
3799.39999999851,,realistic_rating,1276521,Newport News,,53,Newport News,5,,,,,,,,,,,,,,,,,
null,,confidence_buffer,1276623,confidence_buffer,,null,,,,,,,,,,,,,,,,,,,
1417.5,,pt2_unique_rating,1278041,Newport News,,51,,3,,,,,,,,,,,,,,,,,
null,,confidence_buffer,1278143,confidence_buffer,,null,,,,,,,,,,,,,,,,,,,
617.2000000029802,,pt2_memorable_rating,1278762,Newport News,,52,,4,,,,,,,,,,,,,,,,,
null,,confidence_buffer,1278866,confidence_buffer,,null,,,,,,,,,,,,,,,,,,,
3587.9000000059605,,recognition_phase,1282455,Newport News,,50,,,,,old,1,0.7777777777777778,,,,,,,,,,,,
null,,confidence_buffer,1282558,confidence_buffer,,null,,,,,,,,,,,,,,,,,,,
null,,thebreak,1283059,break,,null,,,,,,,,,,,,,,,,,,,
3208.2000000029802,,realistic_rating,1286269,Bozeman,,51,Bozeman,3,,,,,,,,,,,,,,,,,
null,,confidence_buffer,1286371,confidence_buffer,,null,,,,,,,,,,,,,,,,,,,
1510.2000000029802,,pt2_unique_rating,1287882,Bozeman,,49,,1,,,,,,,,,,,,,,,,,
null,,confidence_buffer,1287984,confidence_buffer,,null,,,,,,,,,,,,,,,,,,,
195.20000000298023,,probe_rating,1288180,probe_rating,,50,,,2,0,,,,,,,,,,,,,,,
null,,confidence_buffer,1288282,confidence_buffer,,null,,,,,,,,,,,,,,,,,,,
2746.7000000029802,,pt2_memorable_rating,1291030,Bozeman,,50,,2,,,,,,,,,,,,,,,,,
null,,confidence_buffer,1291132,confidence_buffer,,null,,,,,,,,,,,,,,,,,,,
2666.89999999851,,recognition_phase,1293800,Bozeman,,52,,,,,new,1,0.7837837837837838,,,,,,,,,,,,
null,,confidence_buffer,1293902,confidence_buffer,,null,,,,,,,,,,,,,,,,,,,
null,,thebreak,1294403,break,,null,,,,,,,,,,,,,,,,,,,
2468.39999999851,,realistic_rating,1296874,Dothan,,51,Dothan,3,,,,,,,,,,,,,,,,,
null,,confidence_buffer,1296976,confidence_buffer,,null,,,,,,,,,,,,,,,,,,,
773.6000000014901,,pt2_unique_rating,1297750,Dothan,,52,,4,,,,,,,,,,,,,,,,,
null,,confidence_buffer,1297852,confidence_buffer,,null,,,,,,,,,,,,,,,,,,,
1177.7999999970198,,pt2_memorable_rating,1299032,Dothan,,52,,4,,,,,,,,,,,,,,,,,
null,,confidence_buffer,1299134,confidence_buffer,,null,,,,,,,,,,,,,,,,,,,
3123.6999999955297,,recognition_phase,1302258,Dothan,,52,,,,,new,1,0.7894736842105263,,,,,,,,,,,,
null,,confidence_buffer,1302360,confidence_buffer,,null,,,,,,,,,,,,,,,,,,,
null,,thebreak,1302862,break,,null,,,,,,,,,,,,,,,,,,,
7669.19999999553,,realistic_rating,1310532,Cheyenne,,53,Cheyenne,5,,,,,,,,,,,,,,,,,
null,,confidence_buffer,1310635,confidence_buffer,,null,,,,,,,,,,,,,,,,,,,
3375.60000000149,,pt2_unique_rating,1314011,Cheyenne,,51,,3,,,,,,,,,,,,,,,,,
null,,confidence_buffer,1314114,confidence_buffer,,null,,,,,,,,,,,,,,,,,,,
762.6000000014901,,pt2_memorable_rating,1314878,Cheyenne,,50,,2,,,,,,,,,,,,,,,,,
null,,confidence_buffer,1314980,confidence_buffer,,null,,,,,,,,,,,,,,,,,,,
8129.5,,recognition_phase,1323111,Cheyenne,,49,,,,,old,1,0.7948717948717948,,,,,,,,,,,,
null,,confidence_buffer,1323214,confidence_buffer,,null,,,,,,,,,,,,,,,,,,,
null,,thebreak,1323715,break,,null,,,,,,,,,,,,,,,,,,,
1860.2000000029802,,realistic_rating,1325577,Boulder,,52,Boulder,4,,,,,,,,,,,,,,,,,
null,,confidence_buffer,1325680,confidence_buffer,,null,,,,,,,,,,,,,,,,,,,
266.3999999985099,,pt2_unique_rating,1325947,Boulder,,51,,3,,,,,,,,,,,,,,,,,
null,,confidence_buffer,1326049,confidence_buffer,,null,,,,,,,,,,,,,,,,,,,
1474.0999999940395,,pt2_memorable_rating,1327525,Boulder,,51,,3,,,,,,,,,,,,,,,,,
null,,confidence_buffer,1327628,confidence_buffer,,null,,,,,,,,,,,,,,,,,,,
1999,,recognition_phase,1329628,Boulder,,52,,,,,new,1,0.8,,,,,,,,,,,,
null,,confidence_buffer,1329730,confidence_buffer,,null,,,,,,,,,,,,,,,,,,,
null,,thebreak,1330231,break,,null,,,,,,,,,,,,,,,,,,,
2126.6999999955297,,realistic_rating,1332359,Fargo,,52,Fargo,4,,,,,,,,,,,,,,,,,
null,,confidence_buffer,1332461,confidence_buffer,,null,,,,,,,,,,,,,,,,,,,
2599.60000000149,,pt2_unique_rating,1335062,Fargo,,51,,3,,,,,,,,,,,,,,,,,
null,,confidence_buffer,1335164,confidence_buffer,,null,,,,,,,,,,,,,,,,,,,
796.6999999955297,,pt2_memorable_rating,1335962,Fargo,,51,,3,,,,,,,,,,,,,,,,,
null,,confidence_buffer,1336065,confidence_buffer,,null,,,,,,,,,,,,,,,,,,,
2908.8000000044703,,recognition_phase,1338974,Fargo,,49,,,,,old,1,0.8048780487804879,,,,,,,,,,,,
null,,confidence_buffer,1339077,confidence_buffer,,null,,,,,,,,,,,,,,,,,,,
null,,thebreak,1339580,break,,null,,,,,,,,,,,,,,,,,,,
3259.60000000149,,realistic_rating,1342840,Montpelier,,51,Montpelier,3,,,,,,,,,,,,,,,,,
null,,confidence_buffer,1342943,confidence_buffer,,null,,,,,,,,,,,,,,,,,,,
216.20000000298023,,pt2_unique_rating,1343160,Montpelier,,52,,4,,,,,,,,,,,,,,,,,
null,,confidence_buffer,1343262,confidence_buffer,,null,,,,,,,,,,,,,,,,,,,
137.89999999850988,,pt2_memorable_rating,1343401,Montpelier,,53,,5,,,,,,,,,,,,,,,,,
null,,confidence_buffer,1343503,confidence_buffer,,null,,,,,,,,,,,,,,,,,,,
2879.7999999970198,,recognition_phase,1346384,Montpelier,,51,,,,,new,1,0.8095238095238095,,,,,,,,,,,,
null,,confidence_buffer,1346486,confidence_buffer,,null,,,,,,,,,,,,,,,,,,,
null,,thebreak,1346987,break,,null,,,,,,,,,,,,,,,,,,,
4575.70000000298,,realistic_rating,1351564,Ann Arbor,,52,Ann Arbor,4,,,,,,,,,,,,,,,,,
null,,confidence_buffer,1351666,confidence_buffer,,null,,,,,,,,,,,,,,,,,,,
619.2999999970198,,pt2_unique_rating,1352287,Ann Arbor,,51,,3,,,,,,,,,,,,,,,,,
null,,confidence_buffer,1352388,confidence_buffer,,null,,,,,,,,,,,,,,,,,,,
215.79999999701977,,pt2_memorable_rating,1352605,Ann Arbor,,50,,2,,,,,,,,,,,,,,,,,
null,,confidence_buffer,1352707,confidence_buffer,,null,,,,,,,,,,,,,,,,,,,
3735,,recognition_phase,1356443,Ann Arbor,,49,,,,,old,1,0.813953488372093,,,,,,,,,,,,
null,,confidence_buffer,1356546,confidence_buffer,,null,,,,,,,,,,,,,,,,,,,
null,,thebreak,1357048,break,,null,,,,,,,,,,,,,,,,,,,
4666.70000000298,,realistic_rating,1361716,Bellingham,,53,Bellingham,5,,,,,,,,,,,,,,,,,
null,,confidence_buffer,1361818,confidence_buffer,,null,,,,,,,,,,,,,,,,,,,
2725.7999999970198,,pt2_unique_rating,1364544,Bellingham,,51,,3,,,,,,,,,,,,,,,,,
null,,confidence_buffer,1364647,confidence_buffer,,null,,,,,,,,,,,,,,,,,,,
4983.60000000149,,probe_rating,1369633,probe_rating,,50,,,2,1,,,,,,,,,,,,,,,
null,,confidence_buffer,1369740,confidence_buffer,,null,,,,,,,,,,,,,,,,,,,
6876.19999999553,,pt2_memorable_rating,1376618,Bellingham,,53,,5,,,,,,,,,,,,,,,,,
null,,confidence_buffer,1376720,confidence_buffer,,null,,,,,,,,,,,,,,,,,,,
2633.7000000029802,,recognition_phase,1379355,Bellingham,,52,,,,,new,1,0.8181818181818182,,,,,,,,,,,,
null,,confidence_buffer,1379457,confidence_buffer,,null,,,,,,,,,,,,,,,,,,,
null,,thebreak,1379960,break,,null,,,,,,,,,,,,,,,,,,,
2733.10000000149,,realistic_rating,1382694,Concord,,52,Concord,4,,,,,,,,,,,,,,,,,
null,,confidence_buffer,1382796,confidence_buffer,,null,,,,,,,,,,,,,,,,,,,
288.5,,pt2_unique_rating,1383086,Concord,,51,,3,,,,,,,,,,,,,,,,,
null,,confidence_buffer,1383188,confidence_buffer,,null,,,,,,,,,,,,,,,,,,,
1223.7000000029802,,pt2_memorable_rating,1384414,Concord,,52,,4,,,,,,,,,,,,,,,,,
null,,confidence_buffer,1384516,confidence_buffer,,null,,,,,,,,,,,,,,,,,,,
3825.2000000029802,,probe_rating,1388342,probe_rating,,52,,,4,1,,,,,,,,,,,,,,,
null,,confidence_buffer,1388444,confidence_buffer,,null,,,,,,,,,,,,,,,,,,,
3991.3000000044703,,recognition_phase,1392436,Concord,,52,,,,,new,1,0.8222222222222222,,,,,,,,,,,,
null,,confidence_buffer,1392538,confidence_buffer,,null,,,,,,,,,,,,,,,,,,,
null,,thebreak,1393040,break,,null,,,,,,,,,,,,,,,,,,,
2300.89999999851,,realistic_rating,1395343,Santa Monica,,52,Santa Monica,4,,,,,,,,,,,,,,,,,
null,,confidence_buffer,1395446,confidence_buffer,,null,,,,,,,,,,,,,,,,,,,
1333.6000000014901,,pt2_unique_rating,1396780,Santa Monica,,50,,2,,,,,,,,,,,,,,,,,
null,,confidence_buffer,1396882,confidence_buffer,,null,,,,,,,,,,,,,,,,,,,
637.3999999985099,,pt2_memorable_rating,1397521,Santa Monica,,49,,1,,,,,,,,,,,,,,,,,
null,,confidence_buffer,1397622,confidence_buffer,,null,,,,,,,,,,,,,,,,,,,
4297.10000000149,,recognition_phase,1401920,Santa Monica,,52,,,,,new,1,0.8260869565217391,,,,,,,,,,,,
null,,confidence_buffer,1402022,confidence_buffer,,null,,,,,,,,,,,,,,,,,,,
null,,thebreak,1402524,break,,null,,,,,,,,,,,,,,,,,,,
2801.9000000059605,,realistic_rating,1405328,Dover,,51,Dover,3,,,,,,,,,,,,,,,,,
null,,confidence_buffer,1405430,confidence_buffer,,null,,,,,,,,,,,,,,,,,,,
359.69999999552965,,pt2_unique_rating,1405791,Dover,,50,,2,,,,,,,,,,,,,,,,,
null,,confidence_buffer,1405893,confidence_buffer,,null,,,,,,,,,,,,,,,,,,,
415.59999999403954,,pt2_memorable_rating,1406310,Dover,,51,,3,,,,,,,,,,,,,,,,,
null,,confidence_buffer,1406411,confidence_buffer,,null,,,,,,,,,,,,,,,,,,,
9533.39999999851,,recognition_phase,1415946,Dover,,52,,,,,new,1,0.8297872340425532,,,,,,,,,,,,
null,,confidence_buffer,1416047,confidence_buffer,,null,,,,,,,,,,,,,,,,,,,
null,,thebreak,1416548,break,,null,,,,,,,,,,,,,,,,,,,
3165,,realistic_rating,1419715,Fort Wayne,,52,Fort Wayne,4,,,,,,,,,,,,,,,,,
null,,confidence_buffer,1419818,confidence_buffer,,null,,,,,,,,,,,,,,,,,,,
1507.1000000014901,,pt2_unique_rating,1421327,Fort Wayne,,51,,3,,,,,,,,,,,,,,,,,
null,,confidence_buffer,1421429,confidence_buffer,,null,,,,,,,,,,,,,,,,,,,
604.1000000014901,,pt2_memorable_rating,1422035,Fort Wayne,,50,,2,,,,,,,,,,,,,,,,,
null,,confidence_buffer,1422137,confidence_buffer,,null,,,,,,,,,,,,,,,,,,,
1485.8999999985099,,recognition_phase,1423625,Fort Wayne,,51,,,,,new,1,0.8333333333333334,,,,,,,,,,,,
null,,confidence_buffer,1423727,confidence_buffer,,null,,,,,,,,,,,,,,,,,,,
null,,thebreak,1424228,break,,null,,,,,,,,,,,,,,,,,,,
1986.3000000044703,,realistic_rating,1426217,Yakima,,52,Yakima,4,,,,,,,,,,,,,,,,,
null,,confidence_buffer,1426318,confidence_buffer,,null,,,,,,,,,,,,,,,,,,,
1921.1000000014901,,pt2_unique_rating,1428240,Yakima,,51,,3,,,,,,,,,,,,,,,,,
null,,confidence_buffer,1428342,confidence_buffer,,null,,,,,,,,,,,,,,,,,,,
358.3999999985099,,pt2_memorable_rating,1428701,Yakima,,49,,1,,,,,,,,,,,,,,,,,
null,,confidence_buffer,1428803,confidence_buffer,,null,,,,,,,,,,,,,,,,,,,
3264.7999999970198,,recognition_phase,1432069,Yakima,,52,,,,,new,0,0.8163265306122449,,,,,,,,,,,,
null,,confidence_buffer,1432171,confidence_buffer,,null,,,,,,,,,,,,,,,,,,,
null,,thebreak,1432674,break,,null,,,,,,,,,,,,,,,,,,,
2956.60000000149,,realistic_rating,1435631,Abilene,,52,Abilene,4,,,,,,,,,,,,,,,,,
null,,confidence_buffer,1435733,confidence_buffer,,null,,,,,,,,,,,,,,,,,,,
526.7999999970198,,pt2_unique_rating,1436261,Abilene,,51,,3,,,,,,,,,,,,,,,,,
null,,confidence_buffer,1436363,confidence_buffer,,null,,,,,,,,,,,,,,,,,,,
539.3000000044703,,pt2_memorable_rating,1436903,Abilene,,53,,5,,,,,,,,,,,,,,,,,
null,,confidence_buffer,1437005,confidence_buffer,,null,,,,,,,,,,,,,,,,,,,
2741.0999999940395,,recognition_phase,1439748,Abilene,,51,,,,,new,0,0.8,,,,,,,,,,,,
null,,confidence_buffer,1439851,confidence_buffer,,null,,,,,,,,,,,,,,,,,,,
null,,thebreak,1440352,break,,null,,,,,,,,,,,,,,,,,,,
,,survey,1692272,survey-questions,,,,,,,,,,none,high,I was fully engaged on this survey only,I just tried to remember these names off-head,Those cities I have heard or visited especially from HistoRy or ones in the US,The names that sound special and also are popular,Names tat are just special,A name that can be associated with a city based on knowledge I have,Never,,,
15976.5,,thank_you,1708288,all_done,,32,,,,,,,,,,,,,,,,,,0,3
