rt,responses,trial_type,time_elapsed,stimulus,button_pressed,key_press,name_trial,rating,probe,probe_accuracy,response,correct,accuracy,problems,smooth,distraction,strategies,familiar,memorable,unique,realistic,similar,comments,detectfocus,warning
5730.700000000186,{worker_id:565c931eba63db00051cd52d},id_enter,5734,,,,,,,,,,,,,,,,,,,,,,
4481,,fullscreen,10222,fullscreen,0,,,,,,,,,,,,,,,,,,,,
5000.899999999907,,intro_0,15226,instruct,,32,,,,,,,,,,,,,,,,,,,
10810.100000000093,,intro_1,26038,instruct,,32,,,,,,,,,,,,,,,,,,,
4621.200000000186,,intro_2,30661,instruct,,32,,,,,,,,,,,,,,,,,,,
null,,instruct_dir_4,32162,instruct,,null,,,,,,,,,,,,,,,,,,,
null,,thebreak,32664,break,,null,,,,,,,,,,,,,,,,,,,
3342.899999999907,,familiar_rating,36008,Burlington,,50,Burlington,2,,,,,,,,,,,,,,,,,
null,,confidence_buffer,36111,confidence_buffer,,null,,,,,,,,,,,,,,,,,,,
3305.7000000001863,,unique_rating,39418,Burlington,,49,,1,,,,,,,,,,,,,,,,,
null,,confidence_buffer,39520,confidence_buffer,,null,,,,,,,,,,,,,,,,,,,
2654.100000000093,,memorable_rating,42174,Burlington,,50,,2,,,,,,,,,,,,,,,,,
null,,confidence_buffer,42275,confidence_buffer,,null,,,,,,,,,,,,,,,,,,,
null,,thebreak,42776,break,,null,,,,,,,,,,,,,,,,,,,
3160.899999999907,,familiar_rating,45939,Hagerstown,,49,Hagerstown,1,,,,,,,,,,,,,,,,,
null,,confidence_buffer,46040,confidence_buffer,,null,,,,,,,,,,,,,,,,,,,
2233.5999999996275,,unique_rating,48276,Hagerstown,,51,,3,,,,,,,,,,,,,,,,,
null,,confidence_buffer,48377,confidence_buffer,,null,,,,,,,,,,,,,,,,,,,
2019.3000000002794,,memorable_rating,50398,Hagerstown,,51,,3,,,,,,,,,,,,,,,,,
null,,confidence_buffer,50499,confidence_buffer,,null,,,,,,,,,,,,,,,,,,,
null,,thebreak,51000,break,,null,,,,,,,,,,,,,,,,,,,
2572.5,,familiar_rating,53574,Frankfort,,51,Frankfort,3,,,,,,,,,,,,,,,,,
null,,confidence_buffer,53676,confidence_buffer,,null,,,,,,,,,,,,,,,,,,,
3106.4000000003725,,unique_rating,56783,Frankfort,,49,,1,,,,,,,,,,,,,,,,,
null,,confidence_buffer,56885,confidence_buffer,,null,,,,,,,,,,,,,,,,,,,
2709.600000000093,,memorable_rating,59596,Frankfort,,50,,2,,,,,,,,,,,,,,,,,
null,,confidence_buffer,59698,confidence_buffer,,null,,,,,,,,,,,,,,,,,,,
null,,thebreak,60199,break,,null,,,,,,,,,,,,,,,,,,,
2790.600000000093,,familiar_rating,62991,Topeka,,51,Topeka,3,,,,,,,,,,,,,,,,,
null,,confidence_buffer,63093,confidence_buffer,,null,,,,,,,,,,,,,,,,,,,
8107.4000000003725,,unique_rating,71201,Topeka,,52,,4,,,,,,,,,,,,,,,,,
null,,confidence_buffer,71303,confidence_buffer,,null,,,,,,,,,,,,,,,,,,,
1905.1999999997206,,probe_rating,73209,probe_rating,,52,,,4,1,,,,,,,,,,,,,,,
null,,confidence_buffer,73311,confidence_buffer,,null,,,,,,,,,,,,,,,,,,,
2321.1999999997206,,memorable_rating,75634,Topeka,,52,,4,,,,,,,,,,,,,,,,,
null,,confidence_buffer,75735,confidence_buffer,,null,,,,,,,,,,,,,,,,,,,
null,,thebreak,76237,break,,null,,,,,,,,,,,,,,,,,,,
2179.7000000001863,,familiar_rating,78418,Norfolk,,52,Norfolk,4,,,,,,,,,,,,,,,,,
null,,confidence_buffer,78519,confidence_buffer,,null,,,,,,,,,,,,,,,,,,,
3300.7999999998137,,unique_rating,81821,Norfolk,,51,,3,,,,,,,,,,,,,,,,,
null,,confidence_buffer,81922,confidence_buffer,,null,,,,,,,,,,,,,,,,,,,
1418.1000000000931,,memorable_rating,83342,Norfolk,,52,,4,,,,,,,,,,,,,,,,,
null,,confidence_buffer,83444,confidence_buffer,,null,,,,,,,,,,,,,,,,,,,
null,,thebreak,83945,break,,null,,,,,,,,,,,,,,,,,,,
1532.0999999996275,,familiar_rating,85478,Salem,,52,Salem,4,,,,,,,,,,,,,,,,,
null,,confidence_buffer,85579,confidence_buffer,,null,,,,,,,,,,,,,,,,,,,
2187.7000000001863,,unique_rating,87768,Salem,,50,,2,,,,,,,,,,,,,,,,,
null,,confidence_buffer,87870,confidence_buffer,,null,,,,,,,,,,,,,,,,,,,
2030.8999999999069,,memorable_rating,89903,Salem,,50,,2,,,,,,,,,,,,,,,,,
null,,confidence_buffer,90004,confidence_buffer,,null,,,,,,,,,,,,,,,,,,,
null,,thebreak,90505,break,,null,,,,,,,,,,,,,,,,,,,
2143.6999999997206,,familiar_rating,92650,Decatur,,49,Decatur,1,,,,,,,,,,,,,,,,,
null,,confidence_buffer,92751,confidence_buffer,,null,,,,,,,,,,,,,,,,,,,
4417.699999999721,,unique_rating,97170,Decatur,,53,,5,,,,,,,,,,,,,,,,,
null,,confidence_buffer,97271,confidence_buffer,,null,,,,,,,,,,,,,,,,,,,
2341.2999999998137,,memorable_rating,99613,Decatur,,52,,4,,,,,,,,,,,,,,,,,
null,,confidence_buffer,99714,confidence_buffer,,null,,,,,,,,,,,,,,,,,,,
null,,thebreak,100216,break,,null,,,,,,,,,,,,,,,,,,,
2312.5,,familiar_rating,102529,Stamford,,51,Stamford,3,,,,,,,,,,,,,,,,,
null,,confidence_buffer,102631,confidence_buffer,,null,,,,,,,,,,,,,,,,,,,
1768.1999999997206,,probe_rating,104400,probe_rating,,53,,,5,1,,,,,,,,,,,,,,,
null,,confidence_buffer,104501,confidence_buffer,,null,,,,,,,,,,,,,,,,,,,
2596.899999999907,,unique_rating,107100,Stamford,,51,,3,,,,,,,,,,,,,,,,,
null,,confidence_buffer,107201,confidence_buffer,,null,,,,,,,,,,,,,,,,,,,
1741,,memorable_rating,108943,Stamford,,51,,3,,,,,,,,,,,,,,,,,
null,,confidence_buffer,109045,confidence_buffer,,null,,,,,,,,,,,,,,,,,,,
null,,thebreak,109546,break,,null,,,,,,,,,,,,,,,,,,,
1399.8000000002794,,familiar_rating,110947,Bellingham,,49,Bellingham,1,,,,,,,,,,,,,,,,,
null,,confidence_buffer,111049,confidence_buffer,,null,,,,,,,,,,,,,,,,,,,
3354.7999999998137,,unique_rating,114405,Bellingham,,52,,4,,,,,,,,,,,,,,,,,
null,,confidence_buffer,114506,confidence_buffer,,null,,,,,,,,,,,,,,,,,,,
1537.5999999996275,,memorable_rating,116044,Bellingham,,51,,3,,,,,,,,,,,,,,,,,
null,,confidence_buffer,116146,confidence_buffer,,null,,,,,,,,,,,,,,,,,,,
null,,thebreak,116647,break,,null,,,,,,,,,,,,,,,,,,,
2995.2000000001863,,familiar_rating,119644,Las Cruces,,49,Las Cruces,1,,,,,,,,,,,,,,,,,
null,,confidence_buffer,119746,confidence_buffer,,null,,,,,,,,,,,,,,,,,,,
2217.399999999907,,unique_rating,121965,Las Cruces,,53,,5,,,,,,,,,,,,,,,,,
null,,confidence_buffer,122066,confidence_buffer,,null,,,,,,,,,,,,,,,,,,,
2440.1999999997206,,memorable_rating,124508,Las Cruces,,52,,4,,,,,,,,,,,,,,,,,
null,,confidence_buffer,124609,confidence_buffer,,null,,,,,,,,,,,,,,,,,,,
null,,thebreak,125110,break,,null,,,,,,,,,,,,,,,,,,,
1929.5,,familiar_rating,127041,Berkeley,,51,Berkeley,3,,,,,,,,,,,,,,,,,
null,,confidence_buffer,127142,confidence_buffer,,null,,,,,,,,,,,,,,,,,,,
3718.7000000001863,,unique_rating,130862,Berkeley,,50,,2,,,,,,,,,,,,,,,,,
null,,confidence_buffer,130963,confidence_buffer,,null,,,,,,,,,,,,,,,,,,,
1412.3999999999069,,memorable_rating,132377,Berkeley,,50,,2,,,,,,,,,,,,,,,,,
null,,confidence_buffer,132478,confidence_buffer,,null,,,,,,,,,,,,,,,,,,,
null,,thebreak,132980,break,,null,,,,,,,,,,,,,,,,,,,
3360.9000000003725,,familiar_rating,136342,Pueblo,,50,Pueblo,2,,,,,,,,,,,,,,,,,
null,,confidence_buffer,136443,confidence_buffer,,null,,,,,,,,,,,,,,,,,,,
2279.2000000001863,,unique_rating,138724,Pueblo,,52,,4,,,,,,,,,,,,,,,,,
null,,confidence_buffer,138825,confidence_buffer,,null,,,,,,,,,,,,,,,,,,,
1277.8999999999069,,memorable_rating,140104,Pueblo,,52,,4,,,,,,,,,,,,,,,,,
null,,confidence_buffer,140205,confidence_buffer,,null,,,,,,,,,,,,,,,,,,,
null,,thebreak,140706,break,,null,,,,,,,,,,,,,,,,,,,
2316.899999999907,,familiar_rating,143024,New Haven,,50,New Haven,2,,,,,,,,,,,,,,,,,
null,,confidence_buffer,143126,confidence_buffer,,null,,,,,,,,,,,,,,,,,,,
4050.5999999996275,,unique_rating,147178,New Haven,,51,,3,,,,,,,,,,,,,,,,,
null,,confidence_buffer,147279,confidence_buffer,,null,,,,,,,,,,,,,,,,,,,
1783.3000000002794,,memorable_rating,149064,New Haven,,51,,3,,,,,,,,,,,,,,,,,
null,,confidence_buffer,149165,confidence_buffer,,null,,,,,,,,,,,,,,,,,,,
null,,thebreak,149666,break,,null,,,,,,,,,,,,,,,,,,,
2973,,familiar_rating,152641,Dubuque,,49,Dubuque,1,,,,,,,,,,,,,,,,,
null,,confidence_buffer,152743,confidence_buffer,,null,,,,,,,,,,,,,,,,,,,
2503.5,,unique_rating,155247,Dubuque,,53,,5,,,,,,,,,,,,,,,,,
null,,confidence_buffer,155349,confidence_buffer,,null,,,,,,,,,,,,,,,,,,,
2296.7000000001863,,memorable_rating,157647,Dubuque,,51,,3,,,,,,,,,,,,,,,,,
null,,confidence_buffer,157748,confidence_buffer,,null,,,,,,,,,,,,,,,,,,,
null,,thebreak,158250,break,,null,,,,,,,,,,,,,,,,,,,
3617,,familiar_rating,161868,Scottsdale,,50,Scottsdale,2,,,,,,,,,,,,,,,,,
null,,confidence_buffer,161970,confidence_buffer,,null,,,,,,,,,,,,,,,,,,,
2440.6999999997206,,unique_rating,164411,Scottsdale,,49,,1,,,,,,,,,,,,,,,,,
null,,confidence_buffer,164512,confidence_buffer,,null,,,,,,,,,,,,,,,,,,,
2455.399999999907,,memorable_rating,166969,Scottsdale,,49,,1,,,,,,,,,,,,,,,,,
null,,confidence_buffer,167070,confidence_buffer,,null,,,,,,,,,,,,,,,,,,,
null,,thebreak,167571,break,,null,,,,,,,,,,,,,,,,,,,
2076.3000000002794,,familiar_rating,169649,Syracuse,,50,Syracuse,2,,,,,,,,,,,,,,,,,
null,,confidence_buffer,169751,confidence_buffer,,null,,,,,,,,,,,,,,,,,,,
3460.899999999907,,unique_rating,173213,Syracuse,,51,,3,,,,,,,,,,,,,,,,,
null,,confidence_buffer,173314,confidence_buffer,,null,,,,,,,,,,,,,,,,,,,
1063.2999999998137,,memorable_rating,174378,Syracuse,,51,,3,,,,,,,,,,,,,,,,,
null,,confidence_buffer,174479,confidence_buffer,,null,,,,,,,,,,,,,,,,,,,
null,,thebreak,174980,break,,null,,,,,,,,,,,,,,,,,,,
3138.100000000093,,familiar_rating,178120,Gainesville,,49,Gainesville,1,,,,,,,,,,,,,,,,,
null,,confidence_buffer,178221,confidence_buffer,,null,,,,,,,,,,,,,,,,,,,
3512.3000000002794,,unique_rating,181734,Gainesville,,50,,2,,,,,,,,,,,,,,,,,
null,,confidence_buffer,181836,confidence_buffer,,null,,,,,,,,,,,,,,,,,,,
1471.3999999999069,,memorable_rating,183308,Gainesville,,49,,1,,,,,,,,,,,,,,,,,
null,,confidence_buffer,183410,confidence_buffer,,null,,,,,,,,,,,,,,,,,,,
null,,thebreak,183911,break,,null,,,,,,,,,,,,,,,,,,,
2407,,familiar_rating,186319,Champaign,,50,Champaign,2,,,,,,,,,,,,,,,,,
null,,confidence_buffer,186420,confidence_buffer,,null,,,,,,,,,,,,,,,,,,,
2779.5999999996275,,unique_rating,189201,Champaign,,50,,2,,,,,,,,,,,,,,,,,
null,,confidence_buffer,189303,confidence_buffer,,null,,,,,,,,,,,,,,,,,,,
757.8999999999069,,memorable_rating,190062,Champaign,,50,,2,,,,,,,,,,,,,,,,,
null,,confidence_buffer,190163,confidence_buffer,,null,,,,,,,,,,,,,,,,,,,
null,,thebreak,190664,break,,null,,,,,,,,,,,,,,,,,,,
1629.7999999998137,,familiar_rating,192296,Toledo,,51,Toledo,3,,,,,,,,,,,,,,,,,
null,,confidence_buffer,192397,confidence_buffer,,null,,,,,,,,,,,,,,,,,,,
3577.2000000001863,,unique_rating,195976,Toledo,,52,,4,,,,,,,,,,,,,,,,,
null,,confidence_buffer,196077,confidence_buffer,,null,,,,,,,,,,,,,,,,,,,
1170.5,,memorable_rating,197249,Toledo,,52,,4,,,,,,,,,,,,,,,,,
null,,confidence_buffer,197351,confidence_buffer,,null,,,,,,,,,,,,,,,,,,,
null,,thebreak,197852,break,,null,,,,,,,,,,,,,,,,,,,
2128,,familiar_rating,199981,Reno,,52,Reno,4,,,,,,,,,,,,,,,,,
null,,confidence_buffer,200083,confidence_buffer,,null,,,,,,,,,,,,,,,,,,,
3580.399999999907,,unique_rating,203664,Reno,,52,,4,,,,,,,,,,,,,,,,,
null,,confidence_buffer,203766,confidence_buffer,,null,,,,,,,,,,,,,,,,,,,
1607.7000000001863,,memorable_rating,205375,Reno,,52,,4,,,,,,,,,,,,,,,,,
null,,confidence_buffer,205476,confidence_buffer,,null,,,,,,,,,,,,,,,,,,,
null,,thebreak,205978,break,,null,,,,,,,,,,,,,,,,,,,
2384,,familiar_rating,208363,Annapolis,,51,Annapolis,3,,,,,,,,,,,,,,,,,
null,,confidence_buffer,208465,confidence_buffer,,null,,,,,,,,,,,,,,,,,,,
1990.7000000001863,,unique_rating,210456,Annapolis,,50,,2,,,,,,,,,,,,,,,,,
null,,confidence_buffer,210557,confidence_buffer,,null,,,,,,,,,,,,,,,,,,,
1331.8999999999069,,memorable_rating,211889,Annapolis,,50,,2,,,,,,,,,,,,,,,,,
null,,confidence_buffer,211990,confidence_buffer,,null,,,,,,,,,,,,,,,,,,,
null,,thebreak,212492,break,,null,,,,,,,,,,,,,,,,,,,
2262.899999999907,,familiar_rating,214756,Pasadena,,51,Pasadena,3,,,,,,,,,,,,,,,,,
null,,confidence_buffer,214857,confidence_buffer,,null,,,,,,,,,,,,,,,,,,,
2482.7000000001863,,unique_rating,217341,Pasadena,,51,,3,,,,,,,,,,,,,,,,,
null,,confidence_buffer,217442,confidence_buffer,,null,,,,,,,,,,,,,,,,,,,
595.7000000001863,,memorable_rating,218039,Pasadena,,51,,3,,,,,,,,,,,,,,,,,
null,,confidence_buffer,218141,confidence_buffer,,null,,,,,,,,,,,,,,,,,,,
null,,thebreak,218642,break,,null,,,,,,,,,,,,,,,,,,,
2861.600000000093,,familiar_rating,221505,Carson City,,50,Carson City,2,,,,,,,,,,,,,,,,,
null,,confidence_buffer,221606,confidence_buffer,,null,,,,,,,,,,,,,,,,,,,
1649,,unique_rating,223256,Carson City,,51,,3,,,,,,,,,,,,,,,,,
null,,confidence_buffer,223357,confidence_buffer,,null,,,,,,,,,,,,,,,,,,,
1541.6000000000931,,memorable_rating,224900,Carson City,,51,,3,,,,,,,,,,,,,,,,,
null,,confidence_buffer,225002,confidence_buffer,,null,,,,,,,,,,,,,,,,,,,
null,,thebreak,225503,break,,null,,,,,,,,,,,,,,,,,,,
3349.899999999907,,familiar_rating,228854,Tallahassee,,50,Tallahassee,2,,,,,,,,,,,,,,,,,
null,,confidence_buffer,228955,confidence_buffer,,null,,,,,,,,,,,,,,,,,,,
3661.2000000001863,,unique_rating,232618,Tallahassee,,51,,3,,,,,,,,,,,,,,,,,
null,,confidence_buffer,232719,confidence_buffer,,null,,,,,,,,,,,,,,,,,,,
1066.0999999996275,,memorable_rating,233787,Tallahassee,,52,,4,,,,,,,,,,,,,,,,,
null,,confidence_buffer,233888,confidence_buffer,,null,,,,,,,,,,,,,,,,,,,
null,,thebreak,234389,break,,null,,,,,,,,,,,,,,,,,,,
2850.2999999998137,,familiar_rating,237241,Palo Alto,,49,Palo Alto,1,,,,,,,,,,,,,,,,,
null,,confidence_buffer,237342,confidence_buffer,,null,,,,,,,,,,,,,,,,,,,
1962.5,,probe_rating,239306,probe_rating,,50,,,2,1,,,,,,,,,,,,,,,
null,,confidence_buffer,239407,confidence_buffer,,null,,,,,,,,,,,,,,,,,,,
3449.8000000002794,,unique_rating,242858,Palo Alto,,53,,5,,,,,,,,,,,,,,,,,
null,,confidence_buffer,242960,confidence_buffer,,null,,,,,,,,,,,,,,,,,,,
2807.5,,memorable_rating,245769,Palo Alto,,51,,3,,,,,,,,,,,,,,,,,
null,,confidence_buffer,245870,confidence_buffer,,null,,,,,,,,,,,,,,,,,,,
null,,thebreak,246371,break,,null,,,,,,,,,,,,,,,,,,,
3705.3000000002794,,intro_0,250078,instruct,,32,,,,,,,,,,,,,,,,,,,
10267.899999999907,,intro_1,260347,instruct,,32,,,,,,,,,,,,,,,,,,,
15627.599999999627,,intro_2,275976,instruct,,32,,,,,,,,,,,,,,,,,,,
null,,instruct_dir_4,277477,instruct,,null,,,,,,,,,,,,,,,,,,,
5005.899999999907,,realistic_rating,282484,Dover,,53,Dover,5,,,,,,,,,,,,,,,,,
null,,confidence_buffer,282585,confidence_buffer,,null,,,,,,,,,,,,,,,,,,,
3389.7000000001863,,pt2_unique_rating,285976,Dover,,51,,3,,,,,,,,,,,,,,,,,
null,,confidence_buffer,286078,confidence_buffer,,null,,,,,,,,,,,,,,,,,,,
2367.3000000002794,,pt2_memorable_rating,288446,Dover,,51,,3,,,,,,,,,,,,,,,,,
null,,confidence_buffer,288548,confidence_buffer,,null,,,,,,,,,,,,,,,,,,,
2103.100000000093,,recognition_phase,290653,Dover,,52,,,,,new,1,1,,,,,,,,,,,,
null,,confidence_buffer,290755,confidence_buffer,,null,,,,,,,,,,,,,,,,,,,
null,,thebreak,291256,break,,null,,,,,,,,,,,,,,,,,,,
3478.7000000001863,,realistic_rating,294735,Peoria,,53,Peoria,5,,,,,,,,,,,,,,,,,
null,,confidence_buffer,294837,confidence_buffer,,null,,,,,,,,,,,,,,,,,,,
2824.899999999907,,pt2_unique_rating,297663,Peoria,,53,,5,,,,,,,,,,,,,,,,,
null,,confidence_buffer,297765,confidence_buffer,,null,,,,,,,,,,,,,,,,,,,
1324,,pt2_memorable_rating,299090,Peoria,,52,,4,,,,,,,,,,,,,,,,,
null,,confidence_buffer,299192,confidence_buffer,,null,,,,,,,,,,,,,,,,,,,
1437.3999999999069,,recognition_phase,300631,Peoria,,52,,,,,new,1,1,,,,,,,,,,,,
null,,confidence_buffer,300733,confidence_buffer,,null,,,,,,,,,,,,,,,,,,,
null,,thebreak,301234,break,,null,,,,,,,,,,,,,,,,,,,
2615.899999999907,,realistic_rating,303851,Tallahassee,,53,Tallahassee,5,,,,,,,,,,,,,,,,,
null,,confidence_buffer,303953,confidence_buffer,,null,,,,,,,,,,,,,,,,,,,
3805.1999999997206,,pt2_unique_rating,307759,Tallahassee,,51,,3,,,,,,,,,,,,,,,,,
null,,confidence_buffer,307861,confidence_buffer,,null,,,,,,,,,,,,,,,,,,,
2194.3000000002794,,pt2_memorable_rating,310057,Tallahassee,,52,,4,,,,,,,,,,,,,,,,,
null,,confidence_buffer,310158,confidence_buffer,,null,,,,,,,,,,,,,,,,,,,
1604.7000000001863,,recognition_phase,311764,Tallahassee,,49,,,,,old,1,1,,,,,,,,,,,,
null,,confidence_buffer,311866,confidence_buffer,,null,,,,,,,,,,,,,,,,,,,
null,,thebreak,312367,break,,null,,,,,,,,,,,,,,,,,,,
2620.6999999997206,,realistic_rating,314989,Ithaca,,53,Ithaca,5,,,,,,,,,,,,,,,,,
null,,confidence_buffer,315091,confidence_buffer,,null,,,,,,,,,,,,,,,,,,,
1984.1000000000931,,pt2_unique_rating,317076,Ithaca,,53,,5,,,,,,,,,,,,,,,,,
null,,confidence_buffer,317178,confidence_buffer,,null,,,,,,,,,,,,,,,,,,,
1426.0999999996275,,pt2_memorable_rating,318605,Ithaca,,52,,4,,,,,,,,,,,,,,,,,
null,,confidence_buffer,318707,confidence_buffer,,null,,,,,,,,,,,,,,,,,,,
1343.2999999998137,,recognition_phase,320051,Ithaca,,52,,,,,new,1,1,,,,,,,,,,,,
null,,confidence_buffer,320153,confidence_buffer,,null,,,,,,,,,,,,,,,,,,,
null,,thebreak,320654,break,,null,,,,,,,,,,,,,,,,,,,
1881,,realistic_rating,322535,Athens,,53,Athens,5,,,,,,,,,,,,,,,,,
null,,confidence_buffer,322637,confidence_buffer,,null,,,,,,,,,,,,,,,,,,,
2777.6999999997206,,pt2_unique_rating,325416,Athens,,50,,2,,,,,,,,,,,,,,,,,
null,,confidence_buffer,325518,confidence_buffer,,null,,,,,,,,,,,,,,,,,,,
2862.1999999997206,,pt2_memorable_rating,328381,Athens,,52,,4,,,,,,,,,,,,,,,,,
null,,confidence_buffer,328483,confidence_buffer,,null,,,,,,,,,,,,,,,,,,,
1485.1000000000931,,probe_rating,329969,probe_rating,,50,,,2,1,,,,,,,,,,,,,,,
null,,confidence_buffer,330070,confidence_buffer,,null,,,,,,,,,,,,,,,,,,,
2850.899999999907,,recognition_phase,332922,Athens,,52,,,,,new,1,1,,,,,,,,,,,,
null,,confidence_buffer,333024,confidence_buffer,,null,,,,,,,,,,,,,,,,,,,
null,,thebreak,333525,break,,null,,,,,,,,,,,,,,,,,,,
2594.7999999998137,,realistic_rating,336121,Marquette,,52,Marquette,4,,,,,,,,,,,,,,,,,
null,,confidence_buffer,336222,confidence_buffer,,null,,,,,,,,,,,,,,,,,,,
1648,,probe_rating,337872,probe_rating,,51,,,3,1,,,,,,,,,,,,,,,
null,,confidence_buffer,337973,confidence_buffer,,null,,,,,,,,,,,,,,,,,,,
2676.9000000003725,,pt2_unique_rating,340651,Marquette,,51,,3,,,,,,,,,,,,,,,,,
null,,confidence_buffer,340753,confidence_buffer,,null,,,,,,,,,,,,,,,,,,,
1592,,pt2_memorable_rating,342346,Marquette,,51,,3,,,,,,,,,,,,,,,,,
null,,confidence_buffer,342448,confidence_buffer,,null,,,,,,,,,,,,,,,,,,,
1403.2000000001863,,recognition_phase,343852,Marquette,,52,,,,,new,1,1,,,,,,,,,,,,
null,,confidence_buffer,343953,confidence_buffer,,null,,,,,,,,,,,,,,,,,,,
null,,thebreak,344455,break,,null,,,,,,,,,,,,,,,,,,,
2230.0999999996275,,realistic_rating,346686,Salem,,53,Salem,5,,,,,,,,,,,,,,,,,
null,,confidence_buffer,346788,confidence_buffer,,null,,,,,,,,,,,,,,,,,,,
2303.7999999998137,,pt2_unique_rating,349093,Salem,,50,,2,,,,,,,,,,,,,,,,,
null,,confidence_buffer,349194,confidence_buffer,,null,,,,,,,,,,,,,,,,,,,
2077.7999999998137,,pt2_memorable_rating,351273,Salem,,51,,3,,,,,,,,,,,,,,,,,
null,,confidence_buffer,351375,confidence_buffer,,null,,,,,,,,,,,,,,,,,,,
1325.2999999998137,,recognition_phase,352701,Salem,,49,,,,,old,1,1,,,,,,,,,,,,
null,,confidence_buffer,352803,confidence_buffer,,null,,,,,,,,,,,,,,,,,,,
null,,thebreak,353304,break,,null,,,,,,,,,,,,,,,,,,,
2164.2000000001863,,realistic_rating,355469,Topeka,,53,Topeka,5,,,,,,,,,,,,,,,,,
null,,confidence_buffer,355571,confidence_buffer,,null,,,,,,,,,,,,,,,,,,,
3089.899999999907,,pt2_unique_rating,358662,Topeka,,53,,5,,,,,,,,,,,,,,,,,
null,,confidence_buffer,358764,confidence_buffer,,null,,,,,,,,,,,,,,,,,,,
1635.7999999998137,,pt2_memorable_rating,360401,Topeka,,52,,4,,,,,,,,,,,,,,,,,
null,,confidence_buffer,360502,confidence_buffer,,null,,,,,,,,,,,,,,,,,,,
1969,,recognition_phase,362472,Topeka,,49,,,,,old,1,1,,,,,,,,,,,,
null,,confidence_buffer,362574,confidence_buffer,,null,,,,,,,,,,,,,,,,,,,
null,,thebreak,363075,break,,null,,,,,,,,,,,,,,,,,,,
3662.7999999998137,,realistic_rating,366739,Annapolis,,53,Annapolis,5,,,,,,,,,,,,,,,,,
null,,confidence_buffer,366840,confidence_buffer,,null,,,,,,,,,,,,,,,,,,,
3677.8000000002794,,pt2_unique_rating,370519,Annapolis,,51,,3,,,,,,,,,,,,,,,,,
null,,confidence_buffer,370620,confidence_buffer,,null,,,,,,,,,,,,,,,,,,,
1033.6999999997206,,pt2_memorable_rating,371655,Annapolis,,51,,3,,,,,,,,,,,,,,,,,
null,,confidence_buffer,371757,confidence_buffer,,null,,,,,,,,,,,,,,,,,,,
899.3999999999069,,recognition_phase,372657,Annapolis,,49,,,,,old,1,1,,,,,,,,,,,,
null,,confidence_buffer,372759,confidence_buffer,,null,,,,,,,,,,,,,,,,,,,
null,,thebreak,373260,break,,null,,,,,,,,,,,,,,,,,,,
2047.8000000002794,,realistic_rating,375309,Carson City,,53,Carson City,5,,,,,,,,,,,,,,,,,
null,,confidence_buffer,375411,confidence_buffer,,null,,,,,,,,,,,,,,,,,,,
2893.399999999907,,pt2_unique_rating,378306,Carson City,,52,,4,,,,,,,,,,,,,,,,,
null,,confidence_buffer,378407,confidence_buffer,,null,,,,,,,,,,,,,,,,,,,
1360.7999999998137,,pt2_memorable_rating,379769,Carson City,,52,,4,,,,,,,,,,,,,,,,,
null,,confidence_buffer,379871,confidence_buffer,,null,,,,,,,,,,,,,,,,,,,
812.1000000000931,,recognition_phase,380684,Carson City,,49,,,,,old,1,1,,,,,,,,,,,,
null,,confidence_buffer,380786,confidence_buffer,,null,,,,,,,,,,,,,,,,,,,
null,,thebreak,381287,break,,null,,,,,,,,,,,,,,,,,,,
2816.7000000001863,,realistic_rating,384105,Bellingham,,52,Bellingham,4,,,,,,,,,,,,,,,,,
null,,confidence_buffer,384207,confidence_buffer,,null,,,,,,,,,,,,,,,,,,,
2340.3000000002794,,pt2_unique_rating,386548,Bellingham,,51,,3,,,,,,,,,,,,,,,,,
null,,confidence_buffer,386650,confidence_buffer,,null,,,,,,,,,,,,,,,,,,,
1117.1000000000931,,pt2_memorable_rating,387768,Bellingham,,51,,3,,,,,,,,,,,,,,,,,
null,,confidence_buffer,387870,confidence_buffer,,null,,,,,,,,,,,,,,,,,,,
924.1000000000931,,recognition_phase,388796,Bellingham,,49,,,,,old,1,1,,,,,,,,,,,,
null,,confidence_buffer,388897,confidence_buffer,,null,,,,,,,,,,,,,,,,,,,
null,,thebreak,389399,break,,null,,,,,,,,,,,,,,,,,,,
3198,,realistic_rating,392598,Burlington,,53,Burlington,5,,,,,,,,,,,,,,,,,
null,,confidence_buffer,392699,confidence_buffer,,null,,,,,,,,,,,,,,,,,,,
2005,,pt2_unique_rating,394706,Burlington,,50,,2,,,,,,,,,,,,,,,,,
null,,confidence_buffer,394807,confidence_buffer,,null,,,,,,,,,,,,,,,,,,,
1263.6999999997206,,pt2_memorable_rating,396072,Burlington,,51,,3,,,,,,,,,,,,,,,,,
null,,confidence_buffer,396173,confidence_buffer,,null,,,,,,,,,,,,,,,,,,,
885.8999999999069,,recognition_phase,397060,Burlington,,49,,,,,old,1,1,,,,,,,,,,,,
null,,confidence_buffer,397161,confidence_buffer,,null,,,,,,,,,,,,,,,,,,,
null,,thebreak,397662,break,,null,,,,,,,,,,,,,,,,,,,
3502.2999999998137,,realistic_rating,401166,Decatur,,52,Decatur,4,,,,,,,,,,,,,,,,,
null,,confidence_buffer,401267,confidence_buffer,,null,,,,,,,,,,,,,,,,,,,
3730.2999999998137,,pt2_unique_rating,404999,Decatur,,52,,4,,,,,,,,,,,,,,,,,
null,,confidence_buffer,405100,confidence_buffer,,null,,,,,,,,,,,,,,,,,,,
2206.2000000001863,,pt2_memorable_rating,407308,Decatur,,52,,4,,,,,,,,,,,,,,,,,
null,,confidence_buffer,407409,confidence_buffer,,null,,,,,,,,,,,,,,,,,,,
1063.7000000001863,,recognition_phase,408474,Decatur,,49,,,,,old,1,1,,,,,,,,,,,,
null,,confidence_buffer,408576,confidence_buffer,,null,,,,,,,,,,,,,,,,,,,
null,,thebreak,409077,break,,null,,,,,,,,,,,,,,,,,,,
3868.5,,realistic_rating,412947,Palo Alto,,52,Palo Alto,4,,,,,,,,,,,,,,,,,
null,,confidence_buffer,413048,confidence_buffer,,null,,,,,,,,,,,,,,,,,,,
2558.5,,pt2_unique_rating,415608,Palo Alto,,52,,4,,,,,,,,,,,,,,,,,
null,,confidence_buffer,415710,confidence_buffer,,null,,,,,,,,,,,,,,,,,,,
1586,,pt2_memorable_rating,417297,Palo Alto,,51,,3,,,,,,,,,,,,,,,,,
null,,confidence_buffer,417399,confidence_buffer,,null,,,,,,,,,,,,,,,,,,,
1791.7999999998137,,probe_rating,419192,probe_rating,,53,,,5,1,,,,,,,,,,,,,,,
null,,confidence_buffer,419293,confidence_buffer,,null,,,,,,,,,,,,,,,,,,,
883.2000000001863,,recognition_phase,420177,Palo Alto,,49,,,,,old,1,1,,,,,,,,,,,,
null,,confidence_buffer,420279,confidence_buffer,,null,,,,,,,,,,,,,,,,,,,
null,,thebreak,420780,break,,null,,,,,,,,,,,,,,,,,,,
3007.7000000001863,,realistic_rating,423789,Hagerstown,,52,Hagerstown,4,,,,,,,,,,,,,,,,,
null,,confidence_buffer,423891,confidence_buffer,,null,,,,,,,,,,,,,,,,,,,
1763.8999999999069,,pt2_unique_rating,425656,Hagerstown,,52,,4,,,,,,,,,,,,,,,,,
null,,confidence_buffer,425758,confidence_buffer,,null,,,,,,,,,,,,,,,,,,,
1505.3999999999069,,probe_rating,427264,probe_rating,,52,,,4,1,,,,,,,,,,,,,,,
null,,confidence_buffer,427366,confidence_buffer,,null,,,,,,,,,,,,,,,,,,,
983.8999999999069,,pt2_memorable_rating,428351,Hagerstown,,51,,3,,,,,,,,,,,,,,,,,
null,,confidence_buffer,428453,confidence_buffer,,null,,,,,,,,,,,,,,,,,,,
961.7000000001863,,recognition_phase,429416,Hagerstown,,49,,,,,old,1,1,,,,,,,,,,,,
null,,confidence_buffer,429517,confidence_buffer,,null,,,,,,,,,,,,,,,,,,,
null,,thebreak,430019,break,,null,,,,,,,,,,,,,,,,,,,
1995.4000000003725,,realistic_rating,432015,Helena,,53,Helena,5,,,,,,,,,,,,,,,,,
null,,confidence_buffer,432117,confidence_buffer,,null,,,,,,,,,,,,,,,,,,,
3752,,pt2_unique_rating,435871,Helena,,50,,2,,,,,,,,,,,,,,,,,
null,,confidence_buffer,435972,confidence_buffer,,null,,,,,,,,,,,,,,,,,,,
1268.1000000000931,,pt2_memorable_rating,437241,Helena,,50,,2,,,,,,,,,,,,,,,,,
null,,confidence_buffer,437343,confidence_buffer,,null,,,,,,,,,,,,,,,,,,,
1189,,probe_rating,438532,probe_rating,,50,,,2,1,,,,,,,,,,,,,,,
null,,confidence_buffer,438634,confidence_buffer,,null,,,,,,,,,,,,,,,,,,,
1395.5999999996275,,recognition_phase,440031,Helena,,52,,,,,new,1,1,,,,,,,,,,,,
null,,confidence_buffer,440133,confidence_buffer,,null,,,,,,,,,,,,,,,,,,,
null,,thebreak,440634,break,,null,,,,,,,,,,,,,,,,,,,
2058.100000000093,,realistic_rating,442693,Santa Monica,,53,Santa Monica,5,,,,,,,,,,,,,,,,,
null,,confidence_buffer,442795,confidence_buffer,,null,,,,,,,,,,,,,,,,,,,
2864.4000000003725,,pt2_unique_rating,445661,Santa Monica,,51,,3,,,,,,,,,,,,,,,,,
null,,confidence_buffer,445763,confidence_buffer,,null,,,,,,,,,,,,,,,,,,,
1479,,pt2_memorable_rating,447243,Santa Monica,,52,,4,,,,,,,,,,,,,,,,,
null,,confidence_buffer,447345,confidence_buffer,,null,,,,,,,,,,,,,,,,,,,
2203.6999999997206,,recognition_phase,449550,Santa Monica,,52,,,,,new,1,1,,,,,,,,,,,,
null,,confidence_buffer,449652,confidence_buffer,,null,,,,,,,,,,,,,,,,,,,
null,,thebreak,450153,break,,null,,,,,,,,,,,,,,,,,,,
2302.7999999998137,,realistic_rating,452457,Abilene,,53,Abilene,5,,,,,,,,,,,,,,,,,
null,,confidence_buffer,452558,confidence_buffer,,null,,,,,,,,,,,,,,,,,,,
2776.899999999907,,pt2_unique_rating,455336,Abilene,,52,,4,,,,,,,,,,,,,,,,,
null,,confidence_buffer,455438,confidence_buffer,,null,,,,,,,,,,,,,,,,,,,
1047.0999999996275,,pt2_memorable_rating,456486,Abilene,,52,,4,,,,,,,,,,,,,,,,,
null,,confidence_buffer,456587,confidence_buffer,,null,,,,,,,,,,,,,,,,,,,
773.3999999999069,,probe_rating,457362,probe_rating,,50,,,2,1,,,,,,,,,,,,,,,
null,,confidence_buffer,457463,confidence_buffer,,null,,,,,,,,,,,,,,,,,,,
1306,,recognition_phase,458771,Abilene,,52,,,,,new,1,1,,,,,,,,,,,,
null,,confidence_buffer,458873,confidence_buffer,,null,,,,,,,,,,,,,,,,,,,
null,,thebreak,459374,break,,null,,,,,,,,,,,,,,,,,,,
3567.2000000001863,,realistic_rating,462942,Rock Springs,,51,Rock Springs,3,,,,,,,,,,,,,,,,,
null,,confidence_buffer,463044,confidence_buffer,,null,,,,,,,,,,,,,,,,,,,
3366.399999999907,,pt2_unique_rating,466412,Rock Springs,,50,,2,,,,,,,,,,,,,,,,,
null,,confidence_buffer,466513,confidence_buffer,,null,,,,,,,,,,,,,,,,,,,
1116.0999999996275,,pt2_memorable_rating,467630,Rock Springs,,50,,2,,,,,,,,,,,,,,,,,
null,,confidence_buffer,467731,confidence_buffer,,null,,,,,,,,,,,,,,,,,,,
1618.3999999999069,,recognition_phase,469351,Rock Springs,,52,,,,,new,1,1,,,,,,,,,,,,
null,,confidence_buffer,469453,confidence_buffer,,null,,,,,,,,,,,,,,,,,,,
null,,thebreak,469954,break,,null,,,,,,,,,,,,,,,,,,,
2381,,realistic_rating,472337,Youngstown,,52,Youngstown,4,,,,,,,,,,,,,,,,,
null,,confidence_buffer,472438,confidence_buffer,,null,,,,,,,,,,,,,,,,,,,
4800.299999999814,,pt2_unique_rating,477240,Youngstown,,50,,2,,,,,,,,,,,,,,,,,
null,,confidence_buffer,477342,confidence_buffer,,null,,,,,,,,,,,,,,,,,,,
822.6000000000931,,probe_rating,478166,probe_rating,,49,,,1,1,,,,,,,,,,,,,,,
null,,confidence_buffer,478267,confidence_buffer,,null,,,,,,,,,,,,,,,,,,,
2820.899999999907,,pt2_memorable_rating,481090,Youngstown,,50,,2,,,,,,,,,,,,,,,,,
null,,confidence_buffer,481191,confidence_buffer,,null,,,,,,,,,,,,,,,,,,,
1911,,recognition_phase,483104,Youngstown,,52,,,,,new,1,1,,,,,,,,,,,,
null,,confidence_buffer,483206,confidence_buffer,,null,,,,,,,,,,,,,,,,,,,
null,,thebreak,483707,break,,null,,,,,,,,,,,,,,,,,,,
2510.2000000001863,,realistic_rating,486218,Fort Wayne,,53,Fort Wayne,5,,,,,,,,,,,,,,,,,
null,,confidence_buffer,486320,confidence_buffer,,null,,,,,,,,,,,,,,,,,,,
2910.5,,pt2_unique_rating,489232,Fort Wayne,,52,,4,,,,,,,,,,,,,,,,,
null,,confidence_buffer,489333,confidence_buffer,,null,,,,,,,,,,,,,,,,,,,
1626.3999999999069,,pt2_memorable_rating,490961,Fort Wayne,,52,,4,,,,,,,,,,,,,,,,,
null,,confidence_buffer,491063,confidence_buffer,,null,,,,,,,,,,,,,,,,,,,
1825.7999999998137,,recognition_phase,492890,Fort Wayne,,52,,,,,new,1,1,,,,,,,,,,,,
null,,confidence_buffer,492992,confidence_buffer,,null,,,,,,,,,,,,,,,,,,,
null,,thebreak,493493,break,,null,,,,,,,,,,,,,,,,,,,
2756.5,,realistic_rating,496250,Toledo,,53,Toledo,5,,,,,,,,,,,,,,,,,
null,,confidence_buffer,496351,confidence_buffer,,null,,,,,,,,,,,,,,,,,,,
1642.2999999998137,,pt2_unique_rating,497994,Toledo,,52,,4,,,,,,,,,,,,,,,,,
null,,confidence_buffer,498096,confidence_buffer,,null,,,,,,,,,,,,,,,,,,,
1148.3999999999069,,pt2_memorable_rating,499246,Toledo,,52,,4,,,,,,,,,,,,,,,,,
null,,confidence_buffer,499347,confidence_buffer,,null,,,,,,,,,,,,,,,,,,,
1015.6000000000931,,recognition_phase,500364,Toledo,,49,,,,,old,1,1,,,,,,,,,,,,
null,,confidence_buffer,500466,confidence_buffer,,null,,,,,,,,,,,,,,,,,,,
null,,thebreak,500967,break,,null,,,,,,,,,,,,,,,,,,,
3359.100000000093,,realistic_rating,504327,Gainesville,,52,Gainesville,4,,,,,,,,,,,,,,,,,
null,,confidence_buffer,504429,confidence_buffer,,null,,,,,,,,,,,,,,,,,,,
2265.899999999907,,pt2_unique_rating,506696,Gainesville,,50,,2,,,,,,,,,,,,,,,,,
null,,confidence_buffer,506798,confidence_buffer,,null,,,,,,,,,,,,,,,,,,,
1141.7999999998137,,pt2_memorable_rating,507941,Gainesville,,51,,3,,,,,,,,,,,,,,,,,
null,,confidence_buffer,508043,confidence_buffer,,null,,,,,,,,,,,,,,,,,,,
1036.6999999997206,,recognition_phase,509081,Gainesville,,49,,,,,old,1,1,,,,,,,,,,,,
null,,confidence_buffer,509183,confidence_buffer,,null,,,,,,,,,,,,,,,,,,,
null,,thebreak,509684,break,,null,,,,,,,,,,,,,,,,,,,
1837,,realistic_rating,511522,Muncie,,53,Muncie,5,,,,,,,,,,,,,,,,,
null,,confidence_buffer,511624,confidence_buffer,,null,,,,,,,,,,,,,,,,,,,
2242.9000000003725,,pt2_unique_rating,513868,Muncie,,53,,5,,,,,,,,,,,,,,,,,
null,,confidence_buffer,513969,confidence_buffer,,null,,,,,,,,,,,,,,,,,,,
1383.6000000000931,,probe_rating,515354,probe_rating,,51,,,3,1,,,,,,,,,,,,,,,
null,,confidence_buffer,515455,confidence_buffer,,null,,,,,,,,,,,,,,,,,,,
2835.2999999998137,,pt2_memorable_rating,518292,Muncie,,52,,4,,,,,,,,,,,,,,,,,
null,,confidence_buffer,518393,confidence_buffer,,null,,,,,,,,,,,,,,,,,,,
1466.6000000000931,,recognition_phase,519861,Muncie,,52,,,,,new,1,1,,,,,,,,,,,,
null,,confidence_buffer,519963,confidence_buffer,,null,,,,,,,,,,,,,,,,,,,
null,,thebreak,520464,break,,null,,,,,,,,,,,,,,,,,,,
2651.399999999907,,realistic_rating,523117,Cambridge,,53,Cambridge,5,,,,,,,,,,,,,,,,,
null,,confidence_buffer,523218,confidence_buffer,,null,,,,,,,,,,,,,,,,,,,
1596.6000000000931,,pt2_unique_rating,524816,Cambridge,,49,,1,,,,,,,,,,,,,,,,,
null,,confidence_buffer,524918,confidence_buffer,,null,,,,,,,,,,,,,,,,,,,
1753.1999999997206,,pt2_memorable_rating,526673,Cambridge,,50,,2,,,,,,,,,,,,,,,,,
null,,confidence_buffer,526774,confidence_buffer,,null,,,,,,,,,,,,,,,,,,,
2475.600000000093,,recognition_phase,529251,Cambridge,,51,,,,,new,1,1,,,,,,,,,,,,
null,,confidence_buffer,529353,confidence_buffer,,null,,,,,,,,,,,,,,,,,,,
null,,thebreak,529855,break,,null,,,,,,,,,,,,,,,,,,,
4327,,realistic_rating,534183,Reno,,53,Reno,5,,,,,,,,,,,,,,,,,
null,,confidence_buffer,534285,confidence_buffer,,null,,,,,,,,,,,,,,,,,,,
2482.4000000003725,,pt2_unique_rating,536768,Reno,,53,,5,,,,,,,,,,,,,,,,,
null,,confidence_buffer,536870,confidence_buffer,,null,,,,,,,,,,,,,,,,,,,
1638,,pt2_memorable_rating,538509,Reno,,52,,4,,,,,,,,,,,,,,,,,
null,,confidence_buffer,538611,confidence_buffer,,null,,,,,,,,,,,,,,,,,,,
1179.6000000000931,,recognition_phase,539792,Reno,,49,,,,,old,1,1,,,,,,,,,,,,
null,,confidence_buffer,539894,confidence_buffer,,null,,,,,,,,,,,,,,,,,,,
null,,thebreak,540395,break,,null,,,,,,,,,,,,,,,,,,,
3221.100000000093,,realistic_rating,543617,Ann Arbor,,53,Ann Arbor,5,,,,,,,,,,,,,,,,,
null,,confidence_buffer,543719,confidence_buffer,,null,,,,,,,,,,,,,,,,,,,
2685.0999999996275,,pt2_unique_rating,546406,Ann Arbor,,51,,3,,,,,,,,,,,,,,,,,
null,,confidence_buffer,546507,confidence_buffer,,null,,,,,,,,,,,,,,,,,,,
2246,,pt2_memorable_rating,548755,Ann Arbor,,51,,3,,,,,,,,,,,,,,,,,
null,,confidence_buffer,548856,confidence_buffer,,null,,,,,,,,,,,,,,,,,,,
2415.600000000093,,recognition_phase,551273,Ann Arbor,,51,,,,,new,1,1,,,,,,,,,,,,
null,,confidence_buffer,551375,confidence_buffer,,null,,,,,,,,,,,,,,,,,,,
null,,thebreak,551876,break,,null,,,,,,,,,,,,,,,,,,,
3826.2999999998137,,realistic_rating,555704,Dubuque,,52,Dubuque,4,,,,,,,,,,,,,,,,,
null,,confidence_buffer,555805,confidence_buffer,,null,,,,,,,,,,,,,,,,,,,
4541.100000000093,,pt2_unique_rating,560348,Dubuque,,53,,5,,,,,,,,,,,,,,,,,
null,,confidence_buffer,560449,confidence_buffer,,null,,,,,,,,,,,,,,,,,,,
1915.5999999996275,,pt2_memorable_rating,562365,Dubuque,,52,,4,,,,,,,,,,,,,,,,,
null,,confidence_buffer,562467,confidence_buffer,,null,,,,,,,,,,,,,,,,,,,
752.2000000001863,,recognition_phase,563220,Dubuque,,49,,,,,old,1,1,,,,,,,,,,,,
null,,confidence_buffer,563322,confidence_buffer,,null,,,,,,,,,,,,,,,,,,,
null,,thebreak,563823,break,,null,,,,,,,,,,,,,,,,,,,
1917.7000000001863,,realistic_rating,565742,Fargo,,53,Fargo,5,,,,,,,,,,,,,,,,,
null,,confidence_buffer,565844,confidence_buffer,,null,,,,,,,,,,,,,,,,,,,
2942.1999999997206,,pt2_unique_rating,568788,Fargo,,51,,3,,,,,,,,,,,,,,,,,
null,,confidence_buffer,568889,confidence_buffer,,null,,,,,,,,,,,,,,,,,,,
1731.5999999996275,,pt2_memorable_rating,570622,Fargo,,51,,3,,,,,,,,,,,,,,,,,
null,,confidence_buffer,570724,confidence_buffer,,null,,,,,,,,,,,,,,,,,,,
1657.4000000003725,,recognition_phase,572382,Fargo,,52,,,,,new,1,1,,,,,,,,,,,,
null,,confidence_buffer,572484,confidence_buffer,,null,,,,,,,,,,,,,,,,,,,
null,,thebreak,572986,break,,null,,,,,,,,,,,,,,,,,,,
1718.5,,realistic_rating,574705,Newport News,,53,Newport News,5,,,,,,,,,,,,,,,,,
null,,confidence_buffer,574807,confidence_buffer,,null,,,,,,,,,,,,,,,,,,,
2226.100000000093,,pt2_unique_rating,577035,Newport News,,53,,5,,,,,,,,,,,,,,,,,
null,,confidence_buffer,577136,confidence_buffer,,null,,,,,,,,,,,,,,,,,,,
1602.3999999999069,,pt2_memorable_rating,578740,Newport News,,53,,5,,,,,,,,,,,,,,,,,
null,,confidence_buffer,578842,confidence_buffer,,null,,,,,,,,,,,,,,,,,,,
2409.7000000001863,,recognition_phase,581253,Newport News,,52,,,,,new,1,1,,,,,,,,,,,,
null,,confidence_buffer,581355,confidence_buffer,,null,,,,,,,,,,,,,,,,,,,
null,,thebreak,581856,break,,null,,,,,,,,,,,,,,,,,,,
2523.2000000001863,,realistic_rating,584380,Las Cruces,,53,Las Cruces,5,,,,,,,,,,,,,,,,,
null,,confidence_buffer,584481,confidence_buffer,,null,,,,,,,,,,,,,,,,,,,
3836,,pt2_unique_rating,588319,Las Cruces,,53,,5,,,,,,,,,,,,,,,,,
null,,confidence_buffer,588420,confidence_buffer,,null,,,,,,,,,,,,,,,,,,,
1211.4000000003725,,pt2_memorable_rating,589632,Las Cruces,,52,,4,,,,,,,,,,,,,,,,,
null,,confidence_buffer,589734,confidence_buffer,,null,,,,,,,,,,,,,,,,,,,
1248.5,,recognition_phase,590984,Las Cruces,,49,,,,,old,1,1,,,,,,,,,,,,
null,,confidence_buffer,591086,confidence_buffer,,null,,,,,,,,,,,,,,,,,,,
null,,thebreak,591587,break,,null,,,,,,,,,,,,,,,,,,,
3311.600000000093,,realistic_rating,594900,Norfolk,,53,Norfolk,5,,,,,,,,,,,,,,,,,
null,,confidence_buffer,595002,confidence_buffer,,null,,,,,,,,,,,,,,,,,,,
2600.8000000002794,,pt2_unique_rating,597604,Norfolk,,50,,2,,,,,,,,,,,,,,,,,
null,,confidence_buffer,597705,confidence_buffer,,null,,,,,,,,,,,,,,,,,,,
2484.7999999998137,,pt2_memorable_rating,600192,Norfolk,,51,,3,,,,,,,,,,,,,,,,,
null,,confidence_buffer,600293,confidence_buffer,,null,,,,,,,,,,,,,,,,,,,
2016.8999999999069,,recognition_phase,602311,Norfolk,,50,,,,,old,1,1,,,,,,,,,,,,
null,,confidence_buffer,602412,confidence_buffer,,null,,,,,,,,,,,,,,,,,,,
null,,thebreak,602914,break,,null,,,,,,,,,,,,,,,,,,,
3846,,realistic_rating,606761,Boise,,53,Boise,5,,,,,,,,,,,,,,,,,
null,,confidence_buffer,606863,confidence_buffer,,null,,,,,,,,,,,,,,,,,,,
1824.2000000001863,,pt2_unique_rating,608688,Boise,,52,,4,,,,,,,,,,,,,,,,,
null,,confidence_buffer,608790,confidence_buffer,,null,,,,,,,,,,,,,,,,,,,
1857,,pt2_memorable_rating,610648,Boise,,52,,4,,,,,,,,,,,,,,,,,
null,,confidence_buffer,610750,confidence_buffer,,null,,,,,,,,,,,,,,,,,,,
1282.8999999999069,,recognition_phase,612034,Boise,,52,,,,,new,1,1,,,,,,,,,,,,
null,,confidence_buffer,612136,confidence_buffer,,null,,,,,,,,,,,,,,,,,,,
null,,thebreak,612637,break,,null,,,,,,,,,,,,,,,,,,,
3681.399999999907,,realistic_rating,616320,Bozeman,,50,Bozeman,2,,,,,,,,,,,,,,,,,
null,,confidence_buffer,616422,confidence_buffer,,null,,,,,,,,,,,,,,,,,,,
4554.899999999907,,pt2_unique_rating,620978,Bozeman,,53,,5,,,,,,,,,,,,,,,,,
null,,confidence_buffer,621080,confidence_buffer,,null,,,,,,,,,,,,,,,,,,,
1813.1000000000931,,pt2_memorable_rating,622895,Bozeman,,53,,5,,,,,,,,,,,,,,,,,
null,,confidence_buffer,622997,confidence_buffer,,null,,,,,,,,,,,,,,,,,,,
1560.6000000000931,,recognition_phase,624559,Bozeman,,52,,,,,new,1,1,,,,,,,,,,,,
null,,confidence_buffer,624661,confidence_buffer,,null,,,,,,,,,,,,,,,,,,,
null,,thebreak,625162,break,,null,,,,,,,,,,,,,,,,,,,
1836.8000000002794,,realistic_rating,627000,Berkeley,,53,Berkeley,5,,,,,,,,,,,,,,,,,
null,,confidence_buffer,627102,confidence_buffer,,null,,,,,,,,,,,,,,,,,,,
1826,,pt2_unique_rating,628929,Berkeley,,51,,3,,,,,,,,,,,,,,,,,
null,,confidence_buffer,629031,confidence_buffer,,null,,,,,,,,,,,,,,,,,,,
1818.5,,pt2_memorable_rating,630851,Berkeley,,51,,3,,,,,,,,,,,,,,,,,
null,,confidence_buffer,630953,confidence_buffer,,null,,,,,,,,,,,,,,,,,,,
1183.3999999999069,,recognition_phase,632138,Berkeley,,50,,,,,old,1,1,,,,,,,,,,,,
null,,confidence_buffer,632239,confidence_buffer,,null,,,,,,,,,,,,,,,,,,,
null,,thebreak,632741,break,,null,,,,,,,,,,,,,,,,,,,
2210.6999999997206,,realistic_rating,634953,Yakima,,53,Yakima,5,,,,,,,,,,,,,,,,,
null,,confidence_buffer,635054,confidence_buffer,,null,,,,,,,,,,,,,,,,,,,
3542.7999999998137,,pt2_unique_rating,638599,Yakima,,53,,5,,,,,,,,,,,,,,,,,
null,,confidence_buffer,638700,confidence_buffer,,null,,,,,,,,,,,,,,,,,,,
1561.6999999997206,,pt2_memorable_rating,640263,Yakima,,53,,5,,,,,,,,,,,,,,,,,
null,,confidence_buffer,640365,confidence_buffer,,null,,,,,,,,,,,,,,,,,,,
1597.1000000000931,,recognition_phase,641964,Yakima,,52,,,,,new,1,1,,,,,,,,,,,,
null,,confidence_buffer,642066,confidence_buffer,,null,,,,,,,,,,,,,,,,,,,
null,,thebreak,642567,break,,null,,,,,,,,,,,,,,,,,,,
2760.6999999997206,,realistic_rating,645329,Dothan,,51,Dothan,3,,,,,,,,,,,,,,,,,
null,,confidence_buffer,645431,confidence_buffer,,null,,,,,,,,,,,,,,,,,,,
2691.2000000001863,,pt2_unique_rating,648123,Dothan,,52,,4,,,,,,,,,,,,,,,,,
null,,confidence_buffer,648225,confidence_buffer,,null,,,,,,,,,,,,,,,,,,,
3294,,pt2_memorable_rating,651521,Dothan,,51,,3,,,,,,,,,,,,,,,,,
null,,confidence_buffer,651622,confidence_buffer,,null,,,,,,,,,,,,,,,,,,,
2069.5,,recognition_phase,653693,Dothan,,51,,,,,new,1,1,,,,,,,,,,,,
null,,confidence_buffer,653795,confidence_buffer,,null,,,,,,,,,,,,,,,,,,,
null,,thebreak,654296,break,,null,,,,,,,,,,,,,,,,,,,
1539.5,,realistic_rating,655837,Pasadena,,53,Pasadena,5,,,,,,,,,,,,,,,,,
null,,confidence_buffer,655938,confidence_buffer,,null,,,,,,,,,,,,,,,,,,,
2081.5,,pt2_unique_rating,658021,Pasadena,,52,,4,,,,,,,,,,,,,,,,,
null,,confidence_buffer,658123,confidence_buffer,,null,,,,,,,,,,,,,,,,,,,
1413,,pt2_memorable_rating,659537,Pasadena,,52,,4,,,,,,,,,,,,,,,,,
null,,confidence_buffer,659639,confidence_buffer,,null,,,,,,,,,,,,,,,,,,,
1472.6000000000931,,recognition_phase,661113,Pasadena,,52,,,,,new,0,0.9736842105263158,,,,,,,,,,,,
null,,confidence_buffer,661215,confidence_buffer,,null,,,,,,,,,,,,,,,,,,,
null,,thebreak,661716,break,,null,,,,,,,,,,,,,,,,,,,
1601.3999999999069,,realistic_rating,663319,Champaign,,53,Champaign,5,,,,,,,,,,,,,,,,,
null,,confidence_buffer,663420,confidence_buffer,,null,,,,,,,,,,,,,,,,,,,
3348.899999999907,,pt2_unique_rating,666771,Champaign,,51,,3,,,,,,,,,,,,,,,,,
null,,confidence_buffer,666873,confidence_buffer,,null,,,,,,,,,,,,,,,,,,,
1145.5999999996275,,pt2_memorable_rating,668019,Champaign,,51,,3,,,,,,,,,,,,,,,,,
null,,confidence_buffer,668121,confidence_buffer,,null,,,,,,,,,,,,,,,,,,,
1744.1000000000931,,recognition_phase,669867,Champaign,,50,,,,,old,1,0.9743589743589743,,,,,,,,,,,,
null,,confidence_buffer,669968,confidence_buffer,,null,,,,,,,,,,,,,,,,,,,
null,,thebreak,670470,break,,null,,,,,,,,,,,,,,,,,,,
1862.2000000001863,,realistic_rating,672333,Stamford,,53,Stamford,5,,,,,,,,,,,,,,,,,
null,,confidence_buffer,672434,confidence_buffer,,null,,,,,,,,,,,,,,,,,,,
2544.6999999997206,,pt2_unique_rating,674981,Stamford,,52,,4,,,,,,,,,,,,,,,,,
null,,confidence_buffer,675082,confidence_buffer,,null,,,,,,,,,,,,,,,,,,,
1304.1000000000931,,pt2_memorable_rating,676388,Stamford,,52,,4,,,,,,,,,,,,,,,,,
null,,confidence_buffer,676489,confidence_buffer,,null,,,,,,,,,,,,,,,,,,,
1423.3999999999069,,probe_rating,677914,probe_rating,,53,,,5,1,,,,,,,,,,,,,,,
null,,confidence_buffer,678016,confidence_buffer,,null,,,,,,,,,,,,,,,,,,,
963.7000000001863,,recognition_phase,678981,Stamford,,49,,,,,old,1,0.975,,,,,,,,,,,,
null,,confidence_buffer,679083,confidence_buffer,,null,,,,,,,,,,,,,,,,,,,
null,,thebreak,679584,break,,null,,,,,,,,,,,,,,,,,,,
2381.399999999907,,realistic_rating,681967,New Haven,,53,New Haven,5,,,,,,,,,,,,,,,,,
null,,confidence_buffer,682068,confidence_buffer,,null,,,,,,,,,,,,,,,,,,,
1705.5,,pt2_unique_rating,683775,New Haven,,52,,4,,,,,,,,,,,,,,,,,
null,,confidence_buffer,683877,confidence_buffer,,null,,,,,,,,,,,,,,,,,,,
649,,pt2_memorable_rating,684527,New Haven,,52,,4,,,,,,,,,,,,,,,,,
null,,confidence_buffer,684629,confidence_buffer,,null,,,,,,,,,,,,,,,,,,,
577.3000000002794,,recognition_phase,685208,New Haven,,49,,,,,old,1,0.975609756097561,,,,,,,,,,,,
null,,confidence_buffer,685310,confidence_buffer,,null,,,,,,,,,,,,,,,,,,,
null,,thebreak,685811,break,,null,,,,,,,,,,,,,,,,,,,
2171.100000000093,,realistic_rating,687983,Pueblo,,53,Pueblo,5,,,,,,,,,,,,,,,,,
null,,confidence_buffer,688085,confidence_buffer,,null,,,,,,,,,,,,,,,,,,,
1419.7000000001863,,pt2_unique_rating,689506,Pueblo,,53,,5,,,,,,,,,,,,,,,,,
null,,confidence_buffer,689607,confidence_buffer,,null,,,,,,,,,,,,,,,,,,,
819,,pt2_memorable_rating,690428,Pueblo,,53,,5,,,,,,,,,,,,,,,,,
null,,confidence_buffer,690529,confidence_buffer,,null,,,,,,,,,,,,,,,,,,,
663.2000000001863,,recognition_phase,691193,Pueblo,,49,,,,,old,1,0.9761904761904762,,,,,,,,,,,,
null,,confidence_buffer,691295,confidence_buffer,,null,,,,,,,,,,,,,,,,,,,
null,,thebreak,691796,break,,null,,,,,,,,,,,,,,,,,,,
2514.7999999998137,,realistic_rating,694313,Concord,,53,Concord,5,,,,,,,,,,,,,,,,,
null,,confidence_buffer,694415,confidence_buffer,,null,,,,,,,,,,,,,,,,,,,
2935.399999999907,,pt2_unique_rating,697351,Concord,,50,,2,,,,,,,,,,,,,,,,,
null,,confidence_buffer,697453,confidence_buffer,,null,,,,,,,,,,,,,,,,,,,
925.2999999998137,,probe_rating,698380,probe_rating,,50,,,2,1,,,,,,,,,,,,,,,
null,,confidence_buffer,698481,confidence_buffer,,null,,,,,,,,,,,,,,,,,,,
2682.600000000093,,pt2_memorable_rating,701165,Concord,,51,,3,,,,,,,,,,,,,,,,,
null,,confidence_buffer,701267,confidence_buffer,,null,,,,,,,,,,,,,,,,,,,
2218.6999999997206,,recognition_phase,703487,Concord,,51,,,,,new,1,0.9767441860465116,,,,,,,,,,,,
null,,confidence_buffer,703588,confidence_buffer,,null,,,,,,,,,,,,,,,,,,,
null,,thebreak,704089,break,,null,,,,,,,,,,,,,,,,,,,
3311.5,,realistic_rating,707402,Olympia,,53,Olympia,5,,,,,,,,,,,,,,,,,
null,,confidence_buffer,707504,confidence_buffer,,null,,,,,,,,,,,,,,,,,,,
2486.7000000001863,,pt2_unique_rating,709992,Olympia,,51,,3,,,,,,,,,,,,,,,,,
null,,confidence_buffer,710094,confidence_buffer,,null,,,,,,,,,,,,,,,,,,,
1337.5,,pt2_memorable_rating,711433,Olympia,,51,,3,,,,,,,,,,,,,,,,,
null,,confidence_buffer,711534,confidence_buffer,,null,,,,,,,,,,,,,,,,,,,
2818.899999999907,,recognition_phase,714355,Olympia,,51,,,,,new,1,0.9772727272727273,,,,,,,,,,,,
null,,confidence_buffer,714456,confidence_buffer,,null,,,,,,,,,,,,,,,,,,,
null,,thebreak,714957,break,,null,,,,,,,,,,,,,,,,,,,
2958.0999999996275,,realistic_rating,717917,Boulder,,53,Boulder,5,,,,,,,,,,,,,,,,,
null,,confidence_buffer,718019,confidence_buffer,,null,,,,,,,,,,,,,,,,,,,
3031.5,,pt2_unique_rating,721052,Boulder,,51,,3,,,,,,,,,,,,,,,,,
null,,confidence_buffer,721153,confidence_buffer,,null,,,,,,,,,,,,,,,,,,,
2431.2999999998137,,pt2_memorable_rating,723586,Boulder,,53,,5,,,,,,,,,,,,,,,,,
null,,confidence_buffer,723687,confidence_buffer,,null,,,,,,,,,,,,,,,,,,,
1239.5999999996275,,recognition_phase,724929,Boulder,,52,,,,,new,1,0.9777777777777777,,,,,,,,,,,,
null,,confidence_buffer,725030,confidence_buffer,,null,,,,,,,,,,,,,,,,,,,
null,,thebreak,725532,break,,null,,,,,,,,,,,,,,,,,,,
2820.6999999997206,,realistic_rating,728354,Fort Collins,,53,Fort Collins,5,,,,,,,,,,,,,,,,,
null,,confidence_buffer,728455,confidence_buffer,,null,,,,,,,,,,,,,,,,,,,
1727.6000000000931,,pt2_unique_rating,730184,Fort Collins,,52,,4,,,,,,,,,,,,,,,,,
null,,confidence_buffer,730286,confidence_buffer,,null,,,,,,,,,,,,,,,,,,,
1627.3999999999069,,pt2_memorable_rating,731914,Fort Collins,,51,,3,,,,,,,,,,,,,,,,,
null,,confidence_buffer,732016,confidence_buffer,,null,,,,,,,,,,,,,,,,,,,
3595.100000000093,,recognition_phase,735612,Fort Collins,,51,,,,,new,1,0.9782608695652174,,,,,,,,,,,,
null,,confidence_buffer,735714,confidence_buffer,,null,,,,,,,,,,,,,,,,,,,
null,,thebreak,736215,break,,null,,,,,,,,,,,,,,,,,,,
1584.1999999997206,,realistic_rating,737801,Frankfort,,52,Frankfort,4,,,,,,,,,,,,,,,,,
null,,confidence_buffer,737903,confidence_buffer,,null,,,,,,,,,,,,,,,,,,,
2349,,pt2_unique_rating,740253,Frankfort,,50,,2,,,,,,,,,,,,,,,,,
null,,confidence_buffer,740355,confidence_buffer,,null,,,,,,,,,,,,,,,,,,,
1826.8000000002794,,pt2_memorable_rating,742183,Frankfort,,51,,3,,,,,,,,,,,,,,,,,
null,,confidence_buffer,742285,confidence_buffer,,null,,,,,,,,,,,,,,,,,,,
527.0999999996275,,recognition_phase,742813,Frankfort,,49,,,,,old,1,0.9787234042553191,,,,,,,,,,,,
null,,confidence_buffer,742915,confidence_buffer,,null,,,,,,,,,,,,,,,,,,,
null,,thebreak,743416,break,,null,,,,,,,,,,,,,,,,,,,
3326,,realistic_rating,746744,Syracuse,,53,Syracuse,5,,,,,,,,,,,,,,,,,
null,,confidence_buffer,746845,confidence_buffer,,null,,,,,,,,,,,,,,,,,,,
2210.399999999907,,pt2_unique_rating,749057,Syracuse,,52,,4,,,,,,,,,,,,,,,,,
null,,confidence_buffer,749159,confidence_buffer,,null,,,,,,,,,,,,,,,,,,,
946.2999999998137,,pt2_memorable_rating,750107,Syracuse,,52,,4,,,,,,,,,,,,,,,,,
null,,confidence_buffer,750208,confidence_buffer,,null,,,,,,,,,,,,,,,,,,,
683.3999999999069,,recognition_phase,750893,Syracuse,,49,,,,,old,1,0.9791666666666666,,,,,,,,,,,,
null,,confidence_buffer,750995,confidence_buffer,,null,,,,,,,,,,,,,,,,,,,
null,,thebreak,751496,break,,null,,,,,,,,,,,,,,,,,,,
6202.600000000093,,realistic_rating,757700,Scottsdale,,52,Scottsdale,4,,,,,,,,,,,,,,,,,
null,,confidence_buffer,757802,confidence_buffer,,null,,,,,,,,,,,,,,,,,,,
3548.9000000003725,,pt2_unique_rating,761352,Scottsdale,,52,,4,,,,,,,,,,,,,,,,,
null,,confidence_buffer,761454,confidence_buffer,,null,,,,,,,,,,,,,,,,,,,
1374.5,,pt2_memorable_rating,762829,Scottsdale,,52,,4,,,,,,,,,,,,,,,,,
null,,confidence_buffer,762931,confidence_buffer,,null,,,,,,,,,,,,,,,,,,,
1098.1000000000931,,recognition_phase,764031,Scottsdale,,49,,,,,old,1,0.9795918367346939,,,,,,,,,,,,
null,,confidence_buffer,764132,confidence_buffer,,null,,,,,,,,,,,,,,,,,,,
null,,thebreak,764633,break,,null,,,,,,,,,,,,,,,,,,,
1781.5,,realistic_rating,766416,Cheyenne,,53,Cheyenne,5,,,,,,,,,,,,,,,,,
null,,confidence_buffer,766517,confidence_buffer,,null,,,,,,,,,,,,,,,,,,,
1701.8999999999069,,pt2_unique_rating,768219,Cheyenne,,50,,2,,,,,,,,,,,,,,,,,
null,,confidence_buffer,768321,confidence_buffer,,null,,,,,,,,,,,,,,,,,,,
1946.1999999997206,,pt2_memorable_rating,770268,Cheyenne,,51,,3,,,,,,,,,,,,,,,,,
null,,confidence_buffer,770370,confidence_buffer,,null,,,,,,,,,,,,,,,,,,,
1298.6000000000931,,recognition_phase,771670,Cheyenne,,52,,,,,new,1,0.98,,,,,,,,,,,,
null,,confidence_buffer,771771,confidence_buffer,,null,,,,,,,,,,,,,,,,,,,
null,,thebreak,772272,break,,null,,,,,,,,,,,,,,,,,,,
,,survey,1446750,survey-questions,,,,,,,,,,none,high,I wasn't doing anything else.,I just tried to remember if I had read a name recently or not. Some words were obviously easier to remember; but I also went on feelings for others.,How certain I was about the state it went with; how strong the feeling of knowing was when reading the name,This was just how quickly I thought I could remember the name if asked to name cities. More unique names were more memorable.,Whether I could either think of or imagine there being other cities with the same name (like I imagine there's only one Pueblo and know there's multiple Salems),Whether I could name the state or country,N/A,The study was fun.,,
5218.200000000186,,thank_you,1451986,all_done,,32,,,,,,,,,,,,,,,,,,2,0
