rt,responses,trial_type,time_elapsed,stimulus,button_pressed,key_press,name_trial,city_type,rating,probe,probe_accuracy,response,correct,accuracy
6977.299999982119,{worker_id:5b21f6f6648d5b0001b7c648},id_enter,6983,,,,,,,,,,,
11740.700000017881,,fullscreen,18727,fullscreen,0,,,,,,,,,
5397.0999999940395,,intro_0,24132,instruct,,32,,,,,,,,
7023.0999999940395,,intro_1,31157,instruct,,32,,,,,,,,
4673.0999999940395,,intro_2,35831,instruct,,32,,,,,,,,
null,,instruct_dir_4,37334,instruct,,null,,,,,,,,
null,,thebreak,37836,break,,null,,,,,,,,
9340.699999988079,,familiar_rating,47177,Fairhaven,,53,Fairhaven,Fictional,5,,,,,
null,,confidence_buffer,47280,confidence_buffer,,null,,,,,,,,
3376.0999999940395,,probe_rating,50657,probe_rating,,49,,,,1,1,,,
null,,confidence_buffer,50759,confidence_buffer,,null,,,,,,,,
9670,,unique_rating,60429,Fairhaven,,53,,,5,,,,,
null,,confidence_buffer,60531,confidence_buffer,,null,,,,,,,,
3036.199999988079,,memorable_rating,63568,Fairhaven,,53,,,5,,,,,
null,,confidence_buffer,63670,confidence_buffer,,null,,,,,,,,
null,,thebreak,64172,break,,null,,,,,,,,
5458.4000000059605,,familiar_rating,69631,Hilo,,49,Hilo,US,1,,,,,
null,,confidence_buffer,69733,confidence_buffer,,null,,,,,,,,
3151.5,,unique_rating,72885,Hilo,,53,,,5,,,,,
null,,confidence_buffer,72988,confidence_buffer,,null,,,,,,,,
2976.5,,memorable_rating,75965,Hilo,,52,,,4,,,,,
null,,confidence_buffer,76067,confidence_buffer,,null,,,,,,,,
1915,,probe_rating,77983,probe_rating,,50,,,,2,1,,,
null,,confidence_buffer,78085,confidence_buffer,,null,,,,,,,,
null,,thebreak,78587,break,,null,,,,,,,,
3445.5999999940395,,familiar_rating,82033,West Palm Beach,,53,West Palm Beach,US,5,,,,,
null,,confidence_buffer,82136,confidence_buffer,,null,,,,,,,,
2949.600000023842,,unique_rating,85086,West Palm Beach,,50,,,2,,,,,
null,,confidence_buffer,85188,confidence_buffer,,null,,,,,,,,
3520.399999976158,,memorable_rating,88710,West Palm Beach,,53,,,5,,,,,
null,,confidence_buffer,88811,confidence_buffer,,null,,,,,,,,
null,,thebreak,89316,break,,null,,,,,,,,
12786.299999982119,,familiar_rating,102104,Berkeley Springs,,49,Berkeley Springs,US,1,,,,,
null,,confidence_buffer,102206,confidence_buffer,,null,,,,,,,,
1927.9000000059605,,unique_rating,104135,Berkeley Springs,,51,,,3,,,,,
null,,confidence_buffer,104236,confidence_buffer,,null,,,,,,,,
5094.300000011921,,memorable_rating,109332,Berkeley Springs,,50,,,2,,,,,
null,,confidence_buffer,109433,confidence_buffer,,null,,,,,,,,
null,,thebreak,109935,break,,null,,,,,,,,
3007.5999999940395,,familiar_rating,112943,Hollendale,,50,Hollendale,Fictional,2,,,,,
null,,confidence_buffer,113044,confidence_buffer,,null,,,,,,,,
1880.300000011921,,unique_rating,114925,Hollendale,,51,,,3,,,,,
null,,confidence_buffer,115027,confidence_buffer,,null,,,,,,,,
4436,,memorable_rating,119463,Hollendale,,50,,,2,,,,,
null,,confidence_buffer,119564,confidence_buffer,,null,,,,,,,,
4431,,probe_rating,123995,probe_rating,,52,,,,4,1,,,
null,,confidence_buffer,124097,confidence_buffer,,null,,,,,,,,
null,,thebreak,124598,break,,null,,,,,,,,
5086,,familiar_rating,129685,Oakridge,,52,Oakridge,Fictional,4,,,,,
null,,confidence_buffer,129786,confidence_buffer,,null,,,,,,,,
3481.2000000178814,,unique_rating,133268,Oakridge,,51,,,3,,,,,
null,,confidence_buffer,133375,confidence_buffer,,null,,,,,,,,
2230.5,,probe_rating,135606,probe_rating,,49,,,,1,1,,,
null,,confidence_buffer,135723,confidence_buffer,,null,,,,,,,,
4141.699999988079,,memorable_rating,139866,Oakridge,,51,,,3,,,,,
null,,confidence_buffer,139968,confidence_buffer,,null,,,,,,,,
null,,thebreak,140468,break,,null,,,,,,,,
4994.5999999940395,,familiar_rating,145464,Northbridge,,50,Northbridge,Fictional,2,,,,,
null,,confidence_buffer,145565,confidence_buffer,,null,,,,,,,,
2955.2999999821186,,unique_rating,148521,Northbridge,,49,,,1,,,,,
null,,confidence_buffer,148622,confidence_buffer,,null,,,,,,,,
2436.2000000178814,,memorable_rating,151059,Northbridge,,49,,,1,,,,,
null,,confidence_buffer,151160,confidence_buffer,,null,,,,,,,,
null,,thebreak,151662,break,,null,,,,,,,,
2827.0999999940395,,familiar_rating,154489,New Hope,,50,New Hope,US,2,,,,,
null,,confidence_buffer,154591,confidence_buffer,,null,,,,,,,,
1420.800000011921,,unique_rating,156012,New Hope,,49,,,1,,,,,
null,,confidence_buffer,156114,confidence_buffer,,null,,,,,,,,
2156.4000000059605,,memorable_rating,158271,New Hope,,51,,,3,,,,,
null,,confidence_buffer,158373,confidence_buffer,,null,,,,,,,,
null,,thebreak,158875,break,,null,,,,,,,,
3135,,familiar_rating,162011,Orchard Bend,,49,Orchard Bend,Fictional,1,,,,,
null,,confidence_buffer,162113,confidence_buffer,,null,,,,,,,,
3478.0999999940395,,probe_rating,165592,probe_rating,,52,,,,4,1,,,
null,,confidence_buffer,165694,confidence_buffer,,null,,,,,,,,
14392.299999982119,,unique_rating,180087,Orchard Bend,,53,,,5,,,,,
null,,confidence_buffer,180190,confidence_buffer,,null,,,,,,,,
5092.800000011921,,memorable_rating,185284,Orchard Bend,,52,,,4,,,,,
null,,confidence_buffer,185386,confidence_buffer,,null,,,,,,,,
null,,thebreak,185888,break,,null,,,,,,,,
2797.9000000059605,,familiar_rating,188688,Bayshore Haven,,49,Bayshore Haven,Fictional,1,,,,,
null,,confidence_buffer,188790,confidence_buffer,,null,,,,,,,,
2564.100000023842,,unique_rating,191355,Bayshore Haven,,53,,,5,,,,,
null,,confidence_buffer,191456,confidence_buffer,,null,,,,,,,,
1805.800000011921,,memorable_rating,193262,Bayshore Haven,,53,,,5,,,,,
null,,confidence_buffer,193364,confidence_buffer,,null,,,,,,,,
null,,thebreak,193865,break,,null,,,,,,,,
4938,,familiar_rating,198803,New Verdan,,49,New Verdan,Fictional,1,,,,,
null,,confidence_buffer,198905,confidence_buffer,,null,,,,,,,,
1358.3999999761581,,unique_rating,200264,New Verdan,,51,,,3,,,,,
null,,confidence_buffer,200366,confidence_buffer,,null,,,,,,,,
2724.2999999821186,,memorable_rating,203090,New Verdan,,52,,,4,,,,,
null,,confidence_buffer,203193,confidence_buffer,,null,,,,,,,,
null,,thebreak,203694,break,,null,,,,,,,,
3489.0999999940395,,familiar_rating,207183,Gardnerville,,49,Gardnerville,US,1,,,,,
null,,confidence_buffer,207285,confidence_buffer,,null,,,,,,,,
3590.2999999821186,,unique_rating,210876,Gardnerville,,50,,,2,,,,,
null,,confidence_buffer,210976,confidence_buffer,,null,,,,,,,,
2635.699999988079,,memorable_rating,213612,Gardnerville,,49,,,1,,,,,
null,,confidence_buffer,213715,confidence_buffer,,null,,,,,,,,
null,,thebreak,214216,break,,null,,,,,,,,
3055.699999988079,,familiar_rating,217273,Solara Glen,,49,Solara Glen,Fictional,1,,,,,
null,,confidence_buffer,217374,confidence_buffer,,null,,,,,,,,
1122.300000011921,,unique_rating,218496,Solara Glen,,53,,,5,,,,,
null,,confidence_buffer,218598,confidence_buffer,,null,,,,,,,,
2853.2000000178814,,probe_rating,221452,probe_rating,,52,,,,4,1,,,
null,,confidence_buffer,221553,confidence_buffer,,null,,,,,,,,
2528.300000011921,,memorable_rating,224082,Solara Glen,,52,,,4,,,,,
null,,confidence_buffer,224183,confidence_buffer,,null,,,,,,,,
null,,thebreak,224684,break,,null,,,,,,,,
2593,,familiar_rating,227278,Hanover,,53,Hanover,US,5,,,,,
null,,confidence_buffer,227380,confidence_buffer,,null,,,,,,,,
5147.4000000059605,,unique_rating,232528,Hanover,,52,,,4,,,,,
null,,confidence_buffer,232630,confidence_buffer,,null,,,,,,,,
1279,,memorable_rating,233909,Hanover,,52,,,4,,,,,
null,,confidence_buffer,234011,confidence_buffer,,null,,,,,,,,
2423,,probe_rating,236434,probe_rating,,50,,,,2,1,,,
null,,confidence_buffer,236536,confidence_buffer,,null,,,,,,,,
null,,thebreak,237037,break,,null,,,,,,,,
1742.199999988079,,familiar_rating,238779,Newport,,53,Newport,US,5,,,,,
null,,confidence_buffer,238881,confidence_buffer,,null,,,,,,,,
1980.199999988079,,unique_rating,240861,Newport,,49,,,1,,,,,
null,,confidence_buffer,240963,confidence_buffer,,null,,,,,,,,
2031.199999988079,,memorable_rating,242994,Newport,,53,,,5,,,,,
null,,confidence_buffer,243096,confidence_buffer,,null,,,,,,,,
null,,thebreak,243597,break,,null,,,,,,,,
4691.5999999940395,,familiar_rating,248289,Maravilla Springs,,51,Maravilla Springs,Fictional,3,,,,,
null,,confidence_buffer,248390,confidence_buffer,,null,,,,,,,,
1560.699999988079,,unique_rating,249951,Maravilla Springs,,51,,,3,,,,,
null,,confidence_buffer,250052,confidence_buffer,,null,,,,,,,,
1854.0999999940395,,memorable_rating,251907,Maravilla Springs,,50,,,2,,,,,
null,,confidence_buffer,252015,confidence_buffer,,null,,,,,,,,
3440.2999999821186,,probe_rating,255456,probe_rating,,51,,,,3,1,,,
null,,confidence_buffer,255558,confidence_buffer,,null,,,,,,,,
null,,thebreak,256060,break,,null,,,,,,,,
2425.2999999821186,,familiar_rating,258485,Riverlyn,,49,Riverlyn,Fictional,1,,,,,
null,,confidence_buffer,258587,confidence_buffer,,null,,,,,,,,
1199.9000000059605,,unique_rating,259787,Riverlyn,,53,,,5,,,,,
null,,confidence_buffer,259889,confidence_buffer,,null,,,,,,,,
2010.4000000059605,,memorable_rating,261900,Riverlyn,,51,,,3,,,,,
null,,confidence_buffer,262002,confidence_buffer,,null,,,,,,,,
null,,thebreak,262503,break,,null,,,,,,,,
4951.0999999940395,,familiar_rating,267454,Duck,,49,Duck,US,1,,,,,
null,,confidence_buffer,267557,confidence_buffer,,null,,,,,,,,
1958,,unique_rating,269516,Duck,,49,,,1,,,,,
null,,confidence_buffer,269616,confidence_buffer,,null,,,,,,,,
2154.5,,memorable_rating,271772,Duck,,52,,,4,,,,,
null,,confidence_buffer,271873,confidence_buffer,,null,,,,,,,,
null,,thebreak,272375,break,,null,,,,,,,,
2542.4000000059605,,familiar_rating,274918,Medora,,49,Medora,US,1,,,,,
null,,confidence_buffer,275019,confidence_buffer,,null,,,,,,,,
1135.3999999761581,,unique_rating,276156,Medora,,52,,,4,,,,,
null,,confidence_buffer,276272,confidence_buffer,,null,,,,,,,,
2084.399999976158,,memorable_rating,278358,Medora,,52,,,4,,,,,
null,,confidence_buffer,278460,confidence_buffer,,null,,,,,,,,
null,,thebreak,278961,break,,null,,,,,,,,
6008.299999982119,,familiar_rating,284971,Watkins Glen,,49,Watkins Glen,US,1,,,,,
null,,confidence_buffer,285072,confidence_buffer,,null,,,,,,,,
1265,,unique_rating,286338,Watkins Glen,,51,,,3,,,,,
null,,confidence_buffer,286439,confidence_buffer,,null,,,,,,,,
962,,memorable_rating,287402,Watkins Glen,,50,,,2,,,,,
null,,confidence_buffer,287504,confidence_buffer,,null,,,,,,,,
null,,thebreak,288005,break,,null,,,,,,,,
1900.1000000238419,,familiar_rating,289906,West Talora,,49,West Talora,Fictional,1,,,,,
null,,confidence_buffer,290009,confidence_buffer,,null,,,,,,,,
1388,,unique_rating,291398,West Talora,,52,,,4,,,,,
null,,confidence_buffer,291500,confidence_buffer,,null,,,,,,,,
2140.699999988079,,memorable_rating,293642,West Talora,,51,,,3,,,,,
null,,confidence_buffer,293743,confidence_buffer,,null,,,,,,,,
null,,thebreak,294247,break,,null,,,,,,,,
3552.0999999940395,,familiar_rating,297800,Park City,,50,Park City,US,2,,,,,
null,,confidence_buffer,297903,confidence_buffer,,null,,,,,,,,
1337.199999988079,,unique_rating,299241,Park City,,49,,,1,,,,,
null,,confidence_buffer,299343,confidence_buffer,,null,,,,,,,,
2850.199999988079,,probe_rating,302194,probe_rating,,51,,,,3,0,,,
null,,confidence_buffer,302296,confidence_buffer,,null,,,,,,,,
3603.300000011921,,memorable_rating,305900,Park City,,52,,,4,,,,,
null,,confidence_buffer,306002,confidence_buffer,,null,,,,,,,,
null,,thebreak,306504,break,,null,,,,,,,,
13956.90000000596,,familiar_rating,320462,Clearbrook,,49,Clearbrook,Fictional,1,,,,,
null,,confidence_buffer,320564,confidence_buffer,,null,,,,,,,,
7134.299999982119,,unique_rating,327700,Clearbrook,,51,,,3,,,,,
null,,confidence_buffer,327801,confidence_buffer,,null,,,,,,,,
2758.2999999821186,,memorable_rating,330561,Clearbrook,,50,,,2,,,,,
null,,confidence_buffer,330665,confidence_buffer,,null,,,,,,,,
null,,thebreak,331168,break,,null,,,,,,,,
1663.5999999940395,,familiar_rating,332832,Peoria,,53,Peoria,US,5,,,,,
null,,confidence_buffer,332935,confidence_buffer,,null,,,,,,,,
4247.200000017881,,unique_rating,337183,Peoria,,53,,,5,,,,,
null,,confidence_buffer,337284,confidence_buffer,,null,,,,,,,,
2099.5999999940395,,memorable_rating,339385,Peoria,,53,,,5,,,,,
null,,confidence_buffer,339487,confidence_buffer,,null,,,,,,,,
null,,thebreak,339989,break,,null,,,,,,,,
2504.300000011921,,familiar_rating,342494,Delaro Park,,49,Delaro Park,Fictional,1,,,,,
null,,confidence_buffer,342596,confidence_buffer,,null,,,,,,,,
1711.5999999940395,,unique_rating,344308,Delaro Park,,51,,,3,,,,,
null,,confidence_buffer,344410,confidence_buffer,,null,,,,,,,,
2955.899999976158,,memorable_rating,347367,Delaro Park,,49,,,1,,,,,
null,,confidence_buffer,347469,confidence_buffer,,null,,,,,,,,
null,,thebreak,347971,break,,null,,,,,,,,
1331.699999988079,,familiar_rating,349304,Huntsville,,53,Huntsville,US,5,,,,,
null,,confidence_buffer,349406,confidence_buffer,,null,,,,,,,,
3268.5999999940395,,unique_rating,352675,Huntsville,,50,,,2,,,,,
null,,confidence_buffer,352777,confidence_buffer,,null,,,,,,,,
3890.7999999821186,,memorable_rating,356669,Huntsville,,53,,,5,,,,,
null,,confidence_buffer,356771,confidence_buffer,,null,,,,,,,,
null,,thebreak,357273,break,,null,,,,,,,,
4843.799999982119,,familiar_rating,362118,Granton Ridge,,49,Granton Ridge,Fictional,1,,,,,
null,,confidence_buffer,362220,confidence_buffer,,null,,,,,,,,
5565.300000011921,,unique_rating,367787,Granton Ridge,,49,,,1,,,,,
null,,confidence_buffer,367888,confidence_buffer,,null,,,,,,,,
3235.300000011921,,memorable_rating,371124,Granton Ridge,,49,,,1,,,,,
null,,confidence_buffer,371226,confidence_buffer,,null,,,,,,,,
null,,thebreak,371727,break,,null,,,,,,,,
3211.5999999940395,,familiar_rating,374939,Ravenport,,50,Ravenport,Fictional,2,,,,,
null,,confidence_buffer,375041,confidence_buffer,,null,,,,,,,,
5323.199999988079,,unique_rating,380364,Ravenport,,51,,,3,,,,,
null,,confidence_buffer,380467,confidence_buffer,,null,,,,,,,,
3688.5,,memorable_rating,384156,Ravenport,,53,,,5,,,,,
null,,confidence_buffer,384258,confidence_buffer,,null,,,,,,,,
null,,thebreak,384760,break,,null,,,,,,,,
2000.7000000178814,,familiar_rating,386761,Alliance,,49,Alliance,US,1,,,,,
null,,confidence_buffer,386863,confidence_buffer,,null,,,,,,,,
3017.5,,unique_rating,389881,Alliance,,52,,,4,,,,,
null,,confidence_buffer,389982,confidence_buffer,,null,,,,,,,,
1236.4000000059605,,memorable_rating,391219,Alliance,,52,,,4,,,,,
null,,confidence_buffer,391321,confidence_buffer,,null,,,,,,,,
null,,thebreak,391823,break,,null,,,,,,,,
2392,,familiar_rating,394215,Shreveport,,53,Shreveport,US,5,,,,,
null,,confidence_buffer,394316,confidence_buffer,,null,,,,,,,,
2131.9000000059605,,unique_rating,396448,Shreveport,,52,,,4,,,,,
null,,confidence_buffer,396550,confidence_buffer,,null,,,,,,,,
1263.300000011921,,memorable_rating,397813,Shreveport,,53,,,5,,,,,
null,,confidence_buffer,397928,confidence_buffer,,null,,,,,,,,
null,,thebreak,398429,break,,null,,,,,,,,
4642.5,,intro_0,403072,instruct,,32,,,,,,,,
7889,,intro_1,410962,instruct,,32,,,,,,,,
20771.19999998808,,intro_2,431733,instruct,,32,,,,,,,,
null,,instruct_dir_4,433234,instruct,,null,,,,,,,,
16182.40000000596,,realistic_rating,449417,Oakridge,,53,Oakridge,Fictional,5,,,,,
null,,confidence_buffer,449518,confidence_buffer,,null,,,,,,,,
5207.5999999940395,,pt2_unique_rating,454726,Oakridge,,50,,,2,,,,,
null,,confidence_buffer,454828,confidence_buffer,,null,,,,,,,,
3586.7999999821186,,pt2_memorable_rating,458415,Oakridge,,51,,,3,,,,,
null,,confidence_buffer,458517,confidence_buffer,,null,,,,,,,,
5620.299999982119,,recognition_phase,464137,Oakridge,,49,,,,,,old,1,1
null,,confidence_buffer,464239,confidence_buffer,,null,,,,,,,,
null,,thebreak,464740,break,,null,,,,,,,,
8678.09999999404,,realistic_rating,473419,San Antonio,,53,San Antonio,US,5,,,,,
null,,confidence_buffer,473521,confidence_buffer,,null,,,,,,,,
4516.299999982119,,pt2_unique_rating,478037,San Antonio,,51,,,3,,,,,
null,,confidence_buffer,478140,confidence_buffer,,null,,,,,,,,
2075.699999988079,,pt2_memorable_rating,480216,San Antonio,,53,,,5,,,,,
null,,confidence_buffer,480317,confidence_buffer,,null,,,,,,,,
2098.100000023842,,probe_rating,482416,probe_rating,,53,,,,5,1,,,
null,,confidence_buffer,482518,confidence_buffer,,null,,,,,,,,
3792.2000000178814,,recognition_phase,486311,San Antonio,,52,,,,,,new,1,1
null,,confidence_buffer,486413,confidence_buffer,,null,,,,,,,,
null,,thebreak,486915,break,,null,,,,,,,,
3649.5999999940395,,realistic_rating,490565,Peoria,,53,Peoria,US,5,,,,,
null,,confidence_buffer,490667,confidence_buffer,,null,,,,,,,,
6991.4000000059605,,pt2_unique_rating,497659,Peoria,,52,,,4,,,,,
null,,confidence_buffer,497760,confidence_buffer,,null,,,,,,,,
1848.300000011921,,pt2_memorable_rating,499609,Peoria,,53,,,5,,,,,
null,,confidence_buffer,499710,confidence_buffer,,null,,,,,,,,
3026.800000011921,,recognition_phase,502738,Peoria,,49,,,,,,old,1,1
null,,confidence_buffer,502839,confidence_buffer,,null,,,,,,,,
null,,thebreak,503340,break,,null,,,,,,,,
4956,,realistic_rating,508297,Abilene,,53,Abilene,US,5,,,,,
null,,confidence_buffer,508404,confidence_buffer,,null,,,,,,,,
4400.5999999940395,,pt2_unique_rating,512805,Abilene,,52,,,4,,,,,
null,,confidence_buffer,512906,confidence_buffer,,null,,,,,,,,
1771.0999999940395,,pt2_memorable_rating,514678,Abilene,,53,,,5,,,,,
null,,confidence_buffer,514779,confidence_buffer,,null,,,,,,,,
6745,,recognition_phase,521524,Abilene,,52,,,,,,new,1,1
null,,confidence_buffer,521626,confidence_buffer,,null,,,,,,,,
null,,thebreak,522127,break,,null,,,,,,,,
3206.4000000059605,,realistic_rating,525334,Hanover,,53,Hanover,US,5,,,,,
null,,confidence_buffer,525436,confidence_buffer,,null,,,,,,,,
1964.7000000178814,,pt2_unique_rating,527401,Hanover,,50,,,2,,,,,
null,,confidence_buffer,527503,confidence_buffer,,null,,,,,,,,
2014,,probe_rating,529517,probe_rating,,53,,,,5,1,,,
null,,confidence_buffer,529619,confidence_buffer,,null,,,,,,,,
5069.700000017881,,pt2_memorable_rating,534689,Hanover,,51,,,3,,,,,
null,,confidence_buffer,534791,confidence_buffer,,null,,,,,,,,
3420.9000000059605,,recognition_phase,538213,Hanover,,49,,,,,,old,1,1
null,,confidence_buffer,538314,confidence_buffer,,null,,,,,,,,
null,,thebreak,538816,break,,null,,,,,,,,
3622.800000011921,,realistic_rating,542439,Carmel,,51,Carmel,US,3,,,,,
null,,confidence_buffer,542542,confidence_buffer,,null,,,,,,,,
1798.0999999940395,,probe_rating,544341,probe_rating,,53,,,,5,1,,,
null,,confidence_buffer,544442,confidence_buffer,,null,,,,,,,,
6531,,pt2_unique_rating,550974,Carmel,,49,,,1,,,,,
null,,confidence_buffer,551076,confidence_buffer,,null,,,,,,,,
2314.5999999940395,,pt2_memorable_rating,553392,Carmel,,50,,,2,,,,,
null,,confidence_buffer,553493,confidence_buffer,,null,,,,,,,,
4368.0999999940395,,recognition_phase,557862,Carmel,,52,,,,,,new,1,1
null,,confidence_buffer,557964,confidence_buffer,,null,,,,,,,,
null,,thebreak,558467,break,,null,,,,,,,,
3374,,realistic_rating,561842,Newport,,53,Newport,US,5,,,,,
null,,confidence_buffer,561944,confidence_buffer,,null,,,,,,,,
3517.5999999940395,,pt2_unique_rating,565462,Newport,,50,,,2,,,,,
null,,confidence_buffer,565564,confidence_buffer,,null,,,,,,,,
2354.2999999821186,,pt2_memorable_rating,567920,Newport,,51,,,3,,,,,
null,,confidence_buffer,568021,confidence_buffer,,null,,,,,,,,
2964.5999999940395,,recognition_phase,570986,Newport,,49,,,,,,old,1,1
null,,confidence_buffer,571096,confidence_buffer,,null,,,,,,,,
null,,thebreak,571598,break,,null,,,,,,,,
4437.299999982119,,realistic_rating,576036,Hot Springs,,52,Hot Springs,US,4,,,,,
null,,confidence_buffer,576145,confidence_buffer,,null,,,,,,,,
2029.300000011921,,pt2_unique_rating,578175,Hot Springs,,49,,,1,,,,,
null,,confidence_buffer,578277,confidence_buffer,,null,,,,,,,,
2033.7000000178814,,pt2_memorable_rating,580312,Hot Springs,,51,,,3,,,,,
null,,confidence_buffer,580414,confidence_buffer,,null,,,,,,,,
3909.199999988079,,recognition_phase,584323,Hot Springs,,52,,,,,,new,1,1
null,,confidence_buffer,584425,confidence_buffer,,null,,,,,,,,
null,,thebreak,584925,break,,null,,,,,,,,
2808.2999999821186,,realistic_rating,587734,Fairhaven,,53,Fairhaven,Fictional,5,,,,,
null,,confidence_buffer,587835,confidence_buffer,,null,,,,,,,,
7056.199999988079,,pt2_unique_rating,594892,Fairhaven,,51,,,3,,,,,
null,,confidence_buffer,594995,confidence_buffer,,null,,,,,,,,
3847.0999999940395,,pt2_memorable_rating,598842,Fairhaven,,50,,,2,,,,,
null,,confidence_buffer,598944,confidence_buffer,,null,,,,,,,,
2463.9000000059605,,probe_rating,601408,probe_rating,,51,,,,3,1,,,
null,,confidence_buffer,601510,confidence_buffer,,null,,,,,,,,
2160.699999988079,,recognition_phase,603671,Fairhaven,,49,,,,,,old,1,1
null,,confidence_buffer,603773,confidence_buffer,,null,,,,,,,,
null,,thebreak,604275,break,,null,,,,,,,,
3403,,realistic_rating,607679,Huntsville,,53,Huntsville,US,5,,,,,
null,,confidence_buffer,607780,confidence_buffer,,null,,,,,,,,
4949.100000023842,,pt2_unique_rating,612730,Huntsville,,50,,,2,,,,,
null,,confidence_buffer,612831,confidence_buffer,,null,,,,,,,,
3905.300000011921,,pt2_memorable_rating,616737,Huntsville,,53,,,5,,,,,
null,,confidence_buffer,616837,confidence_buffer,,null,,,,,,,,
2116.300000011921,,recognition_phase,618954,Huntsville,,49,,,,,,old,1,1
null,,confidence_buffer,619055,confidence_buffer,,null,,,,,,,,
null,,thebreak,619557,break,,null,,,,,,,,
3728,,realistic_rating,623286,New Hope,,53,New Hope,US,5,,,,,
null,,confidence_buffer,623387,confidence_buffer,,null,,,,,,,,
3149.199999988079,,pt2_unique_rating,626537,New Hope,,50,,,2,,,,,
null,,confidence_buffer,626638,confidence_buffer,,null,,,,,,,,
2110.0999999940395,,pt2_memorable_rating,628749,New Hope,,52,,,4,,,,,
null,,confidence_buffer,628851,confidence_buffer,,null,,,,,,,,
1591.5999999940395,,probe_rating,630443,probe_rating,,49,,,,1,1,,,
null,,confidence_buffer,630545,confidence_buffer,,null,,,,,,,,
1757.5,,recognition_phase,632303,New Hope,,49,,,,,,old,1,1
null,,confidence_buffer,632405,confidence_buffer,,null,,,,,,,,
null,,thebreak,632907,break,,null,,,,,,,,
7038,,realistic_rating,639946,Folly Beach,,52,Folly Beach,US,4,,,,,
null,,confidence_buffer,640048,confidence_buffer,,null,,,,,,,,
5023.799999982119,,pt2_unique_rating,645073,Folly Beach,,50,,,2,,,,,
null,,confidence_buffer,645175,confidence_buffer,,null,,,,,,,,
1923.9000000059605,,pt2_memorable_rating,647100,Folly Beach,,49,,,1,,,,,
null,,confidence_buffer,647202,confidence_buffer,,null,,,,,,,,
3044.5999999940395,,recognition_phase,650248,Folly Beach,,52,,,,,,new,1,1
null,,confidence_buffer,650349,confidence_buffer,,null,,,,,,,,
null,,thebreak,650851,break,,null,,,,,,,,
3936.600000023842,,realistic_rating,654789,Sierra Hollow,,50,Sierra Hollow,Fictional,2,,,,,
null,,confidence_buffer,654891,confidence_buffer,,null,,,,,,,,
6521.4000000059605,,pt2_unique_rating,661413,Sierra Hollow,,51,,,3,,,,,
null,,confidence_buffer,661515,confidence_buffer,,null,,,,,,,,
1974.5999999940395,,pt2_memorable_rating,663491,Sierra Hollow,,49,,,1,,,,,
null,,confidence_buffer,663594,confidence_buffer,,null,,,,,,,,
4660.0999999940395,,recognition_phase,668255,Sierra Hollow,,51,,,,,,new,1,1
null,,confidence_buffer,668357,confidence_buffer,,null,,,,,,,,
null,,thebreak,668858,break,,null,,,,,,,,
4389.200000017881,,realistic_rating,673248,Sammamish,,52,Sammamish,US,4,,,,,
null,,confidence_buffer,673350,confidence_buffer,,null,,,,,,,,
4108.0999999940395,,pt2_unique_rating,677458,Sammamish,,53,,,5,,,,,
null,,confidence_buffer,677560,confidence_buffer,,null,,,,,,,,
3267.300000011921,,pt2_memorable_rating,680827,Sammamish,,53,,,5,,,,,
null,,confidence_buffer,680928,confidence_buffer,,null,,,,,,,,
2561.7000000178814,,recognition_phase,683491,Sammamish,,52,,,,,,new,1,1
null,,confidence_buffer,683592,confidence_buffer,,null,,,,,,,,
null,,thebreak,684094,break,,null,,,,,,,,
5005.4000000059605,,realistic_rating,689100,Millstone,,53,Millstone,Fictional,5,,,,,
null,,confidence_buffer,689202,confidence_buffer,,null,,,,,,,,
4070.2999999821186,,pt2_unique_rating,693273,Millstone,,49,,,1,,,,,
null,,confidence_buffer,693375,confidence_buffer,,null,,,,,,,,
4128.199999988079,,pt2_memorable_rating,697504,Millstone,,50,,,2,,,,,
null,,confidence_buffer,697606,confidence_buffer,,null,,,,,,,,
3674.7000000178814,,recognition_phase,701281,Millstone,,52,,,,,,new,1,1
null,,confidence_buffer,701382,confidence_buffer,,null,,,,,,,,
null,,thebreak,701884,break,,null,,,,,,,,
3714.0999999940395,,realistic_rating,705599,Granton Ridge,,53,Granton Ridge,Fictional,5,,,,,
null,,confidence_buffer,705700,confidence_buffer,,null,,,,,,,,
4301.699999988079,,pt2_unique_rating,710002,Granton Ridge,,50,,,2,,,,,
null,,confidence_buffer,710104,confidence_buffer,,null,,,,,,,,
1388.1000000238419,,probe_rating,711493,probe_rating,,49,,,,1,1,,,
null,,confidence_buffer,711595,confidence_buffer,,null,,,,,,,,
40793.79999998212,,pt2_memorable_rating,752389,Granton Ridge,,49,,,1,,,,,
null,,confidence_buffer,752492,confidence_buffer,,null,,,,,,,,
3826.2999999821186,,recognition_phase,756319,Granton Ridge,,50,,,,,,old,1,1
null,,confidence_buffer,756420,confidence_buffer,,null,,,,,,,,
null,,thebreak,756922,break,,null,,,,,,,,
4032.7999999821186,,realistic_rating,760956,Brookmere,,51,Brookmere,Fictional,3,,,,,
null,,confidence_buffer,761058,confidence_buffer,,null,,,,,,,,
3603.7999999821186,,pt2_unique_rating,764662,Brookmere,,52,,,4,,,,,
null,,confidence_buffer,764764,confidence_buffer,,null,,,,,,,,
6104.5999999940395,,pt2_memorable_rating,770869,Brookmere,,50,,,2,,,,,
null,,confidence_buffer,770970,confidence_buffer,,null,,,,,,,,
4301.5,,recognition_phase,775273,Brookmere,,51,,,,,,new,1,1
null,,confidence_buffer,775375,confidence_buffer,,null,,,,,,,,
null,,thebreak,775877,break,,null,,,,,,,,
5267.700000017881,,realistic_rating,781146,Linden Trace,,50,Linden Trace,Fictional,2,,,,,
null,,confidence_buffer,781249,confidence_buffer,,null,,,,,,,,
3584.4000000059605,,pt2_unique_rating,784834,Linden Trace,,52,,,4,,,,,
null,,confidence_buffer,784937,confidence_buffer,,null,,,,,,,,
1508.9000000059605,,probe_rating,786447,probe_rating,,49,,,,1,1,,,
null,,confidence_buffer,786549,confidence_buffer,,null,,,,,,,,
2082.5999999940395,,pt2_memorable_rating,788633,Linden Trace,,49,,,1,,,,,
null,,confidence_buffer,788735,confidence_buffer,,null,,,,,,,,
4374.9000000059605,,recognition_phase,793111,Linden Trace,,52,,,,,,new,1,1
null,,confidence_buffer,793212,confidence_buffer,,null,,,,,,,,
null,,thebreak,793714,break,,null,,,,,,,,
2585.9000000059605,,realistic_rating,796300,Montelake,,52,Montelake,Fictional,4,,,,,
null,,confidence_buffer,796403,confidence_buffer,,null,,,,,,,,
2482.9000000059605,,pt2_unique_rating,798887,Montelake,,51,,,3,,,,,
null,,confidence_buffer,798989,confidence_buffer,,null,,,,,,,,
2033.5999999940395,,pt2_memorable_rating,801023,Montelake,,50,,,2,,,,,
null,,confidence_buffer,801125,confidence_buffer,,null,,,,,,,,
2093.7000000178814,,recognition_phase,803220,Montelake,,52,,,,,,new,1,1
null,,confidence_buffer,803323,confidence_buffer,,null,,,,,,,,
null,,thebreak,803825,break,,null,,,,,,,,
3658.199999988079,,realistic_rating,807484,Boulder,,53,Boulder,US,5,,,,,
null,,confidence_buffer,807587,confidence_buffer,,null,,,,,,,,
2610.5,,pt2_unique_rating,810198,Boulder,,49,,,1,,,,,
null,,confidence_buffer,810299,confidence_buffer,,null,,,,,,,,
3406.9000000059605,,pt2_memorable_rating,813707,Boulder,,53,,,5,,,,,
null,,confidence_buffer,813809,confidence_buffer,,null,,,,,,,,
1792.699999988079,,recognition_phase,815603,Boulder,,52,,,,,,new,1,1
null,,confidence_buffer,815706,confidence_buffer,,null,,,,,,,,
null,,thebreak,816207,break,,null,,,,,,,,
3590.0999999940395,,realistic_rating,819798,Cape May,,53,Cape May,US,5,,,,,
null,,confidence_buffer,819900,confidence_buffer,,null,,,,,,,,
3133.4000000059605,,pt2_unique_rating,823034,Cape May,,50,,,2,,,,,
null,,confidence_buffer,823137,confidence_buffer,,null,,,,,,,,
2109.5999999940395,,pt2_memorable_rating,825248,Cape May,,52,,,4,,,,,
null,,confidence_buffer,825350,confidence_buffer,,null,,,,,,,,
1721.800000011921,,recognition_phase,827073,Cape May,,52,,,,,,new,1,1
null,,confidence_buffer,827176,confidence_buffer,,null,,,,,,,,
null,,thebreak,827677,break,,null,,,,,,,,
3039,,realistic_rating,830717,Delaro Park,,53,Delaro Park,Fictional,5,,,,,
null,,confidence_buffer,830819,confidence_buffer,,null,,,,,,,,
3825.600000023842,,pt2_unique_rating,834646,Delaro Park,,50,,,2,,,,,
null,,confidence_buffer,834748,confidence_buffer,,null,,,,,,,,
2632.199999988079,,pt2_memorable_rating,837382,Delaro Park,,51,,,3,,,,,
null,,confidence_buffer,837484,confidence_buffer,,null,,,,,,,,
5714.5,,recognition_phase,843199,Delaro Park,,49,,,,,,old,1,1
null,,confidence_buffer,843302,confidence_buffer,,null,,,,,,,,
null,,thebreak,843804,break,,null,,,,,,,,
4364.200000017881,,realistic_rating,848170,Medora,,51,Medora,US,3,,,,,
null,,confidence_buffer,848271,confidence_buffer,,null,,,,,,,,
4254.199999988079,,pt2_unique_rating,852527,Medora,,53,,,5,,,,,
null,,confidence_buffer,852628,confidence_buffer,,null,,,,,,,,
1807.2000000178814,,pt2_memorable_rating,854437,Medora,,53,,,5,,,,,
null,,confidence_buffer,854539,confidence_buffer,,null,,,,,,,,
2282.7000000178814,,recognition_phase,856822,Medora,,49,,,,,,old,1,1
null,,confidence_buffer,856924,confidence_buffer,,null,,,,,,,,
null,,thebreak,857426,break,,null,,,,,,,,
2546.7999999821186,,realistic_rating,859974,Bayshore Haven,,52,Bayshore Haven,Fictional,4,,,,,
null,,confidence_buffer,860076,confidence_buffer,,null,,,,,,,,
1934,,pt2_unique_rating,862012,Bayshore Haven,,50,,,2,,,,,
null,,confidence_buffer,862114,confidence_buffer,,null,,,,,,,,
1917.4000000059605,,pt2_memorable_rating,864033,Bayshore Haven,,52,,,4,,,,,
null,,confidence_buffer,864135,confidence_buffer,,null,,,,,,,,
1317,,recognition_phase,865453,Bayshore Haven,,50,,,,,,old,1,1
null,,confidence_buffer,865555,confidence_buffer,,null,,,,,,,,
null,,thebreak,866056,break,,null,,,,,,,,
3765.2000000178814,,realistic_rating,869823,Stonebrook,,53,Stonebrook,Fictional,5,,,,,
null,,confidence_buffer,869924,confidence_buffer,,null,,,,,,,,
2073,,pt2_unique_rating,871998,Stonebrook,,50,,,2,,,,,
null,,confidence_buffer,872099,confidence_buffer,,null,,,,,,,,
1893.5,,pt2_memorable_rating,873994,Stonebrook,,49,,,1,,,,,
null,,confidence_buffer,874095,confidence_buffer,,null,,,,,,,,
5813.299999982119,,recognition_phase,879909,Stonebrook,,51,,,,,,new,1,1
null,,confidence_buffer,880012,confidence_buffer,,null,,,,,,,,
null,,thebreak,880514,break,,null,,,,,,,,
18515.90000000596,,realistic_rating,899032,Clearbrook,,52,Clearbrook,Fictional,4,,,,,
null,,confidence_buffer,899133,confidence_buffer,,null,,,,,,,,
2761.9000000059605,,pt2_unique_rating,901897,Clearbrook,,50,,,2,,,,,
null,,confidence_buffer,901999,confidence_buffer,,null,,,,,,,,
2032.2000000178814,,pt2_memorable_rating,904033,Clearbrook,,50,,,2,,,,,
null,,confidence_buffer,904135,confidence_buffer,,null,,,,,,,,
2721.2000000178814,,recognition_phase,906857,Clearbrook,,50,,,,,,old,1,1
null,,confidence_buffer,906958,confidence_buffer,,null,,,,,,,,
null,,thebreak,907460,break,,null,,,,,,,,
2643.800000011921,,realistic_rating,910104,Orchard Bend,,52,Orchard Bend,Fictional,4,,,,,
null,,confidence_buffer,910208,confidence_buffer,,null,,,,,,,,
1996.4000000059605,,pt2_unique_rating,912205,Orchard Bend,,50,,,2,,,,,
null,,confidence_buffer,912306,confidence_buffer,,null,,,,,,,,
2649.300000011921,,pt2_memorable_rating,914956,Orchard Bend,,51,,,3,,,,,
null,,confidence_buffer,915058,confidence_buffer,,null,,,,,,,,
2313.2000000178814,,recognition_phase,917372,Orchard Bend,,50,,,,,,old,1,1
null,,confidence_buffer,917473,confidence_buffer,,null,,,,,,,,
null,,thebreak,917975,break,,null,,,,,,,,
2925.600000023842,,realistic_rating,920901,Okoboji,,52,Okoboji,US,4,,,,,
null,,confidence_buffer,921002,confidence_buffer,,null,,,,,,,,
2193.5,,pt2_unique_rating,923197,Okoboji,,53,,,5,,,,,
null,,confidence_buffer,923298,confidence_buffer,,null,,,,,,,,
2673.4000000059605,,pt2_memorable_rating,925973,Okoboji,,53,,,5,,,,,
null,,confidence_buffer,926073,confidence_buffer,,null,,,,,,,,
2203.300000011921,,recognition_phase,928277,Okoboji,,52,,,,,,new,1,1
null,,confidence_buffer,928379,confidence_buffer,,null,,,,,,,,
null,,thebreak,928881,break,,null,,,,,,,,
3147.4000000059605,,realistic_rating,932029,Elmsbury,,53,Elmsbury,Fictional,5,,,,,
null,,confidence_buffer,932132,confidence_buffer,,null,,,,,,,,
3263.9000000059605,,pt2_unique_rating,935396,Elmsbury,,51,,,3,,,,,
null,,confidence_buffer,935497,confidence_buffer,,null,,,,,,,,
2723.4000000059605,,pt2_memorable_rating,938221,Elmsbury,,51,,,3,,,,,
null,,confidence_buffer,938323,confidence_buffer,,null,,,,,,,,
1680.5,,recognition_phase,940004,Elmsbury,,52,,,,,,new,1,1
null,,confidence_buffer,940106,confidence_buffer,,null,,,,,,,,
null,,thebreak,940608,break,,null,,,,,,,,
3989,,realistic_rating,944598,Willowford,,52,Willowford,Fictional,4,,,,,
null,,confidence_buffer,944700,confidence_buffer,,null,,,,,,,,
1841.699999988079,,pt2_unique_rating,946542,Willowford,,51,,,3,,,,,
null,,confidence_buffer,946644,confidence_buffer,,null,,,,,,,,
1978.0999999940395,,pt2_memorable_rating,948623,Willowford,,51,,,3,,,,,
null,,confidence_buffer,948724,confidence_buffer,,null,,,,,,,,
2888.9000000059605,,recognition_phase,951614,Willowford,,52,,,,,,new,1,1
null,,confidence_buffer,951716,confidence_buffer,,null,,,,,,,,
null,,thebreak,952217,break,,null,,,,,,,,
7635.0999999940395,,realistic_rating,959853,Duck,,50,Duck,US,2,,,,,
null,,confidence_buffer,959956,confidence_buffer,,null,,,,,,,,
1910.9000000059605,,pt2_unique_rating,961868,Duck,,49,,,1,,,,,
null,,confidence_buffer,961970,confidence_buffer,,null,,,,,,,,
2856.800000011921,,pt2_memorable_rating,964828,Duck,,53,,,5,,,,,
null,,confidence_buffer,964929,confidence_buffer,,null,,,,,,,,
2138.800000011921,,recognition_phase,967069,Duck,,49,,,,,,old,1,1
null,,confidence_buffer,967173,confidence_buffer,,null,,,,,,,,
null,,thebreak,967675,break,,null,,,,,,,,
2450.5,,realistic_rating,970127,Silverpine,,53,Silverpine,Fictional,5,,,,,
null,,confidence_buffer,970229,confidence_buffer,,null,,,,,,,,
3654.0999999940395,,pt2_unique_rating,973885,Silverpine,,51,,,3,,,,,
null,,confidence_buffer,973987,confidence_buffer,,null,,,,,,,,
1867.300000011921,,pt2_memorable_rating,975855,Silverpine,,51,,,3,,,,,
null,,confidence_buffer,975956,confidence_buffer,,null,,,,,,,,
1306,,probe_rating,977263,probe_rating,,50,,,,2,1,,,
null,,confidence_buffer,977365,confidence_buffer,,null,,,,,,,,
4797.5999999940395,,recognition_phase,982163,Silverpine,,52,,,,,,new,1,1
null,,confidence_buffer,982265,confidence_buffer,,null,,,,,,,,
null,,thebreak,982766,break,,null,,,,,,,,
4816.9000000059605,,realistic_rating,987584,Northbridge,,52,Northbridge,Fictional,4,,,,,
null,,confidence_buffer,987687,confidence_buffer,,null,,,,,,,,
6229.700000017881,,pt2_unique_rating,993917,Northbridge,,50,,,2,,,,,
null,,confidence_buffer,994020,confidence_buffer,,null,,,,,,,,
2980.9000000059605,,pt2_memorable_rating,997002,Northbridge,,50,,,2,,,,,
null,,confidence_buffer,997103,confidence_buffer,,null,,,,,,,,
3435.9000000059605,,recognition_phase,1000540,Northbridge,,51,,,,,,new,0,0.9696969696969697
null,,confidence_buffer,1000641,confidence_buffer,,null,,,,,,,,
null,,thebreak,1001142,break,,null,,,,,,,,
3101.899999976158,,realistic_rating,1004244,Bisbee,,52,Bisbee,US,4,,,,,
null,,confidence_buffer,1004345,confidence_buffer,,null,,,,,,,,
3939.300000011921,,pt2_unique_rating,1008285,Bisbee,,52,,,4,,,,,
null,,confidence_buffer,1008388,confidence_buffer,,null,,,,,,,,
2031.7999999821186,,pt2_memorable_rating,1010420,Bisbee,,52,,,4,,,,,
null,,confidence_buffer,1010521,confidence_buffer,,null,,,,,,,,
3098.5,,recognition_phase,1013621,Bisbee,,52,,,,,,new,1,0.9705882352941176
null,,confidence_buffer,1013722,confidence_buffer,,null,,,,,,,,
null,,thebreak,1014223,break,,null,,,,,,,,
2820.699999988079,,realistic_rating,1017045,Hawthorne Bluffs,,53,Hawthorne Bluffs,Fictional,5,,,,,
null,,confidence_buffer,1017147,confidence_buffer,,null,,,,,,,,
4682.199999988079,,pt2_unique_rating,1021830,Hawthorne Bluffs,,51,,,3,,,,,
null,,confidence_buffer,1021932,confidence_buffer,,null,,,,,,,,
2663.7999999821186,,pt2_memorable_rating,1024596,Hawthorne Bluffs,,51,,,3,,,,,
null,,confidence_buffer,1024698,confidence_buffer,,null,,,,,,,,
2547,,recognition_phase,1027246,Hawthorne Bluffs,,52,,,,,,new,1,0.9714285714285714
null,,confidence_buffer,1027347,confidence_buffer,,null,,,,,,,,
null,,thebreak,1027849,break,,null,,,,,,,,
4530.699999988079,,realistic_rating,1032380,Sisters,,49,Sisters,US,1,,,,,
null,,confidence_buffer,1032482,confidence_buffer,,null,,,,,,,,
4778.399999976158,,pt2_unique_rating,1037262,Sisters,,52,,,4,,,,,
null,,confidence_buffer,1037363,confidence_buffer,,null,,,,,,,,
2729.5999999940395,,pt2_memorable_rating,1040093,Sisters,,53,,,5,,,,,
null,,confidence_buffer,1040194,confidence_buffer,,null,,,,,,,,
2306.5999999940395,,probe_rating,1042502,probe_rating,,49,,,,1,1,,,
null,,confidence_buffer,1042603,confidence_buffer,,null,,,,,,,,
3490.800000011921,,recognition_phase,1046094,Sisters,,52,,,,,,new,1,0.9722222222222222
null,,confidence_buffer,1046196,confidence_buffer,,null,,,,,,,,
null,,thebreak,1046697,break,,null,,,,,,,,
4252.5999999940395,,realistic_rating,1050950,Gardnerville,,51,Gardnerville,US,3,,,,,
null,,confidence_buffer,1051052,confidence_buffer,,null,,,,,,,,
1689.4000000059605,,probe_rating,1052742,probe_rating,,52,,,,4,1,,,
null,,confidence_buffer,1052844,confidence_buffer,,null,,,,,,,,
1668,,pt2_unique_rating,1054513,Gardnerville,,50,,,2,,,,,
null,,confidence_buffer,1054614,confidence_buffer,,null,,,,,,,,
4926.199999988079,,pt2_memorable_rating,1059542,Gardnerville,,52,,,4,,,,,
null,,confidence_buffer,1059644,confidence_buffer,,null,,,,,,,,
2754.199999988079,,recognition_phase,1062399,Gardnerville,,49,,,,,,old,1,0.972972972972973
null,,confidence_buffer,1062502,confidence_buffer,,null,,,,,,,,
null,,thebreak,1063012,break,,null,,,,,,,,
2144.899999976158,,realistic_rating,1065158,Barnard,,53,Barnard,US,5,,,,,
null,,confidence_buffer,1065260,confidence_buffer,,null,,,,,,,,
1737,,pt2_unique_rating,1066997,Barnard,,50,,,2,,,,,
null,,confidence_buffer,1067099,confidence_buffer,,null,,,,,,,,
1353.0999999940395,,pt2_memorable_rating,1068453,Barnard,,51,,,3,,,,,
null,,confidence_buffer,1068554,confidence_buffer,,null,,,,,,,,
2330,,recognition_phase,1070885,Barnard,,49,,,,,,old,0,0.9473684210526315
null,,confidence_buffer,1070986,confidence_buffer,,null,,,,,,,,
null,,thebreak,1071488,break,,null,,,,,,,,
6413.199999988079,,realistic_rating,1077901,Hilo,,51,Hilo,US,3,,,,,
null,,confidence_buffer,1078004,confidence_buffer,,null,,,,,,,,
3009.5999999940395,,pt2_unique_rating,1081014,Hilo,,53,,,5,,,,,
null,,confidence_buffer,1081116,confidence_buffer,,null,,,,,,,,
1024.7999999821186,,pt2_memorable_rating,1082142,Hilo,,53,,,5,,,,,
null,,confidence_buffer,1082243,confidence_buffer,,null,,,,,,,,
1682.5,,recognition_phase,1083926,Hilo,,49,,,,,,old,1,0.9487179487179487
null,,confidence_buffer,1084027,confidence_buffer,,null,,,,,,,,
null,,thebreak,1084529,break,,null,,,,,,,,
2237,,realistic_rating,1086767,Cornwall,,53,Cornwall,US,5,,,,,
null,,confidence_buffer,1086868,confidence_buffer,,null,,,,,,,,
1856,,pt2_unique_rating,1088724,Cornwall,,50,,,2,,,,,
null,,confidence_buffer,1088825,confidence_buffer,,null,,,,,,,,
3234.399999976158,,pt2_memorable_rating,1092061,Cornwall,,52,,,4,,,,,
null,,confidence_buffer,1092163,confidence_buffer,,null,,,,,,,,
3793,,recognition_phase,1095957,Cornwall,,51,,,,,,new,1,0.95
null,,confidence_buffer,1096059,confidence_buffer,,null,,,,,,,,
null,,thebreak,1096561,break,,null,,,,,,,,
2699.0999999940395,,realistic_rating,1099261,Ashford Hills,,53,Ashford Hills,Fictional,5,,,,,
null,,confidence_buffer,1099363,confidence_buffer,,null,,,,,,,,
1352.699999988079,,pt2_unique_rating,1100716,Ashford Hills,,49,,,1,,,,,
null,,confidence_buffer,1100819,confidence_buffer,,null,,,,,,,,
2504.800000011921,,pt2_memorable_rating,1103324,Ashford Hills,,50,,,2,,,,,
null,,confidence_buffer,1103426,confidence_buffer,,null,,,,,,,,
5146.300000011921,,recognition_phase,1108573,Ashford Hills,,51,,,,,,new,1,0.9512195121951219
null,,confidence_buffer,1108675,confidence_buffer,,null,,,,,,,,
null,,thebreak,1109177,break,,null,,,,,,,,
2962.7000000178814,,realistic_rating,1112140,Hollendale,,53,Hollendale,Fictional,5,,,,,
null,,confidence_buffer,1112242,confidence_buffer,,null,,,,,,,,
2321.800000011921,,pt2_unique_rating,1114565,Hollendale,,50,,,2,,,,,
null,,confidence_buffer,1114665,confidence_buffer,,null,,,,,,,,
2490.0999999940395,,pt2_memorable_rating,1117156,Hollendale,,51,,,3,,,,,
null,,confidence_buffer,1117257,confidence_buffer,,null,,,,,,,,
4386.899999976158,,recognition_phase,1121645,Hollendale,,51,,,,,,new,0,0.9285714285714286
null,,confidence_buffer,1121745,confidence_buffer,,null,,,,,,,,
null,,thebreak,1122247,break,,null,,,,,,,,
3552.2000000178814,,realistic_rating,1125800,Watkins Glen,,52,Watkins Glen,US,4,,,,,
null,,confidence_buffer,1125904,confidence_buffer,,null,,,,,,,,
2083.699999988079,,pt2_unique_rating,1127988,Watkins Glen,,50,,,2,,,,,
null,,confidence_buffer,1128089,confidence_buffer,,null,,,,,,,,
1282.5,,pt2_memorable_rating,1129372,Watkins Glen,,51,,,3,,,,,
null,,confidence_buffer,1129473,confidence_buffer,,null,,,,,,,,
2114.4000000059605,,recognition_phase,1131588,Watkins Glen,,51,,,,,,new,0,0.9069767441860465
null,,confidence_buffer,1131690,confidence_buffer,,null,,,,,,,,
null,,thebreak,1132192,break,,null,,,,,,,,
3774.800000011921,,realistic_rating,1135968,Riverlyn,,49,Riverlyn,Fictional,1,,,,,
null,,confidence_buffer,1136069,confidence_buffer,,null,,,,,,,,
3404.4000000059605,,pt2_unique_rating,1139474,Riverlyn,,53,,,5,,,,,
null,,confidence_buffer,1139576,confidence_buffer,,null,,,,,,,,
1910.5999999940395,,pt2_memorable_rating,1141488,Riverlyn,,53,,,5,,,,,
null,,confidence_buffer,1141590,confidence_buffer,,null,,,,,,,,
1571.800000011921,,recognition_phase,1143163,Riverlyn,,49,,,,,,old,1,0.9090909090909091
null,,confidence_buffer,1143265,confidence_buffer,,null,,,,,,,,
null,,thebreak,1143767,break,,null,,,,,,,,
5884.299999982119,,realistic_rating,1149652,West Talora,,50,West Talora,Fictional,2,,,,,
null,,confidence_buffer,1149754,confidence_buffer,,null,,,,,,,,
2140.199999988079,,pt2_unique_rating,1151896,West Talora,,51,,,3,,,,,
null,,confidence_buffer,1151998,confidence_buffer,,null,,,,,,,,
1717.699999988079,,pt2_memorable_rating,1153717,West Talora,,51,,,3,,,,,
null,,confidence_buffer,1153819,confidence_buffer,,null,,,,,,,,
1489.0999999940395,,recognition_phase,1155309,West Talora,,50,,,,,,old,1,0.9111111111111111
null,,confidence_buffer,1155412,confidence_buffer,,null,,,,,,,,
null,,thebreak,1155913,break,,null,,,,,,,,
5753.699999988079,,realistic_rating,1161669,Solara Glen,,50,Solara Glen,Fictional,2,,,,,
null,,confidence_buffer,1161771,confidence_buffer,,null,,,,,,,,
1727.5999999940395,,pt2_unique_rating,1163500,Solara Glen,,52,,,4,,,,,
null,,confidence_buffer,1163602,confidence_buffer,,null,,,,,,,,
1357.5,,pt2_memorable_rating,1164961,Solara Glen,,51,,,3,,,,,
null,,confidence_buffer,1165062,confidence_buffer,,null,,,,,,,,
1817,,recognition_phase,1166880,Solara Glen,,50,,,,,,old,1,0.9130434782608695
null,,confidence_buffer,1166982,confidence_buffer,,null,,,,,,,,
null,,thebreak,1167484,break,,null,,,,,,,,
3329.7000000178814,,realistic_rating,1170815,Park City,,53,Park City,US,5,,,,,
null,,confidence_buffer,1170917,confidence_buffer,,null,,,,,,,,
2150.300000011921,,pt2_unique_rating,1173068,Park City,,49,,,1,,,,,
null,,confidence_buffer,1173171,confidence_buffer,,null,,,,,,,,
1743.800000011921,,pt2_memorable_rating,1174917,Park City,,50,,,2,,,,,
null,,confidence_buffer,1175019,confidence_buffer,,null,,,,,,,,
3704.399999976158,,recognition_phase,1178724,Park City,,51,,,,,,new,0,0.8936170212765957
null,,confidence_buffer,1178826,confidence_buffer,,null,,,,,,,,
null,,thebreak,1179329,break,,null,,,,,,,,
1881.199999988079,,realistic_rating,1181212,Cedarwyn,,49,Cedarwyn,Fictional,1,,,,,
null,,confidence_buffer,1181313,confidence_buffer,,null,,,,,,,,
2582.5,,pt2_unique_rating,1183897,Cedarwyn,,53,,,5,,,,,
null,,confidence_buffer,1184009,confidence_buffer,,null,,,,,,,,
3392.0999999940395,,pt2_memorable_rating,1187403,Cedarwyn,,53,,,5,,,,,
null,,confidence_buffer,1187505,confidence_buffer,,null,,,,,,,,
6894.300000011921,,recognition_phase,1194400,Cedarwyn,,51,,,,,,new,1,0.8958333333333334
null,,confidence_buffer,1194501,confidence_buffer,,null,,,,,,,,
null,,thebreak,1195003,break,,null,,,,,,,,
3073.5999999940395,,realistic_rating,1198078,New Verdan,,52,New Verdan,Fictional,4,,,,,
null,,confidence_buffer,1198181,confidence_buffer,,null,,,,,,,,
3661.5999999940395,,pt2_unique_rating,1201844,New Verdan,,50,,,2,,,,,
null,,confidence_buffer,1201946,confidence_buffer,,null,,,,,,,,
1359.5999999940395,,pt2_memorable_rating,1203307,New Verdan,,50,,,2,,,,,
null,,confidence_buffer,1203409,confidence_buffer,,null,,,,,,,,
1264,,probe_rating,1204674,probe_rating,,52,,,,4,1,,,
null,,confidence_buffer,1204777,confidence_buffer,,null,,,,,,,,
4983,,recognition_phase,1209761,New Verdan,,50,,,,,,old,1,0.8979591836734694
null,,confidence_buffer,1209862,confidence_buffer,,null,,,,,,,,
null,,thebreak,1210364,break,,null,,,,,,,,
2369.4000000059605,,realistic_rating,1212734,Bowling Green,,53,Bowling Green,US,5,,,,,
null,,confidence_buffer,1212836,confidence_buffer,,null,,,,,,,,
3445.100000023842,,pt2_unique_rating,1216282,Bowling Green,,53,,,5,,,,,
null,,confidence_buffer,1216384,confidence_buffer,,null,,,,,,,,
806.5,,pt2_memorable_rating,1217192,Bowling Green,,53,,,5,,,,,
null,,confidence_buffer,1217293,confidence_buffer,,null,,,,,,,,
2062,,recognition_phase,1219356,Bowling Green,,52,,,,,,new,1,0.9
null,,confidence_buffer,1219459,confidence_buffer,,null,,,,,,,,
null,,thebreak,1219961,break,,null,,,,,,,,
3934.699999988079,,realistic_rating,1223897,Alliance,,49,Alliance,US,1,,,,,
null,,confidence_buffer,1223998,confidence_buffer,,null,,,,,,,,
4535.899999976158,,pt2_unique_rating,1228535,Alliance,,51,,,3,,,,,
null,,confidence_buffer,1228636,confidence_buffer,,null,,,,,,,,
2370.0999999940395,,pt2_memorable_rating,1231007,Alliance,,53,,,5,,,,,
null,,confidence_buffer,1231109,confidence_buffer,,null,,,,,,,,
1048.0999999940395,,recognition_phase,1232158,Alliance,,49,,,,,,old,1,0.9019607843137255
null,,confidence_buffer,1232260,confidence_buffer,,null,,,,,,,,
null,,thebreak,1232774,break,,null,,,,,,,,
3627.300000011921,,realistic_rating,1236402,North Arroya,,51,North Arroya,Fictional,3,,,,,
null,,confidence_buffer,1236503,confidence_buffer,,null,,,,,,,,
1913.5,,pt2_unique_rating,1238418,North Arroya,,52,,,4,,,,,
null,,confidence_buffer,1238519,confidence_buffer,,null,,,,,,,,
1343.300000011921,,pt2_memorable_rating,1239864,North Arroya,,52,,,4,,,,,
null,,confidence_buffer,1239966,confidence_buffer,,null,,,,,,,,
3928.0999999940395,,recognition_phase,1243896,North Arroya,,51,,,,,,new,1,0.9038461538461539
null,,confidence_buffer,1243997,confidence_buffer,,null,,,,,,,,
null,,thebreak,1244499,break,,null,,,,,,,,
4665.4000000059605,,realistic_rating,1249165,Crestwood,,53,Crestwood,Fictional,5,,,,,
null,,confidence_buffer,1249267,confidence_buffer,,null,,,,,,,,
1600.6000000238419,,pt2_unique_rating,1250869,Crestwood,,50,,,2,,,,,
null,,confidence_buffer,1250970,confidence_buffer,,null,,,,,,,,
1057.0999999940395,,pt2_memorable_rating,1252028,Crestwood,,51,,,3,,,,,
null,,confidence_buffer,1252129,confidence_buffer,,null,,,,,,,,
2058.7999999821186,,recognition_phase,1254189,Crestwood,,50,,,,,,old,0,0.8867924528301887
null,,confidence_buffer,1254291,confidence_buffer,,null,,,,,,,,
null,,thebreak,1254793,break,,null,,,,,,,,
4663,,realistic_rating,1259457,Rosehollow,,50,Rosehollow,Fictional,2,,,,,
null,,confidence_buffer,1259560,confidence_buffer,,null,,,,,,,,
1821.7999999821186,,pt2_unique_rating,1261382,Rosehollow,,51,,,3,,,,,
null,,confidence_buffer,1261483,confidence_buffer,,null,,,,,,,,
1882,,pt2_memorable_rating,1263366,Rosehollow,,51,,,3,,,,,
null,,confidence_buffer,1263467,confidence_buffer,,null,,,,,,,,
3250.0999999940395,,recognition_phase,1266718,Rosehollow,,52,,,,,,new,1,0.8888888888888888
null,,confidence_buffer,1266821,confidence_buffer,,null,,,,,,,,
null,,thebreak,1267335,break,,null,,,,,,,,
5994.199999988079,,realistic_rating,1273330,Berkeley Springs,,50,Berkeley Springs,US,2,,,,,
null,,confidence_buffer,1273433,confidence_buffer,,null,,,,,,,,
2291.800000011921,,pt2_unique_rating,1275726,Berkeley Springs,,50,,,2,,,,,
null,,confidence_buffer,1275827,confidence_buffer,,null,,,,,,,,
1975.199999988079,,pt2_memorable_rating,1277804,Berkeley Springs,,51,,,3,,,,,
null,,confidence_buffer,1277907,confidence_buffer,,null,,,,,,,,
2693.7999999821186,,probe_rating,1280602,probe_rating,,51,,,,3,1,,,
null,,confidence_buffer,1280704,confidence_buffer,,null,,,,,,,,
3382.4000000059605,,recognition_phase,1284088,Berkeley Springs,,49,,,,,,old,1,0.8909090909090909
null,,confidence_buffer,1284191,confidence_buffer,,null,,,,,,,,
null,,thebreak,1284692,break,,null,,,,,,,,
2713.7000000178814,,realistic_rating,1287406,Shreveport,,53,Shreveport,US,5,,,,,
null,,confidence_buffer,1287508,confidence_buffer,,null,,,,,,,,
1256.300000011921,,probe_rating,1288765,probe_rating,,52,,,,4,1,,,
null,,confidence_buffer,1288866,confidence_buffer,,null,,,,,,,,
2748.5,,pt2_unique_rating,1291616,Shreveport,,52,,,4,,,,,
null,,confidence_buffer,1291719,confidence_buffer,,null,,,,,,,,
940.5999999940395,,pt2_memorable_rating,1292660,Shreveport,,53,,,5,,,,,
null,,confidence_buffer,1292762,confidence_buffer,,null,,,,,,,,
1497.699999988079,,recognition_phase,1294261,Shreveport,,49,,,,,,old,1,0.8928571428571429
null,,confidence_buffer,1294363,confidence_buffer,,null,,,,,,,,
null,,thebreak,1294865,break,,null,,,,,,,,
2587.5999999940395,,realistic_rating,1297454,West Palm Beach,,53,West Palm Beach,US,5,,,,,
null,,confidence_buffer,1297555,confidence_buffer,,null,,,,,,,,
2282.0999999940395,,pt2_unique_rating,1299837,West Palm Beach,,50,,,2,,,,,
null,,confidence_buffer,1299938,confidence_buffer,,null,,,,,,,,
1465.5999999940395,,pt2_memorable_rating,1301405,West Palm Beach,,53,,,5,,,,,
null,,confidence_buffer,1301506,confidence_buffer,,null,,,,,,,,
1369.300000011921,,recognition_phase,1302876,West Palm Beach,,49,,,,,,old,1,0.8947368421052632
null,,confidence_buffer,1302978,confidence_buffer,,null,,,,,,,,
null,,thebreak,1303480,break,,null,,,,,,,,
3959.7999999821186,,realistic_rating,1307441,Ravenport,,53,Ravenport,Fictional,5,,,,,
null,,confidence_buffer,1307542,confidence_buffer,,null,,,,,,,,
3502,,pt2_unique_rating,1311045,Ravenport,,51,,,3,,,,,
null,,confidence_buffer,1311146,confidence_buffer,,null,,,,,,,,
1622.8999999761581,,pt2_memorable_rating,1312770,Ravenport,,53,,,5,,,,,
null,,confidence_buffer,1312872,confidence_buffer,,null,,,,,,,,
4479.5999999940395,,recognition_phase,1317352,Ravenport,,49,,,,,,old,1,0.896551724137931
null,,confidence_buffer,1317456,confidence_buffer,,null,,,,,,,,
null,,thebreak,1317958,break,,null,,,,,,,,
2290.800000011921,,realistic_rating,1320250,Cleveland,,53,Cleveland,US,5,,,,,
null,,confidence_buffer,1320353,confidence_buffer,,null,,,,,,,,
3759.2000000178814,,pt2_unique_rating,1324113,Cleveland,,51,,,3,,,,,
null,,confidence_buffer,1324215,confidence_buffer,,null,,,,,,,,
1891.7000000178814,,pt2_memorable_rating,1326108,Cleveland,,53,,,5,,,,,
null,,confidence_buffer,1326210,confidence_buffer,,null,,,,,,,,
2076.7999999821186,,recognition_phase,1328288,Cleveland,,52,,,,,,new,1,0.8983050847457628
null,,confidence_buffer,1328403,confidence_buffer,,null,,,,,,,,
null,,thebreak,1328906,break,,null,,,,,,,,
3888.5,,realistic_rating,1332796,Maravilla Springs,,51,Maravilla Springs,Fictional,3,,,,,
null,,confidence_buffer,1332898,confidence_buffer,,null,,,,,,,,
1785.699999988079,,pt2_unique_rating,1334685,Maravilla Springs,,50,,,2,,,,,
null,,confidence_buffer,1334786,confidence_buffer,,null,,,,,,,,
1962.199999988079,,pt2_memorable_rating,1336750,Maravilla Springs,,50,,,2,,,,,
null,,confidence_buffer,1336853,confidence_buffer,,null,,,,,,,,
2113.0999999940395,,recognition_phase,1338967,Maravilla Springs,,50,,,,,,old,1,0.9
null,,confidence_buffer,1339068,confidence_buffer,,null,,,,,,,,
null,,thebreak,1339570,break,,null,,,,,,,,
