rt,responses,trial_type,time_elapsed,stimulus,button_pressed,key_press,name_trial,rating,probe,probe_accuracy,response,correct,accuracy,problems,smooth,distraction,strategies,familiar,memorable,unique,realistic,similar,comments
2918.2000000476837,{worker_id:60fd0b053216a04db035ad9b},id_enter,2920,,,,,,,,,,,,,,,,,,,,
11813.899999976158,,fullscreen,14737,fullscreen,0,,,,,,,,,,,,,,,,,,
4817.400000095367,,intro_0,19556,instruct,,32,,,,,,,,,,,,,,,,,
7539.699999928474,,intro_1,27097,instruct,,32,,,,,,,,,,,,,,,,,
5524,,intro_2,32621,instruct,,32,,,,,,,,,,,,,,,,,
null,,instruct_dir_4,34142,instruct,,null,,,,,,,,,,,,,,,,,
null,,thebreak,34647,break,,null,,,,,,,,,,,,,,,,,
5898.399999976158,,familiar_rating,40546,Las Cruces,,49,Las Cruces,1,,,,,,,,,,,,,,,
null,,confidence_buffer,40649,confidence_buffer,,null,,,,,,,,,,,,,,,,,
9802.300000071526,,unique_rating,50452,Las Cruces,,51,,3,,,,,,,,,,,,,,,
null,,confidence_buffer,50554,confidence_buffer,,null,,,,,,,,,,,,,,,,,
8413.700000047684,,memorable_rating,58969,Las Cruces,,50,,2,,,,,,,,,,,,,,,
null,,confidence_buffer,59071,confidence_buffer,,null,,,,,,,,,,,,,,,,,
null,,thebreak,59573,break,,null,,,,,,,,,,,,,,,,,
6670.5,,familiar_rating,66244,Hagerstown,,53,Hagerstown,5,,,,,,,,,,,,,,,
null,,confidence_buffer,66346,confidence_buffer,,null,,,,,,,,,,,,,,,,,
4111.899999976158,,unique_rating,70459,Hagerstown,,53,,5,,,,,,,,,,,,,,,
null,,confidence_buffer,70561,confidence_buffer,,null,,,,,,,,,,,,,,,,,
4890.100000023842,,memorable_rating,75452,Hagerstown,,53,,5,,,,,,,,,,,,,,,
null,,confidence_buffer,75554,confidence_buffer,,null,,,,,,,,,,,,,,,,,
null,,thebreak,76056,break,,null,,,,,,,,,,,,,,,,,
3801.1999999284744,,familiar_rating,79858,Bozeman,,49,Bozeman,1,,,,,,,,,,,,,,,
null,,confidence_buffer,79960,confidence_buffer,,null,,,,,,,,,,,,,,,,,
7669.600000023842,,unique_rating,87630,Bozeman,,51,,3,,,,,,,,,,,,,,,
null,,confidence_buffer,87731,confidence_buffer,,null,,,,,,,,,,,,,,,,,
4246.700000047684,,memorable_rating,91979,Bozeman,,51,,3,,,,,,,,,,,,,,,
null,,confidence_buffer,92081,confidence_buffer,,null,,,,,,,,,,,,,,,,,
null,,thebreak,92582,break,,null,,,,,,,,,,,,,,,,,
4301.799999952316,,familiar_rating,96884,Abilene,,53,Abilene,5,,,,,,,,,,,,,,,
null,,confidence_buffer,96986,confidence_buffer,,null,,,,,,,,,,,,,,,,,
2905.100000023842,,unique_rating,99892,Abilene,,53,,5,,,,,,,,,,,,,,,
null,,confidence_buffer,99994,confidence_buffer,,null,,,,,,,,,,,,,,,,,
6222.700000047684,,memorable_rating,106217,Abilene,,52,,4,,,,,,,,,,,,,,,
null,,confidence_buffer,106320,confidence_buffer,,null,,,,,,,,,,,,,,,,,
null,,thebreak,106821,break,,null,,,,,,,,,,,,,,,,,
2489.100000023842,,familiar_rating,109311,Dover,,53,Dover,5,,,,,,,,,,,,,,,
null,,confidence_buffer,109412,confidence_buffer,,null,,,,,,,,,,,,,,,,,
3869.5,,unique_rating,113282,Dover,,50,,2,,,,,,,,,,,,,,,
null,,confidence_buffer,113384,confidence_buffer,,null,,,,,,,,,,,,,,,,,
3985.2000000476837,,memorable_rating,117370,Dover,,52,,4,,,,,,,,,,,,,,,
null,,confidence_buffer,117474,confidence_buffer,,null,,,,,,,,,,,,,,,,,
null,,thebreak,117977,break,,null,,,,,,,,,,,,,,,,,
2783.3000000715256,,familiar_rating,120761,Cambridge,,53,Cambridge,5,,,,,,,,,,,,,,,
null,,confidence_buffer,120863,confidence_buffer,,null,,,,,,,,,,,,,,,,,
3438.399999976158,,unique_rating,124302,Cambridge,,51,,3,,,,,,,,,,,,,,,
null,,confidence_buffer,124404,confidence_buffer,,null,,,,,,,,,,,,,,,,,
1879.7000000476837,,memorable_rating,126284,Cambridge,,53,,5,,,,,,,,,,,,,,,
null,,confidence_buffer,126387,confidence_buffer,,null,,,,,,,,,,,,,,,,,
null,,thebreak,126889,break,,null,,,,,,,,,,,,,,,,,
5839.100000023842,,familiar_rating,132729,Marquette,,49,Marquette,1,,,,,,,,,,,,,,,
null,,confidence_buffer,132831,confidence_buffer,,null,,,,,,,,,,,,,,,,,
4065.2000000476837,,unique_rating,136897,Marquette,,52,,4,,,,,,,,,,,,,,,
null,,confidence_buffer,136999,confidence_buffer,,null,,,,,,,,,,,,,,,,,
5745,,memorable_rating,142745,Marquette,,51,,3,,,,,,,,,,,,,,,
null,,confidence_buffer,142847,confidence_buffer,,null,,,,,,,,,,,,,,,,,
null,,thebreak,143353,break,,null,,,,,,,,,,,,,,,,,
2987.100000023842,,familiar_rating,146341,Olympia,,53,Olympia,5,,,,,,,,,,,,,,,
null,,confidence_buffer,146442,confidence_buffer,,null,,,,,,,,,,,,,,,,,
7350.5,,unique_rating,153793,Olympia,,51,,3,,,,,,,,,,,,,,,
null,,confidence_buffer,153895,confidence_buffer,,null,,,,,,,,,,,,,,,,,
1975.5,,memorable_rating,155871,Olympia,,53,,5,,,,,,,,,,,,,,,
null,,confidence_buffer,155985,confidence_buffer,,null,,,,,,,,,,,,,,,,,
null,,thebreak,156486,break,,null,,,,,,,,,,,,,,,,,
2780.100000023842,,familiar_rating,159268,Peoria,,49,Peoria,1,,,,,,,,,,,,,,,
null,,confidence_buffer,159369,confidence_buffer,,null,,,,,,,,,,,,,,,,,
2488.3000000715256,,unique_rating,161858,Peoria,,53,,5,,,,,,,,,,,,,,,
null,,confidence_buffer,161960,confidence_buffer,,null,,,,,,,,,,,,,,,,,
3479.399999976158,,memorable_rating,165440,Peoria,,50,,2,,,,,,,,,,,,,,,
null,,confidence_buffer,165542,confidence_buffer,,null,,,,,,,,,,,,,,,,,
null,,thebreak,166043,break,,null,,,,,,,,,,,,,,,,,
2777.0999999046326,,familiar_rating,168821,Dothan,,49,Dothan,1,,,,,,,,,,,,,,,
null,,confidence_buffer,168922,confidence_buffer,,null,,,,,,,,,,,,,,,,,
2391.2999999523163,,unique_rating,171314,Dothan,,53,,5,,,,,,,,,,,,,,,
null,,confidence_buffer,171416,confidence_buffer,,null,,,,,,,,,,,,,,,,,
1838.1999999284744,,memorable_rating,173255,Dothan,,50,,2,,,,,,,,,,,,,,,
null,,confidence_buffer,173356,confidence_buffer,,null,,,,,,,,,,,,,,,,,
null,,thebreak,173857,break,,null,,,,,,,,,,,,,,,,,
2469.899999976158,,familiar_rating,176328,Terre Haute,,49,Terre Haute,1,,,,,,,,,,,,,,,
null,,confidence_buffer,176430,confidence_buffer,,null,,,,,,,,,,,,,,,,,
1870.6000000238419,,probe_rating,178302,probe_rating,,53,,,5,1,,,,,,,,,,,,,
null,,confidence_buffer,178403,confidence_buffer,,null,,,,,,,,,,,,,,,,,
3972.7000000476837,,unique_rating,182376,Terre Haute,,53,,5,,,,,,,,,,,,,,,
null,,confidence_buffer,182477,confidence_buffer,,null,,,,,,,,,,,,,,,,,
3132.2000000476837,,memorable_rating,185610,Terre Haute,,49,,1,,,,,,,,,,,,,,,
null,,confidence_buffer,185717,confidence_buffer,,null,,,,,,,,,,,,,,,,,
null,,thebreak,186218,break,,null,,,,,,,,,,,,,,,,,
3378.6999999284744,,familiar_rating,189598,Fort Wayne,,53,Fort Wayne,5,,,,,,,,,,,,,,,
null,,confidence_buffer,189699,confidence_buffer,,null,,,,,,,,,,,,,,,,,
3356.2000000476837,,unique_rating,193056,Fort Wayne,,49,,1,,,,,,,,,,,,,,,
null,,confidence_buffer,193158,confidence_buffer,,null,,,,,,,,,,,,,,,,,
4010.600000023842,,memorable_rating,197169,Fort Wayne,,49,,1,,,,,,,,,,,,,,,
null,,confidence_buffer,197280,confidence_buffer,,null,,,,,,,,,,,,,,,,,
null,,thebreak,197781,break,,null,,,,,,,,,,,,,,,,,
2544.2999999523163,,familiar_rating,200326,Santa Monica,,53,Santa Monica,5,,,,,,,,,,,,,,,
null,,confidence_buffer,200427,confidence_buffer,,null,,,,,,,,,,,,,,,,,
3991.2999999523163,,unique_rating,204418,Santa Monica,,51,,3,,,,,,,,,,,,,,,
null,,confidence_buffer,204520,confidence_buffer,,null,,,,,,,,,,,,,,,,,
3246,,memorable_rating,207767,Santa Monica,,53,,5,,,,,,,,,,,,,,,
null,,confidence_buffer,207870,confidence_buffer,,null,,,,,,,,,,,,,,,,,
null,,thebreak,208371,break,,null,,,,,,,,,,,,,,,,,
4904.700000047684,,familiar_rating,213277,Stamford,,51,Stamford,3,,,,,,,,,,,,,,,
null,,confidence_buffer,213378,confidence_buffer,,null,,,,,,,,,,,,,,,,,
2571.2999999523163,,unique_rating,215951,Stamford,,49,,1,,,,,,,,,,,,,,,
null,,confidence_buffer,216061,confidence_buffer,,null,,,,,,,,,,,,,,,,,
4249.199999928474,,memorable_rating,220312,Stamford,,50,,2,,,,,,,,,,,,,,,
null,,confidence_buffer,220413,confidence_buffer,,null,,,,,,,,,,,,,,,,,
null,,thebreak,220915,break,,null,,,,,,,,,,,,,,,,,
2139.600000023842,,familiar_rating,223055,McKinney,,49,McKinney,1,,,,,,,,,,,,,,,
null,,confidence_buffer,223156,confidence_buffer,,null,,,,,,,,,,,,,,,,,
1682.8999999761581,,probe_rating,224840,probe_rating,,51,,,3,1,,,,,,,,,,,,,
null,,confidence_buffer,224949,confidence_buffer,,null,,,,,,,,,,,,,,,,,
5240.700000047684,,unique_rating,230190,McKinney,,51,,3,,,,,,,,,,,,,,,
null,,confidence_buffer,230307,confidence_buffer,,null,,,,,,,,,,,,,,,,,
1759.3999999761581,,memorable_rating,232067,McKinney,,49,,1,,,,,,,,,,,,,,,
null,,confidence_buffer,232170,confidence_buffer,,null,,,,,,,,,,,,,,,,,
null,,thebreak,232671,break,,null,,,,,,,,,,,,,,,,,
2018.1000000238419,,familiar_rating,234689,Tallahassee,,53,Tallahassee,5,,,,,,,,,,,,,,,
null,,confidence_buffer,234790,confidence_buffer,,null,,,,,,,,,,,,,,,,,
3110.5,,unique_rating,237901,Tallahassee,,53,,5,,,,,,,,,,,,,,,
null,,confidence_buffer,238003,confidence_buffer,,null,,,,,,,,,,,,,,,,,
4442.700000047684,,memorable_rating,242447,Tallahassee,,53,,5,,,,,,,,,,,,,,,
null,,confidence_buffer,242548,confidence_buffer,,null,,,,,,,,,,,,,,,,,
null,,thebreak,243050,break,,null,,,,,,,,,,,,,,,,,
2116.5999999046326,,familiar_rating,245168,Scottsdale,,53,Scottsdale,5,,,,,,,,,,,,,,,
null,,confidence_buffer,245269,confidence_buffer,,null,,,,,,,,,,,,,,,,,
2543.600000023842,,unique_rating,247813,Scottsdale,,49,,1,,,,,,,,,,,,,,,
null,,confidence_buffer,247915,confidence_buffer,,null,,,,,,,,,,,,,,,,,
2680.600000023842,,memorable_rating,250596,Scottsdale,,52,,4,,,,,,,,,,,,,,,
null,,confidence_buffer,250698,confidence_buffer,,null,,,,,,,,,,,,,,,,,
null,,thebreak,251200,break,,null,,,,,,,,,,,,,,,,,
1611.2000000476837,,familiar_rating,252812,Palo Alto,,53,Palo Alto,5,,,,,,,,,,,,,,,
null,,confidence_buffer,252914,confidence_buffer,,null,,,,,,,,,,,,,,,,,
2946,,unique_rating,255861,Palo Alto,,53,,5,,,,,,,,,,,,,,,
null,,confidence_buffer,255962,confidence_buffer,,null,,,,,,,,,,,,,,,,,
1059,,memorable_rating,257022,Palo Alto,,53,,5,,,,,,,,,,,,,,,
null,,confidence_buffer,257123,confidence_buffer,,null,,,,,,,,,,,,,,,,,
1493.1000000238419,,probe_rating,258617,probe_rating,,50,,,2,1,,,,,,,,,,,,,
null,,confidence_buffer,258719,confidence_buffer,,null,,,,,,,,,,,,,,,,,
null,,thebreak,259220,break,,null,,,,,,,,,,,,,,,,,
2687.600000023842,,familiar_rating,261909,Carson City,,49,Carson City,1,,,,,,,,,,,,,,,
null,,confidence_buffer,262010,confidence_buffer,,null,,,,,,,,,,,,,,,,,
1495,,unique_rating,263506,Carson City,,49,,1,,,,,,,,,,,,,,,
null,,confidence_buffer,263608,confidence_buffer,,null,,,,,,,,,,,,,,,,,
2029.4000000953674,,memorable_rating,265638,Carson City,,49,,1,,,,,,,,,,,,,,,
null,,confidence_buffer,265749,confidence_buffer,,null,,,,,,,,,,,,,,,,,
null,,thebreak,266250,break,,null,,,,,,,,,,,,,,,,,
1752.2999999523163,,familiar_rating,268003,Syracuse,,53,Syracuse,5,,,,,,,,,,,,,,,
null,,confidence_buffer,268105,confidence_buffer,,null,,,,,,,,,,,,,,,,,
4538.399999976158,,unique_rating,272644,Syracuse,,53,,5,,,,,,,,,,,,,,,
null,,confidence_buffer,272746,confidence_buffer,,null,,,,,,,,,,,,,,,,,
1240.1000000238419,,memorable_rating,273986,Syracuse,,53,,5,,,,,,,,,,,,,,,
null,,confidence_buffer,274088,confidence_buffer,,null,,,,,,,,,,,,,,,,,
null,,thebreak,274590,break,,null,,,,,,,,,,,,,,,,,
1224.5,,familiar_rating,275815,New Haven,,53,New Haven,5,,,,,,,,,,,,,,,
null,,confidence_buffer,275916,confidence_buffer,,null,,,,,,,,,,,,,,,,,
2474.899999976158,,unique_rating,278392,New Haven,,49,,1,,,,,,,,,,,,,,,
null,,confidence_buffer,278494,confidence_buffer,,null,,,,,,,,,,,,,,,,,
7977.399999976158,,memorable_rating,286473,New Haven,,51,,3,,,,,,,,,,,,,,,
null,,confidence_buffer,286574,confidence_buffer,,null,,,,,,,,,,,,,,,,,
null,,thebreak,287075,break,,null,,,,,,,,,,,,,,,,,
1992.8000000715256,,familiar_rating,289069,Pasadena,,53,Pasadena,5,,,,,,,,,,,,,,,
null,,confidence_buffer,289171,confidence_buffer,,null,,,,,,,,,,,,,,,,,
4894.5,,unique_rating,294066,Pasadena,,51,,3,,,,,,,,,,,,,,,
null,,confidence_buffer,294168,confidence_buffer,,null,,,,,,,,,,,,,,,,,
2719.100000023842,,memorable_rating,296888,Pasadena,,52,,4,,,,,,,,,,,,,,,
null,,confidence_buffer,296990,confidence_buffer,,null,,,,,,,,,,,,,,,,,
null,,thebreak,297491,break,,null,,,,,,,,,,,,,,,,,
1534,,familiar_rating,299026,Bellingham,,53,Bellingham,5,,,,,,,,,,,,,,,
null,,confidence_buffer,299128,confidence_buffer,,null,,,,,,,,,,,,,,,,,
6160.400000095367,,unique_rating,305290,Bellingham,,52,,4,,,,,,,,,,,,,,,
null,,confidence_buffer,305392,confidence_buffer,,null,,,,,,,,,,,,,,,,,
3906.399999976158,,memorable_rating,309299,Bellingham,,49,,1,,,,,,,,,,,,,,,
null,,confidence_buffer,309413,confidence_buffer,,null,,,,,,,,,,,,,,,,,
null,,thebreak,309916,break,,null,,,,,,,,,,,,,,,,,
3911.7999999523163,,familiar_rating,313828,Decatur,,53,Decatur,5,,,,,,,,,,,,,,,
null,,confidence_buffer,313930,confidence_buffer,,null,,,,,,,,,,,,,,,,,
8581.300000071526,,unique_rating,322512,Decatur,,52,,4,,,,,,,,,,,,,,,
null,,confidence_buffer,322614,confidence_buffer,,null,,,,,,,,,,,,,,,,,
3978.2000000476837,,memorable_rating,326593,Decatur,,53,,5,,,,,,,,,,,,,,,
null,,confidence_buffer,326695,confidence_buffer,,null,,,,,,,,,,,,,,,,,
null,,thebreak,327197,break,,null,,,,,,,,,,,,,,,,,
1641.8999999761581,,familiar_rating,328840,Berkeley,,53,Berkeley,5,,,,,,,,,,,,,,,
null,,confidence_buffer,328942,confidence_buffer,,null,,,,,,,,,,,,,,,,,
4777.899999976158,,unique_rating,333721,Berkeley,,51,,3,,,,,,,,,,,,,,,
null,,confidence_buffer,333823,confidence_buffer,,null,,,,,,,,,,,,,,,,,
3630.899999976158,,memorable_rating,337454,Berkeley,,53,,5,,,,,,,,,,,,,,,
null,,confidence_buffer,337556,confidence_buffer,,null,,,,,,,,,,,,,,,,,
null,,thebreak,338058,break,,null,,,,,,,,,,,,,,,,,
4218.299999952316,,intro_0,342277,instruct,,32,,,,,,,,,,,,,,,,,
6093.799999952316,,intro_1,348372,instruct,,32,,,,,,,,,,,,,,,,,
21503,,intro_2,369875,instruct,,32,,,,,,,,,,,,,,,,,
null,,instruct_dir_4,371377,instruct,,null,,,,,,,,,,,,,,,,,
4895.200000047684,,realistic_rating,376273,Scottsdale,,53,Scottsdale,5,,,,,,,,,,,,,,,
null,,confidence_buffer,376375,confidence_buffer,,null,,,,,,,,,,,,,,,,,
2895.899999976158,,pt2_unique_rating,379272,Scottsdale,,49,,1,,,,,,,,,,,,,,,
null,,confidence_buffer,379374,confidence_buffer,,null,,,,,,,,,,,,,,,,,
5354.100000023842,,pt2_memorable_rating,384729,Scottsdale,,51,,3,,,,,,,,,,,,,,,
null,,confidence_buffer,384830,confidence_buffer,,null,,,,,,,,,,,,,,,,,
2231.7000000476837,,probe_rating,387063,probe_rating,,50,,,2,1,,,,,,,,,,,,,
null,,confidence_buffer,387168,confidence_buffer,,null,,,,,,,,,,,,,,,,,
2352.399999976158,,recognition_phase,389521,Scottsdale,,49,,,,,old,1,1,,,,,,,,,,
null,,confidence_buffer,389624,confidence_buffer,,null,,,,,,,,,,,,,,,,,
null,,thebreak,390125,break,,null,,,,,,,,,,,,,,,,,
3796.899999976158,,realistic_rating,393923,Bellingham,,49,Bellingham,1,,,,,,,,,,,,,,,
null,,confidence_buffer,394023,confidence_buffer,,null,,,,,,,,,,,,,,,,,
9572.399999976158,,pt2_unique_rating,403597,Bellingham,,51,,3,,,,,,,,,,,,,,,
null,,confidence_buffer,403699,confidence_buffer,,null,,,,,,,,,,,,,,,,,
16438.200000047684,,pt2_memorable_rating,420138,Bellingham,,50,,2,,,,,,,,,,,,,,,
null,,confidence_buffer,420241,confidence_buffer,,null,,,,,,,,,,,,,,,,,
1605.5,,recognition_phase,421848,Bellingham,,49,,,,,old,1,1,,,,,,,,,,
null,,confidence_buffer,421949,confidence_buffer,,null,,,,,,,,,,,,,,,,,
null,,thebreak,422451,break,,null,,,,,,,,,,,,,,,,,
5748.300000071526,,realistic_rating,428200,Yakima,,51,Yakima,3,,,,,,,,,,,,,,,
null,,confidence_buffer,428302,confidence_buffer,,null,,,,,,,,,,,,,,,,,
4906.399999976158,,pt2_unique_rating,433209,Yakima,,52,,4,,,,,,,,,,,,,,,
null,,confidence_buffer,433319,confidence_buffer,,null,,,,,,,,,,,,,,,,,
2627.4000000953674,,pt2_memorable_rating,435947,Yakima,,53,,5,,,,,,,,,,,,,,,
null,,confidence_buffer,436049,confidence_buffer,,null,,,,,,,,,,,,,,,,,
2659.5,,recognition_phase,438709,Yakima,,52,,,,,new,1,1,,,,,,,,,,
null,,confidence_buffer,438810,confidence_buffer,,null,,,,,,,,,,,,,,,,,
null,,thebreak,439312,break,,null,,,,,,,,,,,,,,,,,
4050.899999976158,,realistic_rating,443364,Marquette,,51,Marquette,3,,,,,,,,,,,,,,,
null,,confidence_buffer,443466,confidence_buffer,,null,,,,,,,,,,,,,,,,,
3811.5,,pt2_unique_rating,447278,Marquette,,51,,3,,,,,,,,,,,,,,,
null,,confidence_buffer,447380,confidence_buffer,,null,,,,,,,,,,,,,,,,,
6258.200000047684,,pt2_memorable_rating,453639,Marquette,,52,,4,,,,,,,,,,,,,,,
null,,confidence_buffer,453741,confidence_buffer,,null,,,,,,,,,,,,,,,,,
1731.5,,recognition_phase,455473,Marquette,,49,,,,,old,1,1,,,,,,,,,,
null,,confidence_buffer,455574,confidence_buffer,,null,,,,,,,,,,,,,,,,,
null,,thebreak,456075,break,,null,,,,,,,,,,,,,,,,,
2353.6999999284744,,realistic_rating,458430,Salem,,53,Salem,5,,,,,,,,,,,,,,,
null,,confidence_buffer,458531,confidence_buffer,,null,,,,,,,,,,,,,,,,,
1617.1999999284744,,probe_rating,460149,probe_rating,,53,,,5,1,,,,,,,,,,,,,
null,,confidence_buffer,460250,confidence_buffer,,null,,,,,,,,,,,,,,,,,
9113.5,,pt2_unique_rating,469364,Salem,,52,,4,,,,,,,,,,,,,,,
null,,confidence_buffer,469467,confidence_buffer,,null,,,,,,,,,,,,,,,,,
2294.8000000715256,,pt2_memorable_rating,471762,Salem,,53,,5,,,,,,,,,,,,,,,
null,,confidence_buffer,471864,confidence_buffer,,null,,,,,,,,,,,,,,,,,
1488.7000000476837,,recognition_phase,473353,Salem,,52,,,,,new,1,1,,,,,,,,,,
null,,confidence_buffer,473455,confidence_buffer,,null,,,,,,,,,,,,,,,,,
null,,thebreak,473957,break,,null,,,,,,,,,,,,,,,,,
3093.8000000715256,,realistic_rating,477051,Norfolk,,53,Norfolk,5,,,,,,,,,,,,,,,
null,,confidence_buffer,477153,confidence_buffer,,null,,,,,,,,,,,,,,,,,
4096.200000047684,,pt2_unique_rating,481250,Norfolk,,51,,3,,,,,,,,,,,,,,,
null,,confidence_buffer,481363,confidence_buffer,,null,,,,,,,,,,,,,,,,,
2825.7000000476837,,pt2_memorable_rating,484189,Norfolk,,53,,5,,,,,,,,,,,,,,,
null,,confidence_buffer,484305,confidence_buffer,,null,,,,,,,,,,,,,,,,,
1819.7000000476837,,recognition_phase,486125,Norfolk,,52,,,,,new,1,1,,,,,,,,,,
null,,confidence_buffer,486227,confidence_buffer,,null,,,,,,,,,,,,,,,,,
null,,thebreak,486728,break,,null,,,,,,,,,,,,,,,,,
4548.300000071526,,realistic_rating,491277,Las Cruces,,53,Las Cruces,5,,,,,,,,,,,,,,,
null,,confidence_buffer,491379,confidence_buffer,,null,,,,,,,,,,,,,,,,,
4102.299999952316,,pt2_unique_rating,495482,Las Cruces,,50,,2,,,,,,,,,,,,,,,
null,,confidence_buffer,495584,confidence_buffer,,null,,,,,,,,,,,,,,,,,
3212.8000000715256,,pt2_memorable_rating,498797,Las Cruces,,51,,3,,,,,,,,,,,,,,,
null,,confidence_buffer,498899,confidence_buffer,,null,,,,,,,,,,,,,,,,,
1720,,recognition_phase,500620,Las Cruces,,49,,,,,old,1,1,,,,,,,,,,
null,,confidence_buffer,500737,confidence_buffer,,null,,,,,,,,,,,,,,,,,
null,,thebreak,501239,break,,null,,,,,,,,,,,,,,,,,
4768,,realistic_rating,506008,Bozeman,,49,Bozeman,1,,,,,,,,,,,,,,,
null,,confidence_buffer,506110,confidence_buffer,,null,,,,,,,,,,,,,,,,,
9354.5,,pt2_unique_rating,515465,Bozeman,,51,,3,,,,,,,,,,,,,,,
null,,confidence_buffer,515568,confidence_buffer,,null,,,,,,,,,,,,,,,,,
4614.200000047684,,pt2_memorable_rating,520183,Bozeman,,50,,2,,,,,,,,,,,,,,,
null,,confidence_buffer,520285,confidence_buffer,,null,,,,,,,,,,,,,,,,,
1258.7999999523163,,recognition_phase,521545,Bozeman,,49,,,,,old,1,1,,,,,,,,,,
null,,confidence_buffer,521647,confidence_buffer,,null,,,,,,,,,,,,,,,,,
null,,thebreak,522148,break,,null,,,,,,,,,,,,,,,,,
2693.399999976158,,realistic_rating,524842,Pasadena,,53,Pasadena,5,,,,,,,,,,,,,,,
null,,confidence_buffer,524944,confidence_buffer,,null,,,,,,,,,,,,,,,,,
4261.5,,pt2_unique_rating,529206,Pasadena,,52,,4,,,,,,,,,,,,,,,
null,,confidence_buffer,529308,confidence_buffer,,null,,,,,,,,,,,,,,,,,
2595.5,,pt2_memorable_rating,531904,Pasadena,,52,,4,,,,,,,,,,,,,,,
null,,confidence_buffer,532006,confidence_buffer,,null,,,,,,,,,,,,,,,,,
855.7000000476837,,recognition_phase,532862,Pasadena,,49,,,,,old,1,1,,,,,,,,,,
null,,confidence_buffer,532965,confidence_buffer,,null,,,,,,,,,,,,,,,,,
null,,thebreak,533466,break,,null,,,,,,,,,,,,,,,,,
4996.600000023842,,realistic_rating,538463,Youngstown,,53,Youngstown,5,,,,,,,,,,,,,,,
null,,confidence_buffer,538564,confidence_buffer,,null,,,,,,,,,,,,,,,,,
1347.8000000715256,,pt2_unique_rating,539913,Youngstown,,49,,1,,,,,,,,,,,,,,,
null,,confidence_buffer,540014,confidence_buffer,,null,,,,,,,,,,,,,,,,,
3982.1999999284744,,pt2_memorable_rating,543998,Youngstown,,49,,1,,,,,,,,,,,,,,,
null,,confidence_buffer,544099,confidence_buffer,,null,,,,,,,,,,,,,,,,,
1558.6999999284744,,recognition_phase,545658,Youngstown,,52,,,,,new,1,1,,,,,,,,,,
null,,confidence_buffer,545760,confidence_buffer,,null,,,,,,,,,,,,,,,,,
null,,thebreak,546261,break,,null,,,,,,,,,,,,,,,,,
2852.6999999284744,,realistic_rating,549115,Pueblo,,53,Pueblo,5,,,,,,,,,,,,,,,
null,,confidence_buffer,549216,confidence_buffer,,null,,,,,,,,,,,,,,,,,
4280.400000095367,,pt2_unique_rating,553497,Pueblo,,49,,1,,,,,,,,,,,,,,,
null,,confidence_buffer,553598,confidence_buffer,,null,,,,,,,,,,,,,,,,,
2873.399999976158,,pt2_memorable_rating,556472,Pueblo,,53,,5,,,,,,,,,,,,,,,
null,,confidence_buffer,556574,confidence_buffer,,null,,,,,,,,,,,,,,,,,
1965.8000000715256,,recognition_phase,558541,Pueblo,,52,,,,,new,1,1,,,,,,,,,,
null,,confidence_buffer,558642,confidence_buffer,,null,,,,,,,,,,,,,,,,,
null,,thebreak,559144,break,,null,,,,,,,,,,,,,,,,,
3411,,realistic_rating,562556,Stamford,,52,Stamford,4,,,,,,,,,,,,,,,
null,,confidence_buffer,562658,confidence_buffer,,null,,,,,,,,,,,,,,,,,
1356.6999999284744,,probe_rating,564016,probe_rating,,53,,,5,1,,,,,,,,,,,,,
null,,confidence_buffer,564118,confidence_buffer,,null,,,,,,,,,,,,,,,,,
2656,,pt2_unique_rating,566775,Stamford,,49,,1,,,,,,,,,,,,,,,
null,,confidence_buffer,566876,confidence_buffer,,null,,,,,,,,,,,,,,,,,
1855.6999999284744,,pt2_memorable_rating,568733,Stamford,,50,,2,,,,,,,,,,,,,,,
null,,confidence_buffer,568834,confidence_buffer,,null,,,,,,,,,,,,,,,,,
1300.1000000238419,,recognition_phase,570135,Stamford,,49,,,,,old,1,1,,,,,,,,,,
null,,confidence_buffer,570237,confidence_buffer,,null,,,,,,,,,,,,,,,,,
null,,thebreak,570739,break,,null,,,,,,,,,,,,,,,,,
2603.2999999523163,,realistic_rating,573343,Boise,,53,Boise,5,,,,,,,,,,,,,,,
null,,confidence_buffer,573444,confidence_buffer,,null,,,,,,,,,,,,,,,,,
7511.899999976158,,pt2_unique_rating,580957,Boise,,53,,5,,,,,,,,,,,,,,,
null,,confidence_buffer,581059,confidence_buffer,,null,,,,,,,,,,,,,,,,,
1638.7000000476837,,pt2_memorable_rating,582699,Boise,,53,,5,,,,,,,,,,,,,,,
null,,confidence_buffer,582801,confidence_buffer,,null,,,,,,,,,,,,,,,,,
2137.7000000476837,,recognition_phase,584939,Boise,,52,,,,,new,1,1,,,,,,,,,,
null,,confidence_buffer,585040,confidence_buffer,,null,,,,,,,,,,,,,,,,,
null,,thebreak,585541,break,,null,,,,,,,,,,,,,,,,,
4509.600000023842,,realistic_rating,590052,Concord,,52,Concord,4,,,,,,,,,,,,,,,
null,,confidence_buffer,590153,confidence_buffer,,null,,,,,,,,,,,,,,,,,
1489.3999999761581,,probe_rating,591643,probe_rating,,50,,,2,1,,,,,,,,,,,,,
null,,confidence_buffer,591746,confidence_buffer,,null,,,,,,,,,,,,,,,,,
3211.899999976158,,pt2_unique_rating,594958,Concord,,49,,1,,,,,,,,,,,,,,,
null,,confidence_buffer,595059,confidence_buffer,,null,,,,,,,,,,,,,,,,,
2124.7000000476837,,pt2_memorable_rating,597184,Concord,,50,,2,,,,,,,,,,,,,,,
null,,confidence_buffer,597286,confidence_buffer,,null,,,,,,,,,,,,,,,,,
1726.8000000715256,,recognition_phase,599013,Concord,,52,,,,,new,1,1,,,,,,,,,,
null,,confidence_buffer,599116,confidence_buffer,,null,,,,,,,,,,,,,,,,,
null,,thebreak,599617,break,,null,,,,,,,,,,,,,,,,,
3752.600000023842,,realistic_rating,603371,Peoria,,51,Peoria,3,,,,,,,,,,,,,,,
null,,confidence_buffer,603472,confidence_buffer,,null,,,,,,,,,,,,,,,,,
1278.5999999046326,,probe_rating,604752,probe_rating,,53,,,5,1,,,,,,,,,,,,,
null,,confidence_buffer,604859,confidence_buffer,,null,,,,,,,,,,,,,,,,,
4903.200000047684,,pt2_unique_rating,609763,Peoria,,53,,5,,,,,,,,,,,,,,,
null,,confidence_buffer,609865,confidence_buffer,,null,,,,,,,,,,,,,,,,,
2375.7999999523163,,pt2_memorable_rating,612242,Peoria,,51,,3,,,,,,,,,,,,,,,
null,,confidence_buffer,612344,confidence_buffer,,null,,,,,,,,,,,,,,,,,
1395,,recognition_phase,613740,Peoria,,49,,,,,old,1,1,,,,,,,,,,
null,,confidence_buffer,613850,confidence_buffer,,null,,,,,,,,,,,,,,,,,
null,,thebreak,614350,break,,null,,,,,,,,,,,,,,,,,
2221.100000023842,,realistic_rating,616572,Dover,,53,Dover,5,,,,,,,,,,,,,,,
null,,confidence_buffer,616675,confidence_buffer,,null,,,,,,,,,,,,,,,,,
4205,,pt2_unique_rating,620881,Dover,,50,,2,,,,,,,,,,,,,,,
null,,confidence_buffer,620988,confidence_buffer,,null,,,,,,,,,,,,,,,,,
1906.3999999761581,,pt2_memorable_rating,622895,Dover,,51,,3,,,,,,,,,,,,,,,
null,,confidence_buffer,622997,confidence_buffer,,null,,,,,,,,,,,,,,,,,
2430.600000023842,,recognition_phase,625428,Dover,,49,,,,,old,1,1,,,,,,,,,,
null,,confidence_buffer,625530,confidence_buffer,,null,,,,,,,,,,,,,,,,,
null,,thebreak,626032,break,,null,,,,,,,,,,,,,,,,,
2652.1999999284744,,realistic_rating,628685,Ann Arbor,,53,Ann Arbor,5,,,,,,,,,,,,,,,
null,,confidence_buffer,628787,confidence_buffer,,null,,,,,,,,,,,,,,,,,
2950.7000000476837,,pt2_unique_rating,631738,Ann Arbor,,51,,3,,,,,,,,,,,,,,,
null,,confidence_buffer,631843,confidence_buffer,,null,,,,,,,,,,,,,,,,,
1851.2999999523163,,pt2_memorable_rating,633695,Ann Arbor,,52,,4,,,,,,,,,,,,,,,
null,,confidence_buffer,633797,confidence_buffer,,null,,,,,,,,,,,,,,,,,
2038.7999999523163,,recognition_phase,635837,Ann Arbor,,52,,,,,new,1,1,,,,,,,,,,
null,,confidence_buffer,635938,confidence_buffer,,null,,,,,,,,,,,,,,,,,
null,,thebreak,636440,break,,null,,,,,,,,,,,,,,,,,
2363.7000000476837,,realistic_rating,638804,Hagerstown,,53,Hagerstown,5,,,,,,,,,,,,,,,
null,,confidence_buffer,638906,confidence_buffer,,null,,,,,,,,,,,,,,,,,
12658.700000047684,,pt2_unique_rating,651565,Hagerstown,,52,,4,,,,,,,,,,,,,,,
null,,confidence_buffer,651667,confidence_buffer,,null,,,,,,,,,,,,,,,,,
2331.7000000476837,,pt2_memorable_rating,653999,Hagerstown,,53,,5,,,,,,,,,,,,,,,
null,,confidence_buffer,654100,confidence_buffer,,null,,,,,,,,,,,,,,,,,
1652.8000000715256,,recognition_phase,655753,Hagerstown,,49,,,,,old,1,1,,,,,,,,,,
null,,confidence_buffer,655855,confidence_buffer,,null,,,,,,,,,,,,,,,,,
null,,thebreak,656356,break,,null,,,,,,,,,,,,,,,,,
3347.100000023842,,realistic_rating,659704,McKinney,,52,McKinney,4,,,,,,,,,,,,,,,
null,,confidence_buffer,659805,confidence_buffer,,null,,,,,,,,,,,,,,,,,
4207.600000023842,,pt2_unique_rating,664014,McKinney,,49,,1,,,,,,,,,,,,,,,
null,,confidence_buffer,664116,confidence_buffer,,null,,,,,,,,,,,,,,,,,
2931.399999976158,,pt2_memorable_rating,667048,McKinney,,51,,3,,,,,,,,,,,,,,,
null,,confidence_buffer,667150,confidence_buffer,,null,,,,,,,,,,,,,,,,,
1134,,recognition_phase,668285,McKinney,,49,,,,,old,1,1,,,,,,,,,,
null,,confidence_buffer,668386,confidence_buffer,,null,,,,,,,,,,,,,,,,,
null,,thebreak,668889,break,,null,,,,,,,,,,,,,,,,,
3983.399999976158,,realistic_rating,672873,Altoona,,53,Altoona,5,,,,,,,,,,,,,,,
null,,confidence_buffer,672975,confidence_buffer,,null,,,,,,,,,,,,,,,,,
3973,,pt2_unique_rating,676949,Altoona,,51,,3,,,,,,,,,,,,,,,
null,,confidence_buffer,677051,confidence_buffer,,null,,,,,,,,,,,,,,,,,
1846.1000000238419,,pt2_memorable_rating,678898,Altoona,,52,,4,,,,,,,,,,,,,,,
null,,confidence_buffer,679000,confidence_buffer,,null,,,,,,,,,,,,,,,,,
2167.899999976158,,recognition_phase,681169,Altoona,,52,,,,,new,1,1,,,,,,,,,,
null,,confidence_buffer,681272,confidence_buffer,,null,,,,,,,,,,,,,,,,,
null,,thebreak,681774,break,,null,,,,,,,,,,,,,,,,,
2600.6999999284744,,realistic_rating,684376,Cheyenne,,53,Cheyenne,5,,,,,,,,,,,,,,,
null,,confidence_buffer,684477,confidence_buffer,,null,,,,,,,,,,,,,,,,,
4247,,pt2_unique_rating,688725,Cheyenne,,49,,1,,,,,,,,,,,,,,,
null,,confidence_buffer,688827,confidence_buffer,,null,,,,,,,,,,,,,,,,,
3348.899999976158,,pt2_memorable_rating,692176,Cheyenne,,53,,5,,,,,,,,,,,,,,,
null,,confidence_buffer,692278,confidence_buffer,,null,,,,,,,,,,,,,,,,,
1298.8999999761581,,recognition_phase,693578,Cheyenne,,52,,,,,new,1,1,,,,,,,,,,
null,,confidence_buffer,693678,confidence_buffer,,null,,,,,,,,,,,,,,,,,
null,,thebreak,694180,break,,null,,,,,,,,,,,,,,,,,
2342.1999999284744,,realistic_rating,696523,Santa Monica,,53,Santa Monica,5,,,,,,,,,,,,,,,
null,,confidence_buffer,696625,confidence_buffer,,null,,,,,,,,,,,,,,,,,
4713.399999976158,,pt2_unique_rating,701339,Santa Monica,,50,,2,,,,,,,,,,,,,,,
null,,confidence_buffer,701442,confidence_buffer,,null,,,,,,,,,,,,,,,,,
1747.0999999046326,,pt2_memorable_rating,703190,Santa Monica,,53,,5,,,,,,,,,,,,,,,
null,,confidence_buffer,703291,confidence_buffer,,null,,,,,,,,,,,,,,,,,
1426,,recognition_phase,704718,Santa Monica,,49,,,,,old,1,1,,,,,,,,,,
null,,confidence_buffer,704819,confidence_buffer,,null,,,,,,,,,,,,,,,,,
null,,thebreak,705321,break,,null,,,,,,,,,,,,,,,,,
1544,,realistic_rating,706865,Abilene,,53,Abilene,5,,,,,,,,,,,,,,,
null,,confidence_buffer,706967,confidence_buffer,,null,,,,,,,,,,,,,,,,,
3014.7999999523163,,pt2_unique_rating,709983,Abilene,,53,,5,,,,,,,,,,,,,,,
null,,confidence_buffer,710085,confidence_buffer,,null,,,,,,,,,,,,,,,,,
1719.2000000476837,,pt2_memorable_rating,711805,Abilene,,53,,5,,,,,,,,,,,,,,,
null,,confidence_buffer,711907,confidence_buffer,,null,,,,,,,,,,,,,,,,,
1352,,probe_rating,713260,probe_rating,,51,,,3,1,,,,,,,,,,,,,
null,,confidence_buffer,713361,confidence_buffer,,null,,,,,,,,,,,,,,,,,
2125.1999999284744,,recognition_phase,715487,Abilene,,49,,,,,old,1,1,,,,,,,,,,
null,,confidence_buffer,715588,confidence_buffer,,null,,,,,,,,,,,,,,,,,
null,,thebreak,716089,break,,null,,,,,,,,,,,,,,,,,
4719.699999928474,,realistic_rating,720810,Montpelier,,52,Montpelier,4,,,,,,,,,,,,,,,
null,,confidence_buffer,720925,confidence_buffer,,null,,,,,,,,,,,,,,,,,
2970.600000023842,,pt2_unique_rating,723897,Montpelier,,52,,4,,,,,,,,,,,,,,,
null,,confidence_buffer,723999,confidence_buffer,,null,,,,,,,,,,,,,,,,,
2329.600000023842,,pt2_memorable_rating,726330,Montpelier,,52,,4,,,,,,,,,,,,,,,
null,,confidence_buffer,726431,confidence_buffer,,null,,,,,,,,,,,,,,,,,
1465.7000000476837,,recognition_phase,727897,Montpelier,,52,,,,,new,1,1,,,,,,,,,,
null,,confidence_buffer,727998,confidence_buffer,,null,,,,,,,,,,,,,,,,,
null,,thebreak,728499,break,,null,,,,,,,,,,,,,,,,,
5193.399999976158,,realistic_rating,733694,Burlington,,52,Burlington,4,,,,,,,,,,,,,,,
null,,confidence_buffer,733796,confidence_buffer,,null,,,,,,,,,,,,,,,,,
3400.600000023842,,pt2_unique_rating,737197,Burlington,,50,,2,,,,,,,,,,,,,,,
null,,confidence_buffer,737299,confidence_buffer,,null,,,,,,,,,,,,,,,,,
3167.5,,pt2_memorable_rating,740468,Burlington,,52,,4,,,,,,,,,,,,,,,
null,,confidence_buffer,740569,confidence_buffer,,null,,,,,,,,,,,,,,,,,
1559,,recognition_phase,742129,Burlington,,52,,,,,new,1,1,,,,,,,,,,
null,,confidence_buffer,742230,confidence_buffer,,null,,,,,,,,,,,,,,,,,
null,,thebreak,742732,break,,null,,,,,,,,,,,,,,,,,
3222.899999976158,,realistic_rating,745955,Boulder,,53,Boulder,5,,,,,,,,,,,,,,,
null,,confidence_buffer,746058,confidence_buffer,,null,,,,,,,,,,,,,,,,,
5967.399999976158,,pt2_unique_rating,752026,Boulder,,51,,3,,,,,,,,,,,,,,,
null,,confidence_buffer,752128,confidence_buffer,,null,,,,,,,,,,,,,,,,,
1369.6000000238419,,pt2_memorable_rating,753499,Boulder,,53,,5,,,,,,,,,,,,,,,
null,,confidence_buffer,753600,confidence_buffer,,null,,,,,,,,,,,,,,,,,
930.6000000238419,,recognition_phase,754531,Boulder,,52,,,,,new,1,1,,,,,,,,,,
null,,confidence_buffer,754633,confidence_buffer,,null,,,,,,,,,,,,,,,,,
null,,thebreak,755134,break,,null,,,,,,,,,,,,,,,,,
2003,,realistic_rating,757138,Berkeley,,53,Berkeley,5,,,,,,,,,,,,,,,
null,,confidence_buffer,757240,confidence_buffer,,null,,,,,,,,,,,,,,,,,
2270.7000000476837,,pt2_unique_rating,759511,Berkeley,,51,,3,,,,,,,,,,,,,,,
null,,confidence_buffer,759612,confidence_buffer,,null,,,,,,,,,,,,,,,,,
2112.9000000953674,,pt2_memorable_rating,761726,Berkeley,,53,,5,,,,,,,,,,,,,,,
null,,confidence_buffer,761827,confidence_buffer,,null,,,,,,,,,,,,,,,,,
1027.7999999523163,,recognition_phase,762856,Berkeley,,49,,,,,old,1,1,,,,,,,,,,
null,,confidence_buffer,762957,confidence_buffer,,null,,,,,,,,,,,,,,,,,
null,,thebreak,763459,break,,null,,,,,,,,,,,,,,,,,
2853,,realistic_rating,766313,Fort Collins,,53,Fort Collins,5,,,,,,,,,,,,,,,
null,,confidence_buffer,766415,confidence_buffer,,null,,,,,,,,,,,,,,,,,
4462.199999928474,,pt2_unique_rating,770878,Fort Collins,,50,,2,,,,,,,,,,,,,,,
null,,confidence_buffer,770980,confidence_buffer,,null,,,,,,,,,,,,,,,,,
1689.2999999523163,,pt2_memorable_rating,772670,Fort Collins,,53,,5,,,,,,,,,,,,,,,
null,,confidence_buffer,772771,confidence_buffer,,null,,,,,,,,,,,,,,,,,
3076.100000023842,,recognition_phase,775848,Fort Collins,,52,,,,,new,1,1,,,,,,,,,,
null,,confidence_buffer,775949,confidence_buffer,,null,,,,,,,,,,,,,,,,,
null,,thebreak,776451,break,,null,,,,,,,,,,,,,,,,,
8408.399999976158,,realistic_rating,784860,Carson City,,50,Carson City,2,,,,,,,,,,,,,,,
null,,confidence_buffer,784963,confidence_buffer,,null,,,,,,,,,,,,,,,,,
2268.3000000715256,,pt2_unique_rating,787232,Carson City,,49,,1,,,,,,,,,,,,,,,
null,,confidence_buffer,787333,confidence_buffer,,null,,,,,,,,,,,,,,,,,
4720,,pt2_memorable_rating,792054,Carson City,,50,,2,,,,,,,,,,,,,,,
null,,confidence_buffer,792155,confidence_buffer,,null,,,,,,,,,,,,,,,,,
2624.5,,recognition_phase,794780,Carson City,,49,,,,,old,1,1,,,,,,,,,,
null,,confidence_buffer,794882,confidence_buffer,,null,,,,,,,,,,,,,,,,,
null,,thebreak,795384,break,,null,,,,,,,,,,,,,,,,,
3910,,realistic_rating,799295,Terre Haute,,51,Terre Haute,3,,,,,,,,,,,,,,,
null,,confidence_buffer,799397,confidence_buffer,,null,,,,,,,,,,,,,,,,,
3176,,pt2_unique_rating,802574,Terre Haute,,53,,5,,,,,,,,,,,,,,,
null,,confidence_buffer,802675,confidence_buffer,,null,,,,,,,,,,,,,,,,,
1578,,pt2_memorable_rating,804254,Terre Haute,,53,,5,,,,,,,,,,,,,,,
null,,confidence_buffer,804356,confidence_buffer,,null,,,,,,,,,,,,,,,,,
1481.6000000238419,,probe_rating,805838,probe_rating,,51,,,3,1,,,,,,,,,,,,,
null,,confidence_buffer,805941,confidence_buffer,,null,,,,,,,,,,,,,,,,,
1634.5,,recognition_phase,807576,Terre Haute,,49,,,,,old,1,1,,,,,,,,,,
null,,confidence_buffer,807678,confidence_buffer,,null,,,,,,,,,,,,,,,,,
null,,thebreak,808180,break,,null,,,,,,,,,,,,,,,,,
1808.6000000238419,,realistic_rating,809989,Ithaca,,53,Ithaca,5,,,,,,,,,,,,,,,
null,,confidence_buffer,810102,confidence_buffer,,null,,,,,,,,,,,,,,,,,
1884.3999999761581,,pt2_unique_rating,811987,Ithaca,,53,,5,,,,,,,,,,,,,,,
null,,confidence_buffer,812088,confidence_buffer,,null,,,,,,,,,,,,,,,,,
2191.0999999046326,,pt2_memorable_rating,814280,Ithaca,,53,,5,,,,,,,,,,,,,,,
null,,confidence_buffer,814397,confidence_buffer,,null,,,,,,,,,,,,,,,,,
1068.5999999046326,,probe_rating,815466,probe_rating,,49,,,1,1,,,,,,,,,,,,,
null,,confidence_buffer,815568,confidence_buffer,,null,,,,,,,,,,,,,,,,,
1815.1000000238419,,recognition_phase,817384,Ithaca,,52,,,,,new,1,1,,,,,,,,,,
null,,confidence_buffer,817486,confidence_buffer,,null,,,,,,,,,,,,,,,,,
null,,thebreak,817988,break,,null,,,,,,,,,,,,,,,,,
4924.899999976158,,realistic_rating,822914,Fort Wayne,,51,Fort Wayne,3,,,,,,,,,,,,,,,
null,,confidence_buffer,823017,confidence_buffer,,null,,,,,,,,,,,,,,,,,
1996.6999999284744,,pt2_unique_rating,825015,Fort Wayne,,49,,1,,,,,,,,,,,,,,,
null,,confidence_buffer,825116,confidence_buffer,,null,,,,,,,,,,,,,,,,,
4589.299999952316,,pt2_memorable_rating,829706,Fort Wayne,,50,,2,,,,,,,,,,,,,,,
null,,confidence_buffer,829807,confidence_buffer,,null,,,,,,,,,,,,,,,,,
1175.6000000238419,,recognition_phase,830984,Fort Wayne,,49,,,,,old,1,1,,,,,,,,,,
null,,confidence_buffer,831086,confidence_buffer,,null,,,,,,,,,,,,,,,,,
null,,thebreak,831588,break,,null,,,,,,,,,,,,,,,,,
4586.800000071526,,realistic_rating,836176,Tallahassee,,53,Tallahassee,5,,,,,,,,,,,,,,,
null,,confidence_buffer,836278,confidence_buffer,,null,,,,,,,,,,,,,,,,,
3175.7000000476837,,pt2_unique_rating,839455,Tallahassee,,53,,5,,,,,,,,,,,,,,,
null,,confidence_buffer,839557,confidence_buffer,,null,,,,,,,,,,,,,,,,,
1076.9000000953674,,pt2_memorable_rating,840635,Tallahassee,,53,,5,,,,,,,,,,,,,,,
null,,confidence_buffer,840736,confidence_buffer,,null,,,,,,,,,,,,,,,,,
2864,,recognition_phase,843601,Tallahassee,,49,,,,,old,1,1,,,,,,,,,,
null,,confidence_buffer,843704,confidence_buffer,,null,,,,,,,,,,,,,,,,,
null,,thebreak,844206,break,,null,,,,,,,,,,,,,,,,,
9248.799999952316,,realistic_rating,853456,Frankfort,,49,Frankfort,1,,,,,,,,,,,,,,,
null,,confidence_buffer,853558,confidence_buffer,,null,,,,,,,,,,,,,,,,,
1267.2999999523163,,probe_rating,854826,probe_rating,,51,,,3,1,,,,,,,,,,,,,
null,,confidence_buffer,854928,confidence_buffer,,null,,,,,,,,,,,,,,,,,
4510.600000023842,,pt2_unique_rating,859439,Frankfort,,50,,2,,,,,,,,,,,,,,,
null,,confidence_buffer,859547,confidence_buffer,,null,,,,,,,,,,,,,,,,,
2443.7999999523163,,pt2_memorable_rating,861992,Frankfort,,51,,3,,,,,,,,,,,,,,,
null,,confidence_buffer,862094,confidence_buffer,,null,,,,,,,,,,,,,,,,,
1410.3999999761581,,recognition_phase,863505,Frankfort,,52,,,,,new,1,1,,,,,,,,,,
null,,confidence_buffer,863607,confidence_buffer,,null,,,,,,,,,,,,,,,,,
null,,thebreak,864108,break,,null,,,,,,,,,,,,,,,,,
1748.7999999523163,,realistic_rating,865858,Palo Alto,,53,Palo Alto,5,,,,,,,,,,,,,,,
null,,confidence_buffer,865960,confidence_buffer,,null,,,,,,,,,,,,,,,,,
2960.899999976158,,pt2_unique_rating,868921,Palo Alto,,52,,4,,,,,,,,,,,,,,,
null,,confidence_buffer,869023,confidence_buffer,,null,,,,,,,,,,,,,,,,,
1642,,pt2_memorable_rating,870666,Palo Alto,,53,,5,,,,,,,,,,,,,,,
null,,confidence_buffer,870767,confidence_buffer,,null,,,,,,,,,,,,,,,,,
1383.5999999046326,,recognition_phase,872152,Palo Alto,,49,,,,,old,1,1,,,,,,,,,,
null,,confidence_buffer,872253,confidence_buffer,,null,,,,,,,,,,,,,,,,,
null,,thebreak,872754,break,,null,,,,,,,,,,,,,,,,,
2564.7000000476837,,realistic_rating,875319,Helena,,53,Helena,5,,,,,,,,,,,,,,,
null,,confidence_buffer,875436,confidence_buffer,,null,,,,,,,,,,,,,,,,,
3870.899999976158,,pt2_unique_rating,879308,Helena,,49,,1,,,,,,,,,,,,,,,
null,,confidence_buffer,879409,confidence_buffer,,null,,,,,,,,,,,,,,,,,
3343.9000000953674,,pt2_memorable_rating,882753,Helena,,52,,4,,,,,,,,,,,,,,,
null,,confidence_buffer,882855,confidence_buffer,,null,,,,,,,,,,,,,,,,,
1685.7000000476837,,recognition_phase,884542,Helena,,52,,,,,new,1,1,,,,,,,,,,
null,,confidence_buffer,884643,confidence_buffer,,null,,,,,,,,,,,,,,,,,
null,,thebreak,885144,break,,null,,,,,,,,,,,,,,,,,
1723.4000000953674,,realistic_rating,886869,Reno,,53,Reno,5,,,,,,,,,,,,,,,
null,,confidence_buffer,886970,confidence_buffer,,null,,,,,,,,,,,,,,,,,
4420.699999928474,,pt2_unique_rating,891392,Reno,,51,,3,,,,,,,,,,,,,,,
null,,confidence_buffer,891493,confidence_buffer,,null,,,,,,,,,,,,,,,,,
1947.9000000953674,,pt2_memorable_rating,893442,Reno,,52,,4,,,,,,,,,,,,,,,
null,,confidence_buffer,893543,confidence_buffer,,null,,,,,,,,,,,,,,,,,
2017.3999999761581,,recognition_phase,895561,Reno,,52,,,,,new,1,1,,,,,,,,,,
null,,confidence_buffer,895664,confidence_buffer,,null,,,,,,,,,,,,,,,,,
null,,thebreak,896165,break,,null,,,,,,,,,,,,,,,,,
4432.899999976158,,realistic_rating,900599,Rock Springs,,51,Rock Springs,3,,,,,,,,,,,,,,,
null,,confidence_buffer,900701,confidence_buffer,,null,,,,,,,,,,,,,,,,,
2109.5999999046326,,pt2_unique_rating,902811,Rock Springs,,49,,1,,,,,,,,,,,,,,,
null,,confidence_buffer,902912,confidence_buffer,,null,,,,,,,,,,,,,,,,,
2619.2999999523163,,pt2_memorable_rating,905532,Rock Springs,,50,,2,,,,,,,,,,,,,,,
null,,confidence_buffer,905634,confidence_buffer,,null,,,,,,,,,,,,,,,,,
1597.3999999761581,,recognition_phase,907232,Rock Springs,,52,,,,,new,1,1,,,,,,,,,,
null,,confidence_buffer,907335,confidence_buffer,,null,,,,,,,,,,,,,,,,,
null,,thebreak,907837,break,,null,,,,,,,,,,,,,,,,,
8365.600000023842,,realistic_rating,916204,Muncie,,49,Muncie,1,,,,,,,,,,,,,,,
null,,confidence_buffer,916305,confidence_buffer,,null,,,,,,,,,,,,,,,,,
3984.6999999284744,,pt2_unique_rating,920292,Muncie,,52,,4,,,,,,,,,,,,,,,
null,,confidence_buffer,920394,confidence_buffer,,null,,,,,,,,,,,,,,,,,
2621.1999999284744,,pt2_memorable_rating,923016,Muncie,,51,,3,,,,,,,,,,,,,,,
null,,confidence_buffer,923118,confidence_buffer,,null,,,,,,,,,,,,,,,,,
1193.3000000715256,,recognition_phase,924312,Muncie,,52,,,,,new,1,1,,,,,,,,,,
null,,confidence_buffer,924414,confidence_buffer,,null,,,,,,,,,,,,,,,,,
null,,thebreak,924915,break,,null,,,,,,,,,,,,,,,,,
1692.1000000238419,,realistic_rating,926608,Cambridge,,53,Cambridge,5,,,,,,,,,,,,,,,
null,,confidence_buffer,926709,confidence_buffer,,null,,,,,,,,,,,,,,,,,
4355.799999952316,,pt2_unique_rating,931066,Cambridge,,51,,3,,,,,,,,,,,,,,,
null,,confidence_buffer,931167,confidence_buffer,,null,,,,,,,,,,,,,,,,,
1306.2000000476837,,pt2_memorable_rating,932473,Cambridge,,53,,5,,,,,,,,,,,,,,,
null,,confidence_buffer,932574,confidence_buffer,,null,,,,,,,,,,,,,,,,,
1594.2000000476837,,recognition_phase,934169,Cambridge,,49,,,,,old,1,1,,,,,,,,,,
null,,confidence_buffer,934271,confidence_buffer,,null,,,,,,,,,,,,,,,,,
null,,thebreak,934772,break,,null,,,,,,,,,,,,,,,,,
2713.1999999284744,,realistic_rating,937486,Fargo,,53,Fargo,5,,,,,,,,,,,,,,,
null,,confidence_buffer,937588,confidence_buffer,,null,,,,,,,,,,,,,,,,,
3174.399999976158,,pt2_unique_rating,940763,Fargo,,52,,4,,,,,,,,,,,,,,,
null,,confidence_buffer,940865,confidence_buffer,,null,,,,,,,,,,,,,,,,,
1397.7000000476837,,pt2_memorable_rating,942264,Fargo,,53,,5,,,,,,,,,,,,,,,
null,,confidence_buffer,942365,confidence_buffer,,null,,,,,,,,,,,,,,,,,
1275.6999999284744,,recognition_phase,943641,Fargo,,52,,,,,new,1,1,,,,,,,,,,
null,,confidence_buffer,943743,confidence_buffer,,null,,,,,,,,,,,,,,,,,
null,,thebreak,944245,break,,null,,,,,,,,,,,,,,,,,
2402.5,,realistic_rating,946648,Decatur,,53,Decatur,5,,,,,,,,,,,,,,,
null,,confidence_buffer,946749,confidence_buffer,,null,,,,,,,,,,,,,,,,,
3424.7999999523163,,pt2_unique_rating,950175,Decatur,,52,,4,,,,,,,,,,,,,,,
null,,confidence_buffer,950277,confidence_buffer,,null,,,,,,,,,,,,,,,,,
1074.7000000476837,,pt2_memorable_rating,951353,Decatur,,53,,5,,,,,,,,,,,,,,,
null,,confidence_buffer,951455,confidence_buffer,,null,,,,,,,,,,,,,,,,,
1161.5999999046326,,recognition_phase,952617,Decatur,,49,,,,,old,1,1,,,,,,,,,,
null,,confidence_buffer,952719,confidence_buffer,,null,,,,,,,,,,,,,,,,,
null,,thebreak,953220,break,,null,,,,,,,,,,,,,,,,,
2276.8000000715256,,realistic_rating,955498,Annapolis,,53,Annapolis,5,,,,,,,,,,,,,,,
null,,confidence_buffer,955599,confidence_buffer,,null,,,,,,,,,,,,,,,,,
9736.399999976158,,pt2_unique_rating,965336,Annapolis,,53,,5,,,,,,,,,,,,,,,
null,,confidence_buffer,965438,confidence_buffer,,null,,,,,,,,,,,,,,,,,
1260.2000000476837,,probe_rating,966699,probe_rating,,50,,,2,1,,,,,,,,,,,,,
null,,confidence_buffer,966800,confidence_buffer,,null,,,,,,,,,,,,,,,,,
1700.5999999046326,,pt2_memorable_rating,968502,Annapolis,,53,,5,,,,,,,,,,,,,,,
null,,confidence_buffer,968603,confidence_buffer,,null,,,,,,,,,,,,,,,,,
1319.7999999523163,,recognition_phase,969924,Annapolis,,52,,,,,new,1,1,,,,,,,,,,
null,,confidence_buffer,970026,confidence_buffer,,null,,,,,,,,,,,,,,,,,
null,,thebreak,970526,break,,null,,,,,,,,,,,,,,,,,
1838.8999999761581,,realistic_rating,972366,Olympia,,53,Olympia,5,,,,,,,,,,,,,,,
null,,confidence_buffer,972468,confidence_buffer,,null,,,,,,,,,,,,,,,,,
2420.2999999523163,,pt2_unique_rating,974890,Olympia,,51,,3,,,,,,,,,,,,,,,
null,,confidence_buffer,974996,confidence_buffer,,null,,,,,,,,,,,,,,,,,
1765.3999999761581,,pt2_memorable_rating,976763,Olympia,,53,,5,,,,,,,,,,,,,,,
null,,confidence_buffer,976864,confidence_buffer,,null,,,,,,,,,,,,,,,,,
990.2999999523163,,recognition_phase,977855,Olympia,,49,,,,,old,1,1,,,,,,,,,,
null,,confidence_buffer,977957,confidence_buffer,,null,,,,,,,,,,,,,,,,,
null,,thebreak,978459,break,,null,,,,,,,,,,,,,,,,,
2109.6999999284744,,realistic_rating,980569,Gainesville,,53,Gainesville,5,,,,,,,,,,,,,,,
null,,confidence_buffer,980670,confidence_buffer,,null,,,,,,,,,,,,,,,,,
1581.3999999761581,,probe_rating,982252,probe_rating,,51,,,3,1,,,,,,,,,,,,,
null,,confidence_buffer,982354,confidence_buffer,,null,,,,,,,,,,,,,,,,,
5276.899999976158,,pt2_unique_rating,987632,Gainesville,,50,,2,,,,,,,,,,,,,,,
null,,confidence_buffer,987734,confidence_buffer,,null,,,,,,,,,,,,,,,,,
2029,,pt2_memorable_rating,989764,Gainesville,,52,,4,,,,,,,,,,,,,,,
null,,confidence_buffer,989865,confidence_buffer,,null,,,,,,,,,,,,,,,,,
1991.1000000238419,,recognition_phase,991857,Gainesville,,52,,,,,new,1,1,,,,,,,,,,
null,,confidence_buffer,991958,confidence_buffer,,null,,,,,,,,,,,,,,,,,
null,,thebreak,992460,break,,null,,,,,,,,,,,,,,,,,
2956.3000000715256,,realistic_rating,995417,New Haven,,53,New Haven,5,,,,,,,,,,,,,,,
null,,confidence_buffer,995519,confidence_buffer,,null,,,,,,,,,,,,,,,,,
2370.6999999284744,,pt2_unique_rating,997891,New Haven,,49,,1,,,,,,,,,,,,,,,
null,,confidence_buffer,997993,confidence_buffer,,null,,,,,,,,,,,,,,,,,
1032.3000000715256,,probe_rating,999026,probe_rating,,50,,,2,1,,,,,,,,,,,,,
null,,confidence_buffer,999127,confidence_buffer,,null,,,,,,,,,,,,,,,,,
2339,,pt2_memorable_rating,1001467,New Haven,,52,,4,,,,,,,,,,,,,,,
null,,confidence_buffer,1001569,confidence_buffer,,null,,,,,,,,,,,,,,,,,
1600.6000000238419,,recognition_phase,1003170,New Haven,,49,,,,,old,1,1,,,,,,,,,,
null,,confidence_buffer,1003272,confidence_buffer,,null,,,,,,,,,,,,,,,,,
null,,thebreak,1003773,break,,null,,,,,,,,,,,,,,,,,
5984.899999976158,,realistic_rating,1009759,Dothan,,49,Dothan,1,,,,,,,,,,,,,,,
null,,confidence_buffer,1009861,confidence_buffer,,null,,,,,,,,,,,,,,,,,
3721.7000000476837,,pt2_unique_rating,1013584,Dothan,,51,,3,,,,,,,,,,,,,,,
null,,confidence_buffer,1013686,confidence_buffer,,null,,,,,,,,,,,,,,,,,
2606.5,,pt2_memorable_rating,1016293,Dothan,,50,,2,,,,,,,,,,,,,,,
null,,confidence_buffer,1016394,confidence_buffer,,null,,,,,,,,,,,,,,,,,
956.8999999761581,,recognition_phase,1017352,Dothan,,49,,,,,old,1,1,,,,,,,,,,
null,,confidence_buffer,1017453,confidence_buffer,,null,,,,,,,,,,,,,,,,,
null,,thebreak,1017956,break,,null,,,,,,,,,,,,,,,,,
1572.2000000476837,,realistic_rating,1019529,Syracuse,,53,Syracuse,5,,,,,,,,,,,,,,,
null,,confidence_buffer,1019630,confidence_buffer,,null,,,,,,,,,,,,,,,,,
3593.2000000476837,,pt2_unique_rating,1023224,Syracuse,,53,,5,,,,,,,,,,,,,,,
null,,confidence_buffer,1023326,confidence_buffer,,null,,,,,,,,,,,,,,,,,
2156.2999999523163,,pt2_memorable_rating,1025483,Syracuse,,53,,5,,,,,,,,,,,,,,,
null,,confidence_buffer,1025584,confidence_buffer,,null,,,,,,,,,,,,,,,,,
1663,,recognition_phase,1027248,Syracuse,,49,,,,,old,1,1,,,,,,,,,,
null,,confidence_buffer,1027350,confidence_buffer,,null,,,,,,,,,,,,,,,,,
null,,thebreak,1027852,break,,null,,,,,,,,,,,,,,,,,
4195,,realistic_rating,1032048,Newport News,,49,Newport News,1,,,,,,,,,,,,,,,
null,,confidence_buffer,1032150,confidence_buffer,,null,,,,,,,,,,,,,,,,,
3365.7000000476837,,pt2_unique_rating,1035516,Newport News,,52,,4,,,,,,,,,,,,,,,
null,,confidence_buffer,1035618,confidence_buffer,,null,,,,,,,,,,,,,,,,,
4095.0999999046326,,pt2_memorable_rating,1039714,Newport News,,52,,4,,,,,,,,,,,,,,,
null,,confidence_buffer,1039815,confidence_buffer,,null,,,,,,,,,,,,,,,,,
1357.8000000715256,,recognition_phase,1041174,Newport News,,52,,,,,new,1,1,,,,,,,,,,
null,,confidence_buffer,1041275,confidence_buffer,,null,,,,,,,,,,,,,,,,,
null,,thebreak,1041784,break,,null,,,,,,,,,,,,,,,,,
1986,,realistic_rating,1043774,Topeka,,53,Topeka,5,,,,,,,,,,,,,,,
null,,confidence_buffer,1043875,confidence_buffer,,null,,,,,,,,,,,,,,,,,
2579.600000023842,,pt2_unique_rating,1046456,Topeka,,52,,4,,,,,,,,,,,,,,,
null,,confidence_buffer,1046557,confidence_buffer,,null,,,,,,,,,,,,,,,,,
1095.1999999284744,,pt2_memorable_rating,1047653,Topeka,,53,,5,,,,,,,,,,,,,,,
null,,confidence_buffer,1047754,confidence_buffer,,null,,,,,,,,,,,,,,,,,
1094.5,,recognition_phase,1048849,Topeka,,52,,,,,new,1,1,,,,,,,,,,
null,,confidence_buffer,1048950,confidence_buffer,,null,,,,,,,,,,,,,,,,,
null,,thebreak,1049451,break,,null,,,,,,,,,,,,,,,,,
,,survey,1476248,survey-questions,,,,,,,,,,none,high,I was not doing anything else during this study.,I did not use any strategies other than fully reading instructions and prompts. I also just generally have a pretty good memory.,If I recognized the city but could not place what state or even country it was in I put slightly familiar. If I fully knew where it was in the world/had personally been there I said extremely familiar or whatever the adverb was.,Memorability kind of depended on uniqueness. ,My thought was pretty much just have I ever heard anything like this city name before? If i personally knew of multiple instances of it being used in different states or if it followed the pattern of -ville; -town or Fort-; or Las- it is not unique. Except for Hagerstown which is only a city in two states in America. ,Mostly; if the city name was one I knew or followed a similar pattern to general city names I found it realistic.,I have never participated in anything like this; but would happily do it again.,I found this entertaining 
