rt,responses,trial_type,time_elapsed,stimulus,button_pressed,key_press,name_trial,rating,probe,probe_accuracy,response,correct,accuracy,problems,smooth,distraction,strategies,familiar,memorable,unique,realistic,similar,comments
10157.099999999627,{worker_id:61528277afcb4906d01e0442},id_enter,10164,,,,,,,,,,,,,,,,,,,,
3412.2999999998137,,fullscreen,13589,fullscreen,0,,,,,,,,,,,,,,,,,,
72370,,intro_0,85964,instruct,,32,,,,,,,,,,,,,,,,,
8135,,intro_1,94102,instruct,,32,,,,,,,,,,,,,,,,,
5333.399999999907,,intro_2,99437,instruct,,32,,,,,,,,,,,,,,,,,
null,,instruct_dir_4,100942,instruct,,null,,,,,,,,,,,,,,,,,
null,,thebreak,101448,break,,null,,,,,,,,,,,,,,,,,
11345.299999999814,,familiar_rating,112796,Peoria,,53,Peoria,5,,,,,,,,,,,,,,,
null,,confidence_buffer,112904,confidence_buffer,,null,,,,,,,,,,,,,,,,,
3506.399999999907,,unique_rating,116413,Peoria,,52,,4,,,,,,,,,,,,,,,
null,,confidence_buffer,116517,confidence_buffer,,null,,,,,,,,,,,,,,,,,
2376.7000000001863,,memorable_rating,118896,Peoria,,53,,5,,,,,,,,,,,,,,,
null,,confidence_buffer,119000,confidence_buffer,,null,,,,,,,,,,,,,,,,,
null,,thebreak,119503,break,,null,,,,,,,,,,,,,,,,,
2333.399999999907,,familiar_rating,121839,Carson City,,53,Carson City,5,,,,,,,,,,,,,,,
null,,confidence_buffer,121943,confidence_buffer,,null,,,,,,,,,,,,,,,,,
1016.4000000003725,,unique_rating,122963,Carson City,,53,,5,,,,,,,,,,,,,,,
null,,confidence_buffer,123066,confidence_buffer,,null,,,,,,,,,,,,,,,,,
883.8999999999069,,memorable_rating,123952,Carson City,,53,,5,,,,,,,,,,,,,,,
null,,confidence_buffer,124055,confidence_buffer,,null,,,,,,,,,,,,,,,,,
null,,thebreak,124559,break,,null,,,,,,,,,,,,,,,,,
2020.6000000000931,,familiar_rating,126583,Marquette,,49,Marquette,1,,,,,,,,,,,,,,,
null,,confidence_buffer,126697,confidence_buffer,,null,,,,,,,,,,,,,,,,,
7742.700000000186,,unique_rating,134442,Marquette,,51,,3,,,,,,,,,,,,,,,
null,,confidence_buffer,134546,confidence_buffer,,null,,,,,,,,,,,,,,,,,
2083.5,,memorable_rating,136631,Marquette,,50,,2,,,,,,,,,,,,,,,
null,,confidence_buffer,136735,confidence_buffer,,null,,,,,,,,,,,,,,,,,
null,,thebreak,137238,break,,null,,,,,,,,,,,,,,,,,
1985.1000000000931,,familiar_rating,139226,Bozeman,,49,Bozeman,1,,,,,,,,,,,,,,,
null,,confidence_buffer,139331,confidence_buffer,,null,,,,,,,,,,,,,,,,,
754.8000000002794,,unique_rating,140089,Bozeman,,49,,1,,,,,,,,,,,,,,,
null,,confidence_buffer,140193,confidence_buffer,,null,,,,,,,,,,,,,,,,,
2013.6000000000931,,probe_rating,142210,probe_rating,,49,,,1,1,,,,,,,,,,,,,
null,,confidence_buffer,142315,confidence_buffer,,null,,,,,,,,,,,,,,,,,
5561.899999999907,,memorable_rating,147880,Bozeman,,49,,1,,,,,,,,,,,,,,,
null,,confidence_buffer,147982,confidence_buffer,,null,,,,,,,,,,,,,,,,,
null,,thebreak,148485,break,,null,,,,,,,,,,,,,,,,,
2540,,familiar_rating,151027,Burlington,,52,Burlington,4,,,,,,,,,,,,,,,
null,,confidence_buffer,151131,confidence_buffer,,null,,,,,,,,,,,,,,,,,
2173.399999999907,,unique_rating,153307,Burlington,,50,,2,,,,,,,,,,,,,,,
null,,confidence_buffer,153411,confidence_buffer,,null,,,,,,,,,,,,,,,,,
1251.8999999999069,,probe_rating,154666,probe_rating,,49,,,1,1,,,,,,,,,,,,,
null,,confidence_buffer,154770,confidence_buffer,,null,,,,,,,,,,,,,,,,,
2145.100000000093,,memorable_rating,156917,Burlington,,50,,2,,,,,,,,,,,,,,,
null,,confidence_buffer,157022,confidence_buffer,,null,,,,,,,,,,,,,,,,,
null,,thebreak,157540,break,,null,,,,,,,,,,,,,,,,,
2269.2999999998137,,familiar_rating,159812,Pueblo,,52,Pueblo,4,,,,,,,,,,,,,,,
null,,confidence_buffer,159915,confidence_buffer,,null,,,,,,,,,,,,,,,,,
2579.7000000001863,,unique_rating,162497,Pueblo,,50,,2,,,,,,,,,,,,,,,
null,,confidence_buffer,162615,confidence_buffer,,null,,,,,,,,,,,,,,,,,
1421.8999999999069,,memorable_rating,164040,Pueblo,,50,,2,,,,,,,,,,,,,,,
null,,confidence_buffer,164145,confidence_buffer,,null,,,,,,,,,,,,,,,,,
null,,thebreak,164649,break,,null,,,,,,,,,,,,,,,,,
2550.5999999996275,,familiar_rating,167204,Santa Monica,,53,Santa Monica,5,,,,,,,,,,,,,,,
null,,confidence_buffer,167307,confidence_buffer,,null,,,,,,,,,,,,,,,,,
1927.3000000002794,,unique_rating,169237,Santa Monica,,51,,3,,,,,,,,,,,,,,,
null,,confidence_buffer,169341,confidence_buffer,,null,,,,,,,,,,,,,,,,,
2888.100000000093,,memorable_rating,172232,Santa Monica,,53,,5,,,,,,,,,,,,,,,
null,,confidence_buffer,172336,confidence_buffer,,null,,,,,,,,,,,,,,,,,
null,,thebreak,172839,break,,null,,,,,,,,,,,,,,,,,
1164.5,,familiar_rating,174006,Montpelier,,53,Montpelier,5,,,,,,,,,,,,,,,
null,,confidence_buffer,174110,confidence_buffer,,null,,,,,,,,,,,,,,,,,
3014.7999999998137,,unique_rating,177128,Montpelier,,51,,3,,,,,,,,,,,,,,,
null,,confidence_buffer,177233,confidence_buffer,,null,,,,,,,,,,,,,,,,,
1611.8000000002794,,memorable_rating,178848,Montpelier,,52,,4,,,,,,,,,,,,,,,
null,,confidence_buffer,178951,confidence_buffer,,null,,,,,,,,,,,,,,,,,
null,,thebreak,179454,break,,null,,,,,,,,,,,,,,,,,
2034.7999999998137,,familiar_rating,181491,Topeka,,53,Topeka,5,,,,,,,,,,,,,,,
null,,confidence_buffer,181594,confidence_buffer,,null,,,,,,,,,,,,,,,,,
4382.600000000093,,unique_rating,185978,Topeka,,51,,3,,,,,,,,,,,,,,,
null,,confidence_buffer,186081,confidence_buffer,,null,,,,,,,,,,,,,,,,,
1208.2000000001863,,memorable_rating,187293,Topeka,,51,,3,,,,,,,,,,,,,,,
null,,confidence_buffer,187397,confidence_buffer,,null,,,,,,,,,,,,,,,,,
null,,thebreak,187900,break,,null,,,,,,,,,,,,,,,,,
2438.399999999907,,familiar_rating,190341,Las Cruces,,50,Las Cruces,2,,,,,,,,,,,,,,,
null,,confidence_buffer,190457,confidence_buffer,,null,,,,,,,,,,,,,,,,,
2442.5,,unique_rating,192902,Las Cruces,,52,,4,,,,,,,,,,,,,,,
null,,confidence_buffer,193006,confidence_buffer,,null,,,,,,,,,,,,,,,,,
4108.899999999907,,memorable_rating,197119,Las Cruces,,51,,3,,,,,,,,,,,,,,,
null,,confidence_buffer,197223,confidence_buffer,,null,,,,,,,,,,,,,,,,,
null,,thebreak,197726,break,,null,,,,,,,,,,,,,,,,,
1923.2000000001863,,familiar_rating,199652,Dothan,,50,Dothan,2,,,,,,,,,,,,,,,
null,,confidence_buffer,199756,confidence_buffer,,null,,,,,,,,,,,,,,,,,
1501.5,,unique_rating,201261,Dothan,,49,,1,,,,,,,,,,,,,,,
null,,confidence_buffer,201365,confidence_buffer,,null,,,,,,,,,,,,,,,,,
1976.2999999998137,,memorable_rating,203344,Dothan,,49,,1,,,,,,,,,,,,,,,
null,,confidence_buffer,203448,confidence_buffer,,null,,,,,,,,,,,,,,,,,
1963.3999999999069,,probe_rating,205414,probe_rating,,53,,,5,1,,,,,,,,,,,,,
null,,confidence_buffer,205518,confidence_buffer,,null,,,,,,,,,,,,,,,,,
null,,thebreak,206021,break,,null,,,,,,,,,,,,,,,,,
3553.7000000001863,,familiar_rating,209578,Abilene,,50,Abilene,2,,,,,,,,,,,,,,,
null,,confidence_buffer,209682,confidence_buffer,,null,,,,,,,,,,,,,,,,,
2118.5,,unique_rating,211802,Abilene,,52,,4,,,,,,,,,,,,,,,
null,,confidence_buffer,211905,confidence_buffer,,null,,,,,,,,,,,,,,,,,
4390.700000000186,,memorable_rating,216298,Abilene,,51,,3,,,,,,,,,,,,,,,
null,,confidence_buffer,216402,confidence_buffer,,null,,,,,,,,,,,,,,,,,
null,,thebreak,216917,break,,null,,,,,,,,,,,,,,,,,
5691,,familiar_rating,222609,Champaign,,50,Champaign,2,,,,,,,,,,,,,,,
null,,confidence_buffer,222712,confidence_buffer,,null,,,,,,,,,,,,,,,,,
1150.9000000003725,,unique_rating,223865,Champaign,,49,,1,,,,,,,,,,,,,,,
null,,confidence_buffer,223969,confidence_buffer,,null,,,,,,,,,,,,,,,,,
1075.5,,memorable_rating,225048,Champaign,,49,,1,,,,,,,,,,,,,,,
null,,confidence_buffer,225151,confidence_buffer,,null,,,,,,,,,,,,,,,,,
null,,thebreak,225654,break,,null,,,,,,,,,,,,,,,,,
1667.3999999999069,,familiar_rating,227324,Athens,,53,Athens,5,,,,,,,,,,,,,,,
null,,confidence_buffer,227428,confidence_buffer,,null,,,,,,,,,,,,,,,,,
1952.2000000001863,,unique_rating,229383,Athens,,51,,3,,,,,,,,,,,,,,,
null,,confidence_buffer,229487,confidence_buffer,,null,,,,,,,,,,,,,,,,,
1330.5,,memorable_rating,230820,Athens,,53,,5,,,,,,,,,,,,,,,
null,,confidence_buffer,230923,confidence_buffer,,null,,,,,,,,,,,,,,,,,
null,,thebreak,231439,break,,null,,,,,,,,,,,,,,,,,
5271.699999999721,,familiar_rating,236714,Fargo,,52,Fargo,4,,,,,,,,,,,,,,,
null,,confidence_buffer,236822,confidence_buffer,,null,,,,,,,,,,,,,,,,,
1859.8999999999069,,unique_rating,238684,Fargo,,50,,2,,,,,,,,,,,,,,,
null,,confidence_buffer,238786,confidence_buffer,,null,,,,,,,,,,,,,,,,,
2753.1999999997206,,memorable_rating,241541,Fargo,,51,,3,,,,,,,,,,,,,,,
null,,confidence_buffer,241644,confidence_buffer,,null,,,,,,,,,,,,,,,,,
null,,thebreak,242147,break,,null,,,,,,,,,,,,,,,,,
1540.7000000001863,,familiar_rating,243691,Reno,,53,Reno,5,,,,,,,,,,,,,,,
null,,confidence_buffer,243794,confidence_buffer,,null,,,,,,,,,,,,,,,,,
1409.8999999999069,,unique_rating,245206,Reno,,53,,5,,,,,,,,,,,,,,,
null,,confidence_buffer,245310,confidence_buffer,,null,,,,,,,,,,,,,,,,,
932.5,,memorable_rating,246245,Reno,,53,,5,,,,,,,,,,,,,,,
null,,confidence_buffer,246348,confidence_buffer,,null,,,,,,,,,,,,,,,,,
null,,thebreak,246857,break,,null,,,,,,,,,,,,,,,,,
1240.9000000003725,,familiar_rating,248100,Cambridge,,53,Cambridge,5,,,,,,,,,,,,,,,
null,,confidence_buffer,248204,confidence_buffer,,null,,,,,,,,,,,,,,,,,
1204.5,,probe_rating,249411,probe_rating,,53,,,5,1,,,,,,,,,,,,,
null,,confidence_buffer,249515,confidence_buffer,,null,,,,,,,,,,,,,,,,,
2998.2999999998137,,unique_rating,252514,Cambridge,,52,,4,,,,,,,,,,,,,,,
null,,confidence_buffer,252617,confidence_buffer,,null,,,,,,,,,,,,,,,,,
1174.2999999998137,,memorable_rating,253794,Cambridge,,53,,5,,,,,,,,,,,,,,,
null,,confidence_buffer,253898,confidence_buffer,,null,,,,,,,,,,,,,,,,,
null,,thebreak,254401,break,,null,,,,,,,,,,,,,,,,,
2079.899999999907,,familiar_rating,256483,Fort Wayne,,51,Fort Wayne,3,,,,,,,,,,,,,,,
null,,confidence_buffer,256589,confidence_buffer,,null,,,,,,,,,,,,,,,,,
2541.7000000001863,,unique_rating,259134,Fort Wayne,,50,,2,,,,,,,,,,,,,,,
null,,confidence_buffer,259237,confidence_buffer,,null,,,,,,,,,,,,,,,,,
1692.2000000001863,,memorable_rating,260932,Fort Wayne,,50,,2,,,,,,,,,,,,,,,
null,,confidence_buffer,261036,confidence_buffer,,null,,,,,,,,,,,,,,,,,
1043.0999999996275,,probe_rating,262082,probe_rating,,50,,,2,1,,,,,,,,,,,,,
null,,confidence_buffer,262185,confidence_buffer,,null,,,,,,,,,,,,,,,,,
null,,thebreak,262688,break,,null,,,,,,,,,,,,,,,,,
2937.600000000093,,familiar_rating,265629,Helena,,53,Helena,5,,,,,,,,,,,,,,,
null,,confidence_buffer,265733,confidence_buffer,,null,,,,,,,,,,,,,,,,,
2993.0999999996275,,unique_rating,268729,Helena,,52,,4,,,,,,,,,,,,,,,
null,,confidence_buffer,268832,confidence_buffer,,null,,,,,,,,,,,,,,,,,
23098.700000000186,,memorable_rating,291933,Helena,,53,,5,,,,,,,,,,,,,,,
null,,confidence_buffer,292036,confidence_buffer,,null,,,,,,,,,,,,,,,,,
null,,thebreak,292539,break,,null,,,,,,,,,,,,,,,,,
2388.7999999998137,,familiar_rating,294930,Dover,,53,Dover,5,,,,,,,,,,,,,,,
null,,confidence_buffer,295034,confidence_buffer,,null,,,,,,,,,,,,,,,,,
13045.19999999972,,unique_rating,308082,Dover,,49,,1,,,,,,,,,,,,,,,
null,,confidence_buffer,308186,confidence_buffer,,null,,,,,,,,,,,,,,,,,
1821.1000000000931,,memorable_rating,310010,Dover,,52,,4,,,,,,,,,,,,,,,
null,,confidence_buffer,310113,confidence_buffer,,null,,,,,,,,,,,,,,,,,
null,,thebreak,310616,break,,null,,,,,,,,,,,,,,,,,
1244.2999999998137,,familiar_rating,311863,Ann Arbor,,49,Ann Arbor,1,,,,,,,,,,,,,,,
null,,confidence_buffer,311976,confidence_buffer,,null,,,,,,,,,,,,,,,,,
2572.7000000001863,,unique_rating,314552,Ann Arbor,,50,,2,,,,,,,,,,,,,,,
null,,confidence_buffer,314656,confidence_buffer,,null,,,,,,,,,,,,,,,,,
1849.6999999997206,,memorable_rating,316507,Ann Arbor,,50,,2,,,,,,,,,,,,,,,
null,,confidence_buffer,316610,confidence_buffer,,null,,,,,,,,,,,,,,,,,
null,,thebreak,317113,break,,null,,,,,,,,,,,,,,,,,
2204.5,,familiar_rating,319321,Yakima,,49,Yakima,1,,,,,,,,,,,,,,,
null,,confidence_buffer,319425,confidence_buffer,,null,,,,,,,,,,,,,,,,,
1178.8000000002794,,unique_rating,320607,Yakima,,53,,5,,,,,,,,,,,,,,,
null,,confidence_buffer,320711,confidence_buffer,,null,,,,,,,,,,,,,,,,,
19859,,memorable_rating,340571,Yakima,,51,,3,,,,,,,,,,,,,,,
null,,confidence_buffer,340674,confidence_buffer,,null,,,,,,,,,,,,,,,,,
null,,thebreak,341177,break,,null,,,,,,,,,,,,,,,,,
2331.3000000002794,,familiar_rating,343512,Syracuse,,52,Syracuse,4,,,,,,,,,,,,,,,
null,,confidence_buffer,343615,confidence_buffer,,null,,,,,,,,,,,,,,,,,
4521.700000000186,,unique_rating,348139,Syracuse,,52,,4,,,,,,,,,,,,,,,
null,,confidence_buffer,348243,confidence_buffer,,null,,,,,,,,,,,,,,,,,
1126.5,,memorable_rating,349372,Syracuse,,51,,3,,,,,,,,,,,,,,,
null,,confidence_buffer,349474,confidence_buffer,,null,,,,,,,,,,,,,,,,,
null,,thebreak,349976,break,,null,,,,,,,,,,,,,,,,,
2034.0999999996275,,familiar_rating,352012,Dubuque,,50,Dubuque,2,,,,,,,,,,,,,,,
null,,confidence_buffer,352117,confidence_buffer,,null,,,,,,,,,,,,,,,,,
2164.399999999907,,unique_rating,354285,Dubuque,,52,,4,,,,,,,,,,,,,,,
null,,confidence_buffer,354389,confidence_buffer,,null,,,,,,,,,,,,,,,,,
2099.899999999907,,memorable_rating,356491,Dubuque,,50,,2,,,,,,,,,,,,,,,
null,,confidence_buffer,356594,confidence_buffer,,null,,,,,,,,,,,,,,,,,
null,,thebreak,357096,break,,null,,,,,,,,,,,,,,,,,
2084.100000000093,,familiar_rating,359183,Concord,,53,Concord,5,,,,,,,,,,,,,,,
null,,confidence_buffer,359298,confidence_buffer,,null,,,,,,,,,,,,,,,,,
3555.7000000001863,,unique_rating,362857,Concord,,52,,4,,,,,,,,,,,,,,,
null,,confidence_buffer,362960,confidence_buffer,,null,,,,,,,,,,,,,,,,,
2390.100000000093,,memorable_rating,365353,Concord,,50,,2,,,,,,,,,,,,,,,
null,,confidence_buffer,365457,confidence_buffer,,null,,,,,,,,,,,,,,,,,
null,,thebreak,365961,break,,null,,,,,,,,,,,,,,,,,
175673.19999999972,,intro_0,541637,instruct,,32,,,,,,,,,,,,,,,,,
116389.8999999999,,intro_1,658029,instruct,,32,,,,,,,,,,,,,,,,,
167181.2000000002,,intro_2,825213,instruct,,32,,,,,,,,,,,,,,,,,
null,,instruct_dir_4,826715,instruct,,null,,,,,,,,,,,,,,,,,
7372.699999999721,,realistic_rating,834091,Altoona,,50,Altoona,2,,,,,,,,,,,,,,,
null,,confidence_buffer,834195,confidence_buffer,,null,,,,,,,,,,,,,,,,,
3296.399999999907,,pt2_unique_rating,837494,Altoona,,52,,4,,,,,,,,,,,,,,,
null,,confidence_buffer,837597,confidence_buffer,,null,,,,,,,,,,,,,,,,,
3171.100000000093,,pt2_memorable_rating,840770,Altoona,,51,,3,,,,,,,,,,,,,,,
null,,confidence_buffer,840873,confidence_buffer,,null,,,,,,,,,,,,,,,,,
3833.899999999907,,recognition_phase,844709,Altoona,,51,,,,,new,1,1,,,,,,,,,,
null,,confidence_buffer,844811,confidence_buffer,,null,,,,,,,,,,,,,,,,,
null,,thebreak,845313,break,,null,,,,,,,,,,,,,,,,,
3851,,realistic_rating,849166,Pasadena,,53,Pasadena,5,,,,,,,,,,,,,,,
null,,confidence_buffer,849273,confidence_buffer,,null,,,,,,,,,,,,,,,,,
1462.1000000000931,,pt2_unique_rating,850736,Pasadena,,52,,4,,,,,,,,,,,,,,,
null,,confidence_buffer,850838,confidence_buffer,,null,,,,,,,,,,,,,,,,,
1541.5,,pt2_memorable_rating,852381,Pasadena,,52,,4,,,,,,,,,,,,,,,
null,,confidence_buffer,852483,confidence_buffer,,null,,,,,,,,,,,,,,,,,
3658.7999999998137,,recognition_phase,856144,Pasadena,,52,,,,,new,1,1,,,,,,,,,,
null,,confidence_buffer,856249,confidence_buffer,,null,,,,,,,,,,,,,,,,,
null,,thebreak,856751,break,,null,,,,,,,,,,,,,,,,,
3115.5999999996275,,realistic_rating,859869,Boise,,53,Boise,5,,,,,,,,,,,,,,,
null,,confidence_buffer,859972,confidence_buffer,,null,,,,,,,,,,,,,,,,,
4017,,pt2_unique_rating,863990,Boise,,52,,4,,,,,,,,,,,,,,,
null,,confidence_buffer,864095,confidence_buffer,,null,,,,,,,,,,,,,,,,,
1438.4000000003725,,pt2_memorable_rating,865537,Boise,,52,,4,,,,,,,,,,,,,,,
null,,confidence_buffer,865642,confidence_buffer,,null,,,,,,,,,,,,,,,,,
554.2999999998137,,recognition_phase,866199,Boise,,52,,,,,new,1,1,,,,,,,,,,
null,,confidence_buffer,866303,confidence_buffer,,null,,,,,,,,,,,,,,,,,
null,,thebreak,866806,break,,null,,,,,,,,,,,,,,,,,
7080.4000000003725,,realistic_rating,873888,Dover,,53,Dover,5,,,,,,,,,,,,,,,
null,,confidence_buffer,873991,confidence_buffer,,null,,,,,,,,,,,,,,,,,
1886.2999999998137,,probe_rating,875879,probe_rating,,51,,,3,1,,,,,,,,,,,,,
null,,confidence_buffer,875982,confidence_buffer,,null,,,,,,,,,,,,,,,,,
2289.2000000001863,,pt2_unique_rating,878273,Dover,,50,,2,,,,,,,,,,,,,,,
null,,confidence_buffer,878377,confidence_buffer,,null,,,,,,,,,,,,,,,,,
1691.6000000000931,,pt2_memorable_rating,880071,Dover,,51,,3,,,,,,,,,,,,,,,
null,,confidence_buffer,880175,confidence_buffer,,null,,,,,,,,,,,,,,,,,
2305.5,,recognition_phase,882483,Dover,,49,,,,,old,1,1,,,,,,,,,,
null,,confidence_buffer,882585,confidence_buffer,,null,,,,,,,,,,,,,,,,,
null,,thebreak,883088,break,,null,,,,,,,,,,,,,,,,,
5468.700000000186,,realistic_rating,888559,Berkeley,,53,Berkeley,5,,,,,,,,,,,,,,,
null,,confidence_buffer,888663,confidence_buffer,,null,,,,,,,,,,,,,,,,,
1766.6000000000931,,pt2_unique_rating,890433,Berkeley,,51,,3,,,,,,,,,,,,,,,
null,,confidence_buffer,890549,confidence_buffer,,null,,,,,,,,,,,,,,,,,
1156.2000000001863,,pt2_memorable_rating,891707,Berkeley,,52,,4,,,,,,,,,,,,,,,
null,,confidence_buffer,891818,confidence_buffer,,null,,,,,,,,,,,,,,,,,
2346.1999999997206,,recognition_phase,894167,Berkeley,,52,,,,,new,1,1,,,,,,,,,,
null,,confidence_buffer,894270,confidence_buffer,,null,,,,,,,,,,,,,,,,,
null,,thebreak,894772,break,,null,,,,,,,,,,,,,,,,,
7349.100000000093,,realistic_rating,902123,Olympia,,53,Olympia,5,,,,,,,,,,,,,,,
null,,confidence_buffer,902228,confidence_buffer,,null,,,,,,,,,,,,,,,,,
1591.6999999997206,,pt2_unique_rating,903823,Olympia,,51,,3,,,,,,,,,,,,,,,
null,,confidence_buffer,903933,confidence_buffer,,null,,,,,,,,,,,,,,,,,
1009.2999999998137,,pt2_memorable_rating,904945,Olympia,,51,,3,,,,,,,,,,,,,,,
null,,confidence_buffer,905063,confidence_buffer,,null,,,,,,,,,,,,,,,,,
1890.5,,recognition_phase,906957,Olympia,,52,,,,,new,1,1,,,,,,,,,,
null,,confidence_buffer,907063,confidence_buffer,,null,,,,,,,,,,,,,,,,,
null,,thebreak,907568,break,,null,,,,,,,,,,,,,,,,,
2138.899999999907,,realistic_rating,909710,Cambridge,,53,Cambridge,5,,,,,,,,,,,,,,,
null,,confidence_buffer,909817,confidence_buffer,,null,,,,,,,,,,,,,,,,,
1838.1000000000931,,pt2_unique_rating,911659,Cambridge,,51,,3,,,,,,,,,,,,,,,
null,,confidence_buffer,911774,confidence_buffer,,null,,,,,,,,,,,,,,,,,
1241.2999999998137,,pt2_memorable_rating,913018,Cambridge,,51,,3,,,,,,,,,,,,,,,
null,,confidence_buffer,913122,confidence_buffer,,null,,,,,,,,,,,,,,,,,
2400.100000000093,,recognition_phase,915524,Cambridge,,49,,,,,old,1,1,,,,,,,,,,
null,,confidence_buffer,915632,confidence_buffer,,null,,,,,,,,,,,,,,,,,
null,,thebreak,916137,break,,null,,,,,,,,,,,,,,,,,
2950.2000000001863,,realistic_rating,919090,Ann Arbor,,51,Ann Arbor,3,,,,,,,,,,,,,,,
null,,confidence_buffer,919206,confidence_buffer,,null,,,,,,,,,,,,,,,,,
2330.5,,pt2_unique_rating,921538,Ann Arbor,,50,,2,,,,,,,,,,,,,,,
null,,confidence_buffer,921650,confidence_buffer,,null,,,,,,,,,,,,,,,,,
1587.7999999998137,,pt2_memorable_rating,923241,Ann Arbor,,51,,3,,,,,,,,,,,,,,,
null,,confidence_buffer,923356,confidence_buffer,,null,,,,,,,,,,,,,,,,,
2091.5,,recognition_phase,925450,Ann Arbor,,49,,,,,old,1,1,,,,,,,,,,
null,,confidence_buffer,925568,confidence_buffer,,null,,,,,,,,,,,,,,,,,
null,,thebreak,926073,break,,null,,,,,,,,,,,,,,,,,
1831.7999999998137,,realistic_rating,927907,Carson City,,53,Carson City,5,,,,,,,,,,,,,,,
null,,confidence_buffer,928011,confidence_buffer,,null,,,,,,,,,,,,,,,,,
2681,,pt2_unique_rating,930694,Carson City,,51,,3,,,,,,,,,,,,,,,
null,,confidence_buffer,930797,confidence_buffer,,null,,,,,,,,,,,,,,,,,
1222.1999999997206,,pt2_memorable_rating,932022,Carson City,,52,,4,,,,,,,,,,,,,,,
null,,confidence_buffer,932131,confidence_buffer,,null,,,,,,,,,,,,,,,,,
1568,,recognition_phase,933702,Carson City,,49,,,,,old,1,1,,,,,,,,,,
null,,confidence_buffer,933816,confidence_buffer,,null,,,,,,,,,,,,,,,,,
null,,thebreak,934325,break,,null,,,,,,,,,,,,,,,,,
2046.8999999999069,,realistic_rating,936373,Youngstown,,50,Youngstown,2,,,,,,,,,,,,,,,
null,,confidence_buffer,936490,confidence_buffer,,null,,,,,,,,,,,,,,,,,
1645.5,,pt2_unique_rating,938138,Youngstown,,52,,4,,,,,,,,,,,,,,,
null,,confidence_buffer,938250,confidence_buffer,,null,,,,,,,,,,,,,,,,,
1662.4000000003725,,pt2_memorable_rating,939915,Youngstown,,51,,3,,,,,,,,,,,,,,,
null,,confidence_buffer,940028,confidence_buffer,,null,,,,,,,,,,,,,,,,,
1949.8999999999069,,recognition_phase,941980,Youngstown,,52,,,,,new,1,1,,,,,,,,,,
null,,confidence_buffer,942091,confidence_buffer,,null,,,,,,,,,,,,,,,,,
null,,thebreak,942598,break,,null,,,,,,,,,,,,,,,,,
2437.1999999997206,,realistic_rating,945038,Newport News,,49,Newport News,1,,,,,,,,,,,,,,,
null,,confidence_buffer,945156,confidence_buffer,,null,,,,,,,,,,,,,,,,,
1486.7999999998137,,probe_rating,946646,probe_rating,,50,,,2,1,,,,,,,,,,,,,
null,,confidence_buffer,946760,confidence_buffer,,null,,,,,,,,,,,,,,,,,
6782.399999999907,,pt2_unique_rating,953545,Newport News,,51,,3,,,,,,,,,,,,,,,
null,,confidence_buffer,953655,confidence_buffer,,null,,,,,,,,,,,,,,,,,
1523,,pt2_memorable_rating,955181,Newport News,,51,,3,,,,,,,,,,,,,,,
null,,confidence_buffer,955290,confidence_buffer,,null,,,,,,,,,,,,,,,,,
2672.100000000093,,recognition_phase,957965,Newport News,,52,,,,,new,1,1,,,,,,,,,,
null,,confidence_buffer,958073,confidence_buffer,,null,,,,,,,,,,,,,,,,,
null,,thebreak,958585,break,,null,,,,,,,,,,,,,,,,,
1932.3000000002794,,realistic_rating,960519,Decatur,,51,Decatur,3,,,,,,,,,,,,,,,
null,,confidence_buffer,960628,confidence_buffer,,null,,,,,,,,,,,,,,,,,
1384.5999999996275,,pt2_unique_rating,962015,Decatur,,50,,2,,,,,,,,,,,,,,,
null,,confidence_buffer,962122,confidence_buffer,,null,,,,,,,,,,,,,,,,,
1393.7000000001863,,pt2_memorable_rating,963517,Decatur,,50,,2,,,,,,,,,,,,,,,
null,,confidence_buffer,963624,confidence_buffer,,null,,,,,,,,,,,,,,,,,
2757,,recognition_phase,966383,Decatur,,52,,,,,new,1,1,,,,,,,,,,
null,,confidence_buffer,966489,confidence_buffer,,null,,,,,,,,,,,,,,,,,
null,,thebreak,966996,break,,null,,,,,,,,,,,,,,,,,
3597.399999999907,,realistic_rating,970596,Yakima,,51,Yakima,3,,,,,,,,,,,,,,,
null,,confidence_buffer,970711,confidence_buffer,,null,,,,,,,,,,,,,,,,,
8478.600000000093,,pt2_unique_rating,979192,Yakima,,52,,4,,,,,,,,,,,,,,,
null,,confidence_buffer,979294,confidence_buffer,,null,,,,,,,,,,,,,,,,,
1415.6000000000931,,pt2_memorable_rating,980712,Yakima,,52,,4,,,,,,,,,,,,,,,
null,,confidence_buffer,980816,confidence_buffer,,null,,,,,,,,,,,,,,,,,
3563.100000000093,,recognition_phase,984382,Yakima,,49,,,,,old,1,1,,,,,,,,,,
null,,confidence_buffer,984494,confidence_buffer,,null,,,,,,,,,,,,,,,,,
null,,thebreak,985004,break,,null,,,,,,,,,,,,,,,,,
1527.1000000000931,,realistic_rating,986534,Helena,,53,Helena,5,,,,,,,,,,,,,,,
null,,confidence_buffer,986639,confidence_buffer,,null,,,,,,,,,,,,,,,,,
1870.7999999998137,,pt2_unique_rating,988512,Helena,,52,,4,,,,,,,,,,,,,,,
null,,confidence_buffer,988619,confidence_buffer,,null,,,,,,,,,,,,,,,,,
6213.399999999907,,pt2_memorable_rating,994834,Helena,,52,,4,,,,,,,,,,,,,,,
null,,confidence_buffer,994947,confidence_buffer,,null,,,,,,,,,,,,,,,,,
1778.9000000003725,,recognition_phase,996728,Helena,,49,,,,,old,1,1,,,,,,,,,,
null,,confidence_buffer,996835,confidence_buffer,,null,,,,,,,,,,,,,,,,,
null,,thebreak,997340,break,,null,,,,,,,,,,,,,,,,,
2450.7999999998137,,realistic_rating,999793,New Haven,,53,New Haven,5,,,,,,,,,,,,,,,
null,,confidence_buffer,999901,confidence_buffer,,null,,,,,,,,,,,,,,,,,
1667.5999999996275,,pt2_unique_rating,1001570,New Haven,,52,,4,,,,,,,,,,,,,,,
null,,confidence_buffer,1001678,confidence_buffer,,null,,,,,,,,,,,,,,,,,
1412.3000000002794,,pt2_memorable_rating,1003093,New Haven,,52,,4,,,,,,,,,,,,,,,
null,,confidence_buffer,1003198,confidence_buffer,,null,,,,,,,,,,,,,,,,,
1932.4000000003725,,recognition_phase,1005132,New Haven,,52,,,,,new,1,1,,,,,,,,,,
null,,confidence_buffer,1005248,confidence_buffer,,null,,,,,,,,,,,,,,,,,
null,,thebreak,1005763,break,,null,,,,,,,,,,,,,,,,,
3008.6999999997206,,realistic_rating,1008774,Peoria,,52,Peoria,4,,,,,,,,,,,,,,,
null,,confidence_buffer,1008881,confidence_buffer,,null,,,,,,,,,,,,,,,,,
3626.899999999907,,pt2_unique_rating,1012509,Peoria,,52,,4,,,,,,,,,,,,,,,
null,,confidence_buffer,1012615,confidence_buffer,,null,,,,,,,,,,,,,,,,,
4576.299999999814,,pt2_memorable_rating,1017193,Peoria,,53,,5,,,,,,,,,,,,,,,
null,,confidence_buffer,1017301,confidence_buffer,,null,,,,,,,,,,,,,,,,,
1326.7999999998137,,recognition_phase,1018629,Peoria,,49,,,,,old,1,1,,,,,,,,,,
null,,confidence_buffer,1018743,confidence_buffer,,null,,,,,,,,,,,,,,,,,
null,,thebreak,1019252,break,,null,,,,,,,,,,,,,,,,,
2257,,realistic_rating,1021511,Pueblo,,52,Pueblo,4,,,,,,,,,,,,,,,
null,,confidence_buffer,1021621,confidence_buffer,,null,,,,,,,,,,,,,,,,,
6843.799999999814,,pt2_unique_rating,1028467,Pueblo,,50,,2,,,,,,,,,,,,,,,
null,,confidence_buffer,1028573,confidence_buffer,,null,,,,,,,,,,,,,,,,,
1835.1000000000931,,pt2_memorable_rating,1030411,Pueblo,,50,,2,,,,,,,,,,,,,,,
null,,confidence_buffer,1030516,confidence_buffer,,null,,,,,,,,,,,,,,,,,
1783.3999999999069,,recognition_phase,1032302,Pueblo,,49,,,,,old,1,1,,,,,,,,,,
null,,confidence_buffer,1032411,confidence_buffer,,null,,,,,,,,,,,,,,,,,
null,,thebreak,1032918,break,,null,,,,,,,,,,,,,,,,,
2042.6000000000931,,realistic_rating,1034963,Burlington,,52,Burlington,4,,,,,,,,,,,,,,,
null,,confidence_buffer,1035070,confidence_buffer,,null,,,,,,,,,,,,,,,,,
1465.6000000000931,,pt2_unique_rating,1036537,Burlington,,51,,3,,,,,,,,,,,,,,,
null,,confidence_buffer,1036643,confidence_buffer,,null,,,,,,,,,,,,,,,,,
827.6000000000931,,pt2_memorable_rating,1037473,Burlington,,51,,3,,,,,,,,,,,,,,,
null,,confidence_buffer,1037581,confidence_buffer,,null,,,,,,,,,,,,,,,,,
992.5,,recognition_phase,1038576,Burlington,,49,,,,,old,1,1,,,,,,,,,,
null,,confidence_buffer,1038685,confidence_buffer,,null,,,,,,,,,,,,,,,,,
null,,thebreak,1039194,break,,null,,,,,,,,,,,,,,,,,
3111.6999999997206,,realistic_rating,1042308,Hagerstown,,51,Hagerstown,3,,,,,,,,,,,,,,,
null,,confidence_buffer,1042425,confidence_buffer,,null,,,,,,,,,,,,,,,,,
2603,,pt2_unique_rating,1045030,Hagerstown,,52,,4,,,,,,,,,,,,,,,
null,,confidence_buffer,1045140,confidence_buffer,,null,,,,,,,,,,,,,,,,,
1722.2999999998137,,pt2_memorable_rating,1046865,Hagerstown,,51,,3,,,,,,,,,,,,,,,
null,,confidence_buffer,1046975,confidence_buffer,,null,,,,,,,,,,,,,,,,,
1945.2000000001863,,recognition_phase,1048923,Hagerstown,,52,,,,,new,1,1,,,,,,,,,,
null,,confidence_buffer,1049031,confidence_buffer,,null,,,,,,,,,,,,,,,,,
null,,thebreak,1049544,break,,null,,,,,,,,,,,,,,,,,
4654.200000000186,,realistic_rating,1054200,Palo Alto,,52,Palo Alto,4,,,,,,,,,,,,,,,
null,,confidence_buffer,1054306,confidence_buffer,,null,,,,,,,,,,,,,,,,,
2687.5,,pt2_unique_rating,1056995,Palo Alto,,51,,3,,,,,,,,,,,,,,,
null,,confidence_buffer,1057099,confidence_buffer,,null,,,,,,,,,,,,,,,,,
1533.3000000002794,,pt2_memorable_rating,1058634,Palo Alto,,52,,4,,,,,,,,,,,,,,,
null,,confidence_buffer,1058739,confidence_buffer,,null,,,,,,,,,,,,,,,,,
2277.600000000093,,recognition_phase,1061018,Palo Alto,,52,,,,,new,1,1,,,,,,,,,,
null,,confidence_buffer,1061127,confidence_buffer,,null,,,,,,,,,,,,,,,,,
null,,thebreak,1061638,break,,null,,,,,,,,,,,,,,,,,
1753.1999999997206,,realistic_rating,1063393,Salem,,53,Salem,5,,,,,,,,,,,,,,,
null,,confidence_buffer,1063502,confidence_buffer,,null,,,,,,,,,,,,,,,,,
3389.100000000093,,pt2_unique_rating,1066893,Salem,,50,,2,,,,,,,,,,,,,,,
null,,confidence_buffer,1066999,confidence_buffer,,null,,,,,,,,,,,,,,,,,
4238.800000000279,,pt2_memorable_rating,1071240,Salem,,50,,2,,,,,,,,,,,,,,,
null,,confidence_buffer,1071347,confidence_buffer,,null,,,,,,,,,,,,,,,,,
2206.9000000003725,,recognition_phase,1073556,Salem,,49,,,,,old,0,0.9523809523809523,,,,,,,,,,
null,,confidence_buffer,1073670,confidence_buffer,,null,,,,,,,,,,,,,,,,,
null,,thebreak,1074175,break,,null,,,,,,,,,,,,,,,,,
2045.8999999999069,,realistic_rating,1076222,Tallahassee,,53,Tallahassee,5,,,,,,,,,,,,,,,
null,,confidence_buffer,1076332,confidence_buffer,,null,,,,,,,,,,,,,,,,,
17513.899999999907,,pt2_unique_rating,1093848,Tallahassee,,51,,3,,,,,,,,,,,,,,,
null,,confidence_buffer,1093955,confidence_buffer,,null,,,,,,,,,,,,,,,,,
7047.100000000093,,pt2_memorable_rating,1101004,Tallahassee,,53,,5,,,,,,,,,,,,,,,
null,,confidence_buffer,1101106,confidence_buffer,,null,,,,,,,,,,,,,,,,,
2291.2000000001863,,recognition_phase,1103399,Tallahassee,,52,,,,,new,1,0.9545454545454546,,,,,,,,,,
null,,confidence_buffer,1103504,confidence_buffer,,null,,,,,,,,,,,,,,,,,
null,,thebreak,1104011,break,,null,,,,,,,,,,,,,,,,,
39385.5,,realistic_rating,1143399,Bellingham,,51,Bellingham,3,,,,,,,,,,,,,,,
null,,confidence_buffer,1143503,confidence_buffer,,null,,,,,,,,,,,,,,,,,
58724.10000000009,,pt2_unique_rating,1202229,Bellingham,,52,,4,,,,,,,,,,,,,,,
null,,confidence_buffer,1202338,confidence_buffer,,null,,,,,,,,,,,,,,,,,
4039.2000000001863,,pt2_memorable_rating,1206380,Bellingham,,52,,4,,,,,,,,,,,,,,,
null,,confidence_buffer,1206493,confidence_buffer,,null,,,,,,,,,,,,,,,,,
2517.7000000001863,,recognition_phase,1209012,Bellingham,,52,,,,,new,1,0.9565217391304348,,,,,,,,,,
null,,confidence_buffer,1209124,confidence_buffer,,null,,,,,,,,,,,,,,,,,
null,,thebreak,1209634,break,,null,,,,,,,,,,,,,,,,,
10791.399999999907,,realistic_rating,1220427,Stamford,,49,Stamford,1,,,,,,,,,,,,,,,
null,,confidence_buffer,1220536,confidence_buffer,,null,,,,,,,,,,,,,,,,,
2375,,pt2_unique_rating,1222913,Stamford,,50,,2,,,,,,,,,,,,,,,
null,,confidence_buffer,1223024,confidence_buffer,,null,,,,,,,,,,,,,,,,,
1385.2999999998137,,pt2_memorable_rating,1224412,Stamford,,50,,2,,,,,,,,,,,,,,,
null,,confidence_buffer,1224532,confidence_buffer,,null,,,,,,,,,,,,,,,,,
1566.7999999998137,,recognition_phase,1226101,Stamford,,52,,,,,new,1,0.9583333333333334,,,,,,,,,,
null,,confidence_buffer,1226206,confidence_buffer,,null,,,,,,,,,,,,,,,,,
null,,thebreak,1226713,break,,null,,,,,,,,,,,,,,,,,
2315.9000000003725,,realistic_rating,1229033,Abilene,,51,Abilene,3,,,,,,,,,,,,,,,
null,,confidence_buffer,1229144,confidence_buffer,,null,,,,,,,,,,,,,,,,,
9425.100000000093,,pt2_unique_rating,1238573,Abilene,,52,,4,,,,,,,,,,,,,,,
null,,confidence_buffer,1238678,confidence_buffer,,null,,,,,,,,,,,,,,,,,
2483.8000000002794,,pt2_memorable_rating,1241164,Abilene,,51,,3,,,,,,,,,,,,,,,
null,,confidence_buffer,1241275,confidence_buffer,,null,,,,,,,,,,,,,,,,,
1893.2999999998137,,recognition_phase,1243171,Abilene,,52,,,,,new,0,0.92,,,,,,,,,,
null,,confidence_buffer,1243279,confidence_buffer,,null,,,,,,,,,,,,,,,,,
null,,thebreak,1243789,break,,null,,,,,,,,,,,,,,,,,
1661.8000000002794,,realistic_rating,1245453,Norfolk,,53,Norfolk,5,,,,,,,,,,,,,,,
null,,confidence_buffer,1245573,confidence_buffer,,null,,,,,,,,,,,,,,,,,
1639.6000000000931,,pt2_unique_rating,1247216,Norfolk,,51,,3,,,,,,,,,,,,,,,
null,,confidence_buffer,1247332,confidence_buffer,,null,,,,,,,,,,,,,,,,,
2085.8000000002794,,pt2_memorable_rating,1249421,Norfolk,,50,,2,,,,,,,,,,,,,,,
null,,confidence_buffer,1249530,confidence_buffer,,null,,,,,,,,,,,,,,,,,
1802.8000000002794,,recognition_phase,1251335,Norfolk,,52,,,,,new,1,0.9230769230769231,,,,,,,,,,
null,,confidence_buffer,1251454,confidence_buffer,,null,,,,,,,,,,,,,,,,,
null,,thebreak,1251957,break,,null,,,,,,,,,,,,,,,,,
2167.5,,realistic_rating,1254128,Toledo,,53,Toledo,5,,,,,,,,,,,,,,,
null,,confidence_buffer,1254237,confidence_buffer,,null,,,,,,,,,,,,,,,,,
5624.600000000093,,pt2_unique_rating,1259865,Toledo,,51,,3,,,,,,,,,,,,,,,
null,,confidence_buffer,1259972,confidence_buffer,,null,,,,,,,,,,,,,,,,,
948.7999999998137,,pt2_memorable_rating,1260923,Toledo,,53,,5,,,,,,,,,,,,,,,
null,,confidence_buffer,1261030,confidence_buffer,,null,,,,,,,,,,,,,,,,,
1928.7000000001863,,recognition_phase,1262963,Toledo,,52,,,,,new,1,0.9259259259259259,,,,,,,,,,
null,,confidence_buffer,1263072,confidence_buffer,,null,,,,,,,,,,,,,,,,,
null,,thebreak,1263576,break,,null,,,,,,,,,,,,,,,,,
1428.8999999999069,,realistic_rating,1265008,Santa Monica,,53,Santa Monica,5,,,,,,,,,,,,,,,
null,,confidence_buffer,1265120,confidence_buffer,,null,,,,,,,,,,,,,,,,,
2001.1999999997206,,pt2_unique_rating,1267124,Santa Monica,,50,,2,,,,,,,,,,,,,,,
null,,confidence_buffer,1267233,confidence_buffer,,null,,,,,,,,,,,,,,,,,
945,,pt2_memorable_rating,1268182,Santa Monica,,51,,3,,,,,,,,,,,,,,,
null,,confidence_buffer,1268295,confidence_buffer,,null,,,,,,,,,,,,,,,,,
1685.2999999998137,,recognition_phase,1269983,Santa Monica,,49,,,,,old,1,0.9285714285714286,,,,,,,,,,
null,,confidence_buffer,1270093,confidence_buffer,,null,,,,,,,,,,,,,,,,,
null,,thebreak,1270609,break,,null,,,,,,,,,,,,,,,,,
1948.1999999997206,,realistic_rating,1272560,Dubuque,,53,Dubuque,5,,,,,,,,,,,,,,,
null,,confidence_buffer,1272671,confidence_buffer,,null,,,,,,,,,,,,,,,,,
1744.5,,pt2_unique_rating,1274418,Dubuque,,51,,3,,,,,,,,,,,,,,,
null,,confidence_buffer,1274523,confidence_buffer,,null,,,,,,,,,,,,,,,,,
884.0999999996275,,pt2_memorable_rating,1275409,Dubuque,,50,,2,,,,,,,,,,,,,,,
null,,confidence_buffer,1275516,confidence_buffer,,null,,,,,,,,,,,,,,,,,
1701,,probe_rating,1277220,probe_rating,,52,,,4,1,,,,,,,,,,,,,
null,,confidence_buffer,1277334,confidence_buffer,,null,,,,,,,,,,,,,,,,,
1100.6999999997206,,recognition_phase,1278437,Dubuque,,49,,,,,old,1,0.9310344827586207,,,,,,,,,,
null,,confidence_buffer,1278550,confidence_buffer,,null,,,,,,,,,,,,,,,,,
null,,thebreak,1279056,break,,null,,,,,,,,,,,,,,,,,
1379.4000000003725,,realistic_rating,1280438,Frankfort,,53,Frankfort,5,,,,,,,,,,,,,,,
null,,confidence_buffer,1280547,confidence_buffer,,null,,,,,,,,,,,,,,,,,
1749.1999999997206,,pt2_unique_rating,1282299,Frankfort,,51,,3,,,,,,,,,,,,,,,
null,,confidence_buffer,1282411,confidence_buffer,,null,,,,,,,,,,,,,,,,,
1199.5,,pt2_memorable_rating,1283612,Frankfort,,52,,4,,,,,,,,,,,,,,,
null,,confidence_buffer,1283724,confidence_buffer,,null,,,,,,,,,,,,,,,,,
2342.7000000001863,,recognition_phase,1286069,Frankfort,,52,,,,,new,1,0.9333333333333333,,,,,,,,,,
null,,confidence_buffer,1286181,confidence_buffer,,null,,,,,,,,,,,,,,,,,
null,,thebreak,1286685,break,,null,,,,,,,,,,,,,,,,,
2395.100000000093,,realistic_rating,1289083,Bozeman,,52,Bozeman,4,,,,,,,,,,,,,,,
null,,confidence_buffer,1289193,confidence_buffer,,null,,,,,,,,,,,,,,,,,
2003.6999999997206,,pt2_unique_rating,1291199,Bozeman,,51,,3,,,,,,,,,,,,,,,
null,,confidence_buffer,1291313,confidence_buffer,,null,,,,,,,,,,,,,,,,,
1724.8999999999069,,pt2_memorable_rating,1293040,Bozeman,,50,,2,,,,,,,,,,,,,,,
null,,confidence_buffer,1293156,confidence_buffer,,null,,,,,,,,,,,,,,,,,
1403.6000000000931,,recognition_phase,1294562,Bozeman,,49,,,,,old,1,0.9354838709677419,,,,,,,,,,
null,,confidence_buffer,1294667,confidence_buffer,,null,,,,,,,,,,,,,,,,,
null,,thebreak,1295177,break,,null,,,,,,,,,,,,,,,,,
3020.899999999907,,realistic_rating,1298201,Dothan,,51,Dothan,3,,,,,,,,,,,,,,,
null,,confidence_buffer,1298308,confidence_buffer,,null,,,,,,,,,,,,,,,,,
709.7999999998137,,pt2_unique_rating,1299021,Dothan,,52,,4,,,,,,,,,,,,,,,
null,,confidence_buffer,1299128,confidence_buffer,,null,,,,,,,,,,,,,,,,,
1904.8999999999069,,pt2_memorable_rating,1301036,Dothan,,50,,2,,,,,,,,,,,,,,,
null,,confidence_buffer,1301139,confidence_buffer,,null,,,,,,,,,,,,,,,,,
2560.7999999998137,,recognition_phase,1303703,Dothan,,52,,,,,new,0,0.90625,,,,,,,,,,
null,,confidence_buffer,1303816,confidence_buffer,,null,,,,,,,,,,,,,,,,,
null,,thebreak,1304320,break,,null,,,,,,,,,,,,,,,,,
1222.1000000000931,,realistic_rating,1305546,Rock Springs,,53,Rock Springs,5,,,,,,,,,,,,,,,
null,,confidence_buffer,1305650,confidence_buffer,,null,,,,,,,,,,,,,,,,,
1888.9000000003725,,pt2_unique_rating,1307542,Rock Springs,,52,,4,,,,,,,,,,,,,,,
null,,confidence_buffer,1307649,confidence_buffer,,null,,,,,,,,,,,,,,,,,
2418.7000000001863,,pt2_memorable_rating,1310070,Rock Springs,,51,,3,,,,,,,,,,,,,,,
null,,confidence_buffer,1310178,confidence_buffer,,null,,,,,,,,,,,,,,,,,
1900.7999999998137,,recognition_phase,1312082,Rock Springs,,52,,,,,new,1,0.9090909090909091,,,,,,,,,,
null,,confidence_buffer,1312195,confidence_buffer,,null,,,,,,,,,,,,,,,,,
null,,thebreak,1312706,break,,null,,,,,,,,,,,,,,,,,
2897.7999999998137,,realistic_rating,1315606,Marquette,,52,Marquette,4,,,,,,,,,,,,,,,
null,,confidence_buffer,1315717,confidence_buffer,,null,,,,,,,,,,,,,,,,,
1466.1000000000931,,pt2_unique_rating,1317188,Marquette,,51,,3,,,,,,,,,,,,,,,
null,,confidence_buffer,1317296,confidence_buffer,,null,,,,,,,,,,,,,,,,,
1031.6000000000931,,pt2_memorable_rating,1318329,Marquette,,51,,3,,,,,,,,,,,,,,,
null,,confidence_buffer,1318443,confidence_buffer,,null,,,,,,,,,,,,,,,,,
1301.8999999999069,,recognition_phase,1319748,Marquette,,49,,,,,old,1,0.9117647058823529,,,,,,,,,,
null,,confidence_buffer,1319858,confidence_buffer,,null,,,,,,,,,,,,,,,,,
null,,thebreak,1320363,break,,null,,,,,,,,,,,,,,,,,
2855.4000000003725,,realistic_rating,1323222,Concord,,53,Concord,5,,,,,,,,,,,,,,,
null,,confidence_buffer,1323330,confidence_buffer,,null,,,,,,,,,,,,,,,,,
4890,,pt2_unique_rating,1328222,Concord,,51,,3,,,,,,,,,,,,,,,
null,,confidence_buffer,1328332,confidence_buffer,,null,,,,,,,,,,,,,,,,,
1693.6000000000931,,probe_rating,1330028,probe_rating,,50,,,2,1,,,,,,,,,,,,,
null,,confidence_buffer,1330137,confidence_buffer,,null,,,,,,,,,,,,,,,,,
1667.5,,pt2_memorable_rating,1331808,Concord,,51,,3,,,,,,,,,,,,,,,
null,,confidence_buffer,1331921,confidence_buffer,,null,,,,,,,,,,,,,,,,,
893.3000000002794,,recognition_phase,1332817,Concord,,49,,,,,old,1,0.9142857142857143,,,,,,,,,,
null,,confidence_buffer,1332919,confidence_buffer,,null,,,,,,,,,,,,,,,,,
null,,thebreak,1333424,break,,null,,,,,,,,,,,,,,,,,
1646.7000000001863,,realistic_rating,1335074,Reno,,53,Reno,5,,,,,,,,,,,,,,,
null,,confidence_buffer,1335182,confidence_buffer,,null,,,,,,,,,,,,,,,,,
1132.1000000000931,,pt2_unique_rating,1336317,Reno,,51,,3,,,,,,,,,,,,,,,
null,,confidence_buffer,1336433,confidence_buffer,,null,,,,,,,,,,,,,,,,,
888.5,,pt2_memorable_rating,1337325,Reno,,51,,3,,,,,,,,,,,,,,,
null,,confidence_buffer,1337431,confidence_buffer,,null,,,,,,,,,,,,,,,,,
833.5999999996275,,recognition_phase,1338268,Reno,,49,,,,,old,1,0.9166666666666666,,,,,,,,,,
null,,confidence_buffer,1338383,confidence_buffer,,null,,,,,,,,,,,,,,,,,
null,,thebreak,1338889,break,,null,,,,,,,,,,,,,,,,,
1227.1000000000931,,realistic_rating,1340119,Scottsdale,,53,Scottsdale,5,,,,,,,,,,,,,,,
null,,confidence_buffer,1340225,confidence_buffer,,null,,,,,,,,,,,,,,,,,
1343.7000000001863,,pt2_unique_rating,1341571,Scottsdale,,51,,3,,,,,,,,,,,,,,,
null,,confidence_buffer,1341675,confidence_buffer,,null,,,,,,,,,,,,,,,,,
2035.3000000002794,,probe_rating,1343713,probe_rating,,53,,,5,1,,,,,,,,,,,,,
null,,confidence_buffer,1343820,confidence_buffer,,null,,,,,,,,,,,,,,,,,
2016.2000000001863,,pt2_memorable_rating,1345839,Scottsdale,,51,,3,,,,,,,,,,,,,,,
null,,confidence_buffer,1345948,confidence_buffer,,null,,,,,,,,,,,,,,,,,
2034.7000000001863,,recognition_phase,1347985,Scottsdale,,52,,,,,new,1,0.918918918918919,,,,,,,,,,
null,,confidence_buffer,1348096,confidence_buffer,,null,,,,,,,,,,,,,,,,,
null,,thebreak,1348605,break,,null,,,,,,,,,,,,,,,,,
1917.5,,realistic_rating,1350525,McKinney,,53,McKinney,5,,,,,,,,,,,,,,,
null,,confidence_buffer,1350634,confidence_buffer,,null,,,,,,,,,,,,,,,,,
2724.100000000093,,pt2_unique_rating,1353361,McKinney,,51,,3,,,,,,,,,,,,,,,
null,,confidence_buffer,1353472,confidence_buffer,,null,,,,,,,,,,,,,,,,,
935.6999999997206,,pt2_memorable_rating,1354410,McKinney,,51,,3,,,,,,,,,,,,,,,
null,,confidence_buffer,1354514,confidence_buffer,,null,,,,,,,,,,,,,,,,,
1770.8999999999069,,recognition_phase,1356287,McKinney,,52,,,,,new,1,0.9210526315789473,,,,,,,,,,
null,,confidence_buffer,1356396,confidence_buffer,,null,,,,,,,,,,,,,,,,,
null,,thebreak,1356905,break,,null,,,,,,,,,,,,,,,,,
1953.5999999996275,,realistic_rating,1358861,Terre Haute,,50,Terre Haute,2,,,,,,,,,,,,,,,
null,,confidence_buffer,1358970,confidence_buffer,,null,,,,,,,,,,,,,,,,,
1857.6000000000931,,pt2_unique_rating,1360830,Terre Haute,,52,,4,,,,,,,,,,,,,,,
null,,confidence_buffer,1360938,confidence_buffer,,null,,,,,,,,,,,,,,,,,
962,,pt2_memorable_rating,1361903,Terre Haute,,51,,3,,,,,,,,,,,,,,,
null,,confidence_buffer,1362015,confidence_buffer,,null,,,,,,,,,,,,,,,,,
1520.4000000003725,,recognition_phase,1363538,Terre Haute,,52,,,,,new,1,0.9230769230769231,,,,,,,,,,
null,,confidence_buffer,1363645,confidence_buffer,,null,,,,,,,,,,,,,,,,,
null,,thebreak,1364150,break,,null,,,,,,,,,,,,,,,,,
4202.200000000186,,realistic_rating,1368355,Syracuse,,53,Syracuse,5,,,,,,,,,,,,,,,
null,,confidence_buffer,1368461,confidence_buffer,,null,,,,,,,,,,,,,,,,,
1318.2999999998137,,pt2_unique_rating,1369782,Syracuse,,51,,3,,,,,,,,,,,,,,,
null,,confidence_buffer,1369892,confidence_buffer,,null,,,,,,,,,,,,,,,,,
1943.1000000000931,,pt2_memorable_rating,1371838,Syracuse,,52,,4,,,,,,,,,,,,,,,
null,,confidence_buffer,1371948,confidence_buffer,,null,,,,,,,,,,,,,,,,,
1082.8999999999069,,recognition_phase,1373033,Syracuse,,49,,,,,old,1,0.925,,,,,,,,,,
null,,confidence_buffer,1373148,confidence_buffer,,null,,,,,,,,,,,,,,,,,
null,,thebreak,1373662,break,,null,,,,,,,,,,,,,,,,,
2403,,realistic_rating,1376068,Champaign,,51,Champaign,3,,,,,,,,,,,,,,,
null,,confidence_buffer,1376175,confidence_buffer,,null,,,,,,,,,,,,,,,,,
880.5999999996275,,pt2_unique_rating,1377058,Champaign,,52,,4,,,,,,,,,,,,,,,
null,,confidence_buffer,1377170,confidence_buffer,,null,,,,,,,,,,,,,,,,,
661.3999999999069,,pt2_memorable_rating,1377833,Champaign,,50,,2,,,,,,,,,,,,,,,
null,,confidence_buffer,1377950,confidence_buffer,,null,,,,,,,,,,,,,,,,,
775.1999999997206,,recognition_phase,1378727,Champaign,,49,,,,,old,1,0.926829268292683,,,,,,,,,,
null,,confidence_buffer,1378835,confidence_buffer,,null,,,,,,,,,,,,,,,,,
null,,thebreak,1379349,break,,null,,,,,,,,,,,,,,,,,
3785.2000000001863,,realistic_rating,1383136,Muncie,,51,Muncie,3,,,,,,,,,,,,,,,
null,,confidence_buffer,1383247,confidence_buffer,,null,,,,,,,,,,,,,,,,,
805.7999999998137,,pt2_unique_rating,1384055,Muncie,,52,,4,,,,,,,,,,,,,,,
null,,confidence_buffer,1384167,confidence_buffer,,null,,,,,,,,,,,,,,,,,
3157.2999999998137,,pt2_memorable_rating,1387327,Muncie,,50,,2,,,,,,,,,,,,,,,
null,,confidence_buffer,1387436,confidence_buffer,,null,,,,,,,,,,,,,,,,,
1731.3999999999069,,recognition_phase,1389170,Muncie,,52,,,,,new,1,0.9285714285714286,,,,,,,,,,
null,,confidence_buffer,1389285,confidence_buffer,,null,,,,,,,,,,,,,,,,,
null,,thebreak,1389789,break,,null,,,,,,,,,,,,,,,,,
7122.200000000186,,realistic_rating,1396913,Boulder,,53,Boulder,5,,,,,,,,,,,,,,,
null,,confidence_buffer,1397017,confidence_buffer,,null,,,,,,,,,,,,,,,,,
1440.1000000000931,,pt2_unique_rating,1398460,Boulder,,51,,3,,,,,,,,,,,,,,,
null,,confidence_buffer,1398577,confidence_buffer,,null,,,,,,,,,,,,,,,,,
5177.100000000093,,pt2_memorable_rating,1403758,Boulder,,51,,3,,,,,,,,,,,,,,,
null,,confidence_buffer,1403867,confidence_buffer,,null,,,,,,,,,,,,,,,,,
1543.5,,recognition_phase,1405413,Boulder,,52,,,,,new,1,0.9302325581395349,,,,,,,,,,
null,,confidence_buffer,1405528,confidence_buffer,,null,,,,,,,,,,,,,,,,,
null,,thebreak,1406033,break,,null,,,,,,,,,,,,,,,,,
2349.199999999255,,realistic_rating,1408385,Las Cruces,,52,Las Cruces,4,,,,,,,,,,,,,,,
null,,confidence_buffer,1408503,confidence_buffer,,null,,,,,,,,,,,,,,,,,
908.5,,pt2_unique_rating,1409414,Las Cruces,,51,,3,,,,,,,,,,,,,,,
null,,confidence_buffer,1409530,confidence_buffer,,null,,,,,,,,,,,,,,,,,
399.90000000037253,,pt2_memorable_rating,1409933,Las Cruces,,50,,2,,,,,,,,,,,,,,,
null,,confidence_buffer,1410043,confidence_buffer,,null,,,,,,,,,,,,,,,,,
1764.9000000003725,,recognition_phase,1411811,Las Cruces,,49,,,,,old,1,0.9318181818181818,,,,,,,,,,
null,,confidence_buffer,1411921,confidence_buffer,,null,,,,,,,,,,,,,,,,,
null,,thebreak,1412429,break,,null,,,,,,,,,,,,,,,,,
2489.5,,realistic_rating,1414921,Fargo,,51,Fargo,3,,,,,,,,,,,,,,,
null,,confidence_buffer,1415027,confidence_buffer,,null,,,,,,,,,,,,,,,,,
2012.2000000001863,,pt2_unique_rating,1417041,Fargo,,50,,2,,,,,,,,,,,,,,,
null,,confidence_buffer,1417145,confidence_buffer,,null,,,,,,,,,,,,,,,,,
1132.2000000001863,,pt2_memorable_rating,1418278,Fargo,,50,,2,,,,,,,,,,,,,,,
null,,confidence_buffer,1418381,confidence_buffer,,null,,,,,,,,,,,,,,,,,
1044,,recognition_phase,1419427,Fargo,,49,,,,,old,1,0.9333333333333333,,,,,,,,,,
null,,confidence_buffer,1419535,confidence_buffer,,null,,,,,,,,,,,,,,,,,
null,,thebreak,1420044,break,,null,,,,,,,,,,,,,,,,,
3315.600000000559,,realistic_rating,1423362,Gainesville,,53,Gainesville,5,,,,,,,,,,,,,,,
null,,confidence_buffer,1423468,confidence_buffer,,null,,,,,,,,,,,,,,,,,
3089.399999999441,,pt2_unique_rating,1426560,Gainesville,,51,,3,,,,,,,,,,,,,,,
null,,confidence_buffer,1426677,confidence_buffer,,null,,,,,,,,,,,,,,,,,
1214,,pt2_memorable_rating,1427893,Gainesville,,52,,4,,,,,,,,,,,,,,,
null,,confidence_buffer,1428010,confidence_buffer,,null,,,,,,,,,,,,,,,,,
1614.5999999996275,,recognition_phase,1429627,Gainesville,,52,,,,,new,1,0.9347826086956522,,,,,,,,,,
null,,confidence_buffer,1429734,confidence_buffer,,null,,,,,,,,,,,,,,,,,
null,,thebreak,1430239,break,,null,,,,,,,,,,,,,,,,,
1807.1000000005588,,realistic_rating,1432049,Fort Wayne,,52,Fort Wayne,4,,,,,,,,,,,,,,,
null,,confidence_buffer,1432157,confidence_buffer,,null,,,,,,,,,,,,,,,,,
1088.7999999998137,,pt2_unique_rating,1433249,Fort Wayne,,51,,3,,,,,,,,,,,,,,,
null,,confidence_buffer,1433358,confidence_buffer,,null,,,,,,,,,,,,,,,,,
1021.4000000003725,,pt2_memorable_rating,1434382,Fort Wayne,,51,,3,,,,,,,,,,,,,,,
null,,confidence_buffer,1434501,confidence_buffer,,null,,,,,,,,,,,,,,,,,
931.4000000003725,,recognition_phase,1435435,Fort Wayne,,49,,,,,old,1,0.9361702127659575,,,,,,,,,,
null,,confidence_buffer,1435545,confidence_buffer,,null,,,,,,,,,,,,,,,,,
null,,thebreak,1436047,break,,null,,,,,,,,,,,,,,,,,
1629.1000000005588,,realistic_rating,1437679,Athens,,53,Athens,5,,,,,,,,,,,,,,,
null,,confidence_buffer,1437789,confidence_buffer,,null,,,,,,,,,,,,,,,,,
814.5,,pt2_unique_rating,1438607,Athens,,51,,3,,,,,,,,,,,,,,,
null,,confidence_buffer,1438716,confidence_buffer,,null,,,,,,,,,,,,,,,,,
1678.7000000001863,,pt2_memorable_rating,1440397,Athens,,50,,2,,,,,,,,,,,,,,,
null,,confidence_buffer,1440501,confidence_buffer,,null,,,,,,,,,,,,,,,,,
1098.2000000001863,,recognition_phase,1441602,Athens,,49,,,,,old,1,0.9375,,,,,,,,,,
null,,confidence_buffer,1441711,confidence_buffer,,null,,,,,,,,,,,,,,,,,
null,,thebreak,1442228,break,,null,,,,,,,,,,,,,,,,,
2178.199999999255,,realistic_rating,1444409,Topeka,,53,Topeka,5,,,,,,,,,,,,,,,
null,,confidence_buffer,1444526,confidence_buffer,,null,,,,,,,,,,,,,,,,,
1138.699999999255,,probe_rating,1445667,probe_rating,,53,,,5,1,,,,,,,,,,,,,
null,,confidence_buffer,1445776,confidence_buffer,,null,,,,,,,,,,,,,,,,,
3577.5,,pt2_unique_rating,1449356,Topeka,,52,,4,,,,,,,,,,,,,,,
null,,confidence_buffer,1449461,confidence_buffer,,null,,,,,,,,,,,,,,,,,
999.7000000001863,,pt2_memorable_rating,1450462,Topeka,,52,,4,,,,,,,,,,,,,,,
null,,confidence_buffer,1450571,confidence_buffer,,null,,,,,,,,,,,,,,,,,
1103.699999999255,,recognition_phase,1451678,Topeka,,49,,,,,old,1,0.9387755102040817,,,,,,,,,,
null,,confidence_buffer,1451780,confidence_buffer,,null,,,,,,,,,,,,,,,,,
null,,thebreak,1452294,break,,null,,,,,,,,,,,,,,,,,
2432.800000000745,,realistic_rating,1454729,Montpelier,,53,Montpelier,5,,,,,,,,,,,,,,,
null,,confidence_buffer,1454840,confidence_buffer,,null,,,,,,,,,,,,,,,,,
8075.200000000186,,pt2_unique_rating,1462918,Montpelier,,52,,4,,,,,,,,,,,,,,,
null,,confidence_buffer,1463027,confidence_buffer,,null,,,,,,,,,,,,,,,,,
1038.7999999998137,,pt2_memorable_rating,1464068,Montpelier,,51,,3,,,,,,,,,,,,,,,
null,,confidence_buffer,1464174,confidence_buffer,,null,,,,,,,,,,,,,,,,,
2390.7000000001863,,recognition_phase,1466566,Montpelier,,52,,,,,new,0,0.92,,,,,,,,,,
null,,confidence_buffer,1466671,confidence_buffer,,null,,,,,,,,,,,,,,,,,
null,,thebreak,1467175,break,,null,,,,,,,,,,,,,,,,,
,,survey,1618827,survey-questions,,,,,,,,,,none,high,Nothing else,I didn't really use any strategies. ,If I had heard the name before,If I would be able to remember the name,If it sounded interesting,If it was real or if I thought it was real,No,It wasn't boring. 
