rt,responses,trial_type,time_elapsed,stimulus,button_pressed,key_press,name_trial,rating,probe,probe_accuracy,response,correct,accuracy,problems,smooth,distraction,strategies,familiar,memorable,unique,realistic,similar,comments
18554.19999998808,{worker_id:62e19208352cd518d7b2f085},id_enter,18557,,,,,,,,,,,,,,,,,,,,
10684.800000011921,,fullscreen,29248,fullscreen,0,,,,,,,,,,,,,,,,,,
8717.200000047684,,intro_0,37968,instruct,,32,,,,,,,,,,,,,,,,,
12117.399999976158,,intro_1,50087,instruct,,32,,,,,,,,,,,,,,,,,
19408.299999952316,,intro_2,69497,instruct,,32,,,,,,,,,,,,,,,,,
null,,instruct_dir_4,70998,instruct,,null,,,,,,,,,,,,,,,,,
null,,thebreak,71500,break,,null,,,,,,,,,,,,,,,,,
10055.399999976158,,familiar_rating,81557,Fort Collins,,51,Fort Collins,3,,,,,,,,,,,,,,,
null,,confidence_buffer,81659,confidence_buffer,,null,,,,,,,,,,,,,,,,,
9060.699999988079,,unique_rating,90721,Fort Collins,,51,,3,,,,,,,,,,,,,,,
null,,confidence_buffer,90824,confidence_buffer,,null,,,,,,,,,,,,,,,,,
6097.300000011921,,memorable_rating,96922,Fort Collins,,50,,2,,,,,,,,,,,,,,,
null,,confidence_buffer,97024,confidence_buffer,,null,,,,,,,,,,,,,,,,,
null,,thebreak,97525,break,,null,,,,,,,,,,,,,,,,,
96335.69999998808,,familiar_rating,193864,Toledo,,53,Toledo,5,,,,,,,,,,,,,,,
null,,confidence_buffer,193965,confidence_buffer,,null,,,,,,,,,,,,,,,,,
3863,,unique_rating,197829,Toledo,,52,,4,,,,,,,,,,,,,,,
null,,confidence_buffer,197930,confidence_buffer,,null,,,,,,,,,,,,,,,,,
9578.699999988079,,memorable_rating,207510,Toledo,,53,,5,,,,,,,,,,,,,,,
null,,confidence_buffer,207612,confidence_buffer,,null,,,,,,,,,,,,,,,,,
null,,thebreak,208113,break,,null,,,,,,,,,,,,,,,,,
18589.099999964237,,familiar_rating,226704,Rock Springs,,49,Rock Springs,1,,,,,,,,,,,,,,,
null,,confidence_buffer,226806,confidence_buffer,,null,,,,,,,,,,,,,,,,,
3018.100000023842,,unique_rating,229825,Rock Springs,,49,,1,,,,,,,,,,,,,,,
null,,confidence_buffer,229926,confidence_buffer,,null,,,,,,,,,,,,,,,,,
3221.600000023842,,probe_rating,233149,probe_rating,,49,,,1,1,,,,,,,,,,,,,
null,,confidence_buffer,233250,confidence_buffer,,null,,,,,,,,,,,,,,,,,
4188.400000035763,,memorable_rating,237439,Rock Springs,,51,,3,,,,,,,,,,,,,,,
null,,confidence_buffer,237541,confidence_buffer,,null,,,,,,,,,,,,,,,,,
null,,thebreak,238042,break,,null,,,,,,,,,,,,,,,,,
4821,,familiar_rating,242864,Boise,,53,Boise,5,,,,,,,,,,,,,,,
null,,confidence_buffer,242965,confidence_buffer,,null,,,,,,,,,,,,,,,,,
2338.800000011921,,unique_rating,245305,Boise,,52,,4,,,,,,,,,,,,,,,
null,,confidence_buffer,245406,confidence_buffer,,null,,,,,,,,,,,,,,,,,
2498.599999964237,,memorable_rating,247906,Boise,,52,,4,,,,,,,,,,,,,,,
null,,confidence_buffer,248008,confidence_buffer,,null,,,,,,,,,,,,,,,,,
null,,thebreak,248509,break,,null,,,,,,,,,,,,,,,,,
6128.900000035763,,familiar_rating,254639,Scottsdale,,53,Scottsdale,5,,,,,,,,,,,,,,,
null,,confidence_buffer,254740,confidence_buffer,,null,,,,,,,,,,,,,,,,,
3333.199999988079,,unique_rating,258074,Scottsdale,,51,,3,,,,,,,,,,,,,,,
null,,confidence_buffer,258176,confidence_buffer,,null,,,,,,,,,,,,,,,,,
2567.100000023842,,memorable_rating,260744,Scottsdale,,51,,3,,,,,,,,,,,,,,,
null,,confidence_buffer,260845,confidence_buffer,,null,,,,,,,,,,,,,,,,,
null,,thebreak,261346,break,,null,,,,,,,,,,,,,,,,,
4636.700000047684,,familiar_rating,265984,Norfolk,,52,Norfolk,4,,,,,,,,,,,,,,,
null,,confidence_buffer,266085,confidence_buffer,,null,,,,,,,,,,,,,,,,,
5258.399999976158,,unique_rating,271345,Norfolk,,52,,4,,,,,,,,,,,,,,,
null,,confidence_buffer,271447,confidence_buffer,,null,,,,,,,,,,,,,,,,,
2901.7999999523163,,memorable_rating,274349,Norfolk,,52,,4,,,,,,,,,,,,,,,
null,,confidence_buffer,274451,confidence_buffer,,null,,,,,,,,,,,,,,,,,
null,,thebreak,274952,break,,null,,,,,,,,,,,,,,,,,
11431.699999988079,,familiar_rating,286384,Yakima,,53,Yakima,5,,,,,,,,,,,,,,,
null,,confidence_buffer,286486,confidence_buffer,,null,,,,,,,,,,,,,,,,,
3307,,unique_rating,289796,Yakima,,53,,5,,,,,,,,,,,,,,,
null,,confidence_buffer,289897,confidence_buffer,,null,,,,,,,,,,,,,,,,,
1412.699999988079,,memorable_rating,291311,Yakima,,53,,5,,,,,,,,,,,,,,,
null,,confidence_buffer,291412,confidence_buffer,,null,,,,,,,,,,,,,,,,,
1312,,probe_rating,292725,probe_rating,,50,,,2,1,,,,,,,,,,,,,
null,,confidence_buffer,292827,confidence_buffer,,null,,,,,,,,,,,,,,,,,
null,,thebreak,293328,break,,null,,,,,,,,,,,,,,,,,
9274.400000035763,,familiar_rating,302603,Altoona,,49,Altoona,1,,,,,,,,,,,,,,,
null,,confidence_buffer,302705,confidence_buffer,,null,,,,,,,,,,,,,,,,,
2968.100000023842,,unique_rating,305674,Altoona,,53,,5,,,,,,,,,,,,,,,
null,,confidence_buffer,305776,confidence_buffer,,null,,,,,,,,,,,,,,,,,
3054.800000011921,,memorable_rating,308831,Altoona,,53,,5,,,,,,,,,,,,,,,
null,,confidence_buffer,308933,confidence_buffer,,null,,,,,,,,,,,,,,,,,
null,,thebreak,309434,break,,null,,,,,,,,,,,,,,,,,
9869.799999952316,,familiar_rating,319304,Decatur,,49,Decatur,1,,,,,,,,,,,,,,,
null,,confidence_buffer,319406,confidence_buffer,,null,,,,,,,,,,,,,,,,,
2697.800000011921,,unique_rating,322105,Decatur,,52,,4,,,,,,,,,,,,,,,
null,,confidence_buffer,322206,confidence_buffer,,null,,,,,,,,,,,,,,,,,
2472.899999976158,,memorable_rating,324680,Decatur,,51,,3,,,,,,,,,,,,,,,
null,,confidence_buffer,324781,confidence_buffer,,null,,,,,,,,,,,,,,,,,
null,,thebreak,325283,break,,null,,,,,,,,,,,,,,,,,
3821.599999964237,,familiar_rating,329105,Champaign,,49,Champaign,1,,,,,,,,,,,,,,,
null,,confidence_buffer,329207,confidence_buffer,,null,,,,,,,,,,,,,,,,,
4102.399999976158,,unique_rating,333311,Champaign,,50,,2,,,,,,,,,,,,,,,
null,,confidence_buffer,333413,confidence_buffer,,null,,,,,,,,,,,,,,,,,
3851.800000011921,,memorable_rating,337266,Champaign,,52,,4,,,,,,,,,,,,,,,
null,,confidence_buffer,337367,confidence_buffer,,null,,,,,,,,,,,,,,,,,
null,,thebreak,337868,break,,null,,,,,,,,,,,,,,,,,
3354.699999988079,,familiar_rating,341224,Salem,,53,Salem,5,,,,,,,,,,,,,,,
null,,confidence_buffer,341325,confidence_buffer,,null,,,,,,,,,,,,,,,,,
4154.700000047684,,unique_rating,345481,Salem,,53,,5,,,,,,,,,,,,,,,
null,,confidence_buffer,345582,confidence_buffer,,null,,,,,,,,,,,,,,,,,
2360.600000023842,,memorable_rating,347944,Salem,,53,,5,,,,,,,,,,,,,,,
null,,confidence_buffer,348045,confidence_buffer,,null,,,,,,,,,,,,,,,,,
null,,thebreak,348546,break,,null,,,,,,,,,,,,,,,,,
5081.900000035763,,familiar_rating,353630,Berkeley,,53,Berkeley,5,,,,,,,,,,,,,,,
null,,confidence_buffer,353732,confidence_buffer,,null,,,,,,,,,,,,,,,,,
3458.199999988079,,unique_rating,357191,Berkeley,,51,,3,,,,,,,,,,,,,,,
null,,confidence_buffer,357293,confidence_buffer,,null,,,,,,,,,,,,,,,,,
2777.099999964237,,memorable_rating,360071,Berkeley,,52,,4,,,,,,,,,,,,,,,
null,,confidence_buffer,360173,confidence_buffer,,null,,,,,,,,,,,,,,,,,
1731.1000000238419,,probe_rating,361905,probe_rating,,51,,,3,1,,,,,,,,,,,,,
null,,confidence_buffer,362006,confidence_buffer,,null,,,,,,,,,,,,,,,,,
null,,thebreak,362507,break,,null,,,,,,,,,,,,,,,,,
2572.600000023842,,familiar_rating,365081,Pueblo,,49,Pueblo,1,,,,,,,,,,,,,,,
null,,confidence_buffer,365182,confidence_buffer,,null,,,,,,,,,,,,,,,,,
4323.5,,unique_rating,369507,Pueblo,,52,,4,,,,,,,,,,,,,,,
null,,confidence_buffer,369608,confidence_buffer,,null,,,,,,,,,,,,,,,,,
2740.600000023842,,memorable_rating,372350,Pueblo,,51,,3,,,,,,,,,,,,,,,
null,,confidence_buffer,372451,confidence_buffer,,null,,,,,,,,,,,,,,,,,
1308.5,,probe_rating,373761,probe_rating,,49,,,1,1,,,,,,,,,,,,,
null,,confidence_buffer,373862,confidence_buffer,,null,,,,,,,,,,,,,,,,,
null,,thebreak,374363,break,,null,,,,,,,,,,,,,,,,,
3194.899999976158,,familiar_rating,377559,Youngstown,,52,Youngstown,4,,,,,,,,,,,,,,,
null,,confidence_buffer,377661,confidence_buffer,,null,,,,,,,,,,,,,,,,,
3183.199999988079,,unique_rating,380845,Youngstown,,50,,2,,,,,,,,,,,,,,,
null,,confidence_buffer,380947,confidence_buffer,,null,,,,,,,,,,,,,,,,,
2957.599999964237,,memorable_rating,383905,Youngstown,,51,,3,,,,,,,,,,,,,,,
null,,confidence_buffer,384007,confidence_buffer,,null,,,,,,,,,,,,,,,,,
null,,thebreak,384508,break,,null,,,,,,,,,,,,,,,,,
2416.100000023842,,familiar_rating,386925,Muncie,,49,Muncie,1,,,,,,,,,,,,,,,
null,,confidence_buffer,387026,confidence_buffer,,null,,,,,,,,,,,,,,,,,
3237.5,,unique_rating,390264,Muncie,,52,,4,,,,,,,,,,,,,,,
null,,confidence_buffer,390366,confidence_buffer,,null,,,,,,,,,,,,,,,,,
3068.300000011921,,memorable_rating,393435,Muncie,,50,,2,,,,,,,,,,,,,,,
null,,confidence_buffer,393536,confidence_buffer,,null,,,,,,,,,,,,,,,,,
null,,thebreak,394037,break,,null,,,,,,,,,,,,,,,,,
2676.899999976158,,familiar_rating,396715,Marquette,,50,Marquette,2,,,,,,,,,,,,,,,
null,,confidence_buffer,396816,confidence_buffer,,null,,,,,,,,,,,,,,,,,
2856.600000023842,,unique_rating,399674,Marquette,,51,,3,,,,,,,,,,,,,,,
null,,confidence_buffer,399775,confidence_buffer,,null,,,,,,,,,,,,,,,,,
1686.6000000238419,,probe_rating,401463,probe_rating,,52,,,4,1,,,,,,,,,,,,,
null,,confidence_buffer,401564,confidence_buffer,,null,,,,,,,,,,,,,,,,,
4579.600000023842,,memorable_rating,406145,Marquette,,51,,3,,,,,,,,,,,,,,,
null,,confidence_buffer,406247,confidence_buffer,,null,,,,,,,,,,,,,,,,,
null,,thebreak,406748,break,,null,,,,,,,,,,,,,,,,,
2855.900000035763,,familiar_rating,409605,Carson City,,53,Carson City,5,,,,,,,,,,,,,,,
null,,confidence_buffer,409706,confidence_buffer,,null,,,,,,,,,,,,,,,,,
3797.399999976158,,unique_rating,413504,Carson City,,49,,1,,,,,,,,,,,,,,,
null,,confidence_buffer,413606,confidence_buffer,,null,,,,,,,,,,,,,,,,,
2696.199999988079,,memorable_rating,416304,Carson City,,53,,5,,,,,,,,,,,,,,,
null,,confidence_buffer,416406,confidence_buffer,,null,,,,,,,,,,,,,,,,,
null,,thebreak,416907,break,,null,,,,,,,,,,,,,,,,,
8963,,familiar_rating,425871,Newport News,,49,Newport News,1,,,,,,,,,,,,,,,
null,,confidence_buffer,425972,confidence_buffer,,null,,,,,,,,,,,,,,,,,
4852.600000023842,,unique_rating,430826,Newport News,,52,,4,,,,,,,,,,,,,,,
null,,confidence_buffer,430927,confidence_buffer,,null,,,,,,,,,,,,,,,,,
2305.199999988079,,memorable_rating,433234,Newport News,,52,,4,,,,,,,,,,,,,,,
null,,confidence_buffer,433335,confidence_buffer,,null,,,,,,,,,,,,,,,,,
null,,thebreak,433836,break,,null,,,,,,,,,,,,,,,,,
2866.900000035763,,familiar_rating,436704,Topeka,,53,Topeka,5,,,,,,,,,,,,,,,
null,,confidence_buffer,436805,confidence_buffer,,null,,,,,,,,,,,,,,,,,
5058.5,,unique_rating,441865,Topeka,,53,,5,,,,,,,,,,,,,,,
null,,confidence_buffer,441967,confidence_buffer,,null,,,,,,,,,,,,,,,,,
4871.899999976158,,memorable_rating,446840,Topeka,,53,,5,,,,,,,,,,,,,,,
null,,confidence_buffer,446941,confidence_buffer,,null,,,,,,,,,,,,,,,,,
null,,thebreak,447442,break,,null,,,,,,,,,,,,,,,,,
1920.0999999642372,,familiar_rating,449363,Bellingham,,49,Bellingham,1,,,,,,,,,,,,,,,
null,,confidence_buffer,449464,confidence_buffer,,null,,,,,,,,,,,,,,,,,
4044.399999976158,,unique_rating,453509,Bellingham,,52,,4,,,,,,,,,,,,,,,
null,,confidence_buffer,453611,confidence_buffer,,null,,,,,,,,,,,,,,,,,
6732.199999988079,,memorable_rating,460344,Bellingham,,51,,3,,,,,,,,,,,,,,,
null,,confidence_buffer,460446,confidence_buffer,,null,,,,,,,,,,,,,,,,,
null,,thebreak,460947,break,,null,,,,,,,,,,,,,,,,,
2480.699999988079,,familiar_rating,463429,Montpelier,,49,Montpelier,1,,,,,,,,,,,,,,,
null,,confidence_buffer,463531,confidence_buffer,,null,,,,,,,,,,,,,,,,,
2940.100000023842,,unique_rating,466472,Montpelier,,53,,5,,,,,,,,,,,,,,,
null,,confidence_buffer,466574,confidence_buffer,,null,,,,,,,,,,,,,,,,,
11016.800000011921,,memorable_rating,477592,Montpelier,,50,,2,,,,,,,,,,,,,,,
null,,confidence_buffer,477694,confidence_buffer,,null,,,,,,,,,,,,,,,,,
null,,thebreak,478195,break,,null,,,,,,,,,,,,,,,,,
3425.900000035763,,familiar_rating,481622,Olympia,,53,Olympia,5,,,,,,,,,,,,,,,
null,,confidence_buffer,481724,confidence_buffer,,null,,,,,,,,,,,,,,,,,
5226.799999952316,,unique_rating,486952,Olympia,,49,,1,,,,,,,,,,,,,,,
null,,confidence_buffer,487054,confidence_buffer,,null,,,,,,,,,,,,,,,,,
2695.199999988079,,memorable_rating,489751,Olympia,,53,,5,,,,,,,,,,,,,,,
null,,confidence_buffer,489852,confidence_buffer,,null,,,,,,,,,,,,,,,,,
null,,thebreak,490353,break,,null,,,,,,,,,,,,,,,,,
3746.7999999523163,,familiar_rating,494101,Concord,,53,Concord,5,,,,,,,,,,,,,,,
null,,confidence_buffer,494203,confidence_buffer,,null,,,,,,,,,,,,,,,,,
3748,,unique_rating,497951,Concord,,51,,3,,,,,,,,,,,,,,,
null,,confidence_buffer,498053,confidence_buffer,,null,,,,,,,,,,,,,,,,,
1326.5,,probe_rating,499381,probe_rating,,49,,,1,1,,,,,,,,,,,,,
null,,confidence_buffer,499482,confidence_buffer,,null,,,,,,,,,,,,,,,,,
4641.099999964237,,memorable_rating,504124,Concord,,53,,5,,,,,,,,,,,,,,,
null,,confidence_buffer,504225,confidence_buffer,,null,,,,,,,,,,,,,,,,,
null,,thebreak,504726,break,,null,,,,,,,,,,,,,,,,,
4590.899999976158,,familiar_rating,509318,Helena,,52,Helena,4,,,,,,,,,,,,,,,
null,,confidence_buffer,509419,confidence_buffer,,null,,,,,,,,,,,,,,,,,
3363.099999964237,,unique_rating,512783,Helena,,49,,1,,,,,,,,,,,,,,,
null,,confidence_buffer,512884,confidence_buffer,,null,,,,,,,,,,,,,,,,,
2164.399999976158,,memorable_rating,515050,Helena,,52,,4,,,,,,,,,,,,,,,
null,,confidence_buffer,515151,confidence_buffer,,null,,,,,,,,,,,,,,,,,
null,,thebreak,515652,break,,null,,,,,,,,,,,,,,,,,
1764.8999999761581,,familiar_rating,517418,Dover,,53,Dover,5,,,,,,,,,,,,,,,
null,,confidence_buffer,517520,confidence_buffer,,null,,,,,,,,,,,,,,,,,
2816.899999976158,,unique_rating,520337,Dover,,52,,4,,,,,,,,,,,,,,,
null,,confidence_buffer,520439,confidence_buffer,,null,,,,,,,,,,,,,,,,,
5825.699999988079,,memorable_rating,526265,Dover,,52,,4,,,,,,,,,,,,,,,
null,,confidence_buffer,526367,confidence_buffer,,null,,,,,,,,,,,,,,,,,
null,,thebreak,526868,break,,null,,,,,,,,,,,,,,,,,
10475.899999976158,,intro_0,537345,instruct,,32,,,,,,,,,,,,,,,,,
60278.39999997616,,intro_1,597626,instruct,,32,,,,,,,,,,,,,,,,,
17344.400000035763,,intro_2,614972,instruct,,32,,,,,,,,,,,,,,,,,
null,,instruct_dir_4,616474,instruct,,null,,,,,,,,,,,,,,,,,
12549.600000023842,,realistic_rating,629024,Stamford,,52,Stamford,4,,,,,,,,,,,,,,,
null,,confidence_buffer,629126,confidence_buffer,,null,,,,,,,,,,,,,,,,,
4365.099999964237,,pt2_unique_rating,633492,Stamford,,50,,2,,,,,,,,,,,,,,,
null,,confidence_buffer,633594,confidence_buffer,,null,,,,,,,,,,,,,,,,,
2647,,pt2_memorable_rating,636242,Stamford,,51,,3,,,,,,,,,,,,,,,
null,,confidence_buffer,636343,confidence_buffer,,null,,,,,,,,,,,,,,,,,
3716,,recognition_phase,640061,Stamford,,52,,,,,new,1,1,,,,,,,,,,
null,,confidence_buffer,640163,confidence_buffer,,null,,,,,,,,,,,,,,,,,
null,,thebreak,640664,break,,null,,,,,,,,,,,,,,,,,
6228,,realistic_rating,646893,Muncie,,51,Muncie,3,,,,,,,,,,,,,,,
null,,confidence_buffer,646994,confidence_buffer,,null,,,,,,,,,,,,,,,,,
6500.5,,pt2_unique_rating,653496,Muncie,,52,,4,,,,,,,,,,,,,,,
null,,confidence_buffer,653597,confidence_buffer,,null,,,,,,,,,,,,,,,,,
7163.899999976158,,pt2_memorable_rating,660763,Muncie,,51,,3,,,,,,,,,,,,,,,
null,,confidence_buffer,660864,confidence_buffer,,null,,,,,,,,,,,,,,,,,
2080.300000011921,,recognition_phase,662946,Muncie,,49,,,,,old,1,1,,,,,,,,,,
null,,confidence_buffer,663047,confidence_buffer,,null,,,,,,,,,,,,,,,,,
null,,thebreak,663548,break,,null,,,,,,,,,,,,,,,,,
8854.600000023842,,realistic_rating,672404,Champaign,,50,Champaign,2,,,,,,,,,,,,,,,
null,,confidence_buffer,672505,confidence_buffer,,null,,,,,,,,,,,,,,,,,
3479.800000011921,,pt2_unique_rating,675986,Champaign,,50,,2,,,,,,,,,,,,,,,
null,,confidence_buffer,676087,confidence_buffer,,null,,,,,,,,,,,,,,,,,
4938.399999976158,,pt2_memorable_rating,681027,Champaign,,53,,5,,,,,,,,,,,,,,,
null,,confidence_buffer,681128,confidence_buffer,,null,,,,,,,,,,,,,,,,,
1781.5999999642372,,probe_rating,682910,probe_rating,,52,,,4,1,,,,,,,,,,,,,
null,,confidence_buffer,683012,confidence_buffer,,null,,,,,,,,,,,,,,,,,
1705.800000011921,,recognition_phase,684719,Champaign,,49,,,,,old,1,1,,,,,,,,,,
null,,confidence_buffer,684821,confidence_buffer,,null,,,,,,,,,,,,,,,,,
null,,thebreak,685322,break,,null,,,,,,,,,,,,,,,,,
6182.100000023842,,realistic_rating,691506,Dothan,,51,Dothan,3,,,,,,,,,,,,,,,
null,,confidence_buffer,691608,confidence_buffer,,null,,,,,,,,,,,,,,,,,
5273.5,,pt2_unique_rating,696882,Dothan,,52,,4,,,,,,,,,,,,,,,
null,,confidence_buffer,696984,confidence_buffer,,null,,,,,,,,,,,,,,,,,
2605.800000011921,,pt2_memorable_rating,699591,Dothan,,51,,3,,,,,,,,,,,,,,,
null,,confidence_buffer,699692,confidence_buffer,,null,,,,,,,,,,,,,,,,,
2593.600000023842,,recognition_phase,702287,Dothan,,52,,,,,new,1,1,,,,,,,,,,
null,,confidence_buffer,702388,confidence_buffer,,null,,,,,,,,,,,,,,,,,
null,,thebreak,702889,break,,null,,,,,,,,,,,,,,,,,
5300.600000023842,,realistic_rating,708191,Scottsdale,,53,Scottsdale,5,,,,,,,,,,,,,,,
null,,confidence_buffer,708292,confidence_buffer,,null,,,,,,,,,,,,,,,,,
8871.699999988079,,pt2_unique_rating,717165,Scottsdale,,51,,3,,,,,,,,,,,,,,,
null,,confidence_buffer,717267,confidence_buffer,,null,,,,,,,,,,,,,,,,,
3318.5,,pt2_memorable_rating,720586,Scottsdale,,53,,5,,,,,,,,,,,,,,,
null,,confidence_buffer,720688,confidence_buffer,,null,,,,,,,,,,,,,,,,,
2788.300000011921,,recognition_phase,723478,Scottsdale,,49,,,,,old,1,1,,,,,,,,,,
null,,confidence_buffer,723580,confidence_buffer,,null,,,,,,,,,,,,,,,,,
null,,thebreak,724081,break,,null,,,,,,,,,,,,,,,,,
4196.700000047684,,realistic_rating,728279,Burlington,,53,Burlington,5,,,,,,,,,,,,,,,
null,,confidence_buffer,728380,confidence_buffer,,null,,,,,,,,,,,,,,,,,
8425.800000011921,,pt2_unique_rating,736807,Burlington,,51,,3,,,,,,,,,,,,,,,
null,,confidence_buffer,736909,confidence_buffer,,null,,,,,,,,,,,,,,,,,
2255.699999988079,,pt2_memorable_rating,739165,Burlington,,53,,5,,,,,,,,,,,,,,,
null,,confidence_buffer,739267,confidence_buffer,,null,,,,,,,,,,,,,,,,,
3933.199999988079,,probe_rating,743201,probe_rating,,51,,,3,1,,,,,,,,,,,,,
null,,confidence_buffer,743303,confidence_buffer,,null,,,,,,,,,,,,,,,,,
3594.699999988079,,recognition_phase,746899,Burlington,,52,,,,,new,1,1,,,,,,,,,,
null,,confidence_buffer,747001,confidence_buffer,,null,,,,,,,,,,,,,,,,,
null,,thebreak,747502,break,,null,,,,,,,,,,,,,,,,,
6928.099999964237,,realistic_rating,754431,Palo Alto,,50,Palo Alto,2,,,,,,,,,,,,,,,
null,,confidence_buffer,754532,confidence_buffer,,null,,,,,,,,,,,,,,,,,
3159.7000000476837,,pt2_unique_rating,757693,Palo Alto,,53,,5,,,,,,,,,,,,,,,
null,,confidence_buffer,757794,confidence_buffer,,null,,,,,,,,,,,,,,,,,
3164.699999988079,,pt2_memorable_rating,760960,Palo Alto,,52,,4,,,,,,,,,,,,,,,
null,,confidence_buffer,761062,confidence_buffer,,null,,,,,,,,,,,,,,,,,
2370.400000035763,,recognition_phase,763433,Palo Alto,,52,,,,,new,1,1,,,,,,,,,,
null,,confidence_buffer,763535,confidence_buffer,,null,,,,,,,,,,,,,,,,,
null,,thebreak,764036,break,,null,,,,,,,,,,,,,,,,,
5460.199999988079,,realistic_rating,769497,Las Cruces,,51,Las Cruces,3,,,,,,,,,,,,,,,
null,,confidence_buffer,769599,confidence_buffer,,null,,,,,,,,,,,,,,,,,
3712.7999999523163,,pt2_unique_rating,773313,Las Cruces,,52,,4,,,,,,,,,,,,,,,
null,,confidence_buffer,773414,confidence_buffer,,null,,,,,,,,,,,,,,,,,
3221.099999964237,,pt2_memorable_rating,776636,Las Cruces,,51,,3,,,,,,,,,,,,,,,
null,,confidence_buffer,776737,confidence_buffer,,null,,,,,,,,,,,,,,,,,
2020.5999999642372,,recognition_phase,778759,Las Cruces,,52,,,,,new,1,1,,,,,,,,,,
null,,confidence_buffer,778860,confidence_buffer,,null,,,,,,,,,,,,,,,,,
null,,thebreak,779361,break,,null,,,,,,,,,,,,,,,,,
8946.699999988079,,realistic_rating,788310,Rock Springs,,51,Rock Springs,3,,,,,,,,,,,,,,,
null,,confidence_buffer,788412,confidence_buffer,,null,,,,,,,,,,,,,,,,,
3360.899999976158,,pt2_unique_rating,791774,Rock Springs,,49,,1,,,,,,,,,,,,,,,
null,,confidence_buffer,791875,confidence_buffer,,null,,,,,,,,,,,,,,,,,
3898.899999976158,,pt2_memorable_rating,795775,Rock Springs,,53,,5,,,,,,,,,,,,,,,
null,,confidence_buffer,795876,confidence_buffer,,null,,,,,,,,,,,,,,,,,
2039.6000000238419,,recognition_phase,797917,Rock Springs,,49,,,,,old,1,1,,,,,,,,,,
null,,confidence_buffer,798018,confidence_buffer,,null,,,,,,,,,,,,,,,,,
null,,thebreak,798519,break,,null,,,,,,,,,,,,,,,,,
2533,,realistic_rating,801054,Yakima,,53,Yakima,5,,,,,,,,,,,,,,,
null,,confidence_buffer,801155,confidence_buffer,,null,,,,,,,,,,,,,,,,,
2118.099999964237,,pt2_unique_rating,803275,Yakima,,53,,5,,,,,,,,,,,,,,,
null,,confidence_buffer,803377,confidence_buffer,,null,,,,,,,,,,,,,,,,,
1678.5999999642372,,pt2_memorable_rating,805057,Yakima,,53,,5,,,,,,,,,,,,,,,
null,,confidence_buffer,805159,confidence_buffer,,null,,,,,,,,,,,,,,,,,
1597.300000011921,,probe_rating,806757,probe_rating,,53,,,5,1,,,,,,,,,,,,,
null,,confidence_buffer,806859,confidence_buffer,,null,,,,,,,,,,,,,,,,,
2364.5,,recognition_phase,809225,Yakima,,49,,,,,old,1,1,,,,,,,,,,
null,,confidence_buffer,809326,confidence_buffer,,null,,,,,,,,,,,,,,,,,
null,,thebreak,809828,break,,null,,,,,,,,,,,,,,,,,
6453.400000035763,,realistic_rating,816282,Bozeman,,50,Bozeman,2,,,,,,,,,,,,,,,
null,,confidence_buffer,816383,confidence_buffer,,null,,,,,,,,,,,,,,,,,
39945.89999997616,,pt2_unique_rating,856331,Bozeman,,51,,3,,,,,,,,,,,,,,,
null,,confidence_buffer,856433,confidence_buffer,,null,,,,,,,,,,,,,,,,,
2640.800000011921,,pt2_memorable_rating,859075,Bozeman,,50,,2,,,,,,,,,,,,,,,
null,,confidence_buffer,859176,confidence_buffer,,null,,,,,,,,,,,,,,,,,
2190.800000011921,,recognition_phase,861368,Bozeman,,52,,,,,new,1,1,,,,,,,,,,
null,,confidence_buffer,861469,confidence_buffer,,null,,,,,,,,,,,,,,,,,
null,,thebreak,861970,break,,null,,,,,,,,,,,,,,,,,
3737.899999976158,,realistic_rating,865709,Dubuque,,51,Dubuque,3,,,,,,,,,,,,,,,
null,,confidence_buffer,865810,confidence_buffer,,null,,,,,,,,,,,,,,,,,
4121.600000023842,,pt2_unique_rating,869933,Dubuque,,53,,5,,,,,,,,,,,,,,,
null,,confidence_buffer,870035,confidence_buffer,,null,,,,,,,,,,,,,,,,,
3626.699999988079,,pt2_memorable_rating,873663,Dubuque,,53,,5,,,,,,,,,,,,,,,
null,,confidence_buffer,873764,confidence_buffer,,null,,,,,,,,,,,,,,,,,
2445.5,,recognition_phase,876210,Dubuque,,52,,,,,new,1,1,,,,,,,,,,
null,,confidence_buffer,876312,confidence_buffer,,null,,,,,,,,,,,,,,,,,
null,,thebreak,876813,break,,null,,,,,,,,,,,,,,,,,
2058.800000011921,,realistic_rating,878873,Carson City,,53,Carson City,5,,,,,,,,,,,,,,,
null,,confidence_buffer,878974,confidence_buffer,,null,,,,,,,,,,,,,,,,,
5698.5,,pt2_unique_rating,884674,Carson City,,49,,1,,,,,,,,,,,,,,,
null,,confidence_buffer,884775,confidence_buffer,,null,,,,,,,,,,,,,,,,,
2736.599999964237,,pt2_memorable_rating,887513,Carson City,,53,,5,,,,,,,,,,,,,,,
null,,confidence_buffer,887615,confidence_buffer,,null,,,,,,,,,,,,,,,,,
1137.3999999761581,,probe_rating,888753,probe_rating,,49,,,1,1,,,,,,,,,,,,,
null,,confidence_buffer,888855,confidence_buffer,,null,,,,,,,,,,,,,,,,,
2297.800000011921,,recognition_phase,891154,Carson City,,49,,,,,old,1,1,,,,,,,,,,
null,,confidence_buffer,891256,confidence_buffer,,null,,,,,,,,,,,,,,,,,
null,,thebreak,891757,break,,null,,,,,,,,,,,,,,,,,
4035.199999988079,,realistic_rating,895793,Ann Arbor,,50,Ann Arbor,2,,,,,,,,,,,,,,,
null,,confidence_buffer,895895,confidence_buffer,,null,,,,,,,,,,,,,,,,,
4256.699999988079,,pt2_unique_rating,900152,Ann Arbor,,49,,1,,,,,,,,,,,,,,,
null,,confidence_buffer,900254,confidence_buffer,,null,,,,,,,,,,,,,,,,,
3186.400000035763,,pt2_memorable_rating,903441,Ann Arbor,,53,,5,,,,,,,,,,,,,,,
null,,confidence_buffer,903543,confidence_buffer,,null,,,,,,,,,,,,,,,,,
2267.400000035763,,recognition_phase,905812,Ann Arbor,,52,,,,,new,1,1,,,,,,,,,,
null,,confidence_buffer,905913,confidence_buffer,,null,,,,,,,,,,,,,,,,,
null,,thebreak,906414,break,,null,,,,,,,,,,,,,,,,,
5196.100000023842,,realistic_rating,911611,Newport News,,49,Newport News,1,,,,,,,,,,,,,,,
null,,confidence_buffer,911713,confidence_buffer,,null,,,,,,,,,,,,,,,,,
22860.100000023842,,pt2_unique_rating,934574,Newport News,,49,,1,,,,,,,,,,,,,,,
null,,confidence_buffer,934676,confidence_buffer,,null,,,,,,,,,,,,,,,,,
3724.800000011921,,pt2_memorable_rating,938401,Newport News,,53,,5,,,,,,,,,,,,,,,
null,,confidence_buffer,938503,confidence_buffer,,null,,,,,,,,,,,,,,,,,
2293.5,,recognition_phase,940798,Newport News,,49,,,,,old,1,1,,,,,,,,,,
null,,confidence_buffer,940899,confidence_buffer,,null,,,,,,,,,,,,,,,,,
null,,thebreak,941400,break,,null,,,,,,,,,,,,,,,,,
2407.699999988079,,realistic_rating,943809,Reno,,53,Reno,5,,,,,,,,,,,,,,,
null,,confidence_buffer,943910,confidence_buffer,,null,,,,,,,,,,,,,,,,,
3647.5,,pt2_unique_rating,947558,Reno,,52,,4,,,,,,,,,,,,,,,
null,,confidence_buffer,947660,confidence_buffer,,null,,,,,,,,,,,,,,,,,
1214.699999988079,,pt2_memorable_rating,948876,Reno,,53,,5,,,,,,,,,,,,,,,
null,,confidence_buffer,948977,confidence_buffer,,null,,,,,,,,,,,,,,,,,
2433.699999988079,,recognition_phase,951412,Reno,,52,,,,,new,1,1,,,,,,,,,,
null,,confidence_buffer,951514,confidence_buffer,,null,,,,,,,,,,,,,,,,,
null,,thebreak,952015,break,,null,,,,,,,,,,,,,,,,,
1425.699999988079,,realistic_rating,953442,Topeka,,53,Topeka,5,,,,,,,,,,,,,,,
null,,confidence_buffer,953543,confidence_buffer,,null,,,,,,,,,,,,,,,,,
4287.5,,pt2_unique_rating,957832,Topeka,,53,,5,,,,,,,,,,,,,,,
null,,confidence_buffer,957934,confidence_buffer,,null,,,,,,,,,,,,,,,,,
1437.5,,pt2_memorable_rating,959372,Topeka,,53,,5,,,,,,,,,,,,,,,
null,,confidence_buffer,959474,confidence_buffer,,null,,,,,,,,,,,,,,,,,
1965.699999988079,,recognition_phase,961441,Topeka,,49,,,,,old,1,1,,,,,,,,,,
null,,confidence_buffer,961543,confidence_buffer,,null,,,,,,,,,,,,,,,,,
null,,thebreak,962044,break,,null,,,,,,,,,,,,,,,,,
3353.800000011921,,realistic_rating,965399,Toledo,,53,Toledo,5,,,,,,,,,,,,,,,
null,,confidence_buffer,965500,confidence_buffer,,null,,,,,,,,,,,,,,,,,
6593,,pt2_unique_rating,972095,Toledo,,53,,5,,,,,,,,,,,,,,,
null,,confidence_buffer,972196,confidence_buffer,,null,,,,,,,,,,,,,,,,,
1376.5999999642372,,probe_rating,973574,probe_rating,,50,,,2,1,,,,,,,,,,,,,
null,,confidence_buffer,973675,confidence_buffer,,null,,,,,,,,,,,,,,,,,
2116.599999964237,,pt2_memorable_rating,975793,Toledo,,53,,5,,,,,,,,,,,,,,,
null,,confidence_buffer,975894,confidence_buffer,,null,,,,,,,,,,,,,,,,,
1756.8999999761581,,recognition_phase,977652,Toledo,,49,,,,,old,1,1,,,,,,,,,,
null,,confidence_buffer,977754,confidence_buffer,,null,,,,,,,,,,,,,,,,,
null,,thebreak,978255,break,,null,,,,,,,,,,,,,,,,,
4057.800000011921,,realistic_rating,982314,Berkeley,,52,Berkeley,4,,,,,,,,,,,,,,,
null,,confidence_buffer,982416,confidence_buffer,,null,,,,,,,,,,,,,,,,,
3345.699999988079,,pt2_unique_rating,985762,Berkeley,,51,,3,,,,,,,,,,,,,,,
null,,confidence_buffer,985864,confidence_buffer,,null,,,,,,,,,,,,,,,,,
11008.5,,pt2_memorable_rating,996873,Berkeley,,52,,4,,,,,,,,,,,,,,,
null,,confidence_buffer,996975,confidence_buffer,,null,,,,,,,,,,,,,,,,,
1670.699999988079,,probe_rating,998647,probe_rating,,51,,,3,1,,,,,,,,,,,,,
null,,confidence_buffer,998748,confidence_buffer,,null,,,,,,,,,,,,,,,,,
2601.699999988079,,recognition_phase,1001351,Berkeley,,49,,,,,old,1,1,,,,,,,,,,
null,,confidence_buffer,1001452,confidence_buffer,,null,,,,,,,,,,,,,,,,,
null,,thebreak,1001953,break,,null,,,,,,,,,,,,,,,,,
6357.199999988079,,realistic_rating,1008312,Terre Haute,,50,Terre Haute,2,,,,,,,,,,,,,,,
null,,confidence_buffer,1008414,confidence_buffer,,null,,,,,,,,,,,,,,,,,
3856.599999964237,,pt2_unique_rating,1012271,Terre Haute,,53,,5,,,,,,,,,,,,,,,
null,,confidence_buffer,1012373,confidence_buffer,,null,,,,,,,,,,,,,,,,,
3438.699999988079,,pt2_memorable_rating,1015812,Terre Haute,,52,,4,,,,,,,,,,,,,,,
null,,confidence_buffer,1015914,confidence_buffer,,null,,,,,,,,,,,,,,,,,
2396.5,,recognition_phase,1018312,Terre Haute,,52,,,,,new,1,1,,,,,,,,,,
null,,confidence_buffer,1018413,confidence_buffer,,null,,,,,,,,,,,,,,,,,
null,,thebreak,1018914,break,,null,,,,,,,,,,,,,,,,,
5927.400000035763,,realistic_rating,1024842,Montpelier,,49,Montpelier,1,,,,,,,,,,,,,,,
null,,confidence_buffer,1024944,confidence_buffer,,null,,,,,,,,,,,,,,,,,
1378.5999999642372,,probe_rating,1026324,probe_rating,,50,,,2,1,,,,,,,,,,,,,
null,,confidence_buffer,1026425,confidence_buffer,,null,,,,,,,,,,,,,,,,,
2131.399999976158,,pt2_unique_rating,1028558,Montpelier,,53,,5,,,,,,,,,,,,,,,
null,,confidence_buffer,1028659,confidence_buffer,,null,,,,,,,,,,,,,,,,,
4862.699999988079,,pt2_memorable_rating,1033525,Montpelier,,51,,3,,,,,,,,,,,,,,,
null,,confidence_buffer,1033627,confidence_buffer,,null,,,,,,,,,,,,,,,,,
2211.099999964237,,recognition_phase,1035839,Montpelier,,49,,,,,old,1,1,,,,,,,,,,
null,,confidence_buffer,1035941,confidence_buffer,,null,,,,,,,,,,,,,,,,,
null,,thebreak,1036442,break,,null,,,,,,,,,,,,,,,,,
4596,,realistic_rating,1041038,Pasadena,,52,Pasadena,4,,,,,,,,,,,,,,,
null,,confidence_buffer,1041140,confidence_buffer,,null,,,,,,,,,,,,,,,,,
2702.100000023842,,pt2_unique_rating,1043843,Pasadena,,53,,5,,,,,,,,,,,,,,,
null,,confidence_buffer,1043944,confidence_buffer,,null,,,,,,,,,,,,,,,,,
1374.5,,pt2_memorable_rating,1045319,Pasadena,,53,,5,,,,,,,,,,,,,,,
null,,confidence_buffer,1045421,confidence_buffer,,null,,,,,,,,,,,,,,,,,
2171.5,,recognition_phase,1047593,Pasadena,,52,,,,,new,1,1,,,,,,,,,,
null,,confidence_buffer,1047695,confidence_buffer,,null,,,,,,,,,,,,,,,,,
null,,thebreak,1048196,break,,null,,,,,,,,,,,,,,,,,
4724.599999964237,,realistic_rating,1052922,Cheyenne,,52,Cheyenne,4,,,,,,,,,,,,,,,
null,,confidence_buffer,1053023,confidence_buffer,,null,,,,,,,,,,,,,,,,,
4540.700000047684,,pt2_unique_rating,1057565,Cheyenne,,51,,3,,,,,,,,,,,,,,,
null,,confidence_buffer,1057666,confidence_buffer,,null,,,,,,,,,,,,,,,,,
2092.400000035763,,pt2_memorable_rating,1059760,Cheyenne,,53,,5,,,,,,,,,,,,,,,
null,,confidence_buffer,1059862,confidence_buffer,,null,,,,,,,,,,,,,,,,,
2136.699999988079,,recognition_phase,1061999,Cheyenne,,52,,,,,new,1,1,,,,,,,,,,
null,,confidence_buffer,1062101,confidence_buffer,,null,,,,,,,,,,,,,,,,,
null,,thebreak,1062602,break,,null,,,,,,,,,,,,,,,,,
7390.5,,realistic_rating,1069993,Olympia,,53,Olympia,5,,,,,,,,,,,,,,,
null,,confidence_buffer,1070095,confidence_buffer,,null,,,,,,,,,,,,,,,,,
6502.800000011921,,pt2_unique_rating,1076599,Olympia,,50,,2,,,,,,,,,,,,,,,
null,,confidence_buffer,1076701,confidence_buffer,,null,,,,,,,,,,,,,,,,,
1655.6000000238419,,probe_rating,1078358,probe_rating,,51,,,3,1,,,,,,,,,,,,,
null,,confidence_buffer,1078460,confidence_buffer,,null,,,,,,,,,,,,,,,,,
1617,,pt2_memorable_rating,1080079,Olympia,,53,,5,,,,,,,,,,,,,,,
null,,confidence_buffer,1080180,confidence_buffer,,null,,,,,,,,,,,,,,,,,
1656.800000011921,,recognition_phase,1081838,Olympia,,49,,,,,old,1,1,,,,,,,,,,
null,,confidence_buffer,1081940,confidence_buffer,,null,,,,,,,,,,,,,,,,,
null,,thebreak,1082441,break,,null,,,,,,,,,,,,,,,,,
11564.599999964237,,realistic_rating,1094007,Frankfort,,52,Frankfort,4,,,,,,,,,,,,,,,
null,,confidence_buffer,1094109,confidence_buffer,,null,,,,,,,,,,,,,,,,,
4949.100000023842,,pt2_unique_rating,1099059,Frankfort,,50,,2,,,,,,,,,,,,,,,
null,,confidence_buffer,1099160,confidence_buffer,,null,,,,,,,,,,,,,,,,,
2770,,pt2_memorable_rating,1101931,Frankfort,,52,,4,,,,,,,,,,,,,,,
null,,confidence_buffer,1102032,confidence_buffer,,null,,,,,,,,,,,,,,,,,
3725.100000023842,,recognition_phase,1105759,Frankfort,,50,,,,,old,0,0.96,,,,,,,,,,
null,,confidence_buffer,1105861,confidence_buffer,,null,,,,,,,,,,,,,,,,,
null,,thebreak,1106362,break,,null,,,,,,,,,,,,,,,,,
4109,,realistic_rating,1110472,Norfolk,,53,Norfolk,5,,,,,,,,,,,,,,,
null,,confidence_buffer,1110574,confidence_buffer,,null,,,,,,,,,,,,,,,,,
2552.300000011921,,pt2_unique_rating,1113127,Norfolk,,52,,4,,,,,,,,,,,,,,,
null,,confidence_buffer,1113229,confidence_buffer,,null,,,,,,,,,,,,,,,,,
2161.5,,pt2_memorable_rating,1115391,Norfolk,,52,,4,,,,,,,,,,,,,,,
null,,confidence_buffer,1115493,confidence_buffer,,null,,,,,,,,,,,,,,,,,
1450.5999999642372,,recognition_phase,1116944,Norfolk,,49,,,,,old,1,0.9615384615384616,,,,,,,,,,
null,,confidence_buffer,1117046,confidence_buffer,,null,,,,,,,,,,,,,,,,,
null,,thebreak,1117547,break,,null,,,,,,,,,,,,,,,,,
3884.800000011921,,realistic_rating,1121433,Fort Collins,,52,Fort Collins,4,,,,,,,,,,,,,,,
null,,confidence_buffer,1121534,confidence_buffer,,null,,,,,,,,,,,,,,,,,
6558.800000011921,,pt2_unique_rating,1128094,Fort Collins,,50,,2,,,,,,,,,,,,,,,
null,,confidence_buffer,1128195,confidence_buffer,,null,,,,,,,,,,,,,,,,,
2736.7000000476837,,pt2_memorable_rating,1130933,Fort Collins,,51,,3,,,,,,,,,,,,,,,
null,,confidence_buffer,1131035,confidence_buffer,,null,,,,,,,,,,,,,,,,,
1477.8999999761581,,recognition_phase,1132514,Fort Collins,,49,,,,,old,1,0.9629629629629629,,,,,,,,,,
null,,confidence_buffer,1132615,confidence_buffer,,null,,,,,,,,,,,,,,,,,
null,,thebreak,1133116,break,,null,,,,,,,,,,,,,,,,,
2276.699999988079,,realistic_rating,1135393,Dover,,53,Dover,5,,,,,,,,,,,,,,,
null,,confidence_buffer,1135495,confidence_buffer,,null,,,,,,,,,,,,,,,,,
1396.5,,probe_rating,1136893,probe_rating,,49,,,1,1,,,,,,,,,,,,,
null,,confidence_buffer,1136994,confidence_buffer,,null,,,,,,,,,,,,,,,,,
2818.300000011921,,pt2_unique_rating,1139813,Dover,,52,,4,,,,,,,,,,,,,,,
null,,confidence_buffer,1139915,confidence_buffer,,null,,,,,,,,,,,,,,,,,
1096.7000000476837,,pt2_memorable_rating,1141013,Dover,,53,,5,,,,,,,,,,,,,,,
null,,confidence_buffer,1141114,confidence_buffer,,null,,,,,,,,,,,,,,,,,
1496.800000011921,,recognition_phase,1142612,Dover,,49,,,,,old,1,0.9642857142857143,,,,,,,,,,
null,,confidence_buffer,1142713,confidence_buffer,,null,,,,,,,,,,,,,,,,,
null,,thebreak,1143214,break,,null,,,,,,,,,,,,,,,,,
4476.600000023842,,realistic_rating,1147692,Cambridge,,53,Cambridge,5,,,,,,,,,,,,,,,
null,,confidence_buffer,1147793,confidence_buffer,,null,,,,,,,,,,,,,,,,,
3559.199999988079,,pt2_unique_rating,1151354,Cambridge,,52,,4,,,,,,,,,,,,,,,
null,,confidence_buffer,1151456,confidence_buffer,,null,,,,,,,,,,,,,,,,,
4048.899999976158,,pt2_memorable_rating,1155507,Cambridge,,52,,4,,,,,,,,,,,,,,,
null,,confidence_buffer,1155609,confidence_buffer,,null,,,,,,,,,,,,,,,,,
2135.7999999523163,,recognition_phase,1157746,Cambridge,,52,,,,,new,1,0.9655172413793104,,,,,,,,,,
null,,confidence_buffer,1157848,confidence_buffer,,null,,,,,,,,,,,,,,,,,
null,,thebreak,1158349,break,,null,,,,,,,,,,,,,,,,,
6276.5,,realistic_rating,1164627,Athens,,53,Athens,5,,,,,,,,,,,,,,,
null,,confidence_buffer,1164728,confidence_buffer,,null,,,,,,,,,,,,,,,,,
5697,,pt2_unique_rating,1170426,Athens,,52,,4,,,,,,,,,,,,,,,
null,,confidence_buffer,1170528,confidence_buffer,,null,,,,,,,,,,,,,,,,,
1824.699999988079,,pt2_memorable_rating,1172353,Athens,,53,,5,,,,,,,,,,,,,,,
null,,confidence_buffer,1172455,confidence_buffer,,null,,,,,,,,,,,,,,,,,
1931.5999999642372,,recognition_phase,1174388,Athens,,52,,,,,new,1,0.9666666666666667,,,,,,,,,,
null,,confidence_buffer,1174489,confidence_buffer,,null,,,,,,,,,,,,,,,,,
null,,thebreak,1174990,break,,null,,,,,,,,,,,,,,,,,
4443.800000011921,,realistic_rating,1179434,Helena,,52,Helena,4,,,,,,,,,,,,,,,
null,,confidence_buffer,1179536,confidence_buffer,,null,,,,,,,,,,,,,,,,,
6887.800000011921,,pt2_unique_rating,1186425,Helena,,51,,3,,,,,,,,,,,,,,,
null,,confidence_buffer,1186526,confidence_buffer,,null,,,,,,,,,,,,,,,,,
2576.699999988079,,pt2_memorable_rating,1189104,Helena,,52,,4,,,,,,,,,,,,,,,
null,,confidence_buffer,1189205,confidence_buffer,,null,,,,,,,,,,,,,,,,,
1540,,recognition_phase,1190747,Helena,,49,,,,,old,1,0.967741935483871,,,,,,,,,,
null,,confidence_buffer,1190849,confidence_buffer,,null,,,,,,,,,,,,,,,,,
null,,thebreak,1191349,break,,null,,,,,,,,,,,,,,,,,
2824,,realistic_rating,1194174,Boise,,53,Boise,5,,,,,,,,,,,,,,,
null,,confidence_buffer,1194276,confidence_buffer,,null,,,,,,,,,,,,,,,,,
4235.800000011921,,pt2_unique_rating,1198513,Boise,,52,,4,,,,,,,,,,,,,,,
null,,confidence_buffer,1198615,confidence_buffer,,null,,,,,,,,,,,,,,,,,
1536.5999999642372,,pt2_memorable_rating,1200153,Boise,,53,,5,,,,,,,,,,,,,,,
null,,confidence_buffer,1200254,confidence_buffer,,null,,,,,,,,,,,,,,,,,
1658.1000000238419,,probe_rating,1201913,probe_rating,,53,,,5,1,,,,,,,,,,,,,
null,,confidence_buffer,1202014,confidence_buffer,,null,,,,,,,,,,,,,,,,,
1618.800000011921,,recognition_phase,1203634,Boise,,49,,,,,old,1,0.96875,,,,,,,,,,
null,,confidence_buffer,1203735,confidence_buffer,,null,,,,,,,,,,,,,,,,,
null,,thebreak,1204236,break,,null,,,,,,,,,,,,,,,,,
8176.5,,realistic_rating,1212414,Boulder,,51,Boulder,3,,,,,,,,,,,,,,,
null,,confidence_buffer,1212515,confidence_buffer,,null,,,,,,,,,,,,,,,,,
2597.5,,pt2_unique_rating,1215114,Boulder,,52,,4,,,,,,,,,,,,,,,
null,,confidence_buffer,1215215,confidence_buffer,,null,,,,,,,,,,,,,,,,,
1136,,pt2_memorable_rating,1216354,Boulder,,53,,5,,,,,,,,,,,,,,,
null,,confidence_buffer,1216455,confidence_buffer,,null,,,,,,,,,,,,,,,,,
1677.5,,recognition_phase,1218133,Boulder,,52,,,,,new,1,0.9696969696969697,,,,,,,,,,
null,,confidence_buffer,1218235,confidence_buffer,,null,,,,,,,,,,,,,,,,,
null,,thebreak,1218736,break,,null,,,,,,,,,,,,,,,,,
2096.7999999523163,,realistic_rating,1220834,Salem,,53,Salem,5,,,,,,,,,,,,,,,
null,,confidence_buffer,1220935,confidence_buffer,,null,,,,,,,,,,,,,,,,,
1557.800000011921,,pt2_unique_rating,1222494,Salem,,53,,5,,,,,,,,,,,,,,,
null,,confidence_buffer,1222595,confidence_buffer,,null,,,,,,,,,,,,,,,,,
1166.8999999761581,,pt2_memorable_rating,1223763,Salem,,53,,5,,,,,,,,,,,,,,,
null,,confidence_buffer,1223864,confidence_buffer,,null,,,,,,,,,,,,,,,,,
1508.800000011921,,recognition_phase,1225374,Salem,,49,,,,,old,1,0.9705882352941176,,,,,,,,,,
null,,confidence_buffer,1225476,confidence_buffer,,null,,,,,,,,,,,,,,,,,
null,,thebreak,1225977,break,,null,,,,,,,,,,,,,,,,,
5982.899999976158,,realistic_rating,1231961,Gainesville,,53,Gainesville,5,,,,,,,,,,,,,,,
null,,confidence_buffer,1232063,confidence_buffer,,null,,,,,,,,,,,,,,,,,
3592.400000035763,,pt2_unique_rating,1235656,Gainesville,,51,,3,,,,,,,,,,,,,,,
null,,confidence_buffer,1235758,confidence_buffer,,null,,,,,,,,,,,,,,,,,
1894.8999999761581,,pt2_memorable_rating,1237653,Gainesville,,52,,4,,,,,,,,,,,,,,,
null,,confidence_buffer,1237754,confidence_buffer,,null,,,,,,,,,,,,,,,,,
1558.300000011921,,recognition_phase,1239313,Gainesville,,52,,,,,new,1,0.9714285714285714,,,,,,,,,,
null,,confidence_buffer,1239415,confidence_buffer,,null,,,,,,,,,,,,,,,,,
null,,thebreak,1239916,break,,null,,,,,,,,,,,,,,,,,
5332.099999964237,,realistic_rating,1245249,Hagerstown,,51,Hagerstown,3,,,,,,,,,,,,,,,
null,,confidence_buffer,1245351,confidence_buffer,,null,,,,,,,,,,,,,,,,,
4950.200000047684,,pt2_unique_rating,1250302,Hagerstown,,50,,2,,,,,,,,,,,,,,,
null,,confidence_buffer,1250404,confidence_buffer,,null,,,,,,,,,,,,,,,,,
4587.699999988079,,pt2_memorable_rating,1254993,Hagerstown,,50,,2,,,,,,,,,,,,,,,
null,,confidence_buffer,1255095,confidence_buffer,,null,,,,,,,,,,,,,,,,,
1898.5,,recognition_phase,1256994,Hagerstown,,52,,,,,new,1,0.9722222222222222,,,,,,,,,,
null,,confidence_buffer,1257096,confidence_buffer,,null,,,,,,,,,,,,,,,,,
null,,thebreak,1257597,break,,null,,,,,,,,,,,,,,,,,
3678.900000035763,,realistic_rating,1261277,Fargo,,53,Fargo,5,,,,,,,,,,,,,,,
null,,confidence_buffer,1261378,confidence_buffer,,null,,,,,,,,,,,,,,,,,
3744.800000011921,,pt2_unique_rating,1265124,Fargo,,52,,4,,,,,,,,,,,,,,,
null,,confidence_buffer,1265225,confidence_buffer,,null,,,,,,,,,,,,,,,,,
1488.8999999761581,,pt2_memorable_rating,1266714,Fargo,,53,,5,,,,,,,,,,,,,,,
null,,confidence_buffer,1266816,confidence_buffer,,null,,,,,,,,,,,,,,,,,
1916.699999988079,,recognition_phase,1268734,Fargo,,52,,,,,new,1,0.972972972972973,,,,,,,,,,
null,,confidence_buffer,1268835,confidence_buffer,,null,,,,,,,,,,,,,,,,,
null,,thebreak,1269336,break,,null,,,,,,,,,,,,,,,,,
5756.400000035763,,realistic_rating,1275094,New Haven,,51,New Haven,3,,,,,,,,,,,,,,,
null,,confidence_buffer,1275195,confidence_buffer,,null,,,,,,,,,,,,,,,,,
18838.30000001192,,pt2_unique_rating,1294035,New Haven,,50,,2,,,,,,,,,,,,,,,
null,,confidence_buffer,1294137,confidence_buffer,,null,,,,,,,,,,,,,,,,,
2236,,pt2_memorable_rating,1296374,New Haven,,53,,5,,,,,,,,,,,,,,,
null,,confidence_buffer,1296475,confidence_buffer,,null,,,,,,,,,,,,,,,,,
1617.6000000238419,,recognition_phase,1298094,New Haven,,52,,,,,new,1,0.9736842105263158,,,,,,,,,,
null,,confidence_buffer,1298195,confidence_buffer,,null,,,,,,,,,,,,,,,,,
null,,thebreak,1298696,break,,null,,,,,,,,,,,,,,,,,
5346.199999988079,,realistic_rating,1304043,Bellingham,,52,Bellingham,4,,,,,,,,,,,,,,,
null,,confidence_buffer,1304145,confidence_buffer,,null,,,,,,,,,,,,,,,,,
3368,,pt2_unique_rating,1307514,Bellingham,,51,,3,,,,,,,,,,,,,,,
null,,confidence_buffer,1307615,confidence_buffer,,null,,,,,,,,,,,,,,,,,
2979.199999988079,,pt2_memorable_rating,1310595,Bellingham,,51,,3,,,,,,,,,,,,,,,
null,,confidence_buffer,1310697,confidence_buffer,,null,,,,,,,,,,,,,,,,,
1629.6000000238419,,recognition_phase,1312328,Bellingham,,49,,,,,old,1,0.9743589743589743,,,,,,,,,,
null,,confidence_buffer,1312430,confidence_buffer,,null,,,,,,,,,,,,,,,,,
null,,thebreak,1312931,break,,null,,,,,,,,,,,,,,,,,
5042.300000011921,,realistic_rating,1317975,Tallahassee,,52,Tallahassee,4,,,,,,,,,,,,,,,
null,,confidence_buffer,1318076,confidence_buffer,,null,,,,,,,,,,,,,,,,,
1675.6000000238419,,pt2_unique_rating,1319752,Tallahassee,,53,,5,,,,,,,,,,,,,,,
null,,confidence_buffer,1319854,confidence_buffer,,null,,,,,,,,,,,,,,,,,
4099.5,,pt2_memorable_rating,1323955,Tallahassee,,53,,5,,,,,,,,,,,,,,,
null,,confidence_buffer,1324057,confidence_buffer,,null,,,,,,,,,,,,,,,,,
1792.1000000238419,,recognition_phase,1325850,Tallahassee,,51,,,,,new,1,0.975,,,,,,,,,,
null,,confidence_buffer,1325951,confidence_buffer,,null,,,,,,,,,,,,,,,,,
null,,thebreak,1326452,break,,null,,,,,,,,,,,,,,,,,
4419.300000011921,,realistic_rating,1330872,Pueblo,,51,Pueblo,3,,,,,,,,,,,,,,,
null,,confidence_buffer,1330974,confidence_buffer,,null,,,,,,,,,,,,,,,,,
3625.800000011921,,pt2_unique_rating,1334601,Pueblo,,52,,4,,,,,,,,,,,,,,,
null,,confidence_buffer,1334703,confidence_buffer,,null,,,,,,,,,,,,,,,,,
3848.5,,pt2_memorable_rating,1338553,Pueblo,,51,,3,,,,,,,,,,,,,,,
null,,confidence_buffer,1338654,confidence_buffer,,null,,,,,,,,,,,,,,,,,
1348,,recognition_phase,1340003,Pueblo,,49,,,,,old,1,0.975609756097561,,,,,,,,,,
null,,confidence_buffer,1340105,confidence_buffer,,null,,,,,,,,,,,,,,,,,
null,,thebreak,1340606,break,,null,,,,,,,,,,,,,,,,,
5066.099999964237,,realistic_rating,1345673,Altoona,,51,Altoona,3,,,,,,,,,,,,,,,
null,,confidence_buffer,1345775,confidence_buffer,,null,,,,,,,,,,,,,,,,,
1656.8999999761581,,pt2_unique_rating,1347433,Altoona,,53,,5,,,,,,,,,,,,,,,
null,,confidence_buffer,1347534,confidence_buffer,,null,,,,,,,,,,,,,,,,,
2259.399999976158,,pt2_memorable_rating,1349795,Altoona,,52,,4,,,,,,,,,,,,,,,
null,,confidence_buffer,1349896,confidence_buffer,,null,,,,,,,,,,,,,,,,,
1341.6000000238419,,recognition_phase,1351239,Altoona,,49,,,,,old,1,0.9761904761904762,,,,,,,,,,
null,,confidence_buffer,1351340,confidence_buffer,,null,,,,,,,,,,,,,,,,,
null,,thebreak,1351841,break,,null,,,,,,,,,,,,,,,,,
5030.5,,realistic_rating,1356874,Ithaca,,52,Ithaca,4,,,,,,,,,,,,,,,
null,,confidence_buffer,1356976,confidence_buffer,,null,,,,,,,,,,,,,,,,,
1017.3000000119209,,pt2_unique_rating,1357994,Ithaca,,53,,5,,,,,,,,,,,,,,,
null,,confidence_buffer,1358096,confidence_buffer,,null,,,,,,,,,,,,,,,,,
1639.800000011921,,pt2_memorable_rating,1359736,Ithaca,,53,,5,,,,,,,,,,,,,,,
null,,confidence_buffer,1359838,confidence_buffer,,null,,,,,,,,,,,,,,,,,
1954.6000000238419,,recognition_phase,1361793,Ithaca,,52,,,,,new,1,0.9767441860465116,,,,,,,,,,
null,,confidence_buffer,1361895,confidence_buffer,,null,,,,,,,,,,,,,,,,,
null,,thebreak,1362396,break,,null,,,,,,,,,,,,,,,,,
6624.199999988079,,realistic_rating,1369021,Peoria,,51,Peoria,3,,,,,,,,,,,,,,,
null,,confidence_buffer,1369123,confidence_buffer,,null,,,,,,,,,,,,,,,,,
1373.8999999761581,,pt2_unique_rating,1370498,Peoria,,53,,5,,,,,,,,,,,,,,,
null,,confidence_buffer,1370599,confidence_buffer,,null,,,,,,,,,,,,,,,,,
2755.5,,pt2_memorable_rating,1373356,Peoria,,52,,4,,,,,,,,,,,,,,,
null,,confidence_buffer,1373457,confidence_buffer,,null,,,,,,,,,,,,,,,,,
1524.1000000238419,,recognition_phase,1374982,Peoria,,52,,,,,new,1,0.9772727272727273,,,,,,,,,,
null,,confidence_buffer,1375083,confidence_buffer,,null,,,,,,,,,,,,,,,,,
null,,thebreak,1375584,break,,null,,,,,,,,,,,,,,,,,
4411.399999976158,,realistic_rating,1379997,Decatur,,51,Decatur,3,,,,,,,,,,,,,,,
null,,confidence_buffer,1380098,confidence_buffer,,null,,,,,,,,,,,,,,,,,
2236.900000035763,,pt2_unique_rating,1382336,Decatur,,52,,4,,,,,,,,,,,,,,,
null,,confidence_buffer,1382439,confidence_buffer,,null,,,,,,,,,,,,,,,,,
2298.600000023842,,pt2_memorable_rating,1384738,Decatur,,51,,3,,,,,,,,,,,,,,,
null,,confidence_buffer,1384840,confidence_buffer,,null,,,,,,,,,,,,,,,,,
1713.5999999642372,,recognition_phase,1386554,Decatur,,49,,,,,old,1,0.9777777777777777,,,,,,,,,,
null,,confidence_buffer,1386656,confidence_buffer,,null,,,,,,,,,,,,,,,,,
null,,thebreak,1387157,break,,null,,,,,,,,,,,,,,,,,
2368.800000011921,,realistic_rating,1389526,Concord,,53,Concord,5,,,,,,,,,,,,,,,
null,,confidence_buffer,1389628,confidence_buffer,,null,,,,,,,,,,,,,,,,,
5462.800000011921,,pt2_unique_rating,1395091,Concord,,51,,3,,,,,,,,,,,,,,,
null,,confidence_buffer,1395193,confidence_buffer,,null,,,,,,,,,,,,,,,,,
1696.8999999761581,,probe_rating,1396891,probe_rating,,51,,,3,1,,,,,,,,,,,,,
null,,confidence_buffer,1396992,confidence_buffer,,null,,,,,,,,,,,,,,,,,
1557.8999999761581,,pt2_memorable_rating,1398551,Concord,,53,,5,,,,,,,,,,,,,,,
null,,confidence_buffer,1398652,confidence_buffer,,null,,,,,,,,,,,,,,,,,
1073.4000000357628,,recognition_phase,1399727,Concord,,49,,,,,old,1,0.9782608695652174,,,,,,,,,,
null,,confidence_buffer,1399828,confidence_buffer,,null,,,,,,,,,,,,,,,,,
null,,thebreak,1400329,break,,null,,,,,,,,,,,,,,,,,
4686.899999976158,,realistic_rating,1405017,Syracuse,,52,Syracuse,4,,,,,,,,,,,,,,,
null,,confidence_buffer,1405118,confidence_buffer,,null,,,,,,,,,,,,,,,,,
1282.3999999761581,,pt2_unique_rating,1406402,Syracuse,,53,,5,,,,,,,,,,,,,,,
null,,confidence_buffer,1406502,confidence_buffer,,null,,,,,,,,,,,,,,,,,
1776.699999988079,,pt2_memorable_rating,1408280,Syracuse,,53,,5,,,,,,,,,,,,,,,
null,,confidence_buffer,1408382,confidence_buffer,,null,,,,,,,,,,,,,,,,,
1636,,recognition_phase,1410018,Syracuse,,52,,,,,new,1,0.9787234042553191,,,,,,,,,,
null,,confidence_buffer,1410120,confidence_buffer,,null,,,,,,,,,,,,,,,,,
null,,thebreak,1410621,break,,null,,,,,,,,,,,,,,,,,
6159.199999988079,,realistic_rating,1416781,Marquette,,51,Marquette,3,,,,,,,,,,,,,,,
null,,confidence_buffer,1416884,confidence_buffer,,null,,,,,,,,,,,,,,,,,
2177.599999964237,,pt2_unique_rating,1419063,Marquette,,52,,4,,,,,,,,,,,,,,,
null,,confidence_buffer,1419164,confidence_buffer,,null,,,,,,,,,,,,,,,,,
3116.600000023842,,pt2_memorable_rating,1422282,Marquette,,51,,3,,,,,,,,,,,,,,,
null,,confidence_buffer,1422383,confidence_buffer,,null,,,,,,,,,,,,,,,,,
1108.8999999761581,,recognition_phase,1423493,Marquette,,49,,,,,old,1,0.9791666666666666,,,,,,,,,,
null,,confidence_buffer,1423595,confidence_buffer,,null,,,,,,,,,,,,,,,,,
null,,thebreak,1424096,break,,null,,,,,,,,,,,,,,,,,
2737.399999976158,,realistic_rating,1426835,Youngstown,,53,Youngstown,5,,,,,,,,,,,,,,,
null,,confidence_buffer,1426937,confidence_buffer,,null,,,,,,,,,,,,,,,,,
4223.800000011921,,pt2_unique_rating,1431161,Youngstown,,49,,1,,,,,,,,,,,,,,,
null,,confidence_buffer,1431264,confidence_buffer,,null,,,,,,,,,,,,,,,,,
4677.699999988079,,pt2_memorable_rating,1435943,Youngstown,,51,,3,,,,,,,,,,,,,,,
null,,confidence_buffer,1436045,confidence_buffer,,null,,,,,,,,,,,,,,,,,
1479.9000000357628,,recognition_phase,1437526,Youngstown,,49,,,,,old,1,0.9795918367346939,,,,,,,,,,
null,,confidence_buffer,1437628,confidence_buffer,,null,,,,,,,,,,,,,,,,,
null,,thebreak,1438129,break,,null,,,,,,,,,,,,,,,,,
6964.600000023842,,realistic_rating,1445095,Annapolis,,51,Annapolis,3,,,,,,,,,,,,,,,
null,,confidence_buffer,1445196,confidence_buffer,,null,,,,,,,,,,,,,,,,,
3733.5,,pt2_unique_rating,1448930,Annapolis,,51,,3,,,,,,,,,,,,,,,
null,,confidence_buffer,1449032,confidence_buffer,,null,,,,,,,,,,,,,,,,,
2742.7999999523163,,pt2_memorable_rating,1451776,Annapolis,,51,,3,,,,,,,,,,,,,,,
null,,confidence_buffer,1451878,confidence_buffer,,null,,,,,,,,,,,,,,,,,
1373.5,,probe_rating,1453252,probe_rating,,49,,,1,1,,,,,,,,,,,,,
null,,confidence_buffer,1453354,confidence_buffer,,null,,,,,,,,,,,,,,,,,
4025.800000011921,,recognition_phase,1457380,Annapolis,,51,,,,,new,1,0.98,,,,,,,,,,
null,,confidence_buffer,1457482,confidence_buffer,,null,,,,,,,,,,,,,,,,,
null,,thebreak,1457983,break,,null,,,,,,,,,,,,,,,,,
,,survey,1754782,survey-questions,,,,,,,,,,none,high,No; I was concentrated fully on the study alone.,I just went with what I knew and what I didn't; my gut instincts and how I felt.,If a name seemed familiar; or one that I knew for sure; I went with familiar.,If a name was one that wasn't easy to forget; I went with memorable. But if it was plain or ordinary; I went the opposite way.,A unique name is just that: a word you don't see often and not many words resemble it.,Realistic; I went with what felt like it would be appropriate to name a city.,I don't recall this specific study; but I do know I have done many studies from Aaron on MTurk over the years.,Nothing comes to mind. Thank you.
