rt,responses,trial_type,time_elapsed,stimulus,button_pressed,key_press,name_trial,rating,probe,probe_accuracy,response,correct,accuracy,problems,smooth,distraction,strategies,familiar,memorable,unique,realistic,similar,comments
2431,{worker_id:62b628e4351d179f1ff6cc59},id_enter,2433,,,,,,,,,,,,,,,,,,,,
1062.3999999985099,,fullscreen,3500,fullscreen,0,,,,,,,,,,,,,,,,,,
677.8999999985099,,intro_0,4181,instruct,,32,,,,,,,,,,,,,,,,,
1000.1000000014901,,intro_1,5183,instruct,,32,,,,,,,,,,,,,,,,,
383.5,,intro_2,5568,instruct,,32,,,,,,,,,,,,,,,,,
null,,instruct_dir_4,7086,instruct,,null,,,,,,,,,,,,,,,,,
null,,thebreak,7595,break,,null,,,,,,,,,,,,,,,,,
2149.7999999970198,,familiar_rating,9747,Newport News,,53,Newport News,5,,,,,,,,,,,,,,,
null,,confidence_buffer,9851,confidence_buffer,,null,,,,,,,,,,,,,,,,,
604.6000000014901,,unique_rating,10457,Newport News,,53,,5,,,,,,,,,,,,,,,
null,,confidence_buffer,10574,confidence_buffer,,null,,,,,,,,,,,,,,,,,
403.1000000014901,,memorable_rating,10979,Newport News,,53,,5,,,,,,,,,,,,,,,
null,,confidence_buffer,11093,confidence_buffer,,null,,,,,,,,,,,,,,,,,
null,,thebreak,11603,break,,null,,,,,,,,,,,,,,,,,
1026.2999999970198,,familiar_rating,12630,Athens,,53,Athens,5,,,,,,,,,,,,,,,
null,,confidence_buffer,12740,confidence_buffer,,null,,,,,,,,,,,,,,,,,
528,,unique_rating,13270,Athens,,53,,5,,,,,,,,,,,,,,,
null,,confidence_buffer,13376,confidence_buffer,,null,,,,,,,,,,,,,,,,,
413.6000000014901,,memorable_rating,13791,Athens,,53,,5,,,,,,,,,,,,,,,
null,,confidence_buffer,13906,confidence_buffer,,null,,,,,,,,,,,,,,,,,
null,,thebreak,14408,break,,null,,,,,,,,,,,,,,,,,
1603,,familiar_rating,16012,Norfolk,,53,Norfolk,5,,,,,,,,,,,,,,,
null,,confidence_buffer,16126,confidence_buffer,,null,,,,,,,,,,,,,,,,,
519.7000000029802,,unique_rating,16647,Norfolk,,53,,5,,,,,,,,,,,,,,,
null,,confidence_buffer,16756,confidence_buffer,,null,,,,,,,,,,,,,,,,,
448.29999999701977,,memorable_rating,17206,Norfolk,,53,,5,,,,,,,,,,,,,,,
null,,confidence_buffer,17313,confidence_buffer,,null,,,,,,,,,,,,,,,,,
1135.6000000014901,,probe_rating,18450,probe_rating,,50,,,2,1,,,,,,,,,,,,,
null,,confidence_buffer,18559,confidence_buffer,,null,,,,,,,,,,,,,,,,,
null,,thebreak,19075,break,,null,,,,,,,,,,,,,,,,,
320.8999999985099,,familiar_rating,19398,Salem,,53,Salem,5,,,,,,,,,,,,,,,
null,,confidence_buffer,19501,confidence_buffer,,null,,,,,,,,,,,,,,,,,
468.30000000447035,,unique_rating,19970,Salem,,53,,5,,,,,,,,,,,,,,,
null,,confidence_buffer,20087,confidence_buffer,,null,,,,,,,,,,,,,,,,,
905.6000000014901,,probe_rating,20994,probe_rating,,49,,,1,1,,,,,,,,,,,,,
null,,confidence_buffer,21103,confidence_buffer,,null,,,,,,,,,,,,,,,,,
474.8999999985099,,memorable_rating,21580,Salem,,53,,5,,,,,,,,,,,,,,,
null,,confidence_buffer,21684,confidence_buffer,,null,,,,,,,,,,,,,,,,,
null,,thebreak,22186,break,,null,,,,,,,,,,,,,,,,,
381.8999999985099,,familiar_rating,22569,Ann Arbor,,53,Ann Arbor,5,,,,,,,,,,,,,,,
null,,confidence_buffer,22683,confidence_buffer,,null,,,,,,,,,,,,,,,,,
411.1000000014901,,unique_rating,23095,Ann Arbor,,53,,5,,,,,,,,,,,,,,,
null,,confidence_buffer,23210,confidence_buffer,,null,,,,,,,,,,,,,,,,,
457.1000000014901,,memorable_rating,23669,Ann Arbor,,53,,5,,,,,,,,,,,,,,,
null,,confidence_buffer,23773,confidence_buffer,,null,,,,,,,,,,,,,,,,,
null,,thebreak,24288,break,,null,,,,,,,,,,,,,,,,,
326.80000000447035,,familiar_rating,24617,Concord,,53,Concord,5,,,,,,,,,,,,,,,
null,,confidence_buffer,24724,confidence_buffer,,null,,,,,,,,,,,,,,,,,
402,,unique_rating,25128,Concord,,53,,5,,,,,,,,,,,,,,,
null,,confidence_buffer,25241,confidence_buffer,,null,,,,,,,,,,,,,,,,,
463.1000000014901,,memorable_rating,25705,Concord,,53,,5,,,,,,,,,,,,,,,
null,,confidence_buffer,25811,confidence_buffer,,null,,,,,,,,,,,,,,,,,
null,,thebreak,26320,break,,null,,,,,,,,,,,,,,,,,
379.3999999985099,,familiar_rating,26701,Pasadena,,53,Pasadena,5,,,,,,,,,,,,,,,
null,,confidence_buffer,26815,confidence_buffer,,null,,,,,,,,,,,,,,,,,
454.59999999403954,,unique_rating,27271,Pasadena,,53,,5,,,,,,,,,,,,,,,
null,,confidence_buffer,27383,confidence_buffer,,null,,,,,,,,,,,,,,,,,
528.5,,memorable_rating,27914,Pasadena,,53,,5,,,,,,,,,,,,,,,
null,,confidence_buffer,28018,confidence_buffer,,null,,,,,,,,,,,,,,,,,
null,,thebreak,28535,break,,null,,,,,,,,,,,,,,,,,
409.70000000298023,,familiar_rating,28946,Fort Wayne,,53,Fort Wayne,5,,,,,,,,,,,,,,,
null,,confidence_buffer,29061,confidence_buffer,,null,,,,,,,,,,,,,,,,,
467.6000000014901,,unique_rating,29530,Fort Wayne,,53,,5,,,,,,,,,,,,,,,
null,,confidence_buffer,29638,confidence_buffer,,null,,,,,,,,,,,,,,,,,
482.90000000596046,,memorable_rating,30122,Fort Wayne,,53,,5,,,,,,,,,,,,,,,
null,,confidence_buffer,30237,confidence_buffer,,null,,,,,,,,,,,,,,,,,
null,,thebreak,30750,break,,null,,,,,,,,,,,,,,,,,
384.80000000447035,,familiar_rating,31136,Toledo,,53,Toledo,5,,,,,,,,,,,,,,,
null,,confidence_buffer,31243,confidence_buffer,,null,,,,,,,,,,,,,,,,,
1134.2999999970198,,probe_rating,32379,probe_rating,,51,,,3,1,,,,,,,,,,,,,
null,,confidence_buffer,32486,confidence_buffer,,null,,,,,,,,,,,,,,,,,
593.5,,unique_rating,33081,Toledo,,53,,5,,,,,,,,,,,,,,,
null,,confidence_buffer,33194,confidence_buffer,,null,,,,,,,,,,,,,,,,,
441.90000000596046,,memorable_rating,33638,Toledo,,53,,5,,,,,,,,,,,,,,,
null,,confidence_buffer,33755,confidence_buffer,,null,,,,,,,,,,,,,,,,,
null,,thebreak,34264,break,,null,,,,,,,,,,,,,,,,,
397.1000000014901,,familiar_rating,34663,Santa Monica,,53,Santa Monica,5,,,,,,,,,,,,,,,
null,,confidence_buffer,34768,confidence_buffer,,null,,,,,,,,,,,,,,,,,
414.8999999985099,,unique_rating,35184,Santa Monica,,53,,5,,,,,,,,,,,,,,,
null,,confidence_buffer,35289,confidence_buffer,,null,,,,,,,,,,,,,,,,,
515.1999999955297,,memorable_rating,35805,Santa Monica,,53,,5,,,,,,,,,,,,,,,
null,,confidence_buffer,35913,confidence_buffer,,null,,,,,,,,,,,,,,,,,
null,,thebreak,36419,break,,null,,,,,,,,,,,,,,,,,
438.6000000014901,,familiar_rating,36859,Youngstown,,53,Youngstown,5,,,,,,,,,,,,,,,
null,,confidence_buffer,36963,confidence_buffer,,null,,,,,,,,,,,,,,,,,
472.8999999985099,,unique_rating,37438,Youngstown,,53,,5,,,,,,,,,,,,,,,
null,,confidence_buffer,37546,confidence_buffer,,null,,,,,,,,,,,,,,,,,
535.9000000059605,,memorable_rating,38084,Youngstown,,53,,5,,,,,,,,,,,,,,,
null,,confidence_buffer,38187,confidence_buffer,,null,,,,,,,,,,,,,,,,,
null,,thebreak,38689,break,,null,,,,,,,,,,,,,,,,,
835.6999999955297,,familiar_rating,39525,Helena,,53,Helena,5,,,,,,,,,,,,,,,
null,,confidence_buffer,39628,confidence_buffer,,null,,,,,,,,,,,,,,,,,
551.6999999955297,,unique_rating,40181,Helena,,53,,5,,,,,,,,,,,,,,,
null,,confidence_buffer,40294,confidence_buffer,,null,,,,,,,,,,,,,,,,,
519.2999999970198,,memorable_rating,40815,Helena,,53,,5,,,,,,,,,,,,,,,
null,,confidence_buffer,40926,confidence_buffer,,null,,,,,,,,,,,,,,,,,
null,,thebreak,41435,break,,null,,,,,,,,,,,,,,,,,
437.70000000298023,,familiar_rating,41874,Yakima,,53,Yakima,5,,,,,,,,,,,,,,,
null,,confidence_buffer,41980,confidence_buffer,,null,,,,,,,,,,,,,,,,,
464.1000000014901,,unique_rating,42446,Yakima,,53,,5,,,,,,,,,,,,,,,
null,,confidence_buffer,42552,confidence_buffer,,null,,,,,,,,,,,,,,,,,
526.5,,memorable_rating,43080,Yakima,,53,,5,,,,,,,,,,,,,,,
null,,confidence_buffer,43186,confidence_buffer,,null,,,,,,,,,,,,,,,,,
null,,thebreak,43695,break,,null,,,,,,,,,,,,,,,,,
473.80000000447035,,familiar_rating,44171,Terre Haute,,53,Terre Haute,5,,,,,,,,,,,,,,,
null,,confidence_buffer,44284,confidence_buffer,,null,,,,,,,,,,,,,,,,,
542,,unique_rating,44827,Terre Haute,,53,,5,,,,,,,,,,,,,,,
null,,confidence_buffer,44935,confidence_buffer,,null,,,,,,,,,,,,,,,,,
591,,memorable_rating,45527,Terre Haute,,53,,5,,,,,,,,,,,,,,,
null,,confidence_buffer,45641,confidence_buffer,,null,,,,,,,,,,,,,,,,,
null,,thebreak,46148,break,,null,,,,,,,,,,,,,,,,,
596.7999999970198,,familiar_rating,46746,Reno,,53,Reno,5,,,,,,,,,,,,,,,
null,,confidence_buffer,46849,confidence_buffer,,null,,,,,,,,,,,,,,,,,
587,,unique_rating,47438,Reno,,53,,5,,,,,,,,,,,,,,,
null,,confidence_buffer,47554,confidence_buffer,,null,,,,,,,,,,,,,,,,,
499.6000000014901,,memorable_rating,48055,Reno,,53,,5,,,,,,,,,,,,,,,
null,,confidence_buffer,48165,confidence_buffer,,null,,,,,,,,,,,,,,,,,
null,,thebreak,48674,break,,null,,,,,,,,,,,,,,,,,
581.7000000029802,,familiar_rating,49257,Berkeley,,53,Berkeley,5,,,,,,,,,,,,,,,
null,,confidence_buffer,49366,confidence_buffer,,null,,,,,,,,,,,,,,,,,
463.20000000298023,,unique_rating,49831,Berkeley,,53,,5,,,,,,,,,,,,,,,
null,,confidence_buffer,49946,confidence_buffer,,null,,,,,,,,,,,,,,,,,
636.3999999985099,,memorable_rating,50584,Berkeley,,53,,5,,,,,,,,,,,,,,,
null,,confidence_buffer,50697,confidence_buffer,,null,,,,,,,,,,,,,,,,,
null,,thebreak,51208,break,,null,,,,,,,,,,,,,,,,,
365.30000000447035,,familiar_rating,51575,Fargo,,53,Fargo,5,,,,,,,,,,,,,,,
null,,confidence_buffer,51683,confidence_buffer,,null,,,,,,,,,,,,,,,,,
483.79999999701977,,unique_rating,52169,Fargo,,53,,5,,,,,,,,,,,,,,,
null,,confidence_buffer,52271,confidence_buffer,,null,,,,,,,,,,,,,,,,,
519.8999999985099,,memorable_rating,52792,Fargo,,53,,5,,,,,,,,,,,,,,,
null,,confidence_buffer,52899,confidence_buffer,,null,,,,,,,,,,,,,,,,,
null,,thebreak,53408,break,,null,,,,,,,,,,,,,,,,,
375.1000000014901,,familiar_rating,53784,Scottsdale,,53,Scottsdale,5,,,,,,,,,,,,,,,
null,,confidence_buffer,53900,confidence_buffer,,null,,,,,,,,,,,,,,,,,
469.3999999985099,,unique_rating,54371,Scottsdale,,53,,5,,,,,,,,,,,,,,,
null,,confidence_buffer,54486,confidence_buffer,,null,,,,,,,,,,,,,,,,,
1178.2999999970198,,probe_rating,55666,probe_rating,,51,,,3,1,,,,,,,,,,,,,
null,,confidence_buffer,55776,confidence_buffer,,null,,,,,,,,,,,,,,,,,
501.29999999701977,,memorable_rating,56279,Scottsdale,,53,,5,,,,,,,,,,,,,,,
null,,confidence_buffer,56385,confidence_buffer,,null,,,,,,,,,,,,,,,,,
null,,thebreak,56895,break,,null,,,,,,,,,,,,,,,,,
292.20000000298023,,familiar_rating,57188,Boulder,,53,Boulder,5,,,,,,,,,,,,,,,
null,,confidence_buffer,57293,confidence_buffer,,null,,,,,,,,,,,,,,,,,
355.6000000014901,,unique_rating,57650,Boulder,,53,,5,,,,,,,,,,,,,,,
null,,confidence_buffer,57765,confidence_buffer,,null,,,,,,,,,,,,,,,,,
568.7999999970198,,memorable_rating,58335,Boulder,,53,,5,,,,,,,,,,,,,,,
null,,confidence_buffer,58447,confidence_buffer,,null,,,,,,,,,,,,,,,,,
null,,thebreak,58959,break,,null,,,,,,,,,,,,,,,,,
381.80000000447035,,familiar_rating,59342,Abilene,,53,Abilene,5,,,,,,,,,,,,,,,
null,,confidence_buffer,59459,confidence_buffer,,null,,,,,,,,,,,,,,,,,
477.70000000298023,,unique_rating,59938,Abilene,,53,,5,,,,,,,,,,,,,,,
null,,confidence_buffer,60042,confidence_buffer,,null,,,,,,,,,,,,,,,,,
534,,memorable_rating,60578,Abilene,,53,,5,,,,,,,,,,,,,,,
null,,confidence_buffer,60693,confidence_buffer,,null,,,,,,,,,,,,,,,,,
null,,thebreak,61208,break,,null,,,,,,,,,,,,,,,,,
760.3000000044703,,familiar_rating,61970,Bozeman,,53,Bozeman,5,,,,,,,,,,,,,,,
null,,confidence_buffer,62076,confidence_buffer,,null,,,,,,,,,,,,,,,,,
483.1000000014901,,unique_rating,62561,Bozeman,,53,,5,,,,,,,,,,,,,,,
null,,confidence_buffer,62665,confidence_buffer,,null,,,,,,,,,,,,,,,,,
506.29999999701977,,memorable_rating,63173,Bozeman,,53,,5,,,,,,,,,,,,,,,
null,,confidence_buffer,63290,confidence_buffer,,null,,,,,,,,,,,,,,,,,
null,,thebreak,63806,break,,null,,,,,,,,,,,,,,,,,
381.6000000014901,,familiar_rating,64189,Stamford,,53,Stamford,5,,,,,,,,,,,,,,,
null,,confidence_buffer,64298,confidence_buffer,,null,,,,,,,,,,,,,,,,,
447,,unique_rating,64747,Stamford,,53,,5,,,,,,,,,,,,,,,
null,,confidence_buffer,64855,confidence_buffer,,null,,,,,,,,,,,,,,,,,
1046.5999999940395,,probe_rating,65903,probe_rating,,51,,,3,1,,,,,,,,,,,,,
null,,confidence_buffer,66006,confidence_buffer,,null,,,,,,,,,,,,,,,,,
1239.4000000059605,,memorable_rating,67247,Stamford,,53,,5,,,,,,,,,,,,,,,
null,,confidence_buffer,67359,confidence_buffer,,null,,,,,,,,,,,,,,,,,
null,,thebreak,67872,break,,null,,,,,,,,,,,,,,,,,
314.6000000014901,,familiar_rating,68188,Rock Springs,,53,Rock Springs,5,,,,,,,,,,,,,,,
null,,confidence_buffer,68306,confidence_buffer,,null,,,,,,,,,,,,,,,,,
424.70000000298023,,unique_rating,68732,Rock Springs,,53,,5,,,,,,,,,,,,,,,
null,,confidence_buffer,68840,confidence_buffer,,null,,,,,,,,,,,,,,,,,
507.19999999552965,,memorable_rating,69348,Rock Springs,,53,,5,,,,,,,,,,,,,,,
null,,confidence_buffer,69462,confidence_buffer,,null,,,,,,,,,,,,,,,,,
1130.1999999955297,,probe_rating,70593,probe_rating,,51,,,3,1,,,,,,,,,,,,,
null,,confidence_buffer,70704,confidence_buffer,,null,,,,,,,,,,,,,,,,,
null,,thebreak,71216,break,,null,,,,,,,,,,,,,,,,,
745.7000000029802,,familiar_rating,71963,Dothan,,53,Dothan,5,,,,,,,,,,,,,,,
null,,confidence_buffer,72069,confidence_buffer,,null,,,,,,,,,,,,,,,,,
460.29999999701977,,unique_rating,72531,Dothan,,53,,5,,,,,,,,,,,,,,,
null,,confidence_buffer,72643,confidence_buffer,,null,,,,,,,,,,,,,,,,,
545.2999999970198,,memorable_rating,73190,Dothan,,53,,5,,,,,,,,,,,,,,,
null,,confidence_buffer,73302,confidence_buffer,,null,,,,,,,,,,,,,,,,,
null,,thebreak,73818,break,,null,,,,,,,,,,,,,,,,,
479.1000000014901,,familiar_rating,74299,Burlington,,53,Burlington,5,,,,,,,,,,,,,,,
null,,confidence_buffer,74403,confidence_buffer,,null,,,,,,,,,,,,,,,,,
522.8999999985099,,unique_rating,74927,Burlington,,53,,5,,,,,,,,,,,,,,,
null,,confidence_buffer,75034,confidence_buffer,,null,,,,,,,,,,,,,,,,,
518,,memorable_rating,75553,Burlington,,53,,5,,,,,,,,,,,,,,,
null,,confidence_buffer,75666,confidence_buffer,,null,,,,,,,,,,,,,,,,,
null,,thebreak,76183,break,,null,,,,,,,,,,,,,,,,,
1347,,intro_0,77531,instruct,,32,,,,,,,,,,,,,,,,,
2043.3000000044703,,intro_1,79575,instruct,,32,,,,,,,,,,,,,,,,,
1119,,intro_2,80696,instruct,,32,,,,,,,,,,,,,,,,,
null,,instruct_dir_4,82211,instruct,,null,,,,,,,,,,,,,,,,,
1649.6999999955297,,realistic_rating,83863,Salem,,53,Salem,5,,,,,,,,,,,,,,,
null,,confidence_buffer,83967,confidence_buffer,,null,,,,,,,,,,,,,,,,,
635.6000000014901,,pt2_unique_rating,84604,Salem,,53,,5,,,,,,,,,,,,,,,
null,,confidence_buffer,84712,confidence_buffer,,null,,,,,,,,,,,,,,,,,
721.0999999940395,,pt2_memorable_rating,85435,Salem,,53,,5,,,,,,,,,,,,,,,
null,,confidence_buffer,85545,confidence_buffer,,null,,,,,,,,,,,,,,,,,
1631.8999999985099,,recognition_phase,87179,Salem,,49,,,,,old,1,1,,,,,,,,,,
null,,confidence_buffer,87284,confidence_buffer,,null,,,,,,,,,,,,,,,,,
null,,thebreak,87790,break,,null,,,,,,,,,,,,,,,,,
1162,,realistic_rating,88953,Cambridge,,53,Cambridge,5,,,,,,,,,,,,,,,
null,,confidence_buffer,89057,confidence_buffer,,null,,,,,,,,,,,,,,,,,
565.2000000029802,,pt2_unique_rating,89624,Cambridge,,53,,5,,,,,,,,,,,,,,,
null,,confidence_buffer,89734,confidence_buffer,,null,,,,,,,,,,,,,,,,,
695.1999999955297,,probe_rating,90431,probe_rating,,49,,,1,1,,,,,,,,,,,,,
null,,confidence_buffer,90533,confidence_buffer,,null,,,,,,,,,,,,,,,,,
675.8999999985099,,pt2_memorable_rating,91211,Cambridge,,53,,5,,,,,,,,,,,,,,,
null,,confidence_buffer,91322,confidence_buffer,,null,,,,,,,,,,,,,,,,,
2500.10000000149,,recognition_phase,93824,Cambridge,,52,,,,,new,1,1,,,,,,,,,,
null,,confidence_buffer,93934,confidence_buffer,,null,,,,,,,,,,,,,,,,,
null,,thebreak,94441,break,,null,,,,,,,,,,,,,,,,,
1074.3999999985099,,realistic_rating,95518,Cheyenne,,53,Cheyenne,5,,,,,,,,,,,,,,,
null,,confidence_buffer,95620,confidence_buffer,,null,,,,,,,,,,,,,,,,,
451.70000000298023,,pt2_unique_rating,96073,Cheyenne,,53,,5,,,,,,,,,,,,,,,
null,,confidence_buffer,96178,confidence_buffer,,null,,,,,,,,,,,,,,,,,
539.9000000059605,,pt2_memorable_rating,96719,Cheyenne,,53,,5,,,,,,,,,,,,,,,
null,,confidence_buffer,96836,confidence_buffer,,null,,,,,,,,,,,,,,,,,
1235,,recognition_phase,98072,Cheyenne,,52,,,,,new,1,1,,,,,,,,,,
null,,confidence_buffer,98188,confidence_buffer,,null,,,,,,,,,,,,,,,,,
null,,thebreak,98691,break,,null,,,,,,,,,,,,,,,,,
1395.5,,realistic_rating,100087,Norfolk,,53,Norfolk,5,,,,,,,,,,,,,,,
null,,confidence_buffer,100191,confidence_buffer,,null,,,,,,,,,,,,,,,,,
482.3999999985099,,pt2_unique_rating,100674,Norfolk,,53,,5,,,,,,,,,,,,,,,
null,,confidence_buffer,100781,confidence_buffer,,null,,,,,,,,,,,,,,,,,
568.3999999985099,,pt2_memorable_rating,101351,Norfolk,,53,,5,,,,,,,,,,,,,,,
null,,confidence_buffer,101469,confidence_buffer,,null,,,,,,,,,,,,,,,,,
1023.2999999970198,,probe_rating,102494,probe_rating,,53,,,5,1,,,,,,,,,,,,,
null,,confidence_buffer,102603,confidence_buffer,,null,,,,,,,,,,,,,,,,,
976.7000000029802,,recognition_phase,103582,Norfolk,,52,,,,,new,0,0.75,,,,,,,,,,
null,,confidence_buffer,103686,confidence_buffer,,null,,,,,,,,,,,,,,,,,
null,,thebreak,104203,break,,null,,,,,,,,,,,,,,,,,
917,,realistic_rating,105121,Montpelier,,53,Montpelier,5,,,,,,,,,,,,,,,
null,,confidence_buffer,105227,confidence_buffer,,null,,,,,,,,,,,,,,,,,
483.70000000298023,,pt2_unique_rating,105712,Montpelier,,53,,5,,,,,,,,,,,,,,,
null,,confidence_buffer,105822,confidence_buffer,,null,,,,,,,,,,,,,,,,,
993.1000000014901,,probe_rating,106817,probe_rating,,53,,,5,1,,,,,,,,,,,,,
null,,confidence_buffer,106926,confidence_buffer,,null,,,,,,,,,,,,,,,,,
614.6999999955297,,pt2_memorable_rating,107543,Montpelier,,53,,5,,,,,,,,,,,,,,,
null,,confidence_buffer,107649,confidence_buffer,,null,,,,,,,,,,,,,,,,,
1358.2999999970198,,recognition_phase,109009,Montpelier,,52,,,,,new,1,0.8,,,,,,,,,,
null,,confidence_buffer,109124,confidence_buffer,,null,,,,,,,,,,,,,,,,,
null,,thebreak,109626,break,,null,,,,,,,,,,,,,,,,,
441.80000000447035,,realistic_rating,110070,Boulder,,53,Boulder,5,,,,,,,,,,,,,,,
null,,confidence_buffer,110174,confidence_buffer,,null,,,,,,,,,,,,,,,,,
840.9000000059605,,probe_rating,111016,probe_rating,,52,,,4,1,,,,,,,,,,,,,
null,,confidence_buffer,111124,confidence_buffer,,null,,,,,,,,,,,,,,,,,
872,,pt2_unique_rating,111997,Boulder,,53,,5,,,,,,,,,,,,,,,
null,,confidence_buffer,112105,confidence_buffer,,null,,,,,,,,,,,,,,,,,
727.3999999985099,,pt2_memorable_rating,112834,Boulder,,53,,5,,,,,,,,,,,,,,,
null,,confidence_buffer,112937,confidence_buffer,,null,,,,,,,,,,,,,,,,,
966.8999999985099,,recognition_phase,113906,Boulder,,52,,,,,new,0,0.6666666666666666,,,,,,,,,,
null,,confidence_buffer,114021,confidence_buffer,,null,,,,,,,,,,,,,,,,,
null,,thebreak,114538,break,,null,,,,,,,,,,,,,,,,,
784.1999999955297,,realistic_rating,115323,Helena,,53,Helena,5,,,,,,,,,,,,,,,
null,,confidence_buffer,115428,confidence_buffer,,null,,,,,,,,,,,,,,,,,
551,,pt2_unique_rating,115980,Helena,,53,,5,,,,,,,,,,,,,,,
null,,confidence_buffer,116086,confidence_buffer,,null,,,,,,,,,,,,,,,,,
711.6999999955297,,pt2_memorable_rating,116799,Helena,,53,,5,,,,,,,,,,,,,,,
null,,confidence_buffer,116912,confidence_buffer,,null,,,,,,,,,,,,,,,,,
1498.9000000059605,,recognition_phase,118412,Helena,,49,,,,,old,1,0.7142857142857143,,,,,,,,,,
null,,confidence_buffer,118526,confidence_buffer,,null,,,,,,,,,,,,,,,,,
null,,thebreak,119030,break,,null,,,,,,,,,,,,,,,,,
1554.5,,realistic_rating,120586,Las Cruces,,53,Las Cruces,5,,,,,,,,,,,,,,,
null,,confidence_buffer,120692,confidence_buffer,,null,,,,,,,,,,,,,,,,,
634.6000000014901,,pt2_unique_rating,121328,Las Cruces,,53,,5,,,,,,,,,,,,,,,
null,,confidence_buffer,121440,confidence_buffer,,null,,,,,,,,,,,,,,,,,
709.8999999985099,,pt2_memorable_rating,122151,Las Cruces,,53,,5,,,,,,,,,,,,,,,
null,,confidence_buffer,122255,confidence_buffer,,null,,,,,,,,,,,,,,,,,
849.1000000014901,,recognition_phase,123106,Las Cruces,,49,,,,,old,0,0.625,,,,,,,,,,
null,,confidence_buffer,123222,confidence_buffer,,null,,,,,,,,,,,,,,,,,
null,,thebreak,123732,break,,null,,,,,,,,,,,,,,,,,
3530.39999999851,,realistic_rating,127264,Tallahassee,,53,Tallahassee,5,,,,,,,,,,,,,,,
null,,confidence_buffer,127379,confidence_buffer,,null,,,,,,,,,,,,,,,,,
1151.5,,pt2_unique_rating,128532,Tallahassee,,53,,5,,,,,,,,,,,,,,,
null,,confidence_buffer,128648,confidence_buffer,,null,,,,,,,,,,,,,,,,,
677.1999999955297,,pt2_memorable_rating,129327,Tallahassee,,53,,5,,,,,,,,,,,,,,,
null,,confidence_buffer,129431,confidence_buffer,,null,,,,,,,,,,,,,,,,,
1656,,recognition_phase,131088,Tallahassee,,52,,,,,new,1,0.6666666666666666,,,,,,,,,,
null,,confidence_buffer,131194,confidence_buffer,,null,,,,,,,,,,,,,,,,,
null,,thebreak,131702,break,,null,,,,,,,,,,,,,,,,,
443.5,,realistic_rating,132147,Pasadena,,53,Pasadena,5,,,,,,,,,,,,,,,
null,,confidence_buffer,132252,confidence_buffer,,null,,,,,,,,,,,,,,,,,
624.1000000014901,,pt2_unique_rating,132878,Pasadena,,53,,5,,,,,,,,,,,,,,,
null,,confidence_buffer,132994,confidence_buffer,,null,,,,,,,,,,,,,,,,,
710.7000000029802,,pt2_memorable_rating,133706,Pasadena,,53,,5,,,,,,,,,,,,,,,
null,,confidence_buffer,133809,confidence_buffer,,null,,,,,,,,,,,,,,,,,
1768,,recognition_phase,135579,Pasadena,,52,,,,,new,0,0.6,,,,,,,,,,
null,,confidence_buffer,135683,confidence_buffer,,null,,,,,,,,,,,,,,,,,
null,,thebreak,136191,break,,null,,,,,,,,,,,,,,,,,
1130.8999999985099,,realistic_rating,137324,McKinney,,53,McKinney,5,,,,,,,,,,,,,,,
null,,confidence_buffer,137439,confidence_buffer,,null,,,,,,,,,,,,,,,,,
519.8999999985099,,pt2_unique_rating,137960,McKinney,,53,,5,,,,,,,,,,,,,,,
null,,confidence_buffer,138063,confidence_buffer,,null,,,,,,,,,,,,,,,,,
772,,pt2_memorable_rating,138836,McKinney,,53,,5,,,,,,,,,,,,,,,
null,,confidence_buffer,138940,confidence_buffer,,null,,,,,,,,,,,,,,,,,
916.6000000014901,,recognition_phase,139858,McKinney,,49,,,,,old,0,0.5454545454545454,,,,,,,,,,
null,,confidence_buffer,139967,confidence_buffer,,null,,,,,,,,,,,,,,,,,
null,,thebreak,140471,break,,null,,,,,,,,,,,,,,,,,
1064.8999999985099,,realistic_rating,141537,Burlington,,53,Burlington,5,,,,,,,,,,,,,,,
null,,confidence_buffer,141640,confidence_buffer,,null,,,,,,,,,,,,,,,,,
591.5,,pt2_unique_rating,142233,Burlington,,53,,5,,,,,,,,,,,,,,,
null,,confidence_buffer,142344,confidence_buffer,,null,,,,,,,,,,,,,,,,,
877.4000000059605,,probe_rating,143223,probe_rating,,53,,,5,1,,,,,,,,,,,,,
null,,confidence_buffer,143337,confidence_buffer,,null,,,,,,,,,,,,,,,,,
732,,pt2_memorable_rating,144070,Burlington,,53,,5,,,,,,,,,,,,,,,
null,,confidence_buffer,144178,confidence_buffer,,null,,,,,,,,,,,,,,,,,
1452,,recognition_phase,145631,Burlington,,49,,,,,old,1,0.5833333333333334,,,,,,,,,,
null,,confidence_buffer,145734,confidence_buffer,,null,,,,,,,,,,,,,,,,,
null,,thebreak,146241,break,,null,,,,,,,,,,,,,,,,,
1315.5,,realistic_rating,147557,Rock Springs,,53,Rock Springs,5,,,,,,,,,,,,,,,
null,,confidence_buffer,147661,confidence_buffer,,null,,,,,,,,,,,,,,,,,
525.1999999955297,,pt2_unique_rating,148187,Rock Springs,,53,,5,,,,,,,,,,,,,,,
null,,confidence_buffer,148301,confidence_buffer,,null,,,,,,,,,,,,,,,,,
1164.5,,probe_rating,149468,probe_rating,,53,,,5,1,,,,,,,,,,,,,
null,,confidence_buffer,149574,confidence_buffer,,null,,,,,,,,,,,,,,,,,
562.6000000014901,,pt2_memorable_rating,150138,Rock Springs,,53,,5,,,,,,,,,,,,,,,
null,,confidence_buffer,150242,confidence_buffer,,null,,,,,,,,,,,,,,,,,
1333.1000000014901,,recognition_phase,151577,Rock Springs,,52,,,,,new,0,0.5384615384615384,,,,,,,,,,
null,,confidence_buffer,151684,confidence_buffer,,null,,,,,,,,,,,,,,,,,
null,,thebreak,152191,break,,null,,,,,,,,,,,,,,,,,
1519.7999999970198,,realistic_rating,153712,New Haven,,53,New Haven,5,,,,,,,,,,,,,,,
null,,confidence_buffer,153829,confidence_buffer,,null,,,,,,,,,,,,,,,,,
617.8000000044703,,pt2_unique_rating,154448,New Haven,,53,,5,,,,,,,,,,,,,,,
null,,confidence_buffer,154555,confidence_buffer,,null,,,,,,,,,,,,,,,,,
614.7000000029802,,pt2_memorable_rating,155171,New Haven,,53,,5,,,,,,,,,,,,,,,
null,,confidence_buffer,155286,confidence_buffer,,null,,,,,,,,,,,,,,,,,
1278.7000000029802,,recognition_phase,156566,New Haven,,52,,,,,new,1,0.5714285714285714,,,,,,,,,,
null,,confidence_buffer,156669,confidence_buffer,,null,,,,,,,,,,,,,,,,,
null,,thebreak,157173,break,,null,,,,,,,,,,,,,,,,,
887.7999999970198,,realistic_rating,158063,Bozeman,,53,Bozeman,5,,,,,,,,,,,,,,,
null,,confidence_buffer,158171,confidence_buffer,,null,,,,,,,,,,,,,,,,,
451.70000000298023,,pt2_unique_rating,158624,Bozeman,,53,,5,,,,,,,,,,,,,,,
null,,confidence_buffer,158726,confidence_buffer,,null,,,,,,,,,,,,,,,,,
566.1999999955297,,pt2_memorable_rating,159293,Bozeman,,53,,5,,,,,,,,,,,,,,,
null,,confidence_buffer,159405,confidence_buffer,,null,,,,,,,,,,,,,,,,,
799.6999999955297,,recognition_phase,160206,Bozeman,,49,,,,,old,1,0.6,,,,,,,,,,
null,,confidence_buffer,160321,confidence_buffer,,null,,,,,,,,,,,,,,,,,
null,,thebreak,160828,break,,null,,,,,,,,,,,,,,,,,
1239.4000000059605,,realistic_rating,162069,Marquette,,53,Marquette,5,,,,,,,,,,,,,,,
null,,confidence_buffer,162186,confidence_buffer,,null,,,,,,,,,,,,,,,,,
921.3000000044703,,probe_rating,163109,probe_rating,,50,,,2,1,,,,,,,,,,,,,
null,,confidence_buffer,163218,confidence_buffer,,null,,,,,,,,,,,,,,,,,
709.6000000014901,,pt2_unique_rating,163929,Marquette,,53,,5,,,,,,,,,,,,,,,
null,,confidence_buffer,164036,confidence_buffer,,null,,,,,,,,,,,,,,,,,
578.6000000014901,,pt2_memorable_rating,164616,Marquette,,53,,5,,,,,,,,,,,,,,,
null,,confidence_buffer,164718,confidence_buffer,,null,,,,,,,,,,,,,,,,,
790.8000000044703,,recognition_phase,165511,Marquette,,52,,,,,new,1,0.625,,,,,,,,,,
null,,confidence_buffer,165614,confidence_buffer,,null,,,,,,,,,,,,,,,,,
null,,thebreak,166125,break,,null,,,,,,,,,,,,,,,,,
752.7000000029802,,realistic_rating,166879,Dover,,53,Dover,5,,,,,,,,,,,,,,,
null,,confidence_buffer,166985,confidence_buffer,,null,,,,,,,,,,,,,,,,,
515.8999999985099,,pt2_unique_rating,167503,Dover,,53,,5,,,,,,,,,,,,,,,
null,,confidence_buffer,167616,confidence_buffer,,null,,,,,,,,,,,,,,,,,
814.1999999955297,,pt2_memorable_rating,168432,Dover,,53,,5,,,,,,,,,,,,,,,
null,,confidence_buffer,168549,confidence_buffer,,null,,,,,,,,,,,,,,,,,
867.8999999985099,,probe_rating,169418,probe_rating,,53,,,5,1,,,,,,,,,,,,,
null,,confidence_buffer,169521,confidence_buffer,,null,,,,,,,,,,,,,,,,,
604.6000000014901,,recognition_phase,170127,Dover,,52,,,,,new,1,0.6470588235294118,,,,,,,,,,
null,,confidence_buffer,170236,confidence_buffer,,null,,,,,,,,,,,,,,,,,
null,,thebreak,170745,break,,null,,,,,,,,,,,,,,,,,
975.1999999955297,,realistic_rating,171722,Palo Alto,,53,Palo Alto,5,,,,,,,,,,,,,,,
null,,confidence_buffer,171826,confidence_buffer,,null,,,,,,,,,,,,,,,,,
530.1999999955297,,pt2_unique_rating,172358,Palo Alto,,53,,5,,,,,,,,,,,,,,,
null,,confidence_buffer,172472,confidence_buffer,,null,,,,,,,,,,,,,,,,,
699.1000000014901,,pt2_memorable_rating,173173,Palo Alto,,53,,5,,,,,,,,,,,,,,,
null,,confidence_buffer,173287,confidence_buffer,,null,,,,,,,,,,,,,,,,,
761.3999999985099,,probe_rating,174050,probe_rating,,49,,,1,1,,,,,,,,,,,,,
null,,confidence_buffer,174163,confidence_buffer,,null,,,,,,,,,,,,,,,,,
1038.7000000029802,,recognition_phase,175203,Palo Alto,,49,,,,,old,0,0.6111111111111112,,,,,,,,,,
null,,confidence_buffer,175320,confidence_buffer,,null,,,,,,,,,,,,,,,,,
null,,thebreak,175828,break,,null,,,,,,,,,,,,,,,,,
1177.6000000014901,,realistic_rating,177007,Hagerstown,,53,Hagerstown,5,,,,,,,,,,,,,,,
null,,confidence_buffer,177112,confidence_buffer,,null,,,,,,,,,,,,,,,,,
611,,pt2_unique_rating,177724,Hagerstown,,53,,5,,,,,,,,,,,,,,,
null,,confidence_buffer,177826,confidence_buffer,,null,,,,,,,,,,,,,,,,,
907.1000000014901,,pt2_memorable_rating,178735,Hagerstown,,53,,5,,,,,,,,,,,,,,,
null,,confidence_buffer,178843,confidence_buffer,,null,,,,,,,,,,,,,,,,,
1499.8000000044703,,recognition_phase,180344,Hagerstown,,52,,,,,new,1,0.631578947368421,,,,,,,,,,
null,,confidence_buffer,180451,confidence_buffer,,null,,,,,,,,,,,,,,,,,
null,,thebreak,180958,break,,null,,,,,,,,,,,,,,,,,
711.6999999955297,,realistic_rating,181672,Dubuque,,53,Dubuque,5,,,,,,,,,,,,,,,
null,,confidence_buffer,181782,confidence_buffer,,null,,,,,,,,,,,,,,,,,
484.8999999985099,,pt2_unique_rating,182268,Dubuque,,53,,5,,,,,,,,,,,,,,,
null,,confidence_buffer,182379,confidence_buffer,,null,,,,,,,,,,,,,,,,,
482.1000000014901,,pt2_memorable_rating,182863,Dubuque,,53,,5,,,,,,,,,,,,,,,
null,,confidence_buffer,182967,confidence_buffer,,null,,,,,,,,,,,,,,,,,
801.1999999955297,,recognition_phase,183770,Dubuque,,52,,,,,new,1,0.65,,,,,,,,,,
null,,confidence_buffer,183874,confidence_buffer,,null,,,,,,,,,,,,,,,,,
null,,thebreak,184389,break,,null,,,,,,,,,,,,,,,,,
992.6000000014901,,realistic_rating,185383,Gainesville,,53,Gainesville,5,,,,,,,,,,,,,,,
null,,confidence_buffer,185490,confidence_buffer,,null,,,,,,,,,,,,,,,,,
728,,pt2_unique_rating,186219,Gainesville,,53,,5,,,,,,,,,,,,,,,
null,,confidence_buffer,186322,confidence_buffer,,null,,,,,,,,,,,,,,,,,
689.8999999985099,,pt2_memorable_rating,187014,Gainesville,,53,,5,,,,,,,,,,,,,,,
null,,confidence_buffer,187130,confidence_buffer,,null,,,,,,,,,,,,,,,,,
1140.1000000014901,,recognition_phase,188272,Gainesville,,50,,,,,old,0,0.6190476190476191,,,,,,,,,,
null,,confidence_buffer,188379,confidence_buffer,,null,,,,,,,,,,,,,,,,,
null,,thebreak,188881,break,,null,,,,,,,,,,,,,,,,,
797.6000000014901,,realistic_rating,189680,Syracuse,,53,Syracuse,5,,,,,,,,,,,,,,,
null,,confidence_buffer,189788,confidence_buffer,,null,,,,,,,,,,,,,,,,,
873,,probe_rating,190663,probe_rating,,52,,,4,1,,,,,,,,,,,,,
null,,confidence_buffer,190778,confidence_buffer,,null,,,,,,,,,,,,,,,,,
433.3999999985099,,pt2_unique_rating,191213,Syracuse,,53,,5,,,,,,,,,,,,,,,
null,,confidence_buffer,191316,confidence_buffer,,null,,,,,,,,,,,,,,,,,
348.20000000298023,,pt2_memorable_rating,191666,Syracuse,,53,,5,,,,,,,,,,,,,,,
null,,confidence_buffer,191771,confidence_buffer,,null,,,,,,,,,,,,,,,,,
796,,recognition_phase,192569,Syracuse,,52,,,,,new,1,0.6363636363636364,,,,,,,,,,
null,,confidence_buffer,192676,confidence_buffer,,null,,,,,,,,,,,,,,,,,
null,,thebreak,193185,break,,null,,,,,,,,,,,,,,,,,
971.5,,realistic_rating,194158,Terre Haute,,53,Terre Haute,5,,,,,,,,,,,,,,,
null,,confidence_buffer,194266,confidence_buffer,,null,,,,,,,,,,,,,,,,,
470.8999999985099,,pt2_unique_rating,194738,Terre Haute,,53,,5,,,,,,,,,,,,,,,
null,,confidence_buffer,194844,confidence_buffer,,null,,,,,,,,,,,,,,,,,
725.4000000059605,,pt2_memorable_rating,195571,Terre Haute,,53,,5,,,,,,,,,,,,,,,
null,,confidence_buffer,195674,confidence_buffer,,null,,,,,,,,,,,,,,,,,
698.5,,recognition_phase,196374,Terre Haute,,49,,,,,old,1,0.6521739130434783,,,,,,,,,,
null,,confidence_buffer,196492,confidence_buffer,,null,,,,,,,,,,,,,,,,,
null,,thebreak,196999,break,,null,,,,,,,,,,,,,,,,,
843.4000000059605,,realistic_rating,197844,Santa Monica,,53,Santa Monica,5,,,,,,,,,,,,,,,
null,,confidence_buffer,197951,confidence_buffer,,null,,,,,,,,,,,,,,,,,
582.6000000014901,,pt2_unique_rating,198535,Santa Monica,,53,,5,,,,,,,,,,,,,,,
null,,confidence_buffer,198641,confidence_buffer,,null,,,,,,,,,,,,,,,,,
801.1000000014901,,pt2_memorable_rating,199443,Santa Monica,,53,,5,,,,,,,,,,,,,,,
null,,confidence_buffer,199550,confidence_buffer,,null,,,,,,,,,,,,,,,,,
825,,recognition_phase,200377,Santa Monica,,52,,,,,new,0,0.625,,,,,,,,,,
null,,confidence_buffer,200480,confidence_buffer,,null,,,,,,,,,,,,,,,,,
null,,thebreak,200981,break,,null,,,,,,,,,,,,,,,,,
1020.3999999985099,,realistic_rating,202003,Athens,,53,Athens,5,,,,,,,,,,,,,,,
null,,confidence_buffer,202111,confidence_buffer,,null,,,,,,,,,,,,,,,,,
538.7000000029802,,pt2_unique_rating,202651,Athens,,53,,5,,,,,,,,,,,,,,,
null,,confidence_buffer,202756,confidence_buffer,,null,,,,,,,,,,,,,,,,,
721.7000000029802,,pt2_memorable_rating,203480,Athens,,53,,5,,,,,,,,,,,,,,,
null,,confidence_buffer,203595,confidence_buffer,,null,,,,,,,,,,,,,,,,,
1025.6000000014901,,recognition_phase,204623,Athens,,49,,,,,old,1,0.64,,,,,,,,,,
null,,confidence_buffer,204730,confidence_buffer,,null,,,,,,,,,,,,,,,,,
null,,thebreak,205235,break,,null,,,,,,,,,,,,,,,,,
1113.8000000044703,,realistic_rating,206351,Frankfort,,53,Frankfort,5,,,,,,,,,,,,,,,
null,,confidence_buffer,206462,confidence_buffer,,null,,,,,,,,,,,,,,,,,
574.3999999985099,,pt2_unique_rating,207037,Frankfort,,53,,5,,,,,,,,,,,,,,,
null,,confidence_buffer,207154,confidence_buffer,,null,,,,,,,,,,,,,,,,,
894.7999999970198,,pt2_memorable_rating,208050,Frankfort,,53,,5,,,,,,,,,,,,,,,
null,,confidence_buffer,208154,confidence_buffer,,null,,,,,,,,,,,,,,,,,
1690.9000000059605,,recognition_phase,209846,Frankfort,,49,,,,,old,0,0.6153846153846154,,,,,,,,,,
null,,confidence_buffer,209949,confidence_buffer,,null,,,,,,,,,,,,,,,,,
null,,thebreak,210450,break,,null,,,,,,,,,,,,,,,,,
794.3999999985099,,realistic_rating,211246,Dothan,,53,Dothan,5,,,,,,,,,,,,,,,
null,,confidence_buffer,211359,confidence_buffer,,null,,,,,,,,,,,,,,,,,
482.20000000298023,,pt2_unique_rating,211843,Dothan,,53,,5,,,,,,,,,,,,,,,
null,,confidence_buffer,211950,confidence_buffer,,null,,,,,,,,,,,,,,,,,
656.2000000029802,,pt2_memorable_rating,212607,Dothan,,53,,5,,,,,,,,,,,,,,,
null,,confidence_buffer,212718,confidence_buffer,,null,,,,,,,,,,,,,,,,,
681.5999999940395,,recognition_phase,213401,Dothan,,52,,,,,new,0,0.5925925925925926,,,,,,,,,,
null,,confidence_buffer,213512,confidence_buffer,,null,,,,,,,,,,,,,,,,,
null,,thebreak,214016,break,,null,,,,,,,,,,,,,,,,,
1017.6000000014901,,realistic_rating,215035,Yakima,,53,Yakima,5,,,,,,,,,,,,,,,
null,,confidence_buffer,215138,confidence_buffer,,null,,,,,,,,,,,,,,,,,
619.3999999985099,,pt2_unique_rating,215759,Yakima,,53,,5,,,,,,,,,,,,,,,
null,,confidence_buffer,215870,confidence_buffer,,null,,,,,,,,,,,,,,,,,
586.3999999985099,,pt2_memorable_rating,216457,Yakima,,53,,5,,,,,,,,,,,,,,,
null,,confidence_buffer,216560,confidence_buffer,,null,,,,,,,,,,,,,,,,,
752.6999999955297,,recognition_phase,217314,Yakima,,52,,,,,new,0,0.5714285714285714,,,,,,,,,,
null,,confidence_buffer,217430,confidence_buffer,,null,,,,,,,,,,,,,,,,,
null,,thebreak,217939,break,,null,,,,,,,,,,,,,,,,,
813.1999999955297,,realistic_rating,218753,Scottsdale,,53,Scottsdale,5,,,,,,,,,,,,,,,
null,,confidence_buffer,218855,confidence_buffer,,null,,,,,,,,,,,,,,,,,
1447.1000000014901,,probe_rating,220304,probe_rating,,52,,,4,1,,,,,,,,,,,,,
null,,confidence_buffer,220414,confidence_buffer,,null,,,,,,,,,,,,,,,,,
599.8999999985099,,pt2_unique_rating,221016,Scottsdale,,53,,5,,,,,,,,,,,,,,,
null,,confidence_buffer,221131,confidence_buffer,,null,,,,,,,,,,,,,,,,,
491.90000000596046,,pt2_memorable_rating,221624,Scottsdale,,53,,5,,,,,,,,,,,,,,,
null,,confidence_buffer,221730,confidence_buffer,,null,,,,,,,,,,,,,,,,,
369,,recognition_phase,222100,Scottsdale,,49,,,,,old,1,0.5862068965517241,,,,,,,,,,
null,,confidence_buffer,222209,confidence_buffer,,null,,,,,,,,,,,,,,,,,
null,,thebreak,222724,break,,null,,,,,,,,,,,,,,,,,
905.6999999955297,,realistic_rating,223632,Ann Arbor,,53,Ann Arbor,5,,,,,,,,,,,,,,,
null,,confidence_buffer,223743,confidence_buffer,,null,,,,,,,,,,,,,,,,,
439.3999999985099,,pt2_unique_rating,224184,Ann Arbor,,53,,5,,,,,,,,,,,,,,,
null,,confidence_buffer,224292,confidence_buffer,,null,,,,,,,,,,,,,,,,,
622.8999999985099,,pt2_memorable_rating,224916,Ann Arbor,,53,,5,,,,,,,,,,,,,,,
null,,confidence_buffer,225019,confidence_buffer,,null,,,,,,,,,,,,,,,,,
629,,recognition_phase,225650,Ann Arbor,,52,,,,,new,0,0.5666666666666667,,,,,,,,,,
null,,confidence_buffer,225768,confidence_buffer,,null,,,,,,,,,,,,,,,,,
null,,thebreak,226285,break,,null,,,,,,,,,,,,,,,,,
846.3999999985099,,realistic_rating,227134,Fargo,,53,Fargo,5,,,,,,,,,,,,,,,
null,,confidence_buffer,227241,confidence_buffer,,null,,,,,,,,,,,,,,,,,
547.5,,pt2_unique_rating,227790,Fargo,,53,,5,,,,,,,,,,,,,,,
null,,confidence_buffer,227900,confidence_buffer,,null,,,,,,,,,,,,,,,,,
941.5,,pt2_memorable_rating,228843,Fargo,,53,,5,,,,,,,,,,,,,,,
null,,confidence_buffer,228947,confidence_buffer,,null,,,,,,,,,,,,,,,,,
596.7999999970198,,recognition_phase,229545,Fargo,,49,,,,,old,1,0.5806451612903226,,,,,,,,,,
null,,confidence_buffer,229650,confidence_buffer,,null,,,,,,,,,,,,,,,,,
null,,thebreak,230153,break,,null,,,,,,,,,,,,,,,,,
799.8999999985099,,realistic_rating,230954,Pueblo,,53,Pueblo,5,,,,,,,,,,,,,,,
null,,confidence_buffer,231068,confidence_buffer,,null,,,,,,,,,,,,,,,,,
551.4000000059605,,pt2_unique_rating,231621,Pueblo,,53,,5,,,,,,,,,,,,,,,
null,,confidence_buffer,231726,confidence_buffer,,null,,,,,,,,,,,,,,,,,
1047.7000000029802,,pt2_memorable_rating,232775,Pueblo,,53,,5,,,,,,,,,,,,,,,
null,,confidence_buffer,232886,confidence_buffer,,null,,,,,,,,,,,,,,,,,
774.2999999970198,,recognition_phase,233662,Pueblo,,52,,,,,new,1,0.59375,,,,,,,,,,
null,,confidence_buffer,233771,confidence_buffer,,null,,,,,,,,,,,,,,,,,
null,,thebreak,234284,break,,null,,,,,,,,,,,,,,,,,
663.1999999955297,,realistic_rating,234948,Youngstown,,53,Youngstown,5,,,,,,,,,,,,,,,
null,,confidence_buffer,235054,confidence_buffer,,null,,,,,,,,,,,,,,,,,
377.69999999552965,,pt2_unique_rating,235434,Youngstown,,53,,5,,,,,,,,,,,,,,,
null,,confidence_buffer,235537,confidence_buffer,,null,,,,,,,,,,,,,,,,,
590.2000000029802,,pt2_memorable_rating,236129,Youngstown,,53,,5,,,,,,,,,,,,,,,
null,,confidence_buffer,236237,confidence_buffer,,null,,,,,,,,,,,,,,,,,
697.5,,probe_rating,236936,probe_rating,,50,,,2,1,,,,,,,,,,,,,
null,,confidence_buffer,237044,confidence_buffer,,null,,,,,,,,,,,,,,,,,
751.2999999970198,,recognition_phase,237797,Youngstown,,49,,,,,old,1,0.6060606060606061,,,,,,,,,,
null,,confidence_buffer,237903,confidence_buffer,,null,,,,,,,,,,,,,,,,,
null,,thebreak,238419,break,,null,,,,,,,,,,,,,,,,,
800.8000000044703,,realistic_rating,239221,Fort Collins,,53,Fort Collins,5,,,,,,,,,,,,,,,
null,,confidence_buffer,239327,confidence_buffer,,null,,,,,,,,,,,,,,,,,
470.70000000298023,,pt2_unique_rating,239799,Fort Collins,,53,,5,,,,,,,,,,,,,,,
null,,confidence_buffer,239901,confidence_buffer,,null,,,,,,,,,,,,,,,,,
595.6000000014901,,pt2_memorable_rating,240499,Fort Collins,,53,,5,,,,,,,,,,,,,,,
null,,confidence_buffer,240609,confidence_buffer,,null,,,,,,,,,,,,,,,,,
1077.5,,recognition_phase,241688,Fort Collins,,49,,,,,old,0,0.5882352941176471,,,,,,,,,,
null,,confidence_buffer,241792,confidence_buffer,,null,,,,,,,,,,,,,,,,,
null,,thebreak,242294,break,,null,,,,,,,,,,,,,,,,,
763.3999999985099,,realistic_rating,243058,Abilene,,53,Abilene,5,,,,,,,,,,,,,,,
null,,confidence_buffer,243169,confidence_buffer,,null,,,,,,,,,,,,,,,,,
489,,pt2_unique_rating,243659,Abilene,,53,,5,,,,,,,,,,,,,,,
null,,confidence_buffer,243776,confidence_buffer,,null,,,,,,,,,,,,,,,,,
617.5,,pt2_memorable_rating,244395,Abilene,,53,,5,,,,,,,,,,,,,,,
null,,confidence_buffer,244505,confidence_buffer,,null,,,,,,,,,,,,,,,,,
521.3999999985099,,recognition_phase,245028,Abilene,,49,,,,,old,1,0.6,,,,,,,,,,
null,,confidence_buffer,245132,confidence_buffer,,null,,,,,,,,,,,,,,,,,
null,,thebreak,245640,break,,null,,,,,,,,,,,,,,,,,
700.8999999985099,,realistic_rating,246342,Toledo,,53,Toledo,5,,,,,,,,,,,,,,,
null,,confidence_buffer,246448,confidence_buffer,,null,,,,,,,,,,,,,,,,,
484.5,,pt2_unique_rating,246934,Toledo,,53,,5,,,,,,,,,,,,,,,
null,,confidence_buffer,247048,confidence_buffer,,null,,,,,,,,,,,,,,,,,
535.3999999985099,,pt2_memorable_rating,247585,Toledo,,53,,5,,,,,,,,,,,,,,,
null,,confidence_buffer,247692,confidence_buffer,,null,,,,,,,,,,,,,,,,,
826.2999999970198,,recognition_phase,248519,Toledo,,49,,,,,old,1,0.6111111111111112,,,,,,,,,,
null,,confidence_buffer,248623,confidence_buffer,,null,,,,,,,,,,,,,,,,,
null,,thebreak,249128,break,,null,,,,,,,,,,,,,,,,,
767.7000000029802,,realistic_rating,249898,Muncie,,53,Muncie,5,,,,,,,,,,,,,,,
null,,confidence_buffer,250010,confidence_buffer,,null,,,,,,,,,,,,,,,,,
512.6000000014901,,pt2_unique_rating,250525,Muncie,,53,,5,,,,,,,,,,,,,,,
null,,confidence_buffer,250628,confidence_buffer,,null,,,,,,,,,,,,,,,,,
586.5,,pt2_memorable_rating,251216,Muncie,,53,,5,,,,,,,,,,,,,,,
null,,confidence_buffer,251325,confidence_buffer,,null,,,,,,,,,,,,,,,,,
921.2000000029802,,recognition_phase,252247,Muncie,,52,,,,,new,1,0.6216216216216216,,,,,,,,,,
null,,confidence_buffer,252361,confidence_buffer,,null,,,,,,,,,,,,,,,,,
null,,thebreak,252869,break,,null,,,,,,,,,,,,,,,,,
799.9000000059605,,realistic_rating,253670,Olympia,,53,Olympia,5,,,,,,,,,,,,,,,
null,,confidence_buffer,253777,confidence_buffer,,null,,,,,,,,,,,,,,,,,
414.70000000298023,,pt2_unique_rating,254194,Olympia,,53,,5,,,,,,,,,,,,,,,
null,,confidence_buffer,254301,confidence_buffer,,null,,,,,,,,,,,,,,,,,
494.1000000014901,,pt2_memorable_rating,254796,Olympia,,53,,5,,,,,,,,,,,,,,,
null,,confidence_buffer,254902,confidence_buffer,,null,,,,,,,,,,,,,,,,,
787.2000000029802,,recognition_phase,255691,Olympia,,52,,,,,new,1,0.631578947368421,,,,,,,,,,
null,,confidence_buffer,255803,confidence_buffer,,null,,,,,,,,,,,,,,,,,
null,,thebreak,256310,break,,null,,,,,,,,,,,,,,,,,
862.7999999970198,,realistic_rating,257175,Champaign,,53,Champaign,5,,,,,,,,,,,,,,,
null,,confidence_buffer,257284,confidence_buffer,,null,,,,,,,,,,,,,,,,,
549.1000000014901,,pt2_unique_rating,257834,Champaign,,53,,5,,,,,,,,,,,,,,,
null,,confidence_buffer,257945,confidence_buffer,,null,,,,,,,,,,,,,,,,,
679.2999999970198,,pt2_memorable_rating,258626,Champaign,,53,,5,,,,,,,,,,,,,,,
null,,confidence_buffer,258732,confidence_buffer,,null,,,,,,,,,,,,,,,,,
1853.3999999985099,,recognition_phase,260588,Champaign,,52,,,,,new,1,0.6410256410256411,,,,,,,,,,
null,,confidence_buffer,260695,confidence_buffer,,null,,,,,,,,,,,,,,,,,
null,,thebreak,261198,break,,null,,,,,,,,,,,,,,,,,
1490.5,,realistic_rating,262690,Concord,,53,Concord,5,,,,,,,,,,,,,,,
null,,confidence_buffer,262795,confidence_buffer,,null,,,,,,,,,,,,,,,,,
383.3999999985099,,pt2_unique_rating,263180,Concord,,53,,5,,,,,,,,,,,,,,,
null,,confidence_buffer,263285,confidence_buffer,,null,,,,,,,,,,,,,,,,,
643.2000000029802,,pt2_memorable_rating,263930,Concord,,53,,5,,,,,,,,,,,,,,,
null,,confidence_buffer,264046,confidence_buffer,,null,,,,,,,,,,,,,,,,,
3978.89999999851,,recognition_phase,268026,Concord,,52,,,,,new,0,0.625,,,,,,,,,,
null,,confidence_buffer,268145,confidence_buffer,,null,,,,,,,,,,,,,,,,,
null,,thebreak,268651,break,,null,,,,,,,,,,,,,,,,,
1165,,realistic_rating,269818,Altoona,,53,Altoona,5,,,,,,,,,,,,,,,
null,,confidence_buffer,269925,confidence_buffer,,null,,,,,,,,,,,,,,,,,
514.3999999985099,,pt2_unique_rating,270441,Altoona,,53,,5,,,,,,,,,,,,,,,
null,,confidence_buffer,270551,confidence_buffer,,null,,,,,,,,,,,,,,,,,
591.6000000014901,,pt2_memorable_rating,271145,Altoona,,53,,5,,,,,,,,,,,,,,,
null,,confidence_buffer,271259,confidence_buffer,,null,,,,,,,,,,,,,,,,,
1105,,recognition_phase,272365,Altoona,,49,,,,,old,0,0.6097560975609756,,,,,,,,,,
null,,confidence_buffer,272474,confidence_buffer,,null,,,,,,,,,,,,,,,,,
null,,thebreak,272983,break,,null,,,,,,,,,,,,,,,,,
952,,realistic_rating,273937,Annapolis,,53,Annapolis,5,,,,,,,,,,,,,,,
null,,confidence_buffer,274046,confidence_buffer,,null,,,,,,,,,,,,,,,,,
617.2999999970198,,pt2_unique_rating,274665,Annapolis,,53,,5,,,,,,,,,,,,,,,
null,,confidence_buffer,274775,confidence_buffer,,null,,,,,,,,,,,,,,,,,
875,,probe_rating,275652,probe_rating,,50,,,2,1,,,,,,,,,,,,,
null,,confidence_buffer,275764,confidence_buffer,,null,,,,,,,,,,,,,,,,,
1472.6000000014901,,pt2_memorable_rating,277238,Annapolis,,53,,5,,,,,,,,,,,,,,,
null,,confidence_buffer,277355,confidence_buffer,,null,,,,,,,,,,,,,,,,,
1168,,recognition_phase,278526,Annapolis,,49,,,,,old,0,0.5952380952380952,,,,,,,,,,
null,,confidence_buffer,278635,confidence_buffer,,null,,,,,,,,,,,,,,,,,
null,,thebreak,279142,break,,null,,,,,,,,,,,,,,,,,
798.3999999985099,,realistic_rating,279941,Stamford,,53,Stamford,5,,,,,,,,,,,,,,,
null,,confidence_buffer,280055,confidence_buffer,,null,,,,,,,,,,,,,,,,,
622,,pt2_unique_rating,280678,Stamford,,53,,5,,,,,,,,,,,,,,,
null,,confidence_buffer,280795,confidence_buffer,,null,,,,,,,,,,,,,,,,,
637.6000000014901,,pt2_memorable_rating,281434,Stamford,,53,,5,,,,,,,,,,,,,,,
null,,confidence_buffer,281545,confidence_buffer,,null,,,,,,,,,,,,,,,,,
2796.7999999970198,,recognition_phase,284344,Stamford,,52,,,,,new,0,0.5813953488372093,,,,,,,,,,
null,,confidence_buffer,284452,confidence_buffer,,null,,,,,,,,,,,,,,,,,
null,,thebreak,284960,break,,null,,,,,,,,,,,,,,,,,
1231.8999999985099,,realistic_rating,286194,Reno,,53,Reno,5,,,,,,,,,,,,,,,
null,,confidence_buffer,286303,confidence_buffer,,null,,,,,,,,,,,,,,,,,
562.7000000029802,,pt2_unique_rating,286867,Reno,,53,,5,,,,,,,,,,,,,,,
null,,confidence_buffer,286975,confidence_buffer,,null,,,,,,,,,,,,,,,,,
620.3000000044703,,pt2_memorable_rating,287596,Reno,,53,,5,,,,,,,,,,,,,,,
null,,confidence_buffer,287701,confidence_buffer,,null,,,,,,,,,,,,,,,,,
689.3000000044703,,recognition_phase,288392,Reno,,49,,,,,old,1,0.5909090909090909,,,,,,,,,,
null,,confidence_buffer,288499,confidence_buffer,,null,,,,,,,,,,,,,,,,,
null,,thebreak,289016,break,,null,,,,,,,,,,,,,,,,,
684.6000000014901,,realistic_rating,289702,Ithaca,,53,Ithaca,5,,,,,,,,,,,,,,,
null,,confidence_buffer,289816,confidence_buffer,,null,,,,,,,,,,,,,,,,,
354.90000000596046,,pt2_unique_rating,290173,Ithaca,,53,,5,,,,,,,,,,,,,,,
null,,confidence_buffer,290282,confidence_buffer,,null,,,,,,,,,,,,,,,,,
644.3999999985099,,pt2_memorable_rating,290928,Ithaca,,53,,5,,,,,,,,,,,,,,,
null,,confidence_buffer,291031,confidence_buffer,,null,,,,,,,,,,,,,,,,,
848.3999999985099,,recognition_phase,291881,Ithaca,,52,,,,,new,1,0.6,,,,,,,,,,
null,,confidence_buffer,291990,confidence_buffer,,null,,,,,,,,,,,,,,,,,
null,,thebreak,292500,break,,null,,,,,,,,,,,,,,,,,
705.5,,realistic_rating,293207,Newport News,,53,Newport News,5,,,,,,,,,,,,,,,
null,,confidence_buffer,293324,confidence_buffer,,null,,,,,,,,,,,,,,,,,
474.5,,pt2_unique_rating,293800,Newport News,,53,,5,,,,,,,,,,,,,,,
null,,confidence_buffer,293907,confidence_buffer,,null,,,,,,,,,,,,,,,,,
646.2000000029802,,pt2_memorable_rating,294554,Newport News,,53,,5,,,,,,,,,,,,,,,
null,,confidence_buffer,294670,confidence_buffer,,null,,,,,,,,,,,,,,,,,
761.5,,recognition_phase,295433,Newport News,,49,,,,,old,1,0.6086956521739131,,,,,,,,,,
null,,confidence_buffer,295536,confidence_buffer,,null,,,,,,,,,,,,,,,,,
null,,thebreak,296038,break,,null,,,,,,,,,,,,,,,,,
896.8999999985099,,realistic_rating,296936,Bellingham,,53,Bellingham,5,,,,,,,,,,,,,,,
null,,confidence_buffer,297039,confidence_buffer,,null,,,,,,,,,,,,,,,,,
827.3000000044703,,probe_rating,297868,probe_rating,,52,,,4,1,,,,,,,,,,,,,
null,,confidence_buffer,297971,confidence_buffer,,null,,,,,,,,,,,,,,,,,
605.5,,pt2_unique_rating,298578,Bellingham,,53,,5,,,,,,,,,,,,,,,
null,,confidence_buffer,298686,confidence_buffer,,null,,,,,,,,,,,,,,,,,
566.6000000014901,,pt2_memorable_rating,299254,Bellingham,,53,,5,,,,,,,,,,,,,,,
null,,confidence_buffer,299371,confidence_buffer,,null,,,,,,,,,,,,,,,,,
1180.1000000014901,,recognition_phase,300553,Bellingham,,49,,,,,old,0,0.5957446808510638,,,,,,,,,,
null,,confidence_buffer,300670,confidence_buffer,,null,,,,,,,,,,,,,,,,,
null,,thebreak,301187,break,,null,,,,,,,,,,,,,,,,,
891.1000000014901,,realistic_rating,302079,Topeka,,53,Topeka,5,,,,,,,,,,,,,,,
null,,confidence_buffer,302183,confidence_buffer,,null,,,,,,,,,,,,,,,,,
608.8999999985099,,pt2_unique_rating,302793,Topeka,,53,,5,,,,,,,,,,,,,,,
null,,confidence_buffer,302896,confidence_buffer,,null,,,,,,,,,,,,,,,,,
551.8000000044703,,pt2_memorable_rating,303449,Topeka,,53,,5,,,,,,,,,,,,,,,
null,,confidence_buffer,303566,confidence_buffer,,null,,,,,,,,,,,,,,,,,
616.7000000029802,,recognition_phase,304184,Topeka,,52,,,,,new,1,0.6041666666666666,,,,,,,,,,
null,,confidence_buffer,304300,confidence_buffer,,null,,,,,,,,,,,,,,,,,
null,,thebreak,304807,break,,null,,,,,,,,,,,,,,,,,
806.2999999970198,,realistic_rating,305615,Fort Wayne,,53,Fort Wayne,5,,,,,,,,,,,,,,,
null,,confidence_buffer,305722,confidence_buffer,,null,,,,,,,,,,,,,,,,,
490.8999999985099,,pt2_unique_rating,306214,Fort Wayne,,53,,5,,,,,,,,,,,,,,,
null,,confidence_buffer,306323,confidence_buffer,,null,,,,,,,,,,,,,,,,,
581.8999999985099,,pt2_memorable_rating,306906,Fort Wayne,,53,,5,,,,,,,,,,,,,,,
null,,confidence_buffer,307014,confidence_buffer,,null,,,,,,,,,,,,,,,,,
768.5,,recognition_phase,307784,Fort Wayne,,49,,,,,old,1,0.6122448979591837,,,,,,,,,,
null,,confidence_buffer,307889,confidence_buffer,,null,,,,,,,,,,,,,,,,,
null,,thebreak,308391,break,,null,,,,,,,,,,,,,,,,,
1206.3999999985099,,realistic_rating,309599,Berkeley,,53,Berkeley,5,,,,,,,,,,,,,,,
null,,confidence_buffer,309707,confidence_buffer,,null,,,,,,,,,,,,,,,,,
463.09999999403954,,pt2_unique_rating,310172,Berkeley,,53,,5,,,,,,,,,,,,,,,
null,,confidence_buffer,310282,confidence_buffer,,null,,,,,,,,,,,,,,,,,
522.8999999985099,,pt2_memorable_rating,310806,Berkeley,,53,,5,,,,,,,,,,,,,,,
null,,confidence_buffer,310921,confidence_buffer,,null,,,,,,,,,,,,,,,,,
948.7000000029802,,recognition_phase,311872,Berkeley,,49,,,,,old,1,0.62,,,,,,,,,,
null,,confidence_buffer,311986,confidence_buffer,,null,,,,,,,,,,,,,,,,,
null,,thebreak,312494,break,,null,,,,,,,,,,,,,,,,,
,,survey,370127,survey-questions,,,,,,,,,,none,high,I was not doing anything else,I tried to remember the city name,I tried to remember specific words,I tried to think about the most memorable cities,I tried to think of unusual city names,I tried to think of cities I knew,Never participated in a similar study,No comments
