rt,responses,trial_type,time_elapsed,stimulus,button_pressed,key_press,name_trial,city_type,rating,probe,probe_accuracy,response,correct,accuracy
22201,{worker_id:67dfbdef0db1221a71fc53b4},id_enter,22206,,,,,,,,,,,
30579.600000023842,,fullscreen,52793,fullscreen,0,,,,,,,,,
9220.200000047684,,intro_0,62025,instruct,,32,,,,,,,,
13542.5,,intro_1,75571,instruct,,32,,,,,,,,
9806.300000071526,,intro_2,85380,instruct,,32,,,,,,,,
null,,instruct_dir_4,86884,instruct,,null,,,,,,,,
null,,thebreak,87388,break,,null,,,,,,,,
12599.5,,familiar_rating,99991,Carmel,,49,Carmel,US,1,,,,,
null,,confidence_buffer,100111,confidence_buffer,,null,,,,,,,,
6525.200000047684,,unique_rating,106640,Carmel,,53,,,5,,,,,
null,,confidence_buffer,106743,confidence_buffer,,null,,,,,,,,
5498.700000047684,,memorable_rating,112245,Carmel,,53,,,5,,,,,
null,,confidence_buffer,112349,confidence_buffer,,null,,,,,,,,
7411,,probe_rating,119763,probe_rating,,50,,,,2,1,,,
null,,confidence_buffer,119867,confidence_buffer,,null,,,,,,,,
null,,thebreak,120370,break,,null,,,,,,,,
7776.600000023842,,familiar_rating,128150,Cornwall,,49,Cornwall,US,1,,,,,
null,,confidence_buffer,128254,confidence_buffer,,null,,,,,,,,
3877.2999999523163,,unique_rating,132134,Cornwall,,53,,,5,,,,,
null,,confidence_buffer,132237,confidence_buffer,,null,,,,,,,,
6606.300000071526,,memorable_rating,138847,Cornwall,,50,,,2,,,,,
null,,confidence_buffer,138950,confidence_buffer,,null,,,,,,,,
null,,thebreak,139453,break,,null,,,,,,,,
4840.5,,familiar_rating,144297,Juniper Creek,,49,Juniper Creek,Fictional,1,,,,,
null,,confidence_buffer,144401,confidence_buffer,,null,,,,,,,,
10662.799999952316,,unique_rating,155066,Juniper Creek,,53,,,5,,,,,
null,,confidence_buffer,155170,confidence_buffer,,null,,,,,,,,
3906.100000023842,,memorable_rating,159078,Juniper Creek,,49,,,1,,,,,
null,,confidence_buffer,159181,confidence_buffer,,null,,,,,,,,
null,,thebreak,159685,break,,null,,,,,,,,
6981.200000047684,,familiar_rating,166669,Summershade,,49,Summershade,Fictional,1,,,,,
null,,confidence_buffer,166773,confidence_buffer,,null,,,,,,,,
7248.5,,unique_rating,174024,Summershade,,52,,,4,,,,,
null,,confidence_buffer,174127,confidence_buffer,,null,,,,,,,,
5832.700000047684,,memorable_rating,179963,Summershade,,52,,,4,,,,,
null,,confidence_buffer,180068,confidence_buffer,,null,,,,,,,,
null,,thebreak,180571,break,,null,,,,,,,,
8714,,familiar_rating,189288,Cedarwyn,,49,Cedarwyn,Fictional,1,,,,,
null,,confidence_buffer,189392,confidence_buffer,,null,,,,,,,,
15196.200000047684,,unique_rating,204592,Cedarwyn,,53,,,5,,,,,
null,,confidence_buffer,204696,confidence_buffer,,null,,,,,,,,
5974.700000047684,,memorable_rating,210673,Cedarwyn,,49,,,1,,,,,
null,,confidence_buffer,210777,confidence_buffer,,null,,,,,,,,
null,,thebreak,211281,break,,null,,,,,,,,
6557.100000023842,,familiar_rating,217840,Clearbrook,,49,Clearbrook,Fictional,1,,,,,
null,,confidence_buffer,217943,confidence_buffer,,null,,,,,,,,
3323.0999999046326,,unique_rating,221269,Clearbrook,,52,,,4,,,,,
null,,confidence_buffer,221373,confidence_buffer,,null,,,,,,,,
2920.100000023842,,memorable_rating,224296,Clearbrook,,49,,,1,,,,,
null,,confidence_buffer,224399,confidence_buffer,,null,,,,,,,,
null,,thebreak,224902,break,,null,,,,,,,,
5048.699999928474,,familiar_rating,229954,Custer,,49,Custer,US,1,,,,,
null,,confidence_buffer,230056,confidence_buffer,,null,,,,,,,,
5214.800000071526,,unique_rating,235274,Custer,,49,,,1,,,,,
null,,confidence_buffer,235379,confidence_buffer,,null,,,,,,,,
8410.200000047684,,memorable_rating,243792,Custer,,49,,,1,,,,,
null,,confidence_buffer,243895,confidence_buffer,,null,,,,,,,,
null,,thebreak,244397,break,,null,,,,,,,,
5298.799999952316,,familiar_rating,249699,Bisbee,,49,Bisbee,US,1,,,,,
null,,confidence_buffer,249811,confidence_buffer,,null,,,,,,,,
3781.2999999523163,,unique_rating,253595,Bisbee,,53,,,5,,,,,
null,,confidence_buffer,253699,confidence_buffer,,null,,,,,,,,
4642.200000047684,,memorable_rating,258344,Bisbee,,50,,,2,,,,,
null,,confidence_buffer,258448,confidence_buffer,,null,,,,,,,,
null,,thebreak,258951,break,,null,,,,,,,,
3865.7000000476837,,familiar_rating,262820,San Antonio,,53,San Antonio,US,5,,,,,
null,,confidence_buffer,262926,confidence_buffer,,null,,,,,,,,
3436.399999976158,,unique_rating,266365,San Antonio,,49,,,1,,,,,
null,,confidence_buffer,266468,confidence_buffer,,null,,,,,,,,
3197.2999999523163,,memorable_rating,269668,San Antonio,,53,,,5,,,,,
null,,confidence_buffer,269771,confidence_buffer,,null,,,,,,,,
2932,,probe_rating,272706,probe_rating,,49,,,,1,1,,,
null,,confidence_buffer,272809,confidence_buffer,,null,,,,,,,,
null,,thebreak,273311,break,,null,,,,,,,,
3580.0999999046326,,familiar_rating,276895,Hot Springs,,53,Hot Springs,US,5,,,,,
null,,confidence_buffer,276999,confidence_buffer,,null,,,,,,,,
3687.2000000476837,,unique_rating,280690,Hot Springs,,49,,,1,,,,,
null,,confidence_buffer,280794,confidence_buffer,,null,,,,,,,,
3664.399999976158,,memorable_rating,284461,Hot Springs,,50,,,2,,,,,
null,,confidence_buffer,284565,confidence_buffer,,null,,,,,,,,
null,,thebreak,285068,break,,null,,,,,,,,
9600.700000047684,,familiar_rating,294673,Brookmere,,49,Brookmere,Fictional,1,,,,,
null,,confidence_buffer,294776,confidence_buffer,,null,,,,,,,,
7542.100000023842,,unique_rating,302321,Brookmere,,51,,,3,,,,,
null,,confidence_buffer,302424,confidence_buffer,,null,,,,,,,,
4610.800000071526,,memorable_rating,307038,Brookmere,,49,,,1,,,,,
null,,confidence_buffer,307142,confidence_buffer,,null,,,,,,,,
null,,thebreak,307645,break,,null,,,,,,,,
47280.699999928474,,familiar_rating,354929,Hollendale,,51,Hollendale,Fictional,3,,,,,
null,,confidence_buffer,355031,confidence_buffer,,null,,,,,,,,
3635.7000000476837,,unique_rating,358669,Hollendale,,49,,,1,,,,,
null,,confidence_buffer,358785,confidence_buffer,,null,,,,,,,,
4572.700000047684,,memorable_rating,363360,Hollendale,,49,,,1,,,,,
null,,confidence_buffer,363463,confidence_buffer,,null,,,,,,,,
null,,thebreak,363966,break,,null,,,,,,,,
9206.099999904633,,familiar_rating,373174,Stonebrook,,50,Stonebrook,Fictional,2,,,,,
null,,confidence_buffer,373278,confidence_buffer,,null,,,,,,,,
3594.100000023842,,unique_rating,376875,Stonebrook,,49,,,1,,,,,
null,,confidence_buffer,376978,confidence_buffer,,null,,,,,,,,
4028.5999999046326,,memorable_rating,381010,Stonebrook,,49,,,1,,,,,
null,,confidence_buffer,381113,confidence_buffer,,null,,,,,,,,
null,,thebreak,381617,break,,null,,,,,,,,
29979.600000023842,,familiar_rating,411600,Athens,,50,Athens,US,2,,,,,
null,,confidence_buffer,411703,confidence_buffer,,null,,,,,,,,
4164.699999928474,,unique_rating,415871,Athens,,52,,,4,,,,,
null,,confidence_buffer,415976,confidence_buffer,,null,,,,,,,,
3259.2999999523163,,memorable_rating,419238,Athens,,50,,,2,,,,,
null,,confidence_buffer,419342,confidence_buffer,,null,,,,,,,,
null,,thebreak,419845,break,,null,,,,,,,,
3120,,familiar_rating,422968,Elmsbury,,49,Elmsbury,Fictional,1,,,,,
null,,confidence_buffer,423073,confidence_buffer,,null,,,,,,,,
5947.700000047684,,unique_rating,429024,Elmsbury,,53,,,5,,,,,
null,,confidence_buffer,429128,confidence_buffer,,null,,,,,,,,
1669.2999999523163,,memorable_rating,430800,Elmsbury,,49,,,1,,,,,
null,,confidence_buffer,430904,confidence_buffer,,null,,,,,,,,
null,,thebreak,431407,break,,null,,,,,,,,
2141.100000023842,,familiar_rating,433551,Oakridge,,49,Oakridge,Fictional,1,,,,,
null,,confidence_buffer,433654,confidence_buffer,,null,,,,,,,,
4351.5,,unique_rating,438009,Oakridge,,52,,,4,,,,,
null,,confidence_buffer,438113,confidence_buffer,,null,,,,,,,,
1372.1000000238419,,memorable_rating,439488,Oakridge,,49,,,1,,,,,
null,,confidence_buffer,439592,confidence_buffer,,null,,,,,,,,
null,,thebreak,440094,break,,null,,,,,,,,
4792.5,,familiar_rating,444890,Driftwood Bay,,50,Driftwood Bay,Fictional,2,,,,,
null,,confidence_buffer,444992,confidence_buffer,,null,,,,,,,,
5656.100000023842,,unique_rating,450652,Driftwood Bay,,52,,,4,,,,,
null,,confidence_buffer,450755,confidence_buffer,,null,,,,,,,,
2508.600000023842,,memorable_rating,453266,Driftwood Bay,,50,,,2,,,,,
null,,confidence_buffer,453370,confidence_buffer,,null,,,,,,,,
null,,thebreak,453873,break,,null,,,,,,,,
3395.1999999284744,,familiar_rating,457271,Assateague Island,,49,Assateague Island,US,1,,,,,
null,,confidence_buffer,457376,confidence_buffer,,null,,,,,,,,
6540.700000047684,,unique_rating,463920,Assateague Island,,53,,,5,,,,,
null,,confidence_buffer,464035,confidence_buffer,,null,,,,,,,,
2643.6999999284744,,memorable_rating,466682,Assateague Island,,49,,,1,,,,,
null,,confidence_buffer,466785,confidence_buffer,,null,,,,,,,,
null,,thebreak,467297,break,,null,,,,,,,,
3278.600000023842,,familiar_rating,470579,Cleveland,,52,Cleveland,US,4,,,,,
null,,confidence_buffer,470683,confidence_buffer,,null,,,,,,,,
4590.699999928474,,unique_rating,475276,Cleveland,,49,,,1,,,,,
null,,confidence_buffer,475380,confidence_buffer,,null,,,,,,,,
3754.7999999523163,,memorable_rating,479137,Cleveland,,53,,,5,,,,,
null,,confidence_buffer,479241,confidence_buffer,,null,,,,,,,,
null,,thebreak,479745,break,,null,,,,,,,,
2965.5,,familiar_rating,482714,Briarfield,,49,Briarfield,Fictional,1,,,,,
null,,confidence_buffer,482817,confidence_buffer,,null,,,,,,,,
2935.600000023842,,unique_rating,485754,Briarfield,,49,,,1,,,,,
null,,confidence_buffer,485857,confidence_buffer,,null,,,,,,,,
1485.5999999046326,,memorable_rating,487346,Briarfield,,49,,,1,,,,,
null,,confidence_buffer,487450,confidence_buffer,,null,,,,,,,,
null,,thebreak,487952,break,,null,,,,,,,,
4639.299999952316,,familiar_rating,492595,Sisters,,49,Sisters,US,1,,,,,
null,,confidence_buffer,492699,confidence_buffer,,null,,,,,,,,
1636.2999999523163,,unique_rating,494338,Sisters,,49,,,1,,,,,
null,,confidence_buffer,494442,confidence_buffer,,null,,,,,,,,
3250.399999976158,,memorable_rating,497695,Sisters,,53,,,5,,,,,
null,,confidence_buffer,497799,confidence_buffer,,null,,,,,,,,
null,,thebreak,498302,break,,null,,,,,,,,
2065.399999976158,,familiar_rating,500370,Abilene,,49,Abilene,US,1,,,,,
null,,confidence_buffer,500473,confidence_buffer,,null,,,,,,,,
11044.300000071526,,unique_rating,511520,Abilene,,53,,,5,,,,,
null,,confidence_buffer,511624,confidence_buffer,,null,,,,,,,,
1963,,memorable_rating,513590,Abilene,,49,,,1,,,,,
null,,confidence_buffer,513693,confidence_buffer,,null,,,,,,,,
null,,thebreak,514196,break,,null,,,,,,,,
2299.8000000715256,,familiar_rating,516501,Fairhaven,,49,Fairhaven,Fictional,1,,,,,
null,,confidence_buffer,516606,confidence_buffer,,null,,,,,,,,
5604.199999928474,,unique_rating,522213,Fairhaven,,52,,,4,,,,,
null,,confidence_buffer,522317,confidence_buffer,,null,,,,,,,,
2374.7999999523163,,memorable_rating,524695,Fairhaven,,49,,,1,,,,,
null,,confidence_buffer,524799,confidence_buffer,,null,,,,,,,,
null,,thebreak,525302,break,,null,,,,,,,,
3839.100000023842,,familiar_rating,529144,Delaware City,,53,Delaware City,US,5,,,,,
null,,confidence_buffer,529249,confidence_buffer,,null,,,,,,,,
6439.700000047684,,unique_rating,535691,Delaware City,,52,,,4,,,,,
null,,confidence_buffer,535796,confidence_buffer,,null,,,,,,,,
4369,,memorable_rating,540168,Delaware City,,53,,,5,,,,,
null,,confidence_buffer,540273,confidence_buffer,,null,,,,,,,,
null,,thebreak,540777,break,,null,,,,,,,,
3795.899999976158,,familiar_rating,544576,Medora,,49,Medora,US,1,,,,,
null,,confidence_buffer,544681,confidence_buffer,,null,,,,,,,,
5032.799999952316,,unique_rating,549716,Medora,,53,,,5,,,,,
null,,confidence_buffer,549821,confidence_buffer,,null,,,,,,,,
2959.1999999284744,,memorable_rating,552783,Medora,,53,,,5,,,,,
null,,confidence_buffer,552886,confidence_buffer,,null,,,,,,,,
null,,thebreak,553389,break,,null,,,,,,,,
6264.799999952316,,familiar_rating,559657,Granton Ridge,,49,Granton Ridge,Fictional,1,,,,,
null,,confidence_buffer,559761,confidence_buffer,,null,,,,,,,,
6108.899999976158,,probe_rating,565873,probe_rating,,51,,,,3,1,,,
null,,confidence_buffer,565978,confidence_buffer,,null,,,,,,,,
7546.399999976158,,unique_rating,573528,Granton Ridge,,50,,,2,,,,,
null,,confidence_buffer,573631,confidence_buffer,,null,,,,,,,,
3068.100000023842,,memorable_rating,576702,Granton Ridge,,49,,,1,,,,,
null,,confidence_buffer,576806,confidence_buffer,,null,,,,,,,,
null,,thebreak,577308,break,,null,,,,,,,,
7783.5,,familiar_rating,585095,Bowling Green,,49,Bowling Green,US,1,,,,,
null,,confidence_buffer,585200,confidence_buffer,,null,,,,,,,,
4318.199999928474,,probe_rating,589521,probe_rating,,53,,,,5,1,,,
null,,confidence_buffer,589625,confidence_buffer,,null,,,,,,,,
4618.5,,unique_rating,594247,Bowling Green,,49,,,1,,,,,
null,,confidence_buffer,594350,confidence_buffer,,null,,,,,,,,
1197.8000000715256,,memorable_rating,595551,Bowling Green,,49,,,1,,,,,
null,,confidence_buffer,595654,confidence_buffer,,null,,,,,,,,
null,,thebreak,596158,break,,null,,,,,,,,
5077.899999976158,,familiar_rating,601239,Coralridge,,49,Coralridge,Fictional,1,,,,,
null,,confidence_buffer,601343,confidence_buffer,,null,,,,,,,,
2772.899999976158,,unique_rating,604119,Coralridge,,49,,,1,,,,,
null,,confidence_buffer,604223,confidence_buffer,,null,,,,,,,,
2428.6999999284744,,memorable_rating,606655,Coralridge,,49,,,1,,,,,
null,,confidence_buffer,606759,confidence_buffer,,null,,,,,,,,
null,,thebreak,607262,break,,null,,,,,,,,
4946.200000047684,,familiar_rating,612211,Albuquerque,,49,Albuquerque,US,1,,,,,
null,,confidence_buffer,612315,confidence_buffer,,null,,,,,,,,
5476.700000047684,,unique_rating,617794,Albuquerque,,49,,,1,,,,,
null,,confidence_buffer,617898,confidence_buffer,,null,,,,,,,,
3838.899999976158,,memorable_rating,621740,Albuquerque,,49,,,1,,,,,
null,,confidence_buffer,621844,confidence_buffer,,null,,,,,,,,
null,,thebreak,622350,break,,null,,,,,,,,
4014.899999976158,,familiar_rating,626367,Sierra Hollow,,50,Sierra Hollow,Fictional,2,,,,,
null,,confidence_buffer,626470,confidence_buffer,,null,,,,,,,,
3639.7999999523163,,unique_rating,630114,Sierra Hollow,,51,,,3,,,,,
null,,confidence_buffer,630217,confidence_buffer,,null,,,,,,,,
6383.100000023842,,memorable_rating,636604,Sierra Hollow,,50,,,2,,,,,
null,,confidence_buffer,636707,confidence_buffer,,null,,,,,,,,
null,,thebreak,637210,break,,null,,,,,,,,
6302.600000023842,,intro_0,643516,instruct,,32,,,,,,,,
10700.700000047684,,intro_1,654219,instruct,,32,,,,,,,,
53701.40000009537,,intro_2,707922,instruct,,32,,,,,,,,
null,,instruct_dir_4,709427,instruct,,null,,,,,,,,
9250.299999952316,,realistic_rating,718681,Driftwood Bay,,53,Driftwood Bay,Fictional,5,,,,,
null,,confidence_buffer,718785,confidence_buffer,,null,,,,,,,,
5668.099999904633,,pt2_unique_rating,724456,Driftwood Bay,,49,,,1,,,,,
null,,confidence_buffer,724560,confidence_buffer,,null,,,,,,,,
4380.400000095367,,pt2_memorable_rating,728943,Driftwood Bay,,50,,,2,,,,,
null,,confidence_buffer,729046,confidence_buffer,,null,,,,,,,,
5478,,probe_rating,734527,probe_rating,,49,,,,1,1,,,
null,,confidence_buffer,734635,confidence_buffer,,null,,,,,,,,
10858.699999928474,,recognition_phase,745497,Driftwood Bay,,52,,,,,,new,0,0
null,,confidence_buffer,745600,confidence_buffer,,null,,,,,,,,
null,,thebreak,746103,break,,null,,,,,,,,
14479.299999952316,,realistic_rating,760586,Briarfield,,53,Briarfield,Fictional,5,,,,,
null,,confidence_buffer,760689,confidence_buffer,,null,,,,,,,,
5423.600000023842,,pt2_unique_rating,766115,Briarfield,,53,,,5,,,,,
null,,confidence_buffer,766217,confidence_buffer,,null,,,,,,,,
10363.099999904633,,pt2_memorable_rating,776582,Briarfield,,50,,,2,,,,,
null,,confidence_buffer,776685,confidence_buffer,,null,,,,,,,,
3833.600000023842,,recognition_phase,780521,Briarfield,,52,,,,,,new,0,0
null,,confidence_buffer,780626,confidence_buffer,,null,,,,,,,,
null,,thebreak,781129,break,,null,,,,,,,,
6934.600000023842,,realistic_rating,788066,Sisters,,50,Sisters,US,2,,,,,
null,,confidence_buffer,788170,confidence_buffer,,null,,,,,,,,
2187.100000023842,,pt2_unique_rating,790360,Sisters,,50,,,2,,,,,
null,,confidence_buffer,790464,confidence_buffer,,null,,,,,,,,
4884.299999952316,,pt2_memorable_rating,795351,Sisters,,53,,,5,,,,,
null,,confidence_buffer,795454,confidence_buffer,,null,,,,,,,,
2576.5,,recognition_phase,798033,Sisters,,49,,,,,,old,1,0.3333333333333333
null,,confidence_buffer,798136,confidence_buffer,,null,,,,,,,,
null,,thebreak,798639,break,,null,,,,,,,,
7793,,realistic_rating,806435,Lake of the Ozarks,,50,Lake of the Ozarks,US,2,,,,,
null,,confidence_buffer,806539,confidence_buffer,,null,,,,,,,,
2966.399999976158,,pt2_unique_rating,809509,Lake of the Ozarks,,50,,,2,,,,,
null,,confidence_buffer,809612,confidence_buffer,,null,,,,,,,,
4462.700000047684,,pt2_memorable_rating,814077,Lake of the Ozarks,,52,,,4,,,,,
null,,confidence_buffer,814191,confidence_buffer,,null,,,,,,,,
3502.899999976158,,recognition_phase,817696,Lake of the Ozarks,,52,,,,,,new,1,0.5
null,,confidence_buffer,817800,confidence_buffer,,null,,,,,,,,
null,,thebreak,818302,break,,null,,,,,,,,
12793.600000023842,,realistic_rating,831098,Bowling Green,,51,Bowling Green,US,3,,,,,
null,,confidence_buffer,831201,confidence_buffer,,null,,,,,,,,
3328.5,,pt2_unique_rating,834533,Bowling Green,,49,,,1,,,,,
null,,confidence_buffer,834637,confidence_buffer,,null,,,,,,,,
3857.8000000715256,,pt2_memorable_rating,838497,Bowling Green,,50,,,2,,,,,
null,,confidence_buffer,838615,confidence_buffer,,null,,,,,,,,
3775.600000023842,,recognition_phase,842394,Bowling Green,,51,,,,,,new,0,0.4
null,,confidence_buffer,842497,confidence_buffer,,null,,,,,,,,
null,,thebreak,843000,break,,null,,,,,,,,
6992.599999904633,,realistic_rating,849996,Pine Hollow,,49,Pine Hollow,Fictional,1,,,,,
null,,confidence_buffer,850099,confidence_buffer,,null,,,,,,,,
3401.1999999284744,,pt2_unique_rating,853503,Pine Hollow,,49,,,1,,,,,
null,,confidence_buffer,853607,confidence_buffer,,null,,,,,,,,
1924.1000000238419,,pt2_memorable_rating,855534,Pine Hollow,,50,,,2,,,,,
null,,confidence_buffer,855638,confidence_buffer,,null,,,,,,,,
3124.600000023842,,recognition_phase,858766,Pine Hollow,,52,,,,,,new,1,0.5
null,,confidence_buffer,858869,confidence_buffer,,null,,,,,,,,
null,,thebreak,859372,break,,null,,,,,,,,
7090.900000095367,,realistic_rating,866465,West Talora,,52,West Talora,Fictional,4,,,,,
null,,confidence_buffer,866568,confidence_buffer,,null,,,,,,,,
2071.100000023842,,pt2_unique_rating,868643,West Talora,,52,,,4,,,,,
null,,confidence_buffer,868746,confidence_buffer,,null,,,,,,,,
2985.0999999046326,,pt2_memorable_rating,871735,West Talora,,50,,,2,,,,,
null,,confidence_buffer,871838,confidence_buffer,,null,,,,,,,,
3752.2000000476837,,recognition_phase,875593,West Talora,,52,,,,,,new,1,0.5714285714285714
null,,confidence_buffer,875696,confidence_buffer,,null,,,,,,,,
null,,thebreak,876198,break,,null,,,,,,,,
5620.799999952316,,realistic_rating,881822,Watkins Glen,,51,Watkins Glen,US,3,,,,,
null,,confidence_buffer,881925,confidence_buffer,,null,,,,,,,,
2846,,pt2_unique_rating,884774,Watkins Glen,,50,,,2,,,,,
null,,confidence_buffer,884878,confidence_buffer,,null,,,,,,,,
5905.899999976158,,pt2_memorable_rating,890786,Watkins Glen,,49,,,1,,,,,
null,,confidence_buffer,890890,confidence_buffer,,null,,,,,,,,
3491.5,,recognition_phase,894384,Watkins Glen,,52,,,,,,new,1,0.625
null,,confidence_buffer,894487,confidence_buffer,,null,,,,,,,,
null,,thebreak,894990,break,,null,,,,,,,,
11121.699999928474,,realistic_rating,906115,Montelake,,52,Montelake,Fictional,4,,,,,
null,,confidence_buffer,906219,confidence_buffer,,null,,,,,,,,
1476.5,,pt2_unique_rating,907698,Montelake,,52,,,4,,,,,
null,,confidence_buffer,907801,confidence_buffer,,null,,,,,,,,
2839.100000023842,,pt2_memorable_rating,910642,Montelake,,50,,,2,,,,,
null,,confidence_buffer,910744,confidence_buffer,,null,,,,,,,,
2950.2999999523163,,recognition_phase,913696,Montelake,,52,,,,,,new,1,0.6666666666666666
null,,confidence_buffer,913800,confidence_buffer,,null,,,,,,,,
null,,thebreak,914303,break,,null,,,,,,,,
12635.799999952316,,realistic_rating,926941,Northbridge,,53,Northbridge,Fictional,5,,,,,
null,,confidence_buffer,927044,confidence_buffer,,null,,,,,,,,
3910.7999999523163,,probe_rating,930956,probe_rating,,51,,,,3,1,,,
null,,confidence_buffer,931059,confidence_buffer,,null,,,,,,,,
5975.5,,pt2_unique_rating,937037,Northbridge,,50,,,2,,,,,
null,,confidence_buffer,937140,confidence_buffer,,null,,,,,,,,
2176.100000023842,,pt2_memorable_rating,939319,Northbridge,,50,,,2,,,,,
null,,confidence_buffer,939422,confidence_buffer,,null,,,,,,,,
4639.899999976158,,recognition_phase,944065,Northbridge,,52,,,,,,new,1,0.7
null,,confidence_buffer,944168,confidence_buffer,,null,,,,,,,,
null,,thebreak,944671,break,,null,,,,,,,,
4438.200000047684,,realistic_rating,949112,New Hope,,51,New Hope,US,3,,,,,
null,,confidence_buffer,949216,confidence_buffer,,null,,,,,,,,
3173,,probe_rating,952391,probe_rating,,53,,,,5,1,,,
null,,confidence_buffer,952495,confidence_buffer,,null,,,,,,,,
3656.600000023842,,pt2_unique_rating,956154,New Hope,,49,,,1,,,,,
null,,confidence_buffer,956271,confidence_buffer,,null,,,,,,,,
6048.600000023842,,pt2_memorable_rating,962322,New Hope,,49,,,1,,,,,
null,,confidence_buffer,962426,confidence_buffer,,null,,,,,,,,
3538.899999976158,,recognition_phase,965968,New Hope,,52,,,,,,new,1,0.7272727272727273
null,,confidence_buffer,966072,confidence_buffer,,null,,,,,,,,
null,,thebreak,966574,break,,null,,,,,,,,
5337.100000023842,,realistic_rating,971915,Willowford,,49,Willowford,Fictional,1,,,,,
null,,confidence_buffer,972017,confidence_buffer,,null,,,,,,,,
4876.900000095367,,pt2_unique_rating,976896,Willowford,,50,,,2,,,,,
null,,confidence_buffer,976999,confidence_buffer,,null,,,,,,,,
3214.6999999284744,,pt2_memorable_rating,980216,Willowford,,50,,,2,,,,,
null,,confidence_buffer,980320,confidence_buffer,,null,,,,,,,,
3225.9000000953674,,recognition_phase,983549,Willowford,,52,,,,,,new,1,0.75
null,,confidence_buffer,983652,confidence_buffer,,null,,,,,,,,
null,,thebreak,984155,break,,null,,,,,,,,
2940.7999999523163,,realistic_rating,987099,Okoboji,,49,Okoboji,US,1,,,,,
null,,confidence_buffer,987213,confidence_buffer,,null,,,,,,,,
4109.399999976158,,pt2_unique_rating,991325,Okoboji,,53,,,5,,,,,
null,,confidence_buffer,991430,confidence_buffer,,null,,,,,,,,
4608,,pt2_memorable_rating,996040,Okoboji,,50,,,2,,,,,
null,,confidence_buffer,996144,confidence_buffer,,null,,,,,,,,
2218.399999976158,,recognition_phase,998365,Okoboji,,52,,,,,,new,1,0.7692307692307693
null,,confidence_buffer,998468,confidence_buffer,,null,,,,,,,,
null,,thebreak,998971,break,,null,,,,,,,,
7975.899999976158,,realistic_rating,1006950,Delaro Park,,53,Delaro Park,Fictional,5,,,,,
null,,confidence_buffer,1007053,confidence_buffer,,null,,,,,,,,
5419.600000023842,,pt2_unique_rating,1012475,Delaro Park,,51,,,3,,,,,
null,,confidence_buffer,1012578,confidence_buffer,,null,,,,,,,,
2707.100000023842,,pt2_memorable_rating,1015288,Delaro Park,,51,,,3,,,,,
null,,confidence_buffer,1015394,confidence_buffer,,null,,,,,,,,
3623,,recognition_phase,1019020,Delaro Park,,52,,,,,,new,1,0.7857142857142857
null,,confidence_buffer,1019128,confidence_buffer,,null,,,,,,,,
null,,thebreak,1019630,break,,null,,,,,,,,
8459,,realistic_rating,1028091,Natchez,,49,Natchez,US,1,,,,,
null,,confidence_buffer,1028195,confidence_buffer,,null,,,,,,,,
8288,,pt2_unique_rating,1036486,Natchez,,53,,,5,,,,,
null,,confidence_buffer,1036589,confidence_buffer,,null,,,,,,,,
2436.7999999523163,,pt2_memorable_rating,1039029,Natchez,,49,,,1,,,,,
null,,confidence_buffer,1039131,confidence_buffer,,null,,,,,,,,
2501.3000000715256,,recognition_phase,1041636,Natchez,,52,,,,,,new,1,0.8
null,,confidence_buffer,1041739,confidence_buffer,,null,,,,,,,,
null,,thebreak,1042242,break,,null,,,,,,,,
7834.5,,realistic_rating,1050081,Golden Trace,,50,Golden Trace,Fictional,2,,,,,
null,,confidence_buffer,1050183,confidence_buffer,,null,,,,,,,,
7571.399999976158,,pt2_unique_rating,1057757,Golden Trace,,51,,,3,,,,,
null,,confidence_buffer,1057861,confidence_buffer,,null,,,,,,,,
3148.899999976158,,pt2_memorable_rating,1061015,Golden Trace,,49,,,1,,,,,
null,,confidence_buffer,1061119,confidence_buffer,,null,,,,,,,,
1782.3000000715256,,recognition_phase,1062907,Golden Trace,,52,,,,,,new,1,0.8125
null,,confidence_buffer,1063010,confidence_buffer,,null,,,,,,,,
null,,thebreak,1063513,break,,null,,,,,,,,
4187.399999976158,,realistic_rating,1067704,Hot Springs,,53,Hot Springs,US,5,,,,,
null,,confidence_buffer,1067808,confidence_buffer,,null,,,,,,,,
10281.100000023842,,pt2_unique_rating,1078092,Hot Springs,,49,,,1,,,,,
null,,confidence_buffer,1078195,confidence_buffer,,null,,,,,,,,
4058.2999999523163,,pt2_memorable_rating,1082257,Hot Springs,,53,,,5,,,,,
null,,confidence_buffer,1082360,confidence_buffer,,null,,,,,,,,
1735.1999999284744,,recognition_phase,1084098,Hot Springs,,49,,,,,,old,1,0.8235294117647058
null,,confidence_buffer,1084203,confidence_buffer,,null,,,,,,,,
null,,thebreak,1084706,break,,null,,,,,,,,
4370.600000023842,,realistic_rating,1089080,Summershade,,53,Summershade,Fictional,5,,,,,
null,,confidence_buffer,1089183,confidence_buffer,,null,,,,,,,,
3694,,pt2_unique_rating,1092880,Summershade,,49,,,1,,,,,
null,,confidence_buffer,1092983,confidence_buffer,,null,,,,,,,,
3678.5,,pt2_memorable_rating,1096665,Summershade,,53,,,5,,,,,
null,,confidence_buffer,1096768,confidence_buffer,,null,,,,,,,,
3381.899999976158,,recognition_phase,1100154,Summershade,,49,,,,,,old,1,0.8333333333333334
null,,confidence_buffer,1100256,confidence_buffer,,null,,,,,,,,
null,,thebreak,1100759,break,,null,,,,,,,,
5289.299999952316,,realistic_rating,1106052,Cedarwyn,,49,Cedarwyn,Fictional,1,,,,,
null,,confidence_buffer,1106156,confidence_buffer,,null,,,,,,,,
7988.399999976158,,pt2_unique_rating,1114147,Cedarwyn,,53,,,5,,,,,
null,,confidence_buffer,1114250,confidence_buffer,,null,,,,,,,,
3602.5,,pt2_memorable_rating,1117856,Cedarwyn,,49,,,1,,,,,
null,,confidence_buffer,1117959,confidence_buffer,,null,,,,,,,,
3251.5999999046326,,recognition_phase,1121215,Cedarwyn,,49,,,,,,old,1,0.8421052631578947
null,,confidence_buffer,1121318,confidence_buffer,,null,,,,,,,,
null,,thebreak,1121821,break,,null,,,,,,,,
21707.600000023842,,realistic_rating,1143532,Bar Harbor,,49,Bar Harbor,US,1,,,,,
null,,confidence_buffer,1143636,confidence_buffer,,null,,,,,,,,
3162,,pt2_unique_rating,1146800,Bar Harbor,,53,,,5,,,,,
null,,confidence_buffer,1146904,confidence_buffer,,null,,,,,,,,
4068.100000023842,,probe_rating,1150975,probe_rating,,53,,,,5,1,,,
null,,confidence_buffer,1151077,confidence_buffer,,null,,,,,,,,
5510.100000023842,,pt2_memorable_rating,1156590,Bar Harbor,,53,,,5,,,,,
null,,confidence_buffer,1156693,confidence_buffer,,null,,,,,,,,
9511.599999904633,,recognition_phase,1166207,Bar Harbor,,52,,,,,,new,1,0.85
null,,confidence_buffer,1166309,confidence_buffer,,null,,,,,,,,
null,,thebreak,1166812,break,,null,,,,,,,,
4410.5,,realistic_rating,1171225,Custer,,49,Custer,US,1,,,,,
null,,confidence_buffer,1171328,confidence_buffer,,null,,,,,,,,
7359.200000047684,,pt2_unique_rating,1178690,Custer,,49,,,1,,,,,
null,,confidence_buffer,1178795,confidence_buffer,,null,,,,,,,,
3950.3000000715256,,pt2_memorable_rating,1182748,Custer,,51,,,3,,,,,
null,,confidence_buffer,1182865,confidence_buffer,,null,,,,,,,,
10756.399999976158,,recognition_phase,1193624,Custer,,49,,,,,,old,1,0.8571428571428571
null,,confidence_buffer,1193728,confidence_buffer,,null,,,,,,,,
null,,thebreak,1194230,break,,null,,,,,,,,
5825.399999976158,,realistic_rating,1200059,Cornwall,,53,Cornwall,US,5,,,,,
null,,confidence_buffer,1200163,confidence_buffer,,null,,,,,,,,
2819.5999999046326,,pt2_unique_rating,1202986,Cornwall,,49,,,1,,,,,
null,,confidence_buffer,1203090,confidence_buffer,,null,,,,,,,,
2387.2000000476837,,pt2_memorable_rating,1205480,Cornwall,,49,,,1,,,,,
null,,confidence_buffer,1205583,confidence_buffer,,null,,,,,,,,
7546.099999904633,,recognition_phase,1213132,Cornwall,,50,,,,,,old,1,0.8636363636363636
null,,confidence_buffer,1213236,confidence_buffer,,null,,,,,,,,
null,,thebreak,1213739,break,,null,,,,,,,,
2971.6999999284744,,realistic_rating,1216714,Hilo,,49,Hilo,US,1,,,,,
null,,confidence_buffer,1216819,confidence_buffer,,null,,,,,,,,
4775.400000095367,,pt2_unique_rating,1221597,Hilo,,52,,,4,,,,,
null,,confidence_buffer,1221700,confidence_buffer,,null,,,,,,,,
3716.600000023842,,pt2_memorable_rating,1225420,Hilo,,49,,,1,,,,,
null,,confidence_buffer,1225523,confidence_buffer,,null,,,,,,,,
2022,,recognition_phase,1227548,Hilo,,52,,,,,,new,1,0.8695652173913043
null,,confidence_buffer,1227651,confidence_buffer,,null,,,,,,,,
null,,thebreak,1228154,break,,null,,,,,,,,
73414.19999992847,,realistic_rating,1301571,Assateague Island,,53,Assateague Island,US,5,,,,,
null,,confidence_buffer,1301674,confidence_buffer,,null,,,,,,,,
3288.5,,pt2_unique_rating,1304965,Assateague Island,,53,,,5,,,,,
null,,confidence_buffer,1305070,confidence_buffer,,null,,,,,,,,
2538.9000000953674,,pt2_memorable_rating,1307612,Assateague Island,,50,,,2,,,,,
null,,confidence_buffer,1307721,confidence_buffer,,null,,,,,,,,
2983.899999976158,,recognition_phase,1310708,Assateague Island,,50,,,,,,old,1,0.875
null,,confidence_buffer,1310814,confidence_buffer,,null,,,,,,,,
null,,thebreak,1311316,break,,null,,,,,,,,
3706.600000023842,,realistic_rating,1315026,Abilene,,49,Abilene,US,1,,,,,
null,,confidence_buffer,1315128,confidence_buffer,,null,,,,,,,,
3097.3000000715256,,pt2_unique_rating,1318228,Abilene,,50,,,2,,,,,
null,,confidence_buffer,1318332,confidence_buffer,,null,,,,,,,,
7060.5,,pt2_memorable_rating,1325395,Abilene,,49,,,1,,,,,
null,,confidence_buffer,1325498,confidence_buffer,,null,,,,,,,,
6942.5,,recognition_phase,1332443,Abilene,,49,,,,,,old,1,0.88
null,,confidence_buffer,1332546,confidence_buffer,,null,,,,,,,,
null,,thebreak,1333049,break,,null,,,,,,,,
3960.6999999284744,,realistic_rating,1337013,Sitka,,49,Sitka,US,1,,,,,
null,,confidence_buffer,1337116,confidence_buffer,,null,,,,,,,,
2842.899999976158,,pt2_unique_rating,1339963,Sitka,,50,,,2,,,,,
null,,confidence_buffer,1340067,confidence_buffer,,null,,,,,,,,
3646.6999999284744,,pt2_memorable_rating,1343716,Sitka,,49,,,1,,,,,
null,,confidence_buffer,1343820,confidence_buffer,,null,,,,,,,,
2352,,recognition_phase,1346175,Sitka,,52,,,,,,new,1,0.8846153846153846
null,,confidence_buffer,1346279,confidence_buffer,,null,,,,,,,,
null,,thebreak,1346782,break,,null,,,,,,,,
6787.799999952316,,realistic_rating,1353573,Bisbee,,49,Bisbee,US,1,,,,,
null,,confidence_buffer,1353677,confidence_buffer,,null,,,,,,,,
2760,,pt2_unique_rating,1356439,Bisbee,,50,,,2,,,,,
null,,confidence_buffer,1356543,confidence_buffer,,null,,,,,,,,
4183.200000047684,,pt2_memorable_rating,1360729,Bisbee,,52,,,4,,,,,
null,,confidence_buffer,1360834,confidence_buffer,,null,,,,,,,,
3053,,recognition_phase,1363890,Bisbee,,49,,,,,,old,1,0.8888888888888888
null,,confidence_buffer,1363995,confidence_buffer,,null,,,,,,,,
null,,thebreak,1364499,break,,null,,,,,,,,
4489.699999928474,,realistic_rating,1368991,Millstone,,51,Millstone,Fictional,3,,,,,
null,,confidence_buffer,1369094,confidence_buffer,,null,,,,,,,,
1807.3999999761581,,pt2_unique_rating,1370903,Millstone,,51,,,3,,,,,
null,,confidence_buffer,1371006,confidence_buffer,,null,,,,,,,,
3698,,pt2_memorable_rating,1374706,Millstone,,50,,,2,,,,,
null,,confidence_buffer,1374810,confidence_buffer,,null,,,,,,,,
4680.300000071526,,recognition_phase,1379494,Millstone,,52,,,,,,new,1,0.8928571428571429
null,,confidence_buffer,1379598,confidence_buffer,,null,,,,,,,,
null,,thebreak,1380101,break,,null,,,,,,,,
4030,,realistic_rating,1384134,Brookmere,,49,Brookmere,Fictional,1,,,,,
null,,confidence_buffer,1384237,confidence_buffer,,null,,,,,,,,
3577.899999976158,,pt2_unique_rating,1387818,Brookmere,,50,,,2,,,,,
null,,confidence_buffer,1387921,confidence_buffer,,null,,,,,,,,
7073.299999952316,,pt2_memorable_rating,1394997,Brookmere,,50,,,2,,,,,
null,,confidence_buffer,1395101,confidence_buffer,,null,,,,,,,,
3372.2999999523163,,recognition_phase,1398477,Brookmere,,51,,,,,,new,0,0.8620689655172413
null,,confidence_buffer,1398579,confidence_buffer,,null,,,,,,,,
null,,thebreak,1399082,break,,null,,,,,,,,
8306.700000047684,,realistic_rating,1407392,Hanover,,49,Hanover,US,1,,,,,
null,,confidence_buffer,1407496,confidence_buffer,,null,,,,,,,,
5432.5,,pt2_unique_rating,1412932,Hanover,,52,,,4,,,,,
null,,confidence_buffer,1413035,confidence_buffer,,null,,,,,,,,
8882.5,,pt2_memorable_rating,1421921,Hanover,,50,,,2,,,,,
null,,confidence_buffer,1422023,confidence_buffer,,null,,,,,,,,
3993,,recognition_phase,1426019,Hanover,,52,,,,,,new,1,0.8666666666666667
null,,confidence_buffer,1426123,confidence_buffer,,null,,,,,,,,
null,,thebreak,1426625,break,,null,,,,,,,,
6510.800000071526,,realistic_rating,1433140,Alliance,,51,Alliance,US,3,,,,,
null,,confidence_buffer,1433244,confidence_buffer,,null,,,,,,,,
5607.799999952316,,pt2_unique_rating,1438855,Alliance,,49,,,1,,,,,
null,,confidence_buffer,1438959,confidence_buffer,,null,,,,,,,,
4641.799999952316,,pt2_memorable_rating,1443604,Alliance,,49,,,1,,,,,
null,,confidence_buffer,1443708,confidence_buffer,,null,,,,,,,,
1978.1000000238419,,recognition_phase,1445689,Alliance,,52,,,,,,new,1,0.8709677419354839
null,,confidence_buffer,1445793,confidence_buffer,,null,,,,,,,,
null,,thebreak,1446296,break,,null,,,,,,,,
3125,,realistic_rating,1449423,Medora,,49,Medora,US,1,,,,,
null,,confidence_buffer,1449528,confidence_buffer,,null,,,,,,,,
1876.5,,pt2_unique_rating,1451408,Medora,,50,,,2,,,,,
null,,confidence_buffer,1451512,confidence_buffer,,null,,,,,,,,
3370.5999999046326,,pt2_memorable_rating,1454885,Medora,,49,,,1,,,,,
null,,confidence_buffer,1454988,confidence_buffer,,null,,,,,,,,
3045.899999976158,,recognition_phase,1458037,Medora,,52,,,,,,new,0,0.84375
null,,confidence_buffer,1458141,confidence_buffer,,null,,,,,,,,
null,,thebreak,1458645,break,,null,,,,,,,,
3071.5,,realistic_rating,1461719,Redgrove,,49,Redgrove,Fictional,1,,,,,
null,,confidence_buffer,1461823,confidence_buffer,,null,,,,,,,,
4418.200000047684,,pt2_unique_rating,1466244,Redgrove,,53,,,5,,,,,
null,,confidence_buffer,1466348,confidence_buffer,,null,,,,,,,,
2068.8000000715256,,pt2_memorable_rating,1468419,Redgrove,,49,,,1,,,,,
null,,confidence_buffer,1468523,confidence_buffer,,null,,,,,,,,
6082.100000023842,,probe_rating,1474607,probe_rating,,52,,,,4,1,,,
null,,confidence_buffer,1474711,confidence_buffer,,null,,,,,,,,
4647,,recognition_phase,1479361,Redgrove,,52,,,,,,new,1,0.8484848484848485
null,,confidence_buffer,1479465,confidence_buffer,,null,,,,,,,,
null,,thebreak,1479968,break,,null,,,,,,,,
72703.90000009537,,realistic_rating,1552675,West Palm Beach,,53,West Palm Beach,US,5,,,,,
null,,confidence_buffer,1552779,confidence_buffer,,null,,,,,,,,
3225.5,,pt2_unique_rating,1556007,West Palm Beach,,49,,,1,,,,,
null,,confidence_buffer,1556111,confidence_buffer,,null,,,,,,,,
3476,,pt2_memorable_rating,1559590,West Palm Beach,,53,,,5,,,,,
null,,confidence_buffer,1559694,confidence_buffer,,null,,,,,,,,
6644,,recognition_phase,1566341,West Palm Beach,,51,,,,,,new,1,0.8529411764705882
null,,confidence_buffer,1566446,confidence_buffer,,null,,,,,,,,
null,,thebreak,1566949,break,,null,,,,,,,,
6498.299999952316,,realistic_rating,1573451,Hollendale,,50,Hollendale,Fictional,2,,,,,
null,,confidence_buffer,1573555,confidence_buffer,,null,,,,,,,,
3028.100000023842,,pt2_unique_rating,1576586,Hollendale,,49,,,1,,,,,
null,,confidence_buffer,1576690,confidence_buffer,,null,,,,,,,,
3220.3000000715256,,pt2_memorable_rating,1579912,Hollendale,,50,,,2,,,,,
null,,confidence_buffer,1580015,confidence_buffer,,null,,,,,,,,
6328.700000047684,,recognition_phase,1586348,Hollendale,,50,,,,,,old,1,0.8571428571428571
null,,confidence_buffer,1586451,confidence_buffer,,null,,,,,,,,
null,,thebreak,1586955,break,,null,,,,,,,,
5881.599999904633,,realistic_rating,1592840,Fairhaven,,53,Fairhaven,Fictional,5,,,,,
null,,confidence_buffer,1592942,confidence_buffer,,null,,,,,,,,
3251.100000023842,,pt2_unique_rating,1596196,Fairhaven,,50,,,2,,,,,
null,,confidence_buffer,1596299,confidence_buffer,,null,,,,,,,,
4657.199999928474,,pt2_memorable_rating,1600959,Fairhaven,,52,,,4,,,,,
null,,confidence_buffer,1601065,confidence_buffer,,null,,,,,,,,
5156.5,,probe_rating,1606224,probe_rating,,50,,,,2,1,,,
null,,confidence_buffer,1606326,confidence_buffer,,null,,,,,,,,
3285.600000023842,,recognition_phase,1609615,Fairhaven,,49,,,,,,old,1,0.8611111111111112
null,,confidence_buffer,1609720,confidence_buffer,,null,,,,,,,,
null,,thebreak,1610223,break,,null,,,,,,,,
7248.700000047684,,realistic_rating,1617475,Granton Ridge,,53,Granton Ridge,Fictional,5,,,,,
null,,confidence_buffer,1617579,confidence_buffer,,null,,,,,,,,
3148.399999976158,,pt2_unique_rating,1620730,Granton Ridge,,52,,,4,,,,,
null,,confidence_buffer,1620834,confidence_buffer,,null,,,,,,,,
2807.399999976158,,pt2_memorable_rating,1623644,Granton Ridge,,52,,,4,,,,,
null,,confidence_buffer,1623748,confidence_buffer,,null,,,,,,,,
5772.200000047684,,recognition_phase,1629524,Granton Ridge,,52,,,,,,new,0,0.8378378378378378
null,,confidence_buffer,1629627,confidence_buffer,,null,,,,,,,,
null,,thebreak,1630129,break,,null,,,,,,,,
4645.600000023842,,realistic_rating,1634778,Albuquerque,,49,Albuquerque,US,1,,,,,
null,,confidence_buffer,1634882,confidence_buffer,,null,,,,,,,,
5250.100000023842,,pt2_unique_rating,1640135,Albuquerque,,53,,,5,,,,,
null,,confidence_buffer,1640238,confidence_buffer,,null,,,,,,,,
2434.6999999284744,,pt2_memorable_rating,1642676,Albuquerque,,49,,,1,,,,,
null,,confidence_buffer,1642780,confidence_buffer,,null,,,,,,,,
5432,,recognition_phase,1648215,Albuquerque,,51,,,,,,new,0,0.8157894736842105
null,,confidence_buffer,1648318,confidence_buffer,,null,,,,,,,,
null,,thebreak,1648821,break,,null,,,,,,,,
5148,,realistic_rating,1653971,Delaware City,,53,Delaware City,US,5,,,,,
null,,confidence_buffer,1654075,confidence_buffer,,null,,,,,,,,
4249.699999928474,,pt2_unique_rating,1658327,Delaware City,,49,,,1,,,,,
null,,confidence_buffer,1658430,confidence_buffer,,null,,,,,,,,
8176.800000071526,,pt2_memorable_rating,1666610,Delaware City,,50,,,2,,,,,
null,,confidence_buffer,1666715,confidence_buffer,,null,,,,,,,,
12365.200000047684,,recognition_phase,1679084,Delaware City,,50,,,,,,old,1,0.8205128205128205
null,,confidence_buffer,1679187,confidence_buffer,,null,,,,,,,,
null,,thebreak,1679689,break,,null,,,,,,,,
6228.200000047684,,realistic_rating,1685921,Cleveland,,53,Cleveland,US,5,,,,,
null,,confidence_buffer,1686026,confidence_buffer,,null,,,,,,,,
4154,,pt2_unique_rating,1690183,Cleveland,,49,,,1,,,,,
null,,confidence_buffer,1690285,confidence_buffer,,null,,,,,,,,
4565.300000071526,,probe_rating,1694854,probe_rating,,49,,,,1,1,,,
null,,confidence_buffer,1694958,confidence_buffer,,null,,,,,,,,
8408.399999976158,,pt2_memorable_rating,1703369,Cleveland,,53,,,5,,,,,
null,,confidence_buffer,1703471,confidence_buffer,,null,,,,,,,,
10573.600000023842,,recognition_phase,1714048,Cleveland,,52,,,,,,new,0,0.8
null,,confidence_buffer,1714151,confidence_buffer,,null,,,,,,,,
null,,thebreak,1714655,break,,null,,,,,,,,
6955.300000071526,,realistic_rating,1721614,Crestwood,,52,Crestwood,Fictional,4,,,,,
null,,confidence_buffer,1721717,confidence_buffer,,null,,,,,,,,
2761.899999976158,,pt2_unique_rating,1724482,Crestwood,,52,,,4,,,,,
null,,confidence_buffer,1724586,confidence_buffer,,null,,,,,,,,
2242.3000000715256,,pt2_memorable_rating,1726831,Crestwood,,50,,,2,,,,,
null,,confidence_buffer,1726936,confidence_buffer,,null,,,,,,,,
null,,recognition_phase,1741940,Crestwood,,null,,,,,,old,0,0.7804878048780488
null,,confidence_buffer,1742045,confidence_buffer,,null,,,,,,,,
null,,thebreak,1742551,break,,null,,,,,,,,
7606,,realistic_rating,1750160,San Antonio,,53,San Antonio,US,5,,,,,
null,,confidence_buffer,1750261,confidence_buffer,,null,,,,,,,,
5921.399999976158,,pt2_unique_rating,1756185,San Antonio,,49,,,1,,,,,
null,,confidence_buffer,1756288,confidence_buffer,,null,,,,,,,,
5877.5,,pt2_memorable_rating,1762169,San Antonio,,53,,,5,,,,,
null,,confidence_buffer,1762272,confidence_buffer,,null,,,,,,,,
2097.5,,recognition_phase,1764373,San Antonio,,49,,,,,,old,1,0.7857142857142857
null,,confidence_buffer,1764477,confidence_buffer,,null,,,,,,,,
null,,thebreak,1764980,break,,null,,,,,,,,
1692.7000000476837,,realistic_rating,1766677,Gloucester,,49,Gloucester,US,1,,,,,
null,,confidence_buffer,1766796,confidence_buffer,,null,,,,,,,,
4791.899999976158,,pt2_unique_rating,1771591,Gloucester,,52,,,4,,,,,
null,,confidence_buffer,1771696,confidence_buffer,,null,,,,,,,,
2257.5,,pt2_memorable_rating,1773956,Gloucester,,49,,,1,,,,,
null,,confidence_buffer,1774059,confidence_buffer,,null,,,,,,,,
2706.3000000715256,,recognition_phase,1776768,Gloucester,,52,,,,,,new,1,0.7906976744186046
null,,confidence_buffer,1776873,confidence_buffer,,null,,,,,,,,
null,,thebreak,1777376,break,,null,,,,,,,,
3722.399999976158,,realistic_rating,1781101,Bayshore Haven,,49,Bayshore Haven,Fictional,1,,,,,
null,,confidence_buffer,1781211,confidence_buffer,,null,,,,,,,,
5219.899999976158,,pt2_unique_rating,1786435,Bayshore Haven,,49,,,1,,,,,
null,,confidence_buffer,1786539,confidence_buffer,,null,,,,,,,,
3780.2999999523163,,probe_rating,1790323,probe_rating,,53,,,,5,1,,,
null,,confidence_buffer,1790427,confidence_buffer,,null,,,,,,,,
7977.100000023842,,pt2_memorable_rating,1798407,Bayshore Haven,,49,,,1,,,,,
null,,confidence_buffer,1798511,confidence_buffer,,null,,,,,,,,
2366.600000023842,,recognition_phase,1800881,Bayshore Haven,,52,,,,,,new,1,0.7954545454545454
null,,confidence_buffer,1800983,confidence_buffer,,null,,,,,,,,
null,,thebreak,1801486,break,,null,,,,,,,,
6882.100000023842,,realistic_rating,1808372,Stonebrook,,50,Stonebrook,Fictional,2,,,,,
null,,confidence_buffer,1808476,confidence_buffer,,null,,,,,,,,
1926.5,,pt2_unique_rating,1810406,Stonebrook,,50,,,2,,,,,
null,,confidence_buffer,1810509,confidence_buffer,,null,,,,,,,,
3027,,pt2_memorable_rating,1813539,Stonebrook,,49,,,1,,,,,
null,,confidence_buffer,1813643,confidence_buffer,,null,,,,,,,,
2438.899999976158,,recognition_phase,1816086,Stonebrook,,52,,,,,,new,0,0.7777777777777778
null,,confidence_buffer,1816190,confidence_buffer,,null,,,,,,,,
null,,thebreak,1816693,break,,null,,,,,,,,
7736.199999928474,,realistic_rating,1824433,Coralridge,,52,Coralridge,Fictional,4,,,,,
null,,confidence_buffer,1824537,confidence_buffer,,null,,,,,,,,
3492,,pt2_unique_rating,1828032,Coralridge,,52,,,4,,,,,
null,,confidence_buffer,1828141,confidence_buffer,,null,,,,,,,,
1662.6000000238419,,pt2_memorable_rating,1829806,Coralridge,,50,,,2,,,,,
null,,confidence_buffer,1829908,confidence_buffer,,null,,,,,,,,
7873.600000023842,,recognition_phase,1837785,Coralridge,,52,,,,,,new,0,0.7608695652173914
null,,confidence_buffer,1837889,confidence_buffer,,null,,,,,,,,
null,,thebreak,1838391,break,,null,,,,,,,,
5804.899999976158,,realistic_rating,1844198,Manistee,,49,Manistee,US,1,,,,,
null,,confidence_buffer,1844300,confidence_buffer,,null,,,,,,,,
4447.199999928474,,pt2_unique_rating,1848750,Manistee,,53,,,5,,,,,
null,,confidence_buffer,1848853,confidence_buffer,,null,,,,,,,,
3106.399999976158,,pt2_memorable_rating,1851962,Manistee,,49,,,1,,,,,
null,,confidence_buffer,1852065,confidence_buffer,,null,,,,,,,,
2529,,recognition_phase,1854597,Manistee,,52,,,,,,new,1,0.7659574468085106
null,,confidence_buffer,1854700,confidence_buffer,,null,,,,,,,,
null,,thebreak,1855203,break,,null,,,,,,,,
2927.899999976158,,realistic_rating,1858136,Leesburg,,49,Leesburg,US,1,,,,,
null,,confidence_buffer,1858239,confidence_buffer,,null,,,,,,,,
3733,,probe_rating,1861975,probe_rating,,53,,,,5,1,,,
null,,confidence_buffer,1862078,confidence_buffer,,null,,,,,,,,
8310.900000095367,,pt2_unique_rating,1870392,Leesburg,,52,,,4,,,,,
null,,confidence_buffer,1870497,confidence_buffer,,null,,,,,,,,
2386,,pt2_memorable_rating,1872884,Leesburg,,49,,,1,,,,,
null,,confidence_buffer,1872987,confidence_buffer,,null,,,,,,,,
5409.299999952316,,recognition_phase,1878399,Leesburg,,52,,,,,,new,1,0.7708333333333334
null,,confidence_buffer,1878503,confidence_buffer,,null,,,,,,,,
null,,thebreak,1879005,break,,null,,,,,,,,
9753.5,,realistic_rating,1888760,Clearbrook,,52,Clearbrook,Fictional,4,,,,,
null,,confidence_buffer,1888864,confidence_buffer,,null,,,,,,,,
5772.5,,probe_rating,1894639,probe_rating,,49,,,,1,1,,,
null,,confidence_buffer,1894743,confidence_buffer,,null,,,,,,,,
3373.899999976158,,pt2_unique_rating,1898121,Clearbrook,,50,,,2,,,,,
null,,confidence_buffer,1898229,confidence_buffer,,null,,,,,,,,
3156.600000023842,,pt2_memorable_rating,1901389,Clearbrook,,49,,,1,,,,,
null,,confidence_buffer,1901492,confidence_buffer,,null,,,,,,,,
7462.799999952316,,recognition_phase,1908959,Clearbrook,,50,,,,,,old,1,0.7755102040816326
null,,confidence_buffer,1909063,confidence_buffer,,null,,,,,,,,
null,,thebreak,1909566,break,,null,,,,,,,,
6299.5,,realistic_rating,1915870,Falconridge,,49,Falconridge,Fictional,1,,,,,
null,,confidence_buffer,1915974,confidence_buffer,,null,,,,,,,,
3464.5,,pt2_unique_rating,1919441,Falconridge,,50,,,2,,,,,
null,,confidence_buffer,1919546,confidence_buffer,,null,,,,,,,,
2294.1999999284744,,pt2_memorable_rating,1921843,Falconridge,,49,,,1,,,,,
null,,confidence_buffer,1921947,confidence_buffer,,null,,,,,,,,
2830,,recognition_phase,1924780,Falconridge,,52,,,,,,new,1,0.78
null,,confidence_buffer,1924884,confidence_buffer,,null,,,,,,,,
null,,thebreak,1925387,break,,null,,,,,,,,
8691.300000071526,,realistic_rating,1934082,Sierra Hollow,,49,Sierra Hollow,Fictional,1,,,,,
null,,confidence_buffer,1934185,confidence_buffer,,null,,,,,,,,
3505.5,,probe_rating,1937693,probe_rating,,51,,,,3,1,,,
null,,confidence_buffer,1937797,confidence_buffer,,null,,,,,,,,
4104,,pt2_unique_rating,1941903,Sierra Hollow,,51,,,3,,,,,
null,,confidence_buffer,1942006,confidence_buffer,,null,,,,,,,,
5761.600000023842,,pt2_memorable_rating,1947771,Sierra Hollow,,51,,,3,,,,,
null,,confidence_buffer,1947873,confidence_buffer,,null,,,,,,,,
9033.5,,recognition_phase,1956910,Sierra Hollow,,50,,,,,,old,1,0.7843137254901961
null,,confidence_buffer,1957021,confidence_buffer,,null,,,,,,,,
null,,thebreak,1957524,break,,null,,,,,,,,
7349.399999976158,,realistic_rating,1964876,Elmsbury,,52,Elmsbury,Fictional,4,,,,,
null,,confidence_buffer,1964981,confidence_buffer,,null,,,,,,,,
2496.7999999523163,,pt2_unique_rating,1967481,Elmsbury,,52,,,4,,,,,
null,,confidence_buffer,1967585,confidence_buffer,,null,,,,,,,,
2389.7000000476837,,pt2_memorable_rating,1969978,Elmsbury,,49,,,1,,,,,
null,,confidence_buffer,1970082,confidence_buffer,,null,,,,,,,,
4148.800000071526,,recognition_phase,1974235,Elmsbury,,52,,,,,,new,0,0.7692307692307693
null,,confidence_buffer,1974339,confidence_buffer,,null,,,,,,,,
null,,thebreak,1974841,break,,null,,,,,,,,
8977.799999952316,,realistic_rating,1983823,Baymarsh,,49,Baymarsh,Fictional,1,,,,,
null,,confidence_buffer,1983925,confidence_buffer,,null,,,,,,,,
3625.7000000476837,,pt2_unique_rating,1987554,Baymarsh,,49,,,1,,,,,
null,,confidence_buffer,1987659,confidence_buffer,,null,,,,,,,,
6080.5,,pt2_memorable_rating,1993742,Baymarsh,,49,,,1,,,,,
null,,confidence_buffer,1993852,confidence_buffer,,null,,,,,,,,
2321.7000000476837,,recognition_phase,1996177,Baymarsh,,52,,,,,,new,1,0.7735849056603774
null,,confidence_buffer,1996280,confidence_buffer,,null,,,,,,,,
null,,thebreak,1996784,break,,null,,,,,,,,
7800.899999976158,,realistic_rating,2004588,Oakridge,,52,Oakridge,Fictional,4,,,,,
null,,confidence_buffer,2004693,confidence_buffer,,null,,,,,,,,
2829.7999999523163,,pt2_unique_rating,2007527,Oakridge,,52,,,4,,,,,
null,,confidence_buffer,2007630,confidence_buffer,,null,,,,,,,,
2133.7999999523163,,pt2_memorable_rating,2009767,Oakridge,,50,,,2,,,,,
null,,confidence_buffer,2009871,confidence_buffer,,null,,,,,,,,
2100.3000000715256,,recognition_phase,2011974,Oakridge,,52,,,,,,new,0,0.7592592592592593
null,,confidence_buffer,2012079,confidence_buffer,,null,,,,,,,,
null,,thebreak,2012581,break,,null,,,,,,,,
7671.200000047684,,realistic_rating,2020255,Athens,,53,Athens,US,5,,,,,
null,,confidence_buffer,2020359,confidence_buffer,,null,,,,,,,,
2964.600000023842,,pt2_unique_rating,2023327,Athens,,49,,,1,,,,,
null,,confidence_buffer,2023430,confidence_buffer,,null,,,,,,,,
4417,,pt2_memorable_rating,2027850,Athens,,50,,,2,,,,,
null,,confidence_buffer,2027955,confidence_buffer,,null,,,,,,,,
3528.3000000715256,,recognition_phase,2031487,Athens,,49,,,,,,old,1,0.7636363636363637
null,,confidence_buffer,2031591,confidence_buffer,,null,,,,,,,,
null,,thebreak,2032093,break,,null,,,,,,,,
2000.5,,realistic_rating,2034097,Claywater,,49,Claywater,Fictional,1,,,,,
null,,confidence_buffer,2034201,confidence_buffer,,null,,,,,,,,
7752.199999928474,,pt2_unique_rating,2041955,Claywater,,50,,,2,,,,,
null,,confidence_buffer,2042057,confidence_buffer,,null,,,,,,,,
6745.100000023842,,pt2_memorable_rating,2048806,Claywater,,51,,,3,,,,,
null,,confidence_buffer,2048910,confidence_buffer,,null,,,,,,,,
2485.7000000476837,,recognition_phase,2051399,Claywater,,52,,,,,,new,1,0.7678571428571429
null,,confidence_buffer,2051502,confidence_buffer,,null,,,,,,,,
null,,thebreak,2052004,break,,null,,,,,,,,
4671.100000023842,,realistic_rating,2056678,Carmel,,51,Carmel,US,3,,,,,
null,,confidence_buffer,2056791,confidence_buffer,,null,,,,,,,,
6545.600000023842,,pt2_unique_rating,2063339,Carmel,,50,,,2,,,,,
null,,confidence_buffer,2063443,confidence_buffer,,null,,,,,,,,
6908,,pt2_memorable_rating,2070355,Carmel,,53,,,5,,,,,
null,,confidence_buffer,2070459,confidence_buffer,,null,,,,,,,,
3129.5,,recognition_phase,2073591,Carmel,,49,,,,,,old,1,0.7719298245614035
null,,confidence_buffer,2073694,confidence_buffer,,null,,,,,,,,
null,,thebreak,2074196,break,,null,,,,,,,,
4474.599999904633,,realistic_rating,2078674,Livingston,,53,Livingston,US,5,,,,,
null,,confidence_buffer,2078779,confidence_buffer,,null,,,,,,,,
3455.7000000476837,,pt2_unique_rating,2082237,Livingston,,53,,,5,,,,,
null,,confidence_buffer,2082341,confidence_buffer,,null,,,,,,,,
5138.800000071526,,probe_rating,2087483,probe_rating,,53,,,,5,1,,,
null,,confidence_buffer,2087587,confidence_buffer,,null,,,,,,,,
2888.899999976158,,pt2_memorable_rating,2090479,Livingston,,50,,,2,,,,,
null,,confidence_buffer,2090583,confidence_buffer,,null,,,,,,,,
3007.7999999523163,,recognition_phase,2093594,Livingston,,52,,,,,,new,1,0.7758620689655172
null,,confidence_buffer,2093698,confidence_buffer,,null,,,,,,,,
null,,thebreak,2094200,break,,null,,,,,,,,
8672.700000047684,,realistic_rating,2102878,Juniper Creek,,49,Juniper Creek,Fictional,1,,,,,
null,,confidence_buffer,2102982,confidence_buffer,,null,,,,,,,,
2978.2000000476837,,pt2_unique_rating,2105963,Juniper Creek,,50,,,2,,,,,
null,,confidence_buffer,2106067,confidence_buffer,,null,,,,,,,,
6893,,pt2_memorable_rating,2112963,Juniper Creek,,53,,,5,,,,,
null,,confidence_buffer,2113066,confidence_buffer,,null,,,,,,,,
3426.0999999046326,,recognition_phase,2116495,Juniper Creek,,49,,,,,,old,1,0.7796610169491526
null,,confidence_buffer,2116600,confidence_buffer,,null,,,,,,,,
null,,thebreak,2117103,break,,null,,,,,,,,
4154.299999952316,,realistic_rating,2121260,Westridge,,53,Westridge,Fictional,5,,,,,
null,,confidence_buffer,2121364,confidence_buffer,,null,,,,,,,,
4087.2999999523163,,pt2_unique_rating,2125454,Westridge,,49,,,1,,,,,
null,,confidence_buffer,2125557,confidence_buffer,,null,,,,,,,,
5208.699999928474,,pt2_memorable_rating,2130769,Westridge,,53,,,5,,,,,
null,,confidence_buffer,2130873,confidence_buffer,,null,,,,,,,,
3341.3000000715256,,probe_rating,2134217,probe_rating,,49,,,,1,1,,,
null,,confidence_buffer,2134331,confidence_buffer,,null,,,,,,,,
4151.400000095367,,recognition_phase,2138485,Westridge,,49,,,,,,old,0,0.7666666666666667
null,,confidence_buffer,2138589,confidence_buffer,,null,,,,,,,,
null,,thebreak,2139091,break,,null,,,,,,,,
