rt,responses,trial_type,time_elapsed,stimulus,button_pressed,key_press,name_trial,rating,probe,probe_accuracy,response,correct,accuracy,problems,smooth,distraction,strategies,familiar,memorable,unique,realistic,similar,comments
20715.5,{worker_id:67e2ec7b8e021808c0352a88},id_enter,20717,,,,,,,,,,,,,,,,,,,,
262507.39999997616,,fullscreen,283229,fullscreen,0,,,,,,,,,,,,,,,,,,
372426.60000002384,,intro_0,655659,instruct,,32,,,,,,,,,,,,,,,,,
43790.700000047684,,intro_1,699450,instruct,,32,,,,,,,,,,,,,,,,,
48000,,intro_2,747451,instruct,,32,,,,,,,,,,,,,,,,,
null,,instruct_dir_4,748952,instruct,,null,,,,,,,,,,,,,,,,,
null,,thebreak,749457,break,,null,,,,,,,,,,,,,,,,,
8850.5,,familiar_rating,758309,Berkeley,,52,Berkeley,4,,,,,,,,,,,,,,,
null,,confidence_buffer,758411,confidence_buffer,,null,,,,,,,,,,,,,,,,,
2785.899999976158,,unique_rating,761199,Berkeley,,53,,5,,,,,,,,,,,,,,,
null,,confidence_buffer,761302,confidence_buffer,,null,,,,,,,,,,,,,,,,,
2200.5,,memorable_rating,763504,Berkeley,,53,,5,,,,,,,,,,,,,,,
null,,confidence_buffer,763607,confidence_buffer,,null,,,,,,,,,,,,,,,,,
null,,thebreak,764116,break,,null,,,,,,,,,,,,,,,,,
18028.700000047684,,familiar_rating,782146,Olympia,,51,Olympia,3,,,,,,,,,,,,,,,
null,,confidence_buffer,782248,confidence_buffer,,null,,,,,,,,,,,,,,,,,
3280.600000023842,,unique_rating,785531,Olympia,,53,,5,,,,,,,,,,,,,,,
null,,confidence_buffer,785633,confidence_buffer,,null,,,,,,,,,,,,,,,,,
2389.5,,memorable_rating,788023,Olympia,,53,,5,,,,,,,,,,,,,,,
null,,confidence_buffer,788126,confidence_buffer,,null,,,,,,,,,,,,,,,,,
null,,thebreak,788628,break,,null,,,,,,,,,,,,,,,,,
16895.700000047684,,familiar_rating,805525,Muncie,,49,Muncie,1,,,,,,,,,,,,,,,
null,,confidence_buffer,805627,confidence_buffer,,null,,,,,,,,,,,,,,,,,
2954,,unique_rating,808582,Muncie,,50,,2,,,,,,,,,,,,,,,
null,,confidence_buffer,808698,confidence_buffer,,null,,,,,,,,,,,,,,,,,
4569.700000047684,,memorable_rating,813269,Muncie,,50,,2,,,,,,,,,,,,,,,
null,,confidence_buffer,813372,confidence_buffer,,null,,,,,,,,,,,,,,,,,
null,,thebreak,813873,break,,null,,,,,,,,,,,,,,,,,
3280,,familiar_rating,817154,Las Cruces,,49,Las Cruces,1,,,,,,,,,,,,,,,
null,,confidence_buffer,817257,confidence_buffer,,null,,,,,,,,,,,,,,,,,
58862.40000009537,,unique_rating,876121,Las Cruces,,52,,4,,,,,,,,,,,,,,,
null,,confidence_buffer,876224,confidence_buffer,,null,,,,,,,,,,,,,,,,,
2766.2000000476837,,memorable_rating,878991,Las Cruces,,50,,2,,,,,,,,,,,,,,,
null,,confidence_buffer,879093,confidence_buffer,,null,,,,,,,,,,,,,,,,,
null,,thebreak,879595,break,,null,,,,,,,,,,,,,,,,,
12607.399999976158,,familiar_rating,892203,Fort Wayne,,52,Fort Wayne,4,,,,,,,,,,,,,,,
null,,confidence_buffer,892306,confidence_buffer,,null,,,,,,,,,,,,,,,,,
1843.1000000238419,,unique_rating,894150,Fort Wayne,,51,,3,,,,,,,,,,,,,,,
null,,confidence_buffer,894253,confidence_buffer,,null,,,,,,,,,,,,,,,,,
1244.9000000953674,,memorable_rating,895500,Fort Wayne,,50,,2,,,,,,,,,,,,,,,
null,,confidence_buffer,895603,confidence_buffer,,null,,,,,,,,,,,,,,,,,
null,,thebreak,896104,break,,null,,,,,,,,,,,,,,,,,
2638.5999999046326,,familiar_rating,898745,Toledo,,49,Toledo,1,,,,,,,,,,,,,,,
null,,confidence_buffer,898848,confidence_buffer,,null,,,,,,,,,,,,,,,,,
987,,unique_rating,899837,Toledo,,50,,2,,,,,,,,,,,,,,,
null,,confidence_buffer,899940,confidence_buffer,,null,,,,,,,,,,,,,,,,,
1684.6000000238419,,memorable_rating,901626,Toledo,,50,,2,,,,,,,,,,,,,,,
null,,confidence_buffer,901728,confidence_buffer,,null,,,,,,,,,,,,,,,,,
null,,thebreak,902230,break,,null,,,,,,,,,,,,,,,,,
34676,,familiar_rating,936907,Palo Alto,,51,Palo Alto,3,,,,,,,,,,,,,,,
null,,confidence_buffer,937010,confidence_buffer,,null,,,,,,,,,,,,,,,,,
41291.60000002384,,unique_rating,978303,Palo Alto,,50,,2,,,,,,,,,,,,,,,
null,,confidence_buffer,978406,confidence_buffer,,null,,,,,,,,,,,,,,,,,
2349.7000000476837,,memorable_rating,980757,Palo Alto,,51,,3,,,,,,,,,,,,,,,
null,,confidence_buffer,980859,confidence_buffer,,null,,,,,,,,,,,,,,,,,
null,,thebreak,981361,break,,null,,,,,,,,,,,,,,,,,
1965.5,,familiar_rating,983328,Dubuque,,49,Dubuque,1,,,,,,,,,,,,,,,
null,,confidence_buffer,983431,confidence_buffer,,null,,,,,,,,,,,,,,,,,
5693.799999952316,,unique_rating,989126,Dubuque,,49,,1,,,,,,,,,,,,,,,
null,,confidence_buffer,989228,confidence_buffer,,null,,,,,,,,,,,,,,,,,
1662.9000000953674,,memorable_rating,990893,Dubuque,,49,,1,,,,,,,,,,,,,,,
null,,confidence_buffer,990995,confidence_buffer,,null,,,,,,,,,,,,,,,,,
null,,thebreak,991497,break,,null,,,,,,,,,,,,,,,,,
50014.89999997616,,familiar_rating,1041513,Bellingham,,52,Bellingham,4,,,,,,,,,,,,,,,
null,,confidence_buffer,1041620,confidence_buffer,,null,,,,,,,,,,,,,,,,,
693.3999999761581,,unique_rating,1042314,Bellingham,,52,,4,,,,,,,,,,,,,,,
null,,confidence_buffer,1042416,confidence_buffer,,null,,,,,,,,,,,,,,,,,
2917.8000000715256,,memorable_rating,1045336,Bellingham,,51,,3,,,,,,,,,,,,,,,
null,,confidence_buffer,1045439,confidence_buffer,,null,,,,,,,,,,,,,,,,,
null,,thebreak,1045941,break,,null,,,,,,,,,,,,,,,,,
371572.89999997616,,familiar_rating,1417515,Carson City,,53,Carson City,5,,,,,,,,,,,,,,,
null,,confidence_buffer,1417617,confidence_buffer,,null,,,,,,,,,,,,,,,,,
7329.200000047684,,probe_rating,1424947,probe_rating,,51,,,3,1,,,,,,,,,,,,,
null,,confidence_buffer,1425049,confidence_buffer,,null,,,,,,,,,,,,,,,,,
2052.2000000476837,,unique_rating,1427104,Carson City,,52,,4,,,,,,,,,,,,,,,
null,,confidence_buffer,1427206,confidence_buffer,,null,,,,,,,,,,,,,,,,,
1149,,memorable_rating,1428357,Carson City,,51,,3,,,,,,,,,,,,,,,
null,,confidence_buffer,1428458,confidence_buffer,,null,,,,,,,,,,,,,,,,,
null,,thebreak,1428960,break,,null,,,,,,,,,,,,,,,,,
32847.39999997616,,familiar_rating,1461808,Marquette,,49,Marquette,1,,,,,,,,,,,,,,,
null,,confidence_buffer,1461910,confidence_buffer,,null,,,,,,,,,,,,,,,,,
2642.2999999523163,,unique_rating,1464554,Marquette,,51,,3,,,,,,,,,,,,,,,
null,,confidence_buffer,1464656,confidence_buffer,,null,,,,,,,,,,,,,,,,,
949.7999999523163,,memorable_rating,1465606,Marquette,,50,,2,,,,,,,,,,,,,,,
null,,confidence_buffer,1465708,confidence_buffer,,null,,,,,,,,,,,,,,,,,
null,,thebreak,1466211,break,,null,,,,,,,,,,,,,,,,,
78971,,familiar_rating,1545183,Decatur,,51,Decatur,3,,,,,,,,,,,,,,,
null,,confidence_buffer,1545287,confidence_buffer,,null,,,,,,,,,,,,,,,,,
2781.100000023842,,unique_rating,1548069,Decatur,,50,,2,,,,,,,,,,,,,,,
null,,confidence_buffer,1548171,confidence_buffer,,null,,,,,,,,,,,,,,,,,
677.2000000476837,,memorable_rating,1548850,Decatur,,49,,1,,,,,,,,,,,,,,,
null,,confidence_buffer,1548952,confidence_buffer,,null,,,,,,,,,,,,,,,,,
null,,thebreak,1549453,break,,null,,,,,,,,,,,,,,,,,
26184.100000023842,,familiar_rating,1575638,Helena,,52,Helena,4,,,,,,,,,,,,,,,
null,,confidence_buffer,1575740,confidence_buffer,,null,,,,,,,,,,,,,,,,,
3455.100000023842,,unique_rating,1579196,Helena,,51,,3,,,,,,,,,,,,,,,
null,,confidence_buffer,1579299,confidence_buffer,,null,,,,,,,,,,,,,,,,,
1319.5,,memorable_rating,1580619,Helena,,53,,5,,,,,,,,,,,,,,,
null,,confidence_buffer,1580722,confidence_buffer,,null,,,,,,,,,,,,,,,,,
null,,thebreak,1581224,break,,null,,,,,,,,,,,,,,,,,
16777.799999952316,,familiar_rating,1598004,Boulder,,52,Boulder,4,,,,,,,,,,,,,,,
null,,confidence_buffer,1598106,confidence_buffer,,null,,,,,,,,,,,,,,,,,
45.700000047683716,,unique_rating,1598153,Boulder,,50,,2,,,,,,,,,,,,,,,
null,,confidence_buffer,1598254,confidence_buffer,,null,,,,,,,,,,,,,,,,,
923.7000000476837,,memorable_rating,1599179,Boulder,,49,,1,,,,,,,,,,,,,,,
null,,confidence_buffer,1599280,confidence_buffer,,null,,,,,,,,,,,,,,,,,
null,,thebreak,1599781,break,,null,,,,,,,,,,,,,,,,,
2555.899999976158,,familiar_rating,1602338,Gainesville,,51,Gainesville,3,,,,,,,,,,,,,,,
null,,confidence_buffer,1602441,confidence_buffer,,null,,,,,,,,,,,,,,,,,
2780.399999976158,,unique_rating,1605224,Gainesville,,53,,5,,,,,,,,,,,,,,,
null,,confidence_buffer,1605326,confidence_buffer,,null,,,,,,,,,,,,,,,,,
1267.6000000238419,,memorable_rating,1606596,Gainesville,,49,,1,,,,,,,,,,,,,,,
null,,confidence_buffer,1606697,confidence_buffer,,null,,,,,,,,,,,,,,,,,
null,,thebreak,1607199,break,,null,,,,,,,,,,,,,,,,,
2350.7000000476837,,familiar_rating,1609551,Cheyenne,,50,Cheyenne,2,,,,,,,,,,,,,,,
null,,confidence_buffer,1609653,confidence_buffer,,null,,,,,,,,,,,,,,,,,
2837.7000000476837,,unique_rating,1612492,Cheyenne,,53,,5,,,,,,,,,,,,,,,
null,,confidence_buffer,1612593,confidence_buffer,,null,,,,,,,,,,,,,,,,,
1115.6000000238419,,memorable_rating,1613709,Cheyenne,,49,,1,,,,,,,,,,,,,,,
null,,confidence_buffer,1613812,confidence_buffer,,null,,,,,,,,,,,,,,,,,
null,,thebreak,1614313,break,,null,,,,,,,,,,,,,,,,,
74785.29999995232,,familiar_rating,1689100,Hagerstown,,53,Hagerstown,5,,,,,,,,,,,,,,,
null,,confidence_buffer,1689203,confidence_buffer,,null,,,,,,,,,,,,,,,,,
1801.6000000238419,,unique_rating,1691006,Hagerstown,,53,,5,,,,,,,,,,,,,,,
null,,confidence_buffer,1691107,confidence_buffer,,null,,,,,,,,,,,,,,,,,
1748.6000000238419,,memorable_rating,1692857,Hagerstown,,50,,2,,,,,,,,,,,,,,,
null,,confidence_buffer,1692960,confidence_buffer,,null,,,,,,,,,,,,,,,,,
null,,thebreak,1693462,break,,null,,,,,,,,,,,,,,,,,
1858.7000000476837,,familiar_rating,1695322,Youngstown,,51,Youngstown,3,,,,,,,,,,,,,,,
null,,confidence_buffer,1695424,confidence_buffer,,null,,,,,,,,,,,,,,,,,
4793.399999976158,,unique_rating,1700219,Youngstown,,53,,5,,,,,,,,,,,,,,,
null,,confidence_buffer,1700321,confidence_buffer,,null,,,,,,,,,,,,,,,,,
1573.3999999761581,,memorable_rating,1701896,Youngstown,,53,,5,,,,,,,,,,,,,,,
null,,confidence_buffer,1701999,confidence_buffer,,null,,,,,,,,,,,,,,,,,
null,,thebreak,1702503,break,,null,,,,,,,,,,,,,,,,,
4183.299999952316,,familiar_rating,1706688,Reno,,49,Reno,1,,,,,,,,,,,,,,,
null,,confidence_buffer,1706790,confidence_buffer,,null,,,,,,,,,,,,,,,,,
5755.5,,unique_rating,1712547,Reno,,50,,2,,,,,,,,,,,,,,,
null,,confidence_buffer,1712648,confidence_buffer,,null,,,,,,,,,,,,,,,,,
1963.6999999284744,,memorable_rating,1714613,Reno,,50,,2,,,,,,,,,,,,,,,
null,,confidence_buffer,1714714,confidence_buffer,,null,,,,,,,,,,,,,,,,,
null,,thebreak,1715217,break,,null,,,,,,,,,,,,,,,,,
13419.900000095367,,familiar_rating,1728639,Syracuse,,50,Syracuse,2,,,,,,,,,,,,,,,
null,,confidence_buffer,1728740,confidence_buffer,,null,,,,,,,,,,,,,,,,,
8683.299999952316,,unique_rating,1737425,Syracuse,,53,,5,,,,,,,,,,,,,,,
null,,confidence_buffer,1737527,confidence_buffer,,null,,,,,,,,,,,,,,,,,
856.8999999761581,,memorable_rating,1738385,Syracuse,,49,,1,,,,,,,,,,,,,,,
null,,confidence_buffer,1738487,confidence_buffer,,null,,,,,,,,,,,,,,,,,
null,,thebreak,1738988,break,,null,,,,,,,,,,,,,,,,,
6063.600000023842,,familiar_rating,1745053,Abilene,,50,Abilene,2,,,,,,,,,,,,,,,
null,,confidence_buffer,1745155,confidence_buffer,,null,,,,,,,,,,,,,,,,,
2482.2999999523163,,unique_rating,1747639,Abilene,,49,,1,,,,,,,,,,,,,,,
null,,confidence_buffer,1747741,confidence_buffer,,null,,,,,,,,,,,,,,,,,
1011.1999999284744,,memorable_rating,1748754,Abilene,,49,,1,,,,,,,,,,,,,,,
null,,confidence_buffer,1748857,confidence_buffer,,null,,,,,,,,,,,,,,,,,
null,,thebreak,1749359,break,,null,,,,,,,,,,,,,,,,,
3597.5999999046326,,familiar_rating,1752959,Annapolis,,52,Annapolis,4,,,,,,,,,,,,,,,
null,,confidence_buffer,1753062,confidence_buffer,,null,,,,,,,,,,,,,,,,,
1345.4000000953674,,unique_rating,1754409,Annapolis,,53,,5,,,,,,,,,,,,,,,
null,,confidence_buffer,1754512,confidence_buffer,,null,,,,,,,,,,,,,,,,,
1014.6999999284744,,memorable_rating,1755527,Annapolis,,50,,2,,,,,,,,,,,,,,,
null,,confidence_buffer,1755629,confidence_buffer,,null,,,,,,,,,,,,,,,,,
null,,thebreak,1756131,break,,null,,,,,,,,,,,,,,,,,
151746,,familiar_rating,1907879,Newport News,,53,Newport News,5,,,,,,,,,,,,,,,
null,,confidence_buffer,1907981,confidence_buffer,,null,,,,,,,,,,,,,,,,,
3464.6999999284744,,unique_rating,1911448,Newport News,,50,,2,,,,,,,,,,,,,,,
null,,confidence_buffer,1911550,confidence_buffer,,null,,,,,,,,,,,,,,,,,
2226.8000000715256,,memorable_rating,1913778,Newport News,,50,,2,,,,,,,,,,,,,,,
null,,confidence_buffer,1913880,confidence_buffer,,null,,,,,,,,,,,,,,,,,
null,,thebreak,1914381,break,,null,,,,,,,,,,,,,,,,,
3977.600000023842,,familiar_rating,1918361,Pueblo,,52,Pueblo,4,,,,,,,,,,,,,,,
null,,confidence_buffer,1918464,confidence_buffer,,null,,,,,,,,,,,,,,,,,
2650.6999999284744,,unique_rating,1921117,Pueblo,,50,,2,,,,,,,,,,,,,,,
null,,confidence_buffer,1921219,confidence_buffer,,null,,,,,,,,,,,,,,,,,
2865.2999999523163,,memorable_rating,1924086,Pueblo,,49,,1,,,,,,,,,,,,,,,
null,,confidence_buffer,1924188,confidence_buffer,,null,,,,,,,,,,,,,,,,,
5968.600000023842,,probe_rating,1930158,probe_rating,,50,,,2,1,,,,,,,,,,,,,
null,,confidence_buffer,1930261,confidence_buffer,,null,,,,,,,,,,,,,,,,,
null,,thebreak,1930763,break,,null,,,,,,,,,,,,,,,,,
6590,,familiar_rating,1937355,Altoona,,51,Altoona,3,,,,,,,,,,,,,,,
null,,confidence_buffer,1937457,confidence_buffer,,null,,,,,,,,,,,,,,,,,
4647.700000047684,,unique_rating,1942106,Altoona,,53,,5,,,,,,,,,,,,,,,
null,,confidence_buffer,1942208,confidence_buffer,,null,,,,,,,,,,,,,,,,,
630.6000000238419,,memorable_rating,1942840,Altoona,,49,,1,,,,,,,,,,,,,,,
null,,confidence_buffer,1942942,confidence_buffer,,null,,,,,,,,,,,,,,,,,
null,,thebreak,1943444,break,,null,,,,,,,,,,,,,,,,,
42126.700000047684,,intro_0,1985572,instruct,,32,,,,,,,,,,,,,,,,,
11928.5,,intro_1,1997501,instruct,,32,,,,,,,,,,,,,,,,,
66014.5,,intro_2,2063516,instruct,,32,,,,,,,,,,,,,,,,,
null,,instruct_dir_4,2065018,instruct,,null,,,,,,,,,,,,,,,,,
6784.399999976158,,realistic_rating,2071804,Yakima,,53,Yakima,5,,,,,,,,,,,,,,,
null,,confidence_buffer,2071906,confidence_buffer,,null,,,,,,,,,,,,,,,,,
592.3999999761581,,pt2_unique_rating,2072499,Yakima,,49,,1,,,,,,,,,,,,,,,
null,,confidence_buffer,2072602,confidence_buffer,,null,,,,,,,,,,,,,,,,,
1768.2999999523163,,pt2_memorable_rating,2074372,Yakima,,52,,4,,,,,,,,,,,,,,,
null,,confidence_buffer,2074475,confidence_buffer,,null,,,,,,,,,,,,,,,,,
1613,,probe_rating,2076089,probe_rating,,51,,,3,1,,,,,,,,,,,,,
null,,confidence_buffer,2076190,confidence_buffer,,null,,,,,,,,,,,,,,,,,
2669.7999999523163,,recognition_phase,2078861,Yakima,,52,,,,,new,1,1,,,,,,,,,,
null,,confidence_buffer,2078965,confidence_buffer,,null,,,,,,,,,,,,,,,,,
null,,thebreak,2079468,break,,null,,,,,,,,,,,,,,,,,
3850.3000000715256,,realistic_rating,2083320,Bozeman,,52,Bozeman,4,,,,,,,,,,,,,,,
null,,confidence_buffer,2083422,confidence_buffer,,null,,,,,,,,,,,,,,,,,
2042.8999999761581,,pt2_unique_rating,2085467,Bozeman,,50,,2,,,,,,,,,,,,,,,
null,,confidence_buffer,2085569,confidence_buffer,,null,,,,,,,,,,,,,,,,,
2288.2000000476837,,pt2_memorable_rating,2087859,Bozeman,,50,,2,,,,,,,,,,,,,,,
null,,confidence_buffer,2087960,confidence_buffer,,null,,,,,,,,,,,,,,,,,
1066.9000000953674,,recognition_phase,2089028,Bozeman,,52,,,,,new,1,1,,,,,,,,,,
null,,confidence_buffer,2089129,confidence_buffer,,null,,,,,,,,,,,,,,,,,
null,,thebreak,2089629,break,,null,,,,,,,,,,,,,,,,,
2261.2000000476837,,realistic_rating,2091892,Cambridge,,53,Cambridge,5,,,,,,,,,,,,,,,
null,,confidence_buffer,2092006,confidence_buffer,,null,,,,,,,,,,,,,,,,,
1323,,pt2_unique_rating,2093330,Cambridge,,53,,5,,,,,,,,,,,,,,,
null,,confidence_buffer,2093432,confidence_buffer,,null,,,,,,,,,,,,,,,,,
2374.100000023842,,pt2_memorable_rating,2095807,Cambridge,,53,,5,,,,,,,,,,,,,,,
null,,confidence_buffer,2095910,confidence_buffer,,null,,,,,,,,,,,,,,,,,
2086.100000023842,,probe_rating,2097997,probe_rating,,49,,,1,1,,,,,,,,,,,,,
null,,confidence_buffer,2098099,confidence_buffer,,null,,,,,,,,,,,,,,,,,
2562.5,,recognition_phase,2100663,Cambridge,,52,,,,,new,1,1,,,,,,,,,,
null,,confidence_buffer,2100767,confidence_buffer,,null,,,,,,,,,,,,,,,,,
null,,thebreak,2101268,break,,null,,,,,,,,,,,,,,,,,
28316.899999976158,,realistic_rating,2129587,McKinney,,53,McKinney,5,,,,,,,,,,,,,,,
null,,confidence_buffer,2129688,confidence_buffer,,null,,,,,,,,,,,,,,,,,
76662.79999995232,,pt2_unique_rating,2206352,McKinney,,53,,5,,,,,,,,,,,,,,,
null,,confidence_buffer,2206454,confidence_buffer,,null,,,,,,,,,,,,,,,,,
2751.399999976158,,pt2_memorable_rating,2209206,McKinney,,49,,1,,,,,,,,,,,,,,,
null,,confidence_buffer,2209309,confidence_buffer,,null,,,,,,,,,,,,,,,,,
2681,,recognition_phase,2211992,McKinney,,52,,,,,new,1,1,,,,,,,,,,
null,,confidence_buffer,2212094,confidence_buffer,,null,,,,,,,,,,,,,,,,,
null,,thebreak,2212596,break,,null,,,,,,,,,,,,,,,,,
411545.6999999285,,realistic_rating,2624142,Fort Collins,,53,Fort Collins,5,,,,,,,,,,,,,,,
null,,confidence_buffer,2624248,confidence_buffer,,null,,,,,,,,,,,,,,,,,
1649.2000000476837,,probe_rating,2625899,probe_rating,,50,,,2,1,,,,,,,,,,,,,
null,,confidence_buffer,2626002,confidence_buffer,,null,,,,,,,,,,,,,,,,,
2209.5,,pt2_unique_rating,2628213,Fort Collins,,53,,5,,,,,,,,,,,,,,,
null,,confidence_buffer,2628321,confidence_buffer,,null,,,,,,,,,,,,,,,,,
1394,,pt2_memorable_rating,2629717,Fort Collins,,50,,2,,,,,,,,,,,,,,,
null,,confidence_buffer,2629823,confidence_buffer,,null,,,,,,,,,,,,,,,,,
4852.700000047684,,recognition_phase,2634677,Fort Collins,,51,,,,,new,1,1,,,,,,,,,,
null,,confidence_buffer,2634787,confidence_buffer,,null,,,,,,,,,,,,,,,,,
null,,thebreak,2635291,break,,null,,,,,,,,,,,,,,,,,
4566.600000023842,,realistic_rating,2639859,Stamford,,52,Stamford,4,,,,,,,,,,,,,,,
null,,confidence_buffer,2639967,confidence_buffer,,null,,,,,,,,,,,,,,,,,
2225.0999999046326,,pt2_unique_rating,2642194,Stamford,,49,,1,,,,,,,,,,,,,,,
null,,confidence_buffer,2642307,confidence_buffer,,null,,,,,,,,,,,,,,,,,
1837.6000000238419,,pt2_memorable_rating,2644146,Stamford,,49,,1,,,,,,,,,,,,,,,
null,,confidence_buffer,2644250,confidence_buffer,,null,,,,,,,,,,,,,,,,,
2170.899999976158,,recognition_phase,2646422,Stamford,,52,,,,,new,1,1,,,,,,,,,,
null,,confidence_buffer,2646526,confidence_buffer,,null,,,,,,,,,,,,,,,,,
null,,thebreak,2647034,break,,null,,,,,,,,,,,,,,,,,
1948.6000000238419,,realistic_rating,2648984,Berkeley,,53,Berkeley,5,,,,,,,,,,,,,,,
null,,confidence_buffer,2649096,confidence_buffer,,null,,,,,,,,,,,,,,,,,
922.3999999761581,,pt2_unique_rating,2650020,Berkeley,,53,,5,,,,,,,,,,,,,,,
null,,confidence_buffer,2650136,confidence_buffer,,null,,,,,,,,,,,,,,,,,
1579,,pt2_memorable_rating,2651717,Berkeley,,49,,1,,,,,,,,,,,,,,,
null,,confidence_buffer,2651825,confidence_buffer,,null,,,,,,,,,,,,,,,,,
2496.899999976158,,recognition_phase,2654325,Berkeley,,49,,,,,old,1,1,,,,,,,,,,
null,,confidence_buffer,2654441,confidence_buffer,,null,,,,,,,,,,,,,,,,,
null,,thebreak,2654958,break,,null,,,,,,,,,,,,,,,,,
6943.399999976158,,realistic_rating,2661903,Dubuque,,49,Dubuque,1,,,,,,,,,,,,,,,
null,,confidence_buffer,2662018,confidence_buffer,,null,,,,,,,,,,,,,,,,,
2002.8999999761581,,pt2_unique_rating,2664023,Dubuque,,49,,1,,,,,,,,,,,,,,,
null,,confidence_buffer,2664131,confidence_buffer,,null,,,,,,,,,,,,,,,,,
1284.7000000476837,,pt2_memorable_rating,2665417,Dubuque,,49,,1,,,,,,,,,,,,,,,
null,,confidence_buffer,2665521,confidence_buffer,,null,,,,,,,,,,,,,,,,,
1827.3999999761581,,probe_rating,2667350,probe_rating,,49,,,1,1,,,,,,,,,,,,,
null,,confidence_buffer,2667460,confidence_buffer,,null,,,,,,,,,,,,,,,,,
1827.8999999761581,,recognition_phase,2669290,Dubuque,,49,,,,,old,1,1,,,,,,,,,,
null,,confidence_buffer,2669395,confidence_buffer,,null,,,,,,,,,,,,,,,,,
null,,thebreak,2669907,break,,null,,,,,,,,,,,,,,,,,
2539.100000023842,,realistic_rating,2672448,Decatur,,51,Decatur,3,,,,,,,,,,,,,,,
null,,confidence_buffer,2672553,confidence_buffer,,null,,,,,,,,,,,,,,,,,
1523.7000000476837,,pt2_unique_rating,2674078,Decatur,,49,,1,,,,,,,,,,,,,,,
null,,confidence_buffer,2674183,confidence_buffer,,null,,,,,,,,,,,,,,,,,
6071.200000047684,,pt2_memorable_rating,2680256,Decatur,,50,,2,,,,,,,,,,,,,,,
null,,confidence_buffer,2680373,confidence_buffer,,null,,,,,,,,,,,,,,,,,
908.6000000238419,,recognition_phase,2681284,Decatur,,49,,,,,old,1,1,,,,,,,,,,
null,,confidence_buffer,2681397,confidence_buffer,,null,,,,,,,,,,,,,,,,,
null,,thebreak,2681906,break,,null,,,,,,,,,,,,,,,,,
3594.7000000476837,,realistic_rating,2685502,Hagerstown,,52,Hagerstown,4,,,,,,,,,,,,,,,
null,,confidence_buffer,2685620,confidence_buffer,,null,,,,,,,,,,,,,,,,,
1925.0999999046326,,pt2_unique_rating,2687547,Hagerstown,,52,,4,,,,,,,,,,,,,,,
null,,confidence_buffer,2687661,confidence_buffer,,null,,,,,,,,,,,,,,,,,
1365,,pt2_memorable_rating,2689028,Hagerstown,,51,,3,,,,,,,,,,,,,,,
null,,confidence_buffer,2689140,confidence_buffer,,null,,,,,,,,,,,,,,,,,
1735.1000000238419,,recognition_phase,2690877,Hagerstown,,49,,,,,old,1,1,,,,,,,,,,
null,,confidence_buffer,2690990,confidence_buffer,,null,,,,,,,,,,,,,,,,,
null,,thebreak,2691500,break,,null,,,,,,,,,,,,,,,,,
2779.5,,realistic_rating,2694281,Scottsdale,,51,Scottsdale,3,,,,,,,,,,,,,,,
null,,confidence_buffer,2694386,confidence_buffer,,null,,,,,,,,,,,,,,,,,
1105.0999999046326,,pt2_unique_rating,2695493,Scottsdale,,50,,2,,,,,,,,,,,,,,,
null,,confidence_buffer,2695596,confidence_buffer,,null,,,,,,,,,,,,,,,,,
2516.100000023842,,probe_rating,2698115,probe_rating,,52,,,4,1,,,,,,,,,,,,,
null,,confidence_buffer,2698219,confidence_buffer,,null,,,,,,,,,,,,,,,,,
1679.5,,pt2_memorable_rating,2699900,Scottsdale,,49,,1,,,,,,,,,,,,,,,
null,,confidence_buffer,2700013,confidence_buffer,,null,,,,,,,,,,,,,,,,,
3363.5,,recognition_phase,2703378,Scottsdale,,52,,,,,new,1,1,,,,,,,,,,
null,,confidence_buffer,2703492,confidence_buffer,,null,,,,,,,,,,,,,,,,,
null,,thebreak,2704006,break,,null,,,,,,,,,,,,,,,,,
2297.2999999523163,,realistic_rating,2706305,Concord,,51,Concord,3,,,,,,,,,,,,,,,
null,,confidence_buffer,2706420,confidence_buffer,,null,,,,,,,,,,,,,,,,,
1993.3999999761581,,pt2_unique_rating,2708415,Concord,,49,,1,,,,,,,,,,,,,,,
null,,confidence_buffer,2708524,confidence_buffer,,null,,,,,,,,,,,,,,,,,
829.3999999761581,,pt2_memorable_rating,2709355,Concord,,49,,1,,,,,,,,,,,,,,,
null,,confidence_buffer,2709469,confidence_buffer,,null,,,,,,,,,,,,,,,,,
1809.3999999761581,,recognition_phase,2711281,Concord,,52,,,,,new,1,1,,,,,,,,,,
null,,confidence_buffer,2711383,confidence_buffer,,null,,,,,,,,,,,,,,,,,
null,,thebreak,2711893,break,,null,,,,,,,,,,,,,,,,,
43930,,realistic_rating,2755826,Norfolk,,53,Norfolk,5,,,,,,,,,,,,,,,
null,,confidence_buffer,2755937,confidence_buffer,,null,,,,,,,,,,,,,,,,,
731.5,,pt2_unique_rating,2756671,Norfolk,,52,,4,,,,,,,,,,,,,,,
null,,confidence_buffer,2756782,confidence_buffer,,null,,,,,,,,,,,,,,,,,
1692.8000000715256,,pt2_memorable_rating,2758476,Norfolk,,51,,3,,,,,,,,,,,,,,,
null,,confidence_buffer,2758587,confidence_buffer,,null,,,,,,,,,,,,,,,,,
1900.8999999761581,,recognition_phase,2760491,Norfolk,,52,,,,,new,1,1,,,,,,,,,,
null,,confidence_buffer,2760596,confidence_buffer,,null,,,,,,,,,,,,,,,,,
null,,thebreak,2761105,break,,null,,,,,,,,,,,,,,,,,
3901.3000000715256,,realistic_rating,2765008,Palo Alto,,53,Palo Alto,5,,,,,,,,,,,,,,,
null,,confidence_buffer,2765112,confidence_buffer,,null,,,,,,,,,,,,,,,,,
1828.6000000238419,,pt2_unique_rating,2766942,Palo Alto,,52,,4,,,,,,,,,,,,,,,
null,,confidence_buffer,2767050,confidence_buffer,,null,,,,,,,,,,,,,,,,,
1459.1999999284744,,pt2_memorable_rating,2768511,Palo Alto,,50,,2,,,,,,,,,,,,,,,
null,,confidence_buffer,2768619,confidence_buffer,,null,,,,,,,,,,,,,,,,,
1073.2000000476837,,recognition_phase,2769695,Palo Alto,,49,,,,,old,1,1,,,,,,,,,,
null,,confidence_buffer,2769799,confidence_buffer,,null,,,,,,,,,,,,,,,,,
null,,thebreak,2770302,break,,null,,,,,,,,,,,,,,,,,
1708.3000000715256,,realistic_rating,2772012,Fargo,,50,Fargo,2,,,,,,,,,,,,,,,
null,,confidence_buffer,2772124,confidence_buffer,,null,,,,,,,,,,,,,,,,,
1146.2000000476837,,pt2_unique_rating,2773272,Fargo,,49,,1,,,,,,,,,,,,,,,
null,,confidence_buffer,2773377,confidence_buffer,,null,,,,,,,,,,,,,,,,,
877.6000000238419,,pt2_memorable_rating,2774256,Fargo,,52,,4,,,,,,,,,,,,,,,
null,,confidence_buffer,2774364,confidence_buffer,,null,,,,,,,,,,,,,,,,,
1854.3999999761581,,recognition_phase,2776220,Fargo,,52,,,,,new,1,1,,,,,,,,,,
null,,confidence_buffer,2776340,confidence_buffer,,null,,,,,,,,,,,,,,,,,
null,,thebreak,2776854,break,,null,,,,,,,,,,,,,,,,,
6605.699999928474,,realistic_rating,2783462,Frankfort,,53,Frankfort,5,,,,,,,,,,,,,,,
null,,confidence_buffer,2783567,confidence_buffer,,null,,,,,,,,,,,,,,,,,
2021.7999999523163,,pt2_unique_rating,2785590,Frankfort,,52,,4,,,,,,,,,,,,,,,
null,,confidence_buffer,2785697,confidence_buffer,,null,,,,,,,,,,,,,,,,,
1287.6000000238419,,probe_rating,2786986,probe_rating,,49,,,1,1,,,,,,,,,,,,,
null,,confidence_buffer,2787091,confidence_buffer,,null,,,,,,,,,,,,,,,,,
6203.100000023842,,pt2_memorable_rating,2793296,Frankfort,,53,,5,,,,,,,,,,,,,,,
null,,confidence_buffer,2793397,confidence_buffer,,null,,,,,,,,,,,,,,,,,
2972,,recognition_phase,2796371,Frankfort,,50,,,,,old,0,0.9375,,,,,,,,,,
null,,confidence_buffer,2796480,confidence_buffer,,null,,,,,,,,,,,,,,,,,
null,,thebreak,2796984,break,,null,,,,,,,,,,,,,,,,,
27090.099999904633,,realistic_rating,2824076,Ithaca,,50,Ithaca,2,,,,,,,,,,,,,,,
null,,confidence_buffer,2824186,confidence_buffer,,null,,,,,,,,,,,,,,,,,
2139.0999999046326,,pt2_unique_rating,2826327,Ithaca,,49,,1,,,,,,,,,,,,,,,
null,,confidence_buffer,2826442,confidence_buffer,,null,,,,,,,,,,,,,,,,,
962.5,,pt2_memorable_rating,2827406,Ithaca,,49,,1,,,,,,,,,,,,,,,
null,,confidence_buffer,2827517,confidence_buffer,,null,,,,,,,,,,,,,,,,,
1929.1000000238419,,recognition_phase,2829449,Ithaca,,52,,,,,new,1,0.9411764705882353,,,,,,,,,,
null,,confidence_buffer,2829557,confidence_buffer,,null,,,,,,,,,,,,,,,,,
null,,thebreak,2830066,break,,null,,,,,,,,,,,,,,,,,
1873.6999999284744,,realistic_rating,2831941,Syracuse,,51,Syracuse,3,,,,,,,,,,,,,,,
null,,confidence_buffer,2832058,confidence_buffer,,null,,,,,,,,,,,,,,,,,
563.2000000476837,,pt2_unique_rating,2832622,Syracuse,,52,,4,,,,,,,,,,,,,,,
null,,confidence_buffer,2832730,confidence_buffer,,null,,,,,,,,,,,,,,,,,
571.5,,pt2_memorable_rating,2833303,Syracuse,,50,,2,,,,,,,,,,,,,,,
null,,confidence_buffer,2833412,confidence_buffer,,null,,,,,,,,,,,,,,,,,
2427.4000000953674,,recognition_phase,2835841,Syracuse,,52,,,,,new,0,0.8888888888888888,,,,,,,,,,
null,,confidence_buffer,2835955,confidence_buffer,,null,,,,,,,,,,,,,,,,,
null,,thebreak,2836472,break,,null,,,,,,,,,,,,,,,,,
1613.3999999761581,,realistic_rating,2838087,Bellingham,,53,Bellingham,5,,,,,,,,,,,,,,,
null,,confidence_buffer,2838193,confidence_buffer,,null,,,,,,,,,,,,,,,,,
433.10000002384186,,probe_rating,2838628,probe_rating,,52,,,4,1,,,,,,,,,,,,,
null,,confidence_buffer,2838749,confidence_buffer,,null,,,,,,,,,,,,,,,,,
5083.5,,pt2_unique_rating,2843834,Bellingham,,53,,5,,,,,,,,,,,,,,,
null,,confidence_buffer,2843944,confidence_buffer,,null,,,,,,,,,,,,,,,,,
3680.899999976158,,pt2_memorable_rating,2847627,Bellingham,,51,,3,,,,,,,,,,,,,,,
null,,confidence_buffer,2847736,confidence_buffer,,null,,,,,,,,,,,,,,,,,
3838.600000023842,,recognition_phase,2851577,Bellingham,,52,,,,,new,0,0.8421052631578947,,,,,,,,,,
null,,confidence_buffer,2851679,confidence_buffer,,null,,,,,,,,,,,,,,,,,
null,,thebreak,2852184,break,,null,,,,,,,,,,,,,,,,,
7394.699999928474,,realistic_rating,2859580,Ann Arbor,,49,Ann Arbor,1,,,,,,,,,,,,,,,
null,,confidence_buffer,2859688,confidence_buffer,,null,,,,,,,,,,,,,,,,,
1639.1999999284744,,pt2_unique_rating,2861329,Ann Arbor,,49,,1,,,,,,,,,,,,,,,
null,,confidence_buffer,2861440,confidence_buffer,,null,,,,,,,,,,,,,,,,,
1060,,probe_rating,2862502,probe_rating,,49,,,1,1,,,,,,,,,,,,,
null,,confidence_buffer,2862612,confidence_buffer,,null,,,,,,,,,,,,,,,,,
1786.3999999761581,,pt2_memorable_rating,2864400,Ann Arbor,,50,,2,,,,,,,,,,,,,,,
null,,confidence_buffer,2864507,confidence_buffer,,null,,,,,,,,,,,,,,,,,
1659.6000000238419,,recognition_phase,2866168,Ann Arbor,,52,,,,,new,1,0.85,,,,,,,,,,
null,,confidence_buffer,2866275,confidence_buffer,,null,,,,,,,,,,,,,,,,,
null,,thebreak,2866785,break,,null,,,,,,,,,,,,,,,,,
1497.1999999284744,,realistic_rating,2868284,Las Cruces,,53,Las Cruces,5,,,,,,,,,,,,,,,
null,,confidence_buffer,2868390,confidence_buffer,,null,,,,,,,,,,,,,,,,,
818.5,,pt2_unique_rating,2869211,Las Cruces,,50,,2,,,,,,,,,,,,,,,
null,,confidence_buffer,2869317,confidence_buffer,,null,,,,,,,,,,,,,,,,,
1501.3000000715256,,pt2_memorable_rating,2870820,Las Cruces,,51,,3,,,,,,,,,,,,,,,
null,,confidence_buffer,2870922,confidence_buffer,,null,,,,,,,,,,,,,,,,,
3088.7999999523163,,recognition_phase,2874012,Las Cruces,,51,,,,,new,0,0.8095238095238095,,,,,,,,,,
null,,confidence_buffer,2874115,confidence_buffer,,null,,,,,,,,,,,,,,,,,
null,,thebreak,2874622,break,,null,,,,,,,,,,,,,,,,,
3046.899999976158,,realistic_rating,2877670,Dover,,52,Dover,4,,,,,,,,,,,,,,,
null,,confidence_buffer,2877782,confidence_buffer,,null,,,,,,,,,,,,,,,,,
907.3999999761581,,pt2_unique_rating,2878692,Dover,,53,,5,,,,,,,,,,,,,,,
null,,confidence_buffer,2878799,confidence_buffer,,null,,,,,,,,,,,,,,,,,
1843.5,,pt2_memorable_rating,2880644,Dover,,50,,2,,,,,,,,,,,,,,,
null,,confidence_buffer,2880751,confidence_buffer,,null,,,,,,,,,,,,,,,,,
1811.2000000476837,,recognition_phase,2882565,Dover,,50,,,,,old,0,0.7727272727272727,,,,,,,,,,
null,,confidence_buffer,2882682,confidence_buffer,,null,,,,,,,,,,,,,,,,,
null,,thebreak,2883191,break,,null,,,,,,,,,,,,,,,,,
1735.0999999046326,,realistic_rating,2884928,Rock Springs,,53,Rock Springs,5,,,,,,,,,,,,,,,
null,,confidence_buffer,2885033,confidence_buffer,,null,,,,,,,,,,,,,,,,,
1305.8999999761581,,pt2_unique_rating,2886341,Rock Springs,,52,,4,,,,,,,,,,,,,,,
null,,confidence_buffer,2886445,confidence_buffer,,null,,,,,,,,,,,,,,,,,
1090.3000000715256,,pt2_memorable_rating,2887536,Rock Springs,,53,,5,,,,,,,,,,,,,,,
null,,confidence_buffer,2887649,confidence_buffer,,null,,,,,,,,,,,,,,,,,
2131.8000000715256,,recognition_phase,2889782,Rock Springs,,52,,,,,new,1,0.782608695652174,,,,,,,,,,
null,,confidence_buffer,2889899,confidence_buffer,,null,,,,,,,,,,,,,,,,,
null,,thebreak,2890416,break,,null,,,,,,,,,,,,,,,,,
13862.900000095367,,realistic_rating,2904281,Santa Monica,,53,Santa Monica,5,,,,,,,,,,,,,,,
null,,confidence_buffer,2904390,confidence_buffer,,null,,,,,,,,,,,,,,,,,
1750.2000000476837,,pt2_unique_rating,2906141,Santa Monica,,52,,4,,,,,,,,,,,,,,,
null,,confidence_buffer,2906245,confidence_buffer,,null,,,,,,,,,,,,,,,,,
1210.3999999761581,,pt2_memorable_rating,2907457,Santa Monica,,50,,2,,,,,,,,,,,,,,,
null,,confidence_buffer,2907564,confidence_buffer,,null,,,,,,,,,,,,,,,,,
2187.7999999523163,,recognition_phase,2909753,Santa Monica,,51,,,,,new,1,0.7916666666666666,,,,,,,,,,
null,,confidence_buffer,2909861,confidence_buffer,,null,,,,,,,,,,,,,,,,,
null,,thebreak,2910378,break,,null,,,,,,,,,,,,,,,,,
1979.1999999284744,,realistic_rating,2912359,Reno,,51,Reno,3,,,,,,,,,,,,,,,
null,,confidence_buffer,2912467,confidence_buffer,,null,,,,,,,,,,,,,,,,,
792.5,,pt2_unique_rating,2913261,Reno,,50,,2,,,,,,,,,,,,,,,
null,,confidence_buffer,2913365,confidence_buffer,,null,,,,,,,,,,,,,,,,,
5942.799999952316,,pt2_memorable_rating,2919310,Reno,,51,,3,,,,,,,,,,,,,,,
null,,confidence_buffer,2919419,confidence_buffer,,null,,,,,,,,,,,,,,,,,
3253.6999999284744,,probe_rating,2922675,probe_rating,,53,,,5,1,,,,,,,,,,,,,
null,,confidence_buffer,2922781,confidence_buffer,,null,,,,,,,,,,,,,,,,,
22036.100000023842,,recognition_phase,2944819,Reno,,50,,,,,old,1,0.8,,,,,,,,,,
null,,confidence_buffer,2944938,confidence_buffer,,null,,,,,,,,,,,,,,,,,
null,,thebreak,2945444,break,,null,,,,,,,,,,,,,,,,,
8457.699999928474,,realistic_rating,2953902,Boulder,,51,Boulder,3,,,,,,,,,,,,,,,
null,,confidence_buffer,2954006,confidence_buffer,,null,,,,,,,,,,,,,,,,,
646.7000000476837,,pt2_unique_rating,2954655,Boulder,,52,,4,,,,,,,,,,,,,,,
null,,confidence_buffer,2954767,confidence_buffer,,null,,,,,,,,,,,,,,,,,
1044.2000000476837,,pt2_memorable_rating,2955812,Boulder,,50,,2,,,,,,,,,,,,,,,
null,,confidence_buffer,2955915,confidence_buffer,,null,,,,,,,,,,,,,,,,,
4793.100000023842,,recognition_phase,2960710,Boulder,,50,,,,,old,1,0.8076923076923077,,,,,,,,,,
null,,confidence_buffer,2960815,confidence_buffer,,null,,,,,,,,,,,,,,,,,
null,,thebreak,2961327,break,,null,,,,,,,,,,,,,,,,,
2251.2999999523163,,realistic_rating,2963580,Burlington,,52,Burlington,4,,,,,,,,,,,,,,,
null,,confidence_buffer,2963688,confidence_buffer,,null,,,,,,,,,,,,,,,,,
613,,pt2_unique_rating,2964303,Burlington,,51,,3,,,,,,,,,,,,,,,
null,,confidence_buffer,2964408,confidence_buffer,,null,,,,,,,,,,,,,,,,,
612.3999999761581,,pt2_memorable_rating,2965022,Burlington,,50,,2,,,,,,,,,,,,,,,
null,,confidence_buffer,2965133,confidence_buffer,,null,,,,,,,,,,,,,,,,,
1776,,recognition_phase,2966910,Burlington,,51,,,,,new,1,0.8148148148148148,,,,,,,,,,
null,,confidence_buffer,2967016,confidence_buffer,,null,,,,,,,,,,,,,,,,,
null,,thebreak,2967535,break,,null,,,,,,,,,,,,,,,,,
1981.2999999523163,,realistic_rating,2969518,Carson City,,52,Carson City,4,,,,,,,,,,,,,,,
null,,confidence_buffer,2969627,confidence_buffer,,null,,,,,,,,,,,,,,,,,
429.8000000715256,,pt2_unique_rating,2970058,Carson City,,51,,3,,,,,,,,,,,,,,,
null,,confidence_buffer,2970168,confidence_buffer,,null,,,,,,,,,,,,,,,,,
2203.8000000715256,,probe_rating,2972374,probe_rating,,53,,,5,1,,,,,,,,,,,,,
null,,confidence_buffer,2972482,confidence_buffer,,null,,,,,,,,,,,,,,,,,
1851.2000000476837,,pt2_memorable_rating,2974335,Carson City,,51,,3,,,,,,,,,,,,,,,
null,,confidence_buffer,2974438,confidence_buffer,,null,,,,,,,,,,,,,,,,,
1359,,recognition_phase,2975798,Carson City,,49,,,,,old,1,0.8214285714285714,,,,,,,,,,
null,,confidence_buffer,2975903,confidence_buffer,,null,,,,,,,,,,,,,,,,,
null,,thebreak,2976404,break,,null,,,,,,,,,,,,,,,,,
30283.5,,realistic_rating,3006689,Annapolis,,53,Annapolis,5,,,,,,,,,,,,,,,
null,,confidence_buffer,3006790,confidence_buffer,,null,,,,,,,,,,,,,,,,,
1646.8999999761581,,pt2_unique_rating,3008438,Annapolis,,53,,5,,,,,,,,,,,,,,,
null,,confidence_buffer,3008545,confidence_buffer,,null,,,,,,,,,,,,,,,,,
1034.5,,pt2_memorable_rating,3009582,Annapolis,,53,,5,,,,,,,,,,,,,,,
null,,confidence_buffer,3009688,confidence_buffer,,null,,,,,,,,,,,,,,,,,
1662.0999999046326,,recognition_phase,3011351,Annapolis,,49,,,,,old,1,0.8275862068965517,,,,,,,,,,
null,,confidence_buffer,3011464,confidence_buffer,,null,,,,,,,,,,,,,,,,,
null,,thebreak,3011966,break,,null,,,,,,,,,,,,,,,,,
1771.7999999523163,,realistic_rating,3013740,Muncie,,53,Muncie,5,,,,,,,,,,,,,,,
null,,confidence_buffer,3013850,confidence_buffer,,null,,,,,,,,,,,,,,,,,
750,,pt2_unique_rating,3014602,Muncie,,52,,4,,,,,,,,,,,,,,,
null,,confidence_buffer,3014713,confidence_buffer,,null,,,,,,,,,,,,,,,,,
1243.7999999523163,,pt2_memorable_rating,3015958,Muncie,,53,,5,,,,,,,,,,,,,,,
null,,confidence_buffer,3016066,confidence_buffer,,null,,,,,,,,,,,,,,,,,
3099.5999999046326,,recognition_phase,3019167,Muncie,,49,,,,,old,1,0.8333333333333334,,,,,,,,,,
null,,confidence_buffer,3019269,confidence_buffer,,null,,,,,,,,,,,,,,,,,
null,,thebreak,3019791,break,,null,,,,,,,,,,,,,,,,,
2176.7000000476837,,realistic_rating,3021969,Marquette,,52,Marquette,4,,,,,,,,,,,,,,,
null,,confidence_buffer,3022075,confidence_buffer,,null,,,,,,,,,,,,,,,,,
420.2999999523163,,pt2_unique_rating,3022497,Marquette,,50,,2,,,,,,,,,,,,,,,
null,,confidence_buffer,3022605,confidence_buffer,,null,,,,,,,,,,,,,,,,,
927.7999999523163,,pt2_memorable_rating,3023535,Marquette,,53,,5,,,,,,,,,,,,,,,
null,,confidence_buffer,3023645,confidence_buffer,,null,,,,,,,,,,,,,,,,,
1685.3000000715256,,recognition_phase,3025332,Marquette,,49,,,,,old,1,0.8387096774193549,,,,,,,,,,
null,,confidence_buffer,3025434,confidence_buffer,,null,,,,,,,,,,,,,,,,,
null,,thebreak,3025944,break,,null,,,,,,,,,,,,,,,,,
1285.3999999761581,,realistic_rating,3027231,Montpelier,,53,Montpelier,5,,,,,,,,,,,,,,,
null,,confidence_buffer,3027342,confidence_buffer,,null,,,,,,,,,,,,,,,,,
214.60000002384186,,pt2_unique_rating,3027558,Montpelier,,52,,4,,,,,,,,,,,,,,,
null,,confidence_buffer,3027669,confidence_buffer,,null,,,,,,,,,,,,,,,,,
620.3999999761581,,pt2_memorable_rating,3028290,Montpelier,,50,,2,,,,,,,,,,,,,,,
null,,confidence_buffer,3028404,confidence_buffer,,null,,,,,,,,,,,,,,,,,
1677,,recognition_phase,3030083,Montpelier,,52,,,,,new,1,0.84375,,,,,,,,,,
null,,confidence_buffer,3030195,confidence_buffer,,null,,,,,,,,,,,,,,,,,
null,,thebreak,3030700,break,,null,,,,,,,,,,,,,,,,,
1456.5,,realistic_rating,3032159,Dothan,,52,Dothan,4,,,,,,,,,,,,,,,
null,,confidence_buffer,3032265,confidence_buffer,,null,,,,,,,,,,,,,,,,,
503.6999999284744,,pt2_unique_rating,3032770,Dothan,,53,,5,,,,,,,,,,,,,,,
null,,confidence_buffer,3032878,confidence_buffer,,null,,,,,,,,,,,,,,,,,
499.6999999284744,,pt2_memorable_rating,3033379,Dothan,,51,,3,,,,,,,,,,,,,,,
null,,confidence_buffer,3033481,confidence_buffer,,null,,,,,,,,,,,,,,,,,
1629.1000000238419,,recognition_phase,3035111,Dothan,,51,,,,,new,1,0.8484848484848485,,,,,,,,,,
null,,confidence_buffer,3035227,confidence_buffer,,null,,,,,,,,,,,,,,,,,
null,,thebreak,3035738,break,,null,,,,,,,,,,,,,,,,,
28622.799999952316,,realistic_rating,3064362,Salem,,53,Salem,5,,,,,,,,,,,,,,,
null,,confidence_buffer,3064466,confidence_buffer,,null,,,,,,,,,,,,,,,,,
2218.7000000476837,,pt2_unique_rating,3066687,Salem,,52,,4,,,,,,,,,,,,,,,
null,,confidence_buffer,3066795,confidence_buffer,,null,,,,,,,,,,,,,,,,,
588.1000000238419,,pt2_memorable_rating,3067385,Salem,,50,,2,,,,,,,,,,,,,,,
null,,confidence_buffer,3067487,confidence_buffer,,null,,,,,,,,,,,,,,,,,
1709.2999999523163,,recognition_phase,3069198,Salem,,50,,,,,old,0,0.8235294117647058,,,,,,,,,,
null,,confidence_buffer,3069303,confidence_buffer,,null,,,,,,,,,,,,,,,,,
null,,thebreak,3069806,break,,null,,,,,,,,,,,,,,,,,
5271.300000071526,,realistic_rating,3075080,Toledo,,49,Toledo,1,,,,,,,,,,,,,,,
null,,confidence_buffer,3075190,confidence_buffer,,null,,,,,,,,,,,,,,,,,
1423.3999999761581,,probe_rating,3076614,probe_rating,,52,,,4,1,,,,,,,,,,,,,
null,,confidence_buffer,3076718,confidence_buffer,,null,,,,,,,,,,,,,,,,,
1318.7999999523163,,pt2_unique_rating,3078039,Toledo,,50,,2,,,,,,,,,,,,,,,
null,,confidence_buffer,3078148,confidence_buffer,,null,,,,,,,,,,,,,,,,,
610.7000000476837,,pt2_memorable_rating,3078760,Toledo,,51,,3,,,,,,,,,,,,,,,
null,,confidence_buffer,3078868,confidence_buffer,,null,,,,,,,,,,,,,,,,,
2591.899999976158,,recognition_phase,3081462,Toledo,,51,,,,,new,0,0.8,,,,,,,,,,
null,,confidence_buffer,3081570,confidence_buffer,,null,,,,,,,,,,,,,,,,,
null,,thebreak,3082085,break,,null,,,,,,,,,,,,,,,,,
1241.1000000238419,,realistic_rating,3083327,Boise,,53,Boise,5,,,,,,,,,,,,,,,
null,,confidence_buffer,3083430,confidence_buffer,,null,,,,,,,,,,,,,,,,,
2965.8000000715256,,pt2_unique_rating,3086397,Boise,,50,,2,,,,,,,,,,,,,,,
null,,confidence_buffer,3086513,confidence_buffer,,null,,,,,,,,,,,,,,,,,
1134.7999999523163,,pt2_memorable_rating,3087649,Boise,,51,,3,,,,,,,,,,,,,,,
null,,confidence_buffer,3087756,confidence_buffer,,null,,,,,,,,,,,,,,,,,
1247.6999999284744,,probe_rating,3089006,probe_rating,,52,,,4,1,,,,,,,,,,,,,
null,,confidence_buffer,3089109,confidence_buffer,,null,,,,,,,,,,,,,,,,,
2071.600000023842,,recognition_phase,3091183,Boise,,51,,,,,new,1,0.8055555555555556,,,,,,,,,,
null,,confidence_buffer,3091292,confidence_buffer,,null,,,,,,,,,,,,,,,,,
null,,thebreak,3091795,break,,null,,,,,,,,,,,,,,,,,
1259.7999999523163,,realistic_rating,3093056,Topeka,,53,Topeka,5,,,,,,,,,,,,,,,
null,,confidence_buffer,3093161,confidence_buffer,,null,,,,,,,,,,,,,,,,,
681.6000000238419,,pt2_unique_rating,3093845,Topeka,,51,,3,,,,,,,,,,,,,,,
null,,confidence_buffer,3093948,confidence_buffer,,null,,,,,,,,,,,,,,,,,
388.7000000476837,,pt2_memorable_rating,3094339,Topeka,,50,,2,,,,,,,,,,,,,,,
null,,confidence_buffer,3094442,confidence_buffer,,null,,,,,,,,,,,,,,,,,
1903,,recognition_phase,3096347,Topeka,,51,,,,,new,1,0.8108108108108109,,,,,,,,,,
null,,confidence_buffer,3096450,confidence_buffer,,null,,,,,,,,,,,,,,,,,
null,,thebreak,3096953,break,,null,,,,,,,,,,,,,,,,,
1404,,realistic_rating,3098359,Abilene,,53,Abilene,5,,,,,,,,,,,,,,,
null,,confidence_buffer,3098462,confidence_buffer,,null,,,,,,,,,,,,,,,,,
786.2999999523163,,pt2_unique_rating,3099250,Abilene,,50,,2,,,,,,,,,,,,,,,
null,,confidence_buffer,3099359,confidence_buffer,,null,,,,,,,,,,,,,,,,,
791,,pt2_memorable_rating,3100152,Abilene,,52,,4,,,,,,,,,,,,,,,
null,,confidence_buffer,3100257,confidence_buffer,,null,,,,,,,,,,,,,,,,,
2755.1999999284744,,recognition_phase,3103014,Abilene,,52,,,,,new,0,0.7894736842105263,,,,,,,,,,
null,,confidence_buffer,3103122,confidence_buffer,,null,,,,,,,,,,,,,,,,,
null,,thebreak,3103638,break,,null,,,,,,,,,,,,,,,,,
1880.1000000238419,,realistic_rating,3105520,Helena,,50,Helena,2,,,,,,,,,,,,,,,
null,,confidence_buffer,3105635,confidence_buffer,,null,,,,,,,,,,,,,,,,,
789.5,,pt2_unique_rating,3106426,Helena,,52,,4,,,,,,,,,,,,,,,
null,,confidence_buffer,3106531,confidence_buffer,,null,,,,,,,,,,,,,,,,,
461,,pt2_memorable_rating,3106994,Helena,,51,,3,,,,,,,,,,,,,,,
null,,confidence_buffer,3107105,confidence_buffer,,null,,,,,,,,,,,,,,,,,
2119.5999999046326,,recognition_phase,3109226,Helena,,49,,,,,old,1,0.7948717948717948,,,,,,,,,,
null,,confidence_buffer,3109333,confidence_buffer,,null,,,,,,,,,,,,,,,,,
null,,thebreak,3109841,break,,null,,,,,,,,,,,,,,,,,
2573.399999976158,,realistic_rating,3112416,Altoona,,53,Altoona,5,,,,,,,,,,,,,,,
null,,confidence_buffer,3112518,confidence_buffer,,null,,,,,,,,,,,,,,,,,
444.7000000476837,,pt2_unique_rating,3112965,Altoona,,52,,4,,,,,,,,,,,,,,,
null,,confidence_buffer,3113072,confidence_buffer,,null,,,,,,,,,,,,,,,,,
437.7999999523163,,pt2_memorable_rating,3113511,Altoona,,51,,3,,,,,,,,,,,,,,,
null,,confidence_buffer,3113623,confidence_buffer,,null,,,,,,,,,,,,,,,,,
1910.0999999046326,,recognition_phase,3115535,Altoona,,50,,,,,old,1,0.8,,,,,,,,,,
null,,confidence_buffer,3115640,confidence_buffer,,null,,,,,,,,,,,,,,,,,
null,,thebreak,3116156,break,,null,,,,,,,,,,,,,,,,,
1494.9000000953674,,realistic_rating,3117653,Tallahassee,,53,Tallahassee,5,,,,,,,,,,,,,,,
null,,confidence_buffer,3117760,confidence_buffer,,null,,,,,,,,,,,,,,,,,
515.6000000238419,,pt2_unique_rating,3118277,Tallahassee,,52,,4,,,,,,,,,,,,,,,
null,,confidence_buffer,3118390,confidence_buffer,,null,,,,,,,,,,,,,,,,,
707.8000000715256,,pt2_memorable_rating,3119099,Tallahassee,,50,,2,,,,,,,,,,,,,,,
null,,confidence_buffer,3119205,confidence_buffer,,null,,,,,,,,,,,,,,,,,
2222.6999999284744,,recognition_phase,3121429,Tallahassee,,51,,,,,new,1,0.8048780487804879,,,,,,,,,,
null,,confidence_buffer,3121536,confidence_buffer,,null,,,,,,,,,,,,,,,,,
null,,thebreak,3122044,break,,null,,,,,,,,,,,,,,,,,
897,,realistic_rating,3122943,Peoria,,51,Peoria,3,,,,,,,,,,,,,,,
null,,confidence_buffer,3123047,confidence_buffer,,null,,,,,,,,,,,,,,,,,
546.2999999523163,,pt2_unique_rating,3123595,Peoria,,53,,5,,,,,,,,,,,,,,,
null,,confidence_buffer,3123708,confidence_buffer,,null,,,,,,,,,,,,,,,,,
833.5,,pt2_memorable_rating,3124543,Peoria,,50,,2,,,,,,,,,,,,,,,
null,,confidence_buffer,3124649,confidence_buffer,,null,,,,,,,,,,,,,,,,,
634.7999999523163,,recognition_phase,3125285,Peoria,,52,,,,,new,1,0.8095238095238095,,,,,,,,,,
null,,confidence_buffer,3125397,confidence_buffer,,null,,,,,,,,,,,,,,,,,
null,,thebreak,3125907,break,,null,,,,,,,,,,,,,,,,,
1645.5,,realistic_rating,3127554,Olympia,,53,Olympia,5,,,,,,,,,,,,,,,
null,,confidence_buffer,3127661,confidence_buffer,,null,,,,,,,,,,,,,,,,,
1250.6000000238419,,probe_rating,3128914,probe_rating,,50,,,2,1,,,,,,,,,,,,,
null,,confidence_buffer,3129024,confidence_buffer,,null,,,,,,,,,,,,,,,,,
1568.8999999761581,,pt2_unique_rating,3130595,Olympia,,53,,5,,,,,,,,,,,,,,,
null,,confidence_buffer,3130706,confidence_buffer,,null,,,,,,,,,,,,,,,,,
1063.6000000238419,,pt2_memorable_rating,3131772,Olympia,,53,,5,,,,,,,,,,,,,,,
null,,confidence_buffer,3131890,confidence_buffer,,null,,,,,,,,,,,,,,,,,
1424.9000000953674,,recognition_phase,3133317,Olympia,,49,,,,,old,1,0.813953488372093,,,,,,,,,,
null,,confidence_buffer,3133427,confidence_buffer,,null,,,,,,,,,,,,,,,,,
null,,thebreak,3133946,break,,null,,,,,,,,,,,,,,,,,
1275.2000000476837,,realistic_rating,3135223,Champaign,,53,Champaign,5,,,,,,,,,,,,,,,
null,,confidence_buffer,3135337,confidence_buffer,,null,,,,,,,,,,,,,,,,,
59.39999997615814,,pt2_unique_rating,3135398,Champaign,,51,,3,,,,,,,,,,,,,,,
null,,confidence_buffer,3135509,confidence_buffer,,null,,,,,,,,,,,,,,,,,
343.3000000715256,,pt2_memorable_rating,3135854,Champaign,,52,,4,,,,,,,,,,,,,,,
null,,confidence_buffer,3135956,confidence_buffer,,null,,,,,,,,,,,,,,,,,
1548.7000000476837,,recognition_phase,3137507,Champaign,,52,,,,,new,1,0.8181818181818182,,,,,,,,,,
null,,confidence_buffer,3137624,confidence_buffer,,null,,,,,,,,,,,,,,,,,
null,,thebreak,3138133,break,,null,,,,,,,,,,,,,,,,,
1096.5,,realistic_rating,3139232,Pueblo,,53,Pueblo,5,,,,,,,,,,,,,,,
null,,confidence_buffer,3139339,confidence_buffer,,null,,,,,,,,,,,,,,,,,
216.60000002384186,,pt2_unique_rating,3139557,Pueblo,,50,,2,,,,,,,,,,,,,,,
null,,confidence_buffer,3139675,confidence_buffer,,null,,,,,,,,,,,,,,,,,
788.3999999761581,,pt2_memorable_rating,3140465,Pueblo,,52,,4,,,,,,,,,,,,,,,
null,,confidence_buffer,3140569,confidence_buffer,,null,,,,,,,,,,,,,,,,,
2353.5,,recognition_phase,3142925,Pueblo,,50,,,,,old,1,0.8222222222222222,,,,,,,,,,
null,,confidence_buffer,3143032,confidence_buffer,,null,,,,,,,,,,,,,,,,,
null,,thebreak,3143542,break,,null,,,,,,,,,,,,,,,,,
2106.5,,realistic_rating,3145650,Cheyenne,,50,Cheyenne,2,,,,,,,,,,,,,,,
null,,confidence_buffer,3145767,confidence_buffer,,null,,,,,,,,,,,,,,,,,
1180,,pt2_unique_rating,3146949,Cheyenne,,49,,1,,,,,,,,,,,,,,,
null,,confidence_buffer,3147066,confidence_buffer,,null,,,,,,,,,,,,,,,,,
949.8000000715256,,pt2_memorable_rating,3148017,Cheyenne,,49,,1,,,,,,,,,,,,,,,
null,,confidence_buffer,3148121,confidence_buffer,,null,,,,,,,,,,,,,,,,,
1989.5,,recognition_phase,3150112,Cheyenne,,49,,,,,old,1,0.8260869565217391,,,,,,,,,,
null,,confidence_buffer,3150228,confidence_buffer,,null,,,,,,,,,,,,,,,,,
null,,thebreak,3150736,break,,null,,,,,,,,,,,,,,,,,
5994.200000047684,,realistic_rating,3156732,Gainesville,,51,Gainesville,3,,,,,,,,,,,,,,,
null,,confidence_buffer,3156839,confidence_buffer,,null,,,,,,,,,,,,,,,,,
18512.399999976158,,pt2_unique_rating,3175354,Gainesville,,52,,4,,,,,,,,,,,,,,,
null,,confidence_buffer,3175458,confidence_buffer,,null,,,,,,,,,,,,,,,,,
5702.5,,pt2_memorable_rating,3181163,Gainesville,,51,,3,,,,,,,,,,,,,,,
null,,confidence_buffer,3181275,confidence_buffer,,null,,,,,,,,,,,,,,,,,
1816.5,,recognition_phase,3183093,Gainesville,,50,,,,,old,1,0.8297872340425532,,,,,,,,,,
null,,confidence_buffer,3183205,confidence_buffer,,null,,,,,,,,,,,,,,,,,
null,,thebreak,3183721,break,,null,,,,,,,,,,,,,,,,,
1388.6000000238419,,realistic_rating,3185111,Fort Wayne,,53,Fort Wayne,5,,,,,,,,,,,,,,,
null,,confidence_buffer,3185220,confidence_buffer,,null,,,,,,,,,,,,,,,,,
384.60000002384186,,pt2_unique_rating,3185607,Fort Wayne,,51,,3,,,,,,,,,,,,,,,
null,,confidence_buffer,3185716,confidence_buffer,,null,,,,,,,,,,,,,,,,,
712,,pt2_memorable_rating,3186430,Fort Wayne,,52,,4,,,,,,,,,,,,,,,
null,,confidence_buffer,3186537,confidence_buffer,,null,,,,,,,,,,,,,,,,,
1510.3999999761581,,recognition_phase,3188049,Fort Wayne,,50,,,,,old,1,0.8333333333333334,,,,,,,,,,
null,,confidence_buffer,3188161,confidence_buffer,,null,,,,,,,,,,,,,,,,,
null,,thebreak,3188665,break,,null,,,,,,,,,,,,,,,,,
1066.1000000238419,,realistic_rating,3189733,Newport News,,53,Newport News,5,,,,,,,,,,,,,,,
null,,confidence_buffer,3189854,confidence_buffer,,null,,,,,,,,,,,,,,,,,
626.4000000953674,,pt2_unique_rating,3190482,Newport News,,52,,4,,,,,,,,,,,,,,,
null,,confidence_buffer,3190597,confidence_buffer,,null,,,,,,,,,,,,,,,,,
430.6999999284744,,pt2_memorable_rating,3191030,Newport News,,51,,3,,,,,,,,,,,,,,,
null,,confidence_buffer,3191137,confidence_buffer,,null,,,,,,,,,,,,,,,,,
1378.5,,recognition_phase,3192517,Newport News,,49,,,,,old,1,0.8367346938775511,,,,,,,,,,
null,,confidence_buffer,3192629,confidence_buffer,,null,,,,,,,,,,,,,,,,,
null,,thebreak,3193135,break,,null,,,,,,,,,,,,,,,,,
860.7000000476837,,realistic_rating,3193998,Youngstown,,52,Youngstown,4,,,,,,,,,,,,,,,
null,,confidence_buffer,3194105,confidence_buffer,,null,,,,,,,,,,,,,,,,,
1325.8000000715256,,pt2_unique_rating,3195433,Youngstown,,50,,2,,,,,,,,,,,,,,,
null,,confidence_buffer,3195538,confidence_buffer,,null,,,,,,,,,,,,,,,,,
1158.6999999284744,,pt2_memorable_rating,3196699,Youngstown,,51,,3,,,,,,,,,,,,,,,
null,,confidence_buffer,3196809,confidence_buffer,,null,,,,,,,,,,,,,,,,,
2782.9000000953674,,recognition_phase,3199594,Youngstown,,49,,,,,old,1,0.84,,,,,,,,,,
null,,confidence_buffer,3199704,confidence_buffer,,null,,,,,,,,,,,,,,,,,
null,,thebreak,3200217,break,,null,,,,,,,,,,,,,,,,,
,,survey,3320074,survey-questions,,,,,,,,,,none,high,no,n/a,no,no,yes,n/a,no,no
