rt,responses,trial_type,time_elapsed,stimulus,button_pressed,key_press,name_trial,city_type,rating,probe,probe_accuracy,response,correct,accuracy
7852,{worker_id:6706bc0d8c98b64939838b2e},id_enter,7929,,,,,,,,,,,
11727,,fullscreen,19675,fullscreen,0,,,,,,,,,
6576,,intro_0,26270,instruct,,32,,,,,,,,
8387,,intro_1,34658,instruct,,32,,,,,,,,
3741,,intro_2,38401,instruct,,32,,,,,,,,
null,,instruct_dir_4,39907,instruct,,null,,,,,,,,
null,,thebreak,40430,break,,null,,,,,,,,
7783,,familiar_rating,48226,Cleveland,,53,Cleveland,US,5,,,,,
null,,confidence_buffer,48339,confidence_buffer,,null,,,,,,,,
10845,,unique_rating,59185,Cleveland,,51,,,3,,,,,
null,,confidence_buffer,59302,confidence_buffer,,null,,,,,,,,
3323,,memorable_rating,62627,Cleveland,,51,,,3,,,,,
null,,confidence_buffer,62739,confidence_buffer,,null,,,,,,,,
null,,thebreak,63261,break,,null,,,,,,,,
3107,,familiar_rating,66371,Brookmere,,49,Brookmere,Fictional,1,,,,,
null,,confidence_buffer,66482,confidence_buffer,,null,,,,,,,,
6959,,unique_rating,73442,Brookmere,,53,,,5,,,,,
null,,confidence_buffer,73552,confidence_buffer,,null,,,,,,,,
3743,,memorable_rating,77298,Brookmere,,49,,,1,,,,,
null,,confidence_buffer,77408,confidence_buffer,,null,,,,,,,,
2255,,probe_rating,79667,probe_rating,,49,,,,1,1,,,
null,,confidence_buffer,79780,confidence_buffer,,null,,,,,,,,
null,,thebreak,80296,break,,null,,,,,,,,
4312,,familiar_rating,84610,Claywater,,49,Claywater,Fictional,1,,,,,
null,,confidence_buffer,84718,confidence_buffer,,null,,,,,,,,
3172,,unique_rating,87890,Claywater,,50,,,2,,,,,
null,,confidence_buffer,88006,confidence_buffer,,null,,,,,,,,
2426,,memorable_rating,90434,Claywater,,50,,,2,,,,,
null,,confidence_buffer,90538,confidence_buffer,,null,,,,,,,,
null,,thebreak,91054,break,,null,,,,,,,,
2962,,familiar_rating,94017,Gardnerville,,49,Gardnerville,US,1,,,,,
null,,confidence_buffer,94127,confidence_buffer,,null,,,,,,,,
2291,,unique_rating,96418,Gardnerville,,49,,,1,,,,,
null,,confidence_buffer,96530,confidence_buffer,,null,,,,,,,,
1181,,memorable_rating,97713,Gardnerville,,49,,,1,,,,,
null,,confidence_buffer,97816,confidence_buffer,,null,,,,,,,,
null,,thebreak,98332,break,,null,,,,,,,,
3284,,familiar_rating,101617,Newport,,53,Newport,US,5,,,,,
null,,confidence_buffer,101721,confidence_buffer,,null,,,,,,,,
4518,,unique_rating,106241,Newport,,52,,,4,,,,,
null,,confidence_buffer,106356,confidence_buffer,,null,,,,,,,,
1996,,memorable_rating,108354,Newport,,52,,,4,,,,,
null,,confidence_buffer,108459,confidence_buffer,,null,,,,,,,,
null,,thebreak,108974,break,,null,,,,,,,,
4113,,familiar_rating,113089,Barnard,,49,Barnard,US,1,,,,,
null,,confidence_buffer,113194,confidence_buffer,,null,,,,,,,,
3878,,unique_rating,117072,Barnard,,51,,,3,,,,,
null,,confidence_buffer,117183,confidence_buffer,,null,,,,,,,,
2017,,memorable_rating,119200,Barnard,,49,,,1,,,,,
null,,confidence_buffer,119322,confidence_buffer,,null,,,,,,,,
null,,thebreak,119839,break,,null,,,,,,,,
2272,,familiar_rating,122113,Highvale,,49,Highvale,Fictional,1,,,,,
null,,confidence_buffer,122225,confidence_buffer,,null,,,,,,,,
4416,,unique_rating,126641,Highvale,,50,,,2,,,,,
null,,confidence_buffer,126745,confidence_buffer,,null,,,,,,,,
1430,,memorable_rating,128176,Highvale,,49,,,1,,,,,
null,,confidence_buffer,128277,confidence_buffer,,null,,,,,,,,
null,,thebreak,128794,break,,null,,,,,,,,
2503,,familiar_rating,131298,Bar Harbor,,53,Bar Harbor,US,5,,,,,
null,,confidence_buffer,131413,confidence_buffer,,null,,,,,,,,
3244,,unique_rating,134657,Bar Harbor,,53,,,5,,,,,
null,,confidence_buffer,134768,confidence_buffer,,null,,,,,,,,
1984,,memorable_rating,136754,Bar Harbor,,53,,,5,,,,,
null,,confidence_buffer,136856,confidence_buffer,,null,,,,,,,,
null,,thebreak,137371,break,,null,,,,,,,,
2068,,familiar_rating,139441,Clearbrook,,49,Clearbrook,Fictional,1,,,,,
null,,confidence_buffer,139557,confidence_buffer,,null,,,,,,,,
2923,,unique_rating,142482,Clearbrook,,50,,,2,,,,,
null,,confidence_buffer,142592,confidence_buffer,,null,,,,,,,,
832,,memorable_rating,143425,Clearbrook,,49,,,1,,,,,
null,,confidence_buffer,143547,confidence_buffer,,null,,,,,,,,
null,,thebreak,144062,break,,null,,,,,,,,
2371,,familiar_rating,146434,Coeur d'Alene,,53,Coeur d'Alene,US,5,,,,,
null,,confidence_buffer,146549,confidence_buffer,,null,,,,,,,,
1594,,unique_rating,148145,Coeur d'Alene,,53,,,5,,,,,
null,,confidence_buffer,148252,confidence_buffer,,null,,,,,,,,
1909,,memorable_rating,150161,Coeur d'Alene,,53,,,5,,,,,
null,,confidence_buffer,150269,confidence_buffer,,null,,,,,,,,
null,,thebreak,150784,break,,null,,,,,,,,
2143,,familiar_rating,152930,Healdsburg,,49,Healdsburg,US,1,,,,,
null,,confidence_buffer,153035,confidence_buffer,,null,,,,,,,,
1958,,unique_rating,154994,Healdsburg,,50,,,2,,,,,
null,,confidence_buffer,155107,confidence_buffer,,null,,,,,,,,
860,,memorable_rating,155970,Healdsburg,,49,,,1,,,,,
null,,confidence_buffer,156078,confidence_buffer,,null,,,,,,,,
null,,thebreak,156594,break,,null,,,,,,,,
1887,,familiar_rating,158481,Hawthorne Bluffs,,49,Hawthorne Bluffs,Fictional,1,,,,,
null,,confidence_buffer,158596,confidence_buffer,,null,,,,,,,,
3582,,unique_rating,162179,Hawthorne Bluffs,,52,,,4,,,,,
null,,confidence_buffer,162283,confidence_buffer,,null,,,,,,,,
1364,,memorable_rating,163649,Hawthorne Bluffs,,49,,,1,,,,,
null,,confidence_buffer,163769,confidence_buffer,,null,,,,,,,,
1944,,probe_rating,165714,probe_rating,,50,,,,2,1,,,
null,,confidence_buffer,165820,confidence_buffer,,null,,,,,,,,
null,,thebreak,166334,break,,null,,,,,,,,
1442,,familiar_rating,167778,Redgrove,,49,Redgrove,Fictional,1,,,,,
null,,confidence_buffer,167889,confidence_buffer,,null,,,,,,,,
4767,,unique_rating,172658,Redgrove,,50,,,2,,,,,
null,,confidence_buffer,172778,confidence_buffer,,null,,,,,,,,
645,,memorable_rating,173427,Redgrove,,49,,,1,,,,,
null,,confidence_buffer,173541,confidence_buffer,,null,,,,,,,,
null,,thebreak,174058,break,,null,,,,,,,,
2679,,familiar_rating,176738,Abilene,,53,Abilene,US,5,,,,,
null,,confidence_buffer,176845,confidence_buffer,,null,,,,,,,,
3236,,unique_rating,180081,Abilene,,52,,,4,,,,,
null,,confidence_buffer,180186,confidence_buffer,,null,,,,,,,,
1800,,memorable_rating,181986,Abilene,,52,,,4,,,,,
null,,confidence_buffer,182087,confidence_buffer,,null,,,,,,,,
null,,thebreak,182588,break,,null,,,,,,,,
2005,,familiar_rating,184594,Driftwood Bay,,49,Driftwood Bay,Fictional,1,,,,,
null,,confidence_buffer,184708,confidence_buffer,,null,,,,,,,,
2045,,unique_rating,186754,Driftwood Bay,,52,,,4,,,,,
null,,confidence_buffer,186857,confidence_buffer,,null,,,,,,,,
3623,,memorable_rating,190481,Driftwood Bay,,50,,,2,,,,,
null,,confidence_buffer,190597,confidence_buffer,,null,,,,,,,,
null,,thebreak,191112,break,,null,,,,,,,,
1350,,familiar_rating,192464,Maravilla Springs,,49,Maravilla Springs,Fictional,1,,,,,
null,,confidence_buffer,192578,confidence_buffer,,null,,,,,,,,
4127,,unique_rating,196706,Maravilla Springs,,50,,,2,,,,,
null,,confidence_buffer,196819,confidence_buffer,,null,,,,,,,,
1645,,memorable_rating,198464,Maravilla Springs,,49,,,1,,,,,
null,,confidence_buffer,198568,confidence_buffer,,null,,,,,,,,
null,,thebreak,199084,break,,null,,,,,,,,
3380,,familiar_rating,202466,Sitka,,49,Sitka,US,1,,,,,
null,,confidence_buffer,202572,confidence_buffer,,null,,,,,,,,
3428,,unique_rating,206001,Sitka,,53,,,5,,,,,
null,,confidence_buffer,206113,confidence_buffer,,null,,,,,,,,
2737,,memorable_rating,208849,Sitka,,52,,,4,,,,,
null,,confidence_buffer,208963,confidence_buffer,,null,,,,,,,,
null,,thebreak,209479,break,,null,,,,,,,,
2345,,familiar_rating,211826,Delaro Park,,49,Delaro Park,Fictional,1,,,,,
null,,confidence_buffer,211934,confidence_buffer,,null,,,,,,,,
2467,,unique_rating,214403,Delaro Park,,51,,,3,,,,,
null,,confidence_buffer,214521,confidence_buffer,,null,,,,,,,,
3079,,memorable_rating,217601,Delaro Park,,50,,,2,,,,,
null,,confidence_buffer,217704,confidence_buffer,,null,,,,,,,,
null,,thebreak,218226,break,,null,,,,,,,,
911,,familiar_rating,219138,Coralridge,,49,Coralridge,Fictional,1,,,,,
null,,confidence_buffer,219242,confidence_buffer,,null,,,,,,,,
2150,,unique_rating,221394,Coralridge,,50,,,2,,,,,
null,,confidence_buffer,221509,confidence_buffer,,null,,,,,,,,
2764,,memorable_rating,224273,Coralridge,,49,,,1,,,,,
null,,confidence_buffer,224381,confidence_buffer,,null,,,,,,,,
null,,thebreak,224882,break,,null,,,,,,,,
1806,,familiar_rating,226689,Duck,,49,Duck,US,1,,,,,
null,,confidence_buffer,226801,confidence_buffer,,null,,,,,,,,
3359,,unique_rating,230161,Duck,,52,,,4,,,,,
null,,confidence_buffer,230274,confidence_buffer,,null,,,,,,,,
2142,,memorable_rating,232418,Duck,,53,,,5,,,,,
null,,confidence_buffer,232525,confidence_buffer,,null,,,,,,,,
null,,thebreak,233046,break,,null,,,,,,,,
2235,,familiar_rating,235282,Linden Trace,,49,Linden Trace,Fictional,1,,,,,
null,,confidence_buffer,235396,confidence_buffer,,null,,,,,,,,
1645,,unique_rating,237042,Linden Trace,,50,,,2,,,,,
null,,confidence_buffer,237151,confidence_buffer,,null,,,,,,,,
1873,,memorable_rating,239026,Linden Trace,,49,,,1,,,,,
null,,confidence_buffer,239131,confidence_buffer,,null,,,,,,,,
null,,thebreak,239654,break,,null,,,,,,,,
2634,,familiar_rating,242289,Albuquerque,,53,Albuquerque,US,5,,,,,
null,,confidence_buffer,242405,confidence_buffer,,null,,,,,,,,
2954,,unique_rating,245361,Albuquerque,,52,,,4,,,,,
null,,confidence_buffer,245477,confidence_buffer,,null,,,,,,,,
2122,,memorable_rating,247600,Albuquerque,,52,,,4,,,,,
null,,confidence_buffer,247713,confidence_buffer,,null,,,,,,,,
null,,thebreak,248218,break,,null,,,,,,,,
1845,,familiar_rating,250064,Sisters,,49,Sisters,US,1,,,,,
null,,confidence_buffer,250165,confidence_buffer,,null,,,,,,,,
2907,,unique_rating,253073,Sisters,,52,,,4,,,,,
null,,confidence_buffer,253193,confidence_buffer,,null,,,,,,,,
2631,,memorable_rating,255824,Sisters,,51,,,3,,,,,
null,,confidence_buffer,255930,confidence_buffer,,null,,,,,,,,
null,,thebreak,256432,break,,null,,,,,,,,
671,,familiar_rating,257104,Crestwood,,49,Crestwood,Fictional,1,,,,,
null,,confidence_buffer,257217,confidence_buffer,,null,,,,,,,,
1743,,unique_rating,258962,Crestwood,,50,,,2,,,,,
null,,confidence_buffer,259066,confidence_buffer,,null,,,,,,,,
1174,,memorable_rating,260242,Crestwood,,49,,,1,,,,,
null,,confidence_buffer,260351,confidence_buffer,,null,,,,,,,,
null,,thebreak,260867,break,,null,,,,,,,,
2156,,familiar_rating,263026,Solara Glen,,49,Solara Glen,Fictional,1,,,,,
null,,confidence_buffer,263139,confidence_buffer,,null,,,,,,,,
1902,,unique_rating,265042,Solara Glen,,50,,,2,,,,,
null,,confidence_buffer,265156,confidence_buffer,,null,,,,,,,,
1820,,memorable_rating,266977,Solara Glen,,49,,,1,,,,,
null,,confidence_buffer,267089,confidence_buffer,,null,,,,,,,,
null,,thebreak,267589,break,,null,,,,,,,,
2826,,familiar_rating,270416,Hot Springs,,53,Hot Springs,US,5,,,,,
null,,confidence_buffer,270531,confidence_buffer,,null,,,,,,,,
2894,,unique_rating,273426,Hot Springs,,49,,,1,,,,,
null,,confidence_buffer,273534,confidence_buffer,,null,,,,,,,,
2212,,memorable_rating,275746,Hot Springs,,53,,,5,,,,,
null,,confidence_buffer,275852,confidence_buffer,,null,,,,,,,,
null,,thebreak,276369,break,,null,,,,,,,,
2048,,familiar_rating,278418,Tamarisk Hills,,49,Tamarisk Hills,Fictional,1,,,,,
null,,confidence_buffer,278525,confidence_buffer,,null,,,,,,,,
1956,,unique_rating,280482,Tamarisk Hills,,51,,,3,,,,,
null,,confidence_buffer,280589,confidence_buffer,,null,,,,,,,,
1987,,memorable_rating,282577,Tamarisk Hills,,50,,,2,,,,,
null,,confidence_buffer,282692,confidence_buffer,,null,,,,,,,,
null,,thebreak,283193,break,,null,,,,,,,,
2360,,familiar_rating,285554,Lakehaven,,49,Lakehaven,Fictional,1,,,,,
null,,confidence_buffer,285664,confidence_buffer,,null,,,,,,,,
1408,,unique_rating,287075,Lakehaven,,49,,,1,,,,,
null,,confidence_buffer,287180,confidence_buffer,,null,,,,,,,,
2643,,probe_rating,289825,probe_rating,,50,,,,2,1,,,
null,,confidence_buffer,289937,confidence_buffer,,null,,,,,,,,
4336,,memorable_rating,294273,Lakehaven,,50,,,2,,,,,
null,,confidence_buffer,294388,confidence_buffer,,null,,,,,,,,
null,,thebreak,294903,break,,null,,,,,,,,
2236,,familiar_rating,297139,West Palm Beach,,53,West Palm Beach,US,5,,,,,
null,,confidence_buffer,297243,confidence_buffer,,null,,,,,,,,
1028,,unique_rating,298273,West Palm Beach,,53,,,5,,,,,
null,,confidence_buffer,298375,confidence_buffer,,null,,,,,,,,
954,,memorable_rating,299329,West Palm Beach,,53,,,5,,,,,
null,,confidence_buffer,299444,confidence_buffer,,null,,,,,,,,
null,,thebreak,299961,break,,null,,,,,,,,
1976,,familiar_rating,301937,Huntsville,,49,Huntsville,US,1,,,,,
null,,confidence_buffer,302046,confidence_buffer,,null,,,,,,,,
1809,,unique_rating,303857,Huntsville,,49,,,1,,,,,
null,,confidence_buffer,303964,confidence_buffer,,null,,,,,,,,
1475,,memorable_rating,305441,Huntsville,,49,,,1,,,,,
null,,confidence_buffer,305549,confidence_buffer,,null,,,,,,,,
null,,thebreak,306065,break,,null,,,,,,,,
3919,,intro_0,309985,instruct,,32,,,,,,,,
4127,,intro_1,314112,instruct,,32,,,,,,,,
4559,,intro_2,318674,instruct,,32,,,,,,,,
null,,instruct_dir_4,320180,instruct,,null,,,,,,,,
17388,,realistic_rating,337569,Clearbrook,,51,Clearbrook,Fictional,3,,,,,
null,,confidence_buffer,337681,confidence_buffer,,null,,,,,,,,
3504,,pt2_unique_rating,341185,Clearbrook,,50,,,2,,,,,
null,,confidence_buffer,341301,confidence_buffer,,null,,,,,,,,
2044,,pt2_memorable_rating,343345,Clearbrook,,49,,,1,,,,,
null,,confidence_buffer,343449,confidence_buffer,,null,,,,,,,,
3000,,recognition_phase,346450,Clearbrook,,49,,,,,,old,1,1
null,,confidence_buffer,346554,confidence_buffer,,null,,,,,,,,
null,,thebreak,347069,break,,null,,,,,,,,
3923,,realistic_rating,350993,Sisters,,50,Sisters,US,2,,,,,
null,,confidence_buffer,351096,confidence_buffer,,null,,,,,,,,
2873,,pt2_unique_rating,353969,Sisters,,52,,,4,,,,,
null,,confidence_buffer,354077,confidence_buffer,,null,,,,,,,,
1379,,pt2_memorable_rating,355458,Sisters,,52,,,4,,,,,
null,,confidence_buffer,355563,confidence_buffer,,null,,,,,,,,
2485,,recognition_phase,358048,Sisters,,49,,,,,,old,1,1
null,,confidence_buffer,358151,confidence_buffer,,null,,,,,,,,
null,,thebreak,358666,break,,null,,,,,,,,
3733,,realistic_rating,362402,Newport,,53,Newport,US,5,,,,,
null,,confidence_buffer,362508,confidence_buffer,,null,,,,,,,,
3828,,pt2_unique_rating,366337,Newport,,52,,,4,,,,,
null,,confidence_buffer,366442,confidence_buffer,,null,,,,,,,,
1959,,pt2_memorable_rating,368402,Newport,,53,,,5,,,,,
null,,confidence_buffer,368511,confidence_buffer,,null,,,,,,,,
2687,,recognition_phase,371201,Newport,,49,,,,,,old,1,1
null,,confidence_buffer,371315,confidence_buffer,,null,,,,,,,,
null,,thebreak,371831,break,,null,,,,,,,,
3178,,realistic_rating,375010,Briarfield,,50,Briarfield,Fictional,2,,,,,
null,,confidence_buffer,375121,confidence_buffer,,null,,,,,,,,
1744,,pt2_unique_rating,376866,Briarfield,,50,,,2,,,,,
null,,confidence_buffer,376969,confidence_buffer,,null,,,,,,,,
2903,,pt2_memorable_rating,379874,Briarfield,,50,,,2,,,,,
null,,confidence_buffer,379989,confidence_buffer,,null,,,,,,,,
3771,,recognition_phase,383761,Briarfield,,51,,,,,,new,1,1
null,,confidence_buffer,383863,confidence_buffer,,null,,,,,,,,
null,,thebreak,384379,break,,null,,,,,,,,
4852,,realistic_rating,389234,Redgrove,,49,Redgrove,Fictional,1,,,,,
null,,confidence_buffer,389338,confidence_buffer,,null,,,,,,,,
2582,,pt2_unique_rating,391922,Redgrove,,50,,,2,,,,,
null,,confidence_buffer,392043,confidence_buffer,,null,,,,,,,,
1860,,pt2_memorable_rating,393906,Redgrove,,50,,,2,,,,,
null,,confidence_buffer,394022,confidence_buffer,,null,,,,,,,,
1562,,recognition_phase,395585,Redgrove,,49,,,,,,old,1,1
null,,confidence_buffer,395692,confidence_buffer,,null,,,,,,,,
null,,thebreak,396194,break,,null,,,,,,,,
1775,,realistic_rating,397970,Solara Glen,,49,Solara Glen,Fictional,1,,,,,
null,,confidence_buffer,398081,confidence_buffer,,null,,,,,,,,
4526,,pt2_unique_rating,402610,Solara Glen,,50,,,2,,,,,
null,,confidence_buffer,402717,confidence_buffer,,null,,,,,,,,
2594,,pt2_memorable_rating,405312,Solara Glen,,49,,,1,,,,,
null,,confidence_buffer,405420,confidence_buffer,,null,,,,,,,,
2117,,recognition_phase,407538,Solara Glen,,49,,,,,,old,1,1
null,,confidence_buffer,407660,confidence_buffer,,null,,,,,,,,
null,,thebreak,408175,break,,null,,,,,,,,
3491,,realistic_rating,411666,Bayshore Haven,,49,Bayshore Haven,Fictional,1,,,,,
null,,confidence_buffer,411780,confidence_buffer,,null,,,,,,,,
3308,,pt2_unique_rating,415089,Bayshore Haven,,52,,,4,,,,,
null,,confidence_buffer,415199,confidence_buffer,,null,,,,,,,,
3058,,pt2_memorable_rating,418258,Bayshore Haven,,50,,,2,,,,,
null,,confidence_buffer,418371,confidence_buffer,,null,,,,,,,,
5166,,recognition_phase,423538,Bayshore Haven,,52,,,,,,new,1,1
null,,confidence_buffer,423654,confidence_buffer,,null,,,,,,,,
null,,thebreak,424155,break,,null,,,,,,,,
3397,,realistic_rating,427554,Cleveland,,53,Cleveland,US,5,,,,,
null,,confidence_buffer,427657,confidence_buffer,,null,,,,,,,,
3399,,pt2_unique_rating,431057,Cleveland,,51,,,3,,,,,
null,,confidence_buffer,431161,confidence_buffer,,null,,,,,,,,
2550,,pt2_memorable_rating,433713,Cleveland,,52,,,4,,,,,
null,,confidence_buffer,433817,confidence_buffer,,null,,,,,,,,
1991,,recognition_phase,435809,Cleveland,,49,,,,,,old,1,1
null,,confidence_buffer,435919,confidence_buffer,,null,,,,,,,,
null,,thebreak,436435,break,,null,,,,,,,,
4220,,realistic_rating,440657,Maplehurst,,50,Maplehurst,Fictional,2,,,,,
null,,confidence_buffer,440770,confidence_buffer,,null,,,,,,,,
2894,,pt2_unique_rating,443666,Maplehurst,,51,,,3,,,,,
null,,confidence_buffer,443774,confidence_buffer,,null,,,,,,,,
2226,,pt2_memorable_rating,446002,Maplehurst,,51,,,3,,,,,
null,,confidence_buffer,446114,confidence_buffer,,null,,,,,,,,
2256,,recognition_phase,448371,Maplehurst,,52,,,,,,new,1,1
null,,confidence_buffer,448479,confidence_buffer,,null,,,,,,,,
null,,thebreak,449001,break,,null,,,,,,,,
2839,,realistic_rating,451840,Peoria,,53,Peoria,US,5,,,,,
null,,confidence_buffer,451950,confidence_buffer,,null,,,,,,,,
3202,,pt2_unique_rating,455153,Peoria,,52,,,4,,,,,
null,,confidence_buffer,455268,confidence_buffer,,null,,,,,,,,
1452,,pt2_memorable_rating,456721,Peoria,,52,,,4,,,,,
null,,confidence_buffer,456824,confidence_buffer,,null,,,,,,,,
2056,,recognition_phase,458881,Peoria,,52,,,,,,new,1,1
null,,confidence_buffer,458988,confidence_buffer,,null,,,,,,,,
null,,thebreak,459511,break,,null,,,,,,,,
2329,,realistic_rating,461842,Gloucester,,53,Gloucester,US,5,,,,,
null,,confidence_buffer,461946,confidence_buffer,,null,,,,,,,,
4086,,pt2_unique_rating,466033,Gloucester,,53,,,5,,,,,
null,,confidence_buffer,466137,confidence_buffer,,null,,,,,,,,
1527,,pt2_memorable_rating,467665,Gloucester,,53,,,5,,,,,
null,,confidence_buffer,467770,confidence_buffer,,null,,,,,,,,
2039,,recognition_phase,469810,Gloucester,,52,,,,,,new,1,1
null,,confidence_buffer,469925,confidence_buffer,,null,,,,,,,,
null,,thebreak,470441,break,,null,,,,,,,,
2216,,realistic_rating,472659,Boulder,,53,Boulder,US,5,,,,,
null,,confidence_buffer,472775,confidence_buffer,,null,,,,,,,,
2377,,pt2_unique_rating,475154,Boulder,,51,,,3,,,,,
null,,confidence_buffer,475262,confidence_buffer,,null,,,,,,,,
2225,,pt2_memorable_rating,477488,Boulder,,52,,,4,,,,,
null,,confidence_buffer,477594,confidence_buffer,,null,,,,,,,,
2054,,recognition_phase,479650,Boulder,,52,,,,,,new,1,1
null,,confidence_buffer,479766,confidence_buffer,,null,,,,,,,,
null,,thebreak,480267,break,,null,,,,,,,,
3061,,realistic_rating,483330,Highvale,,49,Highvale,Fictional,1,,,,,
null,,confidence_buffer,483439,confidence_buffer,,null,,,,,,,,
2207,,pt2_unique_rating,485650,Highvale,,50,,,2,,,,,
null,,confidence_buffer,485759,confidence_buffer,,null,,,,,,,,
1793,,pt2_memorable_rating,487552,Highvale,,49,,,1,,,,,
null,,confidence_buffer,487661,confidence_buffer,,null,,,,,,,,
2516,,probe_rating,490178,probe_rating,,52,,,,4,1,,,
null,,confidence_buffer,490280,confidence_buffer,,null,,,,,,,,
5032,,recognition_phase,495312,Highvale,,52,,,,,,new,0,0.9230769230769231
null,,confidence_buffer,495417,confidence_buffer,,null,,,,,,,,
null,,thebreak,495934,break,,null,,,,,,,,
2722,,realistic_rating,498657,Albuquerque,,53,Albuquerque,US,5,,,,,
null,,confidence_buffer,498761,confidence_buffer,,null,,,,,,,,
1830,,pt2_unique_rating,500592,Albuquerque,,52,,,4,,,,,
null,,confidence_buffer,500694,confidence_buffer,,null,,,,,,,,
1370,,pt2_memorable_rating,502065,Albuquerque,,52,,,4,,,,,
null,,confidence_buffer,502180,confidence_buffer,,null,,,,,,,,
1900,,recognition_phase,504080,Albuquerque,,49,,,,,,old,1,0.9285714285714286
null,,confidence_buffer,504183,confidence_buffer,,null,,,,,,,,
null,,thebreak,504698,break,,null,,,,,,,,
2437,,realistic_rating,507137,Duck,,49,Duck,US,1,,,,,
null,,confidence_buffer,507248,confidence_buffer,,null,,,,,,,,
3680,,pt2_unique_rating,510929,Duck,,52,,,4,,,,,
null,,confidence_buffer,511035,confidence_buffer,,null,,,,,,,,
1189,,pt2_memorable_rating,512226,Duck,,52,,,4,,,,,
null,,confidence_buffer,512337,confidence_buffer,,null,,,,,,,,
2063,,recognition_phase,514402,Duck,,49,,,,,,old,1,0.9333333333333333
null,,confidence_buffer,514509,confidence_buffer,,null,,,,,,,,
null,,thebreak,515025,break,,null,,,,,,,,
3599,,realistic_rating,518625,Brookmere,,49,Brookmere,Fictional,1,,,,,
null,,confidence_buffer,518730,confidence_buffer,,null,,,,,,,,
3734,,pt2_unique_rating,522465,Brookmere,,50,,,2,,,,,
null,,confidence_buffer,522587,confidence_buffer,,null,,,,,,,,
1943,,pt2_memorable_rating,524531,Brookmere,,49,,,1,,,,,
null,,confidence_buffer,524637,confidence_buffer,,null,,,,,,,,
1362,,recognition_phase,526001,Brookmere,,49,,,,,,old,1,0.9375
null,,confidence_buffer,526107,confidence_buffer,,null,,,,,,,,
null,,thebreak,526624,break,,null,,,,,,,,
4432,,realistic_rating,531057,Huntsville,,53,Huntsville,US,5,,,,,
null,,confidence_buffer,531159,confidence_buffer,,null,,,,,,,,
3017,,pt2_unique_rating,534177,Huntsville,,50,,,2,,,,,
null,,confidence_buffer,534279,confidence_buffer,,null,,,,,,,,
2026,,pt2_memorable_rating,536306,Huntsville,,50,,,2,,,,,
null,,confidence_buffer,536419,confidence_buffer,,null,,,,,,,,
1502,,recognition_phase,537921,Huntsville,,49,,,,,,old,1,0.9411764705882353
null,,confidence_buffer,538036,confidence_buffer,,null,,,,,,,,
null,,thebreak,538554,break,,null,,,,,,,,
2294,,realistic_rating,540849,Millstone,,49,Millstone,Fictional,1,,,,,
null,,confidence_buffer,540955,confidence_buffer,,null,,,,,,,,
3109,,pt2_unique_rating,544065,Millstone,,51,,,3,,,,,
null,,confidence_buffer,544174,confidence_buffer,,null,,,,,,,,
1618,,pt2_memorable_rating,545793,Millstone,,50,,,2,,,,,
null,,confidence_buffer,545915,confidence_buffer,,null,,,,,,,,
2134,,recognition_phase,548050,Millstone,,52,,,,,,new,1,0.9444444444444444
null,,confidence_buffer,548163,confidence_buffer,,null,,,,,,,,
null,,thebreak,548679,break,,null,,,,,,,,
2618,,realistic_rating,551297,Tamarisk Hills,,49,Tamarisk Hills,Fictional,1,,,,,
null,,confidence_buffer,551420,confidence_buffer,,null,,,,,,,,
3347,,pt2_unique_rating,554767,Tamarisk Hills,,52,,,4,,,,,
null,,confidence_buffer,554871,confidence_buffer,,null,,,,,,,,
2008,,pt2_memorable_rating,556880,Tamarisk Hills,,51,,,3,,,,,
null,,confidence_buffer,556990,confidence_buffer,,null,,,,,,,,
1730,,recognition_phase,558720,Tamarisk Hills,,49,,,,,,old,1,0.9473684210526315
null,,confidence_buffer,558829,confidence_buffer,,null,,,,,,,,
null,,thebreak,559346,break,,null,,,,,,,,
2223,,realistic_rating,561569,Coeur d'Alene,,53,Coeur d'Alene,US,5,,,,,
null,,confidence_buffer,561677,confidence_buffer,,null,,,,,,,,
1905,,probe_rating,563585,probe_rating,,50,,,,2,1,,,
null,,confidence_buffer,563694,confidence_buffer,,null,,,,,,,,
2851,,pt2_unique_rating,566545,Coeur d'Alene,,52,,,4,,,,,
null,,confidence_buffer,566650,confidence_buffer,,null,,,,,,,,
1638,,pt2_memorable_rating,568290,Coeur d'Alene,,52,,,4,,,,,
null,,confidence_buffer,568398,confidence_buffer,,null,,,,,,,,
2034,,recognition_phase,570434,Coeur d'Alene,,49,,,,,,old,1,0.95
null,,confidence_buffer,570539,confidence_buffer,,null,,,,,,,,
null,,thebreak,571055,break,,null,,,,,,,,
2834,,realistic_rating,573890,New Hope,,50,New Hope,US,2,,,,,
null,,confidence_buffer,574004,confidence_buffer,,null,,,,,,,,
3116,,pt2_unique_rating,577121,New Hope,,51,,,3,,,,,
null,,confidence_buffer,577224,confidence_buffer,,null,,,,,,,,
1321,,pt2_memorable_rating,578545,New Hope,,51,,,3,,,,,
null,,confidence_buffer,578662,confidence_buffer,,null,,,,,,,,
2811,,probe_rating,581473,probe_rating,,50,,,,2,1,,,
null,,confidence_buffer,581580,confidence_buffer,,null,,,,,,,,
2084,,recognition_phase,583666,New Hope,,52,,,,,,new,1,0.9523809523809523
null,,confidence_buffer,583767,confidence_buffer,,null,,,,,,,,
null,,thebreak,584283,break,,null,,,,,,,,
3797,,realistic_rating,588081,Juniper Creek,,50,Juniper Creek,Fictional,2,,,,,
null,,confidence_buffer,588187,confidence_buffer,,null,,,,,,,,
1060,,pt2_unique_rating,589247,Juniper Creek,,50,,,2,,,,,
null,,confidence_buffer,589357,confidence_buffer,,null,,,,,,,,
1252,,pt2_memorable_rating,590610,Juniper Creek,,50,,,2,,,,,
null,,confidence_buffer,590720,confidence_buffer,,null,,,,,,,,
2192,,recognition_phase,592914,Juniper Creek,,52,,,,,,new,1,0.9545454545454546
null,,confidence_buffer,593023,confidence_buffer,,null,,,,,,,,
null,,thebreak,593539,break,,null,,,,,,,,
2941,,realistic_rating,596482,Abilene,,53,Abilene,US,5,,,,,
null,,confidence_buffer,596595,confidence_buffer,,null,,,,,,,,
2396,,pt2_unique_rating,598993,Abilene,,51,,,3,,,,,
null,,confidence_buffer,599098,confidence_buffer,,null,,,,,,,,
1574,,pt2_memorable_rating,600673,Abilene,,51,,,3,,,,,
null,,confidence_buffer,600783,confidence_buffer,,null,,,,,,,,
1840,,recognition_phase,602626,Abilene,,49,,,,,,old,1,0.9565217391304348
null,,confidence_buffer,602733,confidence_buffer,,null,,,,,,,,
null,,thebreak,603249,break,,null,,,,,,,,
2447,,realistic_rating,605697,West Palm Beach,,53,West Palm Beach,US,5,,,,,
null,,confidence_buffer,605805,confidence_buffer,,null,,,,,,,,
4611,,pt2_unique_rating,610418,West Palm Beach,,53,,,5,,,,,
null,,confidence_buffer,610525,confidence_buffer,,null,,,,,,,,
1250,,pt2_memorable_rating,611777,West Palm Beach,,53,,,5,,,,,
null,,confidence_buffer,611881,confidence_buffer,,null,,,,,,,,
1816,,recognition_phase,613697,West Palm Beach,,49,,,,,,old,1,0.9583333333333334
null,,confidence_buffer,613812,confidence_buffer,,null,,,,,,,,
null,,thebreak,614313,break,,null,,,,,,,,
4582,,realistic_rating,618897,North Arroya,,50,North Arroya,Fictional,2,,,,,
null,,confidence_buffer,619002,confidence_buffer,,null,,,,,,,,
2134,,pt2_unique_rating,621138,North Arroya,,51,,,3,,,,,
null,,confidence_buffer,621251,confidence_buffer,,null,,,,,,,,
3261,,pt2_memorable_rating,624513,North Arroya,,50,,,2,,,,,
null,,confidence_buffer,624623,confidence_buffer,,null,,,,,,,,
1857,,recognition_phase,626481,North Arroya,,52,,,,,,new,1,0.96
null,,confidence_buffer,626595,confidence_buffer,,null,,,,,,,,
null,,thebreak,627111,break,,null,,,,,,,,
2744,,realistic_rating,629855,Bisbee,,53,Bisbee,US,5,,,,,
null,,confidence_buffer,629960,confidence_buffer,,null,,,,,,,,
3334,,pt2_unique_rating,633295,Bisbee,,51,,,3,,,,,
null,,confidence_buffer,633402,confidence_buffer,,null,,,,,,,,
1830,,probe_rating,635233,probe_rating,,52,,,,4,1,,,
null,,confidence_buffer,635349,confidence_buffer,,null,,,,,,,,
3292,,pt2_memorable_rating,638642,Bisbee,,51,,,3,,,,,
null,,confidence_buffer,638753,confidence_buffer,,null,,,,,,,,
2495,,recognition_phase,641249,Bisbee,,52,,,,,,new,1,0.9615384615384616
null,,confidence_buffer,641355,confidence_buffer,,null,,,,,,,,
null,,thebreak,641871,break,,null,,,,,,,,
2721,,realistic_rating,644593,Hot Springs,,53,Hot Springs,US,5,,,,,
null,,confidence_buffer,644713,confidence_buffer,,null,,,,,,,,
2760,,pt2_unique_rating,647473,Hot Springs,,51,,,3,,,,,
null,,confidence_buffer,647578,confidence_buffer,,null,,,,,,,,
1366,,pt2_memorable_rating,648945,Hot Springs,,51,,,3,,,,,
null,,confidence_buffer,649048,confidence_buffer,,null,,,,,,,,
1944,,recognition_phase,650994,Hot Springs,,49,,,,,,old,1,0.9629629629629629
null,,confidence_buffer,651097,confidence_buffer,,null,,,,,,,,
null,,thebreak,651620,break,,null,,,,,,,,
2765,,realistic_rating,654386,Lake of the Ozarks,,53,Lake of the Ozarks,US,5,,,,,
null,,confidence_buffer,654489,confidence_buffer,,null,,,,,,,,
1337,,pt2_unique_rating,655828,Lake of the Ozarks,,53,,,5,,,,,
null,,confidence_buffer,655944,confidence_buffer,,null,,,,,,,,
984,,pt2_memorable_rating,656930,Lake of the Ozarks,,53,,,5,,,,,
null,,confidence_buffer,657046,confidence_buffer,,null,,,,,,,,
1594,,recognition_phase,658641,Lake of the Ozarks,,52,,,,,,new,1,0.9642857142857143
null,,confidence_buffer,658746,confidence_buffer,,null,,,,,,,,
null,,thebreak,659262,break,,null,,,,,,,,
3379,,realistic_rating,662641,Falconridge,,49,Falconridge,Fictional,1,,,,,
null,,confidence_buffer,662749,confidence_buffer,,null,,,,,,,,
1587,,pt2_unique_rating,664337,Falconridge,,49,,,1,,,,,
null,,confidence_buffer,664451,confidence_buffer,,null,,,,,,,,
1677,,pt2_memorable_rating,666129,Falconridge,,50,,,2,,,,,
null,,confidence_buffer,666231,confidence_buffer,,null,,,,,,,,
1929,,recognition_phase,668161,Falconridge,,52,,,,,,new,1,0.9655172413793104
null,,confidence_buffer,668270,confidence_buffer,,null,,,,,,,,
null,,thebreak,668787,break,,null,,,,,,,,
3852,,realistic_rating,672639,Livingston,,53,Livingston,US,5,,,,,
null,,confidence_buffer,672746,confidence_buffer,,null,,,,,,,,
2231,,pt2_unique_rating,674978,Livingston,,51,,,3,,,,,
null,,confidence_buffer,675081,confidence_buffer,,null,,,,,,,,
1318,,pt2_memorable_rating,676401,Livingston,,51,,,3,,,,,
null,,confidence_buffer,676514,confidence_buffer,,null,,,,,,,,
1662,,recognition_phase,678177,Livingston,,52,,,,,,new,1,0.9666666666666667
null,,confidence_buffer,678291,confidence_buffer,,null,,,,,,,,
null,,thebreak,678804,break,,null,,,,,,,,
2348,,realistic_rating,681153,Bar Harbor,,53,Bar Harbor,US,5,,,,,
null,,confidence_buffer,681262,confidence_buffer,,null,,,,,,,,
2099,,pt2_unique_rating,683361,Bar Harbor,,52,,,4,,,,,
null,,confidence_buffer,683464,confidence_buffer,,null,,,,,,,,
1289,,pt2_memorable_rating,684754,Bar Harbor,,52,,,4,,,,,
null,,confidence_buffer,684861,confidence_buffer,,null,,,,,,,,
1684,,recognition_phase,686545,Bar Harbor,,49,,,,,,old,1,0.967741935483871
null,,confidence_buffer,686659,confidence_buffer,,null,,,,,,,,
null,,thebreak,687172,break,,null,,,,,,,,
2955,,realistic_rating,690129,Lakehaven,,49,Lakehaven,Fictional,1,,,,,
null,,confidence_buffer,690242,confidence_buffer,,null,,,,,,,,
1261,,pt2_unique_rating,691504,Lakehaven,,50,,,2,,,,,
null,,confidence_buffer,691610,confidence_buffer,,null,,,,,,,,
1285,,pt2_memorable_rating,692896,Lakehaven,,50,,,2,,,,,
null,,confidence_buffer,693002,confidence_buffer,,null,,,,,,,,
1366,,recognition_phase,694370,Lakehaven,,49,,,,,,old,1,0.96875
null,,confidence_buffer,694477,confidence_buffer,,null,,,,,,,,
null,,thebreak,694980,break,,null,,,,,,,,
2155,,realistic_rating,697137,Driftwood Bay,,49,Driftwood Bay,Fictional,1,,,,,
null,,confidence_buffer,697249,confidence_buffer,,null,,,,,,,,
2447,,pt2_unique_rating,699697,Driftwood Bay,,51,,,3,,,,,
null,,confidence_buffer,699807,confidence_buffer,,null,,,,,,,,
1760,,pt2_memorable_rating,701570,Driftwood Bay,,51,,,3,,,,,
null,,confidence_buffer,701685,confidence_buffer,,null,,,,,,,,
1723,,recognition_phase,703408,Driftwood Bay,,52,,,,,,new,0,0.9393939393939394
null,,confidence_buffer,703522,confidence_buffer,,null,,,,,,,,
null,,thebreak,704038,break,,null,,,,,,,,
2089,,realistic_rating,706128,Riverlyn,,49,Riverlyn,Fictional,1,,,,,
null,,confidence_buffer,706240,confidence_buffer,,null,,,,,,,,
3504,,pt2_unique_rating,709744,Riverlyn,,52,,,4,,,,,
null,,confidence_buffer,709860,confidence_buffer,,null,,,,,,,,
1147,,pt2_memorable_rating,711009,Riverlyn,,52,,,4,,,,,
null,,confidence_buffer,711114,confidence_buffer,,null,,,,,,,,
2181,,recognition_phase,713296,Riverlyn,,52,,,,,,new,1,0.9411764705882353
null,,confidence_buffer,713401,confidence_buffer,,null,,,,,,,,
null,,thebreak,713917,break,,null,,,,,,,,
2627,,realistic_rating,716545,Claywater,,49,Claywater,Fictional,1,,,,,
null,,confidence_buffer,716651,confidence_buffer,,null,,,,,,,,
1285,,pt2_unique_rating,717938,Claywater,,50,,,2,,,,,
null,,confidence_buffer,718053,confidence_buffer,,null,,,,,,,,
1146,,pt2_memorable_rating,719200,Claywater,,50,,,2,,,,,
null,,confidence_buffer,719306,confidence_buffer,,null,,,,,,,,
1654,,recognition_phase,720960,Claywater,,49,,,,,,old,1,0.9428571428571428
null,,confidence_buffer,721071,confidence_buffer,,null,,,,,,,,
null,,thebreak,721586,break,,null,,,,,,,,
1630,,realistic_rating,723217,Healdsburg,,49,Healdsburg,US,1,,,,,
null,,confidence_buffer,723326,confidence_buffer,,null,,,,,,,,
2323,,pt2_unique_rating,725650,Healdsburg,,50,,,2,,,,,
null,,confidence_buffer,725758,confidence_buffer,,null,,,,,,,,
1074,,pt2_memorable_rating,726833,Healdsburg,,50,,,2,,,,,
null,,confidence_buffer,726945,confidence_buffer,,null,,,,,,,,
975,,recognition_phase,727921,Healdsburg,,49,,,,,,old,1,0.9444444444444444
null,,confidence_buffer,728031,confidence_buffer,,null,,,,,,,,
null,,thebreak,728547,break,,null,,,,,,,,
3116,,realistic_rating,731665,Park City,,50,Park City,US,2,,,,,
null,,confidence_buffer,731782,confidence_buffer,,null,,,,,,,,
2073,,pt2_unique_rating,733857,Park City,,50,,,2,,,,,
null,,confidence_buffer,733968,confidence_buffer,,null,,,,,,,,
1024,,pt2_memorable_rating,734993,Park City,,50,,,2,,,,,
null,,confidence_buffer,735101,confidence_buffer,,null,,,,,,,,
2339,,recognition_phase,737442,Park City,,52,,,,,,new,1,0.9459459459459459
null,,confidence_buffer,737556,confidence_buffer,,null,,,,,,,,
null,,thebreak,738071,break,,null,,,,,,,,
2505,,realistic_rating,740577,Montelake,,49,Montelake,Fictional,1,,,,,
null,,confidence_buffer,740687,confidence_buffer,,null,,,,,,,,
3875,,pt2_unique_rating,744562,Montelake,,51,,,3,,,,,
null,,confidence_buffer,744675,confidence_buffer,,null,,,,,,,,
1964,,probe_rating,746641,probe_rating,,53,,,,5,1,,,
null,,confidence_buffer,746747,confidence_buffer,,null,,,,,,,,
2133,,pt2_memorable_rating,748880,Montelake,,51,,,3,,,,,
null,,confidence_buffer,748995,confidence_buffer,,null,,,,,,,,
1611,,recognition_phase,750609,Montelake,,52,,,,,,new,1,0.9473684210526315
null,,confidence_buffer,750712,confidence_buffer,,null,,,,,,,,
null,,thebreak,751235,break,,null,,,,,,,,
2525,,realistic_rating,753762,East Ladera,,49,East Ladera,Fictional,1,,,,,
null,,confidence_buffer,753869,confidence_buffer,,null,,,,,,,,
1988,,pt2_unique_rating,755858,East Ladera,,50,,,2,,,,,
null,,confidence_buffer,755970,confidence_buffer,,null,,,,,,,,
1037,,pt2_memorable_rating,757009,East Ladera,,50,,,2,,,,,
null,,confidence_buffer,757119,confidence_buffer,,null,,,,,,,,
1634,,recognition_phase,758754,East Ladera,,52,,,,,,new,1,0.9487179487179487
null,,confidence_buffer,758858,confidence_buffer,,null,,,,,,,,
null,,thebreak,759374,break,,null,,,,,,,,
3490,,realistic_rating,762865,Delaro Park,,49,Delaro Park,Fictional,1,,,,,
null,,confidence_buffer,762978,confidence_buffer,,null,,,,,,,,
3790,,pt2_unique_rating,766769,Delaro Park,,50,,,2,,,,,
null,,confidence_buffer,766881,confidence_buffer,,null,,,,,,,,
1567,,pt2_memorable_rating,768449,Delaro Park,,50,,,2,,,,,
null,,confidence_buffer,768552,confidence_buffer,,null,,,,,,,,
2151,,recognition_phase,770704,Delaro Park,,51,,,,,,new,0,0.925
null,,confidence_buffer,770817,confidence_buffer,,null,,,,,,,,
null,,thebreak,771333,break,,null,,,,,,,,
2843,,realistic_rating,774178,Granton Ridge,,49,Granton Ridge,Fictional,1,,,,,
null,,confidence_buffer,774289,confidence_buffer,,null,,,,,,,,
1246,,pt2_unique_rating,775537,Granton Ridge,,50,,,2,,,,,
null,,confidence_buffer,775660,confidence_buffer,,null,,,,,,,,
850,,pt2_memorable_rating,776513,Granton Ridge,,50,,,2,,,,,
null,,confidence_buffer,776623,confidence_buffer,,null,,,,,,,,
2225,,recognition_phase,778849,Granton Ridge,,52,,,,,,new,1,0.926829268292683
null,,confidence_buffer,778963,confidence_buffer,,null,,,,,,,,
null,,thebreak,779478,break,,null,,,,,,,,
4649,,realistic_rating,784129,Gardnerville,,52,Gardnerville,US,4,,,,,
null,,confidence_buffer,784229,confidence_buffer,,null,,,,,,,,
3497,,pt2_unique_rating,787728,Gardnerville,,50,,,2,,,,,
null,,confidence_buffer,787833,confidence_buffer,,null,,,,,,,,
2439,,pt2_memorable_rating,790273,Gardnerville,,51,,,3,,,,,
null,,confidence_buffer,790390,confidence_buffer,,null,,,,,,,,
1706,,recognition_phase,792097,Gardnerville,,49,,,,,,old,1,0.9285714285714286
null,,confidence_buffer,792207,confidence_buffer,,null,,,,,,,,
null,,thebreak,792723,break,,null,,,,,,,,
3405,,realistic_rating,796129,Sitka,,52,Sitka,US,4,,,,,
null,,confidence_buffer,796242,confidence_buffer,,null,,,,,,,,
2526,,pt2_unique_rating,798769,Sitka,,51,,,3,,,,,
null,,confidence_buffer,798883,confidence_buffer,,null,,,,,,,,
1453,,pt2_memorable_rating,800337,Sitka,,51,,,3,,,,,
null,,confidence_buffer,800446,confidence_buffer,,null,,,,,,,,
2210,,probe_rating,802657,probe_rating,,51,,,,3,1,,,
null,,confidence_buffer,802765,confidence_buffer,,null,,,,,,,,
2436,,recognition_phase,805201,Sitka,,49,,,,,,old,1,0.9302325581395349
null,,confidence_buffer,805304,confidence_buffer,,null,,,,,,,,
null,,thebreak,805821,break,,null,,,,,,,,
2260,,realistic_rating,808081,San Antonio,,53,San Antonio,US,5,,,,,
null,,confidence_buffer,808192,confidence_buffer,,null,,,,,,,,
1808,,pt2_unique_rating,810001,San Antonio,,52,,,4,,,,,
null,,confidence_buffer,810109,confidence_buffer,,null,,,,,,,,
1283,,pt2_memorable_rating,811393,San Antonio,,52,,,4,,,,,
null,,confidence_buffer,811495,confidence_buffer,,null,,,,,,,,
2073,,recognition_phase,813569,San Antonio,,52,,,,,,new,1,0.9318181818181818
null,,confidence_buffer,813675,confidence_buffer,,null,,,,,,,,
null,,thebreak,814197,break,,null,,,,,,,,
2714,,realistic_rating,816914,Barnard,,52,Barnard,US,4,,,,,
null,,confidence_buffer,817016,confidence_buffer,,null,,,,,,,,
1383,,pt2_unique_rating,818401,Barnard,,51,,,3,,,,,
null,,confidence_buffer,818518,confidence_buffer,,null,,,,,,,,
1195,,pt2_memorable_rating,819713,Barnard,,51,,,3,,,,,
null,,confidence_buffer,819818,confidence_buffer,,null,,,,,,,,
2822,,recognition_phase,822642,Barnard,,49,,,,,,old,1,0.9333333333333333
null,,confidence_buffer,822753,confidence_buffer,,null,,,,,,,,
null,,thebreak,823269,break,,null,,,,,,,,
2875,,realistic_rating,826146,Cape May,,50,Cape May,US,2,,,,,
null,,confidence_buffer,826257,confidence_buffer,,null,,,,,,,,
1473,,pt2_unique_rating,827730,Cape May,,50,,,2,,,,,
null,,confidence_buffer,827842,confidence_buffer,,null,,,,,,,,
1214,,pt2_memorable_rating,829057,Cape May,,50,,,2,,,,,
null,,confidence_buffer,829160,confidence_buffer,,null,,,,,,,,
1784,,recognition_phase,830945,Cape May,,52,,,,,,new,1,0.9347826086956522
null,,confidence_buffer,831062,confidence_buffer,,null,,,,,,,,
null,,thebreak,831577,break,,null,,,,,,,,
2966,,realistic_rating,834544,Elmsbury,,49,Elmsbury,Fictional,1,,,,,
null,,confidence_buffer,834649,confidence_buffer,,null,,,,,,,,
1974,,pt2_unique_rating,836625,Elmsbury,,50,,,2,,,,,
null,,confidence_buffer,836736,confidence_buffer,,null,,,,,,,,
801,,pt2_memorable_rating,837537,Elmsbury,,50,,,2,,,,,
null,,confidence_buffer,837652,confidence_buffer,,null,,,,,,,,
2123,,recognition_phase,839776,Elmsbury,,52,,,,,,new,1,0.9361702127659575
null,,confidence_buffer,839886,confidence_buffer,,null,,,,,,,,
null,,thebreak,840402,break,,null,,,,,,,,
2271,,realistic_rating,842673,Rosehollow,,49,Rosehollow,Fictional,1,,,,,
null,,confidence_buffer,842789,confidence_buffer,,null,,,,,,,,
3580,,pt2_unique_rating,846369,Rosehollow,,51,,,3,,,,,
null,,confidence_buffer,846476,confidence_buffer,,null,,,,,,,,
1171,,pt2_memorable_rating,847650,Rosehollow,,51,,,3,,,,,
null,,confidence_buffer,847762,confidence_buffer,,null,,,,,,,,
1933,,recognition_phase,849698,Rosehollow,,52,,,,,,new,1,0.9375
null,,confidence_buffer,849811,confidence_buffer,,null,,,,,,,,
null,,thebreak,850335,break,,null,,,,,,,,
2977,,realistic_rating,853313,Hilo,,51,Hilo,US,3,,,,,
null,,confidence_buffer,853414,confidence_buffer,,null,,,,,,,,
3224,,pt2_unique_rating,856640,Hilo,,52,,,4,,,,,
null,,confidence_buffer,856741,confidence_buffer,,null,,,,,,,,
1467,,pt2_memorable_rating,858209,Hilo,,52,,,4,,,,,
null,,confidence_buffer,858321,confidence_buffer,,null,,,,,,,,
1789,,recognition_phase,860113,Hilo,,52,,,,,,new,1,0.9387755102040817
null,,confidence_buffer,860223,confidence_buffer,,null,,,,,,,,
null,,thebreak,860745,break,,null,,,,,,,,
3015,,realistic_rating,863761,Linden Trace,,49,Linden Trace,Fictional,1,,,,,
null,,confidence_buffer,863863,confidence_buffer,,null,,,,,,,,
3208,,pt2_unique_rating,867071,Linden Trace,,50,,,2,,,,,
null,,confidence_buffer,867181,confidence_buffer,,null,,,,,,,,
865,,pt2_memorable_rating,868048,Linden Trace,,50,,,2,,,,,
null,,confidence_buffer,868152,confidence_buffer,,null,,,,,,,,
2024,,recognition_phase,870176,Linden Trace,,49,,,,,,old,1,0.94
null,,confidence_buffer,870289,confidence_buffer,,null,,,,,,,,
null,,thebreak,870803,break,,null,,,,,,,,
2811,,realistic_rating,873617,Hanover,,53,Hanover,US,5,,,,,
null,,confidence_buffer,873722,confidence_buffer,,null,,,,,,,,
1525,,pt2_unique_rating,875248,Hanover,,52,,,4,,,,,
null,,confidence_buffer,875361,confidence_buffer,,null,,,,,,,,
1775,,probe_rating,877137,probe_rating,,49,,,,1,1,,,
null,,confidence_buffer,877241,confidence_buffer,,null,,,,,,,,
2071,,pt2_memorable_rating,879313,Hanover,,52,,,4,,,,,
null,,confidence_buffer,879428,confidence_buffer,,null,,,,,,,,
3674,,recognition_phase,883104,Hanover,,52,,,,,,new,1,0.9411764705882353
null,,confidence_buffer,883217,confidence_buffer,,null,,,,,,,,
null,,thebreak,883733,break,,null,,,,,,,,
3867,,realistic_rating,887601,Orchard Bend,,50,Orchard Bend,Fictional,2,,,,,
null,,confidence_buffer,887707,confidence_buffer,,null,,,,,,,,
1747,,pt2_unique_rating,889456,Orchard Bend,,50,,,2,,,,,
null,,confidence_buffer,889558,confidence_buffer,,null,,,,,,,,
1017,,pt2_memorable_rating,890577,Orchard Bend,,50,,,2,,,,,
null,,confidence_buffer,890682,confidence_buffer,,null,,,,,,,,
2070,,recognition_phase,892753,Orchard Bend,,52,,,,,,new,1,0.9423076923076923
null,,confidence_buffer,892863,confidence_buffer,,null,,,,,,,,
null,,thebreak,893386,break,,null,,,,,,,,
3013,,realistic_rating,896401,Maravilla Springs,,50,Maravilla Springs,Fictional,2,,,,,
null,,confidence_buffer,896505,confidence_buffer,,null,,,,,,,,
2261,,pt2_unique_rating,898768,Maravilla Springs,,51,,,3,,,,,
null,,confidence_buffer,898870,confidence_buffer,,null,,,,,,,,
1194,,pt2_memorable_rating,900065,Maravilla Springs,,51,,,3,,,,,
null,,confidence_buffer,900172,confidence_buffer,,null,,,,,,,,
3475,,recognition_phase,903649,Maravilla Springs,,52,,,,,,new,0,0.9245283018867925
null,,confidence_buffer,903758,confidence_buffer,,null,,,,,,,,
null,,thebreak,904275,break,,null,,,,,,,,
4300,,realistic_rating,908577,Hawthorne Bluffs,,49,Hawthorne Bluffs,Fictional,1,,,,,
null,,confidence_buffer,908678,confidence_buffer,,null,,,,,,,,
1897,,pt2_unique_rating,910577,Hawthorne Bluffs,,50,,,2,,,,,
null,,confidence_buffer,910681,confidence_buffer,,null,,,,,,,,
1143,,pt2_memorable_rating,911824,Hawthorne Bluffs,,50,,,2,,,,,
null,,confidence_buffer,911935,confidence_buffer,,null,,,,,,,,
4048,,recognition_phase,915985,Hawthorne Bluffs,,50,,,,,,old,1,0.9259259259259259
null,,confidence_buffer,916107,confidence_buffer,,null,,,,,,,,
null,,thebreak,916624,break,,null,,,,,,,,
6016,,realistic_rating,922642,Gatlinburg,,51,Gatlinburg,US,3,,,,,
null,,confidence_buffer,922748,confidence_buffer,,null,,,,,,,,
1332,,pt2_unique_rating,924081,Gatlinburg,,51,,,3,,,,,
null,,confidence_buffer,924196,confidence_buffer,,null,,,,,,,,
1308,,pt2_memorable_rating,925504,Gatlinburg,,51,,,3,,,,,
null,,confidence_buffer,925620,confidence_buffer,,null,,,,,,,,
4219,,recognition_phase,929841,Gatlinburg,,52,,,,,,new,1,0.9272727272727272
null,,confidence_buffer,929955,confidence_buffer,,null,,,,,,,,
null,,thebreak,930456,break,,null,,,,,,,,
6855,,realistic_rating,937312,Yukon,,51,Yukon,US,3,,,,,
null,,confidence_buffer,937430,confidence_buffer,,null,,,,,,,,
2570,,pt2_unique_rating,940000,Yukon,,52,,,4,,,,,
null,,confidence_buffer,940110,confidence_buffer,,null,,,,,,,,
2465,,pt2_memorable_rating,942577,Yukon,,51,,,3,,,,,
null,,confidence_buffer,942681,confidence_buffer,,null,,,,,,,,
2615,,recognition_phase,945298,Yukon,,52,,,,,,new,1,0.9285714285714286
null,,confidence_buffer,945414,confidence_buffer,,null,,,,,,,,
null,,thebreak,945937,break,,null,,,,,,,,
2046,,realistic_rating,947985,Summershade,,49,Summershade,Fictional,1,,,,,
null,,confidence_buffer,948087,confidence_buffer,,null,,,,,,,,
2730,,pt2_unique_rating,950818,Summershade,,52,,,4,,,,,
null,,confidence_buffer,950920,confidence_buffer,,null,,,,,,,,
887,,pt2_memorable_rating,951808,Summershade,,52,,,4,,,,,
null,,confidence_buffer,951922,confidence_buffer,,null,,,,,,,,
1710,,recognition_phase,953632,Summershade,,52,,,,,,new,1,0.9298245614035088
null,,confidence_buffer,953744,confidence_buffer,,null,,,,,,,,
null,,thebreak,954261,break,,null,,,,,,,,
2203,,realistic_rating,956465,Custer,,49,Custer,US,1,,,,,
null,,confidence_buffer,956579,confidence_buffer,,null,,,,,,,,
2093,,pt2_unique_rating,958672,Custer,,52,,,4,,,,,
null,,confidence_buffer,958780,confidence_buffer,,null,,,,,,,,
1106,,pt2_memorable_rating,959888,Custer,,52,,,4,,,,,
null,,confidence_buffer,959998,confidence_buffer,,null,,,,,,,,
1457,,recognition_phase,961457,Custer,,52,,,,,,new,1,0.9310344827586207
null,,confidence_buffer,961570,confidence_buffer,,null,,,,,,,,
null,,thebreak,962086,break,,null,,,,,,,,
2536,,realistic_rating,964624,Crestwood,,51,Crestwood,Fictional,3,,,,,
null,,confidence_buffer,964735,confidence_buffer,,null,,,,,,,,
1903,,pt2_unique_rating,966641,Crestwood,,50,,,2,,,,,
null,,confidence_buffer,966759,confidence_buffer,,null,,,,,,,,
1098,,pt2_memorable_rating,967857,Crestwood,,50,,,2,,,,,
null,,confidence_buffer,967960,confidence_buffer,,null,,,,,,,,
1480,,recognition_phase,969441,Crestwood,,50,,,,,,old,1,0.9322033898305084
null,,confidence_buffer,969561,confidence_buffer,,null,,,,,,,,
null,,thebreak,970077,break,,null,,,,,,,,
2466,,realistic_rating,972545,Coralridge,,49,Coralridge,Fictional,1,,,,,
null,,confidence_buffer,972664,confidence_buffer,,null,,,,,,,,
2312,,pt2_unique_rating,974976,Coralridge,,50,,,2,,,,,
null,,confidence_buffer,975081,confidence_buffer,,null,,,,,,,,
949,,pt2_memorable_rating,976033,Coralridge,,50,,,2,,,,,
null,,confidence_buffer,976145,confidence_buffer,,null,,,,,,,,
1838,,probe_rating,977984,probe_rating,,50,,,,2,1,,,
null,,confidence_buffer,978101,confidence_buffer,,null,,,,,,,,
2412,,recognition_phase,980514,Coralridge,,49,,,,,,old,1,0.9333333333333333
null,,confidence_buffer,980618,confidence_buffer,,null,,,,,,,,
null,,thebreak,981119,break,,null,,,,,,,,
