rt,responses,trial_type,time_elapsed,stimulus,button_pressed,key_press,name_trial,rating,probe,probe_accuracy,response,correct,accuracy,problems,smooth,distraction,strategies,familiar,memorable,unique,realistic,similar,comments
3551,{worker_id:67dd40b531ab9c33ff61e98e},id_enter,3554,,,,,,,,,,,,,,,,,,,,
509866,,fullscreen,513426,fullscreen,0,,,,,,,,,,,,,,,,,,
11100.699999988079,,intro_0,524534,instruct,,32,,,,,,,,,,,,,,,,,
9435.099999964237,,intro_1,533970,instruct,,32,,,,,,,,,,,,,,,,,
9354.800000011921,,intro_2,543327,instruct,,32,,,,,,,,,,,,,,,,,
null,,instruct_dir_4,544829,instruct,,null,,,,,,,,,,,,,,,,,
null,,thebreak,545331,break,,null,,,,,,,,,,,,,,,,,
7207.800000011921,,familiar_rating,552541,Salem,,50,Salem,2,,,,,,,,,,,,,,,
null,,confidence_buffer,552644,confidence_buffer,,null,,,,,,,,,,,,,,,,,
11550.099999964237,,unique_rating,564196,Salem,,52,,4,,,,,,,,,,,,,,,
null,,confidence_buffer,564298,confidence_buffer,,null,,,,,,,,,,,,,,,,,
3570.199999988079,,memorable_rating,567870,Salem,,51,,3,,,,,,,,,,,,,,,
null,,confidence_buffer,567973,confidence_buffer,,null,,,,,,,,,,,,,,,,,
null,,thebreak,568474,break,,null,,,,,,,,,,,,,,,,,
4019.900000035763,,familiar_rating,572496,Pueblo,,50,Pueblo,2,,,,,,,,,,,,,,,
null,,confidence_buffer,572597,confidence_buffer,,null,,,,,,,,,,,,,,,,,
2222.199999988079,,unique_rating,574821,Pueblo,,51,,3,,,,,,,,,,,,,,,
null,,confidence_buffer,574924,confidence_buffer,,null,,,,,,,,,,,,,,,,,
1968.5,,memorable_rating,576893,Pueblo,,51,,3,,,,,,,,,,,,,,,
null,,confidence_buffer,576996,confidence_buffer,,null,,,,,,,,,,,,,,,,,
null,,thebreak,577497,break,,null,,,,,,,,,,,,,,,,,
6948.399999976158,,familiar_rating,584448,Bellingham,,52,Bellingham,4,,,,,,,,,,,,,,,
null,,confidence_buffer,584552,confidence_buffer,,null,,,,,,,,,,,,,,,,,
2822.800000011921,,unique_rating,587376,Bellingham,,52,,4,,,,,,,,,,,,,,,
null,,confidence_buffer,587478,confidence_buffer,,null,,,,,,,,,,,,,,,,,
2451.699999988079,,memorable_rating,589932,Bellingham,,52,,4,,,,,,,,,,,,,,,
null,,confidence_buffer,590034,confidence_buffer,,null,,,,,,,,,,,,,,,,,
null,,thebreak,590536,break,,null,,,,,,,,,,,,,,,,,
4771.599999964237,,familiar_rating,595309,Rock Springs,,49,Rock Springs,1,,,,,,,,,,,,,,,
null,,confidence_buffer,595412,confidence_buffer,,null,,,,,,,,,,,,,,,,,
2647.899999976158,,unique_rating,598061,Rock Springs,,51,,3,,,,,,,,,,,,,,,
null,,confidence_buffer,598164,confidence_buffer,,null,,,,,,,,,,,,,,,,,
1642,,memorable_rating,599808,Rock Springs,,51,,3,,,,,,,,,,,,,,,
null,,confidence_buffer,599911,confidence_buffer,,null,,,,,,,,,,,,,,,,,
null,,thebreak,600413,break,,null,,,,,,,,,,,,,,,,,
4940.600000023842,,familiar_rating,605355,Topeka,,49,Topeka,1,,,,,,,,,,,,,,,
null,,confidence_buffer,605458,confidence_buffer,,null,,,,,,,,,,,,,,,,,
2395.800000011921,,unique_rating,607855,Topeka,,51,,3,,,,,,,,,,,,,,,
null,,confidence_buffer,607959,confidence_buffer,,null,,,,,,,,,,,,,,,,,
2392.5,,memorable_rating,610353,Topeka,,51,,3,,,,,,,,,,,,,,,
null,,confidence_buffer,610456,confidence_buffer,,null,,,,,,,,,,,,,,,,,
null,,thebreak,610958,break,,null,,,,,,,,,,,,,,,,,
3273.7999999523163,,familiar_rating,614234,Ann Arbor,,49,Ann Arbor,1,,,,,,,,,,,,,,,
null,,confidence_buffer,614337,confidence_buffer,,null,,,,,,,,,,,,,,,,,
1753.5999999642372,,unique_rating,616093,Ann Arbor,,50,,2,,,,,,,,,,,,,,,
null,,confidence_buffer,616195,confidence_buffer,,null,,,,,,,,,,,,,,,,,
1258.8999999761581,,memorable_rating,617456,Ann Arbor,,51,,3,,,,,,,,,,,,,,,
null,,confidence_buffer,617559,confidence_buffer,,null,,,,,,,,,,,,,,,,,
null,,thebreak,618061,break,,null,,,,,,,,,,,,,,,,,
3058.399999976158,,familiar_rating,621121,Fort Wayne,,51,Fort Wayne,3,,,,,,,,,,,,,,,
null,,confidence_buffer,621225,confidence_buffer,,null,,,,,,,,,,,,,,,,,
1915.9000000357628,,unique_rating,623143,Fort Wayne,,51,,3,,,,,,,,,,,,,,,
null,,confidence_buffer,623245,confidence_buffer,,null,,,,,,,,,,,,,,,,,
1452.6000000238419,,memorable_rating,624700,Fort Wayne,,50,,2,,,,,,,,,,,,,,,
null,,confidence_buffer,624802,confidence_buffer,,null,,,,,,,,,,,,,,,,,
null,,thebreak,625305,break,,null,,,,,,,,,,,,,,,,,
3454.099999964237,,familiar_rating,628761,Cheyenne,,49,Cheyenne,1,,,,,,,,,,,,,,,
null,,confidence_buffer,628864,confidence_buffer,,null,,,,,,,,,,,,,,,,,
1788.5,,unique_rating,630654,Cheyenne,,50,,2,,,,,,,,,,,,,,,
null,,confidence_buffer,630755,confidence_buffer,,null,,,,,,,,,,,,,,,,,
5071.600000023842,,probe_rating,635828,probe_rating,,51,,,3,1,,,,,,,,,,,,,
null,,confidence_buffer,635932,confidence_buffer,,null,,,,,,,,,,,,,,,,,
2721.600000023842,,memorable_rating,638655,Cheyenne,,52,,4,,,,,,,,,,,,,,,
null,,confidence_buffer,638757,confidence_buffer,,null,,,,,,,,,,,,,,,,,
null,,thebreak,639260,break,,null,,,,,,,,,,,,,,,,,
1636.8999999761581,,familiar_rating,640898,Olympia,,49,Olympia,1,,,,,,,,,,,,,,,
null,,confidence_buffer,641001,confidence_buffer,,null,,,,,,,,,,,,,,,,,
4141.5,,unique_rating,645145,Olympia,,50,,2,,,,,,,,,,,,,,,
null,,confidence_buffer,645247,confidence_buffer,,null,,,,,,,,,,,,,,,,,
1136.5,,memorable_rating,646384,Olympia,,52,,4,,,,,,,,,,,,,,,
null,,confidence_buffer,646487,confidence_buffer,,null,,,,,,,,,,,,,,,,,
null,,thebreak,646989,break,,null,,,,,,,,,,,,,,,,,
1881.2000000476837,,familiar_rating,648872,Decatur,,50,Decatur,2,,,,,,,,,,,,,,,
null,,confidence_buffer,648975,confidence_buffer,,null,,,,,,,,,,,,,,,,,
1146,,unique_rating,650123,Decatur,,52,,4,,,,,,,,,,,,,,,
null,,confidence_buffer,650227,confidence_buffer,,null,,,,,,,,,,,,,,,,,
1382,,memorable_rating,651611,Decatur,,52,,4,,,,,,,,,,,,,,,
null,,confidence_buffer,651714,confidence_buffer,,null,,,,,,,,,,,,,,,,,
null,,thebreak,652216,break,,null,,,,,,,,,,,,,,,,,
2154.199999988079,,familiar_rating,654372,Scottsdale,,50,Scottsdale,2,,,,,,,,,,,,,,,
null,,confidence_buffer,654475,confidence_buffer,,null,,,,,,,,,,,,,,,,,
1223.5999999642372,,unique_rating,655700,Scottsdale,,51,,3,,,,,,,,,,,,,,,
null,,confidence_buffer,655803,confidence_buffer,,null,,,,,,,,,,,,,,,,,
1037.699999988079,,memorable_rating,656843,Scottsdale,,51,,3,,,,,,,,,,,,,,,
null,,confidence_buffer,656945,confidence_buffer,,null,,,,,,,,,,,,,,,,,
null,,thebreak,657448,break,,null,,,,,,,,,,,,,,,,,
4978.900000035763,,familiar_rating,662429,Champaign,,52,Champaign,4,,,,,,,,,,,,,,,
null,,confidence_buffer,662531,confidence_buffer,,null,,,,,,,,,,,,,,,,,
1693.4000000357628,,unique_rating,664226,Champaign,,52,,4,,,,,,,,,,,,,,,
null,,confidence_buffer,664329,confidence_buffer,,null,,,,,,,,,,,,,,,,,
1370,,memorable_rating,665700,Champaign,,52,,4,,,,,,,,,,,,,,,
null,,confidence_buffer,665802,confidence_buffer,,null,,,,,,,,,,,,,,,,,
null,,thebreak,666304,break,,null,,,,,,,,,,,,,,,,,
2791.599999964237,,familiar_rating,669098,Athens,,53,Athens,5,,,,,,,,,,,,,,,
null,,confidence_buffer,669201,confidence_buffer,,null,,,,,,,,,,,,,,,,,
1575.300000011921,,unique_rating,670778,Athens,,53,,5,,,,,,,,,,,,,,,
null,,confidence_buffer,670882,confidence_buffer,,null,,,,,,,,,,,,,,,,,
1109.7000000476837,,memorable_rating,671993,Athens,,53,,5,,,,,,,,,,,,,,,
null,,confidence_buffer,672096,confidence_buffer,,null,,,,,,,,,,,,,,,,,
3467.399999976158,,probe_rating,675565,probe_rating,,53,,,5,1,,,,,,,,,,,,,
null,,confidence_buffer,675668,confidence_buffer,,null,,,,,,,,,,,,,,,,,
null,,thebreak,676171,break,,null,,,,,,,,,,,,,,,,,
3857.100000023842,,familiar_rating,680030,Youngstown,,50,Youngstown,2,,,,,,,,,,,,,,,
null,,confidence_buffer,680134,confidence_buffer,,null,,,,,,,,,,,,,,,,,
3253.899999976158,,probe_rating,683390,probe_rating,,52,,,4,1,,,,,,,,,,,,,
null,,confidence_buffer,683492,confidence_buffer,,null,,,,,,,,,,,,,,,,,
2280,,unique_rating,685774,Youngstown,,52,,4,,,,,,,,,,,,,,,
null,,confidence_buffer,685877,confidence_buffer,,null,,,,,,,,,,,,,,,,,
1764.199999988079,,memorable_rating,687642,Youngstown,,50,,2,,,,,,,,,,,,,,,
null,,confidence_buffer,687754,confidence_buffer,,null,,,,,,,,,,,,,,,,,
null,,thebreak,688256,break,,null,,,,,,,,,,,,,,,,,
2012.800000011921,,familiar_rating,690271,Bozeman,,50,Bozeman,2,,,,,,,,,,,,,,,
null,,confidence_buffer,690375,confidence_buffer,,null,,,,,,,,,,,,,,,,,
851.5999999642372,,unique_rating,691228,Bozeman,,52,,4,,,,,,,,,,,,,,,
null,,confidence_buffer,691330,confidence_buffer,,null,,,,,,,,,,,,,,,,,
1597.1000000238419,,memorable_rating,692929,Bozeman,,52,,4,,,,,,,,,,,,,,,
null,,confidence_buffer,693032,confidence_buffer,,null,,,,,,,,,,,,,,,,,
null,,thebreak,693535,break,,null,,,,,,,,,,,,,,,,,
3589.199999988079,,familiar_rating,697126,Altoona,,49,Altoona,1,,,,,,,,,,,,,,,
null,,confidence_buffer,697229,confidence_buffer,,null,,,,,,,,,,,,,,,,,
1895.9000000357628,,unique_rating,699126,Altoona,,51,,3,,,,,,,,,,,,,,,
null,,confidence_buffer,699229,confidence_buffer,,null,,,,,,,,,,,,,,,,,
1580,,memorable_rating,700811,Altoona,,51,,3,,,,,,,,,,,,,,,
null,,confidence_buffer,700914,confidence_buffer,,null,,,,,,,,,,,,,,,,,
null,,thebreak,701416,break,,null,,,,,,,,,,,,,,,,,
1772.800000011921,,familiar_rating,703191,Toledo,,49,Toledo,1,,,,,,,,,,,,,,,
null,,confidence_buffer,703295,confidence_buffer,,null,,,,,,,,,,,,,,,,,
1354.7999999523163,,unique_rating,704651,Toledo,,50,,2,,,,,,,,,,,,,,,
null,,confidence_buffer,704754,confidence_buffer,,null,,,,,,,,,,,,,,,,,
1098,,memorable_rating,705853,Toledo,,51,,3,,,,,,,,,,,,,,,
null,,confidence_buffer,705955,confidence_buffer,,null,,,,,,,,,,,,,,,,,
2525.400000035763,,probe_rating,708482,probe_rating,,50,,,2,1,,,,,,,,,,,,,
null,,confidence_buffer,708584,confidence_buffer,,null,,,,,,,,,,,,,,,,,
null,,thebreak,709088,break,,null,,,,,,,,,,,,,,,,,
1573.8999999761581,,familiar_rating,710664,Marquette,,51,Marquette,3,,,,,,,,,,,,,,,
null,,confidence_buffer,710766,confidence_buffer,,null,,,,,,,,,,,,,,,,,
902.4000000357628,,unique_rating,711670,Marquette,,50,,2,,,,,,,,,,,,,,,
null,,confidence_buffer,711785,confidence_buffer,,null,,,,,,,,,,,,,,,,,
722,,memorable_rating,712509,Marquette,,52,,4,,,,,,,,,,,,,,,
null,,confidence_buffer,712612,confidence_buffer,,null,,,,,,,,,,,,,,,,,
null,,thebreak,713114,break,,null,,,,,,,,,,,,,,,,,
4118.800000011921,,familiar_rating,717234,Peoria,,49,Peoria,1,,,,,,,,,,,,,,,
null,,confidence_buffer,717337,confidence_buffer,,null,,,,,,,,,,,,,,,,,
1811.7000000476837,,unique_rating,719150,Peoria,,51,,3,,,,,,,,,,,,,,,
null,,confidence_buffer,719253,confidence_buffer,,null,,,,,,,,,,,,,,,,,
1035.0999999642372,,memorable_rating,720290,Peoria,,52,,4,,,,,,,,,,,,,,,
null,,confidence_buffer,720393,confidence_buffer,,null,,,,,,,,,,,,,,,,,
null,,thebreak,720896,break,,null,,,,,,,,,,,,,,,,,
1882,,familiar_rating,722780,Newport News,,50,Newport News,2,,,,,,,,,,,,,,,
null,,confidence_buffer,722881,confidence_buffer,,null,,,,,,,,,,,,,,,,,
1730.7000000476837,,unique_rating,724613,Newport News,,51,,3,,,,,,,,,,,,,,,
null,,confidence_buffer,724716,confidence_buffer,,null,,,,,,,,,,,,,,,,,
926.1999999880791,,memorable_rating,725644,Newport News,,52,,4,,,,,,,,,,,,,,,
null,,confidence_buffer,725746,confidence_buffer,,null,,,,,,,,,,,,,,,,,
null,,thebreak,726248,break,,null,,,,,,,,,,,,,,,,,
2239.199999988079,,familiar_rating,728489,Annapolis,,49,Annapolis,1,,,,,,,,,,,,,,,
null,,confidence_buffer,728591,confidence_buffer,,null,,,,,,,,,,,,,,,,,
1598.1000000238419,,unique_rating,730190,Annapolis,,49,,1,,,,,,,,,,,,,,,
null,,confidence_buffer,730293,confidence_buffer,,null,,,,,,,,,,,,,,,,,
1157.699999988079,,memorable_rating,731452,Annapolis,,50,,2,,,,,,,,,,,,,,,
null,,confidence_buffer,731555,confidence_buffer,,null,,,,,,,,,,,,,,,,,
null,,thebreak,732057,break,,null,,,,,,,,,,,,,,,,,
3370.300000011921,,familiar_rating,735429,Palo Alto,,50,Palo Alto,2,,,,,,,,,,,,,,,
null,,confidence_buffer,735532,confidence_buffer,,null,,,,,,,,,,,,,,,,,
1110.800000011921,,unique_rating,736644,Palo Alto,,51,,3,,,,,,,,,,,,,,,
null,,confidence_buffer,736746,confidence_buffer,,null,,,,,,,,,,,,,,,,,
883.1000000238419,,memorable_rating,737631,Palo Alto,,51,,3,,,,,,,,,,,,,,,
null,,confidence_buffer,737737,confidence_buffer,,null,,,,,,,,,,,,,,,,,
null,,thebreak,738239,break,,null,,,,,,,,,,,,,,,,,
1392.8999999761581,,familiar_rating,739633,Dubuque,,52,Dubuque,4,,,,,,,,,,,,,,,
null,,confidence_buffer,739734,confidence_buffer,,null,,,,,,,,,,,,,,,,,
1197.5999999642372,,unique_rating,740934,Dubuque,,50,,2,,,,,,,,,,,,,,,
null,,confidence_buffer,741036,confidence_buffer,,null,,,,,,,,,,,,,,,,,
1107.800000011921,,memorable_rating,742146,Dubuque,,50,,2,,,,,,,,,,,,,,,
null,,confidence_buffer,742248,confidence_buffer,,null,,,,,,,,,,,,,,,,,
2654,,probe_rating,744904,probe_rating,,52,,,4,1,,,,,,,,,,,,,
null,,confidence_buffer,745006,confidence_buffer,,null,,,,,,,,,,,,,,,,,
null,,thebreak,745508,break,,null,,,,,,,,,,,,,,,,,
1008.2000000476837,,familiar_rating,746518,Frankfort,,52,Frankfort,4,,,,,,,,,,,,,,,
null,,confidence_buffer,746620,confidence_buffer,,null,,,,,,,,,,,,,,,,,
2919.600000023842,,unique_rating,749541,Frankfort,,52,,4,,,,,,,,,,,,,,,
null,,confidence_buffer,749644,confidence_buffer,,null,,,,,,,,,,,,,,,,,
600,,memorable_rating,750245,Frankfort,,52,,4,,,,,,,,,,,,,,,
null,,confidence_buffer,750348,confidence_buffer,,null,,,,,,,,,,,,,,,,,
null,,thebreak,750850,break,,null,,,,,,,,,,,,,,,,,
2770.099999964237,,familiar_rating,753621,Berkeley,,49,Berkeley,1,,,,,,,,,,,,,,,
null,,confidence_buffer,753723,confidence_buffer,,null,,,,,,,,,,,,,,,,,
1324.8999999761581,,unique_rating,755049,Berkeley,,50,,2,,,,,,,,,,,,,,,
null,,confidence_buffer,755152,confidence_buffer,,null,,,,,,,,,,,,,,,,,
1108.5,,memorable_rating,756262,Berkeley,,51,,3,,,,,,,,,,,,,,,
null,,confidence_buffer,756364,confidence_buffer,,null,,,,,,,,,,,,,,,,,
null,,thebreak,756866,break,,null,,,,,,,,,,,,,,,,,
7033,,intro_0,763900,instruct,,32,,,,,,,,,,,,,,,,,
10647.399999976158,,intro_1,774549,instruct,,32,,,,,,,,,,,,,,,,,
25076.19999998808,,intro_2,799627,instruct,,32,,,,,,,,,,,,,,,,,
null,,instruct_dir_4,801128,instruct,,null,,,,,,,,,,,,,,,,,
9550.800000011921,,realistic_rating,810681,Ann Arbor,,49,Ann Arbor,1,,,,,,,,,,,,,,,
null,,confidence_buffer,810785,confidence_buffer,,null,,,,,,,,,,,,,,,,,
5021.900000035763,,pt2_unique_rating,815808,Ann Arbor,,51,,3,,,,,,,,,,,,,,,
null,,confidence_buffer,815912,confidence_buffer,,null,,,,,,,,,,,,,,,,,
5387.800000011921,,pt2_memorable_rating,821301,Ann Arbor,,51,,3,,,,,,,,,,,,,,,
null,,confidence_buffer,821404,confidence_buffer,,null,,,,,,,,,,,,,,,,,
4388.400000035763,,recognition_phase,825795,Ann Arbor,,49,,,,,old,1,1,,,,,,,,,,
null,,confidence_buffer,825898,confidence_buffer,,null,,,,,,,,,,,,,,,,,
null,,thebreak,826400,break,,null,,,,,,,,,,,,,,,,,
5694.600000023842,,realistic_rating,832096,Newport News,,51,Newport News,3,,,,,,,,,,,,,,,
null,,confidence_buffer,832200,confidence_buffer,,null,,,,,,,,,,,,,,,,,
9364.900000035763,,probe_rating,841566,probe_rating,,53,,,5,1,,,,,,,,,,,,,
null,,confidence_buffer,841669,confidence_buffer,,null,,,,,,,,,,,,,,,,,
5495,,pt2_unique_rating,847165,Newport News,,50,,2,,,,,,,,,,,,,,,
null,,confidence_buffer,847268,confidence_buffer,,null,,,,,,,,,,,,,,,,,
1217.5,,pt2_memorable_rating,848487,Newport News,,51,,3,,,,,,,,,,,,,,,
null,,confidence_buffer,848590,confidence_buffer,,null,,,,,,,,,,,,,,,,,
3181.099999964237,,recognition_phase,851773,Newport News,,49,,,,,old,1,1,,,,,,,,,,
null,,confidence_buffer,851875,confidence_buffer,,null,,,,,,,,,,,,,,,,,
null,,thebreak,852377,break,,null,,,,,,,,,,,,,,,,,
3765.5,,realistic_rating,856144,Bozeman,,51,Bozeman,3,,,,,,,,,,,,,,,
null,,confidence_buffer,856247,confidence_buffer,,null,,,,,,,,,,,,,,,,,
1824.699999988079,,pt2_unique_rating,858074,Bozeman,,50,,2,,,,,,,,,,,,,,,
null,,confidence_buffer,858189,confidence_buffer,,null,,,,,,,,,,,,,,,,,
1360.5,,pt2_memorable_rating,859552,Bozeman,,50,,2,,,,,,,,,,,,,,,
null,,confidence_buffer,859654,confidence_buffer,,null,,,,,,,,,,,,,,,,,
10130.300000011921,,recognition_phase,869787,Bozeman,,52,,,,,new,0,0.6666666666666666,,,,,,,,,,
null,,confidence_buffer,869890,confidence_buffer,,null,,,,,,,,,,,,,,,,,
null,,thebreak,870393,break,,null,,,,,,,,,,,,,,,,,
2598.100000023842,,realistic_rating,872993,Cheyenne,,49,Cheyenne,1,,,,,,,,,,,,,,,
null,,confidence_buffer,873095,confidence_buffer,,null,,,,,,,,,,,,,,,,,
5056.899999976158,,probe_rating,878153,probe_rating,,53,,,5,1,,,,,,,,,,,,,
null,,confidence_buffer,878256,confidence_buffer,,null,,,,,,,,,,,,,,,,,
3218.800000011921,,pt2_unique_rating,881477,Cheyenne,,52,,4,,,,,,,,,,,,,,,
null,,confidence_buffer,881579,confidence_buffer,,null,,,,,,,,,,,,,,,,,
1373.7000000476837,,pt2_memorable_rating,882955,Cheyenne,,51,,3,,,,,,,,,,,,,,,
null,,confidence_buffer,883057,confidence_buffer,,null,,,,,,,,,,,,,,,,,
1441.5,,recognition_phase,884501,Cheyenne,,49,,,,,old,1,0.75,,,,,,,,,,
null,,confidence_buffer,884615,confidence_buffer,,null,,,,,,,,,,,,,,,,,
null,,thebreak,885118,break,,null,,,,,,,,,,,,,,,,,
1535.9000000357628,,realistic_rating,886655,Bellingham,,51,Bellingham,3,,,,,,,,,,,,,,,
null,,confidence_buffer,886757,confidence_buffer,,null,,,,,,,,,,,,,,,,,
1143.699999988079,,pt2_unique_rating,887903,Bellingham,,50,,2,,,,,,,,,,,,,,,
null,,confidence_buffer,888005,confidence_buffer,,null,,,,,,,,,,,,,,,,,
1080.699999988079,,pt2_memorable_rating,889087,Bellingham,,50,,2,,,,,,,,,,,,,,,
null,,confidence_buffer,889190,confidence_buffer,,null,,,,,,,,,,,,,,,,,
2642.100000023842,,recognition_phase,891834,Bellingham,,49,,,,,old,1,0.8,,,,,,,,,,
null,,confidence_buffer,891937,confidence_buffer,,null,,,,,,,,,,,,,,,,,
null,,thebreak,892439,break,,null,,,,,,,,,,,,,,,,,
841.6999999880791,,realistic_rating,893283,Stamford,,51,Stamford,3,,,,,,,,,,,,,,,
null,,confidence_buffer,893386,confidence_buffer,,null,,,,,,,,,,,,,,,,,
1213.199999988079,,pt2_unique_rating,894601,Stamford,,52,,4,,,,,,,,,,,,,,,
null,,confidence_buffer,894704,confidence_buffer,,null,,,,,,,,,,,,,,,,,
767.6000000238419,,pt2_memorable_rating,895473,Stamford,,50,,2,,,,,,,,,,,,,,,
null,,confidence_buffer,895576,confidence_buffer,,null,,,,,,,,,,,,,,,,,
7337.400000035763,,recognition_phase,902915,Stamford,,52,,,,,new,1,0.8333333333333334,,,,,,,,,,
null,,confidence_buffer,903018,confidence_buffer,,null,,,,,,,,,,,,,,,,,
null,,thebreak,903521,break,,null,,,,,,,,,,,,,,,,,
1808,,realistic_rating,905331,Athens,,50,Athens,2,,,,,,,,,,,,,,,
null,,confidence_buffer,905433,confidence_buffer,,null,,,,,,,,,,,,,,,,,
1563.300000011921,,pt2_unique_rating,906997,Athens,,51,,3,,,,,,,,,,,,,,,
null,,confidence_buffer,907101,confidence_buffer,,null,,,,,,,,,,,,,,,,,
1092.300000011921,,pt2_memorable_rating,908194,Athens,,51,,3,,,,,,,,,,,,,,,
null,,confidence_buffer,908298,confidence_buffer,,null,,,,,,,,,,,,,,,,,
1086.5,,recognition_phase,909386,Athens,,50,,,,,old,1,0.8571428571428571,,,,,,,,,,
null,,confidence_buffer,909489,confidence_buffer,,null,,,,,,,,,,,,,,,,,
null,,thebreak,909991,break,,null,,,,,,,,,,,,,,,,,
1878.300000011921,,realistic_rating,911871,Carson City,,49,Carson City,1,,,,,,,,,,,,,,,
null,,confidence_buffer,911977,confidence_buffer,,null,,,,,,,,,,,,,,,,,
1102.9000000357628,,pt2_unique_rating,913082,Carson City,,51,,3,,,,,,,,,,,,,,,
null,,confidence_buffer,913185,confidence_buffer,,null,,,,,,,,,,,,,,,,,
3339.7000000476837,,probe_rating,916527,probe_rating,,51,,,3,1,,,,,,,,,,,,,
null,,confidence_buffer,916630,confidence_buffer,,null,,,,,,,,,,,,,,,,,
1223.5,,pt2_memorable_rating,917855,Carson City,,52,,4,,,,,,,,,,,,,,,
null,,confidence_buffer,917958,confidence_buffer,,null,,,,,,,,,,,,,,,,,
1266.800000011921,,recognition_phase,919227,Carson City,,50,,,,,old,0,0.75,,,,,,,,,,
null,,confidence_buffer,919329,confidence_buffer,,null,,,,,,,,,,,,,,,,,
null,,thebreak,919831,break,,null,,,,,,,,,,,,,,,,,
1112.199999988079,,realistic_rating,920944,Frankfort,,53,Frankfort,5,,,,,,,,,,,,,,,
null,,confidence_buffer,921047,confidence_buffer,,null,,,,,,,,,,,,,,,,,
1032.9000000357628,,pt2_unique_rating,922082,Frankfort,,52,,4,,,,,,,,,,,,,,,
null,,confidence_buffer,922184,confidence_buffer,,null,,,,,,,,,,,,,,,,,
718.1000000238419,,pt2_memorable_rating,922904,Frankfort,,50,,2,,,,,,,,,,,,,,,
null,,confidence_buffer,923007,confidence_buffer,,null,,,,,,,,,,,,,,,,,
2809,,recognition_phase,925817,Frankfort,,49,,,,,old,1,0.7777777777777778,,,,,,,,,,
null,,confidence_buffer,925920,confidence_buffer,,null,,,,,,,,,,,,,,,,,
null,,thebreak,926421,break,,null,,,,,,,,,,,,,,,,,
1514.4000000357628,,realistic_rating,927938,Palo Alto,,49,Palo Alto,1,,,,,,,,,,,,,,,
null,,confidence_buffer,928041,confidence_buffer,,null,,,,,,,,,,,,,,,,,
1521.699999988079,,pt2_unique_rating,929564,Palo Alto,,52,,4,,,,,,,,,,,,,,,
null,,confidence_buffer,929667,confidence_buffer,,null,,,,,,,,,,,,,,,,,
813.3000000119209,,pt2_memorable_rating,930482,Palo Alto,,51,,3,,,,,,,,,,,,,,,
null,,confidence_buffer,930585,confidence_buffer,,null,,,,,,,,,,,,,,,,,
1088,,recognition_phase,931674,Palo Alto,,51,,,,,new,0,0.7,,,,,,,,,,
null,,confidence_buffer,931777,confidence_buffer,,null,,,,,,,,,,,,,,,,,
null,,thebreak,932280,break,,null,,,,,,,,,,,,,,,,,
3496.100000023842,,realistic_rating,935777,Tallahassee,,50,Tallahassee,2,,,,,,,,,,,,,,,
null,,confidence_buffer,935880,confidence_buffer,,null,,,,,,,,,,,,,,,,,
1463.0999999642372,,pt2_unique_rating,937345,Tallahassee,,50,,2,,,,,,,,,,,,,,,
null,,confidence_buffer,937448,confidence_buffer,,null,,,,,,,,,,,,,,,,,
742.8000000119209,,pt2_memorable_rating,938192,Tallahassee,,52,,4,,,,,,,,,,,,,,,
null,,confidence_buffer,938294,confidence_buffer,,null,,,,,,,,,,,,,,,,,
3259.600000023842,,recognition_phase,941555,Tallahassee,,52,,,,,new,1,0.7272727272727273,,,,,,,,,,
null,,confidence_buffer,941657,confidence_buffer,,null,,,,,,,,,,,,,,,,,
null,,thebreak,942159,break,,null,,,,,,,,,,,,,,,,,
1993.300000011921,,realistic_rating,944154,Boise,,52,Boise,4,,,,,,,,,,,,,,,
null,,confidence_buffer,944258,confidence_buffer,,null,,,,,,,,,,,,,,,,,
3196.7999999523163,,probe_rating,947457,probe_rating,,53,,,5,1,,,,,,,,,,,,,
null,,confidence_buffer,947559,confidence_buffer,,null,,,,,,,,,,,,,,,,,
946.4000000357628,,pt2_unique_rating,948506,Boise,,52,,4,,,,,,,,,,,,,,,
null,,confidence_buffer,948609,confidence_buffer,,null,,,,,,,,,,,,,,,,,
1087.8999999761581,,pt2_memorable_rating,949699,Boise,,51,,3,,,,,,,,,,,,,,,
null,,confidence_buffer,949801,confidence_buffer,,null,,,,,,,,,,,,,,,,,
894.9000000357628,,recognition_phase,950698,Boise,,50,,,,,old,0,0.6666666666666666,,,,,,,,,,
null,,confidence_buffer,950801,confidence_buffer,,null,,,,,,,,,,,,,,,,,
null,,thebreak,951304,break,,null,,,,,,,,,,,,,,,,,
2909.300000011921,,realistic_rating,954215,Altoona,,52,Altoona,4,,,,,,,,,,,,,,,
null,,confidence_buffer,954318,confidence_buffer,,null,,,,,,,,,,,,,,,,,
1256.800000011921,,pt2_unique_rating,955576,Altoona,,51,,3,,,,,,,,,,,,,,,
null,,confidence_buffer,955679,confidence_buffer,,null,,,,,,,,,,,,,,,,,
2876.599999964237,,probe_rating,958557,probe_rating,,49,,,1,1,,,,,,,,,,,,,
null,,confidence_buffer,958661,confidence_buffer,,null,,,,,,,,,,,,,,,,,
2437.199999988079,,pt2_memorable_rating,961099,Altoona,,51,,3,,,,,,,,,,,,,,,
null,,confidence_buffer,961201,confidence_buffer,,null,,,,,,,,,,,,,,,,,
830.1000000238419,,recognition_phase,962032,Altoona,,52,,,,,new,0,0.6153846153846154,,,,,,,,,,
null,,confidence_buffer,962134,confidence_buffer,,null,,,,,,,,,,,,,,,,,
null,,thebreak,962636,break,,null,,,,,,,,,,,,,,,,,
2139.099999964237,,realistic_rating,964776,Fort Collins,,50,Fort Collins,2,,,,,,,,,,,,,,,
null,,confidence_buffer,964879,confidence_buffer,,null,,,,,,,,,,,,,,,,,
3997.600000023842,,probe_rating,968879,probe_rating,,52,,,4,1,,,,,,,,,,,,,
null,,confidence_buffer,968981,confidence_buffer,,null,,,,,,,,,,,,,,,,,
1439.2000000476837,,pt2_unique_rating,970422,Fort Collins,,53,,5,,,,,,,,,,,,,,,
null,,confidence_buffer,970525,confidence_buffer,,null,,,,,,,,,,,,,,,,,
817.8000000119209,,pt2_memorable_rating,971344,Fort Collins,,51,,3,,,,,,,,,,,,,,,
null,,confidence_buffer,971447,confidence_buffer,,null,,,,,,,,,,,,,,,,,
901.9000000357628,,recognition_phase,972351,Fort Collins,,50,,,,,old,0,0.5714285714285714,,,,,,,,,,
null,,confidence_buffer,972461,confidence_buffer,,null,,,,,,,,,,,,,,,,,
null,,thebreak,972963,break,,null,,,,,,,,,,,,,,,,,
2871.600000023842,,realistic_rating,975836,Montpelier,,52,Montpelier,4,,,,,,,,,,,,,,,
null,,confidence_buffer,975938,confidence_buffer,,null,,,,,,,,,,,,,,,,,
902,,pt2_unique_rating,976842,Montpelier,,50,,2,,,,,,,,,,,,,,,
null,,confidence_buffer,976945,confidence_buffer,,null,,,,,,,,,,,,,,,,,
697.4000000357628,,pt2_memorable_rating,977644,Montpelier,,51,,3,,,,,,,,,,,,,,,
null,,confidence_buffer,977746,confidence_buffer,,null,,,,,,,,,,,,,,,,,
1377.5,,recognition_phase,979125,Montpelier,,50,,,,,old,0,0.5333333333333333,,,,,,,,,,
null,,confidence_buffer,979228,confidence_buffer,,null,,,,,,,,,,,,,,,,,
null,,thebreak,979731,break,,null,,,,,,,,,,,,,,,,,
646.5,,realistic_rating,980380,Salem,,52,Salem,4,,,,,,,,,,,,,,,
null,,confidence_buffer,980482,confidence_buffer,,null,,,,,,,,,,,,,,,,,
847.7000000476837,,pt2_unique_rating,981331,Salem,,52,,4,,,,,,,,,,,,,,,
null,,confidence_buffer,981432,confidence_buffer,,null,,,,,,,,,,,,,,,,,
930,,pt2_memorable_rating,982363,Salem,,50,,2,,,,,,,,,,,,,,,
null,,confidence_buffer,982466,confidence_buffer,,null,,,,,,,,,,,,,,,,,
3094.5,,probe_rating,985562,probe_rating,,52,,,4,1,,,,,,,,,,,,,
null,,confidence_buffer,985666,confidence_buffer,,null,,,,,,,,,,,,,,,,,
812.5999999642372,,recognition_phase,986481,Salem,,51,,,,,new,0,0.5,,,,,,,,,,
null,,confidence_buffer,986584,confidence_buffer,,null,,,,,,,,,,,,,,,,,
null,,thebreak,987086,break,,null,,,,,,,,,,,,,,,,,
718,,realistic_rating,987806,McKinney,,51,McKinney,3,,,,,,,,,,,,,,,
null,,confidence_buffer,987911,confidence_buffer,,null,,,,,,,,,,,,,,,,,
1336.6000000238419,,pt2_unique_rating,989249,McKinney,,49,,1,,,,,,,,,,,,,,,
null,,confidence_buffer,989350,confidence_buffer,,null,,,,,,,,,,,,,,,,,
919.5999999642372,,pt2_memorable_rating,990272,McKinney,,52,,4,,,,,,,,,,,,,,,
null,,confidence_buffer,990374,confidence_buffer,,null,,,,,,,,,,,,,,,,,
902.8999999761581,,recognition_phase,991279,McKinney,,50,,,,,old,0,0.47058823529411764,,,,,,,,,,
null,,confidence_buffer,991382,confidence_buffer,,null,,,,,,,,,,,,,,,,,
null,,thebreak,991883,break,,null,,,,,,,,,,,,,,,,,
1353.300000011921,,realistic_rating,993238,Peoria,,52,Peoria,4,,,,,,,,,,,,,,,
null,,confidence_buffer,993340,confidence_buffer,,null,,,,,,,,,,,,,,,,,
967.0999999642372,,pt2_unique_rating,994309,Peoria,,51,,3,,,,,,,,,,,,,,,
null,,confidence_buffer,994411,confidence_buffer,,null,,,,,,,,,,,,,,,,,
829.6999999880791,,pt2_memorable_rating,995242,Peoria,,51,,3,,,,,,,,,,,,,,,
null,,confidence_buffer,995343,confidence_buffer,,null,,,,,,,,,,,,,,,,,
2563.400000035763,,recognition_phase,997908,Peoria,,49,,,,,old,1,0.5,,,,,,,,,,
null,,confidence_buffer,998011,confidence_buffer,,null,,,,,,,,,,,,,,,,,
null,,thebreak,998512,break,,null,,,,,,,,,,,,,,,,,
607.8000000119209,,realistic_rating,999122,Hagerstown,,52,Hagerstown,4,,,,,,,,,,,,,,,
null,,confidence_buffer,999225,confidence_buffer,,null,,,,,,,,,,,,,,,,,
947.6000000238419,,pt2_unique_rating,1000175,Hagerstown,,51,,3,,,,,,,,,,,,,,,
null,,confidence_buffer,1000277,confidence_buffer,,null,,,,,,,,,,,,,,,,,
608.8000000119209,,pt2_memorable_rating,1000887,Hagerstown,,53,,5,,,,,,,,,,,,,,,
null,,confidence_buffer,1000989,confidence_buffer,,null,,,,,,,,,,,,,,,,,
3082.100000023842,,recognition_phase,1004073,Hagerstown,,52,,,,,new,1,0.5263157894736842,,,,,,,,,,
null,,confidence_buffer,1004177,confidence_buffer,,null,,,,,,,,,,,,,,,,,
null,,thebreak,1004679,break,,null,,,,,,,,,,,,,,,,,
810.1999999880791,,realistic_rating,1005491,Yakima,,51,Yakima,3,,,,,,,,,,,,,,,
null,,confidence_buffer,1005593,confidence_buffer,,null,,,,,,,,,,,,,,,,,
1238.8999999761581,,pt2_unique_rating,1006834,Yakima,,50,,2,,,,,,,,,,,,,,,
null,,confidence_buffer,1006937,confidence_buffer,,null,,,,,,,,,,,,,,,,,
1391.0999999642372,,pt2_memorable_rating,1008330,Yakima,,51,,3,,,,,,,,,,,,,,,
null,,confidence_buffer,1008433,confidence_buffer,,null,,,,,,,,,,,,,,,,,
3191.899999976158,,probe_rating,1011626,probe_rating,,49,,,1,1,,,,,,,,,,,,,
null,,confidence_buffer,1011728,confidence_buffer,,null,,,,,,,,,,,,,,,,,
2097.199999988079,,recognition_phase,1013826,Yakima,,52,,,,,new,1,0.55,,,,,,,,,,
null,,confidence_buffer,1013928,confidence_buffer,,null,,,,,,,,,,,,,,,,,
null,,thebreak,1014432,break,,null,,,,,,,,,,,,,,,,,
722.5,,realistic_rating,1015157,New Haven,,51,New Haven,3,,,,,,,,,,,,,,,
null,,confidence_buffer,1015259,confidence_buffer,,null,,,,,,,,,,,,,,,,,
1206.300000011921,,pt2_unique_rating,1016466,New Haven,,52,,4,,,,,,,,,,,,,,,
null,,confidence_buffer,1016568,confidence_buffer,,null,,,,,,,,,,,,,,,,,
1236.9000000357628,,pt2_memorable_rating,1017806,New Haven,,50,,2,,,,,,,,,,,,,,,
null,,confidence_buffer,1017908,confidence_buffer,,null,,,,,,,,,,,,,,,,,
1028.9000000357628,,recognition_phase,1018939,New Haven,,51,,,,,new,1,0.5714285714285714,,,,,,,,,,
null,,confidence_buffer,1019043,confidence_buffer,,null,,,,,,,,,,,,,,,,,
null,,thebreak,1019544,break,,null,,,,,,,,,,,,,,,,,
1252.3999999761581,,realistic_rating,1020798,Burlington,,52,Burlington,4,,,,,,,,,,,,,,,
null,,confidence_buffer,1020902,confidence_buffer,,null,,,,,,,,,,,,,,,,,
2093.300000011921,,pt2_unique_rating,1022997,Burlington,,53,,5,,,,,,,,,,,,,,,
null,,confidence_buffer,1023099,confidence_buffer,,null,,,,,,,,,,,,,,,,,
1426.3999999761581,,pt2_memorable_rating,1024527,Burlington,,53,,5,,,,,,,,,,,,,,,
null,,confidence_buffer,1024629,confidence_buffer,,null,,,,,,,,,,,,,,,,,
1844,,recognition_phase,1026474,Burlington,,49,,,,,old,0,0.5454545454545454,,,,,,,,,,
null,,confidence_buffer,1026575,confidence_buffer,,null,,,,,,,,,,,,,,,,,
null,,thebreak,1027077,break,,null,,,,,,,,,,,,,,,,,
1707,,realistic_rating,1028785,Marquette,,52,Marquette,4,,,,,,,,,,,,,,,
null,,confidence_buffer,1028889,confidence_buffer,,null,,,,,,,,,,,,,,,,,
1816,,pt2_unique_rating,1030707,Marquette,,51,,3,,,,,,,,,,,,,,,
null,,confidence_buffer,1030817,confidence_buffer,,null,,,,,,,,,,,,,,,,,
798.6000000238419,,pt2_memorable_rating,1031618,Marquette,,52,,4,,,,,,,,,,,,,,,
null,,confidence_buffer,1031721,confidence_buffer,,null,,,,,,,,,,,,,,,,,
3818.899999976158,,recognition_phase,1035542,Marquette,,52,,,,,new,0,0.5217391304347826,,,,,,,,,,
null,,confidence_buffer,1035644,confidence_buffer,,null,,,,,,,,,,,,,,,,,
null,,thebreak,1036147,break,,null,,,,,,,,,,,,,,,,,
1994.4000000357628,,realistic_rating,1038143,Toledo,,50,Toledo,2,,,,,,,,,,,,,,,
null,,confidence_buffer,1038246,confidence_buffer,,null,,,,,,,,,,,,,,,,,
1616.9000000357628,,pt2_unique_rating,1039865,Toledo,,51,,3,,,,,,,,,,,,,,,
null,,confidence_buffer,1039968,confidence_buffer,,null,,,,,,,,,,,,,,,,,
2893.300000011921,,probe_rating,1042863,probe_rating,,52,,,4,1,,,,,,,,,,,,,
null,,confidence_buffer,1042966,confidence_buffer,,null,,,,,,,,,,,,,,,,,
880.8999999761581,,pt2_memorable_rating,1043848,Toledo,,51,,3,,,,,,,,,,,,,,,
null,,confidence_buffer,1043951,confidence_buffer,,null,,,,,,,,,,,,,,,,,
926.6999999880791,,recognition_phase,1044879,Toledo,,52,,,,,new,0,0.5,,,,,,,,,,
null,,confidence_buffer,1044983,confidence_buffer,,null,,,,,,,,,,,,,,,,,
null,,thebreak,1045485,break,,null,,,,,,,,,,,,,,,,,
1895.0999999642372,,realistic_rating,1047381,Topeka,,50,Topeka,2,,,,,,,,,,,,,,,
null,,confidence_buffer,1047484,confidence_buffer,,null,,,,,,,,,,,,,,,,,
1295.300000011921,,pt2_unique_rating,1048781,Topeka,,51,,3,,,,,,,,,,,,,,,
null,,confidence_buffer,1048884,confidence_buffer,,null,,,,,,,,,,,,,,,,,
1224.3999999761581,,pt2_memorable_rating,1050109,Topeka,,52,,4,,,,,,,,,,,,,,,
null,,confidence_buffer,1050211,confidence_buffer,,null,,,,,,,,,,,,,,,,,
2313.699999988079,,recognition_phase,1052526,Topeka,,52,,,,,new,0,0.48,,,,,,,,,,
null,,confidence_buffer,1052628,confidence_buffer,,null,,,,,,,,,,,,,,,,,
null,,thebreak,1053130,break,,null,,,,,,,,,,,,,,,,,
2852.300000011921,,realistic_rating,1055984,Gainesville,,51,Gainesville,3,,,,,,,,,,,,,,,
null,,confidence_buffer,1056087,confidence_buffer,,null,,,,,,,,,,,,,,,,,
845.6999999880791,,pt2_unique_rating,1056935,Gainesville,,50,,2,,,,,,,,,,,,,,,
null,,confidence_buffer,1057036,confidence_buffer,,null,,,,,,,,,,,,,,,,,
683.1000000238419,,pt2_memorable_rating,1057721,Gainesville,,50,,2,,,,,,,,,,,,,,,
null,,confidence_buffer,1057824,confidence_buffer,,null,,,,,,,,,,,,,,,,,
845.3000000119209,,recognition_phase,1058671,Gainesville,,52,,,,,new,1,0.5,,,,,,,,,,
null,,confidence_buffer,1058778,confidence_buffer,,null,,,,,,,,,,,,,,,,,
null,,thebreak,1059281,break,,null,,,,,,,,,,,,,,,,,
890.5,,realistic_rating,1060173,Abilene,,50,Abilene,2,,,,,,,,,,,,,,,
null,,confidence_buffer,1060276,confidence_buffer,,null,,,,,,,,,,,,,,,,,
1014.0999999642372,,pt2_unique_rating,1061292,Abilene,,51,,3,,,,,,,,,,,,,,,
null,,confidence_buffer,1061394,confidence_buffer,,null,,,,,,,,,,,,,,,,,
1203.3999999761581,,pt2_memorable_rating,1062599,Abilene,,51,,3,,,,,,,,,,,,,,,
null,,confidence_buffer,1062701,confidence_buffer,,null,,,,,,,,,,,,,,,,,
2320.300000011921,,recognition_phase,1065023,Abilene,,52,,,,,new,1,0.5185185185185185,,,,,,,,,,
null,,confidence_buffer,1065126,confidence_buffer,,null,,,,,,,,,,,,,,,,,
null,,thebreak,1065628,break,,null,,,,,,,,,,,,,,,,,
785.4000000357628,,realistic_rating,1066414,Berkeley,,50,Berkeley,2,,,,,,,,,,,,,,,
null,,confidence_buffer,1066517,confidence_buffer,,null,,,,,,,,,,,,,,,,,
858.2000000476837,,pt2_unique_rating,1067377,Berkeley,,52,,4,,,,,,,,,,,,,,,
null,,confidence_buffer,1067480,confidence_buffer,,null,,,,,,,,,,,,,,,,,
743.8999999761581,,pt2_memorable_rating,1068225,Berkeley,,52,,4,,,,,,,,,,,,,,,
null,,confidence_buffer,1068328,confidence_buffer,,null,,,,,,,,,,,,,,,,,
1573.699999988079,,recognition_phase,1069903,Berkeley,,49,,,,,old,1,0.5357142857142857,,,,,,,,,,
null,,confidence_buffer,1070007,confidence_buffer,,null,,,,,,,,,,,,,,,,,
null,,thebreak,1070508,break,,null,,,,,,,,,,,,,,,,,
748,,realistic_rating,1071257,Scottsdale,,50,Scottsdale,2,,,,,,,,,,,,,,,
null,,confidence_buffer,1071360,confidence_buffer,,null,,,,,,,,,,,,,,,,,
2332.5,,probe_rating,1073694,probe_rating,,50,,,2,1,,,,,,,,,,,,,
null,,confidence_buffer,1073797,confidence_buffer,,null,,,,,,,,,,,,,,,,,
1118.800000011921,,pt2_unique_rating,1074918,Scottsdale,,51,,3,,,,,,,,,,,,,,,
null,,confidence_buffer,1075021,confidence_buffer,,null,,,,,,,,,,,,,,,,,
718.3999999761581,,pt2_memorable_rating,1075741,Scottsdale,,51,,3,,,,,,,,,,,,,,,
null,,confidence_buffer,1075857,confidence_buffer,,null,,,,,,,,,,,,,,,,,
894.3000000119209,,recognition_phase,1076753,Scottsdale,,52,,,,,new,0,0.5172413793103449,,,,,,,,,,
null,,confidence_buffer,1076857,confidence_buffer,,null,,,,,,,,,,,,,,,,,
null,,thebreak,1077359,break,,null,,,,,,,,,,,,,,,,,
3979,,realistic_rating,1081340,Pasadena,,50,Pasadena,2,,,,,,,,,,,,,,,
null,,confidence_buffer,1081443,confidence_buffer,,null,,,,,,,,,,,,,,,,,
1105.800000011921,,pt2_unique_rating,1082551,Pasadena,,51,,3,,,,,,,,,,,,,,,
null,,confidence_buffer,1082655,confidence_buffer,,null,,,,,,,,,,,,,,,,,
853.4000000357628,,pt2_memorable_rating,1083509,Pasadena,,51,,3,,,,,,,,,,,,,,,
null,,confidence_buffer,1083614,confidence_buffer,,null,,,,,,,,,,,,,,,,,
2685.199999988079,,recognition_phase,1086301,Pasadena,,52,,,,,new,1,0.5333333333333333,,,,,,,,,,
null,,confidence_buffer,1086403,confidence_buffer,,null,,,,,,,,,,,,,,,,,
null,,thebreak,1086906,break,,null,,,,,,,,,,,,,,,,,
2526.399999976158,,realistic_rating,1089434,Santa Monica,,50,Santa Monica,2,,,,,,,,,,,,,,,
null,,confidence_buffer,1089535,confidence_buffer,,null,,,,,,,,,,,,,,,,,
1473,,pt2_unique_rating,1091009,Santa Monica,,50,,2,,,,,,,,,,,,,,,
null,,confidence_buffer,1091112,confidence_buffer,,null,,,,,,,,,,,,,,,,,
716.5,,pt2_memorable_rating,1091829,Santa Monica,,52,,4,,,,,,,,,,,,,,,
null,,confidence_buffer,1091931,confidence_buffer,,null,,,,,,,,,,,,,,,,,
862.1999999880791,,recognition_phase,1092793,Santa Monica,,51,,,,,new,1,0.5483870967741935,,,,,,,,,,
null,,confidence_buffer,1092895,confidence_buffer,,null,,,,,,,,,,,,,,,,,
null,,thebreak,1093398,break,,null,,,,,,,,,,,,,,,,,
831.1000000238419,,realistic_rating,1094231,Muncie,,50,Muncie,2,,,,,,,,,,,,,,,
null,,confidence_buffer,1094334,confidence_buffer,,null,,,,,,,,,,,,,,,,,
458.30000001192093,,pt2_unique_rating,1094794,Muncie,,52,,4,,,,,,,,,,,,,,,
null,,confidence_buffer,1094897,confidence_buffer,,null,,,,,,,,,,,,,,,,,
527.1999999880791,,pt2_memorable_rating,1095426,Muncie,,51,,3,,,,,,,,,,,,,,,
null,,confidence_buffer,1095529,confidence_buffer,,null,,,,,,,,,,,,,,,,,
814,,recognition_phase,1096345,Muncie,,52,,,,,new,1,0.5625,,,,,,,,,,
null,,confidence_buffer,1096448,confidence_buffer,,null,,,,,,,,,,,,,,,,,
null,,thebreak,1096949,break,,null,,,,,,,,,,,,,,,,,
714.3999999761581,,realistic_rating,1097665,Terre Haute,,51,Terre Haute,3,,,,,,,,,,,,,,,
null,,confidence_buffer,1097767,confidence_buffer,,null,,,,,,,,,,,,,,,,,
727.5999999642372,,pt2_unique_rating,1098495,Terre Haute,,50,,2,,,,,,,,,,,,,,,
null,,confidence_buffer,1098597,confidence_buffer,,null,,,,,,,,,,,,,,,,,
556,,pt2_memorable_rating,1099155,Terre Haute,,49,,1,,,,,,,,,,,,,,,
null,,confidence_buffer,1099257,confidence_buffer,,null,,,,,,,,,,,,,,,,,
1155,,recognition_phase,1100414,Terre Haute,,49,,,,,old,0,0.5454545454545454,,,,,,,,,,
null,,confidence_buffer,1100518,confidence_buffer,,null,,,,,,,,,,,,,,,,,
null,,thebreak,1101019,break,,null,,,,,,,,,,,,,,,,,
715.0999999642372,,realistic_rating,1101736,Ithaca,,52,Ithaca,4,,,,,,,,,,,,,,,
null,,confidence_buffer,1101838,confidence_buffer,,null,,,,,,,,,,,,,,,,,
895.7000000476837,,pt2_unique_rating,1102736,Ithaca,,50,,2,,,,,,,,,,,,,,,
null,,confidence_buffer,1102838,confidence_buffer,,null,,,,,,,,,,,,,,,,,
1042.6000000238419,,pt2_memorable_rating,1103882,Ithaca,,51,,3,,,,,,,,,,,,,,,
null,,confidence_buffer,1103986,confidence_buffer,,null,,,,,,,,,,,,,,,,,
787.8999999761581,,recognition_phase,1104775,Ithaca,,51,,,,,new,1,0.5588235294117647,,,,,,,,,,
null,,confidence_buffer,1104877,confidence_buffer,,null,,,,,,,,,,,,,,,,,
null,,thebreak,1105379,break,,null,,,,,,,,,,,,,,,,,
611.5,,realistic_rating,1105992,Rock Springs,,50,Rock Springs,2,,,,,,,,,,,,,,,
null,,confidence_buffer,1106095,confidence_buffer,,null,,,,,,,,,,,,,,,,,
590.6999999880791,,pt2_unique_rating,1106687,Rock Springs,,52,,4,,,,,,,,,,,,,,,
null,,confidence_buffer,1106790,confidence_buffer,,null,,,,,,,,,,,,,,,,,
1028.8999999761581,,pt2_memorable_rating,1107820,Rock Springs,,52,,4,,,,,,,,,,,,,,,
null,,confidence_buffer,1107932,confidence_buffer,,null,,,,,,,,,,,,,,,,,
1029.1000000238419,,recognition_phase,1108963,Rock Springs,,51,,,,,new,0,0.5428571428571428,,,,,,,,,,
null,,confidence_buffer,1109064,confidence_buffer,,null,,,,,,,,,,,,,,,,,
null,,thebreak,1109567,break,,null,,,,,,,,,,,,,,,,,
633.5,,realistic_rating,1110202,Fort Wayne,,50,Fort Wayne,2,,,,,,,,,,,,,,,
null,,confidence_buffer,1110304,confidence_buffer,,null,,,,,,,,,,,,,,,,,
1655.4000000357628,,pt2_unique_rating,1111961,Fort Wayne,,49,,1,,,,,,,,,,,,,,,
null,,confidence_buffer,1112064,confidence_buffer,,null,,,,,,,,,,,,,,,,,
1251.199999988079,,pt2_memorable_rating,1113317,Fort Wayne,,53,,5,,,,,,,,,,,,,,,
null,,confidence_buffer,1113422,confidence_buffer,,null,,,,,,,,,,,,,,,,,
3139.899999976158,,recognition_phase,1116565,Fort Wayne,,52,,,,,new,0,0.5277777777777778,,,,,,,,,,
null,,confidence_buffer,1116667,confidence_buffer,,null,,,,,,,,,,,,,,,,,
null,,thebreak,1117170,break,,null,,,,,,,,,,,,,,,,,
713,,realistic_rating,1117885,Cambridge,,51,Cambridge,3,,,,,,,,,,,,,,,
null,,confidence_buffer,1117988,confidence_buffer,,null,,,,,,,,,,,,,,,,,
1165.5,,pt2_unique_rating,1119155,Cambridge,,51,,3,,,,,,,,,,,,,,,
null,,confidence_buffer,1119260,confidence_buffer,,null,,,,,,,,,,,,,,,,,
456.89999997615814,,pt2_memorable_rating,1119718,Cambridge,,50,,2,,,,,,,,,,,,,,,
null,,confidence_buffer,1119821,confidence_buffer,,null,,,,,,,,,,,,,,,,,
2429.899999976158,,recognition_phase,1122253,Cambridge,,52,,,,,new,1,0.5405405405405406,,,,,,,,,,
null,,confidence_buffer,1122357,confidence_buffer,,null,,,,,,,,,,,,,,,,,
null,,thebreak,1122861,break,,null,,,,,,,,,,,,,,,,,
652.4000000357628,,realistic_rating,1123516,Youngstown,,52,Youngstown,4,,,,,,,,,,,,,,,
null,,confidence_buffer,1123618,confidence_buffer,,null,,,,,,,,,,,,,,,,,
865.3999999761581,,pt2_unique_rating,1124485,Youngstown,,51,,3,,,,,,,,,,,,,,,
null,,confidence_buffer,1124587,confidence_buffer,,null,,,,,,,,,,,,,,,,,
755.1999999880791,,pt2_memorable_rating,1125344,Youngstown,,51,,3,,,,,,,,,,,,,,,
null,,confidence_buffer,1125447,confidence_buffer,,null,,,,,,,,,,,,,,,,,
967.1999999880791,,recognition_phase,1126416,Youngstown,,50,,,,,old,1,0.5526315789473685,,,,,,,,,,
null,,confidence_buffer,1126518,confidence_buffer,,null,,,,,,,,,,,,,,,,,
null,,thebreak,1127021,break,,null,,,,,,,,,,,,,,,,,
596.7000000476837,,realistic_rating,1127619,Champaign,,52,Champaign,4,,,,,,,,,,,,,,,
null,,confidence_buffer,1127721,confidence_buffer,,null,,,,,,,,,,,,,,,,,
880.3000000119209,,pt2_unique_rating,1128603,Champaign,,50,,2,,,,,,,,,,,,,,,
null,,confidence_buffer,1128706,confidence_buffer,,null,,,,,,,,,,,,,,,,,
717.0999999642372,,pt2_memorable_rating,1129425,Champaign,,52,,4,,,,,,,,,,,,,,,
null,,confidence_buffer,1129527,confidence_buffer,,null,,,,,,,,,,,,,,,,,
1057.5,,recognition_phase,1130586,Champaign,,50,,,,,old,1,0.5641025641025641,,,,,,,,,,
null,,confidence_buffer,1130690,confidence_buffer,,null,,,,,,,,,,,,,,,,,
null,,thebreak,1131192,break,,null,,,,,,,,,,,,,,,,,
963.3999999761581,,realistic_rating,1132157,Reno,,52,Reno,4,,,,,,,,,,,,,,,
null,,confidence_buffer,1132260,confidence_buffer,,null,,,,,,,,,,,,,,,,,
1345.5999999642372,,pt2_unique_rating,1133607,Reno,,50,,2,,,,,,,,,,,,,,,
null,,confidence_buffer,1133710,confidence_buffer,,null,,,,,,,,,,,,,,,,,
620.4000000357628,,pt2_memorable_rating,1134331,Reno,,50,,2,,,,,,,,,,,,,,,
null,,confidence_buffer,1134443,confidence_buffer,,null,,,,,,,,,,,,,,,,,
934.8000000119209,,recognition_phase,1135380,Reno,,51,,,,,new,1,0.575,,,,,,,,,,
null,,confidence_buffer,1135484,confidence_buffer,,null,,,,,,,,,,,,,,,,,
null,,thebreak,1135987,break,,null,,,,,,,,,,,,,,,,,
1162.9000000357628,,realistic_rating,1137151,Annapolis,,49,Annapolis,1,,,,,,,,,,,,,,,
null,,confidence_buffer,1137256,confidence_buffer,,null,,,,,,,,,,,,,,,,,
1049.699999988079,,pt2_unique_rating,1138307,Annapolis,,52,,4,,,,,,,,,,,,,,,
null,,confidence_buffer,1138411,confidence_buffer,,null,,,,,,,,,,,,,,,,,
737.4000000357628,,pt2_memorable_rating,1139149,Annapolis,,52,,4,,,,,,,,,,,,,,,
null,,confidence_buffer,1139252,confidence_buffer,,null,,,,,,,,,,,,,,,,,
3138,,recognition_phase,1142391,Annapolis,,52,,,,,new,0,0.5609756097560976,,,,,,,,,,
null,,confidence_buffer,1142494,confidence_buffer,,null,,,,,,,,,,,,,,,,,
null,,thebreak,1142997,break,,null,,,,,,,,,,,,,,,,,
773.8999999761581,,realistic_rating,1143773,Pueblo,,50,Pueblo,2,,,,,,,,,,,,,,,
null,,confidence_buffer,1143875,confidence_buffer,,null,,,,,,,,,,,,,,,,,
1441.5,,pt2_unique_rating,1145318,Pueblo,,51,,3,,,,,,,,,,,,,,,
null,,confidence_buffer,1145421,confidence_buffer,,null,,,,,,,,,,,,,,,,,
874.6999999880791,,pt2_memorable_rating,1146297,Pueblo,,51,,3,,,,,,,,,,,,,,,
null,,confidence_buffer,1146400,confidence_buffer,,null,,,,,,,,,,,,,,,,,
661.2000000476837,,recognition_phase,1147063,Pueblo,,50,,,,,old,1,0.5714285714285714,,,,,,,,,,
null,,confidence_buffer,1147166,confidence_buffer,,null,,,,,,,,,,,,,,,,,
null,,thebreak,1147668,break,,null,,,,,,,,,,,,,,,,,
707,,realistic_rating,1148376,Norfolk,,50,Norfolk,2,,,,,,,,,,,,,,,
null,,confidence_buffer,1148478,confidence_buffer,,null,,,,,,,,,,,,,,,,,
883.1000000238419,,pt2_unique_rating,1149362,Norfolk,,52,,4,,,,,,,,,,,,,,,
null,,confidence_buffer,1149465,confidence_buffer,,null,,,,,,,,,,,,,,,,,
2354,,probe_rating,1151821,probe_rating,,52,,,4,1,,,,,,,,,,,,,
null,,confidence_buffer,1151924,confidence_buffer,,null,,,,,,,,,,,,,,,,,
940.6999999880791,,pt2_memorable_rating,1152866,Norfolk,,52,,4,,,,,,,,,,,,,,,
null,,confidence_buffer,1152968,confidence_buffer,,null,,,,,,,,,,,,,,,,,
999.5999999642372,,recognition_phase,1153970,Norfolk,,51,,,,,new,1,0.5813953488372093,,,,,,,,,,
null,,confidence_buffer,1154087,confidence_buffer,,null,,,,,,,,,,,,,,,,,
null,,thebreak,1154590,break,,null,,,,,,,,,,,,,,,,,
862.1999999880791,,realistic_rating,1155454,Las Cruces,,53,Las Cruces,5,,,,,,,,,,,,,,,
null,,confidence_buffer,1155556,confidence_buffer,,null,,,,,,,,,,,,,,,,,
4103.699999988079,,probe_rating,1159661,probe_rating,,51,,,3,1,,,,,,,,,,,,,
null,,confidence_buffer,1159764,confidence_buffer,,null,,,,,,,,,,,,,,,,,
1447.0999999642372,,pt2_unique_rating,1161213,Las Cruces,,53,,5,,,,,,,,,,,,,,,
null,,confidence_buffer,1161316,confidence_buffer,,null,,,,,,,,,,,,,,,,,
592.7999999523163,,pt2_memorable_rating,1161910,Las Cruces,,52,,4,,,,,,,,,,,,,,,
null,,confidence_buffer,1162013,confidence_buffer,,null,,,,,,,,,,,,,,,,,
1815.2999999523163,,recognition_phase,1163830,Las Cruces,,50,,,,,old,0,0.5681818181818182,,,,,,,,,,
null,,confidence_buffer,1163934,confidence_buffer,,null,,,,,,,,,,,,,,,,,
null,,thebreak,1164436,break,,null,,,,,,,,,,,,,,,,,
525.0999999642372,,realistic_rating,1164963,Decatur,,52,Decatur,4,,,,,,,,,,,,,,,
null,,confidence_buffer,1165066,confidence_buffer,,null,,,,,,,,,,,,,,,,,
870,,pt2_unique_rating,1165938,Decatur,,53,,5,,,,,,,,,,,,,,,
null,,confidence_buffer,1166039,confidence_buffer,,null,,,,,,,,,,,,,,,,,
2339.800000011921,,probe_rating,1168379,probe_rating,,50,,,2,1,,,,,,,,,,,,,
null,,confidence_buffer,1168482,confidence_buffer,,null,,,,,,,,,,,,,,,,,
698.3000000119209,,pt2_memorable_rating,1169183,Decatur,,51,,3,,,,,,,,,,,,,,,
null,,confidence_buffer,1169286,confidence_buffer,,null,,,,,,,,,,,,,,,,,
1370.199999988079,,recognition_phase,1170657,Decatur,,52,,,,,new,0,0.5555555555555556,,,,,,,,,,
null,,confidence_buffer,1170759,confidence_buffer,,null,,,,,,,,,,,,,,,,,
null,,thebreak,1171262,break,,null,,,,,,,,,,,,,,,,,
1143,,realistic_rating,1172407,Olympia,,51,Olympia,3,,,,,,,,,,,,,,,
null,,confidence_buffer,1172510,confidence_buffer,,null,,,,,,,,,,,,,,,,,
673.8999999761581,,pt2_unique_rating,1173186,Olympia,,50,,2,,,,,,,,,,,,,,,
null,,confidence_buffer,1173289,confidence_buffer,,null,,,,,,,,,,,,,,,,,
624.6999999880791,,pt2_memorable_rating,1173915,Olympia,,52,,4,,,,,,,,,,,,,,,
null,,confidence_buffer,1174018,confidence_buffer,,null,,,,,,,,,,,,,,,,,
666.1000000238419,,recognition_phase,1174686,Olympia,,52,,,,,new,0,0.5434782608695652,,,,,,,,,,
null,,confidence_buffer,1174790,confidence_buffer,,null,,,,,,,,,,,,,,,,,
null,,thebreak,1175293,break,,null,,,,,,,,,,,,,,,,,
2381.599999964237,,realistic_rating,1177676,Dothan,,51,Dothan,3,,,,,,,,,,,,,,,
null,,confidence_buffer,1177777,confidence_buffer,,null,,,,,,,,,,,,,,,,,
752.5,,pt2_unique_rating,1178531,Dothan,,52,,4,,,,,,,,,,,,,,,
null,,confidence_buffer,1178634,confidence_buffer,,null,,,,,,,,,,,,,,,,,
700.5,,pt2_memorable_rating,1179335,Dothan,,52,,4,,,,,,,,,,,,,,,
null,,confidence_buffer,1179438,confidence_buffer,,null,,,,,,,,,,,,,,,,,
1242.199999988079,,recognition_phase,1180681,Dothan,,50,,,,,old,0,0.5319148936170213,,,,,,,,,,
null,,confidence_buffer,1180786,confidence_buffer,,null,,,,,,,,,,,,,,,,,
null,,thebreak,1181288,break,,null,,,,,,,,,,,,,,,,,
1616.5,,realistic_rating,1182906,Boulder,,50,Boulder,2,,,,,,,,,,,,,,,
null,,confidence_buffer,1183010,confidence_buffer,,null,,,,,,,,,,,,,,,,,
2677.400000035763,,pt2_unique_rating,1185688,Boulder,,51,,3,,,,,,,,,,,,,,,
null,,confidence_buffer,1185791,confidence_buffer,,null,,,,,,,,,,,,,,,,,
2046.5,,probe_rating,1187839,probe_rating,,51,,,3,1,,,,,,,,,,,,,
null,,confidence_buffer,1187942,confidence_buffer,,null,,,,,,,,,,,,,,,,,
2331.300000011921,,pt2_memorable_rating,1190275,Boulder,,51,,3,,,,,,,,,,,,,,,
null,,confidence_buffer,1190378,confidence_buffer,,null,,,,,,,,,,,,,,,,,
4193.900000035763,,recognition_phase,1194574,Boulder,,52,,,,,new,1,0.5416666666666666,,,,,,,,,,
null,,confidence_buffer,1194677,confidence_buffer,,null,,,,,,,,,,,,,,,,,
null,,thebreak,1195178,break,,null,,,,,,,,,,,,,,,,,
2525.100000023842,,realistic_rating,1197705,Helena,,52,Helena,4,,,,,,,,,,,,,,,
null,,confidence_buffer,1197807,confidence_buffer,,null,,,,,,,,,,,,,,,,,
976.1000000238419,,pt2_unique_rating,1198785,Helena,,52,,4,,,,,,,,,,,,,,,
null,,confidence_buffer,1198888,confidence_buffer,,null,,,,,,,,,,,,,,,,,
1515.4000000357628,,pt2_memorable_rating,1200405,Helena,,51,,3,,,,,,,,,,,,,,,
null,,confidence_buffer,1200508,confidence_buffer,,null,,,,,,,,,,,,,,,,,
1966.5999999642372,,recognition_phase,1202477,Helena,,52,,,,,new,1,0.5510204081632653,,,,,,,,,,
null,,confidence_buffer,1202580,confidence_buffer,,null,,,,,,,,,,,,,,,,,
null,,thebreak,1203082,break,,null,,,,,,,,,,,,,,,,,
923.6999999880791,,realistic_rating,1204008,Dubuque,,50,Dubuque,2,,,,,,,,,,,,,,,
null,,confidence_buffer,1204111,confidence_buffer,,null,,,,,,,,,,,,,,,,,
3590.400000035763,,probe_rating,1207704,probe_rating,,52,,,4,1,,,,,,,,,,,,,
null,,confidence_buffer,1207806,confidence_buffer,,null,,,,,,,,,,,,,,,,,
943.8000000119209,,pt2_unique_rating,1208751,Dubuque,,52,,4,,,,,,,,,,,,,,,
null,,confidence_buffer,1208855,confidence_buffer,,null,,,,,,,,,,,,,,,,,
664.8999999761581,,pt2_memorable_rating,1209521,Dubuque,,51,,3,,,,,,,,,,,,,,,
null,,confidence_buffer,1209624,confidence_buffer,,null,,,,,,,,,,,,,,,,,
1015,,recognition_phase,1210640,Dubuque,,52,,,,,new,0,0.54,,,,,,,,,,
null,,confidence_buffer,1210742,confidence_buffer,,null,,,,,,,,,,,,,,,,,
null,,thebreak,1211245,break,,null,,,,,,,,,,,,,,,,,
,,survey,1392831,survey-questions,,,,,,,,,,,0,No,Had my full concentration on the task ,if it has applied before,Has seen it before,ho good it looks ,how natural it is ,no,No
