rt,responses,trial_type,time_elapsed,stimulus,button_pressed,key_press,name_trial,rating,probe,probe_accuracy,response,correct,accuracy,problems,smooth,distraction,strategies,familiar,memorable,unique,realistic,similar,comments
7690.9000000059605,{worker_id:673fd425abf60cdbd75ae360},id_enter,7692,,,,,,,,,,,,,,,,,,,,
10371.5,,fullscreen,18065,fullscreen,0,,,,,,,,,,,,,,,,,,
17633,,intro_0,35700,instruct,,32,,,,,,,,,,,,,,,,,
9663.40000000596,,intro_1,45363,instruct,,32,,,,,,,,,,,,,,,,,
11092.5,,intro_2,56456,instruct,,32,,,,,,,,,,,,,,,,,
null,,instruct_dir_4,57959,instruct,,null,,,,,,,,,,,,,,,,,
null,,thebreak,58460,break,,null,,,,,,,,,,,,,,,,,
5352.399999976158,,familiar_rating,63813,Scottsdale,,51,Scottsdale,3,,,,,,,,,,,,,,,
null,,confidence_buffer,63915,confidence_buffer,,null,,,,,,,,,,,,,,,,,
3262.4000000059605,,unique_rating,67177,Scottsdale,,50,,2,,,,,,,,,,,,,,,
null,,confidence_buffer,67279,confidence_buffer,,null,,,,,,,,,,,,,,,,,
3419.5,,memorable_rating,70699,Scottsdale,,50,,2,,,,,,,,,,,,,,,
null,,confidence_buffer,70801,confidence_buffer,,null,,,,,,,,,,,,,,,,,
1967.4000000059605,,probe_rating,72769,probe_rating,,49,,,1,1,,,,,,,,,,,,,
null,,confidence_buffer,72871,confidence_buffer,,null,,,,,,,,,,,,,,,,,
null,,thebreak,73372,break,,null,,,,,,,,,,,,,,,,,
2658.9000000059605,,familiar_rating,76032,Athens,,53,Athens,5,,,,,,,,,,,,,,,
null,,confidence_buffer,76134,confidence_buffer,,null,,,,,,,,,,,,,,,,,
2710.199999988079,,unique_rating,78844,Athens,,52,,4,,,,,,,,,,,,,,,
null,,confidence_buffer,78947,confidence_buffer,,null,,,,,,,,,,,,,,,,,
1393.0999999940395,,memorable_rating,80340,Athens,,53,,5,,,,,,,,,,,,,,,
null,,confidence_buffer,80442,confidence_buffer,,null,,,,,,,,,,,,,,,,,
null,,thebreak,80944,break,,null,,,,,,,,,,,,,,,,,
2827.5999999940395,,familiar_rating,83772,Terre Haute,,49,Terre Haute,1,,,,,,,,,,,,,,,
null,,confidence_buffer,83874,confidence_buffer,,null,,,,,,,,,,,,,,,,,
2698.300000011921,,unique_rating,86573,Terre Haute,,49,,1,,,,,,,,,,,,,,,
null,,confidence_buffer,86675,confidence_buffer,,null,,,,,,,,,,,,,,,,,
4285.4000000059605,,memorable_rating,90960,Terre Haute,,49,,1,,,,,,,,,,,,,,,
null,,confidence_buffer,91062,confidence_buffer,,null,,,,,,,,,,,,,,,,,
null,,thebreak,91563,break,,null,,,,,,,,,,,,,,,,,
3356.4000000059605,,familiar_rating,94920,Pasadena,,52,Pasadena,4,,,,,,,,,,,,,,,
null,,confidence_buffer,95022,confidence_buffer,,null,,,,,,,,,,,,,,,,,
2901.800000011921,,unique_rating,97924,Pasadena,,50,,2,,,,,,,,,,,,,,,
null,,confidence_buffer,98027,confidence_buffer,,null,,,,,,,,,,,,,,,,,
2518.4000000059605,,memorable_rating,100545,Pasadena,,53,,5,,,,,,,,,,,,,,,
null,,confidence_buffer,100646,confidence_buffer,,null,,,,,,,,,,,,,,,,,
null,,thebreak,101148,break,,null,,,,,,,,,,,,,,,,,
3064.199999988079,,familiar_rating,104213,Peoria,,51,Peoria,3,,,,,,,,,,,,,,,
null,,confidence_buffer,104314,confidence_buffer,,null,,,,,,,,,,,,,,,,,
3971,,unique_rating,108286,Peoria,,52,,4,,,,,,,,,,,,,,,
null,,confidence_buffer,108386,confidence_buffer,,null,,,,,,,,,,,,,,,,,
3982.5999999940395,,memorable_rating,112369,Peoria,,52,,4,,,,,,,,,,,,,,,
null,,confidence_buffer,112471,confidence_buffer,,null,,,,,,,,,,,,,,,,,
null,,thebreak,112973,break,,null,,,,,,,,,,,,,,,,,
2344.4000000059605,,familiar_rating,115318,New Haven,,53,New Haven,5,,,,,,,,,,,,,,,
null,,confidence_buffer,115419,confidence_buffer,,null,,,,,,,,,,,,,,,,,
2102.699999988079,,unique_rating,117522,New Haven,,49,,1,,,,,,,,,,,,,,,
null,,confidence_buffer,117623,confidence_buffer,,null,,,,,,,,,,,,,,,,,
2260.9000000059605,,memorable_rating,119885,New Haven,,51,,3,,,,,,,,,,,,,,,
null,,confidence_buffer,119986,confidence_buffer,,null,,,,,,,,,,,,,,,,,
null,,thebreak,120487,break,,null,,,,,,,,,,,,,,,,,
3391.0999999940395,,familiar_rating,123878,Montpelier,,52,Montpelier,4,,,,,,,,,,,,,,,
null,,confidence_buffer,123981,confidence_buffer,,null,,,,,,,,,,,,,,,,,
2946.5,,unique_rating,126928,Montpelier,,52,,4,,,,,,,,,,,,,,,
null,,confidence_buffer,127029,confidence_buffer,,null,,,,,,,,,,,,,,,,,
3396.5,,memorable_rating,130426,Montpelier,,52,,4,,,,,,,,,,,,,,,
null,,confidence_buffer,130528,confidence_buffer,,null,,,,,,,,,,,,,,,,,
null,,thebreak,131030,break,,null,,,,,,,,,,,,,,,,,
3558.199999988079,,familiar_rating,134589,Champaign,,52,Champaign,4,,,,,,,,,,,,,,,
null,,confidence_buffer,134691,confidence_buffer,,null,,,,,,,,,,,,,,,,,
2496.4000000059605,,unique_rating,137188,Champaign,,53,,5,,,,,,,,,,,,,,,
null,,confidence_buffer,137288,confidence_buffer,,null,,,,,,,,,,,,,,,,,
1249,,memorable_rating,138538,Champaign,,53,,5,,,,,,,,,,,,,,,
null,,confidence_buffer,138639,confidence_buffer,,null,,,,,,,,,,,,,,,,,
null,,thebreak,139140,break,,null,,,,,,,,,,,,,,,,,
2772.5999999940395,,familiar_rating,141913,Burlington,,51,Burlington,3,,,,,,,,,,,,,,,
null,,confidence_buffer,142015,confidence_buffer,,null,,,,,,,,,,,,,,,,,
1933.199999988079,,unique_rating,143949,Burlington,,50,,2,,,,,,,,,,,,,,,
null,,confidence_buffer,144051,confidence_buffer,,null,,,,,,,,,,,,,,,,,
2260.4000000059605,,memorable_rating,146311,Burlington,,52,,4,,,,,,,,,,,,,,,
null,,confidence_buffer,146413,confidence_buffer,,null,,,,,,,,,,,,,,,,,
null,,thebreak,146914,break,,null,,,,,,,,,,,,,,,,,
5539.699999988079,,familiar_rating,152454,Palo Alto,,50,Palo Alto,2,,,,,,,,,,,,,,,
null,,confidence_buffer,152557,confidence_buffer,,null,,,,,,,,,,,,,,,,,
2743.300000011921,,unique_rating,155300,Palo Alto,,52,,4,,,,,,,,,,,,,,,
null,,confidence_buffer,155403,confidence_buffer,,null,,,,,,,,,,,,,,,,,
2124.9000000059605,,memorable_rating,157528,Palo Alto,,52,,4,,,,,,,,,,,,,,,
null,,confidence_buffer,157631,confidence_buffer,,null,,,,,,,,,,,,,,,,,
null,,thebreak,158132,break,,null,,,,,,,,,,,,,,,,,
3445.0999999940395,,familiar_rating,161578,Las Cruces,,50,Las Cruces,2,,,,,,,,,,,,,,,
null,,confidence_buffer,161679,confidence_buffer,,null,,,,,,,,,,,,,,,,,
1789,,unique_rating,163469,Las Cruces,,51,,3,,,,,,,,,,,,,,,
null,,confidence_buffer,163571,confidence_buffer,,null,,,,,,,,,,,,,,,,,
1966.5999999940395,,memorable_rating,165538,Las Cruces,,51,,3,,,,,,,,,,,,,,,
null,,confidence_buffer,165640,confidence_buffer,,null,,,,,,,,,,,,,,,,,
null,,thebreak,166142,break,,null,,,,,,,,,,,,,,,,,
2916.4000000059605,,familiar_rating,169059,Hagerstown,,49,Hagerstown,1,,,,,,,,,,,,,,,
null,,confidence_buffer,169161,confidence_buffer,,null,,,,,,,,,,,,,,,,,
1889.0999999940395,,unique_rating,171051,Hagerstown,,52,,4,,,,,,,,,,,,,,,
null,,confidence_buffer,171152,confidence_buffer,,null,,,,,,,,,,,,,,,,,
2779,,probe_rating,173931,probe_rating,,51,,,3,1,,,,,,,,,,,,,
null,,confidence_buffer,174032,confidence_buffer,,null,,,,,,,,,,,,,,,,,
4724.799999982119,,memorable_rating,178757,Hagerstown,,51,,3,,,,,,,,,,,,,,,
null,,confidence_buffer,178859,confidence_buffer,,null,,,,,,,,,,,,,,,,,
null,,thebreak,179360,break,,null,,,,,,,,,,,,,,,,,
2445.0999999940395,,familiar_rating,181806,Muncie,,49,Muncie,1,,,,,,,,,,,,,,,
null,,confidence_buffer,181908,confidence_buffer,,null,,,,,,,,,,,,,,,,,
2169.800000011921,,unique_rating,184079,Muncie,,52,,4,,,,,,,,,,,,,,,
null,,confidence_buffer,184180,confidence_buffer,,null,,,,,,,,,,,,,,,,,
1236.199999988079,,memorable_rating,185417,Muncie,,52,,4,,,,,,,,,,,,,,,
null,,confidence_buffer,185520,confidence_buffer,,null,,,,,,,,,,,,,,,,,
null,,thebreak,186021,break,,null,,,,,,,,,,,,,,,,,
2445.0999999940395,,familiar_rating,188467,Carson City,,49,Carson City,1,,,,,,,,,,,,,,,
null,,confidence_buffer,188567,confidence_buffer,,null,,,,,,,,,,,,,,,,,
2182.2000000178814,,unique_rating,190750,Carson City,,51,,3,,,,,,,,,,,,,,,
null,,confidence_buffer,190852,confidence_buffer,,null,,,,,,,,,,,,,,,,,
1371.0999999940395,,memorable_rating,192223,Carson City,,50,,2,,,,,,,,,,,,,,,
null,,confidence_buffer,192325,confidence_buffer,,null,,,,,,,,,,,,,,,,,
null,,thebreak,192827,break,,null,,,,,,,,,,,,,,,,,
1512.0999999940395,,familiar_rating,194339,Cambridge,,53,Cambridge,5,,,,,,,,,,,,,,,
null,,confidence_buffer,194441,confidence_buffer,,null,,,,,,,,,,,,,,,,,
2518.5999999940395,,unique_rating,196960,Cambridge,,50,,2,,,,,,,,,,,,,,,
null,,confidence_buffer,197062,confidence_buffer,,null,,,,,,,,,,,,,,,,,
1473.1000000238419,,memorable_rating,198535,Cambridge,,53,,5,,,,,,,,,,,,,,,
null,,confidence_buffer,198637,confidence_buffer,,null,,,,,,,,,,,,,,,,,
null,,thebreak,199139,break,,null,,,,,,,,,,,,,,,,,
2208.300000011921,,familiar_rating,201347,Syracuse,,52,Syracuse,4,,,,,,,,,,,,,,,
null,,confidence_buffer,201448,confidence_buffer,,null,,,,,,,,,,,,,,,,,
2351.2999999821186,,unique_rating,203800,Syracuse,,52,,4,,,,,,,,,,,,,,,
null,,confidence_buffer,203902,confidence_buffer,,null,,,,,,,,,,,,,,,,,
1753.7000000178814,,memorable_rating,205656,Syracuse,,51,,3,,,,,,,,,,,,,,,
null,,confidence_buffer,205758,confidence_buffer,,null,,,,,,,,,,,,,,,,,
1393.8999999761581,,probe_rating,207153,probe_rating,,49,,,1,1,,,,,,,,,,,,,
null,,confidence_buffer,207254,confidence_buffer,,null,,,,,,,,,,,,,,,,,
null,,thebreak,207756,break,,null,,,,,,,,,,,,,,,,,
2782.5999999940395,,familiar_rating,210539,Topeka,,50,Topeka,2,,,,,,,,,,,,,,,
null,,confidence_buffer,210640,confidence_buffer,,null,,,,,,,,,,,,,,,,,
4129,,unique_rating,214769,Topeka,,52,,4,,,,,,,,,,,,,,,
null,,confidence_buffer,214872,confidence_buffer,,null,,,,,,,,,,,,,,,,,
1641,,memorable_rating,216513,Topeka,,51,,3,,,,,,,,,,,,,,,
null,,confidence_buffer,216615,confidence_buffer,,null,,,,,,,,,,,,,,,,,
null,,thebreak,217116,break,,null,,,,,,,,,,,,,,,,,
1354.199999988079,,familiar_rating,218470,Stamford,,53,Stamford,5,,,,,,,,,,,,,,,
null,,confidence_buffer,218573,confidence_buffer,,null,,,,,,,,,,,,,,,,,
1292.199999988079,,unique_rating,219865,Stamford,,49,,1,,,,,,,,,,,,,,,
null,,confidence_buffer,219966,confidence_buffer,,null,,,,,,,,,,,,,,,,,
1867.800000011921,,memorable_rating,221834,Stamford,,51,,3,,,,,,,,,,,,,,,
null,,confidence_buffer,221937,confidence_buffer,,null,,,,,,,,,,,,,,,,,
null,,thebreak,222439,break,,null,,,,,,,,,,,,,,,,,
1768.7999999821186,,familiar_rating,224208,Marquette,,49,Marquette,1,,,,,,,,,,,,,,,
null,,confidence_buffer,224309,confidence_buffer,,null,,,,,,,,,,,,,,,,,
1968.300000011921,,unique_rating,226278,Marquette,,53,,5,,,,,,,,,,,,,,,
null,,confidence_buffer,226379,confidence_buffer,,null,,,,,,,,,,,,,,,,,
1698.2999999821186,,probe_rating,228078,probe_rating,,51,,,3,1,,,,,,,,,,,,,
null,,confidence_buffer,228180,confidence_buffer,,null,,,,,,,,,,,,,,,,,
2181.9000000059605,,memorable_rating,230362,Marquette,,52,,4,,,,,,,,,,,,,,,
null,,confidence_buffer,230464,confidence_buffer,,null,,,,,,,,,,,,,,,,,
null,,thebreak,230965,break,,null,,,,,,,,,,,,,,,,,
3671.4000000059605,,familiar_rating,234637,Rock Springs,,50,Rock Springs,2,,,,,,,,,,,,,,,
null,,confidence_buffer,234739,confidence_buffer,,null,,,,,,,,,,,,,,,,,
2575.4000000059605,,unique_rating,237315,Rock Springs,,49,,1,,,,,,,,,,,,,,,
null,,confidence_buffer,237417,confidence_buffer,,null,,,,,,,,,,,,,,,,,
3643.7999999821186,,memorable_rating,241061,Rock Springs,,51,,3,,,,,,,,,,,,,,,
null,,confidence_buffer,241163,confidence_buffer,,null,,,,,,,,,,,,,,,,,
null,,thebreak,241665,break,,null,,,,,,,,,,,,,,,,,
1465,,familiar_rating,243131,Ann Arbor,,53,Ann Arbor,5,,,,,,,,,,,,,,,
null,,confidence_buffer,243233,confidence_buffer,,null,,,,,,,,,,,,,,,,,
1799.4000000059605,,unique_rating,245032,Ann Arbor,,53,,5,,,,,,,,,,,,,,,
null,,confidence_buffer,245134,confidence_buffer,,null,,,,,,,,,,,,,,,,,
1112.7999999821186,,memorable_rating,246248,Ann Arbor,,53,,5,,,,,,,,,,,,,,,
null,,confidence_buffer,246350,confidence_buffer,,null,,,,,,,,,,,,,,,,,
null,,thebreak,246851,break,,null,,,,,,,,,,,,,,,,,
1960.7999999821186,,familiar_rating,248813,Dothan,,49,Dothan,1,,,,,,,,,,,,,,,
null,,confidence_buffer,248914,confidence_buffer,,null,,,,,,,,,,,,,,,,,
1810.5999999940395,,unique_rating,250725,Dothan,,53,,5,,,,,,,,,,,,,,,
null,,confidence_buffer,250828,confidence_buffer,,null,,,,,,,,,,,,,,,,,
3092.300000011921,,memorable_rating,253920,Dothan,,50,,2,,,,,,,,,,,,,,,
null,,confidence_buffer,254022,confidence_buffer,,null,,,,,,,,,,,,,,,,,
null,,thebreak,254524,break,,null,,,,,,,,,,,,,,,,,
1274.5,,familiar_rating,255799,Helena,,53,Helena,5,,,,,,,,,,,,,,,
null,,confidence_buffer,255900,confidence_buffer,,null,,,,,,,,,,,,,,,,,
1810.7000000178814,,unique_rating,257711,Helena,,49,,1,,,,,,,,,,,,,,,
null,,confidence_buffer,257813,confidence_buffer,,null,,,,,,,,,,,,,,,,,
1686.6000000238419,,memorable_rating,259500,Helena,,52,,4,,,,,,,,,,,,,,,
null,,confidence_buffer,259603,confidence_buffer,,null,,,,,,,,,,,,,,,,,
1382.2000000178814,,probe_rating,260985,probe_rating,,52,,,4,1,,,,,,,,,,,,,
null,,confidence_buffer,261087,confidence_buffer,,null,,,,,,,,,,,,,,,,,
null,,thebreak,261589,break,,null,,,,,,,,,,,,,,,,,
1780.9000000059605,,familiar_rating,263370,Fort Wayne,,53,Fort Wayne,5,,,,,,,,,,,,,,,
null,,confidence_buffer,263472,confidence_buffer,,null,,,,,,,,,,,,,,,,,
1798.7999999821186,,unique_rating,265271,Fort Wayne,,49,,1,,,,,,,,,,,,,,,
null,,confidence_buffer,265373,confidence_buffer,,null,,,,,,,,,,,,,,,,,
1754.2999999821186,,memorable_rating,267128,Fort Wayne,,51,,3,,,,,,,,,,,,,,,
null,,confidence_buffer,267230,confidence_buffer,,null,,,,,,,,,,,,,,,,,
null,,thebreak,267732,break,,null,,,,,,,,,,,,,,,,,
3096.7999999821186,,familiar_rating,270829,Yakima,,49,Yakima,1,,,,,,,,,,,,,,,
null,,confidence_buffer,270931,confidence_buffer,,null,,,,,,,,,,,,,,,,,
2091.0999999940395,,unique_rating,273023,Yakima,,53,,5,,,,,,,,,,,,,,,
null,,confidence_buffer,273124,confidence_buffer,,null,,,,,,,,,,,,,,,,,
1765.699999988079,,memorable_rating,274891,Yakima,,52,,4,,,,,,,,,,,,,,,
null,,confidence_buffer,274992,confidence_buffer,,null,,,,,,,,,,,,,,,,,
null,,thebreak,275494,break,,null,,,,,,,,,,,,,,,,,
11389.09999999404,,intro_0,286884,instruct,,32,,,,,,,,,,,,,,,,,
9652.199999988079,,intro_1,296536,instruct,,32,,,,,,,,,,,,,,,,,
13398.40000000596,,intro_2,309935,instruct,,32,,,,,,,,,,,,,,,,,
null,,instruct_dir_4,311436,instruct,,null,,,,,,,,,,,,,,,,,
7408.4000000059605,,realistic_rating,318845,McKinney,,53,McKinney,5,,,,,,,,,,,,,,,
null,,confidence_buffer,318946,confidence_buffer,,null,,,,,,,,,,,,,,,,,
4680.800000011921,,pt2_unique_rating,323627,McKinney,,52,,4,,,,,,,,,,,,,,,
null,,confidence_buffer,323728,confidence_buffer,,null,,,,,,,,,,,,,,,,,
2766.9000000059605,,pt2_memorable_rating,326495,McKinney,,52,,4,,,,,,,,,,,,,,,
null,,confidence_buffer,326596,confidence_buffer,,null,,,,,,,,,,,,,,,,,
1980.1000000238419,,recognition_phase,328577,McKinney,,52,,,,,new,1,1,,,,,,,,,,
null,,confidence_buffer,328679,confidence_buffer,,null,,,,,,,,,,,,,,,,,
null,,thebreak,329181,break,,null,,,,,,,,,,,,,,,,,
3658.9000000059605,,realistic_rating,332840,Frankfort,,53,Frankfort,5,,,,,,,,,,,,,,,
null,,confidence_buffer,332943,confidence_buffer,,null,,,,,,,,,,,,,,,,,
1764.9000000059605,,pt2_unique_rating,334708,Frankfort,,49,,1,,,,,,,,,,,,,,,
null,,confidence_buffer,334809,confidence_buffer,,null,,,,,,,,,,,,,,,,,
1945.9000000059605,,pt2_memorable_rating,336755,Frankfort,,52,,4,,,,,,,,,,,,,,,
null,,confidence_buffer,336857,confidence_buffer,,null,,,,,,,,,,,,,,,,,
1529.6000000238419,,recognition_phase,338387,Frankfort,,52,,,,,new,1,1,,,,,,,,,,
null,,confidence_buffer,338489,confidence_buffer,,null,,,,,,,,,,,,,,,,,
null,,thebreak,338991,break,,null,,,,,,,,,,,,,,,,,
4097.800000011921,,realistic_rating,343089,Bozeman,,51,Bozeman,3,,,,,,,,,,,,,,,
null,,confidence_buffer,343190,confidence_buffer,,null,,,,,,,,,,,,,,,,,
3881.5999999940395,,pt2_unique_rating,347072,Bozeman,,52,,4,,,,,,,,,,,,,,,
null,,confidence_buffer,347173,confidence_buffer,,null,,,,,,,,,,,,,,,,,
4129,,pt2_memorable_rating,351302,Bozeman,,52,,4,,,,,,,,,,,,,,,
null,,confidence_buffer,351405,confidence_buffer,,null,,,,,,,,,,,,,,,,,
1921.9000000059605,,probe_rating,353327,probe_rating,,51,,,3,1,,,,,,,,,,,,,
null,,confidence_buffer,353429,confidence_buffer,,null,,,,,,,,,,,,,,,,,
1810.199999988079,,recognition_phase,355240,Bozeman,,52,,,,,new,1,1,,,,,,,,,,
null,,confidence_buffer,355341,confidence_buffer,,null,,,,,,,,,,,,,,,,,
null,,thebreak,355843,break,,null,,,,,,,,,,,,,,,,,
2299.5,,realistic_rating,358143,Stamford,,53,Stamford,5,,,,,,,,,,,,,,,
null,,confidence_buffer,358245,confidence_buffer,,null,,,,,,,,,,,,,,,,,
1539.5999999940395,,pt2_unique_rating,359785,Stamford,,49,,1,,,,,,,,,,,,,,,
null,,confidence_buffer,359887,confidence_buffer,,null,,,,,,,,,,,,,,,,,
2631,,pt2_memorable_rating,362518,Stamford,,51,,3,,,,,,,,,,,,,,,
null,,confidence_buffer,362620,confidence_buffer,,null,,,,,,,,,,,,,,,,,
1630.4000000059605,,recognition_phase,364251,Stamford,,49,,,,,old,1,1,,,,,,,,,,
null,,confidence_buffer,364353,confidence_buffer,,null,,,,,,,,,,,,,,,,,
null,,thebreak,364854,break,,null,,,,,,,,,,,,,,,,,
2884.0999999940395,,realistic_rating,367738,Montpelier,,53,Montpelier,5,,,,,,,,,,,,,,,
null,,confidence_buffer,367841,confidence_buffer,,null,,,,,,,,,,,,,,,,,
2563.5,,pt2_unique_rating,370405,Montpelier,,52,,4,,,,,,,,,,,,,,,
null,,confidence_buffer,370507,confidence_buffer,,null,,,,,,,,,,,,,,,,,
2710.2000000178814,,pt2_memorable_rating,373218,Montpelier,,53,,5,,,,,,,,,,,,,,,
null,,confidence_buffer,373319,confidence_buffer,,null,,,,,,,,,,,,,,,,,
2856.5999999940395,,recognition_phase,376176,Montpelier,,49,,,,,old,1,1,,,,,,,,,,
null,,confidence_buffer,376278,confidence_buffer,,null,,,,,,,,,,,,,,,,,
null,,thebreak,376780,break,,null,,,,,,,,,,,,,,,,,
2793.5999999940395,,realistic_rating,379574,Abilene,,51,Abilene,3,,,,,,,,,,,,,,,
null,,confidence_buffer,379675,confidence_buffer,,null,,,,,,,,,,,,,,,,,
3307.5,,pt2_unique_rating,382983,Abilene,,50,,2,,,,,,,,,,,,,,,
null,,confidence_buffer,383085,confidence_buffer,,null,,,,,,,,,,,,,,,,,
2642.800000011921,,pt2_memorable_rating,385728,Abilene,,51,,3,,,,,,,,,,,,,,,
null,,confidence_buffer,385830,confidence_buffer,,null,,,,,,,,,,,,,,,,,
1810,,recognition_phase,387640,Abilene,,52,,,,,new,1,1,,,,,,,,,,
null,,confidence_buffer,387741,confidence_buffer,,null,,,,,,,,,,,,,,,,,
null,,thebreak,388243,break,,null,,,,,,,,,,,,,,,,,
2670.0999999940395,,realistic_rating,390914,Pueblo,,53,Pueblo,5,,,,,,,,,,,,,,,
null,,confidence_buffer,391015,confidence_buffer,,null,,,,,,,,,,,,,,,,,
2463.9000000059605,,pt2_unique_rating,393479,Pueblo,,50,,2,,,,,,,,,,,,,,,
null,,confidence_buffer,393580,confidence_buffer,,null,,,,,,,,,,,,,,,,,
1597.300000011921,,pt2_memorable_rating,395178,Pueblo,,51,,3,,,,,,,,,,,,,,,
null,,confidence_buffer,395279,confidence_buffer,,null,,,,,,,,,,,,,,,,,
1473.5999999940395,,recognition_phase,396753,Pueblo,,52,,,,,new,1,1,,,,,,,,,,
null,,confidence_buffer,396855,confidence_buffer,,null,,,,,,,,,,,,,,,,,
null,,thebreak,397356,break,,null,,,,,,,,,,,,,,,,,
2243.0999999940395,,realistic_rating,399599,Toledo,,53,Toledo,5,,,,,,,,,,,,,,,
null,,confidence_buffer,399701,confidence_buffer,,null,,,,,,,,,,,,,,,,,
1664.300000011921,,pt2_unique_rating,401366,Toledo,,50,,2,,,,,,,,,,,,,,,
null,,confidence_buffer,401468,confidence_buffer,,null,,,,,,,,,,,,,,,,,
1888.5999999940395,,probe_rating,403357,probe_rating,,50,,,2,1,,,,,,,,,,,,,
null,,confidence_buffer,403458,confidence_buffer,,null,,,,,,,,,,,,,,,,,
3194.800000011921,,pt2_memorable_rating,406653,Toledo,,52,,4,,,,,,,,,,,,,,,
null,,confidence_buffer,406755,confidence_buffer,,null,,,,,,,,,,,,,,,,,
2282.300000011921,,recognition_phase,409038,Toledo,,50,,,,,old,0,0.875,,,,,,,,,,
null,,confidence_buffer,409140,confidence_buffer,,null,,,,,,,,,,,,,,,,,
null,,thebreak,409641,break,,null,,,,,,,,,,,,,,,,,
2141.0999999940395,,realistic_rating,411783,Rock Springs,,53,Rock Springs,5,,,,,,,,,,,,,,,
null,,confidence_buffer,411885,confidence_buffer,,null,,,,,,,,,,,,,,,,,
1855.199999988079,,pt2_unique_rating,413741,Rock Springs,,49,,1,,,,,,,,,,,,,,,
null,,confidence_buffer,413842,confidence_buffer,,null,,,,,,,,,,,,,,,,,
2362.0999999940395,,pt2_memorable_rating,416204,Rock Springs,,52,,4,,,,,,,,,,,,,,,
null,,confidence_buffer,416307,confidence_buffer,,null,,,,,,,,,,,,,,,,,
1529.0999999940395,,recognition_phase,417836,Rock Springs,,49,,,,,old,1,0.8888888888888888,,,,,,,,,,
null,,confidence_buffer,417939,confidence_buffer,,null,,,,,,,,,,,,,,,,,
null,,thebreak,418439,break,,null,,,,,,,,,,,,,,,,,
2512.4000000059605,,realistic_rating,420952,Syracuse,,53,Syracuse,5,,,,,,,,,,,,,,,
null,,confidence_buffer,421054,confidence_buffer,,null,,,,,,,,,,,,,,,,,
1315.199999988079,,probe_rating,422370,probe_rating,,53,,,5,1,,,,,,,,,,,,,
null,,confidence_buffer,422472,confidence_buffer,,null,,,,,,,,,,,,,,,,,
4217.5,,pt2_unique_rating,426690,Syracuse,,50,,2,,,,,,,,,,,,,,,
null,,confidence_buffer,426792,confidence_buffer,,null,,,,,,,,,,,,,,,,,
3295.2999999821186,,pt2_memorable_rating,430087,Syracuse,,53,,5,,,,,,,,,,,,,,,
null,,confidence_buffer,430189,confidence_buffer,,null,,,,,,,,,,,,,,,,,
1788.199999988079,,recognition_phase,431977,Syracuse,,49,,,,,old,1,0.9,,,,,,,,,,
null,,confidence_buffer,432079,confidence_buffer,,null,,,,,,,,,,,,,,,,,
null,,thebreak,432581,break,,null,,,,,,,,,,,,,,,,,
2186.199999988079,,realistic_rating,434767,Boise,,53,Boise,5,,,,,,,,,,,,,,,
null,,confidence_buffer,434868,confidence_buffer,,null,,,,,,,,,,,,,,,,,
3071.5999999940395,,pt2_unique_rating,437940,Boise,,52,,4,,,,,,,,,,,,,,,
null,,confidence_buffer,438041,confidence_buffer,,null,,,,,,,,,,,,,,,,,
1889.800000011921,,pt2_memorable_rating,439932,Boise,,52,,4,,,,,,,,,,,,,,,
null,,confidence_buffer,440034,confidence_buffer,,null,,,,,,,,,,,,,,,,,
1787.0999999940395,,recognition_phase,441821,Boise,,52,,,,,new,1,0.9090909090909091,,,,,,,,,,
null,,confidence_buffer,441924,confidence_buffer,,null,,,,,,,,,,,,,,,,,
null,,thebreak,442425,break,,null,,,,,,,,,,,,,,,,,
1881.6000000238419,,realistic_rating,444308,Burlington,,53,Burlington,5,,,,,,,,,,,,,,,
null,,confidence_buffer,444410,confidence_buffer,,null,,,,,,,,,,,,,,,,,
4250.899999976158,,pt2_unique_rating,448661,Burlington,,50,,2,,,,,,,,,,,,,,,
null,,confidence_buffer,448764,confidence_buffer,,null,,,,,,,,,,,,,,,,,
1652.7999999821186,,pt2_memorable_rating,450417,Burlington,,52,,4,,,,,,,,,,,,,,,
null,,confidence_buffer,450519,confidence_buffer,,null,,,,,,,,,,,,,,,,,
1809.9000000059605,,recognition_phase,452329,Burlington,,49,,,,,old,1,0.9166666666666666,,,,,,,,,,
null,,confidence_buffer,452432,confidence_buffer,,null,,,,,,,,,,,,,,,,,
null,,thebreak,452933,break,,null,,,,,,,,,,,,,,,,,
1950.0999999940395,,realistic_rating,454883,Salem,,53,Salem,5,,,,,,,,,,,,,,,
null,,confidence_buffer,454984,confidence_buffer,,null,,,,,,,,,,,,,,,,,
2857.5,,pt2_unique_rating,457842,Salem,,49,,1,,,,,,,,,,,,,,,
null,,confidence_buffer,457944,confidence_buffer,,null,,,,,,,,,,,,,,,,,
1945.2000000178814,,pt2_memorable_rating,459889,Salem,,53,,5,,,,,,,,,,,,,,,
null,,confidence_buffer,459992,confidence_buffer,,null,,,,,,,,,,,,,,,,,
1753.5,,recognition_phase,461745,Salem,,52,,,,,new,1,0.9230769230769231,,,,,,,,,,
null,,confidence_buffer,461847,confidence_buffer,,null,,,,,,,,,,,,,,,,,
null,,thebreak,462348,break,,null,,,,,,,,,,,,,,,,,
6068.5,,realistic_rating,468417,Ithaca,,53,Ithaca,5,,,,,,,,,,,,,,,
null,,confidence_buffer,468519,confidence_buffer,,null,,,,,,,,,,,,,,,,,
2642.5,,pt2_unique_rating,471162,Ithaca,,52,,4,,,,,,,,,,,,,,,
null,,confidence_buffer,471264,confidence_buffer,,null,,,,,,,,,,,,,,,,,
1877.699999988079,,pt2_memorable_rating,473142,Ithaca,,52,,4,,,,,,,,,,,,,,,
null,,confidence_buffer,473244,confidence_buffer,,null,,,,,,,,,,,,,,,,,
1562.199999988079,,recognition_phase,474807,Ithaca,,52,,,,,new,1,0.9285714285714286,,,,,,,,,,
null,,confidence_buffer,474909,confidence_buffer,,null,,,,,,,,,,,,,,,,,
null,,thebreak,475411,break,,null,,,,,,,,,,,,,,,,,
3412.399999976158,,realistic_rating,478823,Scottsdale,,53,Scottsdale,5,,,,,,,,,,,,,,,
null,,confidence_buffer,478925,confidence_buffer,,null,,,,,,,,,,,,,,,,,
1832.7999999821186,,pt2_unique_rating,480758,Scottsdale,,51,,3,,,,,,,,,,,,,,,
null,,confidence_buffer,480860,confidence_buffer,,null,,,,,,,,,,,,,,,,,
1517.800000011921,,pt2_memorable_rating,482379,Scottsdale,,52,,4,,,,,,,,,,,,,,,
null,,confidence_buffer,482480,confidence_buffer,,null,,,,,,,,,,,,,,,,,
1968,,recognition_phase,484448,Scottsdale,,49,,,,,old,1,0.9333333333333333,,,,,,,,,,
null,,confidence_buffer,484551,confidence_buffer,,null,,,,,,,,,,,,,,,,,
null,,thebreak,485053,break,,null,,,,,,,,,,,,,,,,,
2174.199999988079,,realistic_rating,487227,Berkeley,,53,Berkeley,5,,,,,,,,,,,,,,,
null,,confidence_buffer,487329,confidence_buffer,,null,,,,,,,,,,,,,,,,,
2339,,pt2_unique_rating,489669,Berkeley,,50,,2,,,,,,,,,,,,,,,
null,,confidence_buffer,489771,confidence_buffer,,null,,,,,,,,,,,,,,,,,
1753.4000000059605,,pt2_memorable_rating,491525,Berkeley,,53,,5,,,,,,,,,,,,,,,
null,,confidence_buffer,491627,confidence_buffer,,null,,,,,,,,,,,,,,,,,
1663.699999988079,,recognition_phase,493291,Berkeley,,52,,,,,new,1,0.9375,,,,,,,,,,
null,,confidence_buffer,493392,confidence_buffer,,null,,,,,,,,,,,,,,,,,
null,,thebreak,493894,break,,null,,,,,,,,,,,,,,,,,
2805.4000000059605,,realistic_rating,496700,Las Cruces,,53,Las Cruces,5,,,,,,,,,,,,,,,
null,,confidence_buffer,496802,confidence_buffer,,null,,,,,,,,,,,,,,,,,
2946.199999988079,,pt2_unique_rating,499749,Las Cruces,,52,,4,,,,,,,,,,,,,,,
null,,confidence_buffer,499850,confidence_buffer,,null,,,,,,,,,,,,,,,,,
2215.5,,pt2_memorable_rating,502066,Las Cruces,,51,,3,,,,,,,,,,,,,,,
null,,confidence_buffer,502168,confidence_buffer,,null,,,,,,,,,,,,,,,,,
2957.5999999940395,,recognition_phase,505126,Las Cruces,,49,,,,,old,1,0.9411764705882353,,,,,,,,,,
null,,confidence_buffer,505228,confidence_buffer,,null,,,,,,,,,,,,,,,,,
null,,thebreak,505730,break,,null,,,,,,,,,,,,,,,,,
1893.2999999821186,,realistic_rating,507624,Palo Alto,,53,Palo Alto,5,,,,,,,,,,,,,,,
null,,confidence_buffer,507725,confidence_buffer,,null,,,,,,,,,,,,,,,,,
2159.9000000059605,,pt2_unique_rating,509885,Palo Alto,,50,,2,,,,,,,,,,,,,,,
null,,confidence_buffer,509988,confidence_buffer,,null,,,,,,,,,,,,,,,,,
1686,,pt2_memorable_rating,511674,Palo Alto,,51,,3,,,,,,,,,,,,,,,
null,,confidence_buffer,511776,confidence_buffer,,null,,,,,,,,,,,,,,,,,
1663.800000011921,,recognition_phase,513441,Palo Alto,,49,,,,,old,1,0.9444444444444444,,,,,,,,,,
null,,confidence_buffer,513542,confidence_buffer,,null,,,,,,,,,,,,,,,,,
null,,thebreak,514044,break,,null,,,,,,,,,,,,,,,,,
1747.2000000178814,,realistic_rating,515792,Reno,,53,Reno,5,,,,,,,,,,,,,,,
null,,confidence_buffer,515893,confidence_buffer,,null,,,,,,,,,,,,,,,,,
2170.5,,pt2_unique_rating,518064,Reno,,52,,4,,,,,,,,,,,,,,,
null,,confidence_buffer,518166,confidence_buffer,,null,,,,,,,,,,,,,,,,,
1832.9000000059605,,pt2_memorable_rating,519999,Reno,,53,,5,,,,,,,,,,,,,,,
null,,confidence_buffer,520100,confidence_buffer,,null,,,,,,,,,,,,,,,,,
2003,,recognition_phase,522103,Reno,,52,,,,,new,1,0.9473684210526315,,,,,,,,,,
null,,confidence_buffer,522205,confidence_buffer,,null,,,,,,,,,,,,,,,,,
null,,thebreak,522707,break,,null,,,,,,,,,,,,,,,,,
3648.5999999940395,,realistic_rating,526356,Dothan,,50,Dothan,2,,,,,,,,,,,,,,,
null,,confidence_buffer,526458,confidence_buffer,,null,,,,,,,,,,,,,,,,,
2563.5,,pt2_unique_rating,529022,Dothan,,52,,4,,,,,,,,,,,,,,,
null,,confidence_buffer,529123,confidence_buffer,,null,,,,,,,,,,,,,,,,,
1754.7999999821186,,pt2_memorable_rating,530878,Dothan,,51,,3,,,,,,,,,,,,,,,
null,,confidence_buffer,530980,confidence_buffer,,null,,,,,,,,,,,,,,,,,
1595.8999999761581,,recognition_phase,532577,Dothan,,49,,,,,old,1,0.95,,,,,,,,,,
null,,confidence_buffer,532679,confidence_buffer,,null,,,,,,,,,,,,,,,,,
null,,thebreak,533181,break,,null,,,,,,,,,,,,,,,,,
1814.800000011921,,realistic_rating,534996,Boulder,,53,Boulder,5,,,,,,,,,,,,,,,
null,,confidence_buffer,535098,confidence_buffer,,null,,,,,,,,,,,,,,,,,
2924.0999999940395,,pt2_unique_rating,538022,Boulder,,52,,4,,,,,,,,,,,,,,,
null,,confidence_buffer,538123,confidence_buffer,,null,,,,,,,,,,,,,,,,,
1327.699999988079,,pt2_memorable_rating,539451,Boulder,,52,,4,,,,,,,,,,,,,,,
null,,confidence_buffer,539554,confidence_buffer,,null,,,,,,,,,,,,,,,,,
2102.199999988079,,recognition_phase,541656,Boulder,,52,,,,,new,1,0.9523809523809523,,,,,,,,,,
null,,confidence_buffer,541759,confidence_buffer,,null,,,,,,,,,,,,,,,,,
null,,thebreak,542261,break,,null,,,,,,,,,,,,,,,,,
5435.799999982119,,realistic_rating,547697,Helena,,53,Helena,5,,,,,,,,,,,,,,,
null,,confidence_buffer,547799,confidence_buffer,,null,,,,,,,,,,,,,,,,,
1889.0999999940395,,pt2_unique_rating,549689,Helena,,49,,1,,,,,,,,,,,,,,,
null,,confidence_buffer,549791,confidence_buffer,,null,,,,,,,,,,,,,,,,,
1934,,pt2_memorable_rating,551725,Helena,,52,,4,,,,,,,,,,,,,,,
null,,confidence_buffer,551826,confidence_buffer,,null,,,,,,,,,,,,,,,,,
1495.3999999761581,,recognition_phase,553322,Helena,,49,,,,,old,1,0.9545454545454546,,,,,,,,,,
null,,confidence_buffer,553425,confidence_buffer,,null,,,,,,,,,,,,,,,,,
null,,thebreak,553926,break,,null,,,,,,,,,,,,,,,,,
2928.300000011921,,realistic_rating,556855,Altoona,,50,Altoona,2,,,,,,,,,,,,,,,
null,,confidence_buffer,556956,confidence_buffer,,null,,,,,,,,,,,,,,,,,
2519.7999999821186,,pt2_unique_rating,559476,Altoona,,52,,4,,,,,,,,,,,,,,,
null,,confidence_buffer,559577,confidence_buffer,,null,,,,,,,,,,,,,,,,,
1338.4000000059605,,probe_rating,560916,probe_rating,,49,,,1,1,,,,,,,,,,,,,
null,,confidence_buffer,561018,confidence_buffer,,null,,,,,,,,,,,,,,,,,
3070.699999988079,,pt2_memorable_rating,564089,Altoona,,51,,3,,,,,,,,,,,,,,,
null,,confidence_buffer,564191,confidence_buffer,,null,,,,,,,,,,,,,,,,,
1945.4000000059605,,recognition_phase,566137,Altoona,,52,,,,,new,1,0.9565217391304348,,,,,,,,,,
null,,confidence_buffer,566239,confidence_buffer,,null,,,,,,,,,,,,,,,,,
null,,thebreak,566741,break,,null,,,,,,,,,,,,,,,,,
2488.5999999940395,,realistic_rating,569230,Marquette,,52,Marquette,4,,,,,,,,,,,,,,,
null,,confidence_buffer,569333,confidence_buffer,,null,,,,,,,,,,,,,,,,,
2192.199999988079,,pt2_unique_rating,571525,Marquette,,52,,4,,,,,,,,,,,,,,,
null,,confidence_buffer,571627,confidence_buffer,,null,,,,,,,,,,,,,,,,,
1484.2999999821186,,pt2_memorable_rating,573112,Marquette,,51,,3,,,,,,,,,,,,,,,
null,,confidence_buffer,573214,confidence_buffer,,null,,,,,,,,,,,,,,,,,
1585.2999999821186,,probe_rating,574799,probe_rating,,50,,,2,1,,,,,,,,,,,,,
null,,confidence_buffer,574900,confidence_buffer,,null,,,,,,,,,,,,,,,,,
1709.7000000178814,,recognition_phase,576610,Marquette,,52,,,,,new,0,0.9166666666666666,,,,,,,,,,
null,,confidence_buffer,576712,confidence_buffer,,null,,,,,,,,,,,,,,,,,
null,,thebreak,577214,break,,null,,,,,,,,,,,,,,,,,
7113.5,,realistic_rating,584328,Youngstown,,53,Youngstown,5,,,,,,,,,,,,,,,
null,,confidence_buffer,584430,confidence_buffer,,null,,,,,,,,,,,,,,,,,
2901.7000000178814,,pt2_unique_rating,587332,Youngstown,,52,,4,,,,,,,,,,,,,,,
null,,confidence_buffer,587433,confidence_buffer,,null,,,,,,,,,,,,,,,,,
1271.300000011921,,pt2_memorable_rating,588705,Youngstown,,52,,4,,,,,,,,,,,,,,,
null,,confidence_buffer,588806,confidence_buffer,,null,,,,,,,,,,,,,,,,,
1866.4000000059605,,recognition_phase,590673,Youngstown,,52,,,,,new,1,0.92,,,,,,,,,,
null,,confidence_buffer,590775,confidence_buffer,,null,,,,,,,,,,,,,,,,,
null,,thebreak,591276,break,,null,,,,,,,,,,,,,,,,,
2063.100000023842,,realistic_rating,593340,Peoria,,53,Peoria,5,,,,,,,,,,,,,,,
null,,confidence_buffer,593441,confidence_buffer,,null,,,,,,,,,,,,,,,,,
2496.5999999940395,,pt2_unique_rating,595938,Peoria,,52,,4,,,,,,,,,,,,,,,
null,,confidence_buffer,596040,confidence_buffer,,null,,,,,,,,,,,,,,,,,
1146.5999999940395,,pt2_memorable_rating,597187,Peoria,,52,,4,,,,,,,,,,,,,,,
null,,confidence_buffer,597288,confidence_buffer,,null,,,,,,,,,,,,,,,,,
1642.6000000238419,,recognition_phase,598931,Peoria,,49,,,,,old,1,0.9230769230769231,,,,,,,,,,
null,,confidence_buffer,599032,confidence_buffer,,null,,,,,,,,,,,,,,,,,
null,,thebreak,599534,break,,null,,,,,,,,,,,,,,,,,
2794.2000000178814,,realistic_rating,602328,Tallahassee,,53,Tallahassee,5,,,,,,,,,,,,,,,
null,,confidence_buffer,602430,confidence_buffer,,null,,,,,,,,,,,,,,,,,
7345.5999999940395,,pt2_unique_rating,609776,Tallahassee,,52,,4,,,,,,,,,,,,,,,
null,,confidence_buffer,609878,confidence_buffer,,null,,,,,,,,,,,,,,,,,
1787.5,,pt2_memorable_rating,611666,Tallahassee,,53,,5,,,,,,,,,,,,,,,
null,,confidence_buffer,611768,confidence_buffer,,null,,,,,,,,,,,,,,,,,
1754.3999999761581,,recognition_phase,613523,Tallahassee,,52,,,,,new,1,0.9259259259259259,,,,,,,,,,
null,,confidence_buffer,613625,confidence_buffer,,null,,,,,,,,,,,,,,,,,
null,,thebreak,614125,break,,null,,,,,,,,,,,,,,,,,
1804.7000000178814,,realistic_rating,615930,Ann Arbor,,53,Ann Arbor,5,,,,,,,,,,,,,,,
null,,confidence_buffer,616032,confidence_buffer,,null,,,,,,,,,,,,,,,,,
1281.2999999821186,,pt2_unique_rating,617314,Ann Arbor,,49,,1,,,,,,,,,,,,,,,
null,,confidence_buffer,617416,confidence_buffer,,null,,,,,,,,,,,,,,,,,
2507.600000023842,,pt2_memorable_rating,619924,Ann Arbor,,52,,4,,,,,,,,,,,,,,,
null,,confidence_buffer,620026,confidence_buffer,,null,,,,,,,,,,,,,,,,,
1461.5,,recognition_phase,621488,Ann Arbor,,49,,,,,old,1,0.9285714285714286,,,,,,,,,,
null,,confidence_buffer,621590,confidence_buffer,,null,,,,,,,,,,,,,,,,,
null,,thebreak,622092,break,,null,,,,,,,,,,,,,,,,,
4581.199999988079,,realistic_rating,626674,Terre Haute,,50,Terre Haute,2,,,,,,,,,,,,,,,
null,,confidence_buffer,626775,confidence_buffer,,null,,,,,,,,,,,,,,,,,
3059.9000000059605,,pt2_unique_rating,629835,Terre Haute,,52,,4,,,,,,,,,,,,,,,
null,,confidence_buffer,629936,confidence_buffer,,null,,,,,,,,,,,,,,,,,
1237.4000000059605,,probe_rating,631174,probe_rating,,52,,,4,1,,,,,,,,,,,,,
null,,confidence_buffer,631275,confidence_buffer,,null,,,,,,,,,,,,,,,,,
2340.300000011921,,pt2_memorable_rating,633615,Terre Haute,,50,,2,,,,,,,,,,,,,,,
null,,confidence_buffer,633716,confidence_buffer,,null,,,,,,,,,,,,,,,,,
1855.9000000059605,,recognition_phase,635573,Terre Haute,,49,,,,,old,1,0.9310344827586207,,,,,,,,,,
null,,confidence_buffer,635675,confidence_buffer,,null,,,,,,,,,,,,,,,,,
null,,thebreak,636177,break,,null,,,,,,,,,,,,,,,,,
2534.0999999940395,,realistic_rating,638711,Hagerstown,,51,Hagerstown,3,,,,,,,,,,,,,,,
null,,confidence_buffer,638813,confidence_buffer,,null,,,,,,,,,,,,,,,,,
1462,,pt2_unique_rating,640276,Hagerstown,,52,,4,,,,,,,,,,,,,,,
null,,confidence_buffer,640378,confidence_buffer,,null,,,,,,,,,,,,,,,,,
1832.4000000059605,,pt2_memorable_rating,642211,Hagerstown,,51,,3,,,,,,,,,,,,,,,
null,,confidence_buffer,642312,confidence_buffer,,null,,,,,,,,,,,,,,,,,
1765.7000000178814,,recognition_phase,644078,Hagerstown,,49,,,,,old,1,0.9333333333333333,,,,,,,,,,
null,,confidence_buffer,644179,confidence_buffer,,null,,,,,,,,,,,,,,,,,
null,,thebreak,644682,break,,null,,,,,,,,,,,,,,,,,
3198.5,,realistic_rating,647881,Dubuque,,49,Dubuque,1,,,,,,,,,,,,,,,
null,,confidence_buffer,647983,confidence_buffer,,null,,,,,,,,,,,,,,,,,
2349.5999999940395,,pt2_unique_rating,650333,Dubuque,,53,,5,,,,,,,,,,,,,,,
null,,confidence_buffer,650434,confidence_buffer,,null,,,,,,,,,,,,,,,,,
1586.300000011921,,pt2_memorable_rating,652021,Dubuque,,52,,4,,,,,,,,,,,,,,,
null,,confidence_buffer,652124,confidence_buffer,,null,,,,,,,,,,,,,,,,,
1910.699999988079,,recognition_phase,654035,Dubuque,,49,,,,,old,0,0.9032258064516129,,,,,,,,,,
null,,confidence_buffer,654137,confidence_buffer,,null,,,,,,,,,,,,,,,,,
null,,thebreak,654638,break,,null,,,,,,,,,,,,,,,,,
3513.2000000178814,,realistic_rating,658152,Yakima,,51,Yakima,3,,,,,,,,,,,,,,,
null,,confidence_buffer,658254,confidence_buffer,,null,,,,,,,,,,,,,,,,,
1945.199999988079,,pt2_unique_rating,660200,Yakima,,52,,4,,,,,,,,,,,,,,,
null,,confidence_buffer,660302,confidence_buffer,,null,,,,,,,,,,,,,,,,,
2934.7999999821186,,pt2_memorable_rating,663237,Yakima,,50,,2,,,,,,,,,,,,,,,
null,,confidence_buffer,663340,confidence_buffer,,null,,,,,,,,,,,,,,,,,
1776.300000011921,,probe_rating,665116,probe_rating,,53,,,5,1,,,,,,,,,,,,,
null,,confidence_buffer,665218,confidence_buffer,,null,,,,,,,,,,,,,,,,,
2608.5999999940395,,recognition_phase,667827,Yakima,,49,,,,,old,1,0.90625,,,,,,,,,,
null,,confidence_buffer,667930,confidence_buffer,,null,,,,,,,,,,,,,,,,,
null,,thebreak,668431,break,,null,,,,,,,,,,,,,,,,,
7338.5999999940395,,realistic_rating,675770,Olympia,,53,Olympia,5,,,,,,,,,,,,,,,
null,,confidence_buffer,675871,confidence_buffer,,null,,,,,,,,,,,,,,,,,
2070.199999988079,,probe_rating,677941,probe_rating,,51,,,3,1,,,,,,,,,,,,,
null,,confidence_buffer,678042,confidence_buffer,,null,,,,,,,,,,,,,,,,,
3352.4000000059605,,pt2_unique_rating,681395,Olympia,,50,,2,,,,,,,,,,,,,,,
null,,confidence_buffer,681497,confidence_buffer,,null,,,,,,,,,,,,,,,,,
1651.9000000059605,,pt2_memorable_rating,683150,Olympia,,53,,5,,,,,,,,,,,,,,,
null,,confidence_buffer,683251,confidence_buffer,,null,,,,,,,,,,,,,,,,,
2440.7999999821186,,recognition_phase,685693,Olympia,,51,,,,,new,1,0.9090909090909091,,,,,,,,,,
null,,confidence_buffer,685795,confidence_buffer,,null,,,,,,,,,,,,,,,,,
null,,thebreak,686296,break,,null,,,,,,,,,,,,,,,,,
4199.699999988079,,realistic_rating,690497,Carson City,,51,Carson City,3,,,,,,,,,,,,,,,
null,,confidence_buffer,690598,confidence_buffer,,null,,,,,,,,,,,,,,,,,
3508.9000000059605,,pt2_unique_rating,694108,Carson City,,50,,2,,,,,,,,,,,,,,,
null,,confidence_buffer,694210,confidence_buffer,,null,,,,,,,,,,,,,,,,,
1202.6000000238419,,pt2_memorable_rating,695413,Carson City,,50,,2,,,,,,,,,,,,,,,
null,,confidence_buffer,695513,confidence_buffer,,null,,,,,,,,,,,,,,,,,
1597.699999988079,,recognition_phase,697112,Carson City,,49,,,,,old,1,0.9117647058823529,,,,,,,,,,
null,,confidence_buffer,697214,confidence_buffer,,null,,,,,,,,,,,,,,,,,
null,,thebreak,697716,break,,null,,,,,,,,,,,,,,,,,
1533.300000011921,,realistic_rating,699249,Pasadena,,53,Pasadena,5,,,,,,,,,,,,,,,
null,,confidence_buffer,699352,confidence_buffer,,null,,,,,,,,,,,,,,,,,
2563.0999999940395,,pt2_unique_rating,701915,Pasadena,,50,,2,,,,,,,,,,,,,,,
null,,confidence_buffer,702017,confidence_buffer,,null,,,,,,,,,,,,,,,,,
1709.199999988079,,pt2_memorable_rating,703727,Pasadena,,52,,4,,,,,,,,,,,,,,,
null,,confidence_buffer,703829,confidence_buffer,,null,,,,,,,,,,,,,,,,,
1573.4000000059605,,recognition_phase,705403,Pasadena,,49,,,,,old,1,0.9142857142857143,,,,,,,,,,
null,,confidence_buffer,705505,confidence_buffer,,null,,,,,,,,,,,,,,,,,
null,,thebreak,706007,break,,null,,,,,,,,,,,,,,,,,
1679.7000000178814,,realistic_rating,707687,Norfolk,,53,Norfolk,5,,,,,,,,,,,,,,,
null,,confidence_buffer,707789,confidence_buffer,,null,,,,,,,,,,,,,,,,,
3238.9000000059605,,pt2_unique_rating,711028,Norfolk,,51,,3,,,,,,,,,,,,,,,
null,,confidence_buffer,711130,confidence_buffer,,null,,,,,,,,,,,,,,,,,
2957.800000011921,,pt2_memorable_rating,714088,Norfolk,,50,,2,,,,,,,,,,,,,,,
null,,confidence_buffer,714191,confidence_buffer,,null,,,,,,,,,,,,,,,,,
1966.8999999761581,,recognition_phase,716158,Norfolk,,52,,,,,new,1,0.9166666666666666,,,,,,,,,,
null,,confidence_buffer,716260,confidence_buffer,,null,,,,,,,,,,,,,,,,,
null,,thebreak,716762,break,,null,,,,,,,,,,,,,,,,,
2005.9000000059605,,realistic_rating,718768,Fort Wayne,,53,Fort Wayne,5,,,,,,,,,,,,,,,
null,,confidence_buffer,718870,confidence_buffer,,null,,,,,,,,,,,,,,,,,
1416.5999999940395,,probe_rating,720287,probe_rating,,53,,,5,1,,,,,,,,,,,,,
null,,confidence_buffer,720389,confidence_buffer,,null,,,,,,,,,,,,,,,,,
4431.199999988079,,pt2_unique_rating,724821,Fort Wayne,,52,,4,,,,,,,,,,,,,,,
null,,confidence_buffer,724922,confidence_buffer,,null,,,,,,,,,,,,,,,,,
1327.5999999940395,,pt2_memorable_rating,726250,Fort Wayne,,52,,4,,,,,,,,,,,,,,,
null,,confidence_buffer,726352,confidence_buffer,,null,,,,,,,,,,,,,,,,,
1640.7999999821186,,recognition_phase,727993,Fort Wayne,,49,,,,,old,1,0.918918918918919,,,,,,,,,,
null,,confidence_buffer,728094,confidence_buffer,,null,,,,,,,,,,,,,,,,,
null,,thebreak,728595,break,,null,,,,,,,,,,,,,,,,,
2266.4000000059605,,realistic_rating,730862,Dover,,53,Dover,5,,,,,,,,,,,,,,,
null,,confidence_buffer,730964,confidence_buffer,,null,,,,,,,,,,,,,,,,,
1731.2999999821186,,pt2_unique_rating,732696,Dover,,49,,1,,,,,,,,,,,,,,,
null,,confidence_buffer,732797,confidence_buffer,,null,,,,,,,,,,,,,,,,,
2024.9000000059605,,pt2_memorable_rating,734823,Dover,,51,,3,,,,,,,,,,,,,,,
null,,confidence_buffer,734923,confidence_buffer,,null,,,,,,,,,,,,,,,,,
2148.7999999821186,,recognition_phase,737073,Dover,,52,,,,,new,1,0.9210526315789473,,,,,,,,,,
null,,confidence_buffer,737173,confidence_buffer,,null,,,,,,,,,,,,,,,,,
null,,thebreak,737675,break,,null,,,,,,,,,,,,,,,,,
2636.5999999940395,,realistic_rating,740312,Annapolis,,53,Annapolis,5,,,,,,,,,,,,,,,
null,,confidence_buffer,740414,confidence_buffer,,null,,,,,,,,,,,,,,,,,
1765.800000011921,,pt2_unique_rating,742180,Annapolis,,51,,3,,,,,,,,,,,,,,,
null,,confidence_buffer,742282,confidence_buffer,,null,,,,,,,,,,,,,,,,,
1236.4000000059605,,pt2_memorable_rating,743519,Annapolis,,50,,2,,,,,,,,,,,,,,,
null,,confidence_buffer,743620,confidence_buffer,,null,,,,,,,,,,,,,,,,,
1766.199999988079,,recognition_phase,745386,Annapolis,,52,,,,,new,1,0.9230769230769231,,,,,,,,,,
null,,confidence_buffer,745487,confidence_buffer,,null,,,,,,,,,,,,,,,,,
null,,thebreak,745989,break,,null,,,,,,,,,,,,,,,,,
1579.4000000059605,,realistic_rating,747569,Athens,,53,Athens,5,,,,,,,,,,,,,,,
null,,confidence_buffer,747670,confidence_buffer,,null,,,,,,,,,,,,,,,,,
3070.5999999940395,,pt2_unique_rating,750741,Athens,,51,,3,,,,,,,,,,,,,,,
null,,confidence_buffer,750843,confidence_buffer,,null,,,,,,,,,,,,,,,,,
1506.7999999821186,,pt2_memorable_rating,752351,Athens,,53,,5,,,,,,,,,,,,,,,
null,,confidence_buffer,752451,confidence_buffer,,null,,,,,,,,,,,,,,,,,
1473.4000000059605,,recognition_phase,753925,Athens,,49,,,,,old,1,0.925,,,,,,,,,,
null,,confidence_buffer,754027,confidence_buffer,,null,,,,,,,,,,,,,,,,,
null,,thebreak,754529,break,,null,,,,,,,,,,,,,,,,,
1556.7000000178814,,realistic_rating,756086,Champaign,,53,Champaign,5,,,,,,,,,,,,,,,
null,,confidence_buffer,756186,confidence_buffer,,null,,,,,,,,,,,,,,,,,
1822.300000011921,,pt2_unique_rating,758009,Champaign,,52,,4,,,,,,,,,,,,,,,
null,,confidence_buffer,758112,confidence_buffer,,null,,,,,,,,,,,,,,,,,
909.5,,pt2_memorable_rating,759022,Champaign,,53,,5,,,,,,,,,,,,,,,
null,,confidence_buffer,759124,confidence_buffer,,null,,,,,,,,,,,,,,,,,
1539.8999999761581,,recognition_phase,760664,Champaign,,49,,,,,old,1,0.926829268292683,,,,,,,,,,
null,,confidence_buffer,760766,confidence_buffer,,null,,,,,,,,,,,,,,,,,
null,,thebreak,761268,break,,null,,,,,,,,,,,,,,,,,
2951,,realistic_rating,764219,Newport News,,53,Newport News,5,,,,,,,,,,,,,,,
null,,confidence_buffer,764322,confidence_buffer,,null,,,,,,,,,,,,,,,,,
1652.2000000178814,,pt2_unique_rating,765974,Newport News,,53,,5,,,,,,,,,,,,,,,
null,,confidence_buffer,766077,confidence_buffer,,null,,,,,,,,,,,,,,,,,
1033.800000011921,,pt2_memorable_rating,767111,Newport News,,53,,5,,,,,,,,,,,,,,,
null,,confidence_buffer,767213,confidence_buffer,,null,,,,,,,,,,,,,,,,,
1607.3999999761581,,recognition_phase,768821,Newport News,,52,,,,,new,1,0.9285714285714286,,,,,,,,,,
null,,confidence_buffer,768923,confidence_buffer,,null,,,,,,,,,,,,,,,,,
null,,thebreak,769424,break,,null,,,,,,,,,,,,,,,,,
2624.5,,realistic_rating,772049,Gainesville,,53,Gainesville,5,,,,,,,,,,,,,,,
null,,confidence_buffer,772151,confidence_buffer,,null,,,,,,,,,,,,,,,,,
1968.0999999940395,,pt2_unique_rating,774119,Gainesville,,52,,4,,,,,,,,,,,,,,,
null,,confidence_buffer,774221,confidence_buffer,,null,,,,,,,,,,,,,,,,,
1102.199999988079,,pt2_memorable_rating,775323,Gainesville,,51,,3,,,,,,,,,,,,,,,
null,,confidence_buffer,775425,confidence_buffer,,null,,,,,,,,,,,,,,,,,
1731.0999999940395,,recognition_phase,777157,Gainesville,,52,,,,,new,1,0.9302325581395349,,,,,,,,,,
null,,confidence_buffer,777258,confidence_buffer,,null,,,,,,,,,,,,,,,,,
null,,thebreak,777760,break,,null,,,,,,,,,,,,,,,,,
1860.5,,realistic_rating,779621,Santa Monica,,53,Santa Monica,5,,,,,,,,,,,,,,,
null,,confidence_buffer,779723,confidence_buffer,,null,,,,,,,,,,,,,,,,,
2001,,pt2_unique_rating,781724,Santa Monica,,51,,3,,,,,,,,,,,,,,,
null,,confidence_buffer,781826,confidence_buffer,,null,,,,,,,,,,,,,,,,,
2170.399999976158,,pt2_memorable_rating,783997,Santa Monica,,52,,4,,,,,,,,,,,,,,,
null,,confidence_buffer,784098,confidence_buffer,,null,,,,,,,,,,,,,,,,,
1631,,recognition_phase,785730,Santa Monica,,52,,,,,new,1,0.9318181818181818,,,,,,,,,,
null,,confidence_buffer,785831,confidence_buffer,,null,,,,,,,,,,,,,,,,,
null,,thebreak,786333,break,,null,,,,,,,,,,,,,,,,,
1848.7000000178814,,realistic_rating,788182,Cambridge,,53,Cambridge,5,,,,,,,,,,,,,,,
null,,confidence_buffer,788285,confidence_buffer,,null,,,,,,,,,,,,,,,,,
1247.2000000178814,,pt2_unique_rating,789532,Cambridge,,49,,1,,,,,,,,,,,,,,,
null,,confidence_buffer,789635,confidence_buffer,,null,,,,,,,,,,,,,,,,,
1798.800000011921,,pt2_memorable_rating,791434,Cambridge,,52,,4,,,,,,,,,,,,,,,
null,,confidence_buffer,791536,confidence_buffer,,null,,,,,,,,,,,,,,,,,
1731,,recognition_phase,793267,Cambridge,,49,,,,,old,1,0.9333333333333333,,,,,,,,,,
null,,confidence_buffer,793370,confidence_buffer,,null,,,,,,,,,,,,,,,,,
null,,thebreak,793872,break,,null,,,,,,,,,,,,,,,,,
2376.2000000178814,,realistic_rating,796249,New Haven,,53,New Haven,5,,,,,,,,,,,,,,,
null,,confidence_buffer,796350,confidence_buffer,,null,,,,,,,,,,,,,,,,,
1709.800000011921,,pt2_unique_rating,798060,New Haven,,50,,2,,,,,,,,,,,,,,,
null,,confidence_buffer,798162,confidence_buffer,,null,,,,,,,,,,,,,,,,,
1675.2999999821186,,pt2_memorable_rating,799838,New Haven,,52,,4,,,,,,,,,,,,,,,
null,,confidence_buffer,799939,confidence_buffer,,null,,,,,,,,,,,,,,,,,
1147.2000000178814,,recognition_phase,801087,New Haven,,49,,,,,old,1,0.9347826086956522,,,,,,,,,,
null,,confidence_buffer,801189,confidence_buffer,,null,,,,,,,,,,,,,,,,,
null,,thebreak,801690,break,,null,,,,,,,,,,,,,,,,,
2388.5999999940395,,realistic_rating,804079,Muncie,,51,Muncie,3,,,,,,,,,,,,,,,
null,,confidence_buffer,804180,confidence_buffer,,null,,,,,,,,,,,,,,,,,
2047.2999999821186,,pt2_unique_rating,806228,Muncie,,52,,4,,,,,,,,,,,,,,,
null,,confidence_buffer,806328,confidence_buffer,,null,,,,,,,,,,,,,,,,,
1181.199999988079,,pt2_memorable_rating,807510,Muncie,,50,,2,,,,,,,,,,,,,,,
null,,confidence_buffer,807611,confidence_buffer,,null,,,,,,,,,,,,,,,,,
1068.6000000238419,,recognition_phase,808680,Muncie,,49,,,,,old,1,0.9361702127659575,,,,,,,,,,
null,,confidence_buffer,808782,confidence_buffer,,null,,,,,,,,,,,,,,,,,
null,,thebreak,809283,break,,null,,,,,,,,,,,,,,,,,
1815.5,,realistic_rating,811099,Topeka,,53,Topeka,5,,,,,,,,,,,,,,,
null,,confidence_buffer,811201,confidence_buffer,,null,,,,,,,,,,,,,,,,,
2406.2000000178814,,pt2_unique_rating,813608,Topeka,,51,,3,,,,,,,,,,,,,,,
null,,confidence_buffer,813710,confidence_buffer,,null,,,,,,,,,,,,,,,,,
1832.199999988079,,pt2_memorable_rating,815543,Topeka,,50,,2,,,,,,,,,,,,,,,
null,,confidence_buffer,815645,confidence_buffer,,null,,,,,,,,,,,,,,,,,
1809.800000011921,,recognition_phase,817455,Topeka,,49,,,,,old,1,0.9375,,,,,,,,,,
null,,confidence_buffer,817558,confidence_buffer,,null,,,,,,,,,,,,,,,,,
null,,thebreak,818059,break,,null,,,,,,,,,,,,,,,,,
2073.300000011921,,realistic_rating,820133,Concord,,53,Concord,5,,,,,,,,,,,,,,,
null,,confidence_buffer,820235,confidence_buffer,,null,,,,,,,,,,,,,,,,,
2214.7000000178814,,pt2_unique_rating,822451,Concord,,52,,4,,,,,,,,,,,,,,,
null,,confidence_buffer,822553,confidence_buffer,,null,,,,,,,,,,,,,,,,,
1821.2000000178814,,pt2_memorable_rating,824374,Concord,,52,,4,,,,,,,,,,,,,,,
null,,confidence_buffer,824477,confidence_buffer,,null,,,,,,,,,,,,,,,,,
2405.7999999821186,,recognition_phase,826883,Concord,,52,,,,,new,1,0.9387755102040817,,,,,,,,,,
null,,confidence_buffer,826984,confidence_buffer,,null,,,,,,,,,,,,,,,,,
null,,thebreak,827487,break,,null,,,,,,,,,,,,,,,,,
2175,,realistic_rating,829662,Fort Collins,,53,Fort Collins,5,,,,,,,,,,,,,,,
null,,confidence_buffer,829764,confidence_buffer,,null,,,,,,,,,,,,,,,,,
3148.4000000059605,,pt2_unique_rating,832913,Fort Collins,,51,,3,,,,,,,,,,,,,,,
null,,confidence_buffer,833015,confidence_buffer,,null,,,,,,,,,,,,,,,,,
1899.9000000059605,,pt2_memorable_rating,834916,Fort Collins,,51,,3,,,,,,,,,,,,,,,
null,,confidence_buffer,835017,confidence_buffer,,null,,,,,,,,,,,,,,,,,
2058.4000000059605,,recognition_phase,837076,Fort Collins,,52,,,,,new,1,0.94,,,,,,,,,,
null,,confidence_buffer,837177,confidence_buffer,,null,,,,,,,,,,,,,,,,,
null,,thebreak,837679,break,,null,,,,,,,,,,,,,,,,,
,,survey,1052022,survey-questions,,,,,,,,,,none,high,No,I didn't use ant strategies; I just made sure to focus and pay attention,It was cities that I have heard of or even been in,Cities that I've heard of but are also popular,Cities that I haven't heard of or that I've heard of but as far as I know don't exist in more than one state/country,Cities that I know of. Some I didn't know and just didn't sound like real city names to me so I rated them less realistic.,No,No
