rt,responses,trial_type,time_elapsed,stimulus,button_pressed,key_press,name_trial,rating,probe,probe_accuracy,response,correct,accuracy,problems,smooth,distraction,strategies,familiar,memorable,unique,realistic,similar,comments
35736.80000001192,{worker_id:67dd4210d92f4c3aac8d944c},id_enter,35739,,,,,,,,,,,,,,,,,,,,
1252.199999988079,,fullscreen,36995,fullscreen,0,,,,,,,,,,,,,,,,,,
10573.100000023842,,intro_0,47570,instruct,,32,,,,,,,,,,,,,,,,,
731.6999999880791,,intro_1,48303,instruct,,32,,,,,,,,,,,,,,,,,
561.5,,intro_2,48865,instruct,,32,,,,,,,,,,,,,,,,,
null,,instruct_dir_4,50369,instruct,,null,,,,,,,,,,,,,,,,,
null,,thebreak,50871,break,,null,,,,,,,,,,,,,,,,,
1282.699999988079,,familiar_rating,52156,Tallahassee,,52,Tallahassee,4,,,,,,,,,,,,,,,
null,,confidence_buffer,52260,confidence_buffer,,null,,,,,,,,,,,,,,,,,
565.6000000238419,,unique_rating,52827,Tallahassee,,51,,3,,,,,,,,,,,,,,,
null,,confidence_buffer,52930,confidence_buffer,,null,,,,,,,,,,,,,,,,,
515.6000000238419,,memorable_rating,53446,Tallahassee,,52,,4,,,,,,,,,,,,,,,
null,,confidence_buffer,53548,confidence_buffer,,null,,,,,,,,,,,,,,,,,
null,,thebreak,54050,break,,null,,,,,,,,,,,,,,,,,
577.1999999880791,,familiar_rating,54628,Ann Arbor,,51,Ann Arbor,3,,,,,,,,,,,,,,,
null,,confidence_buffer,54730,confidence_buffer,,null,,,,,,,,,,,,,,,,,
392.10000002384186,,unique_rating,55124,Ann Arbor,,50,,2,,,,,,,,,,,,,,,
null,,confidence_buffer,55238,confidence_buffer,,null,,,,,,,,,,,,,,,,,
1503,,probe_rating,56743,probe_rating,,49,,,1,1,,,,,,,,,,,,,
null,,confidence_buffer,56845,confidence_buffer,,null,,,,,,,,,,,,,,,,,
495.5,,memorable_rating,57342,Ann Arbor,,51,,3,,,,,,,,,,,,,,,
null,,confidence_buffer,57457,confidence_buffer,,null,,,,,,,,,,,,,,,,,
null,,thebreak,57959,break,,null,,,,,,,,,,,,,,,,,
326.9000000357628,,familiar_rating,58287,Olympia,,52,Olympia,4,,,,,,,,,,,,,,,
null,,confidence_buffer,58390,confidence_buffer,,null,,,,,,,,,,,,,,,,,
437.4000000357628,,unique_rating,58830,Olympia,,50,,2,,,,,,,,,,,,,,,
null,,confidence_buffer,58932,confidence_buffer,,null,,,,,,,,,,,,,,,,,
367.0999999642372,,memorable_rating,59300,Olympia,,51,,3,,,,,,,,,,,,,,,
null,,confidence_buffer,59402,confidence_buffer,,null,,,,,,,,,,,,,,,,,
null,,thebreak,59904,break,,null,,,,,,,,,,,,,,,,,
427.5999999642372,,familiar_rating,60333,Palo Alto,,52,Palo Alto,4,,,,,,,,,,,,,,,
null,,confidence_buffer,60435,confidence_buffer,,null,,,,,,,,,,,,,,,,,
481.10000002384186,,unique_rating,60918,Palo Alto,,53,,5,,,,,,,,,,,,,,,
null,,confidence_buffer,61020,confidence_buffer,,null,,,,,,,,,,,,,,,,,
437.60000002384186,,memorable_rating,61459,Palo Alto,,53,,5,,,,,,,,,,,,,,,
null,,confidence_buffer,61561,confidence_buffer,,null,,,,,,,,,,,,,,,,,
null,,thebreak,62063,break,,null,,,,,,,,,,,,,,,,,
418.89999997615814,,familiar_rating,62483,Terre Haute,,50,Terre Haute,2,,,,,,,,,,,,,,,
null,,confidence_buffer,62585,confidence_buffer,,null,,,,,,,,,,,,,,,,,
444.2000000476837,,unique_rating,63030,Terre Haute,,51,,3,,,,,,,,,,,,,,,
null,,confidence_buffer,63132,confidence_buffer,,null,,,,,,,,,,,,,,,,,
487,,memorable_rating,63621,Terre Haute,,50,,2,,,,,,,,,,,,,,,
null,,confidence_buffer,63724,confidence_buffer,,null,,,,,,,,,,,,,,,,,
null,,thebreak,64226,break,,null,,,,,,,,,,,,,,,,,
531.6999999880791,,familiar_rating,64759,Abilene,,52,Abilene,4,,,,,,,,,,,,,,,
null,,confidence_buffer,64863,confidence_buffer,,null,,,,,,,,,,,,,,,,,
544.1999999880791,,unique_rating,65409,Abilene,,50,,2,,,,,,,,,,,,,,,
null,,confidence_buffer,65511,confidence_buffer,,null,,,,,,,,,,,,,,,,,
594.8000000119209,,memorable_rating,66108,Abilene,,51,,3,,,,,,,,,,,,,,,
null,,confidence_buffer,66211,confidence_buffer,,null,,,,,,,,,,,,,,,,,
null,,thebreak,66713,break,,null,,,,,,,,,,,,,,,,,
534.4000000357628,,familiar_rating,67249,Newport News,,50,Newport News,2,,,,,,,,,,,,,,,
null,,confidence_buffer,67352,confidence_buffer,,null,,,,,,,,,,,,,,,,,
804.1000000238419,,unique_rating,68158,Newport News,,50,,2,,,,,,,,,,,,,,,
null,,confidence_buffer,68260,confidence_buffer,,null,,,,,,,,,,,,,,,,,
515.8999999761581,,memorable_rating,68777,Newport News,,52,,4,,,,,,,,,,,,,,,
null,,confidence_buffer,68879,confidence_buffer,,null,,,,,,,,,,,,,,,,,
null,,thebreak,69382,break,,null,,,,,,,,,,,,,,,,,
618.8000000119209,,familiar_rating,70002,Annapolis,,52,Annapolis,4,,,,,,,,,,,,,,,
null,,confidence_buffer,70110,confidence_buffer,,null,,,,,,,,,,,,,,,,,
1963.199999988079,,probe_rating,72074,probe_rating,,53,,,5,1,,,,,,,,,,,,,
null,,confidence_buffer,72177,confidence_buffer,,null,,,,,,,,,,,,,,,,,
501.80000001192093,,unique_rating,72680,Annapolis,,52,,4,,,,,,,,,,,,,,,
null,,confidence_buffer,72783,confidence_buffer,,null,,,,,,,,,,,,,,,,,
506.89999997615814,,memorable_rating,73292,Annapolis,,51,,3,,,,,,,,,,,,,,,
null,,confidence_buffer,73397,confidence_buffer,,null,,,,,,,,,,,,,,,,,
null,,thebreak,73899,break,,null,,,,,,,,,,,,,,,,,
508.69999998807907,,familiar_rating,74409,Toledo,,50,Toledo,2,,,,,,,,,,,,,,,
null,,confidence_buffer,74512,confidence_buffer,,null,,,,,,,,,,,,,,,,,
489.80000001192093,,unique_rating,75003,Toledo,,51,,3,,,,,,,,,,,,,,,
null,,confidence_buffer,75106,confidence_buffer,,null,,,,,,,,,,,,,,,,,
521,,memorable_rating,75628,Toledo,,50,,2,,,,,,,,,,,,,,,
null,,confidence_buffer,75731,confidence_buffer,,null,,,,,,,,,,,,,,,,,
1545,,probe_rating,77278,probe_rating,,51,,,3,1,,,,,,,,,,,,,
null,,confidence_buffer,77380,confidence_buffer,,null,,,,,,,,,,,,,,,,,
null,,thebreak,77882,break,,null,,,,,,,,,,,,,,,,,
570.8999999761581,,familiar_rating,78455,Norfolk,,52,Norfolk,4,,,,,,,,,,,,,,,
null,,confidence_buffer,78557,confidence_buffer,,null,,,,,,,,,,,,,,,,,
483.5,,unique_rating,79042,Norfolk,,53,,5,,,,,,,,,,,,,,,
null,,confidence_buffer,79145,confidence_buffer,,null,,,,,,,,,,,,,,,,,
583.6999999880791,,memorable_rating,79730,Norfolk,,51,,3,,,,,,,,,,,,,,,
null,,confidence_buffer,79833,confidence_buffer,,null,,,,,,,,,,,,,,,,,
null,,thebreak,80336,break,,null,,,,,,,,,,,,,,,,,
417.0999999642372,,familiar_rating,80754,Gainesville,,52,Gainesville,4,,,,,,,,,,,,,,,
null,,confidence_buffer,80857,confidence_buffer,,null,,,,,,,,,,,,,,,,,
568.5,,unique_rating,81427,Gainesville,,50,,2,,,,,,,,,,,,,,,
null,,confidence_buffer,81529,confidence_buffer,,null,,,,,,,,,,,,,,,,,
369,,memorable_rating,81900,Gainesville,,51,,3,,,,,,,,,,,,,,,
null,,confidence_buffer,82002,confidence_buffer,,null,,,,,,,,,,,,,,,,,
null,,thebreak,82504,break,,null,,,,,,,,,,,,,,,,,
438.69999998807907,,familiar_rating,82944,Marquette,,50,Marquette,2,,,,,,,,,,,,,,,
null,,confidence_buffer,83048,confidence_buffer,,null,,,,,,,,,,,,,,,,,
411.5999999642372,,unique_rating,83461,Marquette,,52,,4,,,,,,,,,,,,,,,
null,,confidence_buffer,83564,confidence_buffer,,null,,,,,,,,,,,,,,,,,
511.80000001192093,,memorable_rating,84077,Marquette,,52,,4,,,,,,,,,,,,,,,
null,,confidence_buffer,84178,confidence_buffer,,null,,,,,,,,,,,,,,,,,
1511.800000011921,,probe_rating,85692,probe_rating,,53,,,5,1,,,,,,,,,,,,,
null,,confidence_buffer,85795,confidence_buffer,,null,,,,,,,,,,,,,,,,,
null,,thebreak,86297,break,,null,,,,,,,,,,,,,,,,,
316.89999997615814,,familiar_rating,86615,Champaign,,52,Champaign,4,,,,,,,,,,,,,,,
null,,confidence_buffer,86719,confidence_buffer,,null,,,,,,,,,,,,,,,,,
508.69999998807907,,unique_rating,87229,Champaign,,51,,3,,,,,,,,,,,,,,,
null,,confidence_buffer,87332,confidence_buffer,,null,,,,,,,,,,,,,,,,,
463.10000002384186,,memorable_rating,87796,Champaign,,51,,3,,,,,,,,,,,,,,,
null,,confidence_buffer,87899,confidence_buffer,,null,,,,,,,,,,,,,,,,,
null,,thebreak,88401,break,,null,,,,,,,,,,,,,,,,,
438.4000000357628,,familiar_rating,88841,Topeka,,50,Topeka,2,,,,,,,,,,,,,,,
null,,confidence_buffer,88953,confidence_buffer,,null,,,,,,,,,,,,,,,,,
722.0999999642372,,unique_rating,89676,Topeka,,52,,4,,,,,,,,,,,,,,,
null,,confidence_buffer,89780,confidence_buffer,,null,,,,,,,,,,,,,,,,,
786.2999999523163,,memorable_rating,90567,Topeka,,50,,2,,,,,,,,,,,,,,,
null,,confidence_buffer,90671,confidence_buffer,,null,,,,,,,,,,,,,,,,,
null,,thebreak,91172,break,,null,,,,,,,,,,,,,,,,,
392.2999999523163,,familiar_rating,91567,Hagerstown,,50,Hagerstown,2,,,,,,,,,,,,,,,
null,,confidence_buffer,91670,confidence_buffer,,null,,,,,,,,,,,,,,,,,
822.6000000238419,,unique_rating,92495,Hagerstown,,52,,4,,,,,,,,,,,,,,,
null,,confidence_buffer,92597,confidence_buffer,,null,,,,,,,,,,,,,,,,,
607.1999999880791,,memorable_rating,93205,Hagerstown,,51,,3,,,,,,,,,,,,,,,
null,,confidence_buffer,93308,confidence_buffer,,null,,,,,,,,,,,,,,,,,
null,,thebreak,93810,break,,null,,,,,,,,,,,,,,,,,
353.2999999523163,,familiar_rating,94164,Montpelier,,52,Montpelier,4,,,,,,,,,,,,,,,
null,,confidence_buffer,94267,confidence_buffer,,null,,,,,,,,,,,,,,,,,
358.89999997615814,,unique_rating,94627,Montpelier,,50,,2,,,,,,,,,,,,,,,
null,,confidence_buffer,94730,confidence_buffer,,null,,,,,,,,,,,,,,,,,
336.60000002384186,,memorable_rating,95068,Montpelier,,51,,3,,,,,,,,,,,,,,,
null,,confidence_buffer,95171,confidence_buffer,,null,,,,,,,,,,,,,,,,,
null,,thebreak,95673,break,,null,,,,,,,,,,,,,,,,,
414.60000002384186,,familiar_rating,96089,Stamford,,51,Stamford,3,,,,,,,,,,,,,,,
null,,confidence_buffer,96192,confidence_buffer,,null,,,,,,,,,,,,,,,,,
679.6000000238419,,unique_rating,96874,Stamford,,50,,2,,,,,,,,,,,,,,,
null,,confidence_buffer,96976,confidence_buffer,,null,,,,,,,,,,,,,,,,,
1541.800000011921,,probe_rating,98520,probe_rating,,51,,,3,1,,,,,,,,,,,,,
null,,confidence_buffer,98624,confidence_buffer,,null,,,,,,,,,,,,,,,,,
455.39999997615814,,memorable_rating,99081,Stamford,,50,,2,,,,,,,,,,,,,,,
null,,confidence_buffer,99194,confidence_buffer,,null,,,,,,,,,,,,,,,,,
null,,thebreak,99696,break,,null,,,,,,,,,,,,,,,,,
333.80000001192093,,familiar_rating,100032,Dothan,,52,Dothan,4,,,,,,,,,,,,,,,
null,,confidence_buffer,100145,confidence_buffer,,null,,,,,,,,,,,,,,,,,
453.89999997615814,,unique_rating,100600,Dothan,,50,,2,,,,,,,,,,,,,,,
null,,confidence_buffer,100703,confidence_buffer,,null,,,,,,,,,,,,,,,,,
444,,memorable_rating,101149,Dothan,,52,,4,,,,,,,,,,,,,,,
null,,confidence_buffer,101252,confidence_buffer,,null,,,,,,,,,,,,,,,,,
null,,thebreak,101754,break,,null,,,,,,,,,,,,,,,,,
382.80000001192093,,familiar_rating,102138,Bellingham,,51,Bellingham,3,,,,,,,,,,,,,,,
null,,confidence_buffer,102241,confidence_buffer,,null,,,,,,,,,,,,,,,,,
456.89999997615814,,unique_rating,102699,Bellingham,,52,,4,,,,,,,,,,,,,,,
null,,confidence_buffer,102802,confidence_buffer,,null,,,,,,,,,,,,,,,,,
532.6000000238419,,memorable_rating,103336,Bellingham,,51,,3,,,,,,,,,,,,,,,
null,,confidence_buffer,103437,confidence_buffer,,null,,,,,,,,,,,,,,,,,
null,,thebreak,103940,break,,null,,,,,,,,,,,,,,,,,
373.69999998807907,,familiar_rating,104315,Dover,,50,Dover,2,,,,,,,,,,,,,,,
null,,confidence_buffer,104416,confidence_buffer,,null,,,,,,,,,,,,,,,,,
660,,unique_rating,105078,Dover,,53,,5,,,,,,,,,,,,,,,
null,,confidence_buffer,105181,confidence_buffer,,null,,,,,,,,,,,,,,,,,
2668.399999976158,,probe_rating,107852,probe_rating,,52,,,4,1,,,,,,,,,,,,,
null,,confidence_buffer,107956,confidence_buffer,,null,,,,,,,,,,,,,,,,,
573.4000000357628,,memorable_rating,108531,Dover,,52,,4,,,,,,,,,,,,,,,
null,,confidence_buffer,108633,confidence_buffer,,null,,,,,,,,,,,,,,,,,
null,,thebreak,109136,break,,null,,,,,,,,,,,,,,,,,
525.1999999880791,,familiar_rating,109662,Syracuse,,51,Syracuse,3,,,,,,,,,,,,,,,
null,,confidence_buffer,109765,confidence_buffer,,null,,,,,,,,,,,,,,,,,
1196.7999999523163,,unique_rating,110964,Syracuse,,50,,2,,,,,,,,,,,,,,,
null,,confidence_buffer,111067,confidence_buffer,,null,,,,,,,,,,,,,,,,,
459.89999997615814,,memorable_rating,111528,Syracuse,,51,,3,,,,,,,,,,,,,,,
null,,confidence_buffer,111631,confidence_buffer,,null,,,,,,,,,,,,,,,,,
null,,thebreak,112133,break,,null,,,,,,,,,,,,,,,,,
457.69999998807907,,familiar_rating,112593,Helena,,50,Helena,2,,,,,,,,,,,,,,,
null,,confidence_buffer,112701,confidence_buffer,,null,,,,,,,,,,,,,,,,,
1481.800000011921,,probe_rating,114185,probe_rating,,52,,,4,1,,,,,,,,,,,,,
null,,confidence_buffer,114288,confidence_buffer,,null,,,,,,,,,,,,,,,,,
459,,unique_rating,114748,Helena,,51,,3,,,,,,,,,,,,,,,
null,,confidence_buffer,114851,confidence_buffer,,null,,,,,,,,,,,,,,,,,
449.19999998807907,,memorable_rating,115301,Helena,,51,,3,,,,,,,,,,,,,,,
null,,confidence_buffer,115403,confidence_buffer,,null,,,,,,,,,,,,,,,,,
null,,thebreak,115905,break,,null,,,,,,,,,,,,,,,,,
513.3999999761581,,familiar_rating,116420,Fort Collins,,52,Fort Collins,4,,,,,,,,,,,,,,,
null,,confidence_buffer,116522,confidence_buffer,,null,,,,,,,,,,,,,,,,,
460.80000001192093,,unique_rating,116985,Fort Collins,,50,,2,,,,,,,,,,,,,,,
null,,confidence_buffer,117087,confidence_buffer,,null,,,,,,,,,,,,,,,,,
506.89999997615814,,memorable_rating,117596,Fort Collins,,50,,2,,,,,,,,,,,,,,,
null,,confidence_buffer,117699,confidence_buffer,,null,,,,,,,,,,,,,,,,,
null,,thebreak,118201,break,,null,,,,,,,,,,,,,,,,,
377.80000001192093,,familiar_rating,118580,Scottsdale,,52,Scottsdale,4,,,,,,,,,,,,,,,
null,,confidence_buffer,118683,confidence_buffer,,null,,,,,,,,,,,,,,,,,
655.7999999523163,,unique_rating,119340,Scottsdale,,50,,2,,,,,,,,,,,,,,,
null,,confidence_buffer,119441,confidence_buffer,,null,,,,,,,,,,,,,,,,,
586.0999999642372,,memorable_rating,120029,Scottsdale,,51,,3,,,,,,,,,,,,,,,
null,,confidence_buffer,120130,confidence_buffer,,null,,,,,,,,,,,,,,,,,
null,,thebreak,120633,break,,null,,,,,,,,,,,,,,,,,
407.80000001192093,,familiar_rating,121042,Burlington,,50,Burlington,2,,,,,,,,,,,,,,,
null,,confidence_buffer,121143,confidence_buffer,,null,,,,,,,,,,,,,,,,,
797.3000000119209,,unique_rating,121943,Burlington,,50,,2,,,,,,,,,,,,,,,
null,,confidence_buffer,122046,confidence_buffer,,null,,,,,,,,,,,,,,,,,
512.5,,memorable_rating,122560,Burlington,,50,,2,,,,,,,,,,,,,,,
null,,confidence_buffer,122663,confidence_buffer,,null,,,,,,,,,,,,,,,,,
null,,thebreak,123164,break,,null,,,,,,,,,,,,,,,,,
8112,,intro_0,131277,instruct,,32,,,,,,,,,,,,,,,,,
721,,intro_1,132000,instruct,,32,,,,,,,,,,,,,,,,,
2420.300000011921,,intro_2,134421,instruct,,32,,,,,,,,,,,,,,,,,
null,,instruct_dir_4,135923,instruct,,null,,,,,,,,,,,,,,,,,
1712,,realistic_rating,137637,Fort Collins,,52,Fort Collins,4,,,,,,,,,,,,,,,
null,,confidence_buffer,137740,confidence_buffer,,null,,,,,,,,,,,,,,,,,
569.1999999880791,,pt2_unique_rating,138311,Fort Collins,,50,,2,,,,,,,,,,,,,,,
null,,confidence_buffer,138412,confidence_buffer,,null,,,,,,,,,,,,,,,,,
422,,pt2_memorable_rating,138836,Fort Collins,,50,,2,,,,,,,,,,,,,,,
null,,confidence_buffer,138938,confidence_buffer,,null,,,,,,,,,,,,,,,,,
481.5999999642372,,recognition_phase,139422,Fort Collins,,51,,,,,new,0,0,,,,,,,,,,
null,,confidence_buffer,139524,confidence_buffer,,null,,,,,,,,,,,,,,,,,
null,,thebreak,140027,break,,null,,,,,,,,,,,,,,,,,
473.2000000476837,,realistic_rating,140502,Boulder,,52,Boulder,4,,,,,,,,,,,,,,,
null,,confidence_buffer,140604,confidence_buffer,,null,,,,,,,,,,,,,,,,,
396.2999999523163,,pt2_unique_rating,141002,Boulder,,50,,2,,,,,,,,,,,,,,,
null,,confidence_buffer,141105,confidence_buffer,,null,,,,,,,,,,,,,,,,,
426.69999998807907,,pt2_memorable_rating,141533,Boulder,,50,,2,,,,,,,,,,,,,,,
null,,confidence_buffer,141636,confidence_buffer,,null,,,,,,,,,,,,,,,,,
602.5999999642372,,recognition_phase,142241,Boulder,,51,,,,,new,1,0.5,,,,,,,,,,
null,,confidence_buffer,142343,confidence_buffer,,null,,,,,,,,,,,,,,,,,
null,,thebreak,142845,break,,null,,,,,,,,,,,,,,,,,
341.69999998807907,,realistic_rating,143189,Altoona,,52,Altoona,4,,,,,,,,,,,,,,,
null,,confidence_buffer,143291,confidence_buffer,,null,,,,,,,,,,,,,,,,,
531,,pt2_unique_rating,143824,Altoona,,50,,2,,,,,,,,,,,,,,,
null,,confidence_buffer,143927,confidence_buffer,,null,,,,,,,,,,,,,,,,,
412.30000001192093,,pt2_memorable_rating,144341,Altoona,,51,,3,,,,,,,,,,,,,,,
null,,confidence_buffer,144443,confidence_buffer,,null,,,,,,,,,,,,,,,,,
644.1999999880791,,recognition_phase,145089,Altoona,,51,,,,,new,1,0.6666666666666666,,,,,,,,,,
null,,confidence_buffer,145191,confidence_buffer,,null,,,,,,,,,,,,,,,,,
null,,thebreak,145693,break,,null,,,,,,,,,,,,,,,,,
451.5999999642372,,realistic_rating,146146,Gainesville,,52,Gainesville,4,,,,,,,,,,,,,,,
null,,confidence_buffer,146248,confidence_buffer,,null,,,,,,,,,,,,,,,,,
462.30000001192093,,pt2_unique_rating,146712,Gainesville,,50,,2,,,,,,,,,,,,,,,
null,,confidence_buffer,146825,confidence_buffer,,null,,,,,,,,,,,,,,,,,
448.69999998807907,,pt2_memorable_rating,147275,Gainesville,,50,,2,,,,,,,,,,,,,,,
null,,confidence_buffer,147378,confidence_buffer,,null,,,,,,,,,,,,,,,,,
402.39999997615814,,recognition_phase,147782,Gainesville,,52,,,,,new,0,0.5,,,,,,,,,,
null,,confidence_buffer,147885,confidence_buffer,,null,,,,,,,,,,,,,,,,,
null,,thebreak,148386,break,,null,,,,,,,,,,,,,,,,,
502.5,,realistic_rating,148889,Carson City,,53,Carson City,5,,,,,,,,,,,,,,,
null,,confidence_buffer,148991,confidence_buffer,,null,,,,,,,,,,,,,,,,,
520,,pt2_unique_rating,149512,Carson City,,53,,5,,,,,,,,,,,,,,,
null,,confidence_buffer,149616,confidence_buffer,,null,,,,,,,,,,,,,,,,,
1288.800000011921,,probe_rating,150906,probe_rating,,49,,,1,1,,,,,,,,,,,,,
null,,confidence_buffer,151009,confidence_buffer,,null,,,,,,,,,,,,,,,,,
390.0999999642372,,pt2_memorable_rating,151401,Carson City,,50,,2,,,,,,,,,,,,,,,
null,,confidence_buffer,151504,confidence_buffer,,null,,,,,,,,,,,,,,,,,
365.9000000357628,,recognition_phase,151872,Carson City,,51,,,,,new,1,0.6,,,,,,,,,,
null,,confidence_buffer,151989,confidence_buffer,,null,,,,,,,,,,,,,,,,,
null,,thebreak,152492,break,,null,,,,,,,,,,,,,,,,,
313.0999999642372,,realistic_rating,152807,Olympia,,51,Olympia,3,,,,,,,,,,,,,,,
null,,confidence_buffer,152909,confidence_buffer,,null,,,,,,,,,,,,,,,,,
497,,pt2_unique_rating,153407,Olympia,,50,,2,,,,,,,,,,,,,,,
null,,confidence_buffer,153509,confidence_buffer,,null,,,,,,,,,,,,,,,,,
1372.1000000238419,,probe_rating,154883,probe_rating,,52,,,4,1,,,,,,,,,,,,,
null,,confidence_buffer,154985,confidence_buffer,,null,,,,,,,,,,,,,,,,,
431.10000002384186,,pt2_memorable_rating,155418,Olympia,,51,,3,,,,,,,,,,,,,,,
null,,confidence_buffer,155520,confidence_buffer,,null,,,,,,,,,,,,,,,,,
500.5,,recognition_phase,156022,Olympia,,50,,,,,old,1,0.6666666666666666,,,,,,,,,,
null,,confidence_buffer,156126,confidence_buffer,,null,,,,,,,,,,,,,,,,,
null,,thebreak,156637,break,,null,,,,,,,,,,,,,,,,,
286,,realistic_rating,156925,Berkeley,,52,Berkeley,4,,,,,,,,,,,,,,,
null,,confidence_buffer,157028,confidence_buffer,,null,,,,,,,,,,,,,,,,,
536.8000000119209,,pt2_unique_rating,157566,Berkeley,,51,,3,,,,,,,,,,,,,,,
null,,confidence_buffer,157669,confidence_buffer,,null,,,,,,,,,,,,,,,,,
361.39999997615814,,pt2_memorable_rating,158031,Berkeley,,50,,2,,,,,,,,,,,,,,,
null,,confidence_buffer,158139,confidence_buffer,,null,,,,,,,,,,,,,,,,,
573,,recognition_phase,158714,Berkeley,,50,,,,,old,0,0.5714285714285714,,,,,,,,,,
null,,confidence_buffer,158817,confidence_buffer,,null,,,,,,,,,,,,,,,,,
null,,thebreak,159318,break,,null,,,,,,,,,,,,,,,,,
416.30000001192093,,realistic_rating,159736,Fort Wayne,,53,Fort Wayne,5,,,,,,,,,,,,,,,
null,,confidence_buffer,159838,confidence_buffer,,null,,,,,,,,,,,,,,,,,
1307.7000000476837,,probe_rating,161147,probe_rating,,49,,,1,1,,,,,,,,,,,,,
null,,confidence_buffer,161249,confidence_buffer,,null,,,,,,,,,,,,,,,,,
466.69999998807907,,pt2_unique_rating,161718,Fort Wayne,,50,,2,,,,,,,,,,,,,,,
null,,confidence_buffer,161820,confidence_buffer,,null,,,,,,,,,,,,,,,,,
478.30000001192093,,pt2_memorable_rating,162300,Fort Wayne,,50,,2,,,,,,,,,,,,,,,
null,,confidence_buffer,162402,confidence_buffer,,null,,,,,,,,,,,,,,,,,
505.10000002384186,,recognition_phase,162909,Fort Wayne,,51,,,,,new,1,0.625,,,,,,,,,,
null,,confidence_buffer,163011,confidence_buffer,,null,,,,,,,,,,,,,,,,,
null,,thebreak,163513,break,,null,,,,,,,,,,,,,,,,,
383.60000002384186,,realistic_rating,163899,Athens,,52,Athens,4,,,,,,,,,,,,,,,
null,,confidence_buffer,164001,confidence_buffer,,null,,,,,,,,,,,,,,,,,
553.2000000476837,,pt2_unique_rating,164555,Athens,,50,,2,,,,,,,,,,,,,,,
null,,confidence_buffer,164658,confidence_buffer,,null,,,,,,,,,,,,,,,,,
533.2999999523163,,pt2_memorable_rating,165193,Athens,,51,,3,,,,,,,,,,,,,,,
null,,confidence_buffer,165295,confidence_buffer,,null,,,,,,,,,,,,,,,,,
549.5,,recognition_phase,165846,Athens,,52,,,,,new,1,0.6666666666666666,,,,,,,,,,
null,,confidence_buffer,165948,confidence_buffer,,null,,,,,,,,,,,,,,,,,
null,,thebreak,166451,break,,null,,,,,,,,,,,,,,,,,
335.2000000476837,,realistic_rating,166788,Norfolk,,53,Norfolk,5,,,,,,,,,,,,,,,
null,,confidence_buffer,166890,confidence_buffer,,null,,,,,,,,,,,,,,,,,
604.0999999642372,,pt2_unique_rating,167496,Norfolk,,53,,5,,,,,,,,,,,,,,,
null,,confidence_buffer,167599,confidence_buffer,,null,,,,,,,,,,,,,,,,,
534.8999999761581,,pt2_memorable_rating,168136,Norfolk,,51,,3,,,,,,,,,,,,,,,
null,,confidence_buffer,168238,confidence_buffer,,null,,,,,,,,,,,,,,,,,
626.5,,recognition_phase,168867,Norfolk,,49,,,,,old,1,0.7,,,,,,,,,,
null,,confidence_buffer,168970,confidence_buffer,,null,,,,,,,,,,,,,,,,,
null,,thebreak,169472,break,,null,,,,,,,,,,,,,,,,,
460.60000002384186,,realistic_rating,169934,Scottsdale,,50,Scottsdale,2,,,,,,,,,,,,,,,
null,,confidence_buffer,170037,confidence_buffer,,null,,,,,,,,,,,,,,,,,
533.8999999761581,,pt2_unique_rating,170573,Scottsdale,,51,,3,,,,,,,,,,,,,,,
null,,confidence_buffer,170675,confidence_buffer,,null,,,,,,,,,,,,,,,,,
552.6999999880791,,pt2_memorable_rating,171229,Scottsdale,,51,,3,,,,,,,,,,,,,,,
null,,confidence_buffer,171331,confidence_buffer,,null,,,,,,,,,,,,,,,,,
538.2999999523163,,recognition_phase,171871,Scottsdale,,52,,,,,new,0,0.6363636363636364,,,,,,,,,,
null,,confidence_buffer,171973,confidence_buffer,,null,,,,,,,,,,,,,,,,,
null,,thebreak,172474,break,,null,,,,,,,,,,,,,,,,,
1162.199999988079,,realistic_rating,173638,Rock Springs,,50,Rock Springs,2,,,,,,,,,,,,,,,
null,,confidence_buffer,173741,confidence_buffer,,null,,,,,,,,,,,,,,,,,
389.30000001192093,,pt2_unique_rating,174132,Rock Springs,,51,,3,,,,,,,,,,,,,,,
null,,confidence_buffer,174235,confidence_buffer,,null,,,,,,,,,,,,,,,,,
425.10000002384186,,pt2_memorable_rating,174662,Rock Springs,,52,,4,,,,,,,,,,,,,,,
null,,confidence_buffer,174768,confidence_buffer,,null,,,,,,,,,,,,,,,,,
619.5,,recognition_phase,175389,Rock Springs,,50,,,,,old,0,0.5833333333333334,,,,,,,,,,
null,,confidence_buffer,175492,confidence_buffer,,null,,,,,,,,,,,,,,,,,
null,,thebreak,175994,break,,null,,,,,,,,,,,,,,,,,
415.19999998807907,,realistic_rating,176410,Muncie,,50,Muncie,2,,,,,,,,,,,,,,,
null,,confidence_buffer,176513,confidence_buffer,,null,,,,,,,,,,,,,,,,,
453,,pt2_unique_rating,176968,Muncie,,53,,5,,,,,,,,,,,,,,,
null,,confidence_buffer,177071,confidence_buffer,,null,,,,,,,,,,,,,,,,,
397.7999999523163,,pt2_memorable_rating,177470,Muncie,,53,,5,,,,,,,,,,,,,,,
null,,confidence_buffer,177572,confidence_buffer,,null,,,,,,,,,,,,,,,,,
489.7999999523163,,recognition_phase,178063,Muncie,,52,,,,,new,1,0.6153846153846154,,,,,,,,,,
null,,confidence_buffer,178166,confidence_buffer,,null,,,,,,,,,,,,,,,,,
null,,thebreak,178669,break,,null,,,,,,,,,,,,,,,,,
345.0999999642372,,realistic_rating,179015,Helena,,49,Helena,1,,,,,,,,,,,,,,,
null,,confidence_buffer,179117,confidence_buffer,,null,,,,,,,,,,,,,,,,,
590.3999999761581,,pt2_unique_rating,179709,Helena,,50,,2,,,,,,,,,,,,,,,
null,,confidence_buffer,179812,confidence_buffer,,null,,,,,,,,,,,,,,,,,
613.6000000238419,,pt2_memorable_rating,180427,Helena,,50,,2,,,,,,,,,,,,,,,
null,,confidence_buffer,180530,confidence_buffer,,null,,,,,,,,,,,,,,,,,
502.80000001192093,,recognition_phase,181034,Helena,,51,,,,,new,0,0.5714285714285714,,,,,,,,,,
null,,confidence_buffer,181136,confidence_buffer,,null,,,,,,,,,,,,,,,,,
null,,thebreak,181638,break,,null,,,,,,,,,,,,,,,,,
879.3999999761581,,realistic_rating,182519,Montpelier,,51,Montpelier,3,,,,,,,,,,,,,,,
null,,confidence_buffer,182620,confidence_buffer,,null,,,,,,,,,,,,,,,,,
505.9000000357628,,pt2_unique_rating,183127,Montpelier,,52,,4,,,,,,,,,,,,,,,
null,,confidence_buffer,183230,confidence_buffer,,null,,,,,,,,,,,,,,,,,
504.10000002384186,,pt2_memorable_rating,183736,Montpelier,,50,,2,,,,,,,,,,,,,,,
null,,confidence_buffer,183838,confidence_buffer,,null,,,,,,,,,,,,,,,,,
504.80000001192093,,recognition_phase,184344,Montpelier,,50,,,,,old,1,0.6,,,,,,,,,,
null,,confidence_buffer,184446,confidence_buffer,,null,,,,,,,,,,,,,,,,,
null,,thebreak,184957,break,,null,,,,,,,,,,,,,,,,,
486.89999997615814,,realistic_rating,185447,Champaign,,52,Champaign,4,,,,,,,,,,,,,,,
null,,confidence_buffer,185550,confidence_buffer,,null,,,,,,,,,,,,,,,,,
698.8000000119209,,pt2_unique_rating,186250,Champaign,,50,,2,,,,,,,,,,,,,,,
null,,confidence_buffer,186353,confidence_buffer,,null,,,,,,,,,,,,,,,,,
483.19999998807907,,pt2_memorable_rating,186838,Champaign,,49,,1,,,,,,,,,,,,,,,
null,,confidence_buffer,186940,confidence_buffer,,null,,,,,,,,,,,,,,,,,
518.6999999880791,,recognition_phase,187461,Champaign,,50,,,,,old,1,0.625,,,,,,,,,,
null,,confidence_buffer,187564,confidence_buffer,,null,,,,,,,,,,,,,,,,,
null,,thebreak,188066,break,,null,,,,,,,,,,,,,,,,,
457.10000002384186,,realistic_rating,188525,Dubuque,,51,Dubuque,3,,,,,,,,,,,,,,,
null,,confidence_buffer,188628,confidence_buffer,,null,,,,,,,,,,,,,,,,,
532.3000000119209,,pt2_unique_rating,189162,Dubuque,,50,,2,,,,,,,,,,,,,,,
null,,confidence_buffer,189275,confidence_buffer,,null,,,,,,,,,,,,,,,,,
572.3000000119209,,pt2_memorable_rating,189849,Dubuque,,50,,2,,,,,,,,,,,,,,,
null,,confidence_buffer,189951,confidence_buffer,,null,,,,,,,,,,,,,,,,,
454.80000001192093,,recognition_phase,190408,Dubuque,,52,,,,,new,1,0.6470588235294118,,,,,,,,,,
null,,confidence_buffer,190510,confidence_buffer,,null,,,,,,,,,,,,,,,,,
null,,thebreak,191011,break,,null,,,,,,,,,,,,,,,,,
451.9000000357628,,realistic_rating,191464,Yakima,,50,Yakima,2,,,,,,,,,,,,,,,
null,,confidence_buffer,191568,confidence_buffer,,null,,,,,,,,,,,,,,,,,
1456.199999988079,,probe_rating,193026,probe_rating,,51,,,3,1,,,,,,,,,,,,,
null,,confidence_buffer,193128,confidence_buffer,,null,,,,,,,,,,,,,,,,,
500.39999997615814,,pt2_unique_rating,193629,Yakima,,50,,2,,,,,,,,,,,,,,,
null,,confidence_buffer,193731,confidence_buffer,,null,,,,,,,,,,,,,,,,,
466.69999998807907,,pt2_memorable_rating,194199,Yakima,,52,,4,,,,,,,,,,,,,,,
null,,confidence_buffer,194302,confidence_buffer,,null,,,,,,,,,,,,,,,,,
596.8000000119209,,recognition_phase,194900,Yakima,,50,,,,,old,0,0.6111111111111112,,,,,,,,,,
null,,confidence_buffer,195002,confidence_buffer,,null,,,,,,,,,,,,,,,,,
null,,thebreak,195504,break,,null,,,,,,,,,,,,,,,,,
953.1000000238419,,realistic_rating,196459,Toledo,,50,Toledo,2,,,,,,,,,,,,,,,
null,,confidence_buffer,196561,confidence_buffer,,null,,,,,,,,,,,,,,,,,
416.89999997615814,,pt2_unique_rating,196979,Toledo,,49,,1,,,,,,,,,,,,,,,
null,,confidence_buffer,197081,confidence_buffer,,null,,,,,,,,,,,,,,,,,
506.19999998807907,,pt2_memorable_rating,197588,Toledo,,49,,1,,,,,,,,,,,,,,,
null,,confidence_buffer,197690,confidence_buffer,,null,,,,,,,,,,,,,,,,,
392,,recognition_phase,198083,Toledo,,52,,,,,new,0,0.5789473684210527,,,,,,,,,,
null,,confidence_buffer,198187,confidence_buffer,,null,,,,,,,,,,,,,,,,,
null,,thebreak,198698,break,,null,,,,,,,,,,,,,,,,,
613.2000000476837,,realistic_rating,199312,Dover,,51,Dover,3,,,,,,,,,,,,,,,
null,,confidence_buffer,199413,confidence_buffer,,null,,,,,,,,,,,,,,,,,
341,,pt2_unique_rating,199756,Dover,,53,,5,,,,,,,,,,,,,,,
null,,confidence_buffer,199860,confidence_buffer,,null,,,,,,,,,,,,,,,,,
456.10000002384186,,pt2_memorable_rating,200317,Dover,,53,,5,,,,,,,,,,,,,,,
null,,confidence_buffer,200419,confidence_buffer,,null,,,,,,,,,,,,,,,,,
3837.199999988079,,recognition_phase,204257,Dover,,52,,,,,new,0,0.55,,,,,,,,,,
null,,confidence_buffer,204360,confidence_buffer,,null,,,,,,,,,,,,,,,,,
null,,thebreak,204863,break,,null,,,,,,,,,,,,,,,,,
685.8000000119209,,realistic_rating,205550,Ann Arbor,,50,Ann Arbor,2,,,,,,,,,,,,,,,
null,,confidence_buffer,205653,confidence_buffer,,null,,,,,,,,,,,,,,,,,
490.60000002384186,,pt2_unique_rating,206145,Ann Arbor,,51,,3,,,,,,,,,,,,,,,
null,,confidence_buffer,206246,confidence_buffer,,null,,,,,,,,,,,,,,,,,
1563,,probe_rating,207810,probe_rating,,49,,,1,1,,,,,,,,,,,,,
null,,confidence_buffer,207914,confidence_buffer,,null,,,,,,,,,,,,,,,,,
459.60000002384186,,pt2_memorable_rating,208375,Ann Arbor,,50,,2,,,,,,,,,,,,,,,
null,,confidence_buffer,208478,confidence_buffer,,null,,,,,,,,,,,,,,,,,
491.69999998807907,,recognition_phase,208971,Ann Arbor,,51,,,,,new,0,0.5238095238095238,,,,,,,,,,
null,,confidence_buffer,209073,confidence_buffer,,null,,,,,,,,,,,,,,,,,
null,,thebreak,209576,break,,null,,,,,,,,,,,,,,,,,
296,,realistic_rating,209873,Dothan,,52,Dothan,4,,,,,,,,,,,,,,,
null,,confidence_buffer,209976,confidence_buffer,,null,,,,,,,,,,,,,,,,,
1306.300000011921,,pt2_unique_rating,211285,Dothan,,50,,2,,,,,,,,,,,,,,,
null,,confidence_buffer,211386,confidence_buffer,,null,,,,,,,,,,,,,,,,,
453.2000000476837,,pt2_memorable_rating,211841,Dothan,,52,,4,,,,,,,,,,,,,,,
null,,confidence_buffer,211947,confidence_buffer,,null,,,,,,,,,,,,,,,,,
531.6999999880791,,recognition_phase,212481,Dothan,,51,,,,,new,0,0.5,,,,,,,,,,
null,,confidence_buffer,212584,confidence_buffer,,null,,,,,,,,,,,,,,,,,
null,,thebreak,213086,break,,null,,,,,,,,,,,,,,,,,
276.30000001192093,,realistic_rating,213363,Ithaca,,51,Ithaca,3,,,,,,,,,,,,,,,
null,,confidence_buffer,213466,confidence_buffer,,null,,,,,,,,,,,,,,,,,
429.80000001192093,,pt2_unique_rating,213898,Ithaca,,52,,4,,,,,,,,,,,,,,,
null,,confidence_buffer,214001,confidence_buffer,,null,,,,,,,,,,,,,,,,,
451.80000001192093,,pt2_memorable_rating,214455,Ithaca,,52,,4,,,,,,,,,,,,,,,
null,,confidence_buffer,214558,confidence_buffer,,null,,,,,,,,,,,,,,,,,
508.39999997615814,,recognition_phase,215068,Ithaca,,52,,,,,new,1,0.5217391304347826,,,,,,,,,,
null,,confidence_buffer,215172,confidence_buffer,,null,,,,,,,,,,,,,,,,,
null,,thebreak,215674,break,,null,,,,,,,,,,,,,,,,,
538,,realistic_rating,216213,Boise,,50,Boise,2,,,,,,,,,,,,,,,
null,,confidence_buffer,216317,confidence_buffer,,null,,,,,,,,,,,,,,,,,
412.30000001192093,,pt2_unique_rating,216731,Boise,,52,,4,,,,,,,,,,,,,,,
null,,confidence_buffer,216834,confidence_buffer,,null,,,,,,,,,,,,,,,,,
411.69999998807907,,pt2_memorable_rating,217247,Boise,,50,,2,,,,,,,,,,,,,,,
null,,confidence_buffer,217362,confidence_buffer,,null,,,,,,,,,,,,,,,,,
621.9000000357628,,recognition_phase,217985,Boise,,50,,,,,old,0,0.5,,,,,,,,,,
null,,confidence_buffer,218086,confidence_buffer,,null,,,,,,,,,,,,,,,,,
null,,thebreak,218588,break,,null,,,,,,,,,,,,,,,,,
452.19999998807907,,realistic_rating,219042,Abilene,,51,Abilene,3,,,,,,,,,,,,,,,
null,,confidence_buffer,219157,confidence_buffer,,null,,,,,,,,,,,,,,,,,
522.1999999880791,,pt2_unique_rating,219681,Abilene,,50,,2,,,,,,,,,,,,,,,
null,,confidence_buffer,219784,confidence_buffer,,null,,,,,,,,,,,,,,,,,
463.4000000357628,,pt2_memorable_rating,220249,Abilene,,50,,2,,,,,,,,,,,,,,,
null,,confidence_buffer,220350,confidence_buffer,,null,,,,,,,,,,,,,,,,,
578.5,,recognition_phase,220930,Abilene,,50,,,,,old,1,0.52,,,,,,,,,,
null,,confidence_buffer,221033,confidence_buffer,,null,,,,,,,,,,,,,,,,,
null,,thebreak,221535,break,,null,,,,,,,,,,,,,,,,,
340.5,,realistic_rating,221877,Palo Alto,,52,Palo Alto,4,,,,,,,,,,,,,,,
null,,confidence_buffer,221980,confidence_buffer,,null,,,,,,,,,,,,,,,,,
531,,pt2_unique_rating,222513,Palo Alto,,50,,2,,,,,,,,,,,,,,,
null,,confidence_buffer,222617,confidence_buffer,,null,,,,,,,,,,,,,,,,,
376.39999997615814,,pt2_memorable_rating,222995,Palo Alto,,52,,4,,,,,,,,,,,,,,,
null,,confidence_buffer,223097,confidence_buffer,,null,,,,,,,,,,,,,,,,,
873.0999999642372,,recognition_phase,223972,Palo Alto,,49,,,,,old,1,0.5384615384615384,,,,,,,,,,
null,,confidence_buffer,224075,confidence_buffer,,null,,,,,,,,,,,,,,,,,
null,,thebreak,224578,break,,null,,,,,,,,,,,,,,,,,
543.1000000238419,,realistic_rating,225122,Marquette,,52,Marquette,4,,,,,,,,,,,,,,,
null,,confidence_buffer,225226,confidence_buffer,,null,,,,,,,,,,,,,,,,,
922.4000000357628,,pt2_unique_rating,226150,Marquette,,50,,2,,,,,,,,,,,,,,,
null,,confidence_buffer,226252,confidence_buffer,,null,,,,,,,,,,,,,,,,,
496.5,,pt2_memorable_rating,226750,Marquette,,50,,2,,,,,,,,,,,,,,,
null,,confidence_buffer,226853,confidence_buffer,,null,,,,,,,,,,,,,,,,,
575.8000000119209,,recognition_phase,227430,Marquette,,50,,,,,old,1,0.5555555555555556,,,,,,,,,,
null,,confidence_buffer,227533,confidence_buffer,,null,,,,,,,,,,,,,,,,,
null,,thebreak,228035,break,,null,,,,,,,,,,,,,,,,,
465.69999998807907,,realistic_rating,228502,Santa Monica,,51,Santa Monica,3,,,,,,,,,,,,,,,
null,,confidence_buffer,228604,confidence_buffer,,null,,,,,,,,,,,,,,,,,
599.5,,pt2_unique_rating,229205,Santa Monica,,50,,2,,,,,,,,,,,,,,,
null,,confidence_buffer,229307,confidence_buffer,,null,,,,,,,,,,,,,,,,,
416.30000001192093,,pt2_memorable_rating,229724,Santa Monica,,52,,4,,,,,,,,,,,,,,,
null,,confidence_buffer,229826,confidence_buffer,,null,,,,,,,,,,,,,,,,,
650.5,,recognition_phase,230479,Santa Monica,,50,,,,,old,0,0.5357142857142857,,,,,,,,,,
null,,confidence_buffer,230581,confidence_buffer,,null,,,,,,,,,,,,,,,,,
null,,thebreak,231083,break,,null,,,,,,,,,,,,,,,,,
372.5,,realistic_rating,231457,Hagerstown,,50,Hagerstown,2,,,,,,,,,,,,,,,
null,,confidence_buffer,231560,confidence_buffer,,null,,,,,,,,,,,,,,,,,
626.8000000119209,,pt2_unique_rating,232189,Hagerstown,,50,,2,,,,,,,,,,,,,,,
null,,confidence_buffer,232291,confidence_buffer,,null,,,,,,,,,,,,,,,,,
537.2000000476837,,pt2_memorable_rating,232830,Hagerstown,,50,,2,,,,,,,,,,,,,,,
null,,confidence_buffer,232933,confidence_buffer,,null,,,,,,,,,,,,,,,,,
538.3000000119209,,recognition_phase,233473,Hagerstown,,50,,,,,old,1,0.5517241379310345,,,,,,,,,,
null,,confidence_buffer,233577,confidence_buffer,,null,,,,,,,,,,,,,,,,,
null,,thebreak,234079,break,,null,,,,,,,,,,,,,,,,,
389.5,,realistic_rating,234471,Las Cruces,,52,Las Cruces,4,,,,,,,,,,,,,,,
null,,confidence_buffer,234573,confidence_buffer,,null,,,,,,,,,,,,,,,,,
494.5999999642372,,pt2_unique_rating,235070,Las Cruces,,51,,3,,,,,,,,,,,,,,,
null,,confidence_buffer,235172,confidence_buffer,,null,,,,,,,,,,,,,,,,,
363.60000002384186,,pt2_memorable_rating,235537,Las Cruces,,52,,4,,,,,,,,,,,,,,,
null,,confidence_buffer,235639,confidence_buffer,,null,,,,,,,,,,,,,,,,,
398.10000002384186,,recognition_phase,236039,Las Cruces,,51,,,,,new,1,0.5666666666666667,,,,,,,,,,
null,,confidence_buffer,236141,confidence_buffer,,null,,,,,,,,,,,,,,,,,
null,,thebreak,236643,break,,null,,,,,,,,,,,,,,,,,
415.19999998807907,,realistic_rating,237060,Topeka,,51,Topeka,3,,,,,,,,,,,,,,,
null,,confidence_buffer,237163,confidence_buffer,,null,,,,,,,,,,,,,,,,,
384,,pt2_unique_rating,237548,Topeka,,52,,4,,,,,,,,,,,,,,,
null,,confidence_buffer,237652,confidence_buffer,,null,,,,,,,,,,,,,,,,,
3524.2000000476837,,pt2_memorable_rating,241177,Topeka,,50,,2,,,,,,,,,,,,,,,
null,,confidence_buffer,241281,confidence_buffer,,null,,,,,,,,,,,,,,,,,
539.8999999761581,,recognition_phase,241823,Topeka,,51,,,,,new,0,0.5483870967741935,,,,,,,,,,
null,,confidence_buffer,241925,confidence_buffer,,null,,,,,,,,,,,,,,,,,
null,,thebreak,242436,break,,null,,,,,,,,,,,,,,,,,
383.9000000357628,,realistic_rating,242821,Burlington,,51,Burlington,3,,,,,,,,,,,,,,,
null,,confidence_buffer,242925,confidence_buffer,,null,,,,,,,,,,,,,,,,,
398.10000002384186,,pt2_unique_rating,243325,Burlington,,52,,4,,,,,,,,,,,,,,,
null,,confidence_buffer,243426,confidence_buffer,,null,,,,,,,,,,,,,,,,,
1166.3999999761581,,pt2_memorable_rating,244594,Burlington,,52,,4,,,,,,,,,,,,,,,
null,,confidence_buffer,244696,confidence_buffer,,null,,,,,,,,,,,,,,,,,
1674.4000000357628,,probe_rating,246372,probe_rating,,53,,,5,1,,,,,,,,,,,,,
null,,confidence_buffer,246476,confidence_buffer,,null,,,,,,,,,,,,,,,,,
422.39999997615814,,recognition_phase,246900,Burlington,,52,,,,,new,0,0.53125,,,,,,,,,,
null,,confidence_buffer,247002,confidence_buffer,,null,,,,,,,,,,,,,,,,,
null,,thebreak,247504,break,,null,,,,,,,,,,,,,,,,,
230.9000000357628,,realistic_rating,247737,Tallahassee,,52,Tallahassee,4,,,,,,,,,,,,,,,
null,,confidence_buffer,247840,confidence_buffer,,null,,,,,,,,,,,,,,,,,
483.69999998807907,,pt2_unique_rating,248325,Tallahassee,,51,,3,,,,,,,,,,,,,,,
null,,confidence_buffer,248426,confidence_buffer,,null,,,,,,,,,,,,,,,,,
371,,pt2_memorable_rating,248799,Tallahassee,,53,,5,,,,,,,,,,,,,,,
null,,confidence_buffer,248902,confidence_buffer,,null,,,,,,,,,,,,,,,,,
1892.0999999642372,,recognition_phase,250796,Tallahassee,,52,,,,,new,0,0.5151515151515151,,,,,,,,,,
null,,confidence_buffer,250900,confidence_buffer,,null,,,,,,,,,,,,,,,,,
null,,thebreak,251402,break,,null,,,,,,,,,,,,,,,,,
483.5999999642372,,realistic_rating,251888,Cambridge,,50,Cambridge,2,,,,,,,,,,,,,,,
null,,confidence_buffer,251990,confidence_buffer,,null,,,,,,,,,,,,,,,,,
445.4000000357628,,pt2_unique_rating,252436,Cambridge,,50,,2,,,,,,,,,,,,,,,
null,,confidence_buffer,252538,confidence_buffer,,null,,,,,,,,,,,,,,,,,
589.3999999761581,,pt2_memorable_rating,253127,Cambridge,,51,,3,,,,,,,,,,,,,,,
null,,confidence_buffer,253229,confidence_buffer,,null,,,,,,,,,,,,,,,,,
677.1000000238419,,recognition_phase,253907,Cambridge,,50,,,,,old,0,0.5,,,,,,,,,,
null,,confidence_buffer,254009,confidence_buffer,,null,,,,,,,,,,,,,,,,,
null,,thebreak,254510,break,,null,,,,,,,,,,,,,,,,,
5100.299999952316,,realistic_rating,259612,Annapolis,,51,Annapolis,3,,,,,,,,,,,,,,,
null,,confidence_buffer,259715,confidence_buffer,,null,,,,,,,,,,,,,,,,,
549.5,,pt2_unique_rating,260266,Annapolis,,52,,4,,,,,,,,,,,,,,,
null,,confidence_buffer,260369,confidence_buffer,,null,,,,,,,,,,,,,,,,,
450.80000001192093,,pt2_memorable_rating,260821,Annapolis,,50,,2,,,,,,,,,,,,,,,
null,,confidence_buffer,260922,confidence_buffer,,null,,,,,,,,,,,,,,,,,
659.3999999761581,,recognition_phase,261584,Annapolis,,50,,,,,old,1,0.5142857142857142,,,,,,,,,,
null,,confidence_buffer,261686,confidence_buffer,,null,,,,,,,,,,,,,,,,,
null,,thebreak,262187,break,,null,,,,,,,,,,,,,,,,,
782.5,,realistic_rating,262972,Pasadena,,52,Pasadena,4,,,,,,,,,,,,,,,
null,,confidence_buffer,263075,confidence_buffer,,null,,,,,,,,,,,,,,,,,
386.69999998807907,,pt2_unique_rating,263463,Pasadena,,50,,2,,,,,,,,,,,,,,,
null,,confidence_buffer,263566,confidence_buffer,,null,,,,,,,,,,,,,,,,,
466.89999997615814,,pt2_memorable_rating,264034,Pasadena,,50,,2,,,,,,,,,,,,,,,
null,,confidence_buffer,264137,confidence_buffer,,null,,,,,,,,,,,,,,,,,
1389.300000011921,,probe_rating,265527,probe_rating,,51,,,3,1,,,,,,,,,,,,,
null,,confidence_buffer,265630,confidence_buffer,,null,,,,,,,,,,,,,,,,,
595.1000000238419,,recognition_phase,266226,Pasadena,,50,,,,,old,0,0.5,,,,,,,,,,
null,,confidence_buffer,266328,confidence_buffer,,null,,,,,,,,,,,,,,,,,
null,,thebreak,266829,break,,null,,,,,,,,,,,,,,,,,
270.80000001192093,,realistic_rating,267102,Reno,,52,Reno,4,,,,,,,,,,,,,,,
null,,confidence_buffer,267209,confidence_buffer,,null,,,,,,,,,,,,,,,,,
482.7000000476837,,pt2_unique_rating,267694,Reno,,52,,4,,,,,,,,,,,,,,,
null,,confidence_buffer,267797,confidence_buffer,,null,,,,,,,,,,,,,,,,,
330.9000000357628,,pt2_memorable_rating,268130,Reno,,51,,3,,,,,,,,,,,,,,,
null,,confidence_buffer,268232,confidence_buffer,,null,,,,,,,,,,,,,,,,,
388.80000001192093,,recognition_phase,268621,Reno,,50,,,,,old,0,0.4864864864864865,,,,,,,,,,
null,,confidence_buffer,268725,confidence_buffer,,null,,,,,,,,,,,,,,,,,
null,,thebreak,269227,break,,null,,,,,,,,,,,,,,,,,
290.5,,realistic_rating,269519,Bozeman,,53,Bozeman,5,,,,,,,,,,,,,,,
null,,confidence_buffer,269622,confidence_buffer,,null,,,,,,,,,,,,,,,,,
574.5,,pt2_unique_rating,270198,Bozeman,,53,,5,,,,,,,,,,,,,,,
null,,confidence_buffer,270300,confidence_buffer,,null,,,,,,,,,,,,,,,,,
934.2999999523163,,pt2_memorable_rating,271235,Bozeman,,49,,1,,,,,,,,,,,,,,,
null,,confidence_buffer,271338,confidence_buffer,,null,,,,,,,,,,,,,,,,,
533.6999999880791,,recognition_phase,271873,Bozeman,,51,,,,,new,1,0.5,,,,,,,,,,
null,,confidence_buffer,271975,confidence_buffer,,null,,,,,,,,,,,,,,,,,
null,,thebreak,272477,break,,null,,,,,,,,,,,,,,,,,
663.5999999642372,,realistic_rating,273143,Fargo,,50,Fargo,2,,,,,,,,,,,,,,,
null,,confidence_buffer,273245,confidence_buffer,,null,,,,,,,,,,,,,,,,,
481.39999997615814,,pt2_unique_rating,273728,Fargo,,52,,4,,,,,,,,,,,,,,,
null,,confidence_buffer,273831,confidence_buffer,,null,,,,,,,,,,,,,,,,,
648.6999999880791,,pt2_memorable_rating,274482,Fargo,,51,,3,,,,,,,,,,,,,,,
null,,confidence_buffer,274584,confidence_buffer,,null,,,,,,,,,,,,,,,,,
506.30000001192093,,recognition_phase,275092,Fargo,,51,,,,,new,1,0.5128205128205128,,,,,,,,,,
null,,confidence_buffer,275195,confidence_buffer,,null,,,,,,,,,,,,,,,,,
null,,thebreak,275706,break,,null,,,,,,,,,,,,,,,,,
6407.199999988079,,realistic_rating,282115,Youngstown,,49,Youngstown,1,,,,,,,,,,,,,,,
null,,confidence_buffer,282216,confidence_buffer,,null,,,,,,,,,,,,,,,,,
935.8999999761581,,pt2_unique_rating,283154,Youngstown,,50,,2,,,,,,,,,,,,,,,
null,,confidence_buffer,283257,confidence_buffer,,null,,,,,,,,,,,,,,,,,
643.3000000119209,,pt2_memorable_rating,283902,Youngstown,,50,,2,,,,,,,,,,,,,,,
null,,confidence_buffer,284004,confidence_buffer,,null,,,,,,,,,,,,,,,,,
595.8000000119209,,recognition_phase,284601,Youngstown,,52,,,,,new,1,0.525,,,,,,,,,,
null,,confidence_buffer,284704,confidence_buffer,,null,,,,,,,,,,,,,,,,,
null,,thebreak,285207,break,,null,,,,,,,,,,,,,,,,,
139.19999998807907,,realistic_rating,285347,Terre Haute,,52,Terre Haute,4,,,,,,,,,,,,,,,
null,,confidence_buffer,285450,confidence_buffer,,null,,,,,,,,,,,,,,,,,
628.8999999761581,,pt2_unique_rating,286080,Terre Haute,,51,,3,,,,,,,,,,,,,,,
null,,confidence_buffer,286182,confidence_buffer,,null,,,,,,,,,,,,,,,,,
598.6999999880791,,pt2_memorable_rating,286782,Terre Haute,,50,,2,,,,,,,,,,,,,,,
null,,confidence_buffer,286885,confidence_buffer,,null,,,,,,,,,,,,,,,,,
494.19999998807907,,recognition_phase,287381,Terre Haute,,52,,,,,new,0,0.5121951219512195,,,,,,,,,,
null,,confidence_buffer,287494,confidence_buffer,,null,,,,,,,,,,,,,,,,,
null,,thebreak,287997,break,,null,,,,,,,,,,,,,,,,,
776.3000000119209,,realistic_rating,288775,Stamford,,50,Stamford,2,,,,,,,,,,,,,,,
null,,confidence_buffer,288878,confidence_buffer,,null,,,,,,,,,,,,,,,,,
614,,pt2_unique_rating,289494,Stamford,,51,,3,,,,,,,,,,,,,,,
null,,confidence_buffer,289598,confidence_buffer,,null,,,,,,,,,,,,,,,,,
449.5,,pt2_memorable_rating,290049,Stamford,,52,,4,,,,,,,,,,,,,,,
null,,confidence_buffer,290151,confidence_buffer,,null,,,,,,,,,,,,,,,,,
587.8000000119209,,recognition_phase,290741,Stamford,,50,,,,,old,1,0.5238095238095238,,,,,,,,,,
null,,confidence_buffer,290845,confidence_buffer,,null,,,,,,,,,,,,,,,,,
null,,thebreak,291347,break,,null,,,,,,,,,,,,,,,,,
639.1000000238419,,realistic_rating,291987,Frankfort,,50,Frankfort,2,,,,,,,,,,,,,,,
null,,confidence_buffer,292089,confidence_buffer,,null,,,,,,,,,,,,,,,,,
497,,pt2_unique_rating,292588,Frankfort,,52,,4,,,,,,,,,,,,,,,
null,,confidence_buffer,292690,confidence_buffer,,null,,,,,,,,,,,,,,,,,
639.5,,pt2_memorable_rating,293331,Frankfort,,50,,2,,,,,,,,,,,,,,,
null,,confidence_buffer,293434,confidence_buffer,,null,,,,,,,,,,,,,,,,,
1520.699999988079,,recognition_phase,294956,Frankfort,,52,,,,,new,1,0.5348837209302325,,,,,,,,,,
null,,confidence_buffer,295057,confidence_buffer,,null,,,,,,,,,,,,,,,,,
null,,thebreak,295559,break,,null,,,,,,,,,,,,,,,,,
380.10000002384186,,realistic_rating,295940,Syracuse,,50,Syracuse,2,,,,,,,,,,,,,,,
null,,confidence_buffer,296043,confidence_buffer,,null,,,,,,,,,,,,,,,,,
742.5,,pt2_unique_rating,296787,Syracuse,,49,,1,,,,,,,,,,,,,,,
null,,confidence_buffer,296890,confidence_buffer,,null,,,,,,,,,,,,,,,,,
671.7999999523163,,pt2_memorable_rating,297563,Syracuse,,49,,1,,,,,,,,,,,,,,,
null,,confidence_buffer,297665,confidence_buffer,,null,,,,,,,,,,,,,,,,,
628.2999999523163,,recognition_phase,298295,Syracuse,,51,,,,,new,0,0.5227272727272727,,,,,,,,,,
null,,confidence_buffer,298397,confidence_buffer,,null,,,,,,,,,,,,,,,,,
null,,thebreak,298898,break,,null,,,,,,,,,,,,,,,,,
5024.299999952316,,realistic_rating,303924,New Haven,,51,New Haven,3,,,,,,,,,,,,,,,
null,,confidence_buffer,304028,confidence_buffer,,null,,,,,,,,,,,,,,,,,
446.30000001192093,,pt2_unique_rating,304474,New Haven,,52,,4,,,,,,,,,,,,,,,
null,,confidence_buffer,304576,confidence_buffer,,null,,,,,,,,,,,,,,,,,
464,,pt2_memorable_rating,305041,New Haven,,50,,2,,,,,,,,,,,,,,,
null,,confidence_buffer,305145,confidence_buffer,,null,,,,,,,,,,,,,,,,,
629.3999999761581,,recognition_phase,305776,New Haven,,50,,,,,old,0,0.5111111111111111,,,,,,,,,,
null,,confidence_buffer,305879,confidence_buffer,,null,,,,,,,,,,,,,,,,,
null,,thebreak,306382,break,,null,,,,,,,,,,,,,,,,,
750.5,,realistic_rating,307134,Pueblo,,52,Pueblo,4,,,,,,,,,,,,,,,
null,,confidence_buffer,307237,confidence_buffer,,null,,,,,,,,,,,,,,,,,
574.3999999761581,,pt2_unique_rating,307812,Pueblo,,50,,2,,,,,,,,,,,,,,,
null,,confidence_buffer,307914,confidence_buffer,,null,,,,,,,,,,,,,,,,,
576,,pt2_memorable_rating,308492,Pueblo,,50,,2,,,,,,,,,,,,,,,
null,,confidence_buffer,308608,confidence_buffer,,null,,,,,,,,,,,,,,,,,
618.3000000119209,,recognition_phase,309228,Pueblo,,52,,,,,new,1,0.5217391304347826,,,,,,,,,,
null,,confidence_buffer,309331,confidence_buffer,,null,,,,,,,,,,,,,,,,,
null,,thebreak,309834,break,,null,,,,,,,,,,,,,,,,,
593.1999999880791,,realistic_rating,310428,McKinney,,50,McKinney,2,,,,,,,,,,,,,,,
null,,confidence_buffer,310530,confidence_buffer,,null,,,,,,,,,,,,,,,,,
1658.3999999761581,,probe_rating,312190,probe_rating,,52,,,4,1,,,,,,,,,,,,,
null,,confidence_buffer,312293,confidence_buffer,,null,,,,,,,,,,,,,,,,,
1475.9000000357628,,pt2_unique_rating,313770,McKinney,,52,,4,,,,,,,,,,,,,,,
null,,confidence_buffer,313872,confidence_buffer,,null,,,,,,,,,,,,,,,,,
470.10000002384186,,pt2_memorable_rating,314343,McKinney,,51,,3,,,,,,,,,,,,,,,
null,,confidence_buffer,314445,confidence_buffer,,null,,,,,,,,,,,,,,,,,
578.9000000357628,,recognition_phase,315026,McKinney,,50,,,,,old,0,0.5106382978723404,,,,,,,,,,
null,,confidence_buffer,315129,confidence_buffer,,null,,,,,,,,,,,,,,,,,
null,,thebreak,315631,break,,null,,,,,,,,,,,,,,,,,
513.5,,realistic_rating,316146,Bellingham,,50,Bellingham,2,,,,,,,,,,,,,,,
null,,confidence_buffer,316248,confidence_buffer,,null,,,,,,,,,,,,,,,,,
468.30000001192093,,pt2_unique_rating,316718,Bellingham,,51,,3,,,,,,,,,,,,,,,
null,,confidence_buffer,316821,confidence_buffer,,null,,,,,,,,,,,,,,,,,
511.69999998807907,,pt2_memorable_rating,317334,Bellingham,,51,,3,,,,,,,,,,,,,,,
null,,confidence_buffer,317437,confidence_buffer,,null,,,,,,,,,,,,,,,,,
507.80000001192093,,recognition_phase,317946,Bellingham,,52,,,,,new,0,0.5,,,,,,,,,,
null,,confidence_buffer,318048,confidence_buffer,,null,,,,,,,,,,,,,,,,,
null,,thebreak,318551,break,,null,,,,,,,,,,,,,,,,,
602.9000000357628,,realistic_rating,319155,Newport News,,50,Newport News,2,,,,,,,,,,,,,,,
null,,confidence_buffer,319259,confidence_buffer,,null,,,,,,,,,,,,,,,,,
636.6999999880791,,pt2_unique_rating,319897,Newport News,,50,,2,,,,,,,,,,,,,,,
null,,confidence_buffer,319999,confidence_buffer,,null,,,,,,,,,,,,,,,,,
420.10000002384186,,pt2_memorable_rating,320420,Newport News,,52,,4,,,,,,,,,,,,,,,
null,,confidence_buffer,320523,confidence_buffer,,null,,,,,,,,,,,,,,,,,
620.6000000238419,,recognition_phase,321146,Newport News,,50,,,,,old,1,0.5102040816326531,,,,,,,,,,
null,,confidence_buffer,321262,confidence_buffer,,null,,,,,,,,,,,,,,,,,
null,,thebreak,321763,break,,null,,,,,,,,,,,,,,,,,
621.8000000119209,,realistic_rating,322387,Concord,,49,Concord,1,,,,,,,,,,,,,,,
null,,confidence_buffer,322489,confidence_buffer,,null,,,,,,,,,,,,,,,,,
667.7000000476837,,pt2_unique_rating,323158,Concord,,49,,1,,,,,,,,,,,,,,,
null,,confidence_buffer,323261,confidence_buffer,,null,,,,,,,,,,,,,,,,,
620.3000000119209,,pt2_memorable_rating,323883,Concord,,50,,2,,,,,,,,,,,,,,,
null,,confidence_buffer,323984,confidence_buffer,,null,,,,,,,,,,,,,,,,,
568.8000000119209,,recognition_phase,324555,Concord,,51,,,,,new,1,0.52,,,,,,,,,,
null,,confidence_buffer,324658,confidence_buffer,,null,,,,,,,,,,,,,,,,,
null,,thebreak,325161,break,,null,,,,,,,,,,,,,,,,,
,,survey,504995,survey-questions,,,,,,,,,,none,high,No,Memorized the countries,If seen before ,If i have heard of it ,how natural it is ,How real it is ,no,no
