rt,responses,trial_type,time_elapsed,stimulus,button_pressed,key_press,name_trial,city_type,rating,probe,probe_accuracy,response,correct,accuracy,detectfocus,warning
9026.70000000298,{worker_id:67ed5539c69f3c32f171e649},id_enter,9032,,,,,,,,,,,,,
26386.40000000596,,fullscreen,35422,fullscreen,0,,,,,,,,,,,
33852.60000000894,,intro_0,69278,instruct,,32,,,,,,,,,,
24468.40000000596,,intro_1,93748,instruct,,32,,,,,,,,,,
18203.79999999702,,intro_2,111954,instruct,,32,,,,,,,,,,
null,,instruct_dir_4,113466,instruct,,null,,,,,,,,,,
null,,thebreak,113968,break,,null,,,,,,,,,,
17913.29999999702,,familiar_rating,131883,Montelake,,52,Montelake,Fictional,4,,,,,,,
null,,confidence_buffer,131987,confidence_buffer,,null,,,,,,,,,,
30118.20000000298,,unique_rating,162107,Montelake,,50,,,2,,,,,,,
null,,confidence_buffer,162210,confidence_buffer,,null,,,,,,,,,,
27613.79999999702,,memorable_rating,189826,Montelake,,51,,,3,,,,,,,
null,,confidence_buffer,189929,confidence_buffer,,null,,,,,,,,,,
null,,thebreak,190439,break,,null,,,,,,,,,,
11833.5,,familiar_rating,202275,Pine Hollow,,52,Pine Hollow,Fictional,4,,,,,,,
null,,confidence_buffer,202377,confidence_buffer,,null,,,,,,,,,,
717.0999999940395,,unique_rating,203096,Pine Hollow,,52,,,4,,,,,,,
null,,confidence_buffer,203198,confidence_buffer,,null,,,,,,,,,,
7974.100000008941,,memorable_rating,211175,Pine Hollow,,52,,,4,,,,,,,
null,,confidence_buffer,211277,confidence_buffer,,null,,,,,,,,,,
null,,thebreak,211778,break,,null,,,,,,,,,,
11880.40000000596,,familiar_rating,223661,Sisters,,49,Sisters,US,1,,,,,,,
null,,confidence_buffer,223765,confidence_buffer,,null,,,,,,,,,,
3922.3999999910593,,probe_rating,227689,probe_rating,,49,,,,1,1,,,,,
null,,confidence_buffer,227792,confidence_buffer,,null,,,,,,,,,,
9024.20000000298,,unique_rating,236818,Sisters,,53,,,5,,,,,,,
null,,confidence_buffer,236920,confidence_buffer,,null,,,,,,,,,,
7403.800000011921,,memorable_rating,244326,Sisters,,49,,,1,,,,,,,
null,,confidence_buffer,244428,confidence_buffer,,null,,,,,,,,,,
null,,thebreak,244930,break,,null,,,,,,,,,,
11919.300000011921,,familiar_rating,256852,Cape May,,52,Cape May,US,4,,,,,,,
null,,confidence_buffer,256955,confidence_buffer,,null,,,,,,,,,,
5504.79999999702,,unique_rating,262462,Cape May,,52,,,4,,,,,,,
null,,confidence_buffer,262565,confidence_buffer,,null,,,,,,,,,,
3051,,memorable_rating,265618,Cape May,,52,,,4,,,,,,,
null,,confidence_buffer,265721,confidence_buffer,,null,,,,,,,,,,
null,,thebreak,266223,break,,null,,,,,,,,,,
7668,,familiar_rating,273893,Maplehurst,,50,Maplehurst,Fictional,2,,,,,,,
null,,confidence_buffer,273995,confidence_buffer,,null,,,,,,,,,,
10814.89999999106,,unique_rating,284812,Maplehurst,,53,,,5,,,,,,,
null,,confidence_buffer,284915,confidence_buffer,,null,,,,,,,,,,
3671.7000000029802,,memorable_rating,288589,Maplehurst,,50,,,2,,,,,,,
null,,confidence_buffer,288691,confidence_buffer,,null,,,,,,,,,,
null,,thebreak,289192,break,,null,,,,,,,,,,
4993.70000000298,,familiar_rating,294188,Redgrove,,49,Redgrove,Fictional,1,,,,,,,
null,,confidence_buffer,294291,confidence_buffer,,null,,,,,,,,,,
6817.899999991059,,unique_rating,301111,Redgrove,,50,,,2,,,,,,,
null,,confidence_buffer,301213,confidence_buffer,,null,,,,,,,,,,
5123.70000000298,,memorable_rating,306339,Redgrove,,49,,,1,,,,,,,
null,,confidence_buffer,306441,confidence_buffer,,null,,,,,,,,,,
null,,thebreak,306943,break,,null,,,,,,,,,,
4731.70000000298,,familiar_rating,311677,Westridge,,52,Westridge,Fictional,4,,,,,,,
null,,confidence_buffer,311781,confidence_buffer,,null,,,,,,,,,,
7726.699999988079,,unique_rating,319509,Westridge,,49,,,1,,,,,,,
null,,confidence_buffer,319612,confidence_buffer,,null,,,,,,,,,,
2579.7999999970198,,memorable_rating,322194,Westridge,,52,,,4,,,,,,,
null,,confidence_buffer,322296,confidence_buffer,,null,,,,,,,,,,
null,,thebreak,322797,break,,null,,,,,,,,,,
5323.0999999940395,,familiar_rating,328123,Falconridge,,52,Falconridge,Fictional,4,,,,,,,
null,,confidence_buffer,328226,confidence_buffer,,null,,,,,,,,,,
2958.9000000059605,,unique_rating,331187,Falconridge,,52,,,4,,,,,,,
null,,confidence_buffer,331290,confidence_buffer,,null,,,,,,,,,,
3831.6000000089407,,memorable_rating,335123,Falconridge,,50,,,2,,,,,,,
null,,confidence_buffer,335225,confidence_buffer,,null,,,,,,,,,,
null,,thebreak,335727,break,,null,,,,,,,,,,
4212.5,,familiar_rating,339941,Oakridge,,52,Oakridge,Fictional,4,,,,,,,
null,,confidence_buffer,340043,confidence_buffer,,null,,,,,,,,,,
3060.3999999910593,,unique_rating,343105,Oakridge,,52,,,4,,,,,,,
null,,confidence_buffer,343208,confidence_buffer,,null,,,,,,,,,,
3810.9000000059605,,memorable_rating,347021,Oakridge,,49,,,1,,,,,,,
null,,confidence_buffer,347124,confidence_buffer,,null,,,,,,,,,,
null,,thebreak,347625,break,,null,,,,,,,,,,
4530,,familiar_rating,352157,Tamarisk Hills,,52,Tamarisk Hills,Fictional,4,,,,,,,
null,,confidence_buffer,352260,confidence_buffer,,null,,,,,,,,,,
14696.79999999702,,unique_rating,366959,Tamarisk Hills,,53,,,5,,,,,,,
null,,confidence_buffer,367061,confidence_buffer,,null,,,,,,,,,,
12924.39999999106,,memorable_rating,379988,Tamarisk Hills,,50,,,2,,,,,,,
null,,confidence_buffer,380091,confidence_buffer,,null,,,,,,,,,,
null,,thebreak,380593,break,,null,,,,,,,,,,
8634.29999999702,,familiar_rating,389229,Hanover,,52,Hanover,US,4,,,,,,,
null,,confidence_buffer,389332,confidence_buffer,,null,,,,,,,,,,
1367.2000000029802,,unique_rating,390702,Hanover,,52,,,4,,,,,,,
null,,confidence_buffer,390805,confidence_buffer,,null,,,,,,,,,,
2428.3999999910593,,memorable_rating,393235,Hanover,,52,,,4,,,,,,,
null,,confidence_buffer,393337,confidence_buffer,,null,,,,,,,,,,
null,,thebreak,393839,break,,null,,,,,,,,,,
10589.5,,familiar_rating,404431,Duck,,49,Duck,US,1,,,,,,,
null,,confidence_buffer,404533,confidence_buffer,,null,,,,,,,,,,
9338.09999999404,,unique_rating,413873,Duck,,52,,,4,,,,,,,
null,,confidence_buffer,413976,confidence_buffer,,null,,,,,,,,,,
4931.9000000059605,,memorable_rating,418910,Duck,,50,,,2,,,,,,,
null,,confidence_buffer,419012,confidence_buffer,,null,,,,,,,,,,
null,,thebreak,419515,break,,null,,,,,,,,,,
2707.2000000029802,,familiar_rating,422224,Bisbee,,52,Bisbee,US,4,,,,,,,
null,,confidence_buffer,422326,confidence_buffer,,null,,,,,,,,,,
7755.5,,unique_rating,430084,Bisbee,,52,,,4,,,,,,,
null,,confidence_buffer,430186,confidence_buffer,,null,,,,,,,,,,
2277.7999999970198,,memorable_rating,432466,Bisbee,,51,,,3,,,,,,,
null,,confidence_buffer,432568,confidence_buffer,,null,,,,,,,,,,
null,,thebreak,433070,break,,null,,,,,,,,,,
1976,,familiar_rating,435048,Bar Harbor,,52,Bar Harbor,US,4,,,,,,,
null,,confidence_buffer,435150,confidence_buffer,,null,,,,,,,,,,
1439.1000000089407,,unique_rating,436591,Bar Harbor,,52,,,4,,,,,,,
null,,confidence_buffer,436695,confidence_buffer,,null,,,,,,,,,,
2969.1000000089407,,memorable_rating,439666,Bar Harbor,,51,,,3,,,,,,,
null,,confidence_buffer,439768,confidence_buffer,,null,,,,,,,,,,
null,,thebreak,440274,break,,null,,,,,,,,,,
5307.20000000298,,familiar_rating,445584,Sammamish,,50,Sammamish,US,2,,,,,,,
null,,confidence_buffer,445687,confidence_buffer,,null,,,,,,,,,,
2086.5,,unique_rating,447776,Sammamish,,51,,,3,,,,,,,
null,,confidence_buffer,447878,confidence_buffer,,null,,,,,,,,,,
3149.1000000089407,,memorable_rating,451029,Sammamish,,52,,,4,,,,,,,
null,,confidence_buffer,451137,confidence_buffer,,null,,,,,,,,,,
6349.9000000059605,,probe_rating,457489,probe_rating,,51,,,,3,1,,,,,
null,,confidence_buffer,457591,confidence_buffer,,null,,,,,,,,,,
null,,thebreak,458092,break,,null,,,,,,,,,,
3860,,familiar_rating,461954,Healdsburg,,52,Healdsburg,US,4,,,,,,,
null,,confidence_buffer,462057,confidence_buffer,,null,,,,,,,,,,
2007.4000000059605,,unique_rating,464066,Healdsburg,,51,,,3,,,,,,,
null,,confidence_buffer,464169,confidence_buffer,,null,,,,,,,,,,
1006.3999999910593,,memorable_rating,465178,Healdsburg,,50,,,2,,,,,,,
null,,confidence_buffer,465286,confidence_buffer,,null,,,,,,,,,,
null,,thebreak,465788,break,,null,,,,,,,,,,
5935.600000008941,,familiar_rating,471726,Millstone,,53,Millstone,Fictional,5,,,,,,,
null,,confidence_buffer,471828,confidence_buffer,,null,,,,,,,,,,
2948.5999999940395,,unique_rating,474779,Millstone,,50,,,2,,,,,,,
null,,confidence_buffer,474881,confidence_buffer,,null,,,,,,,,,,
1738,,memorable_rating,476621,Millstone,,50,,,2,,,,,,,
null,,confidence_buffer,476723,confidence_buffer,,null,,,,,,,,,,
null,,thebreak,477224,break,,null,,,,,,,,,,
4479.79999999702,,familiar_rating,481706,Ravenport,,52,Ravenport,Fictional,4,,,,,,,
null,,confidence_buffer,481808,confidence_buffer,,null,,,,,,,,,,
3050.1000000089407,,unique_rating,484860,Ravenport,,51,,,3,,,,,,,
null,,confidence_buffer,484962,confidence_buffer,,null,,,,,,,,,,
4529.800000011921,,memorable_rating,489494,Ravenport,,50,,,2,,,,,,,
null,,confidence_buffer,489594,confidence_buffer,,null,,,,,,,,,,
null,,thebreak,490095,break,,null,,,,,,,,,,
6515.5999999940395,,familiar_rating,496613,Gatlinburg,,49,Gatlinburg,US,1,,,,,,,
null,,confidence_buffer,496715,confidence_buffer,,null,,,,,,,,,,
3639.7000000029802,,unique_rating,500357,Gatlinburg,,53,,,5,,,,,,,
null,,confidence_buffer,500465,confidence_buffer,,null,,,,,,,,,,
2291.7000000029802,,memorable_rating,502758,Gatlinburg,,50,,,2,,,,,,,
null,,confidence_buffer,502861,confidence_buffer,,null,,,,,,,,,,
null,,thebreak,503362,break,,null,,,,,,,,,,
5402.29999999702,,familiar_rating,508766,Coralridge,,49,Coralridge,Fictional,1,,,,,,,
null,,confidence_buffer,508869,confidence_buffer,,null,,,,,,,,,,
9062.79999999702,,unique_rating,517934,Coralridge,,53,,,5,,,,,,,
null,,confidence_buffer,518037,confidence_buffer,,null,,,,,,,,,,
5420.699999988079,,memorable_rating,523459,Coralridge,,49,,,1,,,,,,,
null,,confidence_buffer,523561,confidence_buffer,,null,,,,,,,,,,
null,,thebreak,524064,break,,null,,,,,,,,,,
3565.6000000089407,,familiar_rating,527632,Cody,,52,Cody,US,4,,,,,,,
null,,confidence_buffer,527735,confidence_buffer,,null,,,,,,,,,,
2057.3999999910593,,unique_rating,529794,Cody,,50,,,2,,,,,,,
null,,confidence_buffer,529896,confidence_buffer,,null,,,,,,,,,,
45.80000001192093,,probe_rating,529944,probe_rating,,50,,,,2,0,,,,,
null,,confidence_buffer,530046,confidence_buffer,,null,,,,,,,,,,
5451.0999999940395,,memorable_rating,535499,Cody,,50,,,2,,,,,,,
null,,confidence_buffer,535601,confidence_buffer,,null,,,,,,,,,,
null,,thebreak,536103,break,,null,,,,,,,,,,
3847.9000000059605,,familiar_rating,539953,Leesburg,,51,Leesburg,US,3,,,,,,,
null,,confidence_buffer,540056,confidence_buffer,,null,,,,,,,,,,
3148.8999999910593,,unique_rating,543206,Leesburg,,50,,,2,,,,,,,
null,,confidence_buffer,543309,confidence_buffer,,null,,,,,,,,,,
8864.79999999702,,memorable_rating,552175,Leesburg,,50,,,2,,,,,,,
null,,confidence_buffer,552277,confidence_buffer,,null,,,,,,,,,,
null,,thebreak,552779,break,,null,,,,,,,,,,
6070.79999999702,,familiar_rating,558852,Meadowspire,,50,Meadowspire,Fictional,2,,,,,,,
null,,confidence_buffer,558954,confidence_buffer,,null,,,,,,,,,,
5611.199999988079,,unique_rating,564567,Meadowspire,,53,,,5,,,,,,,
null,,confidence_buffer,564670,confidence_buffer,,null,,,,,,,,,,
3828.0999999940395,,memorable_rating,568500,Meadowspire,,50,,,2,,,,,,,
null,,confidence_buffer,568603,confidence_buffer,,null,,,,,,,,,,
null,,thebreak,569105,break,,null,,,,,,,,,,
5138.4000000059605,,familiar_rating,574246,Huntsville,,52,Huntsville,US,4,,,,,,,
null,,confidence_buffer,574348,confidence_buffer,,null,,,,,,,,,,
1988.5,,unique_rating,576338,Huntsville,,51,,,3,,,,,,,
null,,confidence_buffer,576440,confidence_buffer,,null,,,,,,,,,,
1076.2000000029802,,memorable_rating,577519,Huntsville,,51,,,3,,,,,,,
null,,confidence_buffer,577624,confidence_buffer,,null,,,,,,,,,,
null,,thebreak,578126,break,,null,,,,,,,,,,
5575.600000008941,,familiar_rating,583704,Lake of the Ozarks,,52,Lake of the Ozarks,US,4,,,,,,,
null,,confidence_buffer,583807,confidence_buffer,,null,,,,,,,,,,
4109.5,,unique_rating,587918,Lake of the Ozarks,,51,,,3,,,,,,,
null,,confidence_buffer,588035,confidence_buffer,,null,,,,,,,,,,
1742.2999999970198,,memorable_rating,589780,Lake of the Ozarks,,51,,,3,,,,,,,
null,,confidence_buffer,589883,confidence_buffer,,null,,,,,,,,,,
null,,thebreak,590386,break,,null,,,,,,,,,,
2724.2000000029802,,familiar_rating,593113,East Ladera,,51,East Ladera,Fictional,3,,,,,,,
null,,confidence_buffer,593215,confidence_buffer,,null,,,,,,,,,,
6993.0999999940395,,unique_rating,600210,East Ladera,,53,,,5,,,,,,,
null,,confidence_buffer,600312,confidence_buffer,,null,,,,,,,,,,
3388.9000000059605,,memorable_rating,603703,East Ladera,,50,,,2,,,,,,,
null,,confidence_buffer,603805,confidence_buffer,,null,,,,,,,,,,
null,,thebreak,604307,break,,null,,,,,,,,,,
2758,,familiar_rating,607067,Carmel,,53,Carmel,US,5,,,,,,,
null,,confidence_buffer,607170,confidence_buffer,,null,,,,,,,,,,
2567.4000000059605,,unique_rating,609740,Carmel,,49,,,1,,,,,,,
null,,confidence_buffer,609842,confidence_buffer,,null,,,,,,,,,,
2128,,memorable_rating,611972,Carmel,,53,,,5,,,,,,,
null,,confidence_buffer,612075,confidence_buffer,,null,,,,,,,,,,
null,,thebreak,612576,break,,null,,,,,,,,,,
3216.5,,familiar_rating,615795,Orr,,51,Orr,US,3,,,,,,,
null,,confidence_buffer,615897,confidence_buffer,,null,,,,,,,,,,
1136.9000000059605,,unique_rating,617036,Orr,,50,,,2,,,,,,,
null,,confidence_buffer,617139,confidence_buffer,,null,,,,,,,,,,
3438.2000000029802,,probe_rating,620579,probe_rating,,51,,,,3,1,,,,,
null,,confidence_buffer,620682,confidence_buffer,,null,,,,,,,,,,
10185.5,,memorable_rating,630869,Orr,,50,,,2,,,,,,,
null,,confidence_buffer,630972,confidence_buffer,,null,,,,,,,,,,
null,,thebreak,631475,break,,null,,,,,,,,,,
7829.20000000298,,familiar_rating,639307,Maravilla Springs,,52,Maravilla Springs,Fictional,4,,,,,,,
null,,confidence_buffer,639409,confidence_buffer,,null,,,,,,,,,,
1066.3999999910593,,unique_rating,640477,Maravilla Springs,,50,,,2,,,,,,,
null,,confidence_buffer,640580,confidence_buffer,,null,,,,,,,,,,
3899.4000000059605,,memorable_rating,644481,Maravilla Springs,,50,,,2,,,,,,,
null,,confidence_buffer,644583,confidence_buffer,,null,,,,,,,,,,
null,,thebreak,645085,break,,null,,,,,,,,,,
3288.2999999970198,,familiar_rating,648375,Golden Trace,,52,Golden Trace,Fictional,4,,,,,,,
null,,confidence_buffer,648478,confidence_buffer,,null,,,,,,,,,,
1156.5999999940395,,unique_rating,649636,Golden Trace,,50,,,2,,,,,,,
null,,confidence_buffer,649739,confidence_buffer,,null,,,,,,,,,,
1496.9000000059605,,memorable_rating,651238,Golden Trace,,50,,,2,,,,,,,
null,,confidence_buffer,651345,confidence_buffer,,null,,,,,,,,,,
null,,thebreak,651847,break,,null,,,,,,,,,,
9156.10000000894,,intro_0,661004,instruct,,32,,,,,,,,,,
13257.79999999702,,intro_1,674264,instruct,,32,,,,,,,,,,
24375.20000000298,,intro_2,698641,instruct,,32,,,,,,,,,,
null,,instruct_dir_4,700143,instruct,,null,,,,,,,,,,
29384.10000000894,,realistic_rating,729530,Millstone,,51,Millstone,Fictional,3,,,,,,,
null,,confidence_buffer,729633,confidence_buffer,,null,,,,,,,,,,
8000,,pt2_unique_rating,737635,Millstone,,49,,,1,,,,,,,
null,,confidence_buffer,737737,confidence_buffer,,null,,,,,,,,,,
4999.5999999940395,,pt2_memorable_rating,742738,Millstone,,50,,,2,,,,,,,
null,,confidence_buffer,742841,confidence_buffer,,null,,,,,,,,,,
8219.699999988079,,recognition_phase,751063,Millstone,,51,,,,,,new,0,0,,
null,,confidence_buffer,751166,confidence_buffer,,null,,,,,,,,,,
null,,thebreak,751669,break,,null,,,,,,,,,,
9287,,realistic_rating,760958,Linden Trace,,50,Linden Trace,Fictional,2,,,,,,,
null,,confidence_buffer,761060,confidence_buffer,,null,,,,,,,,,,
12191.70000000298,,pt2_unique_rating,773254,Linden Trace,,51,,,3,,,,,,,
null,,confidence_buffer,773356,confidence_buffer,,null,,,,,,,,,,
3416.6000000089407,,probe_rating,776775,probe_rating,,53,,,,5,1,,,,,
null,,confidence_buffer,776878,confidence_buffer,,null,,,,,,,,,,
29115.30000001192,,pt2_memorable_rating,805996,Linden Trace,,51,,,3,,,,,,,
null,,confidence_buffer,806098,confidence_buffer,,null,,,,,,,,,,
5427.5999999940395,,recognition_phase,811527,Linden Trace,,50,,,,,,old,0,0,,
null,,confidence_buffer,811629,confidence_buffer,,null,,,,,,,,,,
null,,thebreak,812141,break,,null,,,,,,,,,,
8047.79999999702,,realistic_rating,820191,Highvale,,51,Highvale,Fictional,3,,,,,,,
null,,confidence_buffer,820295,confidence_buffer,,null,,,,,,,,,,
4386,,pt2_unique_rating,824683,Highvale,,50,,,2,,,,,,,
null,,confidence_buffer,824785,confidence_buffer,,null,,,,,,,,,,
6048.4000000059605,,pt2_memorable_rating,830836,Highvale,,51,,,3,,,,,,,
null,,confidence_buffer,830938,confidence_buffer,,null,,,,,,,,,,
2516.5,,recognition_phase,833457,Highvale,,50,,,,,,old,0,0,,
null,,confidence_buffer,833561,confidence_buffer,,null,,,,,,,,,,
null,,thebreak,834065,break,,null,,,,,,,,,,
6911.300000011921,,realistic_rating,840978,Athens,,53,Athens,US,5,,,,,,,
null,,confidence_buffer,841081,confidence_buffer,,null,,,,,,,,,,
3295.8999999910593,,pt2_unique_rating,844379,Athens,,49,,,1,,,,,,,
null,,confidence_buffer,844481,confidence_buffer,,null,,,,,,,,,,
2887.2999999970198,,pt2_memorable_rating,847370,Athens,,53,,,5,,,,,,,
null,,confidence_buffer,847472,confidence_buffer,,null,,,,,,,,,,
null,,recognition_phase,862475,Athens,,null,,,,,,old,0,0,,
null,,confidence_buffer,862577,confidence_buffer,,null,,,,,,,,,,
null,,thebreak,863079,break,,null,,,,,,,,,,
9037.40000000596,,realistic_rating,872119,Lakehaven,,52,Lakehaven,Fictional,4,,,,,,,
null,,confidence_buffer,872222,confidence_buffer,,null,,,,,,,,,,
3875.5999999940395,,pt2_unique_rating,876100,Lakehaven,,49,,,1,,,,,,,
null,,confidence_buffer,876202,confidence_buffer,,null,,,,,,,,,,
5648.100000008941,,pt2_memorable_rating,881852,Lakehaven,,50,,,2,,,,,,,
null,,confidence_buffer,881955,confidence_buffer,,null,,,,,,,,,,
2415.2999999970198,,recognition_phase,884373,Lakehaven,,50,,,,,,old,0,0,,
null,,confidence_buffer,884475,confidence_buffer,,null,,,,,,,,,,
null,,thebreak,884977,break,,null,,,,,,,,,,
7666.5999999940395,,realistic_rating,892646,Bar Harbor,,51,Bar Harbor,US,3,,,,,,,
null,,confidence_buffer,892748,confidence_buffer,,null,,,,,,,,,,
4557.800000011921,,probe_rating,897308,probe_rating,,50,,,,2,1,,,,,
null,,confidence_buffer,897411,confidence_buffer,,null,,,,,,,,,,
6517.4000000059605,,pt2_unique_rating,903930,Bar Harbor,,50,,,2,,,,,,,
null,,confidence_buffer,904033,confidence_buffer,,null,,,,,,,,,,
5357.699999988079,,pt2_memorable_rating,909393,Bar Harbor,,50,,,2,,,,,,,
null,,confidence_buffer,909495,confidence_buffer,,null,,,,,,,,,,
5977.5,,recognition_phase,915474,Bar Harbor,,51,,,,,,new,0,0,,
null,,confidence_buffer,915577,confidence_buffer,,null,,,,,,,,,,
null,,thebreak,916078,break,,null,,,,,,,,,,
5135.70000000298,,realistic_rating,921216,Coralridge,,52,Coralridge,Fictional,4,,,,,,,
null,,confidence_buffer,921319,confidence_buffer,,null,,,,,,,,,,
6524,,pt2_unique_rating,927845,Coralridge,,50,,,2,,,,,,,
null,,confidence_buffer,927947,confidence_buffer,,null,,,,,,,,,,
4850.0999999940395,,pt2_memorable_rating,932800,Coralridge,,50,,,2,,,,,,,
null,,confidence_buffer,932903,confidence_buffer,,null,,,,,,,,,,
3584.2999999970198,,recognition_phase,936490,Coralridge,,51,,,,,,new,0,0,,
null,,confidence_buffer,936592,confidence_buffer,,null,,,,,,,,,,
null,,thebreak,937095,break,,null,,,,,,,,,,
5454.100000008941,,realistic_rating,942551,Huntsville,,52,Huntsville,US,4,,,,,,,
null,,confidence_buffer,942653,confidence_buffer,,null,,,,,,,,,,
8296.59999999404,,pt2_unique_rating,950952,Huntsville,,50,,,2,,,,,,,
null,,confidence_buffer,951055,confidence_buffer,,null,,,,,,,,,,
5465,,pt2_memorable_rating,956522,Huntsville,,52,,,4,,,,,,,
null,,confidence_buffer,956625,confidence_buffer,,null,,,,,,,,,,
4586,,recognition_phase,961213,Huntsville,,49,,,,,,old,1,0.125,,
null,,confidence_buffer,961315,confidence_buffer,,null,,,,,,,,,,
null,,thebreak,961816,break,,null,,,,,,,,,,
6735.20000000298,,realistic_rating,968554,Hanover,,52,Hanover,US,4,,,,,,,
null,,confidence_buffer,968656,confidence_buffer,,null,,,,,,,,,,
9277.20000000298,,pt2_unique_rating,977935,Hanover,,51,,,3,,,,,,,
null,,confidence_buffer,978038,confidence_buffer,,null,,,,,,,,,,
6465.9000000059605,,pt2_memorable_rating,984505,Hanover,,52,,,4,,,,,,,
null,,confidence_buffer,984607,confidence_buffer,,null,,,,,,,,,,
2315.9000000059605,,recognition_phase,986925,Hanover,,49,,,,,,old,1,0.2222222222222222,,
null,,confidence_buffer,987028,confidence_buffer,,null,,,,,,,,,,
null,,thebreak,987530,break,,null,,,,,,,,,,
12264.40000000596,,realistic_rating,999797,Gatlinburg,,52,Gatlinburg,US,4,,,,,,,
null,,confidence_buffer,999899,confidence_buffer,,null,,,,,,,,,,
5544.20000000298,,pt2_unique_rating,1005446,Gatlinburg,,52,,,4,,,,,,,
null,,confidence_buffer,1005549,confidence_buffer,,null,,,,,,,,,,
4066.9000000059605,,pt2_memorable_rating,1009619,Gatlinburg,,50,,,2,,,,,,,
null,,confidence_buffer,1009723,confidence_buffer,,null,,,,,,,,,,
7899.29999999702,,recognition_phase,1017627,Gatlinburg,,51,,,,,,new,0,0.2,,
null,,confidence_buffer,1017729,confidence_buffer,,null,,,,,,,,,,
null,,thebreak,1018231,break,,null,,,,,,,,,,
11024.5,,realistic_rating,1029258,Pine Hollow,,52,Pine Hollow,Fictional,4,,,,,,,
null,,confidence_buffer,1029360,confidence_buffer,,null,,,,,,,,,,
5255.899999991059,,pt2_unique_rating,1034618,Pine Hollow,,53,,,5,,,,,,,
null,,confidence_buffer,1034720,confidence_buffer,,null,,,,,,,,,,
1356.300000011921,,pt2_memorable_rating,1036078,Pine Hollow,,53,,,5,,,,,,,
null,,confidence_buffer,1036181,confidence_buffer,,null,,,,,,,,,,
8796.40000000596,,recognition_phase,1044979,Pine Hollow,,51,,,,,,new,0,0.18181818181818182,,
null,,confidence_buffer,1045082,confidence_buffer,,null,,,,,,,,,,
null,,thebreak,1045584,break,,null,,,,,,,,,,
5023,,realistic_rating,1050610,Sammamish,,52,Sammamish,US,4,,,,,,,
null,,confidence_buffer,1050712,confidence_buffer,,null,,,,,,,,,,
3125.7000000029802,,pt2_unique_rating,1053840,Sammamish,,50,,,2,,,,,,,
null,,confidence_buffer,1053943,confidence_buffer,,null,,,,,,,,,,
8295.5,,pt2_memorable_rating,1062241,Sammamish,,52,,,4,,,,,,,
null,,confidence_buffer,1062344,confidence_buffer,,null,,,,,,,,,,
3854.5,,recognition_phase,1066201,Sammamish,,52,,,,,,new,0,0.16666666666666666,,
null,,confidence_buffer,1066304,confidence_buffer,,null,,,,,,,,,,
null,,thebreak,1066805,break,,null,,,,,,,,,,
4103.899999991059,,realistic_rating,1070911,Tamarisk Hills,,52,Tamarisk Hills,Fictional,4,,,,,,,
null,,confidence_buffer,1071013,confidence_buffer,,null,,,,,,,,,,
5946.20000000298,,pt2_unique_rating,1076961,Tamarisk Hills,,52,,,4,,,,,,,
null,,confidence_buffer,1077063,confidence_buffer,,null,,,,,,,,,,
4027.2000000029802,,pt2_memorable_rating,1081092,Tamarisk Hills,,52,,,4,,,,,,,
null,,confidence_buffer,1081195,confidence_buffer,,null,,,,,,,,,,
3474.9000000059605,,recognition_phase,1084672,Tamarisk Hills,,49,,,,,,old,1,0.23076923076923078,,
null,,confidence_buffer,1084775,confidence_buffer,,null,,,,,,,,,,
null,,thebreak,1085276,break,,null,,,,,,,,,,
7774.9000000059605,,realistic_rating,1093053,Rosehollow,,51,Rosehollow,Fictional,3,,,,,,,
null,,confidence_buffer,1093156,confidence_buffer,,null,,,,,,,,,,
3085.699999988079,,pt2_unique_rating,1096244,Rosehollow,,52,,,4,,,,,,,
null,,confidence_buffer,1096346,confidence_buffer,,null,,,,,,,,,,
3316.0999999940395,,pt2_memorable_rating,1099664,Rosehollow,,52,,,4,,,,,,,
null,,confidence_buffer,1099766,confidence_buffer,,null,,,,,,,,,,
4077.7999999970198,,recognition_phase,1103846,Rosehollow,,51,,,,,,new,1,0.2857142857142857,,
null,,confidence_buffer,1103948,confidence_buffer,,null,,,,,,,,,,
null,,thebreak,1104450,break,,null,,,,,,,,,,
6084.899999991059,,realistic_rating,1110537,Park City,,52,Park City,US,4,,,,,,,
null,,confidence_buffer,1110639,confidence_buffer,,null,,,,,,,,,,
5406.29999999702,,pt2_unique_rating,1116047,Park City,,50,,,2,,,,,,,
null,,confidence_buffer,1116150,confidence_buffer,,null,,,,,,,,,,
3265.300000011921,,pt2_memorable_rating,1119417,Park City,,52,,,4,,,,,,,
null,,confidence_buffer,1119520,confidence_buffer,,null,,,,,,,,,,
4055.7999999970198,,recognition_phase,1123578,Park City,,52,,,,,,new,1,0.3333333333333333,,
null,,confidence_buffer,1123681,confidence_buffer,,null,,,,,,,,,,
null,,thebreak,1124182,break,,null,,,,,,,,,,
5412,,realistic_rating,1129597,Falconridge,,52,Falconridge,Fictional,4,,,,,,,
null,,confidence_buffer,1129699,confidence_buffer,,null,,,,,,,,,,
1335.2000000029802,,pt2_unique_rating,1131037,Falconridge,,52,,,4,,,,,,,
null,,confidence_buffer,1131139,confidence_buffer,,null,,,,,,,,,,
2346,,pt2_memorable_rating,1133487,Falconridge,,52,,,4,,,,,,,
null,,confidence_buffer,1133589,confidence_buffer,,null,,,,,,,,,,
2926.2000000029802,,recognition_phase,1136517,Falconridge,,49,,,,,,old,1,0.375,,
null,,confidence_buffer,1136620,confidence_buffer,,null,,,,,,,,,,
null,,thebreak,1137122,break,,null,,,,,,,,,,
4324.4000000059605,,realistic_rating,1141448,Livingston,,53,Livingston,US,5,,,,,,,
null,,confidence_buffer,1141555,confidence_buffer,,null,,,,,,,,,,
4010.5,,pt2_unique_rating,1145567,Livingston,,49,,,1,,,,,,,
null,,confidence_buffer,1145669,confidence_buffer,,null,,,,,,,,,,
6595.600000008941,,pt2_memorable_rating,1152267,Livingston,,53,,,5,,,,,,,
null,,confidence_buffer,1152370,confidence_buffer,,null,,,,,,,,,,
10712.20000000298,,recognition_phase,1163084,Livingston,,52,,,,,,new,1,0.4117647058823529,,
null,,confidence_buffer,1163186,confidence_buffer,,null,,,,,,,,,,
null,,thebreak,1163688,break,,null,,,,,,,,,,
9009.79999999702,,realistic_rating,1172701,Ashford Hills,,51,Ashford Hills,Fictional,3,,,,,,,
null,,confidence_buffer,1172803,confidence_buffer,,null,,,,,,,,,,
5223.79999999702,,pt2_unique_rating,1178029,Ashford Hills,,52,,,4,,,,,,,
null,,confidence_buffer,1178131,confidence_buffer,,null,,,,,,,,,,
7863.0999999940395,,pt2_memorable_rating,1185996,Ashford Hills,,50,,,2,,,,,,,
null,,confidence_buffer,1186099,confidence_buffer,,null,,,,,,,,,,
4273.79999999702,,recognition_phase,1190375,Ashford Hills,,51,,,,,,new,1,0.4444444444444444,,
null,,confidence_buffer,1190478,confidence_buffer,,null,,,,,,,,,,
null,,thebreak,1190980,break,,null,,,,,,,,,,
4272.20000000298,,realistic_rating,1195253,Sisters,,50,Sisters,US,2,,,,,,,
null,,confidence_buffer,1195355,confidence_buffer,,null,,,,,,,,,,
9916.20000000298,,pt2_unique_rating,1205273,Sisters,,52,,,4,,,,,,,
null,,confidence_buffer,1205376,confidence_buffer,,null,,,,,,,,,,
8634.20000000298,,pt2_memorable_rating,1214012,Sisters,,51,,,3,,,,,,,
null,,confidence_buffer,1214115,confidence_buffer,,null,,,,,,,,,,
4484.5,,recognition_phase,1218601,Sisters,,49,,,,,,old,1,0.47368421052631576,,
null,,confidence_buffer,1218702,confidence_buffer,,null,,,,,,,,,,
null,,thebreak,1219203,break,,null,,,,,,,,,,
11684.70000000298,,realistic_rating,1230890,Leesburg,,52,Leesburg,US,4,,,,,,,
null,,confidence_buffer,1230993,confidence_buffer,,null,,,,,,,,,,
4194.20000000298,,probe_rating,1235189,probe_rating,,53,,,,5,1,,,,,
null,,confidence_buffer,1235292,confidence_buffer,,null,,,,,,,,,,
4834,,pt2_unique_rating,1240128,Leesburg,,50,,,2,,,,,,,
null,,confidence_buffer,1240231,confidence_buffer,,null,,,,,,,,,,
4484.199999988079,,pt2_memorable_rating,1244717,Leesburg,,50,,,2,,,,,,,
null,,confidence_buffer,1244821,confidence_buffer,,null,,,,,,,,,,
2493.7999999970198,,recognition_phase,1247317,Leesburg,,49,,,,,,old,1,0.5,,
null,,confidence_buffer,1247419,confidence_buffer,,null,,,,,,,,,,
null,,thebreak,1247920,break,,null,,,,,,,,,,
3732.5,,realistic_rating,1251655,San Antonio,,53,San Antonio,US,5,,,,,,,
null,,confidence_buffer,1251758,confidence_buffer,,null,,,,,,,,,,
9743,,pt2_unique_rating,1261503,San Antonio,,50,,,2,,,,,,,
null,,confidence_buffer,1261606,confidence_buffer,,null,,,,,,,,,,
2823.800000011921,,pt2_memorable_rating,1264432,San Antonio,,50,,,2,,,,,,,
null,,confidence_buffer,1264535,confidence_buffer,,null,,,,,,,,,,
4103.79999999702,,recognition_phase,1268641,San Antonio,,51,,,,,,new,1,0.5238095238095238,,
null,,confidence_buffer,1268743,confidence_buffer,,null,,,,,,,,,,
null,,thebreak,1269244,break,,null,,,,,,,,,,
6993.5999999940395,,realistic_rating,1276240,Ravenport,,52,Ravenport,Fictional,4,,,,,,,
null,,confidence_buffer,1276345,confidence_buffer,,null,,,,,,,,,,
6662.29999999702,,pt2_unique_rating,1283009,Ravenport,,52,,,4,,,,,,,
null,,confidence_buffer,1283111,confidence_buffer,,null,,,,,,,,,,
4415.0999999940395,,pt2_memorable_rating,1287528,Ravenport,,50,,,2,,,,,,,
null,,confidence_buffer,1287630,confidence_buffer,,null,,,,,,,,,,
2025.0999999940395,,recognition_phase,1289657,Ravenport,,49,,,,,,old,1,0.5454545454545454,,
null,,confidence_buffer,1289760,confidence_buffer,,null,,,,,,,,,,
null,,thebreak,1290262,break,,null,,,,,,,,,,
7291.79999999702,,realistic_rating,1297556,Juniper Creek,,49,Juniper Creek,Fictional,1,,,,,,,
null,,confidence_buffer,1297658,confidence_buffer,,null,,,,,,,,,,
5484.800000011921,,pt2_unique_rating,1303145,Juniper Creek,,53,,,5,,,,,,,
null,,confidence_buffer,1303247,confidence_buffer,,null,,,,,,,,,,
3224.2000000029802,,pt2_memorable_rating,1306473,Juniper Creek,,50,,,2,,,,,,,
null,,confidence_buffer,1306576,confidence_buffer,,null,,,,,,,,,,
3454.5,,recognition_phase,1310033,Juniper Creek,,52,,,,,,new,1,0.5652173913043478,,
null,,confidence_buffer,1310136,confidence_buffer,,null,,,,,,,,,,
null,,thebreak,1310637,break,,null,,,,,,,,,,
4931.79999999702,,realistic_rating,1315571,Bisbee,,51,Bisbee,US,3,,,,,,,
null,,confidence_buffer,1315673,confidence_buffer,,null,,,,,,,,,,
2825.0999999940395,,pt2_unique_rating,1318500,Bisbee,,50,,,2,,,,,,,
null,,confidence_buffer,1318604,confidence_buffer,,null,,,,,,,,,,
5632.70000000298,,pt2_memorable_rating,1324239,Bisbee,,51,,,3,,,,,,,
null,,confidence_buffer,1324341,confidence_buffer,,null,,,,,,,,,,
5893.399999991059,,recognition_phase,1330237,Bisbee,,50,,,,,,old,1,0.5833333333333334,,
null,,confidence_buffer,1330340,confidence_buffer,,null,,,,,,,,,,
null,,thebreak,1330842,break,,null,,,,,,,,,,
4661.79999999702,,realistic_rating,1335506,Crestwood,,52,Crestwood,Fictional,4,,,,,,,
null,,confidence_buffer,1335608,confidence_buffer,,null,,,,,,,,,,
4684.20000000298,,pt2_unique_rating,1340294,Crestwood,,52,,,4,,,,,,,
null,,confidence_buffer,1340397,confidence_buffer,,null,,,,,,,,,,
1834.699999988079,,pt2_memorable_rating,1342234,Crestwood,,51,,,3,,,,,,,
null,,confidence_buffer,1342336,confidence_buffer,,null,,,,,,,,,,
5734.5,,probe_rating,1348072,probe_rating,,51,,,,3,1,,,,,
null,,confidence_buffer,1348175,confidence_buffer,,null,,,,,,,,,,
6571.70000000298,,recognition_phase,1354749,Crestwood,,51,,,,,,new,1,0.6,,
null,,confidence_buffer,1354852,confidence_buffer,,null,,,,,,,,,,
null,,thebreak,1355353,break,,null,,,,,,,,,,
5362.20000000298,,realistic_rating,1360717,Okoboji,,51,Okoboji,US,3,,,,,,,
null,,confidence_buffer,1360820,confidence_buffer,,null,,,,,,,,,,
4173.29999999702,,probe_rating,1364995,probe_rating,,51,,,,3,1,,,,,
null,,confidence_buffer,1365099,confidence_buffer,,null,,,,,,,,,,
6633.5999999940395,,pt2_unique_rating,1371734,Okoboji,,52,,,4,,,,,,,
null,,confidence_buffer,1371837,confidence_buffer,,null,,,,,,,,,,
6242.29999999702,,pt2_memorable_rating,1378081,Okoboji,,51,,,3,,,,,,,
null,,confidence_buffer,1378185,confidence_buffer,,null,,,,,,,,,,
2943,,recognition_phase,1381130,Okoboji,,51,,,,,,new,1,0.6153846153846154,,
null,,confidence_buffer,1381232,confidence_buffer,,null,,,,,,,,,,
null,,thebreak,1381733,break,,null,,,,,,,,,,
2993.5,,realistic_rating,1384729,Northbridge,,52,Northbridge,Fictional,4,,,,,,,
null,,confidence_buffer,1384843,confidence_buffer,,null,,,,,,,,,,
7400.100000008941,,probe_rating,1392245,probe_rating,,51,,,,3,1,,,,,
null,,confidence_buffer,1392348,confidence_buffer,,null,,,,,,,,,,
3803.5999999940395,,pt2_unique_rating,1396154,Northbridge,,51,,,3,,,,,,,
null,,confidence_buffer,1396257,confidence_buffer,,null,,,,,,,,,,
5282.5999999940395,,pt2_memorable_rating,1401541,Northbridge,,51,,,3,,,,,,,
null,,confidence_buffer,1401644,confidence_buffer,,null,,,,,,,,,,
4083.2999999970198,,recognition_phase,1405729,Northbridge,,50,,,,,,old,0,0.5925925925925926,,
null,,confidence_buffer,1405832,confidence_buffer,,null,,,,,,,,,,
null,,thebreak,1406335,break,,null,,,,,,,,,,
5430.0999999940395,,realistic_rating,1411767,Riverlyn,,52,Riverlyn,Fictional,4,,,,,,,
null,,confidence_buffer,1411870,confidence_buffer,,null,,,,,,,,,,
2773.800000011921,,pt2_unique_rating,1414646,Riverlyn,,52,,,4,,,,,,,
null,,confidence_buffer,1414748,confidence_buffer,,null,,,,,,,,,,
4234.4000000059605,,pt2_memorable_rating,1418984,Riverlyn,,50,,,2,,,,,,,
null,,confidence_buffer,1419087,confidence_buffer,,null,,,,,,,,,,
3524.800000011921,,probe_rating,1422614,probe_rating,,52,,,,4,1,,,,,
null,,confidence_buffer,1422716,confidence_buffer,,null,,,,,,,,,,
4913.899999991059,,recognition_phase,1427632,Riverlyn,,52,,,,,,new,1,0.6071428571428571,,
null,,confidence_buffer,1427735,confidence_buffer,,null,,,,,,,,,,
null,,thebreak,1428238,break,,null,,,,,,,,,,
6029.9000000059605,,realistic_rating,1434270,Cody,,52,Cody,US,4,,,,,,,
null,,confidence_buffer,1434373,confidence_buffer,,null,,,,,,,,,,
4311.70000000298,,pt2_unique_rating,1438686,Cody,,50,,,2,,,,,,,
null,,confidence_buffer,1438789,confidence_buffer,,null,,,,,,,,,,
5292,,pt2_memorable_rating,1444083,Cody,,53,,,5,,,,,,,
null,,confidence_buffer,1444186,confidence_buffer,,null,,,,,,,,,,
2123.3999999910593,,recognition_phase,1446312,Cody,,49,,,,,,old,1,0.6206896551724138,,
null,,confidence_buffer,1446415,confidence_buffer,,null,,,,,,,,,,
null,,thebreak,1446917,break,,null,,,,,,,,,,
3670.5,,realistic_rating,1450589,Brookmere,,50,Brookmere,Fictional,2,,,,,,,
null,,confidence_buffer,1450692,confidence_buffer,,null,,,,,,,,,,
7962.20000000298,,pt2_unique_rating,1458656,Brookmere,,52,,,4,,,,,,,
null,,confidence_buffer,1458758,confidence_buffer,,null,,,,,,,,,,
2654.3999999910593,,pt2_memorable_rating,1461415,Brookmere,,51,,,3,,,,,,,
null,,confidence_buffer,1461518,confidence_buffer,,null,,,,,,,,,,
4030.800000011921,,recognition_phase,1465552,Brookmere,,51,,,,,,new,1,0.6333333333333333,,
null,,confidence_buffer,1465655,confidence_buffer,,null,,,,,,,,,,
null,,thebreak,1466157,break,,null,,,,,,,,,,
4689.9000000059605,,realistic_rating,1470849,Shreveport,,51,Shreveport,US,3,,,,,,,
null,,confidence_buffer,1470952,confidence_buffer,,null,,,,,,,,,,
5000.899999991059,,pt2_unique_rating,1475955,Shreveport,,50,,,2,,,,,,,
null,,confidence_buffer,1476057,confidence_buffer,,null,,,,,,,,,,
5731.300000011921,,pt2_memorable_rating,1481791,Shreveport,,51,,,3,,,,,,,
null,,confidence_buffer,1481893,confidence_buffer,,null,,,,,,,,,,
3342.8999999910593,,recognition_phase,1485238,Shreveport,,52,,,,,,new,1,0.6451612903225806,,
null,,confidence_buffer,1485355,confidence_buffer,,null,,,,,,,,,,
null,,thebreak,1485857,break,,null,,,,,,,,,,
10084.29999999702,,realistic_rating,1495943,Gloucester,,50,Gloucester,US,2,,,,,,,
null,,confidence_buffer,1496046,confidence_buffer,,null,,,,,,,,,,
4882.399999991059,,pt2_unique_rating,1500931,Gloucester,,51,,,3,,,,,,,
null,,confidence_buffer,1501034,confidence_buffer,,null,,,,,,,,,,
3013.7999999970198,,pt2_memorable_rating,1504050,Gloucester,,50,,,2,,,,,,,
null,,confidence_buffer,1504153,confidence_buffer,,null,,,,,,,,,,
2444.1000000089407,,recognition_phase,1506599,Gloucester,,51,,,,,,new,1,0.65625,,
null,,confidence_buffer,1506701,confidence_buffer,,null,,,,,,,,,,
null,,thebreak,1507204,break,,null,,,,,,,,,,
4150.79999999702,,realistic_rating,1511357,Maravilla Springs,,52,Maravilla Springs,Fictional,4,,,,,,,
null,,confidence_buffer,1511470,confidence_buffer,,null,,,,,,,,,,
2274,,pt2_unique_rating,1513747,Maravilla Springs,,52,,,4,,,,,,,
null,,confidence_buffer,1513850,confidence_buffer,,null,,,,,,,,,,
2253.2999999970198,,pt2_memorable_rating,1516105,Maravilla Springs,,52,,,4,,,,,,,
null,,confidence_buffer,1516208,confidence_buffer,,null,,,,,,,,,,
2044.5999999940395,,recognition_phase,1518255,Maravilla Springs,,51,,,,,,new,0,0.6363636363636364,,
null,,confidence_buffer,1518357,confidence_buffer,,null,,,,,,,,,,
null,,thebreak,1518859,break,,null,,,,,,,,,,
3872.2999999970198,,realistic_rating,1522733,Alliance,,52,Alliance,US,4,,,,,,,
null,,confidence_buffer,1522837,confidence_buffer,,null,,,,,,,,,,
4102.70000000298,,pt2_unique_rating,1526942,Alliance,,49,,,1,,,,,,,
null,,confidence_buffer,1527044,confidence_buffer,,null,,,,,,,,,,
2714.7000000029802,,pt2_memorable_rating,1529761,Alliance,,52,,,4,,,,,,,
null,,confidence_buffer,1529863,confidence_buffer,,null,,,,,,,,,,
4833,,probe_rating,1534698,probe_rating,,49,,,,1,1,,,,,
null,,confidence_buffer,1534801,confidence_buffer,,null,,,,,,,,,,
5733.20000000298,,recognition_phase,1540536,Alliance,,52,,,,,,new,1,0.6470588235294118,,
null,,confidence_buffer,1540638,confidence_buffer,,null,,,,,,,,,,
null,,thebreak,1541140,break,,null,,,,,,,,,,
4231,,realistic_rating,1545373,Duck,,51,Duck,US,3,,,,,,,
null,,confidence_buffer,1545476,confidence_buffer,,null,,,,,,,,,,
4602.79999999702,,pt2_unique_rating,1550081,Duck,,50,,,2,,,,,,,
null,,confidence_buffer,1550184,confidence_buffer,,null,,,,,,,,,,
2802.9000000059605,,pt2_memorable_rating,1552989,Duck,,52,,,4,,,,,,,
null,,confidence_buffer,1553105,confidence_buffer,,null,,,,,,,,,,
11824.5,,recognition_phase,1564932,Duck,,49,,,,,,old,1,0.6571428571428571,,
null,,confidence_buffer,1565035,confidence_buffer,,null,,,,,,,,,,
null,,thebreak,1565536,break,,null,,,,,,,,,,
3880.2999999970198,,realistic_rating,1569419,Meadowspire,,52,Meadowspire,Fictional,4,,,,,,,
null,,confidence_buffer,1569521,confidence_buffer,,null,,,,,,,,,,
6042.100000008941,,pt2_unique_rating,1575566,Meadowspire,,52,,,4,,,,,,,
null,,confidence_buffer,1575668,confidence_buffer,,null,,,,,,,,,,
5582.5999999940395,,probe_rating,1581252,probe_rating,,52,,,,4,1,,,,,
null,,confidence_buffer,1581355,confidence_buffer,,null,,,,,,,,,,
8691.90000000596,,pt2_memorable_rating,1590049,Meadowspire,,50,,,2,,,,,,,
null,,confidence_buffer,1590151,confidence_buffer,,null,,,,,,,,,,
2013.5,,recognition_phase,1592167,Meadowspire,,50,,,,,,old,1,0.6666666666666666,,
null,,confidence_buffer,1592270,confidence_buffer,,null,,,,,,,,,,
null,,thebreak,1592771,break,,null,,,,,,,,,,
4660.70000000298,,realistic_rating,1597434,Montelake,,52,Montelake,Fictional,4,,,,,,,
null,,confidence_buffer,1597537,confidence_buffer,,null,,,,,,,,,,
2423.2999999970198,,pt2_unique_rating,1599962,Montelake,,52,,,4,,,,,,,
null,,confidence_buffer,1600065,confidence_buffer,,null,,,,,,,,,,
4093.7000000029802,,pt2_memorable_rating,1604160,Montelake,,50,,,2,,,,,,,
null,,confidence_buffer,1604263,confidence_buffer,,null,,,,,,,,,,
4512.9000000059605,,recognition_phase,1608778,Montelake,,51,,,,,,new,0,0.6486486486486487,,
null,,confidence_buffer,1608885,confidence_buffer,,null,,,,,,,,,,
null,,thebreak,1609386,break,,null,,,,,,,,,,
3837.300000011921,,realistic_rating,1613226,Sunmere,,52,Sunmere,Fictional,4,,,,,,,
null,,confidence_buffer,1613328,confidence_buffer,,null,,,,,,,,,,
2333.9000000059605,,pt2_unique_rating,1615664,Sunmere,,51,,,3,,,,,,,
null,,confidence_buffer,1615766,confidence_buffer,,null,,,,,,,,,,
3172.9000000059605,,pt2_memorable_rating,1618941,Sunmere,,51,,,3,,,,,,,
null,,confidence_buffer,1619045,confidence_buffer,,null,,,,,,,,,,
3142.2999999970198,,probe_rating,1622189,probe_rating,,52,,,,4,1,,,,,
null,,confidence_buffer,1622292,confidence_buffer,,null,,,,,,,,,,
2452.5,,recognition_phase,1624747,Sunmere,,50,,,,,,old,0,0.631578947368421,,
null,,confidence_buffer,1624850,confidence_buffer,,null,,,,,,,,,,
null,,thebreak,1625352,break,,null,,,,,,,,,,
8496,,realistic_rating,1633850,Assateague Island,,49,Assateague Island,US,1,,,,,,,
null,,confidence_buffer,1633952,confidence_buffer,,null,,,,,,,,,,
3652.4000000059605,,probe_rating,1637607,probe_rating,,49,,,,1,1,,,,,
null,,confidence_buffer,1637709,confidence_buffer,,null,,,,,,,,,,
5991.70000000298,,pt2_unique_rating,1643703,Assateague Island,,53,,,5,,,,,,,
null,,confidence_buffer,1643807,confidence_buffer,,null,,,,,,,,,,
4440.79999999702,,pt2_memorable_rating,1648250,Assateague Island,,53,,,5,,,,,,,
null,,confidence_buffer,1648352,confidence_buffer,,null,,,,,,,,,,
2633.1000000089407,,recognition_phase,1650987,Assateague Island,,52,,,,,,new,1,0.6410256410256411,,
null,,confidence_buffer,1651100,confidence_buffer,,null,,,,,,,,,,
null,,thebreak,1651602,break,,null,,,,,,,,,,
6197.20000000298,,realistic_rating,1657802,Folly Beach,,51,Folly Beach,US,3,,,,,,,
null,,confidence_buffer,1657905,confidence_buffer,,null,,,,,,,,,,
3682.2000000029802,,pt2_unique_rating,1661589,Folly Beach,,50,,,2,,,,,,,
null,,confidence_buffer,1661692,confidence_buffer,,null,,,,,,,,,,
5979.399999991059,,pt2_memorable_rating,1667673,Folly Beach,,51,,,3,,,,,,,
null,,confidence_buffer,1667776,confidence_buffer,,null,,,,,,,,,,
3162.2000000029802,,recognition_phase,1670940,Folly Beach,,51,,,,,,new,1,0.65,,
null,,confidence_buffer,1671042,confidence_buffer,,null,,,,,,,,,,
null,,thebreak,1671545,break,,null,,,,,,,,,,
4628.9000000059605,,realistic_rating,1676176,Maplehurst,,52,Maplehurst,Fictional,4,,,,,,,
null,,confidence_buffer,1676279,confidence_buffer,,null,,,,,,,,,,
1783.2999999970198,,pt2_unique_rating,1678064,Maplehurst,,52,,,4,,,,,,,
null,,confidence_buffer,1678167,confidence_buffer,,null,,,,,,,,,,
3441.9000000059605,,pt2_memorable_rating,1681611,Maplehurst,,50,,,2,,,,,,,
null,,confidence_buffer,1681713,confidence_buffer,,null,,,,,,,,,,
2642.800000011921,,recognition_phase,1684358,Maplehurst,,49,,,,,,old,1,0.6585365853658537,,
null,,confidence_buffer,1684460,confidence_buffer,,null,,,,,,,,,,
null,,thebreak,1684962,break,,null,,,,,,,,,,
7386.70000000298,,realistic_rating,1692351,Cape May,,50,Cape May,US,2,,,,,,,
null,,confidence_buffer,1692454,confidence_buffer,,null,,,,,,,,,,
6659.20000000298,,pt2_unique_rating,1699116,Cape May,,51,,,3,,,,,,,
null,,confidence_buffer,1699218,confidence_buffer,,null,,,,,,,,,,
6600.5,,pt2_memorable_rating,1705821,Cape May,,51,,,3,,,,,,,
null,,confidence_buffer,1705923,confidence_buffer,,null,,,,,,,,,,
1564.2000000029802,,recognition_phase,1707489,Cape May,,49,,,,,,old,1,0.6666666666666666,,
null,,confidence_buffer,1707592,confidence_buffer,,null,,,,,,,,,,
null,,thebreak,1708095,break,,null,,,,,,,,,,
3159.2999999970198,,realistic_rating,1711256,Westridge,,52,Westridge,Fictional,4,,,,,,,
null,,confidence_buffer,1711359,confidence_buffer,,null,,,,,,,,,,
3871.7999999970198,,pt2_unique_rating,1715234,Westridge,,50,,,2,,,,,,,
null,,confidence_buffer,1715336,confidence_buffer,,null,,,,,,,,,,
1794.1000000089407,,pt2_memorable_rating,1717132,Westridge,,52,,,4,,,,,,,
null,,confidence_buffer,1717235,confidence_buffer,,null,,,,,,,,,,
2353.5999999940395,,recognition_phase,1719590,Westridge,,49,,,,,,old,1,0.6744186046511628,,
null,,confidence_buffer,1719693,confidence_buffer,,null,,,,,,,,,,
null,,thebreak,1720195,break,,null,,,,,,,,,,
3620.0999999940395,,realistic_rating,1723817,Yukon,,51,Yukon,US,3,,,,,,,
null,,confidence_buffer,1723920,confidence_buffer,,null,,,,,,,,,,
1553.8999999910593,,pt2_unique_rating,1725476,Yukon,,50,,,2,,,,,,,
null,,confidence_buffer,1725578,confidence_buffer,,null,,,,,,,,,,
3712.699999988079,,pt2_memorable_rating,1729293,Yukon,,50,,,2,,,,,,,
null,,confidence_buffer,1729396,confidence_buffer,,null,,,,,,,,,,
1982.9000000059605,,recognition_phase,1731381,Yukon,,52,,,,,,new,1,0.6818181818181818,,
null,,confidence_buffer,1731483,confidence_buffer,,null,,,,,,,,,,
null,,thebreak,1731985,break,,null,,,,,,,,,,
7807.5,,realistic_rating,1739794,Golden Trace,,49,Golden Trace,Fictional,1,,,,,,,
null,,confidence_buffer,1739897,confidence_buffer,,null,,,,,,,,,,
2122.800000011921,,pt2_unique_rating,1742022,Golden Trace,,50,,,2,,,,,,,
null,,confidence_buffer,1742125,confidence_buffer,,null,,,,,,,,,,
3002.4000000059605,,pt2_memorable_rating,1745130,Golden Trace,,50,,,2,,,,,,,
null,,confidence_buffer,1745232,confidence_buffer,,null,,,,,,,,,,
3921.7999999970198,,recognition_phase,1749156,Golden Trace,,51,,,,,,new,0,0.6666666666666666,,
null,,confidence_buffer,1749258,confidence_buffer,,null,,,,,,,,,,
null,,thebreak,1749760,break,,null,,,,,,,,,,
2981.7999999970198,,realistic_rating,1752744,Healdsburg,,52,Healdsburg,US,4,,,,,,,
null,,confidence_buffer,1752847,confidence_buffer,,null,,,,,,,,,,
2342.2000000029802,,pt2_unique_rating,1755191,Healdsburg,,50,,,2,,,,,,,
null,,confidence_buffer,1755294,confidence_buffer,,null,,,,,,,,,,
1804.7999999970198,,probe_rating,1757101,probe_rating,,50,,,,2,1,,,,,
null,,confidence_buffer,1757204,confidence_buffer,,null,,,,,,,,,,
4451.600000008941,,pt2_memorable_rating,1761658,Healdsburg,,50,,,2,,,,,,,
null,,confidence_buffer,1761761,confidence_buffer,,null,,,,,,,,,,
2722.7999999970198,,recognition_phase,1764486,Healdsburg,,50,,,,,,old,1,0.6739130434782609,,
null,,confidence_buffer,1764589,confidence_buffer,,null,,,,,,,,,,
null,,thebreak,1765090,break,,null,,,,,,,,,,
7437,,realistic_rating,1772530,Bayshore Haven,,50,Bayshore Haven,Fictional,2,,,,,,,
null,,confidence_buffer,1772632,confidence_buffer,,null,,,,,,,,,,
4831.600000008941,,pt2_unique_rating,1777466,Bayshore Haven,,51,,,3,,,,,,,
null,,confidence_buffer,1777569,confidence_buffer,,null,,,,,,,,,,
3291.9000000059605,,pt2_memorable_rating,1780863,Bayshore Haven,,50,,,2,,,,,,,
null,,confidence_buffer,1780965,confidence_buffer,,null,,,,,,,,,,
7518.699999988079,,recognition_phase,1788486,Bayshore Haven,,51,,,,,,new,1,0.6808510638297872,,
null,,confidence_buffer,1788589,confidence_buffer,,null,,,,,,,,,,
null,,thebreak,1789090,break,,null,,,,,,,,,,
4079,,realistic_rating,1793171,Oakridge,,52,Oakridge,Fictional,4,,,,,,,
null,,confidence_buffer,1793274,confidence_buffer,,null,,,,,,,,,,
3032.300000011921,,pt2_unique_rating,1796309,Oakridge,,52,,,4,,,,,,,
null,,confidence_buffer,1796420,confidence_buffer,,null,,,,,,,,,,
3253.5,,pt2_memorable_rating,1799676,Oakridge,,50,,,2,,,,,,,
null,,confidence_buffer,1799779,confidence_buffer,,null,,,,,,,,,,
2082.5,,recognition_phase,1801864,Oakridge,,49,,,,,,old,1,0.6875,,
null,,confidence_buffer,1801966,confidence_buffer,,null,,,,,,,,,,
null,,thebreak,1802467,break,,null,,,,,,,,,,
4259.5,,realistic_rating,1806729,Driftwood Bay,,52,Driftwood Bay,Fictional,4,,,,,,,
null,,confidence_buffer,1806832,confidence_buffer,,null,,,,,,,,,,
1414.5999999940395,,pt2_unique_rating,1808248,Driftwood Bay,,52,,,4,,,,,,,
null,,confidence_buffer,1808351,confidence_buffer,,null,,,,,,,,,,
2033.4000000059605,,pt2_memorable_rating,1810386,Driftwood Bay,,51,,,3,,,,,,,
null,,confidence_buffer,1810489,confidence_buffer,,null,,,,,,,,,,
3931,,recognition_phase,1814422,Driftwood Bay,,49,,,,,,old,0,0.673469387755102,,
null,,confidence_buffer,1814525,confidence_buffer,,null,,,,,,,,,,
null,,thebreak,1815026,break,,null,,,,,,,,,,
4389.600000008941,,realistic_rating,1819418,Carmel,,51,Carmel,US,3,,,,,,,
null,,confidence_buffer,1819520,confidence_buffer,,null,,,,,,,,,,
2824.0999999940395,,pt2_unique_rating,1822346,Carmel,,50,,,2,,,,,,,
null,,confidence_buffer,1822449,confidence_buffer,,null,,,,,,,,,,
2762.7999999970198,,pt2_memorable_rating,1825214,Carmel,,51,,,3,,,,,,,
null,,confidence_buffer,1825316,confidence_buffer,,null,,,,,,,,,,
2273.2999999970198,,recognition_phase,1827592,Carmel,,49,,,,,,old,1,0.68,,
null,,confidence_buffer,1827695,confidence_buffer,,null,,,,,,,,,,
null,,thebreak,1828197,break,,null,,,,,,,,,,
2620.1000000089407,,realistic_rating,1830819,Orr,,52,Orr,US,4,,,,,,,
null,,confidence_buffer,1830922,confidence_buffer,,null,,,,,,,,,,
1574.2000000029802,,pt2_unique_rating,1832498,Orr,,52,,,4,,,,,,,
null,,confidence_buffer,1832602,confidence_buffer,,null,,,,,,,,,,
3352,,pt2_memorable_rating,1835956,Orr,,50,,,2,,,,,,,
null,,confidence_buffer,1836058,confidence_buffer,,null,,,,,,,,,,
2113.7000000029802,,recognition_phase,1838174,Orr,,49,,,,,,old,1,0.6862745098039216,,
null,,confidence_buffer,1838277,confidence_buffer,,null,,,,,,,,,,
null,,thebreak,1838778,break,,null,,,,,,,,,,
3650.2999999970198,,realistic_rating,1842431,Manistee,,52,Manistee,US,4,,,,,,,
null,,confidence_buffer,1842535,confidence_buffer,,null,,,,,,,,,,
2782.2999999970198,,pt2_unique_rating,1845319,Manistee,,50,,,2,,,,,,,
null,,confidence_buffer,1845421,confidence_buffer,,null,,,,,,,,,,
2393.6000000089407,,pt2_memorable_rating,1847817,Manistee,,50,,,2,,,,,,,
null,,confidence_buffer,1847919,confidence_buffer,,null,,,,,,,,,,
6661.100000008941,,recognition_phase,1854582,Manistee,,51,,,,,,new,1,0.6923076923076923,,
null,,confidence_buffer,1854685,confidence_buffer,,null,,,,,,,,,,
null,,thebreak,1855187,break,,null,,,,,,,,,,
5698.29999999702,,realistic_rating,1860888,Albuquerque,,49,Albuquerque,US,1,,,,,,,
null,,confidence_buffer,1860991,confidence_buffer,,null,,,,,,,,,,
4390.9000000059605,,pt2_unique_rating,1865384,Albuquerque,,53,,,5,,,,,,,
null,,confidence_buffer,1865486,confidence_buffer,,null,,,,,,,,,,
3321.5999999940395,,pt2_memorable_rating,1868810,Albuquerque,,50,,,2,,,,,,,
null,,confidence_buffer,1868913,confidence_buffer,,null,,,,,,,,,,
2832.5999999940395,,recognition_phase,1871747,Albuquerque,,52,,,,,,new,1,0.6981132075471698,,
null,,confidence_buffer,1871855,confidence_buffer,,null,,,,,,,,,,
null,,thebreak,1872358,break,,null,,,,,,,,,,
4141.800000011921,,realistic_rating,1876503,Berkeley Springs,,51,Berkeley Springs,US,3,,,,,,,
null,,confidence_buffer,1876605,confidence_buffer,,null,,,,,,,,,,
1923.7000000029802,,pt2_unique_rating,1878531,Berkeley Springs,,51,,,3,,,,,,,
null,,confidence_buffer,1878635,confidence_buffer,,null,,,,,,,,,,
2671.4000000059605,,pt2_memorable_rating,1881308,Berkeley Springs,,50,,,2,,,,,,,
null,,confidence_buffer,1881410,confidence_buffer,,null,,,,,,,,,,
5860.100000008941,,recognition_phase,1887273,Berkeley Springs,,50,,,,,,old,0,0.6851851851851852,,
null,,confidence_buffer,1887376,confidence_buffer,,null,,,,,,,,,,
null,,thebreak,1887877,break,,null,,,,,,,,,,
3068.8999999910593,,realistic_rating,1890948,East Ladera,,51,East Ladera,Fictional,3,,,,,,,
null,,confidence_buffer,1891052,confidence_buffer,,null,,,,,,,,,,
3491.0999999940395,,pt2_unique_rating,1894545,East Ladera,,50,,,2,,,,,,,
null,,confidence_buffer,1894647,confidence_buffer,,null,,,,,,,,,,
1853.3999999910593,,pt2_memorable_rating,1896503,East Ladera,,50,,,2,,,,,,,
null,,confidence_buffer,1896606,confidence_buffer,,null,,,,,,,,,,
1803.4000000059605,,recognition_phase,1898412,East Ladera,,51,,,,,,new,0,0.6727272727272727,,
null,,confidence_buffer,1898514,confidence_buffer,,null,,,,,,,,,,
null,,thebreak,1899015,break,,null,,,,,,,,,,
5098.4000000059605,,realistic_rating,1904116,Lake of the Ozarks,,51,Lake of the Ozarks,US,3,,,,,,,
null,,confidence_buffer,1904223,confidence_buffer,,null,,,,,,,,,,
3488.4000000059605,,pt2_unique_rating,1907714,Lake of the Ozarks,,52,,,4,,,,,,,
null,,confidence_buffer,1907830,confidence_buffer,,null,,,,,,,,,,
2747.4000000059605,,probe_rating,1910580,probe_rating,,52,,,,4,1,,,,,
null,,confidence_buffer,1910683,confidence_buffer,,null,,,,,,,,,,
2442.7000000029802,,pt2_memorable_rating,1913127,Lake of the Ozarks,,51,,,3,,,,,,,
null,,confidence_buffer,1913229,confidence_buffer,,null,,,,,,,,,,
3511.6000000089407,,recognition_phase,1916743,Lake of the Ozarks,,52,,,,,,new,0,0.6607142857142857,,
null,,confidence_buffer,1916847,confidence_buffer,,null,,,,,,,,,,
null,,thebreak,1917349,break,,null,,,,,,,,,,
6885.79999999702,,realistic_rating,1924237,Racine,,51,Racine,US,3,,,,,,,
null,,confidence_buffer,1924340,confidence_buffer,,null,,,,,,,,,,
8616.09999999404,,pt2_unique_rating,1932958,Racine,,53,,,5,,,,,,,
null,,confidence_buffer,1933070,confidence_buffer,,null,,,,,,,,,,
3313.2000000029802,,pt2_memorable_rating,1936385,Racine,,50,,,2,,,,,,,
null,,confidence_buffer,1936488,confidence_buffer,,null,,,,,,,,,,
4090,,recognition_phase,1940581,Racine,,52,,,,,,new,1,0.6666666666666666,,
null,,confidence_buffer,1940684,confidence_buffer,,null,,,,,,,,,,
null,,thebreak,1941186,break,,null,,,,,,,,,,
3018.6000000089407,,realistic_rating,1944207,Redgrove,,51,Redgrove,Fictional,3,,,,,,,
null,,confidence_buffer,1944310,confidence_buffer,,null,,,,,,,,,,
1453.7999999970198,,pt2_unique_rating,1945766,Redgrove,,50,,,2,,,,,,,
null,,confidence_buffer,1945869,confidence_buffer,,null,,,,,,,,,,
3431.8999999910593,,pt2_memorable_rating,1949303,Redgrove,,50,,,2,,,,,,,
null,,confidence_buffer,1949405,confidence_buffer,,null,,,,,,,,,,
5539.79999999702,,recognition_phase,1954947,Redgrove,,50,,,,,,old,1,0.6724137931034483,,
null,,confidence_buffer,1955050,confidence_buffer,,null,,,,,,,,,,
null,,thebreak,1955551,break,,null,,,,,,,,,,
3410.9000000059605,,realistic_rating,1958964,Claywater,,51,Claywater,Fictional,3,,,,,,,
null,,confidence_buffer,1959066,confidence_buffer,,null,,,,,,,,,,
1074.7999999970198,,pt2_unique_rating,1960143,Claywater,,51,,,3,,,,,,,
null,,confidence_buffer,1960246,confidence_buffer,,null,,,,,,,,,,
3351.6000000089407,,pt2_memorable_rating,1963600,Claywater,,51,,,3,,,,,,,
null,,confidence_buffer,1963703,confidence_buffer,,null,,,,,,,,,,
4620.9000000059605,,recognition_phase,1968326,Claywater,,51,,,,,,new,1,0.6779661016949152,,
null,,confidence_buffer,1968428,confidence_buffer,,null,,,,,,,,,,
null,,thebreak,1968930,break,,null,,,,,,,,,,
3679.2999999970198,,realistic_rating,1972612,New Verdan,,51,New Verdan,Fictional,3,,,,,,,
null,,confidence_buffer,1972714,confidence_buffer,,null,,,,,,,,,,
4300.899999991059,,pt2_unique_rating,1977017,New Verdan,,50,,,2,,,,,,,
null,,confidence_buffer,1977120,confidence_buffer,,null,,,,,,,,,,
2933,,pt2_memorable_rating,1980055,New Verdan,,50,,,2,,,,,,,
null,,confidence_buffer,1980157,confidence_buffer,,null,,,,,,,,,,
3211.9000000059605,,recognition_phase,1983371,New Verdan,,51,,,,,,new,1,0.6833333333333333,,
null,,confidence_buffer,1983474,confidence_buffer,,null,,,,,,,,,,
null,,thebreak,1983976,break,,null,,,,,,,,,,
16869.30000001192,,thank_you,2000886,all_done,,32,,,,,,,,,0,1
