rt,responses,trial_type,time_elapsed,stimulus,button_pressed,key_press,name_trial,city_type,rating,probe,probe_accuracy,response,correct,accuracy
6798,{worker_id:66f5d2424e2c1948e2b8f020},id_enter,6813,,,,,,,,,,,
17335.79999998212,,fullscreen,24151,fullscreen,0,,,,,,,,,
8668.700000017881,,intro_0,32822,instruct,,32,,,,,,,,
19706.600000023842,,intro_1,52530,instruct,,32,,,,,,,,
10391,,intro_2,62921,instruct,,32,,,,,,,,
null,,instruct_dir_4,64423,instruct,,null,,,,,,,,
null,,thebreak,64924,break,,null,,,,,,,,
18319.5,,familiar_rating,83245,Bisbee,,49,Bisbee,US,1,,,,,
null,,confidence_buffer,83346,confidence_buffer,,null,,,,,,,,
17370.59999999404,,probe_rating,100718,probe_rating,,49,,,,1,1,,,
null,,confidence_buffer,100819,confidence_buffer,,null,,,,,,,,
9313.09999999404,,unique_rating,110133,Bisbee,,50,,,2,,,,,
null,,confidence_buffer,110234,confidence_buffer,,null,,,,,,,,
6415.700000017881,,memorable_rating,116651,Bisbee,,50,,,2,,,,,
null,,confidence_buffer,116752,confidence_buffer,,null,,,,,,,,
null,,thebreak,117254,break,,null,,,,,,,,
11962.09999999404,,familiar_rating,129217,Bayshore Haven,,53,Bayshore Haven,Fictional,5,,,,,
null,,confidence_buffer,129318,confidence_buffer,,null,,,,,,,,
5715.800000011921,,unique_rating,135035,Bayshore Haven,,51,,,3,,,,,
null,,confidence_buffer,135136,confidence_buffer,,null,,,,,,,,
5425.199999988079,,memorable_rating,140562,Bayshore Haven,,51,,,3,,,,,
null,,confidence_buffer,140673,confidence_buffer,,null,,,,,,,,
null,,thebreak,141174,break,,null,,,,,,,,
5747.300000011921,,familiar_rating,146922,Gardnerville,,49,Gardnerville,US,1,,,,,
null,,confidence_buffer,147024,confidence_buffer,,null,,,,,,,,
6204.4000000059605,,unique_rating,153230,Gardnerville,,49,,,1,,,,,
null,,confidence_buffer,153331,confidence_buffer,,null,,,,,,,,
2377.2000000178814,,memorable_rating,155708,Gardnerville,,49,,,1,,,,,
null,,confidence_buffer,155810,confidence_buffer,,null,,,,,,,,
null,,thebreak,156311,break,,null,,,,,,,,
7070.600000023842,,familiar_rating,163382,Watkins Glen,,51,Watkins Glen,US,3,,,,,
null,,confidence_buffer,163484,confidence_buffer,,null,,,,,,,,
4969.5,,unique_rating,168454,Watkins Glen,,52,,,4,,,,,
null,,confidence_buffer,168555,confidence_buffer,,null,,,,,,,,
5692.300000011921,,memorable_rating,174248,Watkins Glen,,52,,,4,,,,,
null,,confidence_buffer,174350,confidence_buffer,,null,,,,,,,,
null,,thebreak,174851,break,,null,,,,,,,,
3239.2000000178814,,familiar_rating,178091,Crestwood,,49,Crestwood,Fictional,1,,,,,
null,,confidence_buffer,178193,confidence_buffer,,null,,,,,,,,
2913.699999988079,,unique_rating,181107,Crestwood,,49,,,1,,,,,
null,,confidence_buffer,181208,confidence_buffer,,null,,,,,,,,
3103.5,,memorable_rating,184312,Crestwood,,50,,,2,,,,,
null,,confidence_buffer,184413,confidence_buffer,,null,,,,,,,,
null,,thebreak,184915,break,,null,,,,,,,,
7008.0999999940395,,familiar_rating,191923,Delaware City,,50,Delaware City,US,2,,,,,
null,,confidence_buffer,192026,confidence_buffer,,null,,,,,,,,
2734.9000000059605,,unique_rating,194761,Delaware City,,51,,,3,,,,,
null,,confidence_buffer,194863,confidence_buffer,,null,,,,,,,,
2687.4000000059605,,memorable_rating,197551,Delaware City,,51,,,3,,,,,
null,,confidence_buffer,197660,confidence_buffer,,null,,,,,,,,
null,,thebreak,198161,break,,null,,,,,,,,
6940,,familiar_rating,205102,Huntsville,,51,Huntsville,US,3,,,,,
null,,confidence_buffer,205204,confidence_buffer,,null,,,,,,,,
10222.399999976158,,probe_rating,215427,probe_rating,,51,,,,3,1,,,
null,,confidence_buffer,215528,confidence_buffer,,null,,,,,,,,
8590.09999999404,,unique_rating,224119,Huntsville,,51,,,3,,,,,
null,,confidence_buffer,224220,confidence_buffer,,null,,,,,,,,
4148.0999999940395,,memorable_rating,228369,Huntsville,,52,,,4,,,,,
null,,confidence_buffer,228470,confidence_buffer,,null,,,,,,,,
null,,thebreak,228971,break,,null,,,,,,,,
4452.4000000059605,,familiar_rating,233424,Cornwall,,50,Cornwall,US,2,,,,,
null,,confidence_buffer,233526,confidence_buffer,,null,,,,,,,,
4085,,unique_rating,237612,Cornwall,,51,,,3,,,,,
null,,confidence_buffer,237713,confidence_buffer,,null,,,,,,,,
3835,,memorable_rating,241548,Cornwall,,52,,,4,,,,,
null,,confidence_buffer,241650,confidence_buffer,,null,,,,,,,,
null,,thebreak,242151,break,,null,,,,,,,,
5905.5999999940395,,familiar_rating,248058,Okoboji,,49,Okoboji,US,1,,,,,
null,,confidence_buffer,248159,confidence_buffer,,null,,,,,,,,
3526.899999976158,,unique_rating,251687,Okoboji,,52,,,4,,,,,
null,,confidence_buffer,251789,confidence_buffer,,null,,,,,,,,
7101,,memorable_rating,258890,Okoboji,,53,,,5,,,,,
null,,confidence_buffer,258992,confidence_buffer,,null,,,,,,,,
null,,thebreak,259493,break,,null,,,,,,,,
5131.9000000059605,,familiar_rating,264626,Sunmere,,49,Sunmere,Fictional,1,,,,,
null,,confidence_buffer,264727,confidence_buffer,,null,,,,,,,,
2564.800000011921,,unique_rating,267293,Sunmere,,49,,,1,,,,,
null,,confidence_buffer,267395,confidence_buffer,,null,,,,,,,,
3759.100000023842,,memorable_rating,271154,Sunmere,,50,,,2,,,,,
null,,confidence_buffer,271256,confidence_buffer,,null,,,,,,,,
null,,thebreak,271759,break,,null,,,,,,,,
4247.200000017881,,familiar_rating,276007,Racine,,51,Racine,US,3,,,,,
null,,confidence_buffer,276109,confidence_buffer,,null,,,,,,,,
3244.5999999940395,,unique_rating,279354,Racine,,50,,,2,,,,,
null,,confidence_buffer,279455,confidence_buffer,,null,,,,,,,,
3924.7000000178814,,memorable_rating,283381,Racine,,51,,,3,,,,,
null,,confidence_buffer,283486,confidence_buffer,,null,,,,,,,,
3741.9000000059605,,probe_rating,287229,probe_rating,,52,,,,4,1,,,
null,,confidence_buffer,287331,confidence_buffer,,null,,,,,,,,
null,,thebreak,287832,break,,null,,,,,,,,
3057.5,,familiar_rating,290891,Pine Hollow,,49,Pine Hollow,Fictional,1,,,,,
null,,confidence_buffer,290991,confidence_buffer,,null,,,,,,,,
4286.9000000059605,,unique_rating,295279,Pine Hollow,,51,,,3,,,,,
null,,confidence_buffer,295380,confidence_buffer,,null,,,,,,,,
4030.5,,memorable_rating,299411,Pine Hollow,,51,,,3,,,,,
null,,confidence_buffer,299513,confidence_buffer,,null,,,,,,,,
null,,thebreak,300015,break,,null,,,,,,,,
3855.2000000178814,,familiar_rating,303871,Medora,,49,Medora,US,1,,,,,
null,,confidence_buffer,303983,confidence_buffer,,null,,,,,,,,
1871,,unique_rating,305855,Medora,,49,,,1,,,,,
null,,confidence_buffer,305957,confidence_buffer,,null,,,,,,,,
1387.2000000178814,,memorable_rating,307345,Medora,,49,,,1,,,,,
null,,confidence_buffer,307447,confidence_buffer,,null,,,,,,,,
null,,thebreak,307948,break,,null,,,,,,,,
2245.699999988079,,familiar_rating,310195,Clearbrook,,49,Clearbrook,Fictional,1,,,,,
null,,confidence_buffer,310297,confidence_buffer,,null,,,,,,,,
2092.7000000178814,,probe_rating,312391,probe_rating,,51,,,,3,1,,,
null,,confidence_buffer,312492,confidence_buffer,,null,,,,,,,,
3424.0999999940395,,unique_rating,315917,Clearbrook,,49,,,1,,,,,
null,,confidence_buffer,316018,confidence_buffer,,null,,,,,,,,
2383.0999999940395,,memorable_rating,318402,Clearbrook,,49,,,1,,,,,
null,,confidence_buffer,318507,confidence_buffer,,null,,,,,,,,
null,,thebreak,319008,break,,null,,,,,,,,
2319.5999999940395,,familiar_rating,321329,Stonebrook,,49,Stonebrook,Fictional,1,,,,,
null,,confidence_buffer,321430,confidence_buffer,,null,,,,,,,,
1663.2000000178814,,unique_rating,323094,Stonebrook,,49,,,1,,,,,
null,,confidence_buffer,323196,confidence_buffer,,null,,,,,,,,
3103.5,,memorable_rating,326300,Stonebrook,,49,,,1,,,,,
null,,confidence_buffer,326401,confidence_buffer,,null,,,,,,,,
null,,thebreak,326903,break,,null,,,,,,,,
10020.799999982119,,familiar_rating,336925,Newport,,51,Newport,US,3,,,,,
null,,confidence_buffer,337026,confidence_buffer,,null,,,,,,,,
6057.5,,unique_rating,343084,Newport,,51,,,3,,,,,
null,,confidence_buffer,343185,confidence_buffer,,null,,,,,,,,
2509.199999988079,,memorable_rating,345695,Newport,,51,,,3,,,,,
null,,confidence_buffer,345797,confidence_buffer,,null,,,,,,,,
null,,thebreak,346297,break,,null,,,,,,,,
7003.299999982119,,familiar_rating,353301,Hanover,,51,Hanover,US,3,,,,,
null,,confidence_buffer,353402,confidence_buffer,,null,,,,,,,,
3865.7999999821186,,unique_rating,357269,Hanover,,52,,,4,,,,,
null,,confidence_buffer,357370,confidence_buffer,,null,,,,,,,,
3098.7999999821186,,memorable_rating,360470,Hanover,,51,,,3,,,,,
null,,confidence_buffer,360571,confidence_buffer,,null,,,,,,,,
null,,thebreak,361072,break,,null,,,,,,,,
3581.5999999940395,,familiar_rating,364654,Meadowspire,,49,Meadowspire,Fictional,1,,,,,
null,,confidence_buffer,364755,confidence_buffer,,null,,,,,,,,
1390.0999999940395,,unique_rating,366146,Meadowspire,,49,,,1,,,,,
null,,confidence_buffer,366248,confidence_buffer,,null,,,,,,,,
1236.5,,memorable_rating,367485,Meadowspire,,49,,,1,,,,,
null,,confidence_buffer,367586,confidence_buffer,,null,,,,,,,,
null,,thebreak,368088,break,,null,,,,,,,,
4785.800000011921,,familiar_rating,372875,Cody,,50,Cody,US,2,,,,,
null,,confidence_buffer,372976,confidence_buffer,,null,,,,,,,,
2580.0999999940395,,unique_rating,375557,Cody,,50,,,2,,,,,
null,,confidence_buffer,375659,confidence_buffer,,null,,,,,,,,
3086.5999999940395,,memorable_rating,378746,Cody,,50,,,2,,,,,
null,,confidence_buffer,378848,confidence_buffer,,null,,,,,,,,
null,,thebreak,379350,break,,null,,,,,,,,
2628.699999988079,,familiar_rating,381979,Delaro Park,,49,Delaro Park,Fictional,1,,,,,
null,,confidence_buffer,382081,confidence_buffer,,null,,,,,,,,
1145.0999999940395,,unique_rating,383226,Delaro Park,,49,,,1,,,,,
null,,confidence_buffer,383327,confidence_buffer,,null,,,,,,,,
1121.5,,memorable_rating,384449,Delaro Park,,49,,,1,,,,,
null,,confidence_buffer,384551,confidence_buffer,,null,,,,,,,,
null,,thebreak,385052,break,,null,,,,,,,,
1536.4000000059605,,familiar_rating,386589,Golden Trace,,49,Golden Trace,Fictional,1,,,,,
null,,confidence_buffer,386691,confidence_buffer,,null,,,,,,,,
1125.9000000059605,,unique_rating,387817,Golden Trace,,49,,,1,,,,,
null,,confidence_buffer,387919,confidence_buffer,,null,,,,,,,,
4570,,memorable_rating,392489,Golden Trace,,50,,,2,,,,,
null,,confidence_buffer,392591,confidence_buffer,,null,,,,,,,,
null,,thebreak,393092,break,,null,,,,,,,,
3171.4000000059605,,familiar_rating,396264,Silverpine,,49,Silverpine,Fictional,1,,,,,
null,,confidence_buffer,396365,confidence_buffer,,null,,,,,,,,
1921.4000000059605,,unique_rating,398287,Silverpine,,50,,,2,,,,,
null,,confidence_buffer,398388,confidence_buffer,,null,,,,,,,,
903.9000000059605,,memorable_rating,399293,Silverpine,,50,,,2,,,,,
null,,confidence_buffer,399400,confidence_buffer,,null,,,,,,,,
null,,thebreak,399901,break,,null,,,,,,,,
7727.4000000059605,,familiar_rating,407630,Barnard,,49,Barnard,US,1,,,,,
null,,confidence_buffer,407730,confidence_buffer,,null,,,,,,,,
2723.199999988079,,unique_rating,410454,Barnard,,49,,,1,,,,,
null,,confidence_buffer,410557,confidence_buffer,,null,,,,,,,,
3061.9000000059605,,memorable_rating,413619,Barnard,,49,,,1,,,,,
null,,confidence_buffer,413721,confidence_buffer,,null,,,,,,,,
null,,thebreak,414222,break,,null,,,,,,,,
1637.7999999821186,,familiar_rating,415860,Millstone,,49,Millstone,Fictional,1,,,,,
null,,confidence_buffer,415970,confidence_buffer,,null,,,,,,,,
1596.800000011921,,unique_rating,417568,Millstone,,49,,,1,,,,,
null,,confidence_buffer,417670,confidence_buffer,,null,,,,,,,,
1493.5999999940395,,memorable_rating,419164,Millstone,,49,,,1,,,,,
null,,confidence_buffer,419267,confidence_buffer,,null,,,,,,,,
null,,thebreak,419769,break,,null,,,,,,,,
10781.5,,familiar_rating,430551,Orchard Bend,,49,Orchard Bend,Fictional,1,,,,,
null,,confidence_buffer,430652,confidence_buffer,,null,,,,,,,,
3096.800000011921,,unique_rating,433750,Orchard Bend,,50,,,2,,,,,
null,,confidence_buffer,433851,confidence_buffer,,null,,,,,,,,
2509.7999999821186,,memorable_rating,436362,Orchard Bend,,50,,,2,,,,,
null,,confidence_buffer,436464,confidence_buffer,,null,,,,,,,,
null,,thebreak,436965,break,,null,,,,,,,,
4673.800000011921,,familiar_rating,441640,Bar Harbor,,51,Bar Harbor,US,3,,,,,
null,,confidence_buffer,441741,confidence_buffer,,null,,,,,,,,
2591,,unique_rating,444333,Bar Harbor,,51,,,3,,,,,
null,,confidence_buffer,444434,confidence_buffer,,null,,,,,,,,
3553.5,,memorable_rating,447988,Bar Harbor,,51,,,3,,,,,
null,,confidence_buffer,448090,confidence_buffer,,null,,,,,,,,
null,,thebreak,448591,break,,null,,,,,,,,
2373.300000011921,,familiar_rating,450965,Folly Beach,,49,Folly Beach,US,1,,,,,
null,,confidence_buffer,451066,confidence_buffer,,null,,,,,,,,
4191.800000011921,,unique_rating,455259,Folly Beach,,50,,,2,,,,,
null,,confidence_buffer,455360,confidence_buffer,,null,,,,,,,,
4847.0999999940395,,memorable_rating,460208,Folly Beach,,51,,,3,,,,,
null,,confidence_buffer,460310,confidence_buffer,,null,,,,,,,,
null,,thebreak,460811,break,,null,,,,,,,,
2776.7999999821186,,familiar_rating,463588,Briarfield,,49,Briarfield,Fictional,1,,,,,
null,,confidence_buffer,463690,confidence_buffer,,null,,,,,,,,
3124.699999988079,,probe_rating,466816,probe_rating,,50,,,,2,1,,,
null,,confidence_buffer,466917,confidence_buffer,,null,,,,,,,,
5007.799999982119,,unique_rating,471926,Briarfield,,49,,,1,,,,,
null,,confidence_buffer,472027,confidence_buffer,,null,,,,,,,,
2065.199999988079,,memorable_rating,474093,Briarfield,,49,,,1,,,,,
null,,confidence_buffer,474195,confidence_buffer,,null,,,,,,,,
null,,thebreak,474696,break,,null,,,,,,,,
4557.600000023842,,familiar_rating,479254,Coralridge,,49,Coralridge,Fictional,1,,,,,
null,,confidence_buffer,479355,confidence_buffer,,null,,,,,,,,
1709.699999988079,,unique_rating,481065,Coralridge,,50,,,2,,,,,
null,,confidence_buffer,481167,confidence_buffer,,null,,,,,,,,
2632.2000000178814,,memorable_rating,483799,Coralridge,,50,,,2,,,,,
null,,confidence_buffer,483901,confidence_buffer,,null,,,,,,,,
null,,thebreak,484402,break,,null,,,,,,,,
3358.9000000059605,,familiar_rating,487762,Cedarwyn,,49,Cedarwyn,Fictional,1,,,,,
null,,confidence_buffer,487866,confidence_buffer,,null,,,,,,,,
5362.9000000059605,,unique_rating,493230,Cedarwyn,,49,,,1,,,,,
null,,confidence_buffer,493332,confidence_buffer,,null,,,,,,,,
1562.0999999940395,,memorable_rating,494895,Cedarwyn,,49,,,1,,,,,
null,,confidence_buffer,494997,confidence_buffer,,null,,,,,,,,
1946.300000011921,,probe_rating,496944,probe_rating,,49,,,,1,1,,,
null,,confidence_buffer,497047,confidence_buffer,,null,,,,,,,,
null,,thebreak,497549,break,,null,,,,,,,,
5780.799999982119,,intro_0,503330,instruct,,32,,,,,,,,
11460.59999999404,,intro_1,514792,instruct,,32,,,,,,,,
33779.5,,intro_2,548572,instruct,,32,,,,,,,,
null,,instruct_dir_4,550074,instruct,,null,,,,,,,,
14105.40000000596,,realistic_rating,564180,Hot Springs,,52,Hot Springs,US,4,,,,,
null,,confidence_buffer,564281,confidence_buffer,,null,,,,,,,,
4549.300000011921,,pt2_unique_rating,568832,Hot Springs,,51,,,3,,,,,
null,,confidence_buffer,568933,confidence_buffer,,null,,,,,,,,
4619.5999999940395,,pt2_memorable_rating,573553,Hot Springs,,51,,,3,,,,,
null,,confidence_buffer,573654,confidence_buffer,,null,,,,,,,,
5792.5999999940395,,recognition_phase,579448,Hot Springs,,49,,,,,,old,0,0
null,,confidence_buffer,579549,confidence_buffer,,null,,,,,,,,
null,,thebreak,580051,break,,null,,,,,,,,
9459.800000011921,,realistic_rating,589512,Hollendale,,50,Hollendale,Fictional,2,,,,,
null,,confidence_buffer,589614,confidence_buffer,,null,,,,,,,,
3320.800000011921,,pt2_unique_rating,592936,Hollendale,,50,,,2,,,,,
null,,confidence_buffer,593037,confidence_buffer,,null,,,,,,,,
1580.300000011921,,pt2_memorable_rating,594618,Hollendale,,50,,,2,,,,,
null,,confidence_buffer,594719,confidence_buffer,,null,,,,,,,,
5707.9000000059605,,recognition_phase,600427,Hollendale,,52,,,,,,new,1,0.5
null,,confidence_buffer,600529,confidence_buffer,,null,,,,,,,,
null,,thebreak,601030,break,,null,,,,,,,,
7706.399999976158,,realistic_rating,608737,Manistee,,50,Manistee,US,2,,,,,
null,,confidence_buffer,608838,confidence_buffer,,null,,,,,,,,
2638.0999999940395,,probe_rating,611477,probe_rating,,51,,,,3,1,,,
null,,confidence_buffer,611578,confidence_buffer,,null,,,,,,,,
6191.5999999940395,,pt2_unique_rating,617771,Manistee,,50,,,2,,,,,
null,,confidence_buffer,617871,confidence_buffer,,null,,,,,,,,
2130.300000011921,,pt2_memorable_rating,620003,Manistee,,50,,,2,,,,,
null,,confidence_buffer,620104,confidence_buffer,,null,,,,,,,,
4415.9000000059605,,recognition_phase,624521,Manistee,,52,,,,,,new,1,0.6666666666666666
null,,confidence_buffer,624622,confidence_buffer,,null,,,,,,,,
null,,thebreak,625124,break,,null,,,,,,,,
6630.0999999940395,,realistic_rating,631755,Cornwall,,51,Cornwall,US,3,,,,,
null,,confidence_buffer,631855,confidence_buffer,,null,,,,,,,,
3127.800000011921,,pt2_unique_rating,634984,Cornwall,,51,,,3,,,,,
null,,confidence_buffer,635085,confidence_buffer,,null,,,,,,,,
1240.199999988079,,pt2_memorable_rating,636326,Cornwall,,51,,,3,,,,,
null,,confidence_buffer,636427,confidence_buffer,,null,,,,,,,,
4627.0999999940395,,recognition_phase,641055,Cornwall,,49,,,,,,old,1,0.75
null,,confidence_buffer,641157,confidence_buffer,,null,,,,,,,,
null,,thebreak,641658,break,,null,,,,,,,,
6777.5,,realistic_rating,648436,Watkins Glen,,52,Watkins Glen,US,4,,,,,
null,,confidence_buffer,648539,confidence_buffer,,null,,,,,,,,
2305.4000000059605,,pt2_unique_rating,650845,Watkins Glen,,52,,,4,,,,,
null,,confidence_buffer,650946,confidence_buffer,,null,,,,,,,,
2445,,pt2_memorable_rating,653391,Watkins Glen,,52,,,4,,,,,
null,,confidence_buffer,653493,confidence_buffer,,null,,,,,,,,
5580.800000011921,,recognition_phase,659074,Watkins Glen,,49,,,,,,old,1,0.8
null,,confidence_buffer,659176,confidence_buffer,,null,,,,,,,,
null,,thebreak,659677,break,,null,,,,,,,,
5204.9000000059605,,realistic_rating,664882,New Verdan,,50,New Verdan,Fictional,2,,,,,
null,,confidence_buffer,664985,confidence_buffer,,null,,,,,,,,
1474.0999999940395,,pt2_unique_rating,666460,New Verdan,,50,,,2,,,,,
null,,confidence_buffer,666561,confidence_buffer,,null,,,,,,,,
2531.5,,probe_rating,669093,probe_rating,,53,,,,5,1,,,
null,,confidence_buffer,669195,confidence_buffer,,null,,,,,,,,
3676.0999999940395,,pt2_memorable_rating,672872,New Verdan,,51,,,3,,,,,
null,,confidence_buffer,672972,confidence_buffer,,null,,,,,,,,
5054.800000011921,,recognition_phase,678028,New Verdan,,52,,,,,,new,1,0.8333333333333334
null,,confidence_buffer,678130,confidence_buffer,,null,,,,,,,,
null,,thebreak,678631,break,,null,,,,,,,,
3195.0999999940395,,realistic_rating,681827,Delaro Park,,50,Delaro Park,Fictional,2,,,,,
null,,confidence_buffer,681928,confidence_buffer,,null,,,,,,,,
2014.800000011921,,pt2_unique_rating,683944,Delaro Park,,50,,,2,,,,,
null,,confidence_buffer,684045,confidence_buffer,,null,,,,,,,,
1233.4000000059605,,pt2_memorable_rating,685279,Delaro Park,,50,,,2,,,,,
null,,confidence_buffer,685380,confidence_buffer,,null,,,,,,,,
4264.800000011921,,recognition_phase,689646,Delaro Park,,49,,,,,,old,1,0.8571428571428571
null,,confidence_buffer,689747,confidence_buffer,,null,,,,,,,,
null,,thebreak,690248,break,,null,,,,,,,,
4286.800000011921,,realistic_rating,694536,Folly Beach,,50,Folly Beach,US,2,,,,,
null,,confidence_buffer,694637,confidence_buffer,,null,,,,,,,,
2955,,pt2_unique_rating,697593,Folly Beach,,50,,,2,,,,,
null,,confidence_buffer,697695,confidence_buffer,,null,,,,,,,,
1239.6000000238419,,pt2_memorable_rating,698935,Folly Beach,,50,,,2,,,,,
null,,confidence_buffer,699036,confidence_buffer,,null,,,,,,,,
2775.699999988079,,recognition_phase,701812,Folly Beach,,49,,,,,,old,1,0.875
null,,confidence_buffer,701923,confidence_buffer,,null,,,,,,,,
null,,thebreak,702425,break,,null,,,,,,,,
4443.5,,realistic_rating,706869,Newport,,52,Newport,US,4,,,,,
null,,confidence_buffer,706971,confidence_buffer,,null,,,,,,,,
8185.0999999940395,,pt2_unique_rating,715157,Newport,,52,,,4,,,,,
null,,confidence_buffer,715258,confidence_buffer,,null,,,,,,,,
2524.699999988079,,pt2_memorable_rating,717784,Newport,,52,,,4,,,,,
null,,confidence_buffer,717885,confidence_buffer,,null,,,,,,,,
2727.7999999821186,,probe_rating,720614,probe_rating,,53,,,,5,1,,,
null,,confidence_buffer,720716,confidence_buffer,,null,,,,,,,,
2886.699999988079,,recognition_phase,723603,Newport,,49,,,,,,old,1,0.8888888888888888
null,,confidence_buffer,723705,confidence_buffer,,null,,,,,,,,
null,,thebreak,724206,break,,null,,,,,,,,
4527.9000000059605,,realistic_rating,728735,Racine,,52,Racine,US,4,,,,,
null,,confidence_buffer,728838,confidence_buffer,,null,,,,,,,,
5308.5999999940395,,pt2_unique_rating,734147,Racine,,52,,,4,,,,,
null,,confidence_buffer,734248,confidence_buffer,,null,,,,,,,,
3712,,pt2_memorable_rating,737961,Racine,,52,,,4,,,,,
null,,confidence_buffer,738061,confidence_buffer,,null,,,,,,,,
2235.0999999940395,,probe_rating,740297,probe_rating,,51,,,,3,1,,,
null,,confidence_buffer,740399,confidence_buffer,,null,,,,,,,,
2580.300000011921,,recognition_phase,742980,Racine,,49,,,,,,old,1,0.9
null,,confidence_buffer,743082,confidence_buffer,,null,,,,,,,,
null,,thebreak,743586,break,,null,,,,,,,,
7750.5,,realistic_rating,751337,Pine Hollow,,51,Pine Hollow,Fictional,3,,,,,
null,,confidence_buffer,751438,confidence_buffer,,null,,,,,,,,
1699.5999999940395,,pt2_unique_rating,753138,Pine Hollow,,51,,,3,,,,,
null,,confidence_buffer,753239,confidence_buffer,,null,,,,,,,,
1676.2000000178814,,pt2_memorable_rating,754916,Pine Hollow,,51,,,3,,,,,
null,,confidence_buffer,755018,confidence_buffer,,null,,,,,,,,
4839,,recognition_phase,759858,Pine Hollow,,49,,,,,,old,1,0.9090909090909091
null,,confidence_buffer,759959,confidence_buffer,,null,,,,,,,,
null,,thebreak,760460,break,,null,,,,,,,,
5006.700000017881,,realistic_rating,765468,Bayshore Haven,,51,Bayshore Haven,Fictional,3,,,,,
null,,confidence_buffer,765571,confidence_buffer,,null,,,,,,,,
1373.3999999761581,,pt2_unique_rating,766945,Bayshore Haven,,51,,,3,,,,,
null,,confidence_buffer,767046,confidence_buffer,,null,,,,,,,,
3699.5999999940395,,pt2_memorable_rating,770746,Bayshore Haven,,51,,,3,,,,,
null,,confidence_buffer,770847,confidence_buffer,,null,,,,,,,,
2274,,recognition_phase,773121,Bayshore Haven,,49,,,,,,old,1,0.9166666666666666
null,,confidence_buffer,773227,confidence_buffer,,null,,,,,,,,
null,,thebreak,773729,break,,null,,,,,,,,
5616.5,,realistic_rating,779346,Silverpine,,51,Silverpine,Fictional,3,,,,,
null,,confidence_buffer,779448,confidence_buffer,,null,,,,,,,,
5612.9000000059605,,pt2_unique_rating,785062,Silverpine,,50,,,2,,,,,
null,,confidence_buffer,785163,confidence_buffer,,null,,,,,,,,
5712.699999988079,,pt2_memorable_rating,790877,Silverpine,,51,,,3,,,,,
null,,confidence_buffer,790978,confidence_buffer,,null,,,,,,,,
1793.0999999940395,,probe_rating,792772,probe_rating,,50,,,,2,1,,,
null,,confidence_buffer,792874,confidence_buffer,,null,,,,,,,,
3748,,recognition_phase,796623,Silverpine,,50,,,,,,old,1,0.9230769230769231
null,,confidence_buffer,796725,confidence_buffer,,null,,,,,,,,
null,,thebreak,797226,break,,null,,,,,,,,
5641.200000017881,,realistic_rating,802868,Delaware City,,52,Delaware City,US,4,,,,,
null,,confidence_buffer,802970,confidence_buffer,,null,,,,,,,,
2328.9000000059605,,pt2_unique_rating,805300,Delaware City,,52,,,4,,,,,
null,,confidence_buffer,805401,confidence_buffer,,null,,,,,,,,
7445.4000000059605,,pt2_memorable_rating,812847,Delaware City,,52,,,4,,,,,
null,,confidence_buffer,812948,confidence_buffer,,null,,,,,,,,
5357.0999999940395,,recognition_phase,818306,Delaware City,,51,,,,,,new,0,0.8571428571428571
null,,confidence_buffer,818408,confidence_buffer,,null,,,,,,,,
null,,thebreak,818910,break,,null,,,,,,,,
4651.700000017881,,realistic_rating,823562,Montelake,,50,Montelake,Fictional,2,,,,,
null,,confidence_buffer,823664,confidence_buffer,,null,,,,,,,,
2510.0999999940395,,pt2_unique_rating,826175,Montelake,,50,,,2,,,,,
null,,confidence_buffer,826276,confidence_buffer,,null,,,,,,,,
3245.699999988079,,pt2_memorable_rating,829523,Montelake,,49,,,1,,,,,
null,,confidence_buffer,829624,confidence_buffer,,null,,,,,,,,
3458.5999999940395,,recognition_phase,833083,Montelake,,52,,,,,,new,1,0.8666666666666667
null,,confidence_buffer,833185,confidence_buffer,,null,,,,,,,,
null,,thebreak,833686,break,,null,,,,,,,,
5777.5999999940395,,realistic_rating,839465,Okoboji,,50,Okoboji,US,2,,,,,
null,,confidence_buffer,839567,confidence_buffer,,null,,,,,,,,
9795.200000017881,,pt2_unique_rating,849363,Okoboji,,51,,,3,,,,,
null,,confidence_buffer,849464,confidence_buffer,,null,,,,,,,,
1578,,pt2_memorable_rating,851043,Okoboji,,51,,,3,,,,,
null,,confidence_buffer,851145,confidence_buffer,,null,,,,,,,,
2722.5999999940395,,recognition_phase,853868,Okoboji,,49,,,,,,old,1,0.875
null,,confidence_buffer,853970,confidence_buffer,,null,,,,,,,,
null,,thebreak,854471,break,,null,,,,,,,,
3589.9000000059605,,realistic_rating,858062,Custer,,51,Custer,US,3,,,,,
null,,confidence_buffer,858163,confidence_buffer,,null,,,,,,,,
2900.9000000059605,,probe_rating,861065,probe_rating,,52,,,,4,1,,,
null,,confidence_buffer,861166,confidence_buffer,,null,,,,,,,,
74604.19999998808,,pt2_unique_rating,935771,Custer,,51,,,3,,,,,
null,,confidence_buffer,935872,confidence_buffer,,null,,,,,,,,
2225.5999999940395,,pt2_memorable_rating,938099,Custer,,51,,,3,,,,,
null,,confidence_buffer,938200,confidence_buffer,,null,,,,,,,,
4246.9000000059605,,recognition_phase,942447,Custer,,50,,,,,,old,0,0.8235294117647058
null,,confidence_buffer,942549,confidence_buffer,,null,,,,,,,,
null,,thebreak,943051,break,,null,,,,,,,,
4143.5999999940395,,realistic_rating,947195,Golden Trace,,50,Golden Trace,Fictional,2,,,,,
null,,confidence_buffer,947296,confidence_buffer,,null,,,,,,,,
2287.399999976158,,probe_rating,949584,probe_rating,,50,,,,2,1,,,
null,,confidence_buffer,949686,confidence_buffer,,null,,,,,,,,
3377.4000000059605,,pt2_unique_rating,953065,Golden Trace,,51,,,3,,,,,
null,,confidence_buffer,953167,confidence_buffer,,null,,,,,,,,
1942.199999988079,,pt2_memorable_rating,955110,Golden Trace,,51,,,3,,,,,
null,,confidence_buffer,955211,confidence_buffer,,null,,,,,,,,
5874.9000000059605,,recognition_phase,961087,Golden Trace,,51,,,,,,new,0,0.7777777777777778
null,,confidence_buffer,961188,confidence_buffer,,null,,,,,,,,
null,,thebreak,961689,break,,null,,,,,,,,
5438.0999999940395,,realistic_rating,967128,Orchard Bend,,51,Orchard Bend,Fictional,3,,,,,
null,,confidence_buffer,967230,confidence_buffer,,null,,,,,,,,
1509.2999999821186,,pt2_unique_rating,968741,Orchard Bend,,51,,,3,,,,,
null,,confidence_buffer,968842,confidence_buffer,,null,,,,,,,,
1397,,pt2_memorable_rating,970239,Orchard Bend,,51,,,3,,,,,
null,,confidence_buffer,970341,confidence_buffer,,null,,,,,,,,
5325.5,,recognition_phase,975668,Orchard Bend,,50,,,,,,old,1,0.7894736842105263
null,,confidence_buffer,975769,confidence_buffer,,null,,,,,,,,
null,,thebreak,976271,break,,null,,,,,,,,
5719,,realistic_rating,981990,Orr,,50,Orr,US,2,,,,,
null,,confidence_buffer,982092,confidence_buffer,,null,,,,,,,,
4017.800000011921,,pt2_unique_rating,986111,Orr,,51,,,3,,,,,
null,,confidence_buffer,986212,confidence_buffer,,null,,,,,,,,
1243.5999999940395,,pt2_memorable_rating,987456,Orr,,51,,,3,,,,,
null,,confidence_buffer,987558,confidence_buffer,,null,,,,,,,,
4117,,recognition_phase,991676,Orr,,52,,,,,,new,1,0.8
null,,confidence_buffer,991777,confidence_buffer,,null,,,,,,,,
null,,thebreak,992278,break,,null,,,,,,,,
5466.399999976158,,realistic_rating,997745,Linden Trace,,49,Linden Trace,Fictional,1,,,,,
null,,confidence_buffer,997847,confidence_buffer,,null,,,,,,,,
1896.0999999940395,,pt2_unique_rating,999743,Linden Trace,,49,,,1,,,,,
null,,confidence_buffer,999845,confidence_buffer,,null,,,,,,,,
2151.100000023842,,probe_rating,1001997,probe_rating,,52,,,,4,1,,,
null,,confidence_buffer,1002098,confidence_buffer,,null,,,,,,,,
2911.100000023842,,pt2_memorable_rating,1005010,Linden Trace,,50,,,2,,,,,
null,,confidence_buffer,1005111,confidence_buffer,,null,,,,,,,,
4088.4000000059605,,recognition_phase,1009200,Linden Trace,,52,,,,,,new,1,0.8095238095238095
null,,confidence_buffer,1009301,confidence_buffer,,null,,,,,,,,
null,,thebreak,1009802,break,,null,,,,,,,,
4894.800000011921,,realistic_rating,1014698,Bisbee,,51,Bisbee,US,3,,,,,
null,,confidence_buffer,1014800,confidence_buffer,,null,,,,,,,,
2355.300000011921,,pt2_unique_rating,1017156,Bisbee,,51,,,3,,,,,
null,,confidence_buffer,1017258,confidence_buffer,,null,,,,,,,,
2710,,pt2_memorable_rating,1019968,Bisbee,,51,,,3,,,,,
null,,confidence_buffer,1020070,confidence_buffer,,null,,,,,,,,
3514.300000011921,,recognition_phase,1023585,Bisbee,,49,,,,,,old,1,0.8181818181818182
null,,confidence_buffer,1023687,confidence_buffer,,null,,,,,,,,
null,,thebreak,1024188,break,,null,,,,,,,,
3799.4000000059605,,realistic_rating,1027988,Gatlinburg,,51,Gatlinburg,US,3,,,,,
null,,confidence_buffer,1028089,confidence_buffer,,null,,,,,,,,
3331.5,,pt2_unique_rating,1031421,Gatlinburg,,51,,,3,,,,,
null,,confidence_buffer,1031522,confidence_buffer,,null,,,,,,,,
3025.2000000178814,,pt2_memorable_rating,1034548,Gatlinburg,,52,,,4,,,,,
null,,confidence_buffer,1034649,confidence_buffer,,null,,,,,,,,
5336.700000017881,,recognition_phase,1039986,Gatlinburg,,52,,,,,,new,1,0.8260869565217391
null,,confidence_buffer,1040088,confidence_buffer,,null,,,,,,,,
null,,thebreak,1040589,break,,null,,,,,,,,
10879.199999988079,,realistic_rating,1051469,Coralridge,,52,Coralridge,Fictional,4,,,,,
null,,confidence_buffer,1051570,confidence_buffer,,null,,,,,,,,
4614.199999988079,,pt2_unique_rating,1056185,Coralridge,,52,,,4,,,,,
null,,confidence_buffer,1056286,confidence_buffer,,null,,,,,,,,
1483.5999999940395,,pt2_memorable_rating,1057770,Coralridge,,52,,,4,,,,,
null,,confidence_buffer,1057872,confidence_buffer,,null,,,,,,,,
3033.5,,recognition_phase,1060907,Coralridge,,49,,,,,,old,1,0.8333333333333334
null,,confidence_buffer,1061008,confidence_buffer,,null,,,,,,,,
null,,thebreak,1061510,break,,null,,,,,,,,
5630.5999999940395,,realistic_rating,1067141,Gardnerville,,51,Gardnerville,US,3,,,,,
null,,confidence_buffer,1067250,confidence_buffer,,null,,,,,,,,
6545.199999988079,,pt2_unique_rating,1073796,Gardnerville,,50,,,2,,,,,
null,,confidence_buffer,1073898,confidence_buffer,,null,,,,,,,,
3048.9000000059605,,pt2_memorable_rating,1076948,Gardnerville,,50,,,2,,,,,
null,,confidence_buffer,1077049,confidence_buffer,,null,,,,,,,,
4065.699999988079,,recognition_phase,1081116,Gardnerville,,49,,,,,,old,1,0.84
null,,confidence_buffer,1081217,confidence_buffer,,null,,,,,,,,
null,,thebreak,1081719,break,,null,,,,,,,,
9016.59999999404,,realistic_rating,1090737,Tamarisk Hills,,52,Tamarisk Hills,Fictional,4,,,,,
null,,confidence_buffer,1090838,confidence_buffer,,null,,,,,,,,
3500.800000011921,,pt2_unique_rating,1094340,Tamarisk Hills,,52,,,4,,,,,
null,,confidence_buffer,1094442,confidence_buffer,,null,,,,,,,,
2862.7000000178814,,pt2_memorable_rating,1097305,Tamarisk Hills,,51,,,3,,,,,
null,,confidence_buffer,1097407,confidence_buffer,,null,,,,,,,,
2816.399999976158,,recognition_phase,1100224,Tamarisk Hills,,52,,,,,,new,1,0.8461538461538461
null,,confidence_buffer,1100325,confidence_buffer,,null,,,,,,,,
null,,thebreak,1100826,break,,null,,,,,,,,
3986.300000011921,,realistic_rating,1104813,West Palm Beach,,53,West Palm Beach,US,5,,,,,
null,,confidence_buffer,1104915,confidence_buffer,,null,,,,,,,,
441.10000002384186,,pt2_unique_rating,1105357,West Palm Beach,,53,,,5,,,,,
null,,confidence_buffer,1105459,confidence_buffer,,null,,,,,,,,
6711.899999976158,,pt2_memorable_rating,1112171,West Palm Beach,,53,,,5,,,,,
null,,confidence_buffer,1112278,confidence_buffer,,null,,,,,,,,
4135.0999999940395,,recognition_phase,1116414,West Palm Beach,,52,,,,,,new,1,0.8518518518518519
null,,confidence_buffer,1116515,confidence_buffer,,null,,,,,,,,
null,,thebreak,1117016,break,,null,,,,,,,,
6328.799999982119,,realistic_rating,1123346,Baymarsh,,51,Baymarsh,Fictional,3,,,,,
null,,confidence_buffer,1123447,confidence_buffer,,null,,,,,,,,
9389.90000000596,,pt2_unique_rating,1132838,Baymarsh,,51,,,3,,,,,
null,,confidence_buffer,1132941,confidence_buffer,,null,,,,,,,,
3979.2999999821186,,pt2_memorable_rating,1136921,Baymarsh,,50,,,2,,,,,
null,,confidence_buffer,1137022,confidence_buffer,,null,,,,,,,,
2121.199999988079,,probe_rating,1139144,probe_rating,,52,,,,4,1,,,
null,,confidence_buffer,1139246,confidence_buffer,,null,,,,,,,,
3807.100000023842,,recognition_phase,1143054,Baymarsh,,52,,,,,,new,1,0.8571428571428571
null,,confidence_buffer,1143155,confidence_buffer,,null,,,,,,,,
null,,thebreak,1143656,break,,null,,,,,,,,
4509.199999988079,,realistic_rating,1148166,Briarfield,,52,Briarfield,Fictional,4,,,,,
null,,confidence_buffer,1148267,confidence_buffer,,null,,,,,,,,
6601.0999999940395,,pt2_unique_rating,1154869,Briarfield,,50,,,2,,,,,
null,,confidence_buffer,1154971,confidence_buffer,,null,,,,,,,,
3255.7000000178814,,pt2_memorable_rating,1158227,Briarfield,,50,,,2,,,,,
null,,confidence_buffer,1158329,confidence_buffer,,null,,,,,,,,
3347.2999999821186,,recognition_phase,1161677,Briarfield,,52,,,,,,new,0,0.8275862068965517
null,,confidence_buffer,1161778,confidence_buffer,,null,,,,,,,,
null,,thebreak,1162279,break,,null,,,,,,,,
4934.9000000059605,,realistic_rating,1167214,Medora,,52,Medora,US,4,,,,,
null,,confidence_buffer,1167316,confidence_buffer,,null,,,,,,,,
3293.9000000059605,,pt2_unique_rating,1170610,Medora,,51,,,3,,,,,
null,,confidence_buffer,1170712,confidence_buffer,,null,,,,,,,,
2069,,pt2_memorable_rating,1172782,Medora,,51,,,3,,,,,
null,,confidence_buffer,1172884,confidence_buffer,,null,,,,,,,,
5148,,recognition_phase,1178033,Medora,,50,,,,,,old,1,0.8333333333333334
null,,confidence_buffer,1178134,confidence_buffer,,null,,,,,,,,
null,,thebreak,1178635,break,,null,,,,,,,,
3609.2999999821186,,realistic_rating,1182245,Cape May,,53,Cape May,US,5,,,,,
null,,confidence_buffer,1182347,confidence_buffer,,null,,,,,,,,
4483,,pt2_unique_rating,1186831,Cape May,,52,,,4,,,,,
null,,confidence_buffer,1186932,confidence_buffer,,null,,,,,,,,
2823,,pt2_memorable_rating,1189756,Cape May,,52,,,4,,,,,
null,,confidence_buffer,1189857,confidence_buffer,,null,,,,,,,,
4163.5,,recognition_phase,1194022,Cape May,,52,,,,,,new,1,0.8387096774193549
null,,confidence_buffer,1194123,confidence_buffer,,null,,,,,,,,
null,,thebreak,1194624,break,,null,,,,,,,,
7880.9000000059605,,realistic_rating,1202506,Hanover,,53,Hanover,US,5,,,,,
null,,confidence_buffer,1202607,confidence_buffer,,null,,,,,,,,
3214.5,,pt2_unique_rating,1205822,Hanover,,53,,,5,,,,,
null,,confidence_buffer,1205926,confidence_buffer,,null,,,,,,,,
4313.300000011921,,pt2_memorable_rating,1210240,Hanover,,52,,,4,,,,,
null,,confidence_buffer,1210341,confidence_buffer,,null,,,,,,,,
3350.699999988079,,recognition_phase,1213692,Hanover,,52,,,,,,new,0,0.8125
null,,confidence_buffer,1213794,confidence_buffer,,null,,,,,,,,
null,,thebreak,1214296,break,,null,,,,,,,,
5061.699999988079,,realistic_rating,1219358,Sierra Hollow,,50,Sierra Hollow,Fictional,2,,,,,
null,,confidence_buffer,1219461,confidence_buffer,,null,,,,,,,,
3430.5,,pt2_unique_rating,1222893,Sierra Hollow,,50,,,2,,,,,
null,,confidence_buffer,1223009,confidence_buffer,,null,,,,,,,,
4725.199999988079,,pt2_memorable_rating,1227735,Sierra Hollow,,51,,,3,,,,,
null,,confidence_buffer,1227836,confidence_buffer,,null,,,,,,,,
3516.0999999940395,,recognition_phase,1231353,Sierra Hollow,,52,,,,,,new,1,0.8181818181818182
null,,confidence_buffer,1231454,confidence_buffer,,null,,,,,,,,
null,,thebreak,1231955,break,,null,,,,,,,,
4430.299999982119,,realistic_rating,1236386,Abilene,,53,Abilene,US,5,,,,,
null,,confidence_buffer,1236488,confidence_buffer,,null,,,,,,,,
94.2999999821186,,pt2_unique_rating,1236583,Abilene,,53,,,5,,,,,
null,,confidence_buffer,1236689,confidence_buffer,,null,,,,,,,,
9509,,pt2_memorable_rating,1246199,Abilene,,52,,,4,,,,,
null,,confidence_buffer,1246300,confidence_buffer,,null,,,,,,,,
4262.5999999940395,,recognition_phase,1250564,Abilene,,52,,,,,,new,1,0.8235294117647058
null,,confidence_buffer,1250665,confidence_buffer,,null,,,,,,,,
null,,thebreak,1251166,break,,null,,,,,,,,
4424,,realistic_rating,1255590,Crestwood,,51,Crestwood,Fictional,3,,,,,
null,,confidence_buffer,1255691,confidence_buffer,,null,,,,,,,,
4201.5,,pt2_unique_rating,1259894,Crestwood,,50,,,2,,,,,
null,,confidence_buffer,1259995,confidence_buffer,,null,,,,,,,,
1846.5,,pt2_memorable_rating,1261843,Crestwood,,50,,,2,,,,,
null,,confidence_buffer,1261944,confidence_buffer,,null,,,,,,,,
3435.2000000178814,,recognition_phase,1265380,Crestwood,,51,,,,,,new,0,0.8
null,,confidence_buffer,1265483,confidence_buffer,,null,,,,,,,,
null,,thebreak,1265985,break,,null,,,,,,,,
5893.5,,realistic_rating,1271879,Barnard,,51,Barnard,US,3,,,,,
null,,confidence_buffer,1271981,confidence_buffer,,null,,,,,,,,
9087.59999999404,,pt2_unique_rating,1281069,Barnard,,51,,,3,,,,,
null,,confidence_buffer,1281170,confidence_buffer,,null,,,,,,,,
3958.5,,pt2_memorable_rating,1285129,Barnard,,50,,,2,,,,,
null,,confidence_buffer,1285231,confidence_buffer,,null,,,,,,,,
2805,,recognition_phase,1288036,Barnard,,49,,,,,,old,1,0.8055555555555556
null,,confidence_buffer,1288138,confidence_buffer,,null,,,,,,,,
null,,thebreak,1288640,break,,null,,,,,,,,
3899.699999988079,,realistic_rating,1292540,Cedarwyn,,50,Cedarwyn,Fictional,2,,,,,
null,,confidence_buffer,1292641,confidence_buffer,,null,,,,,,,,
4408.0999999940395,,pt2_unique_rating,1297050,Cedarwyn,,50,,,2,,,,,
null,,confidence_buffer,1297152,confidence_buffer,,null,,,,,,,,
2612.199999988079,,pt2_memorable_rating,1299765,Cedarwyn,,50,,,2,,,,,
null,,confidence_buffer,1299866,confidence_buffer,,null,,,,,,,,
2049.2000000178814,,probe_rating,1301916,probe_rating,,51,,,,3,1,,,
null,,confidence_buffer,1302018,confidence_buffer,,null,,,,,,,,
4226.5999999940395,,recognition_phase,1306245,Cedarwyn,,51,,,,,,new,0,0.7837837837837838
null,,confidence_buffer,1306346,confidence_buffer,,null,,,,,,,,
null,,thebreak,1306848,break,,null,,,,,,,,
4537.4000000059605,,realistic_rating,1311386,Stonebrook,,51,Stonebrook,Fictional,3,,,,,
null,,confidence_buffer,1311487,confidence_buffer,,null,,,,,,,,
3180.9000000059605,,pt2_unique_rating,1314669,Stonebrook,,50,,,2,,,,,
null,,confidence_buffer,1314771,confidence_buffer,,null,,,,,,,,
1642.4000000059605,,pt2_memorable_rating,1316414,Stonebrook,,50,,,2,,,,,
null,,confidence_buffer,1316516,confidence_buffer,,null,,,,,,,,
4486.9000000059605,,recognition_phase,1321004,Stonebrook,,51,,,,,,new,0,0.7631578947368421
null,,confidence_buffer,1321105,confidence_buffer,,null,,,,,,,,
null,,thebreak,1321606,break,,null,,,,,,,,
7290.5999999940395,,realistic_rating,1328897,Cody,,52,Cody,US,4,,,,,
null,,confidence_buffer,1328999,confidence_buffer,,null,,,,,,,,
3519.2000000178814,,pt2_unique_rating,1332518,Cody,,52,,,4,,,,,
null,,confidence_buffer,1332620,confidence_buffer,,null,,,,,,,,
2309.699999988079,,pt2_memorable_rating,1334930,Cody,,52,,,4,,,,,
null,,confidence_buffer,1335031,confidence_buffer,,null,,,,,,,,
3036.699999988079,,recognition_phase,1338069,Cody,,49,,,,,,old,1,0.7692307692307693
null,,confidence_buffer,1338170,confidence_buffer,,null,,,,,,,,
null,,thebreak,1338671,break,,null,,,,,,,,
7532.700000017881,,realistic_rating,1346204,Lake of the Ozarks,,52,Lake of the Ozarks,US,4,,,,,
null,,confidence_buffer,1346306,confidence_buffer,,null,,,,,,,,
2976.5999999940395,,pt2_unique_rating,1349283,Lake of the Ozarks,,52,,,4,,,,,
null,,confidence_buffer,1349385,confidence_buffer,,null,,,,,,,,
2248.9000000059605,,pt2_memorable_rating,1351634,Lake of the Ozarks,,52,,,4,,,,,
null,,confidence_buffer,1351736,confidence_buffer,,null,,,,,,,,
3294.0999999940395,,recognition_phase,1355031,Lake of the Ozarks,,52,,,,,,new,1,0.775
null,,confidence_buffer,1355143,confidence_buffer,,null,,,,,,,,
null,,thebreak,1355645,break,,null,,,,,,,,
3390.2000000178814,,realistic_rating,1359037,Shreveport,,53,Shreveport,US,5,,,,,
null,,confidence_buffer,1359138,confidence_buffer,,null,,,,,,,,
3853.5999999940395,,pt2_unique_rating,1362992,Shreveport,,52,,,4,,,,,
null,,confidence_buffer,1363097,confidence_buffer,,null,,,,,,,,
2531.9000000059605,,probe_rating,1365630,probe_rating,,52,,,,4,1,,,
null,,confidence_buffer,1365731,confidence_buffer,,null,,,,,,,,
3937.4000000059605,,pt2_memorable_rating,1369669,Shreveport,,52,,,4,,,,,
null,,confidence_buffer,1369771,confidence_buffer,,null,,,,,,,,
3268.699999988079,,recognition_phase,1373041,Shreveport,,52,,,,,,new,1,0.7804878048780488
null,,confidence_buffer,1373142,confidence_buffer,,null,,,,,,,,
null,,thebreak,1373644,break,,null,,,,,,,,
4576.199999988079,,realistic_rating,1378221,North Arroya,,50,North Arroya,Fictional,2,,,,,
null,,confidence_buffer,1378322,confidence_buffer,,null,,,,,,,,
1626.1000000238419,,pt2_unique_rating,1379949,North Arroya,,50,,,2,,,,,
null,,confidence_buffer,1380051,confidence_buffer,,null,,,,,,,,
1388.2000000178814,,pt2_memorable_rating,1381440,North Arroya,,50,,,2,,,,,
null,,confidence_buffer,1381541,confidence_buffer,,null,,,,,,,,
3564.699999988079,,recognition_phase,1385106,North Arroya,,52,,,,,,new,1,0.7857142857142857
null,,confidence_buffer,1385208,confidence_buffer,,null,,,,,,,,
null,,thebreak,1385710,break,,null,,,,,,,,
2393.0999999940395,,realistic_rating,1388104,Highvale,,50,Highvale,Fictional,2,,,,,
null,,confidence_buffer,1388205,confidence_buffer,,null,,,,,,,,
3977.9000000059605,,pt2_unique_rating,1392184,Highvale,,50,,,2,,,,,
null,,confidence_buffer,1392286,confidence_buffer,,null,,,,,,,,
1503.199999988079,,pt2_memorable_rating,1393790,Highvale,,50,,,2,,,,,
null,,confidence_buffer,1393891,confidence_buffer,,null,,,,,,,,
3744.4000000059605,,recognition_phase,1397636,Highvale,,52,,,,,,new,1,0.7906976744186046
null,,confidence_buffer,1397738,confidence_buffer,,null,,,,,,,,
null,,thebreak,1398239,break,,null,,,,,,,,
4050,,realistic_rating,1402290,Duck,,49,Duck,US,1,,,,,
null,,confidence_buffer,1402392,confidence_buffer,,null,,,,,,,,
2829.2000000178814,,probe_rating,1405222,probe_rating,,53,,,,5,1,,,
null,,confidence_buffer,1405325,confidence_buffer,,null,,,,,,,,
7059.699999988079,,pt2_unique_rating,1412385,Duck,,51,,,3,,,,,
null,,confidence_buffer,1412487,confidence_buffer,,null,,,,,,,,
5512.9000000059605,,pt2_memorable_rating,1418000,Duck,,51,,,3,,,,,
null,,confidence_buffer,1418101,confidence_buffer,,null,,,,,,,,
4719.399999976158,,recognition_phase,1422821,Duck,,52,,,,,,new,1,0.7954545454545454
null,,confidence_buffer,1422923,confidence_buffer,,null,,,,,,,,
null,,thebreak,1423425,break,,null,,,,,,,,
17338.29999998212,,realistic_rating,1440764,Albuquerque,,53,Albuquerque,US,5,,,,,
null,,confidence_buffer,1440865,confidence_buffer,,null,,,,,,,,
2252.9000000059605,,pt2_unique_rating,1443119,Albuquerque,,53,,,5,,,,,
null,,confidence_buffer,1443221,confidence_buffer,,null,,,,,,,,
1881.5,,pt2_memorable_rating,1445103,Albuquerque,,53,,,5,,,,,
null,,confidence_buffer,1445204,confidence_buffer,,null,,,,,,,,
3552.9000000059605,,recognition_phase,1448758,Albuquerque,,52,,,,,,new,1,0.8
null,,confidence_buffer,1448860,confidence_buffer,,null,,,,,,,,
null,,thebreak,1449361,break,,null,,,,,,,,
16010.59999999404,,realistic_rating,1465373,Driftwood Bay,,51,Driftwood Bay,Fictional,3,,,,,
null,,confidence_buffer,1465475,confidence_buffer,,null,,,,,,,,
14971.800000011921,,pt2_unique_rating,1480447,Driftwood Bay,,52,,,4,,,,,
null,,confidence_buffer,1480549,confidence_buffer,,null,,,,,,,,
1681.5999999940395,,pt2_memorable_rating,1482231,Driftwood Bay,,52,,,4,,,,,
null,,confidence_buffer,1482332,confidence_buffer,,null,,,,,,,,
3247.4000000059605,,recognition_phase,1485580,Driftwood Bay,,52,,,,,,new,1,0.8043478260869565
null,,confidence_buffer,1485681,confidence_buffer,,null,,,,,,,,
null,,thebreak,1486183,break,,null,,,,,,,,
4002.9000000059605,,realistic_rating,1490186,Elmsbury,,50,Elmsbury,Fictional,2,,,,,
null,,confidence_buffer,1490288,confidence_buffer,,null,,,,,,,,
3533.699999988079,,pt2_unique_rating,1493822,Elmsbury,,50,,,2,,,,,
null,,confidence_buffer,1493938,confidence_buffer,,null,,,,,,,,
1854.4000000059605,,pt2_memorable_rating,1495793,Elmsbury,,50,,,2,,,,,
null,,confidence_buffer,1495894,confidence_buffer,,null,,,,,,,,
2679.5,,recognition_phase,1498574,Elmsbury,,52,,,,,,new,1,0.8085106382978723
null,,confidence_buffer,1498676,confidence_buffer,,null,,,,,,,,
null,,thebreak,1499177,break,,null,,,,,,,,
4298.300000011921,,realistic_rating,1503476,Riverlyn,,50,Riverlyn,Fictional,2,,,,,
null,,confidence_buffer,1503578,confidence_buffer,,null,,,,,,,,
1505.7000000178814,,pt2_unique_rating,1505085,Riverlyn,,50,,,2,,,,,
null,,confidence_buffer,1505186,confidence_buffer,,null,,,,,,,,
2887.5999999940395,,pt2_memorable_rating,1508075,Riverlyn,,49,,,1,,,,,
null,,confidence_buffer,1508176,confidence_buffer,,null,,,,,,,,
3546.9000000059605,,recognition_phase,1511724,Riverlyn,,52,,,,,,new,1,0.8125
null,,confidence_buffer,1511825,confidence_buffer,,null,,,,,,,,
null,,thebreak,1512326,break,,null,,,,,,,,
5180.199999988079,,realistic_rating,1517507,Sammamish,,50,Sammamish,US,2,,,,,
null,,confidence_buffer,1517607,confidence_buffer,,null,,,,,,,,
3622.300000011921,,pt2_unique_rating,1521231,Sammamish,,50,,,2,,,,,
null,,confidence_buffer,1521341,confidence_buffer,,null,,,,,,,,
3240.0999999940395,,pt2_memorable_rating,1524582,Sammamish,,51,,,3,,,,,
null,,confidence_buffer,1524683,confidence_buffer,,null,,,,,,,,
2092.199999988079,,recognition_phase,1526776,Sammamish,,52,,,,,,new,1,0.8163265306122449
null,,confidence_buffer,1526878,confidence_buffer,,null,,,,,,,,
null,,thebreak,1527379,break,,null,,,,,,,,
5005.300000011921,,realistic_rating,1532385,Millstone,,51,Millstone,Fictional,3,,,,,
null,,confidence_buffer,1532486,confidence_buffer,,null,,,,,,,,
4792.200000017881,,pt2_unique_rating,1537279,Millstone,,51,,,3,,,,,
null,,confidence_buffer,1537380,confidence_buffer,,null,,,,,,,,
4808.800000011921,,pt2_memorable_rating,1542190,Millstone,,51,,,3,,,,,
null,,confidence_buffer,1542291,confidence_buffer,,null,,,,,,,,
3102.9000000059605,,recognition_phase,1545395,Millstone,,52,,,,,,new,0,0.8
null,,confidence_buffer,1545497,confidence_buffer,,null,,,,,,,,
null,,thebreak,1545998,break,,null,,,,,,,,
3024,,realistic_rating,1549023,Athens,,52,Athens,US,4,,,,,
null,,confidence_buffer,1549125,confidence_buffer,,null,,,,,,,,
2914.9000000059605,,probe_rating,1552041,probe_rating,,50,,,,2,1,,,
null,,confidence_buffer,1552143,confidence_buffer,,null,,,,,,,,
4790.699999988079,,pt2_unique_rating,1556934,Athens,,52,,,4,,,,,
null,,confidence_buffer,1557035,confidence_buffer,,null,,,,,,,,
3252.2999999821186,,pt2_memorable_rating,1560288,Athens,,52,,,4,,,,,
null,,confidence_buffer,1560390,confidence_buffer,,null,,,,,,,,
3387.4000000059605,,recognition_phase,1563779,Athens,,52,,,,,,new,1,0.803921568627451
null,,confidence_buffer,1563880,confidence_buffer,,null,,,,,,,,
null,,thebreak,1564380,break,,null,,,,,,,,
7230.100000023842,,realistic_rating,1571611,Huntsville,,53,Huntsville,US,5,,,,,
null,,confidence_buffer,1571712,confidence_buffer,,null,,,,,,,,
3652.5999999940395,,pt2_unique_rating,1575366,Huntsville,,52,,,4,,,,,
null,,confidence_buffer,1575466,confidence_buffer,,null,,,,,,,,
2107.5999999940395,,pt2_memorable_rating,1577575,Huntsville,,52,,,4,,,,,
null,,confidence_buffer,1577676,confidence_buffer,,null,,,,,,,,
2619.100000023842,,recognition_phase,1580295,Huntsville,,52,,,,,,new,0,0.7884615384615384
null,,confidence_buffer,1580397,confidence_buffer,,null,,,,,,,,
null,,thebreak,1580899,break,,null,,,,,,,,
3438.9000000059605,,realistic_rating,1584338,Bar Harbor,,51,Bar Harbor,US,3,,,,,
null,,confidence_buffer,1584441,confidence_buffer,,null,,,,,,,,
2628.399999976158,,probe_rating,1587070,probe_rating,,52,,,,4,1,,,
null,,confidence_buffer,1587172,confidence_buffer,,null,,,,,,,,
5226.0999999940395,,pt2_unique_rating,1592399,Bar Harbor,,52,,,4,,,,,
null,,confidence_buffer,1592500,confidence_buffer,,null,,,,,,,,
2375.7999999821186,,pt2_memorable_rating,1594877,Bar Harbor,,52,,,4,,,,,
null,,confidence_buffer,1594978,confidence_buffer,,null,,,,,,,,
2488.5,,recognition_phase,1597467,Bar Harbor,,52,,,,,,new,0,0.7735849056603774
null,,confidence_buffer,1597569,confidence_buffer,,null,,,,,,,,
null,,thebreak,1598070,break,,null,,,,,,,,
2629.9000000059605,,realistic_rating,1600701,Livingston,,50,Livingston,US,2,,,,,
null,,confidence_buffer,1600802,confidence_buffer,,null,,,,,,,,
1125,,pt2_unique_rating,1601928,Livingston,,50,,,2,,,,,
null,,confidence_buffer,1602030,confidence_buffer,,null,,,,,,,,
1300.699999988079,,pt2_memorable_rating,1603331,Livingston,,50,,,2,,,,,
null,,confidence_buffer,1603443,confidence_buffer,,null,,,,,,,,
2542.4000000059605,,recognition_phase,1605986,Livingston,,52,,,,,,new,1,0.7777777777777778
null,,confidence_buffer,1606088,confidence_buffer,,null,,,,,,,,
null,,thebreak,1606590,break,,null,,,,,,,,
4748.699999988079,,realistic_rating,1611339,Clearbrook,,51,Clearbrook,Fictional,3,,,,,
null,,confidence_buffer,1611442,confidence_buffer,,null,,,,,,,,
3599.5999999940395,,pt2_unique_rating,1615043,Clearbrook,,50,,,2,,,,,
null,,confidence_buffer,1615144,confidence_buffer,,null,,,,,,,,
1637.4000000059605,,pt2_memorable_rating,1616782,Clearbrook,,50,,,2,,,,,
null,,confidence_buffer,1616886,confidence_buffer,,null,,,,,,,,
2529.699999988079,,recognition_phase,1619417,Clearbrook,,52,,,,,,new,0,0.7636363636363637
null,,confidence_buffer,1619518,confidence_buffer,,null,,,,,,,,
null,,thebreak,1620020,break,,null,,,,,,,,
6670,,realistic_rating,1626691,Maplehurst,,51,Maplehurst,Fictional,3,,,,,
null,,confidence_buffer,1626794,confidence_buffer,,null,,,,,,,,
3609,,pt2_unique_rating,1630404,Maplehurst,,50,,,2,,,,,
null,,confidence_buffer,1630505,confidence_buffer,,null,,,,,,,,
1490.2000000178814,,pt2_memorable_rating,1631996,Maplehurst,,50,,,2,,,,,
null,,confidence_buffer,1632098,confidence_buffer,,null,,,,,,,,
2656.800000011921,,recognition_phase,1634756,Maplehurst,,52,,,,,,new,1,0.7678571428571429
null,,confidence_buffer,1634858,confidence_buffer,,null,,,,,,,,
null,,thebreak,1635358,break,,null,,,,,,,,
25543.5,,realistic_rating,1660903,Sunmere,,51,Sunmere,Fictional,3,,,,,
null,,confidence_buffer,1661005,confidence_buffer,,null,,,,,,,,
3979.5999999940395,,pt2_unique_rating,1664985,Sunmere,,51,,,3,,,,,
null,,confidence_buffer,1665086,confidence_buffer,,null,,,,,,,,
2604.699999988079,,pt2_memorable_rating,1667692,Sunmere,,50,,,2,,,,,
null,,confidence_buffer,1667793,confidence_buffer,,null,,,,,,,,
2249.699999988079,,recognition_phase,1670043,Sunmere,,52,,,,,,new,0,0.7543859649122807
null,,confidence_buffer,1670144,confidence_buffer,,null,,,,,,,,
null,,thebreak,1670646,break,,null,,,,,,,,
57365.90000000596,,realistic_rating,1728012,Meadowspire,,50,Meadowspire,Fictional,2,,,,,
null,,confidence_buffer,1728115,confidence_buffer,,null,,,,,,,,
3869.300000011921,,pt2_unique_rating,1731984,Meadowspire,,51,,,3,,,,,
null,,confidence_buffer,1732086,confidence_buffer,,null,,,,,,,,
3575.100000023842,,pt2_memorable_rating,1735661,Meadowspire,,50,,,2,,,,,
null,,confidence_buffer,1735762,confidence_buffer,,null,,,,,,,,
2294.199999988079,,recognition_phase,1738057,Meadowspire,,52,,,,,,new,0,0.7413793103448276
null,,confidence_buffer,1738159,confidence_buffer,,null,,,,,,,,
null,,thebreak,1738660,break,,null,,,,,,,,
2759.300000011921,,realistic_rating,1741420,Westridge,,51,Westridge,Fictional,3,,,,,
null,,confidence_buffer,1741522,confidence_buffer,,null,,,,,,,,
3151.399999976158,,probe_rating,1744674,probe_rating,,50,,,,2,1,,,
null,,confidence_buffer,1744775,confidence_buffer,,null,,,,,,,,
4516.699999988079,,pt2_unique_rating,1749293,Westridge,,50,,,2,,,,,
null,,confidence_buffer,1749394,confidence_buffer,,null,,,,,,,,
1515.9000000059605,,pt2_memorable_rating,1750911,Westridge,,50,,,2,,,,,
null,,confidence_buffer,1751014,confidence_buffer,,null,,,,,,,,
2271.0999999940395,,recognition_phase,1753286,Westridge,,52,,,,,,new,1,0.7457627118644068
null,,confidence_buffer,1753388,confidence_buffer,,null,,,,,,,,
null,,thebreak,1753898,break,,null,,,,,,,,
5520.5,,realistic_rating,1759419,Hawthorne Bluffs,,51,Hawthorne Bluffs,Fictional,3,,,,,
null,,confidence_buffer,1759522,confidence_buffer,,null,,,,,,,,
1692.4000000059605,,pt2_unique_rating,1761215,Hawthorne Bluffs,,51,,,3,,,,,
null,,confidence_buffer,1761316,confidence_buffer,,null,,,,,,,,
3047.7000000178814,,pt2_memorable_rating,1764365,Hawthorne Bluffs,,50,,,2,,,,,
null,,confidence_buffer,1764467,confidence_buffer,,null,,,,,,,,
1959.1000000238419,,recognition_phase,1766426,Hawthorne Bluffs,,52,,,,,,new,1,0.75
null,,confidence_buffer,1766528,confidence_buffer,,null,,,,,,,,
null,,thebreak,1767030,break,,null,,,,,,,,
