rt,responses,trial_type,time_elapsed,stimulus,button_pressed,key_press,name_trial,rating,probe,probe_accuracy,response,correct,accuracy,confidence,detectfocus,warning
77287.5,{worker_id:6702ebdec4a64e7153741612},id_enter,77291,,,,,,,,,,,,,
2722.5,,fullscreen,80017,fullscreen,0,,,,,,,,,,,
10721.300000011921,,intro_0,90742,instruct,,32,,,,,,,,,,
9948.200000047684,,intro_1,100692,instruct,,32,,,,,,,,,,
9471.300000011921,,intro_2,110164,instruct,,32,,,,,,,,,,
null,,instruct_dir_4,111668,instruct,,null,,,,,,,,,,
null,,thebreak,112173,break,,null,,,,,,,,,,
4738.899999976158,,familiar_rating,116914,familiar_rating,,51,Manistee,3,,,,,,,,
null,,confidence_buffer,117022,confidence_buffer,,null,,,,,,,,,,
33287.69999998808,,unique_rating,150311,unique_rating,,49,,1,,,,,,,,
null,,confidence_buffer,150430,confidence_buffer,,null,,,,,,,,,,
3165.300000011921,,memorable_rating,153597,memorable_rating,,49,,1,,,,,,,,
null,,confidence_buffer,153707,confidence_buffer,,null,,,,,,,,,,
null,,thebreak,154210,break,,null,,,,,,,,,,
19799,,familiar_rating,174012,familiar_rating,,52,Hanover,4,,,,,,,,
null,,confidence_buffer,174121,confidence_buffer,,null,,,,,,,,,,
7572.899999976158,,unique_rating,181696,unique_rating,,51,,3,,,,,,,,
null,,confidence_buffer,181802,confidence_buffer,,null,,,,,,,,,,
6359.800000011921,,memorable_rating,188163,memorable_rating,,52,,4,,,,,,,,
null,,confidence_buffer,188267,confidence_buffer,,null,,,,,,,,,,
6506,,probe_rating,194775,probe_rating,,53,,,5,1,,,,,,
null,,confidence_buffer,194886,confidence_buffer,,null,,,,,,,,,,
null,,thebreak,195395,break,,null,,,,,,,,,,
14284.600000023842,,familiar_rating,209681,familiar_rating,,53,Sammamish,5,,,,,,,,
null,,confidence_buffer,209788,confidence_buffer,,null,,,,,,,,,,
1471.300000011921,,unique_rating,211261,unique_rating,,53,,5,,,,,,,,
null,,confidence_buffer,211365,confidence_buffer,,null,,,,,,,,,,
3619,,memorable_rating,214985,memorable_rating,,53,,5,,,,,,,,
null,,confidence_buffer,215090,confidence_buffer,,null,,,,,,,,,,
7825.700000047684,,probe_rating,222918,probe_rating,,51,,,3,1,,,,,,
null,,confidence_buffer,223032,confidence_buffer,,null,,,,,,,,,,
null,,thebreak,223535,break,,null,,,,,,,,,,
21505.5,,familiar_rating,245042,familiar_rating,,49,Falconridge,1,,,,,,,,
null,,confidence_buffer,245153,confidence_buffer,,null,,,,,,,,,,
4355,,unique_rating,249509,unique_rating,,49,,1,,,,,,,,
null,,confidence_buffer,249623,confidence_buffer,,null,,,,,,,,,,
1617.8999999761581,,probe_rating,251242,probe_rating,,50,,,2,1,,,,,,
null,,confidence_buffer,251352,confidence_buffer,,null,,,,,,,,,,
4163.099999964237,,memorable_rating,255517,memorable_rating,,49,,1,,,,,,,,
null,,confidence_buffer,255620,confidence_buffer,,null,,,,,,,,,,
null,,thebreak,256130,break,,null,,,,,,,,,,
11808.600000023842,,familiar_rating,267940,familiar_rating,,52,Montelake,4,,,,,,,,
null,,confidence_buffer,268047,confidence_buffer,,null,,,,,,,,,,
1701.699999988079,,unique_rating,269751,unique_rating,,52,,4,,,,,,,,
null,,confidence_buffer,269855,confidence_buffer,,null,,,,,,,,,,
3519.600000023842,,memorable_rating,273377,memorable_rating,,51,,3,,,,,,,,
null,,confidence_buffer,273495,confidence_buffer,,null,,,,,,,,,,
null,,thebreak,273998,break,,null,,,,,,,,,,
18725.299999952316,,familiar_rating,292725,familiar_rating,,50,Delaro Park,2,,,,,,,,
null,,confidence_buffer,292843,confidence_buffer,,null,,,,,,,,,,
3968.7999999523163,,probe_rating,296813,probe_rating,,51,,,3,1,,,,,,
null,,confidence_buffer,296925,confidence_buffer,,null,,,,,,,,,,
4174.599999964237,,unique_rating,301101,unique_rating,,51,,3,,,,,,,,
null,,confidence_buffer,301208,confidence_buffer,,null,,,,,,,,,,
3687.600000023842,,memorable_rating,304897,memorable_rating,,50,,2,,,,,,,,
null,,confidence_buffer,305005,confidence_buffer,,null,,,,,,,,,,
null,,thebreak,305513,break,,null,,,,,,,,,,
18944.899999976158,,familiar_rating,324459,familiar_rating,,49,Okoboji,1,,,,,,,,
null,,confidence_buffer,324569,confidence_buffer,,null,,,,,,,,,,
3318.699999988079,,probe_rating,327889,probe_rating,,51,,,3,1,,,,,,
null,,confidence_buffer,327998,confidence_buffer,,null,,,,,,,,,,
1598.300000011921,,unique_rating,329598,unique_rating,,49,,1,,,,,,,,
null,,confidence_buffer,329715,confidence_buffer,,null,,,,,,,,,,
1058.5999999642372,,memorable_rating,330775,memorable_rating,,49,,1,,,,,,,,
null,,confidence_buffer,330877,confidence_buffer,,null,,,,,,,,,,
null,,thebreak,331381,break,,null,,,,,,,,,,
15690.599999964237,,familiar_rating,347074,familiar_rating,,53,Bowling Green,5,,,,,,,,
null,,confidence_buffer,347182,confidence_buffer,,null,,,,,,,,,,
3803.099999964237,,unique_rating,350987,unique_rating,,52,,4,,,,,,,,
null,,confidence_buffer,351095,confidence_buffer,,null,,,,,,,,,,
3004.899999976158,,memorable_rating,354101,memorable_rating,,53,,5,,,,,,,,
null,,confidence_buffer,354220,confidence_buffer,,null,,,,,,,,,,
null,,thebreak,354738,break,,null,,,,,,,,,,
15709.899999976158,,familiar_rating,370450,familiar_rating,,49,Sunmere,1,,,,,,,,
null,,confidence_buffer,370556,confidence_buffer,,null,,,,,,,,,,
1933.6000000238419,,unique_rating,372492,unique_rating,,49,,1,,,,,,,,
null,,confidence_buffer,372610,confidence_buffer,,null,,,,,,,,,,
1858.5,,memorable_rating,374470,memorable_rating,,49,,1,,,,,,,,
null,,confidence_buffer,374585,confidence_buffer,,null,,,,,,,,,,
null,,thebreak,375087,break,,null,,,,,,,,,,
28279.899999976158,,familiar_rating,403368,familiar_rating,,51,Bar Harbor,3,,,,,,,,
null,,confidence_buffer,403473,confidence_buffer,,null,,,,,,,,,,
1478.800000011921,,unique_rating,404953,unique_rating,,50,,2,,,,,,,,
null,,confidence_buffer,405062,confidence_buffer,,null,,,,,,,,,,
1104.6000000238419,,memorable_rating,406168,memorable_rating,,51,,3,,,,,,,,
null,,confidence_buffer,406270,confidence_buffer,,null,,,,,,,,,,
null,,thebreak,406776,break,,null,,,,,,,,,,
17607.899999976158,,familiar_rating,424386,familiar_rating,,53,Berkeley Springs,5,,,,,,,,
null,,confidence_buffer,424489,confidence_buffer,,null,,,,,,,,,,
2322.7999999523163,,unique_rating,426813,unique_rating,,53,,5,,,,,,,,
null,,confidence_buffer,426922,confidence_buffer,,null,,,,,,,,,,
1972.699999988079,,memorable_rating,428896,memorable_rating,,53,,5,,,,,,,,
null,,confidence_buffer,429006,confidence_buffer,,null,,,,,,,,,,
null,,thebreak,429515,break,,null,,,,,,,,,,
14211.800000011921,,familiar_rating,443729,familiar_rating,,53,Athens,5,,,,,,,,
null,,confidence_buffer,443844,confidence_buffer,,null,,,,,,,,,,
4539.099999964237,,probe_rating,448385,probe_rating,,52,,,4,1,,,,,,
null,,confidence_buffer,448499,confidence_buffer,,null,,,,,,,,,,
1936.300000011921,,unique_rating,450437,unique_rating,,53,,5,,,,,,,,
null,,confidence_buffer,450548,confidence_buffer,,null,,,,,,,,,,
1158.5999999642372,,memorable_rating,451709,memorable_rating,,53,,5,,,,,,,,
null,,confidence_buffer,451813,confidence_buffer,,null,,,,,,,,,,
null,,thebreak,452324,break,,null,,,,,,,,,,
15831.899999976158,,familiar_rating,468157,familiar_rating,,50,Millstone,2,,,,,,,,
null,,confidence_buffer,468268,confidence_buffer,,null,,,,,,,,,,
1448.199999988079,,unique_rating,469718,unique_rating,,50,,2,,,,,,,,
null,,confidence_buffer,469832,confidence_buffer,,null,,,,,,,,,,
1961.9000000357628,,memorable_rating,471796,memorable_rating,,50,,2,,,,,,,,
null,,confidence_buffer,471898,confidence_buffer,,null,,,,,,,,,,
null,,thebreak,472401,break,,null,,,,,,,,,,
20089.899999976158,,familiar_rating,492493,familiar_rating,,50,Cape May,2,,,,,,,,
null,,confidence_buffer,492602,confidence_buffer,,null,,,,,,,,,,
4076.600000023842,,unique_rating,496681,unique_rating,,49,,1,,,,,,,,
null,,confidence_buffer,496792,confidence_buffer,,null,,,,,,,,,,
1359.4000000357628,,memorable_rating,498153,memorable_rating,,50,,2,,,,,,,,
null,,confidence_buffer,498257,confidence_buffer,,null,,,,,,,,,,
null,,thebreak,498772,break,,null,,,,,,,,,,
12661.899999976158,,familiar_rating,511435,familiar_rating,,53,Park City,5,,,,,,,,
null,,confidence_buffer,511541,confidence_buffer,,null,,,,,,,,,,
728.3000000119209,,unique_rating,512271,unique_rating,,52,,4,,,,,,,,
null,,confidence_buffer,512376,confidence_buffer,,null,,,,,,,,,,
1673.2999999523163,,memorable_rating,514050,memorable_rating,,52,,4,,,,,,,,
null,,confidence_buffer,514155,confidence_buffer,,null,,,,,,,,,,
null,,thebreak,514658,break,,null,,,,,,,,,,
10350.300000011921,,familiar_rating,525010,familiar_rating,,49,Cody,1,,,,,,,,
null,,confidence_buffer,525118,confidence_buffer,,null,,,,,,,,,,
1093.699999988079,,unique_rating,526213,unique_rating,,49,,1,,,,,,,,
null,,confidence_buffer,526332,confidence_buffer,,null,,,,,,,,,,
1501.800000011921,,memorable_rating,527834,memorable_rating,,49,,1,,,,,,,,
null,,confidence_buffer,527945,confidence_buffer,,null,,,,,,,,,,
null,,thebreak,528448,break,,null,,,,,,,,,,
22774.19999998808,,familiar_rating,551225,familiar_rating,,51,Healdsburg,3,,,,,,,,
null,,confidence_buffer,551327,confidence_buffer,,null,,,,,,,,,,
1027.300000011921,,unique_rating,552356,unique_rating,,51,,3,,,,,,,,
null,,confidence_buffer,552471,confidence_buffer,,null,,,,,,,,,,
751.0999999642372,,memorable_rating,553224,memorable_rating,,52,,4,,,,,,,,
null,,confidence_buffer,553335,confidence_buffer,,null,,,,,,,,,,
null,,thebreak,553842,break,,null,,,,,,,,,,
9654.5,,familiar_rating,563498,familiar_rating,,49,Redgrove,1,,,,,,,,
null,,confidence_buffer,563612,confidence_buffer,,null,,,,,,,,,,
2295.800000011921,,unique_rating,565909,unique_rating,,49,,1,,,,,,,,
null,,confidence_buffer,566012,confidence_buffer,,null,,,,,,,,,,
2610.199999988079,,memorable_rating,568624,memorable_rating,,49,,1,,,,,,,,
null,,confidence_buffer,568742,confidence_buffer,,null,,,,,,,,,,
null,,thebreak,569243,break,,null,,,,,,,,,,
19867.5,,familiar_rating,589113,familiar_rating,,53,Lake of the Ozarks,5,,,,,,,,
null,,confidence_buffer,589225,confidence_buffer,,null,,,,,,,,,,
4923.699999988079,,unique_rating,594151,unique_rating,,53,,5,,,,,,,,
null,,confidence_buffer,594268,confidence_buffer,,null,,,,,,,,,,
1620.4000000357628,,memorable_rating,595890,memorable_rating,,53,,5,,,,,,,,
null,,confidence_buffer,596003,confidence_buffer,,null,,,,,,,,,,
null,,thebreak,596506,break,,null,,,,,,,,,,
16222.5,,familiar_rating,612730,familiar_rating,,52,Lakehaven,4,,,,,,,,
null,,confidence_buffer,612843,confidence_buffer,,null,,,,,,,,,,
2311.7000000476837,,unique_rating,615157,unique_rating,,51,,3,,,,,,,,
null,,confidence_buffer,615268,confidence_buffer,,null,,,,,,,,,,
974,,memorable_rating,616243,memorable_rating,,51,,3,,,,,,,,
null,,confidence_buffer,616358,confidence_buffer,,null,,,,,,,,,,
null,,thebreak,616868,break,,null,,,,,,,,,,
18608.899999976158,,familiar_rating,635479,familiar_rating,,50,Westridge,2,,,,,,,,
null,,confidence_buffer,635588,confidence_buffer,,null,,,,,,,,,,
3201.599999964237,,unique_rating,638792,unique_rating,,50,,2,,,,,,,,
null,,confidence_buffer,638902,confidence_buffer,,null,,,,,,,,,,
2837.099999964237,,memorable_rating,641740,memorable_rating,,50,,2,,,,,,,,
null,,confidence_buffer,641845,confidence_buffer,,null,,,,,,,,,,
null,,thebreak,642361,break,,null,,,,,,,,,,
14173.400000035763,,familiar_rating,656536,familiar_rating,,49,Solara Glen,1,,,,,,,,
null,,confidence_buffer,656653,confidence_buffer,,null,,,,,,,,,,
959.8000000119209,,unique_rating,657614,unique_rating,,49,,1,,,,,,,,
null,,confidence_buffer,657718,confidence_buffer,,null,,,,,,,,,,
992.1000000238419,,memorable_rating,658712,memorable_rating,,49,,1,,,,,,,,
null,,confidence_buffer,658825,confidence_buffer,,null,,,,,,,,,,
null,,thebreak,659330,break,,null,,,,,,,,,,
12180.599999964237,,familiar_rating,671512,familiar_rating,,49,New Verdan,1,,,,,,,,
null,,confidence_buffer,671617,confidence_buffer,,null,,,,,,,,,,
1839.5,,unique_rating,673458,unique_rating,,49,,1,,,,,,,,
null,,confidence_buffer,673575,confidence_buffer,,null,,,,,,,,,,
1853.3999999761581,,memorable_rating,675430,memorable_rating,,49,,1,,,,,,,,
null,,confidence_buffer,675546,confidence_buffer,,null,,,,,,,,,,
null,,thebreak,676055,break,,null,,,,,,,,,,
19869.30000001192,,familiar_rating,695926,familiar_rating,,49,West Talora,1,,,,,,,,
null,,confidence_buffer,696042,confidence_buffer,,null,,,,,,,,,,
1248,,unique_rating,697291,unique_rating,,49,,1,,,,,,,,
null,,confidence_buffer,697394,confidence_buffer,,null,,,,,,,,,,
901.2999999523163,,memorable_rating,698297,memorable_rating,,49,,1,,,,,,,,
null,,confidence_buffer,698403,confidence_buffer,,null,,,,,,,,,,
null,,thebreak,698907,break,,null,,,,,,,,,,
13303.800000011921,,familiar_rating,712213,familiar_rating,,51,Sierra Hollow,3,,,,,,,,
null,,confidence_buffer,712320,confidence_buffer,,null,,,,,,,,,,
2124.600000023842,,unique_rating,714446,unique_rating,,52,,4,,,,,,,,
null,,confidence_buffer,714555,confidence_buffer,,null,,,,,,,,,,
3847,,memorable_rating,718404,memorable_rating,,50,,2,,,,,,,,
null,,confidence_buffer,718515,confidence_buffer,,null,,,,,,,,,,
null,,thebreak,719018,break,,null,,,,,,,,,,
16760.5,,familiar_rating,735780,familiar_rating,,49,Yukon,1,,,,,,,,
null,,confidence_buffer,735886,confidence_buffer,,null,,,,,,,,,,
2136.900000035763,,probe_rating,738024,probe_rating,,49,,,1,1,,,,,,
null,,confidence_buffer,738134,confidence_buffer,,null,,,,,,,,,,
864.0999999642372,,unique_rating,739000,unique_rating,,50,,2,,,,,,,,
null,,confidence_buffer,739112,confidence_buffer,,null,,,,,,,,,,
1151.4000000357628,,memorable_rating,740264,memorable_rating,,50,,2,,,,,,,,
null,,confidence_buffer,740373,confidence_buffer,,null,,,,,,,,,,
null,,thebreak,740882,break,,null,,,,,,,,,,
3791.800000011921,,familiar_rating,744676,familiar_rating,,49,Elmsbury,1,,,,,,,,
null,,confidence_buffer,744780,confidence_buffer,,null,,,,,,,,,,
1040.6000000238419,,unique_rating,745823,unique_rating,,49,,1,,,,,,,,
null,,confidence_buffer,745929,confidence_buffer,,null,,,,,,,,,,
1478.300000011921,,memorable_rating,747409,memorable_rating,,49,,1,,,,,,,,
null,,confidence_buffer,747511,confidence_buffer,,null,,,,,,,,,,
null,,thebreak,748015,break,,null,,,,,,,,,,
10766.300000011921,,familiar_rating,758783,familiar_rating,,49,Custer,1,,,,,,,,
null,,confidence_buffer,758887,confidence_buffer,,null,,,,,,,,,,
1046.0999999642372,,unique_rating,759934,unique_rating,,49,,1,,,,,,,,
null,,confidence_buffer,760045,confidence_buffer,,null,,,,,,,,,,
885.4000000357628,,memorable_rating,760932,memorable_rating,,49,,1,,,,,,,,
null,,confidence_buffer,761045,confidence_buffer,,null,,,,,,,,,,
null,,thebreak,761562,break,,null,,,,,,,,,,
23307.600000023842,,familiar_rating,784871,familiar_rating,,49,Bayshore Haven,1,,,,,,,,
null,,confidence_buffer,784982,confidence_buffer,,null,,,,,,,,,,
778.8000000119209,,unique_rating,785762,unique_rating,,50,,2,,,,,,,,
null,,confidence_buffer,785872,confidence_buffer,,null,,,,,,,,,,
2158.2000000476837,,probe_rating,788032,probe_rating,,52,,,4,0,,,,,,
null,,confidence_buffer,788137,confidence_buffer,,null,,,,,,,,,,
3131.600000023842,,memorable_rating,791271,memorable_rating,,49,,1,,,,,,,,
null,,confidence_buffer,791378,confidence_buffer,,null,,,,,,,,,,
null,,thebreak,791880,break,,null,,,,,,,,,,
26385,,familiar_rating,818267,familiar_rating,,52,Baymarsh,4,,,,,,,,
null,,confidence_buffer,818374,confidence_buffer,,null,,,,,,,,,,
1453.2999999523163,,unique_rating,819828,unique_rating,,52,,4,,,,,,,,
null,,confidence_buffer,819941,confidence_buffer,,null,,,,,,,,,,
854.6000000238419,,memorable_rating,820797,memorable_rating,,51,,3,,,,,,,,
null,,confidence_buffer,820904,confidence_buffer,,null,,,,,,,,,,
null,,thebreak,821410,break,,null,,,,,,,,,,
6890.5,,intro_0,828302,instruct,,32,,,,,,,,,,
12115.599999964237,,intro_1,840419,instruct,,32,,,,,,,,,,
10129.299999952316,,intro_2,850549,instruct,,32,,,,,,,,,,
null,,instruct_dir_4,852064,instruct,,null,,,,,,,,,,
33380.69999998808,,realistic_rating,885447,realistic_rating,,52,Hilo,4,,,,,,,,
null,,confidence_buffer,885565,confidence_buffer,,null,,,,,,,,,,
10253.5,,pt2_unique_rating,895820,pt2_unique_rating,,51,,3,,,,,,,,
null,,confidence_buffer,895935,confidence_buffer,,null,,,,,,,,,,
4668.300000011921,,pt2_memorable_rating,900605,pt2_memorable_rating,,50,,2,,,,,,,,
null,,confidence_buffer,900708,confidence_buffer,,null,,,,,,,,,,
7123.199999988079,,recognition_phase,907833,recognition_phase,,50,,,,,new,1,1,,,
null,,confidence_buffer,907946,confidence_buffer,,null,,,,,,,,,,
4522.399999976158,,confidence,912469,confidence,,52,,,,,,,,4,,
null,,confidence_buffer,912584,confidence_buffer,,null,,,,,,,,,,
null,,thebreak,913089,break,,null,,,,,,,,,,
6797.599999964237,,realistic_rating,919888,realistic_rating,,52,Elmsbury,4,,,,,,,,
null,,confidence_buffer,920005,confidence_buffer,,null,,,,,,,,,,
2176.5,,pt2_unique_rating,922183,pt2_unique_rating,,52,,4,,,,,,,,
null,,confidence_buffer,922291,confidence_buffer,,null,,,,,,,,,,
3304.800000011921,,pt2_memorable_rating,925597,pt2_memorable_rating,,51,,3,,,,,,,,
null,,confidence_buffer,925699,confidence_buffer,,null,,,,,,,,,,
3523,,recognition_phase,929223,recognition_phase,,49,,,,,old,1,1,,,
null,,confidence_buffer,929335,confidence_buffer,,null,,,,,,,,,,
3088.5,,confidence,932424,confidence,,52,,,,,,,,4,,
null,,confidence_buffer,932542,confidence_buffer,,null,,,,,,,,,,
null,,thebreak,933049,break,,null,,,,,,,,,,
5646.5,,realistic_rating,938697,realistic_rating,,49,Boulder,1,,,,,,,,
null,,confidence_buffer,938807,confidence_buffer,,null,,,,,,,,,,
3856.199999988079,,pt2_unique_rating,942665,pt2_unique_rating,,49,,1,,,,,,,,
null,,confidence_buffer,942774,confidence_buffer,,null,,,,,,,,,,
1365.6000000238419,,pt2_memorable_rating,944140,pt2_memorable_rating,,49,,1,,,,,,,,
null,,confidence_buffer,944243,confidence_buffer,,null,,,,,,,,,,
2064,,recognition_phase,946308,recognition_phase,,50,,,,,new,1,1,,,
null,,confidence_buffer,946416,confidence_buffer,,null,,,,,,,,,,
2685.599999964237,,confidence,949103,confidence,,52,,,,,,,,4,,
null,,confidence_buffer,949205,confidence_buffer,,null,,,,,,,,,,
null,,thebreak,949708,break,,null,,,,,,,,,,
5946.400000035763,,realistic_rating,955656,realistic_rating,,53,Westridge,5,,,,,,,,
null,,confidence_buffer,955766,confidence_buffer,,null,,,,,,,,,,
3847.399999976158,,pt2_unique_rating,959615,pt2_unique_rating,,52,,4,,,,,,,,
null,,confidence_buffer,959725,confidence_buffer,,null,,,,,,,,,,
2227.300000011921,,pt2_memorable_rating,961954,pt2_memorable_rating,,52,,4,,,,,,,,
null,,confidence_buffer,962071,confidence_buffer,,null,,,,,,,,,,
2001.699999988079,,recognition_phase,964074,recognition_phase,,49,,,,,old,1,1,,,
null,,confidence_buffer,964177,confidence_buffer,,null,,,,,,,,,,
2379.699999988079,,confidence,966558,confidence,,52,,,,,,,,4,,
null,,confidence_buffer,966663,confidence_buffer,,null,,,,,,,,,,
null,,thebreak,967170,break,,null,,,,,,,,,,
4645.800000011921,,realistic_rating,971817,realistic_rating,,49,Ironwood Heights,1,,,,,,,,
null,,confidence_buffer,971932,confidence_buffer,,null,,,,,,,,,,
2044.6000000238419,,pt2_unique_rating,973977,pt2_unique_rating,,49,,1,,,,,,,,
null,,confidence_buffer,974082,confidence_buffer,,null,,,,,,,,,,
1113.1000000238419,,pt2_memorable_rating,975197,pt2_memorable_rating,,49,,1,,,,,,,,
null,,confidence_buffer,975309,confidence_buffer,,null,,,,,,,,,,
2263.300000011921,,recognition_phase,977574,recognition_phase,,50,,,,,new,1,1,,,
null,,confidence_buffer,977678,confidence_buffer,,null,,,,,,,,,,
2634.699999988079,,confidence,980314,confidence,,52,,,,,,,,4,,
null,,confidence_buffer,980418,confidence_buffer,,null,,,,,,,,,,
null,,thebreak,980922,break,,null,,,,,,,,,,
6435.5,,realistic_rating,987359,realistic_rating,,51,New Verdan,3,,,,,,,,
null,,confidence_buffer,987465,confidence_buffer,,null,,,,,,,,,,
2704.199999988079,,pt2_unique_rating,990171,pt2_unique_rating,,50,,2,,,,,,,,
null,,confidence_buffer,990278,confidence_buffer,,null,,,,,,,,,,
1150.5,,pt2_memorable_rating,991430,pt2_memorable_rating,,51,,3,,,,,,,,
null,,confidence_buffer,991538,confidence_buffer,,null,,,,,,,,,,
2069,,probe_rating,993608,probe_rating,,51,,,3,1,,,,,,
null,,confidence_buffer,993720,confidence_buffer,,null,,,,,,,,,,
2536.899999976158,,recognition_phase,996258,recognition_phase,,50,,,,,new,0,0.8333333333333334,,,
null,,confidence_buffer,996365,confidence_buffer,,null,,,,,,,,,,
3087.5,,confidence,999454,confidence,,52,,,,,,,,4,,
null,,confidence_buffer,999565,confidence_buffer,,null,,,,,,,,,,
null,,thebreak,1000073,break,,null,,,,,,,,,,
8412,,realistic_rating,1008486,realistic_rating,,49,Cedarwyn,1,,,,,,,,
null,,confidence_buffer,1008604,confidence_buffer,,null,,,,,,,,,,
2569.900000035763,,probe_rating,1011175,probe_rating,,53,,,5,1,,,,,,
null,,confidence_buffer,1011281,confidence_buffer,,null,,,,,,,,,,
6487.800000011921,,pt2_unique_rating,1017771,pt2_unique_rating,,50,,2,,,,,,,,
null,,confidence_buffer,1017875,confidence_buffer,,null,,,,,,,,,,
3070.400000035763,,pt2_memorable_rating,1020946,pt2_memorable_rating,,49,,1,,,,,,,,
null,,confidence_buffer,1021054,confidence_buffer,,null,,,,,,,,,,
1860.699999988079,,recognition_phase,1022917,recognition_phase,,50,,,,,new,1,0.8571428571428571,,,
null,,confidence_buffer,1023022,confidence_buffer,,null,,,,,,,,,,
4190.300000011921,,confidence,1027214,confidence,,52,,,,,,,,4,,
null,,confidence_buffer,1027322,confidence_buffer,,null,,,,,,,,,,
null,,thebreak,1027839,break,,null,,,,,,,,,,
3464.5,,realistic_rating,1031305,realistic_rating,,53,Cape May,5,,,,,,,,
null,,confidence_buffer,1031412,confidence_buffer,,null,,,,,,,,,,
4782.600000023842,,pt2_unique_rating,1036196,pt2_unique_rating,,51,,3,,,,,,,,
null,,confidence_buffer,1036301,confidence_buffer,,null,,,,,,,,,,
3218.699999988079,,pt2_memorable_rating,1039521,pt2_memorable_rating,,50,,2,,,,,,,,
null,,confidence_buffer,1039626,confidence_buffer,,null,,,,,,,,,,
2193.099999964237,,recognition_phase,1041821,recognition_phase,,50,,,,,new,0,0.75,,,
null,,confidence_buffer,1041927,confidence_buffer,,null,,,,,,,,,,
3153.2000000476837,,confidence,1045082,confidence,,52,,,,,,,,4,,
null,,confidence_buffer,1045188,confidence_buffer,,null,,,,,,,,,,
null,,thebreak,1045691,break,,null,,,,,,,,,,
54405.89999997616,,realistic_rating,1100098,realistic_rating,,53,Sierra Hollow,5,,,,,,,,
null,,confidence_buffer,1100213,confidence_buffer,,null,,,,,,,,,,
1514.5999999642372,,probe_rating,1101730,probe_rating,,52,,,4,1,,,,,,
null,,confidence_buffer,1101832,confidence_buffer,,null,,,,,,,,,,
2005.2000000476837,,pt2_unique_rating,1103839,pt2_unique_rating,,51,,3,,,,,,,,
null,,confidence_buffer,1103941,confidence_buffer,,null,,,,,,,,,,
919.5999999642372,,pt2_memorable_rating,1104862,pt2_memorable_rating,,52,,4,,,,,,,,
null,,confidence_buffer,1104979,confidence_buffer,,null,,,,,,,,,,
2246.300000011921,,recognition_phase,1107227,recognition_phase,,49,,,,,old,1,0.7777777777777778,,,
null,,confidence_buffer,1107336,confidence_buffer,,null,,,,,,,,,,
750.8000000119209,,confidence,1108088,confidence,,52,,,,,,,,4,,
null,,confidence_buffer,1108205,confidence_buffer,,null,,,,,,,,,,
null,,thebreak,1108714,break,,null,,,,,,,,,,
2738,,realistic_rating,1111454,realistic_rating,,50,Manistee,2,,,,,,,,
null,,confidence_buffer,1111564,confidence_buffer,,null,,,,,,,,,,
2714,,probe_rating,1114279,probe_rating,,51,,,3,1,,,,,,
null,,confidence_buffer,1114387,confidence_buffer,,null,,,,,,,,,,
1523.5999999642372,,pt2_unique_rating,1115912,pt2_unique_rating,,50,,2,,,,,,,,
null,,confidence_buffer,1116014,confidence_buffer,,null,,,,,,,,,,
1731.199999988079,,pt2_memorable_rating,1117747,pt2_memorable_rating,,50,,2,,,,,,,,
null,,confidence_buffer,1117857,confidence_buffer,,null,,,,,,,,,,
2139,,recognition_phase,1119997,recognition_phase,,50,,,,,new,0,0.7,,,
null,,confidence_buffer,1120104,confidence_buffer,,null,,,,,,,,,,
1205.699999988079,,confidence,1121311,confidence,,50,,,,,,,,2,,
null,,confidence_buffer,1121415,confidence_buffer,,null,,,,,,,,,,
null,,thebreak,1121923,break,,null,,,,,,,,,,
3088.599999964237,,realistic_rating,1125013,realistic_rating,,51,Stonebrook,3,,,,,,,,
null,,confidence_buffer,1125124,confidence_buffer,,null,,,,,,,,,,
1647.199999988079,,pt2_unique_rating,1126772,pt2_unique_rating,,51,,3,,,,,,,,
null,,confidence_buffer,1126878,confidence_buffer,,null,,,,,,,,,,
1939.0999999642372,,probe_rating,1128818,probe_rating,,53,,,5,1,,,,,,
null,,confidence_buffer,1128924,confidence_buffer,,null,,,,,,,,,,
3068.699999988079,,pt2_memorable_rating,1131994,pt2_memorable_rating,,52,,4,,,,,,,,
null,,confidence_buffer,1132102,confidence_buffer,,null,,,,,,,,,,
2088,,recognition_phase,1134191,recognition_phase,,50,,,,,new,1,0.7272727272727273,,,
null,,confidence_buffer,1134309,confidence_buffer,,null,,,,,,,,,,
5271.5,,confidence,1139582,confidence,,51,,,,,,,,3,,
null,,confidence_buffer,1139688,confidence_buffer,,null,,,,,,,,,,
null,,thebreak,1140199,break,,null,,,,,,,,,,
3577.5,,realistic_rating,1143778,realistic_rating,,53,Okoboji,5,,,,,,,,
null,,confidence_buffer,1143885,confidence_buffer,,null,,,,,,,,,,
1604.2999999523163,,probe_rating,1145491,probe_rating,,52,,,4,1,,,,,,
null,,confidence_buffer,1145608,confidence_buffer,,null,,,,,,,,,,
1984.9000000357628,,pt2_unique_rating,1147594,pt2_unique_rating,,52,,4,,,,,,,,
null,,confidence_buffer,1147707,confidence_buffer,,null,,,,,,,,,,
660.9000000357628,,pt2_memorable_rating,1148370,pt2_memorable_rating,,52,,4,,,,,,,,
null,,confidence_buffer,1148483,confidence_buffer,,null,,,,,,,,,,
1704.1000000238419,,recognition_phase,1150189,recognition_phase,,49,,,,,old,1,0.75,,,
null,,confidence_buffer,1150298,confidence_buffer,,null,,,,,,,,,,
1693.8999999761581,,confidence,1151993,confidence,,52,,,,,,,,4,,
null,,confidence_buffer,1152098,confidence_buffer,,null,,,,,,,,,,
null,,thebreak,1152607,break,,null,,,,,,,,,,
3894.399999976158,,realistic_rating,1156503,realistic_rating,,52,Falconridge,4,,,,,,,,
null,,confidence_buffer,1156614,confidence_buffer,,null,,,,,,,,,,
2851.400000035763,,pt2_unique_rating,1159467,pt2_unique_rating,,51,,3,,,,,,,,
null,,confidence_buffer,1159570,confidence_buffer,,null,,,,,,,,,,
1560.699999988079,,pt2_memorable_rating,1161132,pt2_memorable_rating,,52,,4,,,,,,,,
null,,confidence_buffer,1161237,confidence_buffer,,null,,,,,,,,,,
2196.400000035763,,recognition_phase,1163435,recognition_phase,,49,,,,,old,1,0.7692307692307693,,,
null,,confidence_buffer,1163550,confidence_buffer,,null,,,,,,,,,,
1803.5,,confidence,1165355,confidence,,52,,,,,,,,4,,
null,,confidence_buffer,1165461,confidence_buffer,,null,,,,,,,,,,
null,,thebreak,1165971,break,,null,,,,,,,,,,
4526.5,,realistic_rating,1170500,realistic_rating,,50,Maravilla Springs,2,,,,,,,,
null,,confidence_buffer,1170603,confidence_buffer,,null,,,,,,,,,,
1982.4000000357628,,pt2_unique_rating,1172586,pt2_unique_rating,,51,,3,,,,,,,,
null,,confidence_buffer,1172688,confidence_buffer,,null,,,,,,,,,,
2105,,pt2_memorable_rating,1174795,pt2_memorable_rating,,50,,2,,,,,,,,
null,,confidence_buffer,1174899,confidence_buffer,,null,,,,,,,,,,
1661.4000000357628,,recognition_phase,1176562,recognition_phase,,50,,,,,new,1,0.7857142857142857,,,
null,,confidence_buffer,1176679,confidence_buffer,,null,,,,,,,,,,
5300.800000011921,,confidence,1181981,confidence,,51,,,,,,,,3,,
null,,confidence_buffer,1182090,confidence_buffer,,null,,,,,,,,,,
null,,thebreak,1182592,break,,null,,,,,,,,,,
12978.600000023842,,realistic_rating,1195572,realistic_rating,,51,Gatlinburg,3,,,,,,,,
null,,confidence_buffer,1195678,confidence_buffer,,null,,,,,,,,,,
2071.399999976158,,pt2_unique_rating,1197750,pt2_unique_rating,,50,,2,,,,,,,,
null,,confidence_buffer,1197860,confidence_buffer,,null,,,,,,,,,,
2218,,pt2_memorable_rating,1200079,pt2_memorable_rating,,49,,1,,,,,,,,
null,,confidence_buffer,1200186,confidence_buffer,,null,,,,,,,,,,
1469.800000011921,,probe_rating,1201657,probe_rating,,52,,,4,1,,,,,,
null,,confidence_buffer,1201764,confidence_buffer,,null,,,,,,,,,,
1729.2999999523163,,recognition_phase,1203495,recognition_phase,,50,,,,,new,1,0.8,,,
null,,confidence_buffer,1203600,confidence_buffer,,null,,,,,,,,,,
1379.8999999761581,,confidence,1204981,confidence,,51,,,,,,,,3,,
null,,confidence_buffer,1205090,confidence_buffer,,null,,,,,,,,,,
null,,thebreak,1205599,break,,null,,,,,,,,,,
9338.700000047684,,realistic_rating,1214940,realistic_rating,,51,Willowford,3,,,,,,,,
null,,confidence_buffer,1215054,confidence_buffer,,null,,,,,,,,,,
1460.800000011921,,probe_rating,1216517,probe_rating,,50,,,2,1,,,,,,
null,,confidence_buffer,1216624,confidence_buffer,,null,,,,,,,,,,
1542.5,,pt2_unique_rating,1218168,pt2_unique_rating,,51,,3,,,,,,,,
null,,confidence_buffer,1218277,confidence_buffer,,null,,,,,,,,,,
789.8000000119209,,pt2_memorable_rating,1219068,pt2_memorable_rating,,50,,2,,,,,,,,
null,,confidence_buffer,1219175,confidence_buffer,,null,,,,,,,,,,
1745.699999988079,,recognition_phase,1220922,recognition_phase,,50,,,,,new,1,0.8125,,,
null,,confidence_buffer,1221033,confidence_buffer,,null,,,,,,,,,,
1516.5,,confidence,1222551,confidence,,51,,,,,,,,3,,
null,,confidence_buffer,1222658,confidence_buffer,,null,,,,,,,,,,
null,,thebreak,1223159,break,,null,,,,,,,,,,
3096.899999976158,,realistic_rating,1226258,realistic_rating,,53,Leesburg,5,,,,,,,,
null,,confidence_buffer,1226371,confidence_buffer,,null,,,,,,,,,,
1619,,pt2_unique_rating,1227992,pt2_unique_rating,,52,,4,,,,,,,,
null,,confidence_buffer,1228096,confidence_buffer,,null,,,,,,,,,,
996.6000000238419,,pt2_memorable_rating,1229094,pt2_memorable_rating,,52,,4,,,,,,,,
null,,confidence_buffer,1229208,confidence_buffer,,null,,,,,,,,,,
1350.199999988079,,recognition_phase,1230559,recognition_phase,,49,,,,,old,0,0.7647058823529411,,,
null,,confidence_buffer,1230666,confidence_buffer,,null,,,,,,,,,,
1476.199999988079,,confidence,1232144,confidence,,52,,,,,,,,4,,
null,,confidence_buffer,1232249,confidence_buffer,,null,,,,,,,,,,
null,,thebreak,1232757,break,,null,,,,,,,,,,
4078.099999964237,,realistic_rating,1236836,realistic_rating,,51,Northbridge,3,,,,,,,,
null,,confidence_buffer,1236955,confidence_buffer,,null,,,,,,,,,,
1570.8999999761581,,probe_rating,1238527,probe_rating,,52,,,4,1,,,,,,
null,,confidence_buffer,1238633,confidence_buffer,,null,,,,,,,,,,
1607.3999999761581,,pt2_unique_rating,1240242,pt2_unique_rating,,51,,3,,,,,,,,
null,,confidence_buffer,1240348,confidence_buffer,,null,,,,,,,,,,
1914.4000000357628,,pt2_memorable_rating,1242264,pt2_memorable_rating,,50,,2,,,,,,,,
null,,confidence_buffer,1242372,confidence_buffer,,null,,,,,,,,,,
1415.7000000476837,,recognition_phase,1243789,recognition_phase,,50,,,,,new,1,0.7777777777777778,,,
null,,confidence_buffer,1243897,confidence_buffer,,null,,,,,,,,,,
5415.900000035763,,confidence,1249314,confidence,,52,,,,,,,,4,,
null,,confidence_buffer,1249418,confidence_buffer,,null,,,,,,,,,,
null,,thebreak,1249934,break,,null,,,,,,,,,,
3813.900000035763,,realistic_rating,1253750,realistic_rating,,51,West Palm Beach,3,,,,,,,,
null,,confidence_buffer,1253869,confidence_buffer,,null,,,,,,,,,,
2658.899999976158,,pt2_unique_rating,1256530,pt2_unique_rating,,53,,5,,,,,,,,
null,,confidence_buffer,1256634,confidence_buffer,,null,,,,,,,,,,
1741,,pt2_memorable_rating,1258376,pt2_memorable_rating,,52,,4,,,,,,,,
null,,confidence_buffer,1258486,confidence_buffer,,null,,,,,,,,,,
1917.1000000238419,,recognition_phase,1260404,recognition_phase,,50,,,,,new,1,0.7894736842105263,,,
null,,confidence_buffer,1260518,confidence_buffer,,null,,,,,,,,,,
2215.5,,confidence,1262735,confidence,,52,,,,,,,,4,,
null,,confidence_buffer,1262843,confidence_buffer,,null,,,,,,,,,,
null,,thebreak,1263356,break,,null,,,,,,,,,,
3518.100000023842,,realistic_rating,1266876,realistic_rating,,53,Healdsburg,5,,,,,,,,
null,,confidence_buffer,1266993,confidence_buffer,,null,,,,,,,,,,
1479.4000000357628,,pt2_unique_rating,1268474,pt2_unique_rating,,53,,5,,,,,,,,
null,,confidence_buffer,1268578,confidence_buffer,,null,,,,,,,,,,
1672.2000000476837,,pt2_memorable_rating,1270251,pt2_memorable_rating,,52,,4,,,,,,,,
null,,confidence_buffer,1270357,confidence_buffer,,null,,,,,,,,,,
2974.900000035763,,recognition_phase,1273333,recognition_phase,,49,,,,,old,1,0.8,,,
null,,confidence_buffer,1273438,confidence_buffer,,null,,,,,,,,,,
3218.5,,confidence,1276658,confidence,,51,,,,,,,,3,,
null,,confidence_buffer,1276775,confidence_buffer,,null,,,,,,,,,,
null,,thebreak,1277280,break,,null,,,,,,,,,,
4467.900000035763,,realistic_rating,1281749,realistic_rating,,52,Hanover,4,,,,,,,,
null,,confidence_buffer,1281855,confidence_buffer,,null,,,,,,,,,,
994.6999999880791,,pt2_unique_rating,1282851,pt2_unique_rating,,51,,3,,,,,,,,
null,,confidence_buffer,1282957,confidence_buffer,,null,,,,,,,,,,
997,,pt2_memorable_rating,1283957,pt2_memorable_rating,,52,,4,,,,,,,,
null,,confidence_buffer,1284066,confidence_buffer,,null,,,,,,,,,,
1609.5999999642372,,recognition_phase,1285677,recognition_phase,,49,,,,,old,1,0.8095238095238095,,,
null,,confidence_buffer,1285784,confidence_buffer,,null,,,,,,,,,,
1300.1000000238419,,confidence,1287085,confidence,,52,,,,,,,,4,,
null,,confidence_buffer,1287188,confidence_buffer,,null,,,,,,,,,,
null,,thebreak,1287694,break,,null,,,,,,,,,,
2435.199999988079,,realistic_rating,1290130,realistic_rating,,51,Berkeley Springs,3,,,,,,,,
null,,confidence_buffer,1290244,confidence_buffer,,null,,,,,,,,,,
998.3000000119209,,pt2_unique_rating,1291244,pt2_unique_rating,,52,,4,,,,,,,,
null,,confidence_buffer,1291353,confidence_buffer,,null,,,,,,,,,,
8261.100000023842,,pt2_memorable_rating,1299616,pt2_memorable_rating,,52,,4,,,,,,,,
null,,confidence_buffer,1299722,confidence_buffer,,null,,,,,,,,,,
3641.400000035763,,recognition_phase,1303365,recognition_phase,,49,,,,,old,1,0.8181818181818182,,,
null,,confidence_buffer,1303479,confidence_buffer,,null,,,,,,,,,,
2630.400000035763,,confidence,1306110,confidence,,52,,,,,,,,4,,
null,,confidence_buffer,1306218,confidence_buffer,,null,,,,,,,,,,
null,,thebreak,1306725,break,,null,,,,,,,,,,
3097.899999976158,,realistic_rating,1309825,realistic_rating,,51,Delaro Park,3,,,,,,,,
null,,confidence_buffer,1309929,confidence_buffer,,null,,,,,,,,,,
1303.3999999761581,,pt2_unique_rating,1311234,pt2_unique_rating,,51,,3,,,,,,,,
null,,confidence_buffer,1311345,confidence_buffer,,null,,,,,,,,,,
2204.899999976158,,pt2_memorable_rating,1313551,pt2_memorable_rating,,51,,3,,,,,,,,
null,,confidence_buffer,1313665,confidence_buffer,,null,,,,,,,,,,
1592.699999988079,,recognition_phase,1315259,recognition_phase,,50,,,,,new,0,0.782608695652174,,,
null,,confidence_buffer,1315366,confidence_buffer,,null,,,,,,,,,,
363.9000000357628,,confidence,1315731,confidence,,50,,,,,,,,2,,
null,,confidence_buffer,1315840,confidence_buffer,,null,,,,,,,,,,
null,,thebreak,1316344,break,,null,,,,,,,,,,
4836.800000011921,,realistic_rating,1321183,realistic_rating,,49,Custer,1,,,,,,,,
null,,confidence_buffer,1321293,confidence_buffer,,null,,,,,,,,,,
1075.699999988079,,pt2_unique_rating,1322370,pt2_unique_rating,,50,,2,,,,,,,,
null,,confidence_buffer,1322475,confidence_buffer,,null,,,,,,,,,,
1459.9000000357628,,probe_rating,1323937,probe_rating,,50,,,2,1,,,,,,
null,,confidence_buffer,1324045,confidence_buffer,,null,,,,,,,,,,
2082.800000011921,,pt2_memorable_rating,1326129,pt2_memorable_rating,,51,,3,,,,,,,,
null,,confidence_buffer,1326238,confidence_buffer,,null,,,,,,,,,,
1746.1000000238419,,recognition_phase,1327985,recognition_phase,,50,,,,,new,0,0.75,,,
null,,confidence_buffer,1328102,confidence_buffer,,null,,,,,,,,,,
6100.100000023842,,confidence,1334204,confidence,,50,,,,,,,,2,,
null,,confidence_buffer,1334308,confidence_buffer,,null,,,,,,,,,,
null,,thebreak,1334809,break,,null,,,,,,,,,,
1924.300000011921,,realistic_rating,1336735,realistic_rating,,51,Lakehaven,3,,,,,,,,
null,,confidence_buffer,1336840,confidence_buffer,,null,,,,,,,,,,
1445.1000000238419,,pt2_unique_rating,1338286,pt2_unique_rating,,52,,4,,,,,,,,
null,,confidence_buffer,1338389,confidence_buffer,,null,,,,,,,,,,
1482.800000011921,,pt2_memorable_rating,1339874,pt2_memorable_rating,,51,,3,,,,,,,,
null,,confidence_buffer,1339993,confidence_buffer,,null,,,,,,,,,,
1655.5999999642372,,recognition_phase,1341650,recognition_phase,,49,,,,,old,1,0.76,,,
null,,confidence_buffer,1341762,confidence_buffer,,null,,,,,,,,,,
3786.199999988079,,confidence,1345549,confidence,,51,,,,,,,,3,,
null,,confidence_buffer,1345655,confidence_buffer,,null,,,,,,,,,,
null,,thebreak,1346159,break,,null,,,,,,,,,,
12341.900000035763,,realistic_rating,1358503,realistic_rating,,51,Clearbrook,3,,,,,,,,
null,,confidence_buffer,1358609,confidence_buffer,,null,,,,,,,,,,
4026.800000011921,,pt2_unique_rating,1362637,pt2_unique_rating,,50,,2,,,,,,,,
null,,confidence_buffer,1362746,confidence_buffer,,null,,,,,,,,,,
676.3999999761581,,pt2_memorable_rating,1363424,pt2_memorable_rating,,51,,3,,,,,,,,
null,,confidence_buffer,1363534,confidence_buffer,,null,,,,,,,,,,
1303.300000011921,,recognition_phase,1364839,recognition_phase,,50,,,,,new,1,0.7692307692307693,,,
null,,confidence_buffer,1364944,confidence_buffer,,null,,,,,,,,,,
1494.9000000357628,,confidence,1366440,confidence,,52,,,,,,,,4,,
null,,confidence_buffer,1366548,confidence_buffer,,null,,,,,,,,,,
null,,thebreak,1367063,break,,null,,,,,,,,,,
2871,,realistic_rating,1369936,realistic_rating,,50,Sunmere,2,,,,,,,,
null,,confidence_buffer,1370051,confidence_buffer,,null,,,,,,,,,,
1626.8999999761581,,pt2_unique_rating,1371680,pt2_unique_rating,,50,,2,,,,,,,,
null,,confidence_buffer,1371784,confidence_buffer,,null,,,,,,,,,,
1172.3999999761581,,pt2_memorable_rating,1372958,pt2_memorable_rating,,51,,3,,,,,,,,
null,,confidence_buffer,1373068,confidence_buffer,,null,,,,,,,,,,
1459.800000011921,,recognition_phase,1374528,recognition_phase,,50,,,,,new,0,0.7407407407407407,,,
null,,confidence_buffer,1374645,confidence_buffer,,null,,,,,,,,,,
4083.5,,confidence,1378730,confidence,,51,,,,,,,,3,,
null,,confidence_buffer,1378834,confidence_buffer,,null,,,,,,,,,,
null,,thebreak,1379344,break,,null,,,,,,,,,,
2712.900000035763,,realistic_rating,1382059,realistic_rating,,50,Redgrove,2,,,,,,,,
null,,confidence_buffer,1382161,confidence_buffer,,null,,,,,,,,,,
1301.6000000238419,,pt2_unique_rating,1383464,pt2_unique_rating,,50,,2,,,,,,,,
null,,confidence_buffer,1383568,confidence_buffer,,null,,,,,,,,,,
748.8000000119209,,pt2_memorable_rating,1384318,pt2_memorable_rating,,51,,3,,,,,,,,
null,,confidence_buffer,1384433,confidence_buffer,,null,,,,,,,,,,
1291.2999999523163,,recognition_phase,1385726,recognition_phase,,49,,,,,old,1,0.75,,,
null,,confidence_buffer,1385830,confidence_buffer,,null,,,,,,,,,,
9969.099999964237,,confidence,1395801,confidence,,52,,,,,,,,4,,
null,,confidence_buffer,1395908,confidence_buffer,,null,,,,,,,,,,
null,,thebreak,1396411,break,,null,,,,,,,,,,
3482.599999964237,,realistic_rating,1399895,realistic_rating,,52,Solara Glen,4,,,,,,,,
null,,confidence_buffer,1400012,confidence_buffer,,null,,,,,,,,,,
2251.300000011921,,pt2_unique_rating,1402265,pt2_unique_rating,,52,,4,,,,,,,,
null,,confidence_buffer,1402376,confidence_buffer,,null,,,,,,,,,,
1609.5,,pt2_memorable_rating,1403987,pt2_memorable_rating,,51,,3,,,,,,,,
null,,confidence_buffer,1404101,confidence_buffer,,null,,,,,,,,,,
1302.2000000476837,,recognition_phase,1405405,recognition_phase,,49,,,,,old,1,0.7586206896551724,,,
null,,confidence_buffer,1405520,confidence_buffer,,null,,,,,,,,,,
1576.8999999761581,,confidence,1407098,confidence,,52,,,,,,,,4,,
null,,confidence_buffer,1407205,confidence_buffer,,null,,,,,,,,,,
null,,thebreak,1407707,break,,null,,,,,,,,,,
3157.899999976158,,realistic_rating,1410867,realistic_rating,,50,Sammamish,2,,,,,,,,
null,,confidence_buffer,1410979,confidence_buffer,,null,,,,,,,,,,
1112,,pt2_unique_rating,1412093,pt2_unique_rating,,51,,3,,,,,,,,
null,,confidence_buffer,1412204,confidence_buffer,,null,,,,,,,,,,
899.6999999880791,,pt2_memorable_rating,1413105,pt2_memorable_rating,,52,,4,,,,,,,,
null,,confidence_buffer,1413212,confidence_buffer,,null,,,,,,,,,,
1595.699999988079,,recognition_phase,1414809,recognition_phase,,50,,,,,new,0,0.7333333333333333,,,
null,,confidence_buffer,1414917,confidence_buffer,,null,,,,,,,,,,
2403,,confidence,1417321,confidence,,51,,,,,,,,3,,
null,,confidence_buffer,1417429,confidence_buffer,,null,,,,,,,,,,
null,,thebreak,1417938,break,,null,,,,,,,,,,
3812.2000000476837,,realistic_rating,1421751,realistic_rating,,51,Hollendale,3,,,,,,,,
null,,confidence_buffer,1421865,confidence_buffer,,null,,,,,,,,,,
988,,pt2_unique_rating,1422854,pt2_unique_rating,,51,,3,,,,,,,,
null,,confidence_buffer,1422965,confidence_buffer,,null,,,,,,,,,,
1115.5999999642372,,pt2_memorable_rating,1424082,pt2_memorable_rating,,51,,3,,,,,,,,
null,,confidence_buffer,1424186,confidence_buffer,,null,,,,,,,,,,
1722.4000000357628,,recognition_phase,1425910,recognition_phase,,50,,,,,new,1,0.7419354838709677,,,
null,,confidence_buffer,1426022,confidence_buffer,,null,,,,,,,,,,
455.10000002384186,,confidence,1426478,confidence,,51,,,,,,,,3,,
null,,confidence_buffer,1426596,confidence_buffer,,null,,,,,,,,,,
null,,thebreak,1427109,break,,null,,,,,,,,,,
831.3000000119209,,realistic_rating,1427942,realistic_rating,,52,Shreveport,4,,,,,,,,
null,,confidence_buffer,1428048,confidence_buffer,,null,,,,,,,,,,
968.3999999761581,,pt2_unique_rating,1429018,pt2_unique_rating,,50,,2,,,,,,,,
null,,confidence_buffer,1429127,confidence_buffer,,null,,,,,,,,,,
1500.7999999523163,,pt2_memorable_rating,1430629,pt2_memorable_rating,,50,,2,,,,,,,,
null,,confidence_buffer,1430743,confidence_buffer,,null,,,,,,,,,,
1587.6000000238419,,recognition_phase,1432332,recognition_phase,,50,,,,,new,1,0.75,,,
null,,confidence_buffer,1432437,confidence_buffer,,null,,,,,,,,,,
1334.9000000357628,,confidence,1433774,confidence,,51,,,,,,,,3,,
null,,confidence_buffer,1433885,confidence_buffer,,null,,,,,,,,,,
null,,thebreak,1434400,break,,null,,,,,,,,,,
1852.8999999761581,,realistic_rating,1436254,realistic_rating,,52,Rosehollow,4,,,,,,,,
null,,confidence_buffer,1436361,confidence_buffer,,null,,,,,,,,,,
1376.7000000476837,,pt2_unique_rating,1437739,pt2_unique_rating,,51,,3,,,,,,,,
null,,confidence_buffer,1437850,confidence_buffer,,null,,,,,,,,,,
760.1000000238419,,pt2_memorable_rating,1438611,pt2_memorable_rating,,50,,2,,,,,,,,
null,,confidence_buffer,1438718,confidence_buffer,,null,,,,,,,,,,
5763.800000011921,,recognition_phase,1444483,recognition_phase,,50,,,,,new,1,0.7575757575757576,,,
null,,confidence_buffer,1444586,confidence_buffer,,null,,,,,,,,,,
1243.0999999642372,,confidence,1445831,confidence,,51,,,,,,,,3,,
null,,confidence_buffer,1445934,confidence_buffer,,null,,,,,,,,,,
null,,thebreak,1446443,break,,null,,,,,,,,,,
2535.099999964237,,realistic_rating,1448980,realistic_rating,,50,Ashford Hills,2,,,,,,,,
null,,confidence_buffer,1449089,confidence_buffer,,null,,,,,,,,,,
1096.5,,pt2_unique_rating,1450187,pt2_unique_rating,,51,,3,,,,,,,,
null,,confidence_buffer,1450299,confidence_buffer,,null,,,,,,,,,,
670.8000000119209,,pt2_memorable_rating,1450971,pt2_memorable_rating,,50,,2,,,,,,,,
null,,confidence_buffer,1451076,confidence_buffer,,null,,,,,,,,,,
1410.6000000238419,,recognition_phase,1452488,recognition_phase,,49,,,,,old,0,0.7352941176470589,,,
null,,confidence_buffer,1452604,confidence_buffer,,null,,,,,,,,,,
1646.9000000357628,,confidence,1454253,confidence,,50,,,,,,,,2,,
null,,confidence_buffer,1454356,confidence_buffer,,null,,,,,,,,,,
null,,thebreak,1454869,break,,null,,,,,,,,,,
2334.399999976158,,realistic_rating,1457205,realistic_rating,,50,Watkins Glen,2,,,,,,,,
null,,confidence_buffer,1457323,confidence_buffer,,null,,,,,,,,,,
1423.3999999761581,,pt2_unique_rating,1458748,pt2_unique_rating,,51,,3,,,,,,,,
null,,confidence_buffer,1458849,confidence_buffer,,null,,,,,,,,,,
843.8000000119209,,pt2_memorable_rating,1459694,pt2_memorable_rating,,50,,2,,,,,,,,
null,,confidence_buffer,1459796,confidence_buffer,,null,,,,,,,,,,
2936.800000011921,,recognition_phase,1462734,recognition_phase,,50,,,,,new,1,0.7428571428571429,,,
null,,confidence_buffer,1462837,confidence_buffer,,null,,,,,,,,,,
3168.5,,confidence,1466007,confidence,,51,,,,,,,,3,,
null,,confidence_buffer,1466117,confidence_buffer,,null,,,,,,,,,,
null,,thebreak,1466619,break,,null,,,,,,,,,,
4322,,realistic_rating,1470943,realistic_rating,,49,Juniper Creek,1,,,,,,,,
null,,confidence_buffer,1471047,confidence_buffer,,null,,,,,,,,,,
1792,,pt2_unique_rating,1472841,pt2_unique_rating,,49,,1,,,,,,,,
null,,confidence_buffer,1472954,confidence_buffer,,null,,,,,,,,,,
1217,,pt2_memorable_rating,1474173,pt2_memorable_rating,,49,,1,,,,,,,,
null,,confidence_buffer,1474282,confidence_buffer,,null,,,,,,,,,,
3497.900000035763,,recognition_phase,1477781,recognition_phase,,50,,,,,new,1,0.75,,,
null,,confidence_buffer,1477888,confidence_buffer,,null,,,,,,,,,,
3356.199999988079,,confidence,1481245,confidence,,51,,,,,,,,3,,
null,,confidence_buffer,1481351,confidence_buffer,,null,,,,,,,,,,
null,,thebreak,1481868,break,,null,,,,,,,,,,
2090.100000023842,,realistic_rating,1483962,realistic_rating,,50,Cody,2,,,,,,,,
null,,confidence_buffer,1484082,confidence_buffer,,null,,,,,,,,,,
1264.7999999523163,,pt2_unique_rating,1485348,pt2_unique_rating,,51,,3,,,,,,,,
null,,confidence_buffer,1485458,confidence_buffer,,null,,,,,,,,,,
1055.5,,pt2_memorable_rating,1486515,pt2_memorable_rating,,50,,2,,,,,,,,
null,,confidence_buffer,1486617,confidence_buffer,,null,,,,,,,,,,
4663.899999976158,,recognition_phase,1491282,recognition_phase,,49,,,,,old,1,0.7567567567567568,,,
null,,confidence_buffer,1491393,confidence_buffer,,null,,,,,,,,,,
1845.800000011921,,confidence,1493240,confidence,,51,,,,,,,,3,,
null,,confidence_buffer,1493355,confidence_buffer,,null,,,,,,,,,,
null,,thebreak,1493859,break,,null,,,,,,,,,,
3626.599999964237,,realistic_rating,1497488,realistic_rating,,53,Yukon,5,,,,,,,,
null,,confidence_buffer,1497604,confidence_buffer,,null,,,,,,,,,,
1845.2000000476837,,pt2_unique_rating,1499451,pt2_unique_rating,,53,,5,,,,,,,,
null,,confidence_buffer,1499559,confidence_buffer,,null,,,,,,,,,,
1356.9000000357628,,pt2_memorable_rating,1500921,pt2_memorable_rating,,52,,4,,,,,,,,
null,,confidence_buffer,1501030,confidence_buffer,,null,,,,,,,,,,
1619,,recognition_phase,1502649,recognition_phase,,49,,,,,old,1,0.7631578947368421,,,
null,,confidence_buffer,1502753,confidence_buffer,,null,,,,,,,,,,
7565.300000011921,,confidence,1510320,confidence,,52,,,,,,,,4,,
null,,confidence_buffer,1510426,confidence_buffer,,null,,,,,,,,,,
null,,thebreak,1510928,break,,null,,,,,,,,,,
6698.100000023842,,realistic_rating,1517627,realistic_rating,,53,Lake of the Ozarks,5,,,,,,,,
null,,confidence_buffer,1517732,confidence_buffer,,null,,,,,,,,,,
1711.699999988079,,pt2_unique_rating,1519445,pt2_unique_rating,,53,,5,,,,,,,,
null,,confidence_buffer,1519556,confidence_buffer,,null,,,,,,,,,,
908.6000000238419,,pt2_memorable_rating,1520466,pt2_memorable_rating,,53,,5,,,,,,,,
null,,confidence_buffer,1520570,confidence_buffer,,null,,,,,,,,,,
1823.199999988079,,recognition_phase,1522395,recognition_phase,,49,,,,,old,1,0.7692307692307693,,,
null,,confidence_buffer,1522503,confidence_buffer,,null,,,,,,,,,,
1682.800000011921,,confidence,1524188,confidence,,52,,,,,,,,4,,
null,,confidence_buffer,1524295,confidence_buffer,,null,,,,,,,,,,
null,,thebreak,1524805,break,,null,,,,,,,,,,
3333.199999988079,,realistic_rating,1528139,realistic_rating,,51,Folly Beach,3,,,,,,,,
null,,confidence_buffer,1528253,confidence_buffer,,null,,,,,,,,,,
2111.5,,pt2_unique_rating,1530366,pt2_unique_rating,,50,,2,,,,,,,,
null,,confidence_buffer,1530471,confidence_buffer,,null,,,,,,,,,,
953.0999999642372,,pt2_memorable_rating,1531426,pt2_memorable_rating,,51,,3,,,,,,,,
null,,confidence_buffer,1531529,confidence_buffer,,null,,,,,,,,,,
1623.9000000357628,,recognition_phase,1533154,recognition_phase,,50,,,,,new,1,0.775,,,
null,,confidence_buffer,1533259,confidence_buffer,,null,,,,,,,,,,
3214.7999999523163,,confidence,1536475,confidence,,51,,,,,,,,3,,
null,,confidence_buffer,1536580,confidence_buffer,,null,,,,,,,,,,
null,,thebreak,1537092,break,,null,,,,,,,,,,
5322.699999988079,,realistic_rating,1542416,realistic_rating,,51,Bowling Green,3,,,,,,,,
null,,confidence_buffer,1542531,confidence_buffer,,null,,,,,,,,,,
2148.800000011921,,pt2_unique_rating,1544681,pt2_unique_rating,,50,,2,,,,,,,,
null,,confidence_buffer,1544786,confidence_buffer,,null,,,,,,,,,,
1921.699999988079,,pt2_memorable_rating,1546709,pt2_memorable_rating,,51,,3,,,,,,,,
null,,confidence_buffer,1546819,confidence_buffer,,null,,,,,,,,,,
1250.5,,recognition_phase,1548071,recognition_phase,,49,,,,,old,1,0.7804878048780488,,,
null,,confidence_buffer,1548173,confidence_buffer,,null,,,,,,,,,,
2394.5,,confidence,1550569,confidence,,52,,,,,,,,4,,
null,,confidence_buffer,1550682,confidence_buffer,,null,,,,,,,,,,
null,,thebreak,1551192,break,,null,,,,,,,,,,
2391.899999976158,,realistic_rating,1553585,realistic_rating,,50,Bayshore Haven,2,,,,,,,,
null,,confidence_buffer,1553688,confidence_buffer,,null,,,,,,,,,,
939.5,,pt2_unique_rating,1554629,pt2_unique_rating,,51,,3,,,,,,,,
null,,confidence_buffer,1554744,confidence_buffer,,null,,,,,,,,,,
824.8000000119209,,pt2_memorable_rating,1555571,pt2_memorable_rating,,52,,4,,,,,,,,
null,,confidence_buffer,1555682,confidence_buffer,,null,,,,,,,,,,
3039.199999988079,,recognition_phase,1558723,recognition_phase,,49,,,,,old,1,0.7857142857142857,,,
null,,confidence_buffer,1558832,confidence_buffer,,null,,,,,,,,,,
2295.899999976158,,confidence,1561130,confidence,,52,,,,,,,,4,,
null,,confidence_buffer,1561232,confidence_buffer,,null,,,,,,,,,,
null,,thebreak,1561737,break,,null,,,,,,,,,,
11583.899999976158,,realistic_rating,1573322,realistic_rating,,51,Gardnerville,3,,,,,,,,
null,,confidence_buffer,1573427,confidence_buffer,,null,,,,,,,,,,
1079.9000000357628,,pt2_unique_rating,1574509,pt2_unique_rating,,51,,3,,,,,,,,
null,,confidence_buffer,1574611,confidence_buffer,,null,,,,,,,,,,
10806.399999976158,,pt2_memorable_rating,1585419,pt2_memorable_rating,,50,,2,,,,,,,,
null,,confidence_buffer,1585525,confidence_buffer,,null,,,,,,,,,,
2590.5,,recognition_phase,1588117,recognition_phase,,50,,,,,new,1,0.7906976744186046,,,
null,,confidence_buffer,1588232,confidence_buffer,,null,,,,,,,,,,
4978.599999964237,,confidence,1593212,confidence,,51,,,,,,,,3,,
null,,confidence_buffer,1593321,confidence_buffer,,null,,,,,,,,,,
null,,thebreak,1593829,break,,null,,,,,,,,,,
3180.300000011921,,realistic_rating,1597011,realistic_rating,,52,Park City,4,,,,,,,,
null,,confidence_buffer,1597116,confidence_buffer,,null,,,,,,,,,,
5651,,pt2_unique_rating,1602769,pt2_unique_rating,,51,,3,,,,,,,,
null,,confidence_buffer,1602875,confidence_buffer,,null,,,,,,,,,,
1678.300000011921,,pt2_memorable_rating,1604555,pt2_memorable_rating,,50,,2,,,,,,,,
null,,confidence_buffer,1604673,confidence_buffer,,null,,,,,,,,,,
1603.699999988079,,recognition_phase,1606278,recognition_phase,,50,,,,,new,0,0.7727272727272727,,,
null,,confidence_buffer,1606387,confidence_buffer,,null,,,,,,,,,,
1574,,confidence,1607963,confidence,,52,,,,,,,,4,,
null,,confidence_buffer,1608066,confidence_buffer,,null,,,,,,,,,,
null,,thebreak,1608578,break,,null,,,,,,,,,,
3846.5,,realistic_rating,1612426,realistic_rating,,51,San Antonio,3,,,,,,,,
null,,confidence_buffer,1612529,confidence_buffer,,null,,,,,,,,,,
1803.800000011921,,pt2_unique_rating,1614334,pt2_unique_rating,,52,,4,,,,,,,,
null,,confidence_buffer,1614438,confidence_buffer,,null,,,,,,,,,,
2151.300000011921,,pt2_memorable_rating,1616590,pt2_memorable_rating,,51,,3,,,,,,,,
null,,confidence_buffer,1616706,confidence_buffer,,null,,,,,,,,,,
1467.7000000476837,,recognition_phase,1618175,recognition_phase,,50,,,,,new,1,0.7777777777777778,,,
null,,confidence_buffer,1618282,confidence_buffer,,null,,,,,,,,,,
1956.300000011921,,confidence,1620241,confidence,,52,,,,,,,,4,,
null,,confidence_buffer,1620349,confidence_buffer,,null,,,,,,,,,,
null,,thebreak,1620858,break,,null,,,,,,,,,,
2440.900000035763,,realistic_rating,1623300,realistic_rating,,51,Livingston,3,,,,,,,,
null,,confidence_buffer,1623412,confidence_buffer,,null,,,,,,,,,,
1309.6000000238419,,pt2_unique_rating,1624724,pt2_unique_rating,,51,,3,,,,,,,,
null,,confidence_buffer,1624842,confidence_buffer,,null,,,,,,,,,,
1334.5,,pt2_memorable_rating,1626178,pt2_memorable_rating,,52,,4,,,,,,,,
null,,confidence_buffer,1626285,confidence_buffer,,null,,,,,,,,,,
2391.900000035763,,recognition_phase,1628678,recognition_phase,,50,,,,,new,1,0.782608695652174,,,
null,,confidence_buffer,1628790,confidence_buffer,,null,,,,,,,,,,
3700.099999964237,,confidence,1632491,confidence,,52,,,,,,,,4,,
null,,confidence_buffer,1632601,confidence_buffer,,null,,,,,,,,,,
null,,thebreak,1633106,break,,null,,,,,,,,,,
2014.9000000357628,,realistic_rating,1635122,realistic_rating,,52,Driftwood Bay,4,,,,,,,,
null,,confidence_buffer,1635228,confidence_buffer,,null,,,,,,,,,,
3687.800000011921,,pt2_unique_rating,1638917,pt2_unique_rating,,50,,2,,,,,,,,
null,,confidence_buffer,1639035,confidence_buffer,,null,,,,,,,,,,
988.3999999761581,,pt2_memorable_rating,1640025,pt2_memorable_rating,,50,,2,,,,,,,,
null,,confidence_buffer,1640128,confidence_buffer,,null,,,,,,,,,,
1492.4000000357628,,recognition_phase,1641622,recognition_phase,,50,,,,,new,1,0.7872340425531915,,,
null,,confidence_buffer,1641730,confidence_buffer,,null,,,,,,,,,,
4053.099999964237,,confidence,1645785,confidence,,52,,,,,,,,4,,
null,,confidence_buffer,1645894,confidence_buffer,,null,,,,,,,,,,
null,,thebreak,1646403,break,,null,,,,,,,,,,
8113.699999988079,,realistic_rating,1654519,realistic_rating,,52,Bar Harbor,4,,,,,,,,
null,,confidence_buffer,1654628,confidence_buffer,,null,,,,,,,,,,
1087.9000000357628,,pt2_unique_rating,1655717,pt2_unique_rating,,52,,4,,,,,,,,
null,,confidence_buffer,1655836,confidence_buffer,,null,,,,,,,,,,
1073.6000000238419,,pt2_memorable_rating,1656911,pt2_memorable_rating,,52,,4,,,,,,,,
null,,confidence_buffer,1657017,confidence_buffer,,null,,,,,,,,,,
1233.9000000357628,,recognition_phase,1658252,recognition_phase,,49,,,,,old,1,0.7916666666666666,,,
null,,confidence_buffer,1658354,confidence_buffer,,null,,,,,,,,,,
1420.1000000238419,,confidence,1659776,confidence,,52,,,,,,,,4,,
null,,confidence_buffer,1659892,confidence_buffer,,null,,,,,,,,,,
null,,thebreak,1660402,break,,null,,,,,,,,,,
2811.699999988079,,realistic_rating,1663215,realistic_rating,,51,Oakridge,3,,,,,,,,
null,,confidence_buffer,1663332,confidence_buffer,,null,,,,,,,,,,
2010.0999999642372,,pt2_unique_rating,1665344,pt2_unique_rating,,52,,4,,,,,,,,
null,,confidence_buffer,1665448,confidence_buffer,,null,,,,,,,,,,
1438.8999999761581,,probe_rating,1666889,probe_rating,,51,,,3,1,,,,,,
null,,confidence_buffer,1666995,confidence_buffer,,null,,,,,,,,,,
177.30000001192093,,pt2_memorable_rating,1667174,pt2_memorable_rating,,51,,3,,,,,,,,
null,,confidence_buffer,1667276,confidence_buffer,,null,,,,,,,,,,
3816.099999964237,,recognition_phase,1671093,recognition_phase,,49,,,,,old,0,0.7755102040816326,,,
null,,confidence_buffer,1671197,confidence_buffer,,null,,,,,,,,,,
6822.100000023842,,confidence,1678021,confidence,,52,,,,,,,,4,,
null,,confidence_buffer,1678126,confidence_buffer,,null,,,,,,,,,,
null,,thebreak,1678634,break,,null,,,,,,,,,,
4565.299999952316,,realistic_rating,1683201,realistic_rating,,52,Millstone,4,,,,,,,,
null,,confidence_buffer,1683310,confidence_buffer,,null,,,,,,,,,,
1330.0999999642372,,probe_rating,1684641,probe_rating,,50,,,2,1,,,,,,
null,,confidence_buffer,1684747,confidence_buffer,,null,,,,,,,,,,
888,,pt2_unique_rating,1685636,pt2_unique_rating,,51,,3,,,,,,,,
null,,confidence_buffer,1685740,confidence_buffer,,null,,,,,,,,,,
719.4000000357628,,pt2_memorable_rating,1686461,pt2_memorable_rating,,52,,4,,,,,,,,
null,,confidence_buffer,1686568,confidence_buffer,,null,,,,,,,,,,
2095.399999976158,,recognition_phase,1688665,recognition_phase,,49,,,,,old,1,0.78,,,
null,,confidence_buffer,1688778,confidence_buffer,,null,,,,,,,,,,
5414.699999988079,,confidence,1694194,confidence,,52,,,,,,,,4,,
null,,confidence_buffer,1694310,confidence_buffer,,null,,,,,,,,,,
null,,thebreak,1694815,break,,null,,,,,,,,,,
4371.699999988079,,realistic_rating,1699189,realistic_rating,,50,Gloucester,2,,,,,,,,
null,,confidence_buffer,1699302,confidence_buffer,,null,,,,,,,,,,
1706.300000011921,,pt2_unique_rating,1701009,pt2_unique_rating,,50,,2,,,,,,,,
null,,confidence_buffer,1701119,confidence_buffer,,null,,,,,,,,,,
1084.8999999761581,,pt2_memorable_rating,1702205,pt2_memorable_rating,,50,,2,,,,,,,,
null,,confidence_buffer,1702323,confidence_buffer,,null,,,,,,,,,,
1293.1000000238419,,recognition_phase,1703617,recognition_phase,,50,,,,,new,1,0.7843137254901961,,,
null,,confidence_buffer,1703731,confidence_buffer,,null,,,,,,,,,,
1374.8999999761581,,confidence,1705108,confidence,,51,,,,,,,,3,,
null,,confidence_buffer,1705215,confidence_buffer,,null,,,,,,,,,,
null,,thebreak,1705725,break,,null,,,,,,,,,,
2656.199999988079,,realistic_rating,1708383,realistic_rating,,49,East Ladera,1,,,,,,,,
null,,confidence_buffer,1708494,confidence_buffer,,null,,,,,,,,,,
7044.399999976158,,pt2_unique_rating,1715540,pt2_unique_rating,,50,,2,,,,,,,,
null,,confidence_buffer,1715644,confidence_buffer,,null,,,,,,,,,,
803.8999999761581,,pt2_memorable_rating,1716449,pt2_memorable_rating,,50,,2,,,,,,,,
null,,confidence_buffer,1716564,confidence_buffer,,null,,,,,,,,,,
1464,,recognition_phase,1718029,recognition_phase,,50,,,,,new,1,0.7884615384615384,,,
null,,confidence_buffer,1718145,confidence_buffer,,null,,,,,,,,,,
1776.3999999761581,,confidence,1719923,confidence,,52,,,,,,,,4,,
null,,confidence_buffer,1720036,confidence_buffer,,null,,,,,,,,,,
null,,thebreak,1720546,break,,null,,,,,,,,,,
6416.100000023842,,realistic_rating,1726964,realistic_rating,,50,Coralridge,2,,,,,,,,
null,,confidence_buffer,1727073,confidence_buffer,,null,,,,,,,,,,
757.2999999523163,,pt2_unique_rating,1727831,pt2_unique_rating,,51,,3,,,,,,,,
null,,confidence_buffer,1727944,confidence_buffer,,null,,,,,,,,,,
595.1000000238419,,pt2_memorable_rating,1728540,pt2_memorable_rating,,50,,2,,,,,,,,
null,,confidence_buffer,1728648,confidence_buffer,,null,,,,,,,,,,
1107.300000011921,,recognition_phase,1729757,recognition_phase,,50,,,,,new,1,0.7924528301886793,,,
null,,confidence_buffer,1729869,confidence_buffer,,null,,,,,,,,,,
1589.7999999523163,,confidence,1731460,confidence,,52,,,,,,,,4,,
null,,confidence_buffer,1731568,confidence_buffer,,null,,,,,,,,,,
null,,thebreak,1732076,break,,null,,,,,,,,,,
1733.300000011921,,realistic_rating,1733811,realistic_rating,,50,Baymarsh,2,,,,,,,,
null,,confidence_buffer,1733916,confidence_buffer,,null,,,,,,,,,,
1485.699999988079,,pt2_unique_rating,1735404,pt2_unique_rating,,50,,2,,,,,,,,
null,,confidence_buffer,1735512,confidence_buffer,,null,,,,,,,,,,
1219.0999999642372,,pt2_memorable_rating,1736733,pt2_memorable_rating,,51,,3,,,,,,,,
null,,confidence_buffer,1736848,confidence_buffer,,null,,,,,,,,,,
1322.3999999761581,,recognition_phase,1738172,recognition_phase,,49,,,,,old,1,0.7962962962962963,,,
null,,confidence_buffer,1738277,confidence_buffer,,null,,,,,,,,,,
2958.600000023842,,confidence,1741236,confidence,,52,,,,,,,,4,,
null,,confidence_buffer,1741339,confidence_buffer,,null,,,,,,,,,,
null,,thebreak,1741845,break,,null,,,,,,,,,,
1009.3000000119209,,realistic_rating,1742855,realistic_rating,,53,Delaware City,5,,,,,,,,
null,,confidence_buffer,1742970,confidence_buffer,,null,,,,,,,,,,
1037.5,,pt2_unique_rating,1744008,pt2_unique_rating,,51,,3,,,,,,,,
null,,confidence_buffer,1744116,confidence_buffer,,null,,,,,,,,,,
1544.699999988079,,pt2_memorable_rating,1745662,pt2_memorable_rating,,50,,2,,,,,,,,
null,,confidence_buffer,1745770,confidence_buffer,,null,,,,,,,,,,
4245.899999976158,,recognition_phase,1750018,recognition_phase,,50,,,,,new,1,0.8,,,
null,,confidence_buffer,1750122,confidence_buffer,,null,,,,,,,,,,
1356.199999988079,,confidence,1751480,confidence,,52,,,,,,,,4,,
null,,confidence_buffer,1751586,confidence_buffer,,null,,,,,,,,,,
null,,thebreak,1752092,break,,null,,,,,,,,,,
1951.300000011921,,realistic_rating,1754044,realistic_rating,,52,Racine,4,,,,,,,,
null,,confidence_buffer,1754153,confidence_buffer,,null,,,,,,,,,,
1241.2999999523163,,pt2_unique_rating,1755396,pt2_unique_rating,,51,,3,,,,,,,,
null,,confidence_buffer,1755507,confidence_buffer,,null,,,,,,,,,,
1292.300000011921,,pt2_memorable_rating,1756800,pt2_memorable_rating,,51,,3,,,,,,,,
null,,confidence_buffer,1756914,confidence_buffer,,null,,,,,,,,,,
1231.7000000476837,,recognition_phase,1758147,recognition_phase,,50,,,,,new,1,0.8035714285714286,,,
null,,confidence_buffer,1758263,confidence_buffer,,null,,,,,,,,,,
1699.800000011921,,confidence,1759964,confidence,,52,,,,,,,,4,,
null,,confidence_buffer,1760071,confidence_buffer,,null,,,,,,,,,,
null,,thebreak,1760572,break,,null,,,,,,,,,,
1480.800000011921,,realistic_rating,1762055,realistic_rating,,51,West Talora,3,,,,,,,,
null,,confidence_buffer,1762169,confidence_buffer,,null,,,,,,,,,,
1292.800000011921,,pt2_unique_rating,1763464,pt2_unique_rating,,50,,2,,,,,,,,
null,,confidence_buffer,1763568,confidence_buffer,,null,,,,,,,,,,
506.4000000357628,,pt2_memorable_rating,1764076,pt2_memorable_rating,,51,,3,,,,,,,,
null,,confidence_buffer,1764185,confidence_buffer,,null,,,,,,,,,,
1404.800000011921,,recognition_phase,1765591,recognition_phase,,50,,,,,new,0,0.7894736842105263,,,
null,,confidence_buffer,1765704,confidence_buffer,,null,,,,,,,,,,
1213.2999999523163,,confidence,1766918,confidence,,52,,,,,,,,4,,
null,,confidence_buffer,1767028,confidence_buffer,,null,,,,,,,,,,
null,,thebreak,1767533,break,,null,,,,,,,,,,
3619.199999988079,,realistic_rating,1771155,realistic_rating,,51,Montelake,3,,,,,,,,
null,,confidence_buffer,1771268,confidence_buffer,,null,,,,,,,,,,
1033.300000011921,,pt2_unique_rating,1772303,pt2_unique_rating,,50,,2,,,,,,,,
null,,confidence_buffer,1772419,confidence_buffer,,null,,,,,,,,,,
1396,,pt2_memorable_rating,1773817,pt2_memorable_rating,,49,,1,,,,,,,,
null,,confidence_buffer,1773922,confidence_buffer,,null,,,,,,,,,,
1669.6000000238419,,recognition_phase,1775593,recognition_phase,,50,,,,,new,0,0.7758620689655172,,,
null,,confidence_buffer,1775702,confidence_buffer,,null,,,,,,,,,,
1919.2000000476837,,confidence,1777622,confidence,,50,,,,,,,,2,,
null,,confidence_buffer,1777732,confidence_buffer,,null,,,,,,,,,,
null,,thebreak,1778241,break,,null,,,,,,,,,,
799.1999999880791,,realistic_rating,1779041,realistic_rating,,51,Athens,3,,,,,,,,
null,,confidence_buffer,1779143,confidence_buffer,,null,,,,,,,,,,
1098.300000011921,,pt2_unique_rating,1780242,pt2_unique_rating,,52,,4,,,,,,,,
null,,confidence_buffer,1780348,confidence_buffer,,null,,,,,,,,,,
945.1999999880791,,pt2_memorable_rating,1781294,pt2_memorable_rating,,51,,3,,,,,,,,
null,,confidence_buffer,1781403,confidence_buffer,,null,,,,,,,,,,
1458.5,,recognition_phase,1782863,recognition_phase,,50,,,,,new,0,0.7627118644067796,,,
null,,confidence_buffer,1782971,confidence_buffer,,null,,,,,,,,,,
3301.5,,confidence,1786274,confidence,,52,,,,,,,,4,,
null,,confidence_buffer,1786382,confidence_buffer,,null,,,,,,,,,,
null,,thebreak,1786891,break,,null,,,,,,,,,,
1085.800000011921,,realistic_rating,1787979,realistic_rating,,51,Newport,3,,,,,,,,
null,,confidence_buffer,1788085,confidence_buffer,,null,,,,,,,,,,
966.7999999523163,,pt2_unique_rating,1789053,pt2_unique_rating,,50,,2,,,,,,,,
null,,confidence_buffer,1789165,confidence_buffer,,null,,,,,,,,,,
1507.5,,pt2_memorable_rating,1790674,pt2_memorable_rating,,50,,2,,,,,,,,
null,,confidence_buffer,1790785,confidence_buffer,,null,,,,,,,,,,
1544.5,,recognition_phase,1792330,recognition_phase,,49,,,,,old,0,0.75,,,
null,,confidence_buffer,1792438,confidence_buffer,,null,,,,,,,,,,
1750.1000000238419,,confidence,1794190,confidence,,51,,,,,,,,3,,
null,,confidence_buffer,1794305,confidence_buffer,,null,,,,,,,,,,
null,,thebreak,1794820,break,,null,,,,,,,,,,
157117.59999996424,,thank_you,1951967,all_done,,32,,,,,,,,,12,1
