rt,responses,trial_type,time_elapsed,stimulus,button_pressed,key_press,name_trial,city_type,rating,probe,probe_accuracy,response,correct,accuracy,problems,smooth,distraction,strategies,familiar,memorable,unique,realistic,similar,comments
27457.29999999999,{worker_id:5641ce9017bdbe000b2a0a3b},id_enter,27462,,,,,,,,,,,,,,,,,,,,,
7193.600000000006,,fullscreen,34662,fullscreen,0,,,,,,,,,,,,,,,,,,,
3010.600000000006,,intro_0,37680,instruct,,32,,,,,,,,,,,,,,,,,,
7004.5,,intro_1,44686,instruct,,32,,,,,,,,,,,,,,,,,,
5614,,intro_2,50301,instruct,,32,,,,,,,,,,,,,,,,,,
null,,instruct_dir_4,51814,instruct,,null,,,,,,,,,,,,,,,,,,
null,,thebreak,52324,break,,null,,,,,,,,,,,,,,,,,,
9716.100000000006,,familiar_rating,62042,Fictional_Cities_List/img_manmade_03.png,,49,Fictional_Cities_List/img_manmade_03.png,MM,1,,,,,,,,,,,,,,,
null,,confidence_buffer,62145,confidence_buffer,,null,,,,,,,,,,,,,,,,,,
3775.5,,probe_rating,65923,probe_rating,,52,,,,4,1,,,,,,,,,,,,,
null,,confidence_buffer,66038,confidence_buffer,,null,,,,,,,,,,,,,,,,,,
9022.099999999977,,unique_rating,75062,Fictional_Cities_List/img_manmade_03.png,,51,,,3,,,,,,,,,,,,,,,
null,,confidence_buffer,75168,confidence_buffer,,null,,,,,,,,,,,,,,,,,,
5106,,memorable_rating,80275,Fictional_Cities_List/img_manmade_03.png,,51,,,3,,,,,,,,,,,,,,,
null,,confidence_buffer,80380,confidence_buffer,,null,,,,,,,,,,,,,,,,,,
null,,thebreak,80889,break,,null,,,,,,,,,,,,,,,,,,
3440.0999999999767,,familiar_rating,84330,US_Cities_List/mm_bisbee.png,,49,US_Cities_List/mm_bisbee.png,MM,1,,,,,,,,,,,,,,,
null,,confidence_buffer,84438,confidence_buffer,,null,,,,,,,,,,,,,,,,,,
2547.2000000000116,,unique_rating,86987,US_Cities_List/mm_bisbee.png,,50,,,2,,,,,,,,,,,,,,,
null,,confidence_buffer,87093,confidence_buffer,,null,,,,,,,,,,,,,,,,,,
1728.3000000000175,,memorable_rating,88823,US_Cities_List/mm_bisbee.png,,50,,,2,,,,,,,,,,,,,,,
null,,confidence_buffer,88936,confidence_buffer,,null,,,,,,,,,,,,,,,,,,
null,,thebreak,89438,break,,null,,,,,,,,,,,,,,,,,,
4422.600000000006,,familiar_rating,93862,US_Cities_List/mm_abilene.png,,49,US_Cities_List/mm_abilene.png,MM,1,,,,,,,,,,,,,,,
null,,confidence_buffer,93967,confidence_buffer,,null,,,,,,,,,,,,,,,,,,
2416.7999999999884,,probe_rating,96385,probe_rating,,51,,,,3,1,,,,,,,,,,,,,
null,,confidence_buffer,96503,confidence_buffer,,null,,,,,,,,,,,,,,,,,,
2563.600000000006,,unique_rating,99068,US_Cities_List/mm_abilene.png,,50,,,2,,,,,,,,,,,,,,,
null,,confidence_buffer,99173,confidence_buffer,,null,,,,,,,,,,,,,,,,,,
2991.399999999994,,memorable_rating,102166,US_Cities_List/mm_abilene.png,,51,,,3,,,,,,,,,,,,,,,
null,,confidence_buffer,102269,confidence_buffer,,null,,,,,,,,,,,,,,,,,,
null,,thebreak,102782,break,,null,,,,,,,,,,,,,,,,,,
3260.5,,familiar_rating,106045,Fictional_Cities_List/img_manmade_11.png,,49,Fictional_Cities_List/img_manmade_11.png,MM,1,,,,,,,,,,,,,,,
null,,confidence_buffer,106158,confidence_buffer,,null,,,,,,,,,,,,,,,,,,
5414.899999999994,,unique_rating,111574,Fictional_Cities_List/img_manmade_11.png,,50,,,2,,,,,,,,,,,,,,,
null,,confidence_buffer,111677,confidence_buffer,,null,,,,,,,,,,,,,,,,,,
1502.7000000000116,,memorable_rating,113181,Fictional_Cities_List/img_manmade_11.png,,50,,,2,,,,,,,,,,,,,,,
null,,confidence_buffer,113286,confidence_buffer,,null,,,,,,,,,,,,,,,,,,
null,,thebreak,113799,break,,null,,,,,,,,,,,,,,,,,,
3815.199999999997,,familiar_rating,117616,Fictional_Cities_List/img_manmade_06.png,,49,Fictional_Cities_List/img_manmade_06.png,MM,1,,,,,,,,,,,,,,,
null,,confidence_buffer,117726,confidence_buffer,,null,,,,,,,,,,,,,,,,,,
1642.9000000000233,,probe_rating,119370,probe_rating,,53,,,,5,1,,,,,,,,,,,,,
null,,confidence_buffer,119478,confidence_buffer,,null,,,,,,,,,,,,,,,,,,
7102.5,,unique_rating,126582,Fictional_Cities_List/img_manmade_06.png,,49,,,1,,,,,,,,,,,,,,,
null,,confidence_buffer,126700,confidence_buffer,,null,,,,,,,,,,,,,,,,,,
1130.7000000000116,,memorable_rating,127833,Fictional_Cities_List/img_manmade_06.png,,49,,,1,,,,,,,,,,,,,,,
null,,confidence_buffer,127939,confidence_buffer,,null,,,,,,,,,,,,,,,,,,
null,,thebreak,128447,break,,null,,,,,,,,,,,,,,,,,,
2991.2000000000116,,familiar_rating,131439,US_Cities_List/mm_cornwall.png,,49,US_Cities_List/mm_cornwall.png,MM,1,,,,,,,,,,,,,,,
null,,confidence_buffer,131553,confidence_buffer,,null,,,,,,,,,,,,,,,,,,
1363.8000000000466,,unique_rating,132918,US_Cities_List/mm_cornwall.png,,50,,,2,,,,,,,,,,,,,,,
null,,confidence_buffer,133025,confidence_buffer,,null,,,,,,,,,,,,,,,,,,
2464.6999999999534,,memorable_rating,135492,US_Cities_List/mm_cornwall.png,,49,,,1,,,,,,,,,,,,,,,
null,,confidence_buffer,135597,confidence_buffer,,null,,,,,,,,,,,,,,,,,,
null,,thebreak,136108,break,,null,,,,,,,,,,,,,,,,,,
2236.7999999999884,,familiar_rating,138346,Fictional_Cities_List/img_manmade_14.png,,49,Fictional_Cities_List/img_manmade_14.png,MM,1,,,,,,,,,,,,,,,
null,,confidence_buffer,138451,confidence_buffer,,null,,,,,,,,,,,,,,,,,,
2856.1999999999534,,unique_rating,141308,Fictional_Cities_List/img_manmade_14.png,,50,,,2,,,,,,,,,,,,,,,
null,,confidence_buffer,141421,confidence_buffer,,null,,,,,,,,,,,,,,,,,,
1610.9000000000233,,memorable_rating,143033,Fictional_Cities_List/img_manmade_14.png,,50,,,2,,,,,,,,,,,,,,,
null,,confidence_buffer,143137,confidence_buffer,,null,,,,,,,,,,,,,,,,,,
null,,thebreak,143652,break,,null,,,,,,,,,,,,,,,,,,
4932.099999999977,,familiar_rating,148586,Fictional_Cities_List/img_manmade_05.png,,51,Fictional_Cities_List/img_manmade_05.png,MM,3,,,,,,,,,,,,,,,
null,,confidence_buffer,148692,confidence_buffer,,null,,,,,,,,,,,,,,,,,,
4047.5,,unique_rating,152741,Fictional_Cities_List/img_manmade_05.png,,52,,,4,,,,,,,,,,,,,,,
null,,confidence_buffer,152854,confidence_buffer,,null,,,,,,,,,,,,,,,,,,
1522,,memorable_rating,154378,Fictional_Cities_List/img_manmade_05.png,,51,,,3,,,,,,,,,,,,,,,
null,,confidence_buffer,154494,confidence_buffer,,null,,,,,,,,,,,,,,,,,,
null,,thebreak,154999,break,,null,,,,,,,,,,,,,,,,,,
3202.4000000000233,,familiar_rating,158203,Fictional_Cities_List/img_natural_03.png,,49,Fictional_Cities_List/img_natural_03.png,NAT,1,,,,,,,,,,,,,,,
null,,confidence_buffer,158306,confidence_buffer,,null,,,,,,,,,,,,,,,,,,
4266.200000000012,,unique_rating,162573,Fictional_Cities_List/img_natural_03.png,,52,,,4,,,,,,,,,,,,,,,
null,,confidence_buffer,162681,confidence_buffer,,null,,,,,,,,,,,,,,,,,,
1797.2000000000116,,memorable_rating,164480,Fictional_Cities_List/img_natural_03.png,,51,,,3,,,,,,,,,,,,,,,
null,,confidence_buffer,164588,confidence_buffer,,null,,,,,,,,,,,,,,,,,,
null,,thebreak,165097,break,,null,,,,,,,,,,,,,,,,,,
3032.2000000000116,,familiar_rating,168130,US_Cities_List/nat_boulder.png,,49,US_Cities_List/nat_boulder.png,NAT,1,,,,,,,,,,,,,,,
null,,confidence_buffer,168247,confidence_buffer,,null,,,,,,,,,,,,,,,,,,
1573,,unique_rating,169822,US_Cities_List/nat_boulder.png,,49,,,1,,,,,,,,,,,,,,,
null,,confidence_buffer,169929,confidence_buffer,,null,,,,,,,,,,,,,,,,,,
4760.599999999977,,memorable_rating,174691,US_Cities_List/nat_boulder.png,,49,,,1,,,,,,,,,,,,,,,
null,,confidence_buffer,174809,confidence_buffer,,null,,,,,,,,,,,,,,,,,,
null,,thebreak,175318,break,,null,,,,,,,,,,,,,,,,,,
1561.5,,familiar_rating,176881,US_Cities_List/mm_peoria.png,,49,US_Cities_List/mm_peoria.png,MM,1,,,,,,,,,,,,,,,
null,,confidence_buffer,176988,confidence_buffer,,null,,,,,,,,,,,,,,,,,,
1038.7000000000116,,probe_rating,178028,probe_rating,,50,,,,2,1,,,,,,,,,,,,,
null,,confidence_buffer,178143,confidence_buffer,,null,,,,,,,,,,,,,,,,,,
2878.7999999999884,,unique_rating,181023,US_Cities_List/mm_peoria.png,,51,,,3,,,,,,,,,,,,,,,
null,,confidence_buffer,181125,confidence_buffer,,null,,,,,,,,,,,,,,,,,,
2298.7999999999884,,memorable_rating,183425,US_Cities_List/mm_peoria.png,,50,,,2,,,,,,,,,,,,,,,
null,,confidence_buffer,183528,confidence_buffer,,null,,,,,,,,,,,,,,,,,,
null,,thebreak,184043,break,,null,,,,,,,,,,,,,,,,,,
1379.3000000000466,,familiar_rating,185424,Fictional_Cities_List/img_natural_05.png,,49,Fictional_Cities_List/img_natural_05.png,NAT,1,,,,,,,,,,,,,,,
null,,confidence_buffer,185529,confidence_buffer,,null,,,,,,,,,,,,,,,,,,
1950.9000000000233,,unique_rating,187482,Fictional_Cities_List/img_natural_05.png,,50,,,2,,,,,,,,,,,,,,,
null,,confidence_buffer,187598,confidence_buffer,,null,,,,,,,,,,,,,,,,,,
1166.4000000000233,,memorable_rating,188766,Fictional_Cities_List/img_natural_05.png,,50,,,2,,,,,,,,,,,,,,,
null,,confidence_buffer,188881,confidence_buffer,,null,,,,,,,,,,,,,,,,,,
null,,thebreak,189384,break,,null,,,,,,,,,,,,,,,,,,
2160.0999999999767,,familiar_rating,191545,Fictional_Cities_List/img_manmade_04.png,,49,Fictional_Cities_List/img_manmade_04.png,MM,1,,,,,,,,,,,,,,,
null,,confidence_buffer,191660,confidence_buffer,,null,,,,,,,,,,,,,,,,,,
1493.9000000000233,,unique_rating,193156,Fictional_Cities_List/img_manmade_04.png,,50,,,2,,,,,,,,,,,,,,,
null,,confidence_buffer,193265,confidence_buffer,,null,,,,,,,,,,,,,,,,,,
955,,memorable_rating,194222,Fictional_Cities_List/img_manmade_04.png,,50,,,2,,,,,,,,,,,,,,,
null,,confidence_buffer,194336,confidence_buffer,,null,,,,,,,,,,,,,,,,,,
null,,thebreak,194842,break,,null,,,,,,,,,,,,,,,,,,
1544.5,,familiar_rating,196388,US_Cities_List/nat_peoria.png,,49,US_Cities_List/nat_peoria.png,NAT,1,,,,,,,,,,,,,,,
null,,confidence_buffer,196490,confidence_buffer,,null,,,,,,,,,,,,,,,,,,
875.7000000000116,,unique_rating,197367,US_Cities_List/nat_peoria.png,,49,,,1,,,,,,,,,,,,,,,
null,,confidence_buffer,197475,confidence_buffer,,null,,,,,,,,,,,,,,,,,,
1345.0999999999767,,memorable_rating,198821,US_Cities_List/nat_peoria.png,,49,,,1,,,,,,,,,,,,,,,
null,,confidence_buffer,198926,confidence_buffer,,null,,,,,,,,,,,,,,,,,,
null,,thebreak,199430,break,,null,,,,,,,,,,,,,,,,,,
2814.2000000000116,,familiar_rating,202246,Fictional_Cities_List/img_manmade_07.png,,49,Fictional_Cities_List/img_manmade_07.png,MM,1,,,,,,,,,,,,,,,
null,,confidence_buffer,202352,confidence_buffer,,null,,,,,,,,,,,,,,,,,,
1040.2000000000116,,unique_rating,203393,Fictional_Cities_List/img_manmade_07.png,,49,,,1,,,,,,,,,,,,,,,
null,,confidence_buffer,203500,confidence_buffer,,null,,,,,,,,,,,,,,,,,,
1532.2000000000116,,memorable_rating,205034,Fictional_Cities_List/img_manmade_07.png,,49,,,1,,,,,,,,,,,,,,,
null,,confidence_buffer,205140,confidence_buffer,,null,,,,,,,,,,,,,,,,,,
null,,thebreak,205651,break,,null,,,,,,,,,,,,,,,,,,
6376.800000000047,,familiar_rating,212029,US_Cities_List/nat_coeurdalene.png,,49,US_Cities_List/nat_coeurdalene.png,NAT,1,,,,,,,,,,,,,,,
null,,confidence_buffer,212135,confidence_buffer,,null,,,,,,,,,,,,,,,,,,
2561.7999999999884,,unique_rating,214698,US_Cities_List/nat_coeurdalene.png,,50,,,2,,,,,,,,,,,,,,,
null,,confidence_buffer,214806,confidence_buffer,,null,,,,,,,,,,,,,,,,,,
1019.2999999999884,,memorable_rating,215828,US_Cities_List/nat_coeurdalene.png,,50,,,2,,,,,,,,,,,,,,,
null,,confidence_buffer,215942,confidence_buffer,,null,,,,,,,,,,,,,,,,,,
null,,thebreak,216445,break,,null,,,,,,,,,,,,,,,,,,
1254,,familiar_rating,217701,Fictional_Cities_List/img_natural_11.png,,49,Fictional_Cities_List/img_natural_11.png,NAT,1,,,,,,,,,,,,,,,
null,,confidence_buffer,217805,confidence_buffer,,null,,,,,,,,,,,,,,,,,,
3009.5,,unique_rating,220816,Fictional_Cities_List/img_natural_11.png,,50,,,2,,,,,,,,,,,,,,,
null,,confidence_buffer,220923,confidence_buffer,,null,,,,,,,,,,,,,,,,,,
1076.100000000035,,memorable_rating,222000,Fictional_Cities_List/img_natural_11.png,,50,,,2,,,,,,,,,,,,,,,
null,,confidence_buffer,222115,confidence_buffer,,null,,,,,,,,,,,,,,,,,,
null,,thebreak,222625,break,,null,,,,,,,,,,,,,,,,,,
3370.8000000000466,,familiar_rating,225997,Fictional_Cities_List/img_natural_09.png,,49,Fictional_Cities_List/img_natural_09.png,NAT,1,,,,,,,,,,,,,,,
null,,confidence_buffer,226111,confidence_buffer,,null,,,,,,,,,,,,,,,,,,
1937.1999999999534,,unique_rating,228049,Fictional_Cities_List/img_natural_09.png,,50,,,2,,,,,,,,,,,,,,,
null,,confidence_buffer,228153,confidence_buffer,,null,,,,,,,,,,,,,,,,,,
830.2999999999884,,memorable_rating,228985,Fictional_Cities_List/img_natural_09.png,,50,,,2,,,,,,,,,,,,,,,
null,,confidence_buffer,229091,confidence_buffer,,null,,,,,,,,,,,,,,,,,,
null,,thebreak,229594,break,,null,,,,,,,,,,,,,,,,,,
4289.099999999977,,familiar_rating,233885,Fictional_Cities_List/img_natural_12.png,,49,Fictional_Cities_List/img_natural_12.png,NAT,1,,,,,,,,,,,,,,,
null,,confidence_buffer,233988,confidence_buffer,,null,,,,,,,,,,,,,,,,,,
1628.0999999999767,,unique_rating,235618,Fictional_Cities_List/img_natural_12.png,,50,,,2,,,,,,,,,,,,,,,
null,,confidence_buffer,235720,confidence_buffer,,null,,,,,,,,,,,,,,,,,,
662,,memorable_rating,236383,Fictional_Cities_List/img_natural_12.png,,50,,,2,,,,,,,,,,,,,,,
null,,confidence_buffer,236487,confidence_buffer,,null,,,,,,,,,,,,,,,,,,
null,,thebreak,236989,break,,null,,,,,,,,,,,,,,,,,,
1340.0999999999767,,familiar_rating,238331,US_Cities_List/mm_delawarecity.png,,49,US_Cities_List/mm_delawarecity.png,MM,1,,,,,,,,,,,,,,,
null,,confidence_buffer,238435,confidence_buffer,,null,,,,,,,,,,,,,,,,,,
1625.0999999999767,,unique_rating,240062,US_Cities_List/mm_delawarecity.png,,49,,,1,,,,,,,,,,,,,,,
null,,confidence_buffer,240167,confidence_buffer,,null,,,,,,,,,,,,,,,,,,
807.1000000000349,,memorable_rating,240976,US_Cities_List/mm_delawarecity.png,,49,,,1,,,,,,,,,,,,,,,
null,,confidence_buffer,241080,confidence_buffer,,null,,,,,,,,,,,,,,,,,,
null,,thebreak,241583,break,,null,,,,,,,,,,,,,,,,,,
1526,,familiar_rating,243111,US_Cities_List/mm_coeurdalene.png,,49,US_Cities_List/mm_coeurdalene.png,MM,1,,,,,,,,,,,,,,,
null,,confidence_buffer,243220,confidence_buffer,,null,,,,,,,,,,,,,,,,,,
788.3999999999651,,unique_rating,244010,US_Cities_List/mm_coeurdalene.png,,49,,,1,,,,,,,,,,,,,,,
null,,confidence_buffer,244125,confidence_buffer,,null,,,,,,,,,,,,,,,,,,
1138.2999999999884,,memorable_rating,245264,US_Cities_List/mm_coeurdalene.png,,49,,,1,,,,,,,,,,,,,,,
null,,confidence_buffer,245375,confidence_buffer,,null,,,,,,,,,,,,,,,,,,
null,,thebreak,245881,break,,null,,,,,,,,,,,,,,,,,,
1925.7000000000116,,familiar_rating,247808,US_Cities_List/nat_healdsburg.png,,49,US_Cities_List/nat_healdsburg.png,NAT,1,,,,,,,,,,,,,,,
null,,confidence_buffer,247917,confidence_buffer,,null,,,,,,,,,,,,,,,,,,
870,,unique_rating,248789,US_Cities_List/nat_healdsburg.png,,49,,,1,,,,,,,,,,,,,,,
null,,confidence_buffer,248892,confidence_buffer,,null,,,,,,,,,,,,,,,,,,
694.5999999999767,,memorable_rating,249587,US_Cities_List/nat_healdsburg.png,,49,,,1,,,,,,,,,,,,,,,
null,,confidence_buffer,249691,confidence_buffer,,null,,,,,,,,,,,,,,,,,,
null,,thebreak,250204,break,,null,,,,,,,,,,,,,,,,,,
2103.100000000035,,familiar_rating,252309,Fictional_Cities_List/img_natural_08.png,,49,Fictional_Cities_List/img_natural_08.png,NAT,1,,,,,,,,,,,,,,,
null,,confidence_buffer,252424,confidence_buffer,,null,,,,,,,,,,,,,,,,,,
2626.4000000000233,,unique_rating,255052,Fictional_Cities_List/img_natural_08.png,,51,,,3,,,,,,,,,,,,,,,
null,,confidence_buffer,255159,confidence_buffer,,null,,,,,,,,,,,,,,,,,,
6184.200000000012,,memorable_rating,261344,Fictional_Cities_List/img_natural_08.png,,51,,,3,,,,,,,,,,,,,,,
null,,confidence_buffer,261451,confidence_buffer,,null,,,,,,,,,,,,,,,,,,
null,,thebreak,261961,break,,null,,,,,,,,,,,,,,,,,,
11015.299999999988,,familiar_rating,272977,Fictional_Cities_List/img_natural_02.png,,49,Fictional_Cities_List/img_natural_02.png,NAT,1,,,,,,,,,,,,,,,
null,,confidence_buffer,273086,confidence_buffer,,null,,,,,,,,,,,,,,,,,,
5424.299999999988,,unique_rating,278511,Fictional_Cities_List/img_natural_02.png,,50,,,2,,,,,,,,,,,,,,,
null,,confidence_buffer,278615,confidence_buffer,,null,,,,,,,,,,,,,,,,,,
2037.2000000000116,,memorable_rating,280654,Fictional_Cities_List/img_natural_02.png,,50,,,2,,,,,,,,,,,,,,,
null,,confidence_buffer,280757,confidence_buffer,,null,,,,,,,,,,,,,,,,,,
null,,thebreak,281259,break,,null,,,,,,,,,,,,,,,,,,
18804.400000000023,,familiar_rating,300065,US_Cities_List/mm_boulder.png,,49,US_Cities_List/mm_boulder.png,MM,1,,,,,,,,,,,,,,,
null,,confidence_buffer,300181,confidence_buffer,,null,,,,,,,,,,,,,,,,,,
1234.5,,unique_rating,301416,US_Cities_List/mm_boulder.png,,49,,,1,,,,,,,,,,,,,,,
null,,confidence_buffer,301523,confidence_buffer,,null,,,,,,,,,,,,,,,,,,
784.2000000000116,,memorable_rating,302309,US_Cities_List/mm_boulder.png,,49,,,1,,,,,,,,,,,,,,,
null,,confidence_buffer,302413,confidence_buffer,,null,,,,,,,,,,,,,,,,,,
null,,thebreak,302917,break,,null,,,,,,,,,,,,,,,,,,
1492.8000000000466,,familiar_rating,304412,Fictional_Cities_List/img_natural_06.png,,49,Fictional_Cities_List/img_natural_06.png,NAT,1,,,,,,,,,,,,,,,
null,,confidence_buffer,304520,confidence_buffer,,null,,,,,,,,,,,,,,,,,,
1140.7999999999884,,unique_rating,305664,Fictional_Cities_List/img_natural_06.png,,49,,,1,,,,,,,,,,,,,,,
null,,confidence_buffer,305771,confidence_buffer,,null,,,,,,,,,,,,,,,,,,
755.0999999999767,,memorable_rating,306528,Fictional_Cities_List/img_natural_06.png,,49,,,1,,,,,,,,,,,,,,,
null,,confidence_buffer,306642,confidence_buffer,,null,,,,,,,,,,,,,,,,,,
null,,thebreak,307144,break,,null,,,,,,,,,,,,,,,,,,
1030.2999999999884,,familiar_rating,308175,US_Cities_List/nat_bisbee.png,,49,US_Cities_List/nat_bisbee.png,NAT,1,,,,,,,,,,,,,,,
null,,confidence_buffer,308282,confidence_buffer,,null,,,,,,,,,,,,,,,,,,
1796.899999999965,,probe_rating,310080,probe_rating,,52,,,,4,1,,,,,,,,,,,,,
null,,confidence_buffer,310190,confidence_buffer,,null,,,,,,,,,,,,,,,,,,
1739.8000000000466,,unique_rating,311932,US_Cities_List/nat_bisbee.png,,50,,,2,,,,,,,,,,,,,,,
null,,confidence_buffer,312037,confidence_buffer,,null,,,,,,,,,,,,,,,,,,
726.6000000000349,,memorable_rating,312765,US_Cities_List/nat_bisbee.png,,50,,,2,,,,,,,,,,,,,,,
null,,confidence_buffer,312875,confidence_buffer,,null,,,,,,,,,,,,,,,,,,
null,,thebreak,313379,break,,null,,,,,,,,,,,,,,,,,,
1568.5999999999767,,familiar_rating,314949,US_Cities_List/nat_westpalmbeach.png,,49,US_Cities_List/nat_westpalmbeach.png,NAT,1,,,,,,,,,,,,,,,
null,,confidence_buffer,315056,confidence_buffer,,null,,,,,,,,,,,,,,,,,,
1339.0999999999767,,unique_rating,316396,US_Cities_List/nat_westpalmbeach.png,,50,,,2,,,,,,,,,,,,,,,
null,,confidence_buffer,316505,confidence_buffer,,null,,,,,,,,,,,,,,,,,,
1138.2999999999884,,memorable_rating,317645,US_Cities_List/nat_westpalmbeach.png,,50,,,2,,,,,,,,,,,,,,,
null,,confidence_buffer,317749,confidence_buffer,,null,,,,,,,,,,,,,,,,,,
null,,thebreak,318260,break,,null,,,,,,,,,,,,,,,,,,
1275,,familiar_rating,319536,US_Cities_List/mm_okoboji.png,,49,US_Cities_List/mm_okoboji.png,MM,1,,,,,,,,,,,,,,,
null,,confidence_buffer,319642,confidence_buffer,,null,,,,,,,,,,,,,,,,,,
598.4000000000233,,unique_rating,320242,US_Cities_List/mm_okoboji.png,,49,,,1,,,,,,,,,,,,,,,
null,,confidence_buffer,320344,confidence_buffer,,null,,,,,,,,,,,,,,,,,,
1082.5999999999767,,probe_rating,321428,probe_rating,,52,,,,4,1,,,,,,,,,,,,,
null,,confidence_buffer,321532,confidence_buffer,,null,,,,,,,,,,,,,,,,,,
995.7999999999884,,memorable_rating,322529,US_Cities_List/mm_okoboji.png,,49,,,1,,,,,,,,,,,,,,,
null,,confidence_buffer,322633,confidence_buffer,,null,,,,,,,,,,,,,,,,,,
null,,thebreak,323143,break,,null,,,,,,,,,,,,,,,,,,
1606.0999999999767,,familiar_rating,324751,US_Cities_List/nat_abilene.png,,49,US_Cities_List/nat_abilene.png,NAT,1,,,,,,,,,,,,,,,
null,,confidence_buffer,324856,confidence_buffer,,null,,,,,,,,,,,,,,,,,,
1061.9000000000233,,unique_rating,325919,US_Cities_List/nat_abilene.png,,49,,,1,,,,,,,,,,,,,,,
null,,confidence_buffer,326025,confidence_buffer,,null,,,,,,,,,,,,,,,,,,
514.7999999999884,,memorable_rating,326541,US_Cities_List/nat_abilene.png,,49,,,1,,,,,,,,,,,,,,,
null,,confidence_buffer,326659,confidence_buffer,,null,,,,,,,,,,,,,,,,,,
null,,thebreak,327161,break,,null,,,,,,,,,,,,,,,,,,
3013,,intro_0,330176,instruct,,32,,,,,,,,,,,,,,,,,,
5615,,intro_1,335791,instruct,,32,,,,,,,,,,,,,,,,,,
19749.70000000001,,intro_2,355542,instruct,,32,,,,,,,,,,,,,,,,,,
null,,instruct_dir_4,357052,instruct,,null,,,,,,,,,,,,,,,,,,
9306.599999999977,,realistic_rating,366359,US_Cities_List/mm_cornwall.png,,53,US_Cities_List/mm_cornwall.png,MM,5,,,,,,,,,,,,,,,
null,,confidence_buffer,366476,confidence_buffer,,null,,,,,,,,,,,,,,,,,,
7920.299999999988,,pt2_unique_rating,374398,US_Cities_List/mm_cornwall.png,,49,,,1,,,,,,,,,,,,,,,
null,,confidence_buffer,374512,confidence_buffer,,null,,,,,,,,,,,,,,,,,,
1358.0999999999767,,probe_rating,375872,probe_rating,,53,,,,5,1,,,,,,,,,,,,,
null,,confidence_buffer,375987,confidence_buffer,,null,,,,,,,,,,,,,,,,,,
1077,,pt2_memorable_rating,377065,US_Cities_List/mm_cornwall.png,,49,,,1,,,,,,,,,,,,,,,
null,,confidence_buffer,377175,confidence_buffer,,null,,,,,,,,,,,,,,,,,,
2413.5999999999767,,recognition_phase,379590,US_Cities_List/mm_cornwall.png,,49,,,,,,old,1,1,,,,,,,,,,
null,,confidence_buffer,379696,confidence_buffer,,null,,,,,,,,,,,,,,,,,,
null,,thebreak,380197,break,,null,,,,,,,,,,,,,,,,,,
9129.200000000012,,realistic_rating,389327,US_Cities_List/nat_carmel.png,,52,US_Cities_List/nat_carmel.png,NAT,4,,,,,,,,,,,,,,,
null,,confidence_buffer,389438,confidence_buffer,,null,,,,,,,,,,,,,,,,,,
2186.0999999999767,,pt2_unique_rating,391626,US_Cities_List/nat_carmel.png,,51,,,3,,,,,,,,,,,,,,,
null,,confidence_buffer,391736,confidence_buffer,,null,,,,,,,,,,,,,,,,,,
2189.2000000000116,,pt2_memorable_rating,393927,US_Cities_List/nat_carmel.png,,50,,,2,,,,,,,,,,,,,,,
null,,confidence_buffer,394035,confidence_buffer,,null,,,,,,,,,,,,,,,,,,
2661.5999999999767,,recognition_phase,396698,US_Cities_List/nat_carmel.png,,52,,,,,,new,1,1,,,,,,,,,,
null,,confidence_buffer,396803,confidence_buffer,,null,,,,,,,,,,,,,,,,,,
null,,thebreak,397315,break,,null,,,,,,,,,,,,,,,,,,
4822.5,,realistic_rating,402139,Fictional_Cities_List/img_natural_11.png,,53,Fictional_Cities_List/img_natural_11.png,NAT,5,,,,,,,,,,,,,,,
null,,confidence_buffer,402244,confidence_buffer,,null,,,,,,,,,,,,,,,,,,
1634.3000000000466,,pt2_unique_rating,403880,Fictional_Cities_List/img_natural_11.png,,50,,,2,,,,,,,,,,,,,,,
null,,confidence_buffer,403983,confidence_buffer,,null,,,,,,,,,,,,,,,,,,
1749.5,,pt2_memorable_rating,405734,Fictional_Cities_List/img_natural_11.png,,50,,,2,,,,,,,,,,,,,,,
null,,confidence_buffer,405843,confidence_buffer,,null,,,,,,,,,,,,,,,,,,
2342.6999999999534,,recognition_phase,408187,Fictional_Cities_List/img_natural_11.png,,49,,,,,,old,1,1,,,,,,,,,,
null,,confidence_buffer,408296,confidence_buffer,,null,,,,,,,,,,,,,,,,,,
null,,thebreak,408802,break,,null,,,,,,,,,,,,,,,,,,
10590.5,,realistic_rating,419394,Fictional_Cities_List/img_manmade_08.png,,50,Fictional_Cities_List/img_manmade_08.png,MM,2,,,,,,,,,,,,,,,
null,,confidence_buffer,419498,confidence_buffer,,null,,,,,,,,,,,,,,,,,,
1588.9000000000233,,pt2_unique_rating,421089,Fictional_Cities_List/img_manmade_08.png,,50,,,2,,,,,,,,,,,,,,,
null,,confidence_buffer,421193,confidence_buffer,,null,,,,,,,,,,,,,,,,,,
1501.0999999999767,,pt2_memorable_rating,422696,Fictional_Cities_List/img_manmade_08.png,,50,,,2,,,,,,,,,,,,,,,
null,,confidence_buffer,422806,confidence_buffer,,null,,,,,,,,,,,,,,,,,,
2031.2000000000698,,recognition_phase,424839,Fictional_Cities_List/img_manmade_08.png,,52,,,,,,new,1,1,,,,,,,,,,
null,,confidence_buffer,424952,confidence_buffer,,null,,,,,,,,,,,,,,,,,,
null,,thebreak,425457,break,,null,,,,,,,,,,,,,,,,,,
9278.599999999977,,realistic_rating,434737,US_Cities_List/mm_hilo.png,,52,US_Cities_List/mm_hilo.png,MM,4,,,,,,,,,,,,,,,
null,,confidence_buffer,434843,confidence_buffer,,null,,,,,,,,,,,,,,,,,,
3268.4000000000233,,pt2_unique_rating,438113,US_Cities_List/mm_hilo.png,,50,,,2,,,,,,,,,,,,,,,
null,,confidence_buffer,438221,confidence_buffer,,null,,,,,,,,,,,,,,,,,,
922.0999999999767,,pt2_memorable_rating,439144,US_Cities_List/mm_hilo.png,,50,,,2,,,,,,,,,,,,,,,
null,,confidence_buffer,439256,confidence_buffer,,null,,,,,,,,,,,,,,,,,,
1823.4000000000233,,recognition_phase,441081,US_Cities_List/mm_hilo.png,,52,,,,,,new,1,1,,,,,,,,,,
null,,confidence_buffer,441189,confidence_buffer,,null,,,,,,,,,,,,,,,,,,
null,,thebreak,441690,break,,null,,,,,,,,,,,,,,,,,,
7157.400000000023,,realistic_rating,448850,US_Cities_List/mm_westpalmbeach.png,,51,US_Cities_List/mm_westpalmbeach.png,MM,3,,,,,,,,,,,,,,,
null,,confidence_buffer,448958,confidence_buffer,,null,,,,,,,,,,,,,,,,,,
1402,,pt2_unique_rating,450361,US_Cities_List/mm_westpalmbeach.png,,51,,,3,,,,,,,,,,,,,,,
null,,confidence_buffer,450465,confidence_buffer,,null,,,,,,,,,,,,,,,,,,
768.4000000000233,,pt2_memorable_rating,451235,US_Cities_List/mm_westpalmbeach.png,,51,,,3,,,,,,,,,,,,,,,
null,,confidence_buffer,451353,confidence_buffer,,null,,,,,,,,,,,,,,,,,,
1680.9000000000233,,recognition_phase,453035,US_Cities_List/mm_westpalmbeach.png,,52,,,,,,new,1,1,,,,,,,,,,
null,,confidence_buffer,453148,confidence_buffer,,null,,,,,,,,,,,,,,,,,,
null,,thebreak,453652,break,,null,,,,,,,,,,,,,,,,,,
5469.899999999907,,realistic_rating,459123,Fictional_Cities_List/img_natural_15.png,,51,Fictional_Cities_List/img_natural_15.png,NAT,3,,,,,,,,,,,,,,,
null,,confidence_buffer,459227,confidence_buffer,,null,,,,,,,,,,,,,,,,,,
1966.8999999999069,,pt2_unique_rating,461195,Fictional_Cities_List/img_natural_15.png,,51,,,3,,,,,,,,,,,,,,,
null,,confidence_buffer,461299,confidence_buffer,,null,,,,,,,,,,,,,,,,,,
1503.3000000000466,,pt2_memorable_rating,462803,Fictional_Cities_List/img_natural_15.png,,50,,,2,,,,,,,,,,,,,,,
null,,confidence_buffer,462913,confidence_buffer,,null,,,,,,,,,,,,,,,,,,
1881.2000000000698,,recognition_phase,464796,Fictional_Cities_List/img_natural_15.png,,52,,,,,,new,1,1,,,,,,,,,,
null,,confidence_buffer,464905,confidence_buffer,,null,,,,,,,,,,,,,,,,,,
null,,thebreak,465420,break,,null,,,,,,,,,,,,,,,,,,
4967.100000000093,,realistic_rating,470389,Fictional_Cities_List/img_manmade_13.png,,53,Fictional_Cities_List/img_manmade_13.png,MM,5,,,,,,,,,,,,,,,
null,,confidence_buffer,470495,confidence_buffer,,null,,,,,,,,,,,,,,,,,,
1464.7999999999302,,pt2_unique_rating,471961,Fictional_Cities_List/img_manmade_13.png,,50,,,2,,,,,,,,,,,,,,,
null,,confidence_buffer,472077,confidence_buffer,,null,,,,,,,,,,,,,,,,,,
750,,pt2_memorable_rating,472828,Fictional_Cities_List/img_manmade_13.png,,50,,,2,,,,,,,,,,,,,,,
null,,confidence_buffer,472940,confidence_buffer,,null,,,,,,,,,,,,,,,,,,
1375.8000000000466,,recognition_phase,474317,Fictional_Cities_List/img_manmade_13.png,,52,,,,,,new,1,1,,,,,,,,,,
null,,confidence_buffer,474429,confidence_buffer,,null,,,,,,,,,,,,,,,,,,
null,,thebreak,474932,break,,null,,,,,,,,,,,,,,,,,,
2496.20000000007,,realistic_rating,477429,US_Cities_List/mm_boulder.png,,53,US_Cities_List/mm_boulder.png,MM,5,,,,,,,,,,,,,,,
null,,confidence_buffer,477533,confidence_buffer,,null,,,,,,,,,,,,,,,,,,
1024.6999999999534,,pt2_unique_rating,478559,US_Cities_List/mm_boulder.png,,50,,,2,,,,,,,,,,,,,,,
null,,confidence_buffer,478666,confidence_buffer,,null,,,,,,,,,,,,,,,,,,
1182.7000000000698,,pt2_memorable_rating,479850,US_Cities_List/mm_boulder.png,,50,,,2,,,,,,,,,,,,,,,
null,,confidence_buffer,479956,confidence_buffer,,null,,,,,,,,,,,,,,,,,,
1328.5,,recognition_phase,481286,US_Cities_List/mm_boulder.png,,52,,,,,,new,0,0.8888888888888888,,,,,,,,,,
null,,confidence_buffer,481393,confidence_buffer,,null,,,,,,,,,,,,,,,,,,
null,,thebreak,481896,break,,null,,,,,,,,,,,,,,,,,,
4512.599999999977,,realistic_rating,486410,Fictional_Cities_List/img_manmade_06.png,,53,Fictional_Cities_List/img_manmade_06.png,MM,5,,,,,,,,,,,,,,,
null,,confidence_buffer,486525,confidence_buffer,,null,,,,,,,,,,,,,,,,,,
1111.5999999999767,,pt2_unique_rating,487638,Fictional_Cities_List/img_manmade_06.png,,50,,,2,,,,,,,,,,,,,,,
null,,confidence_buffer,487741,confidence_buffer,,null,,,,,,,,,,,,,,,,,,
4609.400000000023,,pt2_memorable_rating,492351,Fictional_Cities_List/img_manmade_06.png,,49,,,1,,,,,,,,,,,,,,,
null,,confidence_buffer,492455,confidence_buffer,,null,,,,,,,,,,,,,,,,,,
1434.6999999999534,,recognition_phase,493891,Fictional_Cities_List/img_manmade_06.png,,49,,,,,,old,1,0.9,,,,,,,,,,
null,,confidence_buffer,494010,confidence_buffer,,null,,,,,,,,,,,,,,,,,,
null,,thebreak,494522,break,,null,,,,,,,,,,,,,,,,,,
4445.199999999953,,realistic_rating,498969,Fictional_Cities_List/img_manmade_12.png,,53,Fictional_Cities_List/img_manmade_12.png,MM,5,,,,,,,,,,,,,,,
null,,confidence_buffer,499080,confidence_buffer,,null,,,,,,,,,,,,,,,,,,
1181.4000000000233,,pt2_unique_rating,500263,Fictional_Cities_List/img_manmade_12.png,,50,,,2,,,,,,,,,,,,,,,
null,,confidence_buffer,500371,confidence_buffer,,null,,,,,,,,,,,,,,,,,,
1099.3999999999069,,pt2_memorable_rating,501471,Fictional_Cities_List/img_manmade_12.png,,50,,,2,,,,,,,,,,,,,,,
null,,confidence_buffer,501574,confidence_buffer,,null,,,,,,,,,,,,,,,,,,
1458.5999999999767,,recognition_phase,503034,Fictional_Cities_List/img_manmade_12.png,,52,,,,,,new,1,0.9090909090909091,,,,,,,,,,
null,,confidence_buffer,503137,confidence_buffer,,null,,,,,,,,,,,,,,,,,,
null,,thebreak,503653,break,,null,,,,,,,,,,,,,,,,,,
4522.300000000047,,realistic_rating,508176,US_Cities_List/nat_okoboji.png,,53,US_Cities_List/nat_okoboji.png,NAT,5,,,,,,,,,,,,,,,
null,,confidence_buffer,508286,confidence_buffer,,null,,,,,,,,,,,,,,,,,,
1048.100000000035,,pt2_unique_rating,509335,US_Cities_List/nat_okoboji.png,,50,,,2,,,,,,,,,,,,,,,
null,,confidence_buffer,509441,confidence_buffer,,null,,,,,,,,,,,,,,,,,,
850.3000000000466,,pt2_memorable_rating,510292,US_Cities_List/nat_okoboji.png,,50,,,2,,,,,,,,,,,,,,,
null,,confidence_buffer,510400,confidence_buffer,,null,,,,,,,,,,,,,,,,,,
2444.9000000000233,,recognition_phase,512847,US_Cities_List/nat_okoboji.png,,52,,,,,,new,1,0.9166666666666666,,,,,,,,,,
null,,confidence_buffer,512957,confidence_buffer,,null,,,,,,,,,,,,,,,,,,
null,,thebreak,513460,break,,null,,,,,,,,,,,,,,,,,,
12012.900000000023,,realistic_rating,525474,Fictional_Cities_List/img_natural_04.png,,50,Fictional_Cities_List/img_natural_04.png,NAT,2,,,,,,,,,,,,,,,
null,,confidence_buffer,525576,confidence_buffer,,null,,,,,,,,,,,,,,,,,,
4629.5,,pt2_unique_rating,530208,Fictional_Cities_List/img_natural_04.png,,51,,,3,,,,,,,,,,,,,,,
null,,confidence_buffer,530321,confidence_buffer,,null,,,,,,,,,,,,,,,,,,
1510.4000000000233,,probe_rating,531833,probe_rating,,50,,,,2,1,,,,,,,,,,,,,
null,,confidence_buffer,531945,confidence_buffer,,null,,,,,,,,,,,,,,,,,,
1520.5999999999767,,pt2_memorable_rating,533467,Fictional_Cities_List/img_natural_04.png,,50,,,2,,,,,,,,,,,,,,,
null,,confidence_buffer,533569,confidence_buffer,,null,,,,,,,,,,,,,,,,,,
1532.2999999999302,,recognition_phase,535103,Fictional_Cities_List/img_natural_04.png,,52,,,,,,new,1,0.9230769230769231,,,,,,,,,,
null,,confidence_buffer,535214,confidence_buffer,,null,,,,,,,,,,,,,,,,,,
null,,thebreak,535725,break,,null,,,,,,,,,,,,,,,,,,
2612.79999999993,,realistic_rating,538339,US_Cities_List/mm_healdsburg.png,,53,US_Cities_List/mm_healdsburg.png,MM,5,,,,,,,,,,,,,,,
null,,confidence_buffer,538454,confidence_buffer,,null,,,,,,,,,,,,,,,,,,
1131.5,,pt2_unique_rating,539587,US_Cities_List/mm_healdsburg.png,,50,,,2,,,,,,,,,,,,,,,
null,,confidence_buffer,539702,confidence_buffer,,null,,,,,,,,,,,,,,,,,,
798,,pt2_memorable_rating,540502,US_Cities_List/mm_healdsburg.png,,50,,,2,,,,,,,,,,,,,,,
null,,confidence_buffer,540606,confidence_buffer,,null,,,,,,,,,,,,,,,,,,
4109.199999999953,,recognition_phase,544717,US_Cities_List/mm_healdsburg.png,,51,,,,,,new,1,0.9285714285714286,,,,,,,,,,
null,,confidence_buffer,544827,confidence_buffer,,null,,,,,,,,,,,,,,,,,,
null,,thebreak,545331,break,,null,,,,,,,,,,,,,,,,,,
3645,,realistic_rating,548978,US_Cities_List/nat_coeurdalene.png,,53,US_Cities_List/nat_coeurdalene.png,NAT,5,,,,,,,,,,,,,,,
null,,confidence_buffer,549095,confidence_buffer,,null,,,,,,,,,,,,,,,,,,
1149.3000000000466,,pt2_unique_rating,550245,US_Cities_List/nat_coeurdalene.png,,50,,,2,,,,,,,,,,,,,,,
null,,confidence_buffer,550353,confidence_buffer,,null,,,,,,,,,,,,,,,,,,
730.1000000000931,,pt2_memorable_rating,551084,US_Cities_List/nat_coeurdalene.png,,50,,,2,,,,,,,,,,,,,,,
null,,confidence_buffer,551193,confidence_buffer,,null,,,,,,,,,,,,,,,,,,
2377.5999999999767,,recognition_phase,553572,US_Cities_List/nat_coeurdalene.png,,49,,,,,,old,1,0.9333333333333333,,,,,,,,,,
null,,confidence_buffer,553682,confidence_buffer,,null,,,,,,,,,,,,,,,,,,
null,,thebreak,554184,break,,null,,,,,,,,,,,,,,,,,,
5024.600000000093,,realistic_rating,559210,Fictional_Cities_List/img_manmade_14.png,,52,Fictional_Cities_List/img_manmade_14.png,MM,4,,,,,,,,,,,,,,,
null,,confidence_buffer,559320,confidence_buffer,,null,,,,,,,,,,,,,,,,,,
1296.8000000000466,,pt2_unique_rating,560618,Fictional_Cities_List/img_manmade_14.png,,50,,,2,,,,,,,,,,,,,,,
null,,confidence_buffer,560732,confidence_buffer,,null,,,,,,,,,,,,,,,,,,
1074.9000000000233,,pt2_memorable_rating,561808,Fictional_Cities_List/img_manmade_14.png,,50,,,2,,,,,,,,,,,,,,,
null,,confidence_buffer,561921,confidence_buffer,,null,,,,,,,,,,,,,,,,,,
1225.5999999999767,,recognition_phase,563148,Fictional_Cities_List/img_manmade_14.png,,49,,,,,,old,1,0.9375,,,,,,,,,,
null,,confidence_buffer,563266,confidence_buffer,,null,,,,,,,,,,,,,,,,,,
null,,thebreak,563781,break,,null,,,,,,,,,,,,,,,,,,
5732.100000000093,,realistic_rating,569514,Fictional_Cities_List/img_manmade_10.png,,51,Fictional_Cities_List/img_manmade_10.png,MM,3,,,,,,,,,,,,,,,
null,,confidence_buffer,569617,confidence_buffer,,null,,,,,,,,,,,,,,,,,,
1197.5,,pt2_unique_rating,570817,Fictional_Cities_List/img_manmade_10.png,,51,,,3,,,,,,,,,,,,,,,
null,,confidence_buffer,570926,confidence_buffer,,null,,,,,,,,,,,,,,,,,,
1397.8000000000466,,probe_rating,572325,probe_rating,,53,,,,5,1,,,,,,,,,,,,,
null,,confidence_buffer,572439,confidence_buffer,,null,,,,,,,,,,,,,,,,,,
1368.5999999999767,,pt2_memorable_rating,573809,Fictional_Cities_List/img_manmade_10.png,,50,,,2,,,,,,,,,,,,,,,
null,,confidence_buffer,573912,confidence_buffer,,null,,,,,,,,,,,,,,,,,,
8145.599999999977,,recognition_phase,582059,Fictional_Cities_List/img_manmade_10.png,,52,,,,,,new,1,0.9411764705882353,,,,,,,,,,
null,,confidence_buffer,582162,confidence_buffer,,null,,,,,,,,,,,,,,,,,,
null,,thebreak,582670,break,,null,,,,,,,,,,,,,,,,,,
3657.0999999999767,,realistic_rating,586329,Fictional_Cities_List/img_manmade_02.png,,52,Fictional_Cities_List/img_manmade_02.png,MM,4,,,,,,,,,,,,,,,
null,,confidence_buffer,586439,confidence_buffer,,null,,,,,,,,,,,,,,,,,,
1385.6999999999534,,pt2_unique_rating,587826,Fictional_Cities_List/img_manmade_02.png,,50,,,2,,,,,,,,,,,,,,,
null,,confidence_buffer,587944,confidence_buffer,,null,,,,,,,,,,,,,,,,,,
2528.4000000000233,,pt2_memorable_rating,590473,Fictional_Cities_List/img_manmade_02.png,,50,,,2,,,,,,,,,,,,,,,
null,,confidence_buffer,590582,confidence_buffer,,null,,,,,,,,,,,,,,,,,,
2217.9000000000233,,recognition_phase,592801,Fictional_Cities_List/img_manmade_02.png,,52,,,,,,new,1,0.9444444444444444,,,,,,,,,,
null,,confidence_buffer,592906,confidence_buffer,,null,,,,,,,,,,,,,,,,,,
null,,thebreak,593423,break,,null,,,,,,,,,,,,,,,,,,
8633.79999999993,,realistic_rating,602058,Fictional_Cities_List/img_natural_06.png,,51,Fictional_Cities_List/img_natural_06.png,NAT,3,,,,,,,,,,,,,,,
null,,confidence_buffer,602173,confidence_buffer,,null,,,,,,,,,,,,,,,,,,
1272.5999999999767,,pt2_unique_rating,603447,Fictional_Cities_List/img_natural_06.png,,50,,,2,,,,,,,,,,,,,,,
null,,confidence_buffer,603559,confidence_buffer,,null,,,,,,,,,,,,,,,,,,
1303,,pt2_memorable_rating,604863,Fictional_Cities_List/img_natural_06.png,,50,,,2,,,,,,,,,,,,,,,
null,,confidence_buffer,604968,confidence_buffer,,null,,,,,,,,,,,,,,,,,,
1717.8999999999069,,recognition_phase,606687,Fictional_Cities_List/img_natural_06.png,,49,,,,,,old,1,0.9473684210526315,,,,,,,,,,
null,,confidence_buffer,606798,confidence_buffer,,null,,,,,,,,,,,,,,,,,,
null,,thebreak,607305,break,,null,,,,,,,,,,,,,,,,,,
6380.79999999993,,realistic_rating,613688,US_Cities_List/nat_cornwall.png,,53,US_Cities_List/nat_cornwall.png,NAT,5,,,,,,,,,,,,,,,
null,,confidence_buffer,613795,confidence_buffer,,null,,,,,,,,,,,,,,,,,,
1734.1000000000931,,pt2_unique_rating,615530,US_Cities_List/nat_cornwall.png,,50,,,2,,,,,,,,,,,,,,,
null,,confidence_buffer,615637,confidence_buffer,,null,,,,,,,,,,,,,,,,,,
783.5,,pt2_memorable_rating,616421,US_Cities_List/nat_cornwall.png,,50,,,2,,,,,,,,,,,,,,,
null,,confidence_buffer,616532,confidence_buffer,,null,,,,,,,,,,,,,,,,,,
3583.29999999993,,recognition_phase,620116,US_Cities_List/nat_cornwall.png,,52,,,,,,new,1,0.95,,,,,,,,,,
null,,confidence_buffer,620221,confidence_buffer,,null,,,,,,,,,,,,,,,,,,
null,,thebreak,620730,break,,null,,,,,,,,,,,,,,,,,,
2971.5,,realistic_rating,623702,US_Cities_List/nat_bisbee.png,,53,US_Cities_List/nat_bisbee.png,NAT,5,,,,,,,,,,,,,,,
null,,confidence_buffer,623811,confidence_buffer,,null,,,,,,,,,,,,,,,,,,
1110.5,,pt2_unique_rating,624922,US_Cities_List/nat_bisbee.png,,50,,,2,,,,,,,,,,,,,,,
null,,confidence_buffer,625029,confidence_buffer,,null,,,,,,,,,,,,,,,,,,
716.6999999999534,,pt2_memorable_rating,625747,US_Cities_List/nat_bisbee.png,,50,,,2,,,,,,,,,,,,,,,
null,,confidence_buffer,625861,confidence_buffer,,null,,,,,,,,,,,,,,,,,,
2083.5999999999767,,recognition_phase,627946,US_Cities_List/nat_bisbee.png,,49,,,,,,old,1,0.9523809523809523,,,,,,,,,,
null,,confidence_buffer,628056,confidence_buffer,,null,,,,,,,,,,,,,,,,,,
null,,thebreak,628564,break,,null,,,,,,,,,,,,,,,,,,
3232.6999999999534,,realistic_rating,631798,US_Cities_List/nat_healdsburg.png,,52,US_Cities_List/nat_healdsburg.png,NAT,4,,,,,,,,,,,,,,,
null,,confidence_buffer,631906,confidence_buffer,,null,,,,,,,,,,,,,,,,,,
1438.2000000000698,,pt2_unique_rating,633345,US_Cities_List/nat_healdsburg.png,,50,,,2,,,,,,,,,,,,,,,
null,,confidence_buffer,633447,confidence_buffer,,null,,,,,,,,,,,,,,,,,,
812.9000000000233,,pt2_memorable_rating,634262,US_Cities_List/nat_healdsburg.png,,50,,,2,,,,,,,,,,,,,,,
null,,confidence_buffer,634378,confidence_buffer,,null,,,,,,,,,,,,,,,,,,
4488.5,,recognition_phase,638868,US_Cities_List/nat_healdsburg.png,,49,,,,,,old,1,0.9545454545454546,,,,,,,,,,
null,,confidence_buffer,638977,confidence_buffer,,null,,,,,,,,,,,,,,,,,,
null,,thebreak,639482,break,,null,,,,,,,,,,,,,,,,,,
3404.4000000000233,,realistic_rating,642888,US_Cities_List/nat_hilo.png,,51,US_Cities_List/nat_hilo.png,NAT,3,,,,,,,,,,,,,,,
null,,confidence_buffer,642996,confidence_buffer,,null,,,,,,,,,,,,,,,,,,
581.3000000000466,,pt2_unique_rating,643579,US_Cities_List/nat_hilo.png,,50,,,2,,,,,,,,,,,,,,,
null,,confidence_buffer,643689,confidence_buffer,,null,,,,,,,,,,,,,,,,,,
704,,pt2_memorable_rating,644394,US_Cities_List/nat_hilo.png,,50,,,2,,,,,,,,,,,,,,,
null,,confidence_buffer,644499,confidence_buffer,,null,,,,,,,,,,,,,,,,,,
4651.400000000023,,recognition_phase,649151,US_Cities_List/nat_hilo.png,,51,,,,,,new,1,0.9565217391304348,,,,,,,,,,
null,,confidence_buffer,649256,confidence_buffer,,null,,,,,,,,,,,,,,,,,,
null,,thebreak,649772,break,,null,,,,,,,,,,,,,,,,,,
3752.9000000000233,,realistic_rating,653526,US_Cities_List/mm_bisbee.png,,52,US_Cities_List/mm_bisbee.png,MM,4,,,,,,,,,,,,,,,
null,,confidence_buffer,653633,confidence_buffer,,null,,,,,,,,,,,,,,,,,,
2058,,pt2_unique_rating,655693,US_Cities_List/mm_bisbee.png,,50,,,2,,,,,,,,,,,,,,,
null,,confidence_buffer,655805,confidence_buffer,,null,,,,,,,,,,,,,,,,,,
1899.3999999999069,,pt2_memorable_rating,657705,US_Cities_List/mm_bisbee.png,,50,,,2,,,,,,,,,,,,,,,
null,,confidence_buffer,657809,confidence_buffer,,null,,,,,,,,,,,,,,,,,,
1294.1999999999534,,probe_rating,659104,probe_rating,,51,,,,3,1,,,,,,,,,,,,,
null,,confidence_buffer,659212,confidence_buffer,,null,,,,,,,,,,,,,,,,,,
2113.0999999999767,,recognition_phase,661326,US_Cities_List/mm_bisbee.png,,49,,,,,,old,1,0.9583333333333334,,,,,,,,,,
null,,confidence_buffer,661442,confidence_buffer,,null,,,,,,,,,,,,,,,,,,
null,,thebreak,661956,break,,null,,,,,,,,,,,,,,,,,,
5807.400000000023,,realistic_rating,667764,Fictional_Cities_List/img_natural_02.png,,50,Fictional_Cities_List/img_natural_02.png,NAT,2,,,,,,,,,,,,,,,
null,,confidence_buffer,667869,confidence_buffer,,null,,,,,,,,,,,,,,,,,,
1239.6000000000931,,pt2_unique_rating,669110,Fictional_Cities_List/img_natural_02.png,,50,,,2,,,,,,,,,,,,,,,
null,,confidence_buffer,669221,confidence_buffer,,null,,,,,,,,,,,,,,,,,,
776.9000000000233,,pt2_memorable_rating,669999,Fictional_Cities_List/img_natural_02.png,,50,,,2,,,,,,,,,,,,,,,
null,,confidence_buffer,670105,confidence_buffer,,null,,,,,,,,,,,,,,,,,,
1439.2999999999302,,recognition_phase,671546,Fictional_Cities_List/img_natural_02.png,,49,,,,,,old,1,0.96,,,,,,,,,,
null,,confidence_buffer,671651,confidence_buffer,,null,,,,,,,,,,,,,,,,,,
null,,thebreak,672163,break,,null,,,,,,,,,,,,,,,,,,
48973.19999999995,,realistic_rating,721138,US_Cities_List/mm_carmel.png,,52,US_Cities_List/mm_carmel.png,MM,4,,,,,,,,,,,,,,,
null,,confidence_buffer,721246,confidence_buffer,,null,,,,,,,,,,,,,,,,,,
1420.5999999999767,,pt2_unique_rating,722668,US_Cities_List/mm_carmel.png,,50,,,2,,,,,,,,,,,,,,,
null,,confidence_buffer,722786,confidence_buffer,,null,,,,,,,,,,,,,,,,,,
712.8000000000466,,pt2_memorable_rating,723500,US_Cities_List/mm_carmel.png,,50,,,2,,,,,,,,,,,,,,,
null,,confidence_buffer,723614,confidence_buffer,,null,,,,,,,,,,,,,,,,,,
2283.6999999999534,,recognition_phase,725899,US_Cities_List/mm_carmel.png,,52,,,,,,new,1,0.9615384615384616,,,,,,,,,,
null,,confidence_buffer,726010,confidence_buffer,,null,,,,,,,,,,,,,,,,,,
null,,thebreak,726525,break,,null,,,,,,,,,,,,,,,,,,
2045.8000000000466,,realistic_rating,728572,US_Cities_List/nat_sitka.png,,52,US_Cities_List/nat_sitka.png,NAT,4,,,,,,,,,,,,,,,
null,,confidence_buffer,728681,confidence_buffer,,null,,,,,,,,,,,,,,,,,,
7366.399999999907,,pt2_unique_rating,736049,US_Cities_List/nat_sitka.png,,50,,,2,,,,,,,,,,,,,,,
null,,confidence_buffer,736151,confidence_buffer,,null,,,,,,,,,,,,,,,,,,
1027.0999999999767,,pt2_memorable_rating,737180,US_Cities_List/nat_sitka.png,,50,,,2,,,,,,,,,,,,,,,
null,,confidence_buffer,737295,confidence_buffer,,null,,,,,,,,,,,,,,,,,,
3552.5999999999767,,recognition_phase,740849,US_Cities_List/nat_sitka.png,,51,,,,,,new,1,0.9629629629629629,,,,,,,,,,
null,,confidence_buffer,740953,confidence_buffer,,null,,,,,,,,,,,,,,,,,,
null,,thebreak,741464,break,,null,,,,,,,,,,,,,,,,,,
2613.4000000000233,,realistic_rating,744079,US_Cities_List/mm_okoboji.png,,52,US_Cities_List/mm_okoboji.png,MM,4,,,,,,,,,,,,,,,
null,,confidence_buffer,744188,confidence_buffer,,null,,,,,,,,,,,,,,,,,,
1287,,pt2_unique_rating,745477,US_Cities_List/mm_okoboji.png,,50,,,2,,,,,,,,,,,,,,,
null,,confidence_buffer,745588,confidence_buffer,,null,,,,,,,,,,,,,,,,,,
634.3000000000466,,pt2_memorable_rating,746224,US_Cities_List/mm_okoboji.png,,50,,,2,,,,,,,,,,,,,,,
null,,confidence_buffer,746334,confidence_buffer,,null,,,,,,,,,,,,,,,,,,
2575.600000000093,,recognition_phase,748911,US_Cities_List/mm_okoboji.png,,49,,,,,,old,1,0.9642857142857143,,,,,,,,,,
null,,confidence_buffer,749014,confidence_buffer,,null,,,,,,,,,,,,,,,,,,
null,,thebreak,749515,break,,null,,,,,,,,,,,,,,,,,,
3580,,realistic_rating,753097,Fictional_Cities_List/img_manmade_11.png,,51,Fictional_Cities_List/img_manmade_11.png,MM,3,,,,,,,,,,,,,,,
null,,confidence_buffer,753204,confidence_buffer,,null,,,,,,,,,,,,,,,,,,
1066.0999999999767,,pt2_unique_rating,754271,Fictional_Cities_List/img_manmade_11.png,,50,,,2,,,,,,,,,,,,,,,
null,,confidence_buffer,754378,confidence_buffer,,null,,,,,,,,,,,,,,,,,,
1285.5999999999767,,pt2_memorable_rating,755665,Fictional_Cities_List/img_manmade_11.png,,50,,,2,,,,,,,,,,,,,,,
null,,confidence_buffer,755769,confidence_buffer,,null,,,,,,,,,,,,,,,,,,
1939.2999999999302,,recognition_phase,757711,Fictional_Cities_List/img_manmade_11.png,,49,,,,,,old,1,0.9655172413793104,,,,,,,,,,
null,,confidence_buffer,757818,confidence_buffer,,null,,,,,,,,,,,,,,,,,,
null,,thebreak,758333,break,,null,,,,,,,,,,,,,,,,,,
3125.899999999907,,realistic_rating,761460,US_Cities_List/mm_abilene.png,,52,US_Cities_List/mm_abilene.png,MM,4,,,,,,,,,,,,,,,
null,,confidence_buffer,761575,confidence_buffer,,null,,,,,,,,,,,,,,,,,,
1320,,pt2_unique_rating,762897,US_Cities_List/mm_abilene.png,,50,,,2,,,,,,,,,,,,,,,
null,,confidence_buffer,763000,confidence_buffer,,null,,,,,,,,,,,,,,,,,,
1075,,pt2_memorable_rating,764077,US_Cities_List/mm_abilene.png,,50,,,2,,,,,,,,,,,,,,,
null,,confidence_buffer,764191,confidence_buffer,,null,,,,,,,,,,,,,,,,,,
1753,,recognition_phase,765946,US_Cities_List/mm_abilene.png,,49,,,,,,old,1,0.9666666666666667,,,,,,,,,,
null,,confidence_buffer,766051,confidence_buffer,,null,,,,,,,,,,,,,,,,,,
null,,thebreak,766565,break,,null,,,,,,,,,,,,,,,,,,
2828.3000000000466,,realistic_rating,769395,US_Cities_List/nat_westpalmbeach.png,,51,US_Cities_List/nat_westpalmbeach.png,NAT,3,,,,,,,,,,,,,,,
null,,confidence_buffer,769497,confidence_buffer,,null,,,,,,,,,,,,,,,,,,
1406.0999999999767,,pt2_unique_rating,770905,US_Cities_List/nat_westpalmbeach.png,,50,,,2,,,,,,,,,,,,,,,
null,,confidence_buffer,771011,confidence_buffer,,null,,,,,,,,,,,,,,,,,,
1304.2000000000698,,pt2_memorable_rating,772317,US_Cities_List/nat_westpalmbeach.png,,50,,,2,,,,,,,,,,,,,,,
null,,confidence_buffer,772422,confidence_buffer,,null,,,,,,,,,,,,,,,,,,
1298.8000000000466,,recognition_phase,773723,US_Cities_List/nat_westpalmbeach.png,,49,,,,,,old,1,0.967741935483871,,,,,,,,,,
null,,confidence_buffer,773830,confidence_buffer,,null,,,,,,,,,,,,,,,,,,
null,,thebreak,774334,break,,null,,,,,,,,,,,,,,,,,,
3129.6999999999534,,realistic_rating,777465,US_Cities_List/nat_delawarecity.png,,52,US_Cities_List/nat_delawarecity.png,NAT,4,,,,,,,,,,,,,,,
null,,confidence_buffer,777580,confidence_buffer,,null,,,,,,,,,,,,,,,,,,
2359.6999999999534,,pt2_unique_rating,779942,US_Cities_List/nat_delawarecity.png,,50,,,2,,,,,,,,,,,,,,,
null,,confidence_buffer,780044,confidence_buffer,,null,,,,,,,,,,,,,,,,,,
844.5999999999767,,pt2_memorable_rating,780890,US_Cities_List/nat_delawarecity.png,,50,,,2,,,,,,,,,,,,,,,
null,,confidence_buffer,780998,confidence_buffer,,null,,,,,,,,,,,,,,,,,,
1415.1000000000931,,recognition_phase,782415,US_Cities_List/nat_delawarecity.png,,52,,,,,,new,1,0.96875,,,,,,,,,,
null,,confidence_buffer,782525,confidence_buffer,,null,,,,,,,,,,,,,,,,,,
null,,thebreak,783028,break,,null,,,,,,,,,,,,,,,,,,
13672,,realistic_rating,796702,Fictional_Cities_List/img_natural_01.png,,51,Fictional_Cities_List/img_natural_01.png,NAT,3,,,,,,,,,,,,,,,
null,,confidence_buffer,796809,confidence_buffer,,null,,,,,,,,,,,,,,,,,,
2742.0999999999767,,pt2_unique_rating,799552,Fictional_Cities_List/img_natural_01.png,,50,,,2,,,,,,,,,,,,,,,
null,,confidence_buffer,799656,confidence_buffer,,null,,,,,,,,,,,,,,,,,,
829.2999999999302,,pt2_memorable_rating,800487,Fictional_Cities_List/img_natural_01.png,,50,,,2,,,,,,,,,,,,,,,
null,,confidence_buffer,800603,confidence_buffer,,null,,,,,,,,,,,,,,,,,,
1461.4000000000233,,recognition_phase,802066,Fictional_Cities_List/img_natural_01.png,,51,,,,,,new,1,0.9696969696969697,,,,,,,,,,
null,,confidence_buffer,802171,confidence_buffer,,null,,,,,,,,,,,,,,,,,,
null,,thebreak,802680,break,,null,,,,,,,,,,,,,,,,,,
8332.599999999977,,realistic_rating,811015,Fictional_Cities_List/img_manmade_07.png,,53,Fictional_Cities_List/img_manmade_07.png,MM,5,,,,,,,,,,,,,,,
null,,confidence_buffer,811120,confidence_buffer,,null,,,,,,,,,,,,,,,,,,
16377.5,,pt2_unique_rating,827499,Fictional_Cities_List/img_manmade_07.png,,49,,,1,,,,,,,,,,,,,,,
null,,confidence_buffer,827613,confidence_buffer,,null,,,,,,,,,,,,,,,,,,
1220.2999999999302,,pt2_memorable_rating,828836,Fictional_Cities_List/img_manmade_07.png,,49,,,1,,,,,,,,,,,,,,,
null,,confidence_buffer,828944,confidence_buffer,,null,,,,,,,,,,,,,,,,,,
1200.3000000000466,,recognition_phase,830146,Fictional_Cities_List/img_manmade_07.png,,49,,,,,,old,1,0.9705882352941176,,,,,,,,,,
null,,confidence_buffer,830250,confidence_buffer,,null,,,,,,,,,,,,,,,,,,
null,,thebreak,830760,break,,null,,,,,,,,,,,,,,,,,,
2015.4000000000233,,realistic_rating,832777,US_Cities_List/nat_abilene.png,,52,US_Cities_List/nat_abilene.png,NAT,4,,,,,,,,,,,,,,,
null,,confidence_buffer,832882,confidence_buffer,,null,,,,,,,,,,,,,,,,,,
903.8000000000466,,pt2_unique_rating,833787,US_Cities_List/nat_abilene.png,,50,,,2,,,,,,,,,,,,,,,
null,,confidence_buffer,833891,confidence_buffer,,null,,,,,,,,,,,,,,,,,,
1963.5,,pt2_memorable_rating,835857,US_Cities_List/nat_abilene.png,,49,,,1,,,,,,,,,,,,,,,
null,,confidence_buffer,835961,confidence_buffer,,null,,,,,,,,,,,,,,,,,,
2393.899999999907,,recognition_phase,838356,US_Cities_List/nat_abilene.png,,50,,,,,,old,1,0.9714285714285714,,,,,,,,,,
null,,confidence_buffer,838464,confidence_buffer,,null,,,,,,,,,,,,,,,,,,
null,,thebreak,838975,break,,null,,,,,,,,,,,,,,,,,,
3026.20000000007,,realistic_rating,842004,US_Cities_List/mm_coeurdalene.png,,52,US_Cities_List/mm_coeurdalene.png,MM,4,,,,,,,,,,,,,,,
null,,confidence_buffer,842121,confidence_buffer,,null,,,,,,,,,,,,,,,,,,
1984.5999999999767,,pt2_unique_rating,844107,US_Cities_List/mm_coeurdalene.png,,50,,,2,,,,,,,,,,,,,,,
null,,confidence_buffer,844214,confidence_buffer,,null,,,,,,,,,,,,,,,,,,
715.1999999999534,,pt2_memorable_rating,844931,US_Cities_List/mm_coeurdalene.png,,50,,,2,,,,,,,,,,,,,,,
null,,confidence_buffer,845047,confidence_buffer,,null,,,,,,,,,,,,,,,,,,
2336.8000000000466,,recognition_phase,847385,US_Cities_List/mm_coeurdalene.png,,50,,,,,,old,1,0.9722222222222222,,,,,,,,,,
null,,confidence_buffer,847490,confidence_buffer,,null,,,,,,,,,,,,,,,,,,
null,,thebreak,847993,break,,null,,,,,,,,,,,,,,,,,,
2308.5,,realistic_rating,850303,Fictional_Cities_List/img_manmade_05.png,,51,Fictional_Cities_List/img_manmade_05.png,MM,3,,,,,,,,,,,,,,,
null,,confidence_buffer,850414,confidence_buffer,,null,,,,,,,,,,,,,,,,,,
1388.9000000000233,,pt2_unique_rating,851805,Fictional_Cities_List/img_manmade_05.png,,51,,,3,,,,,,,,,,,,,,,
null,,confidence_buffer,851910,confidence_buffer,,null,,,,,,,,,,,,,,,,,,
1041.1999999999534,,pt2_memorable_rating,852953,Fictional_Cities_List/img_manmade_05.png,,51,,,3,,,,,,,,,,,,,,,
null,,confidence_buffer,853070,confidence_buffer,,null,,,,,,,,,,,,,,,,,,
1507.1999999999534,,recognition_phase,854579,Fictional_Cities_List/img_manmade_05.png,,49,,,,,,old,1,0.972972972972973,,,,,,,,,,
null,,confidence_buffer,854685,confidence_buffer,,null,,,,,,,,,,,,,,,,,,
null,,thebreak,855195,break,,null,,,,,,,,,,,,,,,,,,
4965.399999999907,,realistic_rating,860163,US_Cities_List/mm_sitka.png,,52,US_Cities_List/mm_sitka.png,MM,4,,,,,,,,,,,,,,,
null,,confidence_buffer,860278,confidence_buffer,,null,,,,,,,,,,,,,,,,,,
1351.1999999999534,,pt2_unique_rating,861631,US_Cities_List/mm_sitka.png,,49,,,1,,,,,,,,,,,,,,,
null,,confidence_buffer,861746,confidence_buffer,,null,,,,,,,,,,,,,,,,,,
556.9000000000233,,pt2_memorable_rating,862305,US_Cities_List/mm_sitka.png,,49,,,1,,,,,,,,,,,,,,,
null,,confidence_buffer,862414,confidence_buffer,,null,,,,,,,,,,,,,,,,,,
1465.5999999999767,,probe_rating,863883,probe_rating,,51,,,,3,1,,,,,,,,,,,,,
null,,confidence_buffer,863990,confidence_buffer,,null,,,,,,,,,,,,,,,,,,
1559.0999999999767,,recognition_phase,865551,US_Cities_List/mm_sitka.png,,52,,,,,,new,1,0.9736842105263158,,,,,,,,,,
null,,confidence_buffer,865653,confidence_buffer,,null,,,,,,,,,,,,,,,,,,
null,,thebreak,866170,break,,null,,,,,,,,,,,,,,,,,,
2423.5999999999767,,realistic_rating,868595,US_Cities_List/mm_delawarecity.png,,53,US_Cities_List/mm_delawarecity.png,MM,5,,,,,,,,,,,,,,,
null,,confidence_buffer,868698,confidence_buffer,,null,,,,,,,,,,,,,,,,,,
1077.1999999999534,,pt2_unique_rating,869777,US_Cities_List/mm_delawarecity.png,,49,,,1,,,,,,,,,,,,,,,
null,,confidence_buffer,869885,confidence_buffer,,null,,,,,,,,,,,,,,,,,,
656.5,,pt2_memorable_rating,870543,US_Cities_List/mm_delawarecity.png,,49,,,1,,,,,,,,,,,,,,,
null,,confidence_buffer,870658,confidence_buffer,,null,,,,,,,,,,,,,,,,,,
936.2999999999302,,probe_rating,871596,probe_rating,,51,,,,3,1,,,,,,,,,,,,,
null,,confidence_buffer,871702,confidence_buffer,,null,,,,,,,,,,,,,,,,,,
1068.5,,recognition_phase,872772,US_Cities_List/mm_delawarecity.png,,49,,,,,,old,1,0.9743589743589743,,,,,,,,,,
null,,confidence_buffer,872886,confidence_buffer,,null,,,,,,,,,,,,,,,,,,
null,,thebreak,873389,break,,null,,,,,,,,,,,,,,,,,,
5042.20000000007,,realistic_rating,878434,US_Cities_List/mm_hotsprings.png,,52,US_Cities_List/mm_hotsprings.png,MM,4,,,,,,,,,,,,,,,
null,,confidence_buffer,878540,confidence_buffer,,null,,,,,,,,,,,,,,,,,,
1304.7000000000698,,pt2_unique_rating,879847,US_Cities_List/mm_hotsprings.png,,49,,,1,,,,,,,,,,,,,,,
null,,confidence_buffer,879964,confidence_buffer,,null,,,,,,,,,,,,,,,,,,
644.6000000000931,,pt2_memorable_rating,880610,US_Cities_List/mm_hotsprings.png,,49,,,1,,,,,,,,,,,,,,,
null,,confidence_buffer,880719,confidence_buffer,,null,,,,,,,,,,,,,,,,,,
1710.7999999999302,,recognition_phase,882432,US_Cities_List/mm_hotsprings.png,,51,,,,,,new,1,0.975,,,,,,,,,,
null,,confidence_buffer,882536,confidence_buffer,,null,,,,,,,,,,,,,,,,,,
null,,thebreak,883048,break,,null,,,,,,,,,,,,,,,,,,
2130.5999999999767,,realistic_rating,885180,US_Cities_List/nat_hotsprings.png,,52,US_Cities_List/nat_hotsprings.png,NAT,4,,,,,,,,,,,,,,,
null,,confidence_buffer,885285,confidence_buffer,,null,,,,,,,,,,,,,,,,,,
903.2999999999302,,pt2_unique_rating,886190,US_Cities_List/nat_hotsprings.png,,50,,,2,,,,,,,,,,,,,,,
null,,confidence_buffer,886296,confidence_buffer,,null,,,,,,,,,,,,,,,,,,
752.1999999999534,,pt2_memorable_rating,887050,US_Cities_List/nat_hotsprings.png,,50,,,2,,,,,,,,,,,,,,,
null,,confidence_buffer,887165,confidence_buffer,,null,,,,,,,,,,,,,,,,,,
2842,,recognition_phase,890009,US_Cities_List/nat_hotsprings.png,,51,,,,,,new,1,0.975609756097561,,,,,,,,,,
null,,confidence_buffer,890113,confidence_buffer,,null,,,,,,,,,,,,,,,,,,
null,,thebreak,890615,break,,null,,,,,,,,,,,,,,,,,,
5037.800000000047,,realistic_rating,895655,Fictional_Cities_List/img_natural_05.png,,50,Fictional_Cities_List/img_natural_05.png,NAT,2,,,,,,,,,,,,,,,
null,,confidence_buffer,895761,confidence_buffer,,null,,,,,,,,,,,,,,,,,,
1719.0999999999767,,probe_rating,897482,probe_rating,,52,,,,4,1,,,,,,,,,,,,,
null,,confidence_buffer,897587,confidence_buffer,,null,,,,,,,,,,,,,,,,,,
1303.9000000000233,,pt2_unique_rating,898893,Fictional_Cities_List/img_natural_05.png,,50,,,2,,,,,,,,,,,,,,,
null,,confidence_buffer,899009,confidence_buffer,,null,,,,,,,,,,,,,,,,,,
1426.6999999999534,,pt2_memorable_rating,900437,Fictional_Cities_List/img_natural_05.png,,50,,,2,,,,,,,,,,,,,,,
null,,confidence_buffer,900544,confidence_buffer,,null,,,,,,,,,,,,,,,,,,
5004.300000000047,,recognition_phase,905550,Fictional_Cities_List/img_natural_05.png,,49,,,,,,old,1,0.9761904761904762,,,,,,,,,,
null,,confidence_buffer,905657,confidence_buffer,,null,,,,,,,,,,,,,,,,,,
null,,thebreak,906166,break,,null,,,,,,,,,,,,,,,,,,
13267.900000000023,,realistic_rating,919437,Fictional_Cities_List/img_natural_08.png,,52,Fictional_Cities_List/img_natural_08.png,NAT,4,,,,,,,,,,,,,,,
null,,confidence_buffer,919541,confidence_buffer,,null,,,,,,,,,,,,,,,,,,
1193.1999999999534,,probe_rating,920736,probe_rating,,49,,,,1,1,,,,,,,,,,,,,
null,,confidence_buffer,920849,confidence_buffer,,null,,,,,,,,,,,,,,,,,,
1027.3000000000466,,pt2_unique_rating,921878,Fictional_Cities_List/img_natural_08.png,,49,,,1,,,,,,,,,,,,,,,
null,,confidence_buffer,921984,confidence_buffer,,null,,,,,,,,,,,,,,,,,,
2955.6999999999534,,pt2_memorable_rating,924941,Fictional_Cities_List/img_natural_08.png,,51,,,3,,,,,,,,,,,,,,,
null,,confidence_buffer,925051,confidence_buffer,,null,,,,,,,,,,,,,,,,,,
3346.899999999907,,recognition_phase,928400,Fictional_Cities_List/img_natural_08.png,,49,,,,,,old,1,0.9767441860465116,,,,,,,,,,
null,,confidence_buffer,928515,confidence_buffer,,null,,,,,,,,,,,,,,,,,,
null,,thebreak,929025,break,,null,,,,,,,,,,,,,,,,,,
2337.8000000000466,,realistic_rating,931364,US_Cities_List/mm_athens.png,,52,US_Cities_List/mm_athens.png,MM,4,,,,,,,,,,,,,,,
null,,confidence_buffer,931474,confidence_buffer,,null,,,,,,,,,,,,,,,,,,
1966.0999999998603,,pt2_unique_rating,933442,US_Cities_List/mm_athens.png,,49,,,1,,,,,,,,,,,,,,,
null,,confidence_buffer,933548,confidence_buffer,,null,,,,,,,,,,,,,,,,,,
1859.5,,probe_rating,935409,probe_rating,,52,,,,4,1,,,,,,,,,,,,,
null,,confidence_buffer,935523,confidence_buffer,,null,,,,,,,,,,,,,,,,,,
905.2999999998137,,pt2_memorable_rating,936430,US_Cities_List/mm_athens.png,,49,,,1,,,,,,,,,,,,,,,
null,,confidence_buffer,936534,confidence_buffer,,null,,,,,,,,,,,,,,,,,,
2282.5999999998603,,recognition_phase,938818,US_Cities_List/mm_athens.png,,51,,,,,,new,1,0.9772727272727273,,,,,,,,,,
null,,confidence_buffer,938935,confidence_buffer,,null,,,,,,,,,,,,,,,,,,
null,,thebreak,939437,break,,null,,,,,,,,,,,,,,,,,,
4363.5,,realistic_rating,943802,Fictional_Cities_List/img_manmade_01.png,,51,Fictional_Cities_List/img_manmade_01.png,MM,3,,,,,,,,,,,,,,,
null,,confidence_buffer,943904,confidence_buffer,,null,,,,,,,,,,,,,,,,,,
1142.5,,pt2_unique_rating,945049,Fictional_Cities_List/img_manmade_01.png,,49,,,1,,,,,,,,,,,,,,,
null,,confidence_buffer,945164,confidence_buffer,,null,,,,,,,,,,,,,,,,,,
996.8999999999069,,pt2_memorable_rating,946162,Fictional_Cities_List/img_manmade_01.png,,49,,,1,,,,,,,,,,,,,,,
null,,confidence_buffer,946266,confidence_buffer,,null,,,,,,,,,,,,,,,,,,
1585.3000000000466,,recognition_phase,947853,Fictional_Cities_List/img_manmade_01.png,,51,,,,,,new,1,0.9777777777777777,,,,,,,,,,
null,,confidence_buffer,947956,confidence_buffer,,null,,,,,,,,,,,,,,,,,,
null,,thebreak,948462,break,,null,,,,,,,,,,,,,,,,,,
2309.5,,realistic_rating,950773,Fictional_Cities_List/img_natural_07.png,,51,Fictional_Cities_List/img_natural_07.png,NAT,3,,,,,,,,,,,,,,,
null,,confidence_buffer,950890,confidence_buffer,,null,,,,,,,,,,,,,,,,,,
1214.8000000000466,,pt2_unique_rating,952106,Fictional_Cities_List/img_natural_07.png,,50,,,2,,,,,,,,,,,,,,,
null,,confidence_buffer,952215,confidence_buffer,,null,,,,,,,,,,,,,,,,,,
770.3999999999069,,probe_rating,952988,probe_rating,,50,,,,2,1,,,,,,,,,,,,,
null,,confidence_buffer,953093,confidence_buffer,,null,,,,,,,,,,,,,,,,,,
1097.5999999998603,,pt2_memorable_rating,954193,Fictional_Cities_List/img_natural_07.png,,50,,,2,,,,,,,,,,,,,,,
null,,confidence_buffer,954296,confidence_buffer,,null,,,,,,,,,,,,,,,,,,
1199.3000000000466,,recognition_phase,955497,Fictional_Cities_List/img_natural_07.png,,51,,,,,,new,1,0.9782608695652174,,,,,,,,,,
null,,confidence_buffer,955603,confidence_buffer,,null,,,,,,,,,,,,,,,,,,
null,,thebreak,956105,break,,null,,,,,,,,,,,,,,,,,,
3861,,realistic_rating,959968,Fictional_Cities_List/img_manmade_04.png,,51,Fictional_Cities_List/img_manmade_04.png,MM,3,,,,,,,,,,,,,,,
null,,confidence_buffer,960072,confidence_buffer,,null,,,,,,,,,,,,,,,,,,
1232.8999999999069,,pt2_unique_rating,961306,Fictional_Cities_List/img_manmade_04.png,,50,,,2,,,,,,,,,,,,,,,
null,,confidence_buffer,961421,confidence_buffer,,null,,,,,,,,,,,,,,,,,,
685.6999999999534,,pt2_memorable_rating,962109,Fictional_Cities_List/img_manmade_04.png,,50,,,2,,,,,,,,,,,,,,,
null,,confidence_buffer,962215,confidence_buffer,,null,,,,,,,,,,,,,,,,,,
1476.8999999999069,,recognition_phase,963693,Fictional_Cities_List/img_manmade_04.png,,49,,,,,,old,1,0.9787234042553191,,,,,,,,,,
null,,confidence_buffer,963810,confidence_buffer,,null,,,,,,,,,,,,,,,,,,
null,,thebreak,964319,break,,null,,,,,,,,,,,,,,,,,,
5169.100000000093,,realistic_rating,969490,Fictional_Cities_List/img_manmade_03.png,,50,Fictional_Cities_List/img_manmade_03.png,MM,2,,,,,,,,,,,,,,,
null,,confidence_buffer,969598,confidence_buffer,,null,,,,,,,,,,,,,,,,,,
864,,pt2_unique_rating,970463,Fictional_Cities_List/img_manmade_03.png,,50,,,2,,,,,,,,,,,,,,,
null,,confidence_buffer,970569,confidence_buffer,,null,,,,,,,,,,,,,,,,,,
739.3000000000466,,pt2_memorable_rating,971309,Fictional_Cities_List/img_manmade_03.png,,50,,,2,,,,,,,,,,,,,,,
null,,confidence_buffer,971422,confidence_buffer,,null,,,,,,,,,,,,,,,,,,
1246.1999999999534,,recognition_phase,972670,Fictional_Cities_List/img_manmade_03.png,,49,,,,,,old,1,0.9791666666666666,,,,,,,,,,
null,,confidence_buffer,972775,confidence_buffer,,null,,,,,,,,,,,,,,,,,,
null,,thebreak,973283,break,,null,,,,,,,,,,,,,,,,,,
2904.100000000093,,realistic_rating,976189,Fictional_Cities_List/img_natural_14.png,,52,Fictional_Cities_List/img_natural_14.png,NAT,4,,,,,,,,,,,,,,,
null,,confidence_buffer,976291,confidence_buffer,,null,,,,,,,,,,,,,,,,,,
1607.1999999999534,,probe_rating,977899,probe_rating,,53,,,,5,1,,,,,,,,,,,,,
null,,confidence_buffer,978005,confidence_buffer,,null,,,,,,,,,,,,,,,,,,
1935.7000000001863,,pt2_unique_rating,979942,Fictional_Cities_List/img_natural_14.png,,51,,,3,,,,,,,,,,,,,,,
null,,confidence_buffer,980048,confidence_buffer,,null,,,,,,,,,,,,,,,,,,
2054.4000000001397,,pt2_memorable_rating,982104,Fictional_Cities_List/img_natural_14.png,,50,,,2,,,,,,,,,,,,,,,
null,,confidence_buffer,982214,confidence_buffer,,null,,,,,,,,,,,,,,,,,,
2524.6999999999534,,recognition_phase,984740,Fictional_Cities_List/img_natural_14.png,,51,,,,,,new,1,0.9795918367346939,,,,,,,,,,
null,,confidence_buffer,984842,confidence_buffer,,null,,,,,,,,,,,,,,,,,,
null,,thebreak,985346,break,,null,,,,,,,,,,,,,,,,,,
2044.6000000000931,,realistic_rating,987392,US_Cities_List/nat_peoria.png,,53,US_Cities_List/nat_peoria.png,NAT,5,,,,,,,,,,,,,,,
null,,confidence_buffer,987502,confidence_buffer,,null,,,,,,,,,,,,,,,,,,
1218.5,,pt2_unique_rating,988722,US_Cities_List/nat_peoria.png,,49,,,1,,,,,,,,,,,,,,,
null,,confidence_buffer,988834,confidence_buffer,,null,,,,,,,,,,,,,,,,,,
894.5,,pt2_memorable_rating,989730,US_Cities_List/nat_peoria.png,,49,,,1,,,,,,,,,,,,,,,
null,,confidence_buffer,989838,confidence_buffer,,null,,,,,,,,,,,,,,,,,,
1235.1999999999534,,probe_rating,991074,probe_rating,,53,,,,5,1,,,,,,,,,,,,,
null,,confidence_buffer,991181,confidence_buffer,,null,,,,,,,,,,,,,,,,,,
2078.5,,recognition_phase,993261,US_Cities_List/nat_peoria.png,,49,,,,,,old,1,0.98,,,,,,,,,,
null,,confidence_buffer,993366,confidence_buffer,,null,,,,,,,,,,,,,,,,,,
null,,thebreak,993876,break,,null,,,,,,,,,,,,,,,,,,
6785.09999999986,,realistic_rating,1000663,Fictional_Cities_List/img_natural_13.png,,50,Fictional_Cities_List/img_natural_13.png,NAT,2,,,,,,,,,,,,,,,
null,,confidence_buffer,1000769,confidence_buffer,,null,,,,,,,,,,,,,,,,,,
1183.4000000001397,,pt2_unique_rating,1001954,Fictional_Cities_List/img_natural_13.png,,50,,,2,,,,,,,,,,,,,,,
null,,confidence_buffer,1002062,confidence_buffer,,null,,,,,,,,,,,,,,,,,,
401.0999999998603,,pt2_memorable_rating,1002465,Fictional_Cities_List/img_natural_13.png,,50,,,2,,,,,,,,,,,,,,,
null,,confidence_buffer,1002574,confidence_buffer,,null,,,,,,,,,,,,,,,,,,
7028.300000000047,,recognition_phase,1009604,Fictional_Cities_List/img_natural_13.png,,51,,,,,,new,1,0.9803921568627451,,,,,,,,,,
null,,confidence_buffer,1009715,confidence_buffer,,null,,,,,,,,,,,,,,,,,,
null,,thebreak,1010230,break,,null,,,,,,,,,,,,,,,,,,
2313.6999999999534,,realistic_rating,1012545,US_Cities_List/nat_boulder.png,,52,US_Cities_List/nat_boulder.png,NAT,4,,,,,,,,,,,,,,,
null,,confidence_buffer,1012653,confidence_buffer,,null,,,,,,,,,,,,,,,,,,
1244.6000000000931,,pt2_unique_rating,1013899,US_Cities_List/nat_boulder.png,,49,,,1,,,,,,,,,,,,,,,
null,,confidence_buffer,1014012,confidence_buffer,,null,,,,,,,,,,,,,,,,,,
715.1999999999534,,pt2_memorable_rating,1014729,US_Cities_List/nat_boulder.png,,49,,,1,,,,,,,,,,,,,,,
null,,confidence_buffer,1014832,confidence_buffer,,null,,,,,,,,,,,,,,,,,,
1258.4000000001397,,recognition_phase,1016092,US_Cities_List/nat_boulder.png,,49,,,,,,old,1,0.9807692307692307,,,,,,,,,,
null,,confidence_buffer,1016203,confidence_buffer,,null,,,,,,,,,,,,,,,,,,
null,,thebreak,1016711,break,,null,,,,,,,,,,,,,,,,,,
2907.899999999907,,realistic_rating,1019620,US_Cities_List/nat_athens.png,,53,US_Cities_List/nat_athens.png,NAT,5,,,,,,,,,,,,,,,
null,,confidence_buffer,1019731,confidence_buffer,,null,,,,,,,,,,,,,,,,,,
1047,,pt2_unique_rating,1020779,US_Cities_List/nat_athens.png,,49,,,1,,,,,,,,,,,,,,,
null,,confidence_buffer,1020883,confidence_buffer,,null,,,,,,,,,,,,,,,,,,
732.3000000000466,,pt2_memorable_rating,1021617,US_Cities_List/nat_athens.png,,49,,,1,,,,,,,,,,,,,,,
null,,confidence_buffer,1021733,confidence_buffer,,null,,,,,,,,,,,,,,,,,,
2842.5,,recognition_phase,1024578,US_Cities_List/nat_athens.png,,52,,,,,,new,1,0.9811320754716981,,,,,,,,,,
null,,confidence_buffer,1024689,confidence_buffer,,null,,,,,,,,,,,,,,,,,,
null,,thebreak,1025207,break,,null,,,,,,,,,,,,,,,,,,
1944.2999999998137,,realistic_rating,1027153,US_Cities_List/mm_peoria.png,,52,US_Cities_List/mm_peoria.png,MM,4,,,,,,,,,,,,,,,
null,,confidence_buffer,1027262,confidence_buffer,,null,,,,,,,,,,,,,,,,,,
985.1000000000931,,pt2_unique_rating,1028248,US_Cities_List/mm_peoria.png,,49,,,1,,,,,,,,,,,,,,,
null,,confidence_buffer,1028360,confidence_buffer,,null,,,,,,,,,,,,,,,,,,
1381.8000000000466,,pt2_memorable_rating,1029743,US_Cities_List/mm_peoria.png,,49,,,1,,,,,,,,,,,,,,,
null,,confidence_buffer,1029858,confidence_buffer,,null,,,,,,,,,,,,,,,,,,
1513.2000000001863,,recognition_phase,1031372,US_Cities_List/mm_peoria.png,,49,,,,,,old,1,0.9814814814814815,,,,,,,,,,
null,,confidence_buffer,1031490,confidence_buffer,,null,,,,,,,,,,,,,,,,,,
null,,thebreak,1032004,break,,null,,,,,,,,,,,,,,,,,,
2056.899999999907,,realistic_rating,1034062,Fictional_Cities_List/img_manmade_09.png,,53,Fictional_Cities_List/img_manmade_09.png,MM,5,,,,,,,,,,,,,,,
null,,confidence_buffer,1034171,confidence_buffer,,null,,,,,,,,,,,,,,,,,,
1211.6999999999534,,pt2_unique_rating,1035385,Fictional_Cities_List/img_manmade_09.png,,49,,,1,,,,,,,,,,,,,,,
null,,confidence_buffer,1035493,confidence_buffer,,null,,,,,,,,,,,,,,,,,,
915.3999999999069,,pt2_memorable_rating,1036410,Fictional_Cities_List/img_manmade_09.png,,49,,,1,,,,,,,,,,,,,,,
null,,confidence_buffer,1036529,confidence_buffer,,null,,,,,,,,,,,,,,,,,,
15783.899999999907,,recognition_phase,1052314,Fictional_Cities_List/img_manmade_09.png,,51,,,,,,new,1,0.9818181818181818,,,,,,,,,,
null,,confidence_buffer,1052430,confidence_buffer,,null,,,,,,,,,,,,,,,,,,
null,,thebreak,1052936,break,,null,,,,,,,,,,,,,,,,,,
3367.8000000000466,,realistic_rating,1056305,Fictional_Cities_List/img_natural_03.png,,49,Fictional_Cities_List/img_natural_03.png,NAT,1,,,,,,,,,,,,,,,
null,,confidence_buffer,1056416,confidence_buffer,,null,,,,,,,,,,,,,,,,,,
1648.8999999999069,,pt2_unique_rating,1058067,Fictional_Cities_List/img_natural_03.png,,51,,,3,,,,,,,,,,,,,,,
null,,confidence_buffer,1058176,confidence_buffer,,null,,,,,,,,,,,,,,,,,,
1036.6000000000931,,pt2_memorable_rating,1059213,Fictional_Cities_List/img_natural_03.png,,50,,,2,,,,,,,,,,,,,,,
null,,confidence_buffer,1059320,confidence_buffer,,null,,,,,,,,,,,,,,,,,,
1122.5,,recognition_phase,1060444,Fictional_Cities_List/img_natural_03.png,,49,,,,,,old,1,0.9821428571428571,,,,,,,,,,
null,,confidence_buffer,1060551,confidence_buffer,,null,,,,,,,,,,,,,,,,,,
null,,thebreak,1061062,break,,null,,,,,,,,,,,,,,,,,,
2461.4000000001397,,realistic_rating,1063525,Fictional_Cities_List/img_natural_09.png,,53,Fictional_Cities_List/img_natural_09.png,NAT,5,,,,,,,,,,,,,,,
null,,confidence_buffer,1063641,confidence_buffer,,null,,,,,,,,,,,,,,,,,,
1516.6000000000931,,pt2_unique_rating,1065159,Fictional_Cities_List/img_natural_09.png,,50,,,2,,,,,,,,,,,,,,,
null,,confidence_buffer,1065277,confidence_buffer,,null,,,,,,,,,,,,,,,,,,
598.5,,pt2_memorable_rating,1065877,Fictional_Cities_List/img_natural_09.png,,50,,,2,,,,,,,,,,,,,,,
null,,confidence_buffer,1065988,confidence_buffer,,null,,,,,,,,,,,,,,,,,,
1034.8999999999069,,probe_rating,1067024,probe_rating,,53,,,,5,1,,,,,,,,,,,,,
null,,confidence_buffer,1067140,confidence_buffer,,null,,,,,,,,,,,,,,,,,,
989,,recognition_phase,1068131,Fictional_Cities_List/img_natural_09.png,,49,,,,,,old,1,0.9824561403508771,,,,,,,,,,
null,,confidence_buffer,1068236,confidence_buffer,,null,,,,,,,,,,,,,,,,,,
null,,thebreak,1068738,break,,null,,,,,,,,,,,,,,,,,,
5248.300000000047,,realistic_rating,1073988,Fictional_Cities_List/img_manmade_15.png,,51,Fictional_Cities_List/img_manmade_15.png,MM,3,,,,,,,,,,,,,,,
null,,confidence_buffer,1074098,confidence_buffer,,null,,,,,,,,,,,,,,,,,,
1188.5,,pt2_unique_rating,1075288,Fictional_Cities_List/img_manmade_15.png,,50,,,2,,,,,,,,,,,,,,,
null,,confidence_buffer,1075404,confidence_buffer,,null,,,,,,,,,,,,,,,,,,
942.1999999999534,,pt2_memorable_rating,1076348,Fictional_Cities_List/img_manmade_15.png,,50,,,2,,,,,,,,,,,,,,,
null,,confidence_buffer,1076454,confidence_buffer,,null,,,,,,,,,,,,,,,,,,
1701.5,,recognition_phase,1078157,Fictional_Cities_List/img_manmade_15.png,,51,,,,,,new,1,0.9827586206896551,,,,,,,,,,
null,,confidence_buffer,1078275,confidence_buffer,,null,,,,,,,,,,,,,,,,,,
null,,thebreak,1078787,break,,null,,,,,,,,,,,,,,,,,,
2769.3000000000466,,realistic_rating,1081558,Fictional_Cities_List/img_natural_12.png,,51,Fictional_Cities_List/img_natural_12.png,NAT,3,,,,,,,,,,,,,,,
null,,confidence_buffer,1081666,confidence_buffer,,null,,,,,,,,,,,,,,,,,,
2577,,pt2_unique_rating,1084244,Fictional_Cities_List/img_natural_12.png,,50,,,2,,,,,,,,,,,,,,,
null,,confidence_buffer,1084351,confidence_buffer,,null,,,,,,,,,,,,,,,,,,
758.1000000000931,,pt2_memorable_rating,1085110,Fictional_Cities_List/img_natural_12.png,,50,,,2,,,,,,,,,,,,,,,
null,,confidence_buffer,1085217,confidence_buffer,,null,,,,,,,,,,,,,,,,,,
1331.5,,recognition_phase,1086550,Fictional_Cities_List/img_natural_12.png,,49,,,,,,old,1,0.9830508474576272,,,,,,,,,,
null,,confidence_buffer,1086663,confidence_buffer,,null,,,,,,,,,,,,,,,,,,
null,,thebreak,1087178,break,,null,,,,,,,,,,,,,,,,,,
6044.59999999986,,realistic_rating,1093225,Fictional_Cities_List/img_natural_10.png,,53,Fictional_Cities_List/img_natural_10.png,NAT,5,,,,,,,,,,,,,,,
null,,confidence_buffer,1093331,confidence_buffer,,null,,,,,,,,,,,,,,,,,,
1472.8999999999069,,pt2_unique_rating,1094806,Fictional_Cities_List/img_natural_10.png,,51,,,3,,,,,,,,,,,,,,,
null,,confidence_buffer,1094913,confidence_buffer,,null,,,,,,,,,,,,,,,,,,
1373.6000000000931,,pt2_memorable_rating,1096288,Fictional_Cities_List/img_natural_10.png,,50,,,2,,,,,,,,,,,,,,,
null,,confidence_buffer,1096393,confidence_buffer,,null,,,,,,,,,,,,,,,,,,
2699.399999999907,,recognition_phase,1099094,Fictional_Cities_List/img_natural_10.png,,52,,,,,,new,1,0.9833333333333333,,,,,,,,,,
null,,confidence_buffer,1099203,confidence_buffer,,null,,,,,,,,,,,,,,,,,,
null,,thebreak,1099705,break,,null,,,,,,,,,,,,,,,,,,
,,survey,1345050,survey-questions,,,,,,,,,,,none,high,No :),I just used my memory, honestly. ,If I remember seeing anything like it/if it is a real place in the world ,If it was unique and memorable ,If it had features that would make one remember it or that made it stand out,If it looked like a place that could reasonably exist in the real world,No; not that I can remember,Nothing except for that I appreciate the fair/good compensation :)
