rt,responses,trial_type,time_elapsed,stimulus,button_pressed,key_press,name_trial,city_type,rating,probe,probe_accuracy,response,correct,accuracy,problems,smooth,distraction,strategies,familiar,memorable,unique,realistic,similar,comments
17073.699999999255,{worker_id:66e8f81e357d882730f18be0},id_enter,17076,,,,,,,,,,,,,,,,,,,,,
8248.10000000149,,fullscreen,25326,fullscreen,0,,,,,,,,,,,,,,,,,,,
7801.89999999851,,intro_0,33131,instruct,,32,,,,,,,,,,,,,,,,,,
9176.60000000149,,intro_1,42308,instruct,,32,,,,,,,,,,,,,,,,,,
10072.60000000149,,intro_2,52382,instruct,,32,,,,,,,,,,,,,,,,,,
null,,instruct_dir_4,53884,instruct,,null,,,,,,,,,,,,,,,,,,
null,,thebreak,54385,break,,null,,,,,,,,,,,,,,,,,,
14360.900000002235,,familiar_rating,68747,Fictional_Cities_List/img_manmade_11.png,,51,Fictional_Cities_List/img_manmade_11.png,MM,3,,,,,,,,,,,,,,,
null,,confidence_buffer,68849,confidence_buffer,,null,,,,,,,,,,,,,,,,,,
3396.199999999255,,unique_rating,72246,Fictional_Cities_List/img_manmade_11.png,,52,,,4,,,,,,,,,,,,,,,
null,,confidence_buffer,72356,confidence_buffer,,null,,,,,,,,,,,,,,,,,,
3821.5,,memorable_rating,76179,Fictional_Cities_List/img_manmade_11.png,,52,,,4,,,,,,,,,,,,,,,
null,,confidence_buffer,76281,confidence_buffer,,null,,,,,,,,,,,,,,,,,,
null,,thebreak,76782,break,,null,,,,,,,,,,,,,,,,,,
6786.800000000745,,familiar_rating,83570,Fictional_Cities_List/img_manmade_15.png,,52,Fictional_Cities_List/img_manmade_15.png,MM,4,,,,,,,,,,,,,,,
null,,confidence_buffer,83672,confidence_buffer,,null,,,,,,,,,,,,,,,,,,
4859.79999999702,,unique_rating,88533,Fictional_Cities_List/img_manmade_15.png,,51,,,3,,,,,,,,,,,,,,,
null,,confidence_buffer,88634,confidence_buffer,,null,,,,,,,,,,,,,,,,,,
2491.7999999970198,,memorable_rating,91127,Fictional_Cities_List/img_manmade_15.png,,52,,,4,,,,,,,,,,,,,,,
null,,confidence_buffer,91228,confidence_buffer,,null,,,,,,,,,,,,,,,,,,
null,,thebreak,91730,break,,null,,,,,,,,,,,,,,,,,,
4707.300000000745,,familiar_rating,96438,US_Cities_List/mm_hotsprings.png,,52,US_Cities_List/mm_hotsprings.png,MM,4,,,,,,,,,,,,,,,
null,,confidence_buffer,96540,confidence_buffer,,null,,,,,,,,,,,,,,,,,,
3988.300000000745,,unique_rating,100529,US_Cities_List/mm_hotsprings.png,,51,,,3,,,,,,,,,,,,,,,
null,,confidence_buffer,100631,confidence_buffer,,null,,,,,,,,,,,,,,,,,,
1578.8999999985099,,memorable_rating,102211,US_Cities_List/mm_hotsprings.png,,51,,,3,,,,,,,,,,,,,,,
null,,confidence_buffer,102313,confidence_buffer,,null,,,,,,,,,,,,,,,,,,
null,,thebreak,102814,break,,null,,,,,,,,,,,,,,,,,,
2956.10000000149,,familiar_rating,105771,US_Cities_List/mm_athens.png,,52,US_Cities_List/mm_athens.png,MM,4,,,,,,,,,,,,,,,
null,,confidence_buffer,105872,confidence_buffer,,null,,,,,,,,,,,,,,,,,,
2173.60000000149,,unique_rating,108047,US_Cities_List/mm_athens.png,,52,,,4,,,,,,,,,,,,,,,
null,,confidence_buffer,108149,confidence_buffer,,null,,,,,,,,,,,,,,,,,,
1812,,memorable_rating,109962,US_Cities_List/mm_athens.png,,52,,,4,,,,,,,,,,,,,,,
null,,confidence_buffer,110063,confidence_buffer,,null,,,,,,,,,,,,,,,,,,
null,,thebreak,110564,break,,null,,,,,,,,,,,,,,,,,,
5545.89999999851,,familiar_rating,116111,Fictional_Cities_List/img_natural_06.png,,50,Fictional_Cities_List/img_natural_06.png,NAT,2,,,,,,,,,,,,,,,
null,,confidence_buffer,116213,confidence_buffer,,null,,,,,,,,,,,,,,,,,,
3517,,unique_rating,119731,Fictional_Cities_List/img_natural_06.png,,53,,,5,,,,,,,,,,,,,,,
null,,confidence_buffer,119832,confidence_buffer,,null,,,,,,,,,,,,,,,,,,
2007,,memorable_rating,121840,Fictional_Cities_List/img_natural_06.png,,53,,,5,,,,,,,,,,,,,,,
null,,confidence_buffer,121941,confidence_buffer,,null,,,,,,,,,,,,,,,,,,
null,,thebreak,122442,break,,null,,,,,,,,,,,,,,,,,,
4574.300000000745,,familiar_rating,127018,Fictional_Cities_List/img_natural_08.png,,51,Fictional_Cities_List/img_natural_08.png,NAT,3,,,,,,,,,,,,,,,
null,,confidence_buffer,127122,confidence_buffer,,null,,,,,,,,,,,,,,,,,,
6775.20000000298,,unique_rating,133898,Fictional_Cities_List/img_natural_08.png,,53,,,5,,,,,,,,,,,,,,,
null,,confidence_buffer,134013,confidence_buffer,,null,,,,,,,,,,,,,,,,,,
3219.60000000149,,memorable_rating,137234,Fictional_Cities_List/img_natural_08.png,,53,,,5,,,,,,,,,,,,,,,
null,,confidence_buffer,137336,confidence_buffer,,null,,,,,,,,,,,,,,,,,,
2867.300000000745,,probe_rating,140205,probe_rating,,53,,,,5,1,,,,,,,,,,,,,
null,,confidence_buffer,140307,confidence_buffer,,null,,,,,,,,,,,,,,,,,,
null,,thebreak,140808,break,,null,,,,,,,,,,,,,,,,,,
4938.5,,familiar_rating,145748,Fictional_Cities_List/img_natural_04.png,,51,Fictional_Cities_List/img_natural_04.png,NAT,3,,,,,,,,,,,,,,,
null,,confidence_buffer,145850,confidence_buffer,,null,,,,,,,,,,,,,,,,,,
2371,,unique_rating,148222,Fictional_Cities_List/img_natural_04.png,,52,,,4,,,,,,,,,,,,,,,
null,,confidence_buffer,148323,confidence_buffer,,null,,,,,,,,,,,,,,,,,,
2518.199999999255,,memorable_rating,150843,Fictional_Cities_List/img_natural_04.png,,53,,,5,,,,,,,,,,,,,,,
null,,confidence_buffer,150944,confidence_buffer,,null,,,,,,,,,,,,,,,,,,
null,,thebreak,151446,break,,null,,,,,,,,,,,,,,,,,,
3281.5,,familiar_rating,154729,Fictional_Cities_List/img_manmade_14.png,,52,Fictional_Cities_List/img_manmade_14.png,MM,4,,,,,,,,,,,,,,,
null,,confidence_buffer,154838,confidence_buffer,,null,,,,,,,,,,,,,,,,,,
3718.10000000149,,unique_rating,158557,Fictional_Cities_List/img_manmade_14.png,,51,,,3,,,,,,,,,,,,,,,
null,,confidence_buffer,158658,confidence_buffer,,null,,,,,,,,,,,,,,,,,,
1695.9000000022352,,memorable_rating,160355,Fictional_Cities_List/img_manmade_14.png,,51,,,3,,,,,,,,,,,,,,,
null,,confidence_buffer,160458,confidence_buffer,,null,,,,,,,,,,,,,,,,,,
null,,thebreak,160960,break,,null,,,,,,,,,,,,,,,,,,
3022,,familiar_rating,163983,US_Cities_List/mm_bisbee.png,,52,US_Cities_List/mm_bisbee.png,MM,4,,,,,,,,,,,,,,,
null,,confidence_buffer,164085,confidence_buffer,,null,,,,,,,,,,,,,,,,,,
1373.5,,unique_rating,165460,US_Cities_List/mm_bisbee.png,,51,,,3,,,,,,,,,,,,,,,
null,,confidence_buffer,165561,confidence_buffer,,null,,,,,,,,,,,,,,,,,,
1477.6000000014901,,memorable_rating,167039,US_Cities_List/mm_bisbee.png,,51,,,3,,,,,,,,,,,,,,,
null,,confidence_buffer,167141,confidence_buffer,,null,,,,,,,,,,,,,,,,,,
null,,thebreak,167643,break,,null,,,,,,,,,,,,,,,,,,
3598.199999999255,,familiar_rating,171242,Fictional_Cities_List/img_natural_11.png,,53,Fictional_Cities_List/img_natural_11.png,NAT,5,,,,,,,,,,,,,,,
null,,confidence_buffer,171343,confidence_buffer,,null,,,,,,,,,,,,,,,,,,
3402.800000000745,,probe_rating,174746,probe_rating,,53,,,,5,1,,,,,,,,,,,,,
null,,confidence_buffer,174848,confidence_buffer,,null,,,,,,,,,,,,,,,,,,
3301.60000000149,,unique_rating,178151,Fictional_Cities_List/img_natural_11.png,,53,,,5,,,,,,,,,,,,,,,
null,,confidence_buffer,178252,confidence_buffer,,null,,,,,,,,,,,,,,,,,,
1083.699999999255,,memorable_rating,179337,Fictional_Cities_List/img_natural_11.png,,53,,,5,,,,,,,,,,,,,,,
null,,confidence_buffer,179438,confidence_buffer,,null,,,,,,,,,,,,,,,,,,
null,,thebreak,179939,break,,null,,,,,,,,,,,,,,,,,,
4444.89999999851,,familiar_rating,184385,US_Cities_List/nat_delawarecity.png,,52,US_Cities_List/nat_delawarecity.png,NAT,4,,,,,,,,,,,,,,,
null,,confidence_buffer,184486,confidence_buffer,,null,,,,,,,,,,,,,,,,,,
1698.9000000022352,,unique_rating,186185,US_Cities_List/nat_delawarecity.png,,51,,,3,,,,,,,,,,,,,,,
null,,confidence_buffer,186287,confidence_buffer,,null,,,,,,,,,,,,,,,,,,
1392.5,,memorable_rating,187680,US_Cities_List/nat_delawarecity.png,,51,,,3,,,,,,,,,,,,,,,
null,,confidence_buffer,187782,confidence_buffer,,null,,,,,,,,,,,,,,,,,,
null,,thebreak,188284,break,,null,,,,,,,,,,,,,,,,,,
3069.300000000745,,familiar_rating,191354,Fictional_Cities_List/img_natural_01.png,,52,Fictional_Cities_List/img_natural_01.png,NAT,4,,,,,,,,,,,,,,,
null,,confidence_buffer,191456,confidence_buffer,,null,,,,,,,,,,,,,,,,,,
1861.7000000029802,,unique_rating,193319,Fictional_Cities_List/img_natural_01.png,,53,,,5,,,,,,,,,,,,,,,
null,,confidence_buffer,193420,confidence_buffer,,null,,,,,,,,,,,,,,,,,,
1095.1000000014901,,memorable_rating,194516,Fictional_Cities_List/img_natural_01.png,,53,,,5,,,,,,,,,,,,,,,
null,,confidence_buffer,194618,confidence_buffer,,null,,,,,,,,,,,,,,,,,,
null,,thebreak,195120,break,,null,,,,,,,,,,,,,,,,,,
2944.5,,familiar_rating,198066,US_Cities_List/nat_sitka.png,,50,US_Cities_List/nat_sitka.png,NAT,2,,,,,,,,,,,,,,,
null,,confidence_buffer,198167,confidence_buffer,,null,,,,,,,,,,,,,,,,,,
2539.699999999255,,probe_rating,200708,probe_rating,,52,,,,4,1,,,,,,,,,,,,,
null,,confidence_buffer,200809,confidence_buffer,,null,,,,,,,,,,,,,,,,,,
3051.099999997765,,unique_rating,203861,US_Cities_List/nat_sitka.png,,52,,,4,,,,,,,,,,,,,,,
null,,confidence_buffer,203963,confidence_buffer,,null,,,,,,,,,,,,,,,,,,
1725.8999999985099,,memorable_rating,205690,US_Cities_List/nat_sitka.png,,52,,,4,,,,,,,,,,,,,,,
null,,confidence_buffer,205791,confidence_buffer,,null,,,,,,,,,,,,,,,,,,
null,,thebreak,206292,break,,null,,,,,,,,,,,,,,,,,,
4233.10000000149,,familiar_rating,210527,Fictional_Cities_List/img_natural_05.png,,50,Fictional_Cities_List/img_natural_05.png,NAT,2,,,,,,,,,,,,,,,
null,,confidence_buffer,210629,confidence_buffer,,null,,,,,,,,,,,,,,,,,,
2251.5,,unique_rating,212882,Fictional_Cities_List/img_natural_05.png,,53,,,5,,,,,,,,,,,,,,,
null,,confidence_buffer,212984,confidence_buffer,,null,,,,,,,,,,,,,,,,,,
1022.4000000022352,,memorable_rating,214007,Fictional_Cities_List/img_natural_05.png,,53,,,5,,,,,,,,,,,,,,,
null,,confidence_buffer,214108,confidence_buffer,,null,,,,,,,,,,,,,,,,,,
null,,thebreak,214610,break,,null,,,,,,,,,,,,,,,,,,
3220.2999999970198,,familiar_rating,217831,Fictional_Cities_List/img_manmade_04.png,,52,Fictional_Cities_List/img_manmade_04.png,MM,4,,,,,,,,,,,,,,,
null,,confidence_buffer,217932,confidence_buffer,,null,,,,,,,,,,,,,,,,,,
2227.800000000745,,unique_rating,220161,Fictional_Cities_List/img_manmade_04.png,,51,,,3,,,,,,,,,,,,,,,
null,,confidence_buffer,220263,confidence_buffer,,null,,,,,,,,,,,,,,,,,,
1315.699999999255,,memorable_rating,221580,Fictional_Cities_List/img_manmade_04.png,,51,,,3,,,,,,,,,,,,,,,
null,,confidence_buffer,221681,confidence_buffer,,null,,,,,,,,,,,,,,,,,,
null,,thebreak,222183,break,,null,,,,,,,,,,,,,,,,,,
3292.400000002235,,familiar_rating,225476,Fictional_Cities_List/img_natural_02.png,,51,Fictional_Cities_List/img_natural_02.png,NAT,3,,,,,,,,,,,,,,,
null,,confidence_buffer,225579,confidence_buffer,,null,,,,,,,,,,,,,,,,,,
2353.5,,unique_rating,227933,Fictional_Cities_List/img_natural_02.png,,51,,,3,,,,,,,,,,,,,,,
null,,confidence_buffer,228035,confidence_buffer,,null,,,,,,,,,,,,,,,,,,
1788.300000000745,,probe_rating,229824,probe_rating,,50,,,,2,1,,,,,,,,,,,,,
null,,confidence_buffer,229927,confidence_buffer,,null,,,,,,,,,,,,,,,,,,
1975.5,,memorable_rating,231903,Fictional_Cities_List/img_natural_02.png,,51,,,3,,,,,,,,,,,,,,,
null,,confidence_buffer,232006,confidence_buffer,,null,,,,,,,,,,,,,,,,,,
null,,thebreak,232509,break,,null,,,,,,,,,,,,,,,,,,
2691.39999999851,,familiar_rating,235201,US_Cities_List/mm_hilo.png,,50,US_Cities_List/mm_hilo.png,MM,2,,,,,,,,,,,,,,,
null,,confidence_buffer,235304,confidence_buffer,,null,,,,,,,,,,,,,,,,,,
2168.800000000745,,unique_rating,237473,US_Cities_List/mm_hilo.png,,50,,,2,,,,,,,,,,,,,,,
null,,confidence_buffer,237574,confidence_buffer,,null,,,,,,,,,,,,,,,,,,
2842,,memorable_rating,240417,US_Cities_List/mm_hilo.png,,50,,,2,,,,,,,,,,,,,,,
null,,confidence_buffer,240519,confidence_buffer,,null,,,,,,,,,,,,,,,,,,
null,,thebreak,241022,break,,null,,,,,,,,,,,,,,,,,,
2324.199999999255,,familiar_rating,243347,US_Cities_List/mm_cornwall.png,,51,US_Cities_List/mm_cornwall.png,MM,3,,,,,,,,,,,,,,,
null,,confidence_buffer,243462,confidence_buffer,,null,,,,,,,,,,,,,,,,,,
3169.89999999851,,unique_rating,246632,US_Cities_List/mm_cornwall.png,,50,,,2,,,,,,,,,,,,,,,
null,,confidence_buffer,246734,confidence_buffer,,null,,,,,,,,,,,,,,,,,,
1679.5,,memorable_rating,248415,US_Cities_List/mm_cornwall.png,,50,,,2,,,,,,,,,,,,,,,
null,,confidence_buffer,248517,confidence_buffer,,null,,,,,,,,,,,,,,,,,,
null,,thebreak,249018,break,,null,,,,,,,,,,,,,,,,,,
2896.099999997765,,familiar_rating,251915,US_Cities_List/nat_hotsprings.png,,52,US_Cities_List/nat_hotsprings.png,NAT,4,,,,,,,,,,,,,,,
null,,confidence_buffer,252017,confidence_buffer,,null,,,,,,,,,,,,,,,,,,
1675.8999999985099,,unique_rating,253694,US_Cities_List/nat_hotsprings.png,,52,,,4,,,,,,,,,,,,,,,
null,,confidence_buffer,253795,confidence_buffer,,null,,,,,,,,,,,,,,,,,,
1151.300000000745,,memorable_rating,254947,US_Cities_List/nat_hotsprings.png,,52,,,4,,,,,,,,,,,,,,,
null,,confidence_buffer,255049,confidence_buffer,,null,,,,,,,,,,,,,,,,,,
null,,thebreak,255551,break,,null,,,,,,,,,,,,,,,,,,
4160.39999999851,,familiar_rating,259712,Fictional_Cities_List/img_manmade_07.png,,49,Fictional_Cities_List/img_manmade_07.png,MM,1,,,,,,,,,,,,,,,
null,,confidence_buffer,259814,confidence_buffer,,null,,,,,,,,,,,,,,,,,,
3369.60000000149,,unique_rating,263184,Fictional_Cities_List/img_manmade_07.png,,49,,,1,,,,,,,,,,,,,,,
null,,confidence_buffer,263286,confidence_buffer,,null,,,,,,,,,,,,,,,,,,
1570.800000000745,,memorable_rating,264858,Fictional_Cities_List/img_manmade_07.png,,49,,,1,,,,,,,,,,,,,,,
null,,confidence_buffer,264959,confidence_buffer,,null,,,,,,,,,,,,,,,,,,
null,,thebreak,265460,break,,null,,,,,,,,,,,,,,,,,,
2560,,familiar_rating,268021,Fictional_Cities_List/img_manmade_12.png,,51,Fictional_Cities_List/img_manmade_12.png,MM,3,,,,,,,,,,,,,,,
null,,confidence_buffer,268124,confidence_buffer,,null,,,,,,,,,,,,,,,,,,
2046.7000000029802,,unique_rating,270171,Fictional_Cities_List/img_manmade_12.png,,51,,,3,,,,,,,,,,,,,,,
null,,confidence_buffer,270272,confidence_buffer,,null,,,,,,,,,,,,,,,,,,
1279.7000000029802,,memorable_rating,271553,Fictional_Cities_List/img_manmade_12.png,,51,,,3,,,,,,,,,,,,,,,
null,,confidence_buffer,271656,confidence_buffer,,null,,,,,,,,,,,,,,,,,,
2070.39999999851,,probe_rating,273727,probe_rating,,51,,,,3,1,,,,,,,,,,,,,
null,,confidence_buffer,273830,confidence_buffer,,null,,,,,,,,,,,,,,,,,,
null,,thebreak,274332,break,,null,,,,,,,,,,,,,,,,,,
1937.5999999977648,,familiar_rating,276270,US_Cities_List/nat_cornwall.png,,52,US_Cities_List/nat_cornwall.png,NAT,4,,,,,,,,,,,,,,,
null,,confidence_buffer,276372,confidence_buffer,,null,,,,,,,,,,,,,,,,,,
1541.8999999985099,,unique_rating,277915,US_Cities_List/nat_cornwall.png,,52,,,4,,,,,,,,,,,,,,,
null,,confidence_buffer,278017,confidence_buffer,,null,,,,,,,,,,,,,,,,,,
1368.699999999255,,memorable_rating,279388,US_Cities_List/nat_cornwall.png,,53,,,5,,,,,,,,,,,,,,,
null,,confidence_buffer,279491,confidence_buffer,,null,,,,,,,,,,,,,,,,,,
null,,thebreak,279993,break,,null,,,,,,,,,,,,,,,,,,
3121.2000000029802,,familiar_rating,283115,US_Cities_List/nat_healdsburg.png,,52,US_Cities_List/nat_healdsburg.png,NAT,4,,,,,,,,,,,,,,,
null,,confidence_buffer,283216,confidence_buffer,,null,,,,,,,,,,,,,,,,,,
1535.0999999977648,,unique_rating,284752,US_Cities_List/nat_healdsburg.png,,52,,,4,,,,,,,,,,,,,,,
null,,confidence_buffer,284855,confidence_buffer,,null,,,,,,,,,,,,,,,,,,
1089.5999999977648,,memorable_rating,285945,US_Cities_List/nat_healdsburg.png,,52,,,4,,,,,,,,,,,,,,,
null,,confidence_buffer,286047,confidence_buffer,,null,,,,,,,,,,,,,,,,,,
null,,thebreak,286548,break,,null,,,,,,,,,,,,,,,,,,
1863.800000000745,,familiar_rating,288412,US_Cities_List/mm_peoria.png,,49,US_Cities_List/mm_peoria.png,MM,1,,,,,,,,,,,,,,,
null,,confidence_buffer,288514,confidence_buffer,,null,,,,,,,,,,,,,,,,,,
2376.800000000745,,unique_rating,290891,US_Cities_List/mm_peoria.png,,50,,,2,,,,,,,,,,,,,,,
null,,confidence_buffer,290992,confidence_buffer,,null,,,,,,,,,,,,,,,,,,
1954.1000000014901,,probe_rating,292947,probe_rating,,52,,,,4,1,,,,,,,,,,,,,
null,,confidence_buffer,293048,confidence_buffer,,null,,,,,,,,,,,,,,,,,,
3969,,memorable_rating,297018,US_Cities_List/mm_peoria.png,,49,,,1,,,,,,,,,,,,,,,
null,,confidence_buffer,297120,confidence_buffer,,null,,,,,,,,,,,,,,,,,,
null,,thebreak,297621,break,,null,,,,,,,,,,,,,,,,,,
5226.89999999851,,familiar_rating,302849,US_Cities_List/nat_westpalmbeach.png,,51,US_Cities_List/nat_westpalmbeach.png,NAT,3,,,,,,,,,,,,,,,
null,,confidence_buffer,302951,confidence_buffer,,null,,,,,,,,,,,,,,,,,,
1515.199999999255,,unique_rating,304467,US_Cities_List/nat_westpalmbeach.png,,52,,,4,,,,,,,,,,,,,,,
null,,confidence_buffer,304569,confidence_buffer,,null,,,,,,,,,,,,,,,,,,
1859,,memorable_rating,306429,US_Cities_List/nat_westpalmbeach.png,,52,,,4,,,,,,,,,,,,,,,
null,,confidence_buffer,306530,confidence_buffer,,null,,,,,,,,,,,,,,,,,,
null,,thebreak,307031,break,,null,,,,,,,,,,,,,,,,,,
3012,,familiar_rating,310044,Fictional_Cities_List/img_natural_13.png,,50,Fictional_Cities_List/img_natural_13.png,NAT,2,,,,,,,,,,,,,,,
null,,confidence_buffer,310145,confidence_buffer,,null,,,,,,,,,,,,,,,,,,
1420.3999999985099,,unique_rating,311567,Fictional_Cities_List/img_natural_13.png,,52,,,4,,,,,,,,,,,,,,,
null,,confidence_buffer,311673,confidence_buffer,,null,,,,,,,,,,,,,,,,,,
1147.4000000022352,,memorable_rating,312821,Fictional_Cities_List/img_natural_13.png,,53,,,5,,,,,,,,,,,,,,,
null,,confidence_buffer,312922,confidence_buffer,,null,,,,,,,,,,,,,,,,,,
null,,thebreak,313423,break,,null,,,,,,,,,,,,,,,,,,
3550.699999999255,,familiar_rating,316975,Fictional_Cities_List/img_manmade_05.png,,53,Fictional_Cities_List/img_manmade_05.png,MM,5,,,,,,,,,,,,,,,
null,,confidence_buffer,317076,confidence_buffer,,null,,,,,,,,,,,,,,,,,,
3126.300000000745,,probe_rating,320203,probe_rating,,52,,,,4,1,,,,,,,,,,,,,
null,,confidence_buffer,320304,confidence_buffer,,null,,,,,,,,,,,,,,,,,,
3253.2000000029802,,unique_rating,323558,Fictional_Cities_List/img_manmade_05.png,,53,,,5,,,,,,,,,,,,,,,
null,,confidence_buffer,323660,confidence_buffer,,null,,,,,,,,,,,,,,,,,,
1128.6000000014901,,memorable_rating,324789,Fictional_Cities_List/img_manmade_05.png,,53,,,5,,,,,,,,,,,,,,,
null,,confidence_buffer,324891,confidence_buffer,,null,,,,,,,,,,,,,,,,,,
null,,thebreak,325393,break,,null,,,,,,,,,,,,,,,,,,
2014,,familiar_rating,327409,US_Cities_List/mm_delawarecity.png,,51,US_Cities_List/mm_delawarecity.png,MM,3,,,,,,,,,,,,,,,
null,,confidence_buffer,327522,confidence_buffer,,null,,,,,,,,,,,,,,,,,,
1467.699999999255,,unique_rating,328991,US_Cities_List/mm_delawarecity.png,,50,,,2,,,,,,,,,,,,,,,
null,,confidence_buffer,329092,confidence_buffer,,null,,,,,,,,,,,,,,,,,,
1940.5,,memorable_rating,331033,US_Cities_List/mm_delawarecity.png,,50,,,2,,,,,,,,,,,,,,,
null,,confidence_buffer,331134,confidence_buffer,,null,,,,,,,,,,,,,,,,,,
null,,thebreak,331635,break,,null,,,,,,,,,,,,,,,,,,
3428.300000000745,,familiar_rating,335064,US_Cities_List/mm_boulder.png,,49,US_Cities_List/mm_boulder.png,MM,1,,,,,,,,,,,,,,,
null,,confidence_buffer,335166,confidence_buffer,,null,,,,,,,,,,,,,,,,,,
1807.800000000745,,unique_rating,336974,US_Cities_List/mm_boulder.png,,50,,,2,,,,,,,,,,,,,,,
null,,confidence_buffer,337076,confidence_buffer,,null,,,,,,,,,,,,,,,,,,
1416.7000000029802,,memorable_rating,338493,US_Cities_List/mm_boulder.png,,49,,,1,,,,,,,,,,,,,,,
null,,confidence_buffer,338595,confidence_buffer,,null,,,,,,,,,,,,,,,,,,
null,,thebreak,339097,break,,null,,,,,,,,,,,,,,,,,,
2348.60000000149,,familiar_rating,341446,US_Cities_List/nat_coeurdalene.png,,52,US_Cities_List/nat_coeurdalene.png,NAT,4,,,,,,,,,,,,,,,
null,,confidence_buffer,341548,confidence_buffer,,null,,,,,,,,,,,,,,,,,,
2386.699999999255,,unique_rating,343935,US_Cities_List/nat_coeurdalene.png,,51,,,3,,,,,,,,,,,,,,,
null,,confidence_buffer,344037,confidence_buffer,,null,,,,,,,,,,,,,,,,,,
2695.800000000745,,memorable_rating,346734,US_Cities_List/nat_coeurdalene.png,,50,,,2,,,,,,,,,,,,,,,
null,,confidence_buffer,346835,confidence_buffer,,null,,,,,,,,,,,,,,,,,,
null,,thebreak,347337,break,,null,,,,,,,,,,,,,,,,,,
7313.699999999255,,intro_0,354651,instruct,,32,,,,,,,,,,,,,,,,,,
7667.10000000149,,intro_1,362319,instruct,,32,,,,,,,,,,,,,,,,,,
2507.5,,intro_2,364827,instruct,,32,,,,,,,,,,,,,,,,,,
null,,instruct_dir_4,366329,instruct,,null,,,,,,,,,,,,,,,,,,
5486.099999997765,,realistic_rating,371816,Fictional_Cities_List/img_manmade_06.png,,50,Fictional_Cities_List/img_manmade_06.png,MM,2,,,,,,,,,,,,,,,
null,,confidence_buffer,371917,confidence_buffer,,null,,,,,,,,,,,,,,,,,,
3597.199999999255,,pt2_unique_rating,375515,Fictional_Cities_List/img_manmade_06.png,,49,,,1,,,,,,,,,,,,,,,
null,,confidence_buffer,375617,confidence_buffer,,null,,,,,,,,,,,,,,,,,,
2667.300000000745,,pt2_memorable_rating,378285,Fictional_Cities_List/img_manmade_06.png,,50,,,2,,,,,,,,,,,,,,,
null,,confidence_buffer,378387,confidence_buffer,,null,,,,,,,,,,,,,,,,,,
5175.89999999851,,recognition_phase,383564,Fictional_Cities_List/img_manmade_06.png,,52,,,,,,new,1,1,,,,,,,,,,
null,,confidence_buffer,383666,confidence_buffer,,null,,,,,,,,,,,,,,,,,,
null,,thebreak,384167,break,,null,,,,,,,,,,,,,,,,,,
4242.300000000745,,realistic_rating,388411,US_Cities_List/nat_bisbee.png,,52,US_Cities_List/nat_bisbee.png,NAT,4,,,,,,,,,,,,,,,
null,,confidence_buffer,388512,confidence_buffer,,null,,,,,,,,,,,,,,,,,,
1776.8999999985099,,pt2_unique_rating,390290,US_Cities_List/nat_bisbee.png,,52,,,4,,,,,,,,,,,,,,,
null,,confidence_buffer,390391,confidence_buffer,,null,,,,,,,,,,,,,,,,,,
2225.300000000745,,pt2_memorable_rating,392618,US_Cities_List/nat_bisbee.png,,53,,,5,,,,,,,,,,,,,,,
null,,confidence_buffer,392720,confidence_buffer,,null,,,,,,,,,,,,,,,,,,
3327.699999999255,,recognition_phase,396049,US_Cities_List/nat_bisbee.png,,52,,,,,,new,1,1,,,,,,,,,,
null,,confidence_buffer,396150,confidence_buffer,,null,,,,,,,,,,,,,,,,,,
null,,thebreak,396652,break,,null,,,,,,,,,,,,,,,,,,
5591.89999999851,,realistic_rating,402245,US_Cities_List/mm_athens.png,,52,US_Cities_List/mm_athens.png,MM,4,,,,,,,,,,,,,,,
null,,confidence_buffer,402346,confidence_buffer,,null,,,,,,,,,,,,,,,,,,
3268.10000000149,,pt2_unique_rating,405615,US_Cities_List/mm_athens.png,,50,,,2,,,,,,,,,,,,,,,
null,,confidence_buffer,405717,confidence_buffer,,null,,,,,,,,,,,,,,,,,,
2185.699999999255,,pt2_memorable_rating,407904,US_Cities_List/mm_athens.png,,50,,,2,,,,,,,,,,,,,,,
null,,confidence_buffer,408006,confidence_buffer,,null,,,,,,,,,,,,,,,,,,
2412.2999999970198,,recognition_phase,410419,US_Cities_List/mm_athens.png,,49,,,,,,old,1,1,,,,,,,,,,
null,,confidence_buffer,410521,confidence_buffer,,null,,,,,,,,,,,,,,,,,,
null,,thebreak,411022,break,,null,,,,,,,,,,,,,,,,,,
3422.300000000745,,realistic_rating,414446,US_Cities_List/nat_athens.png,,52,US_Cities_List/nat_athens.png,NAT,4,,,,,,,,,,,,,,,
null,,confidence_buffer,414548,confidence_buffer,,null,,,,,,,,,,,,,,,,,,
3188.300000000745,,pt2_unique_rating,417737,US_Cities_List/nat_athens.png,,51,,,3,,,,,,,,,,,,,,,
null,,confidence_buffer,417839,confidence_buffer,,null,,,,,,,,,,,,,,,,,,
1907.699999999255,,pt2_memorable_rating,419747,US_Cities_List/nat_athens.png,,50,,,2,,,,,,,,,,,,,,,
null,,confidence_buffer,419848,confidence_buffer,,null,,,,,,,,,,,,,,,,,,
1863,,recognition_phase,421712,US_Cities_List/nat_athens.png,,52,,,,,,new,1,1,,,,,,,,,,
null,,confidence_buffer,421813,confidence_buffer,,null,,,,,,,,,,,,,,,,,,
null,,thebreak,422316,break,,null,,,,,,,,,,,,,,,,,,
3517.099999997765,,realistic_rating,425833,US_Cities_List/nat_healdsburg.png,,53,US_Cities_List/nat_healdsburg.png,NAT,5,,,,,,,,,,,,,,,
null,,confidence_buffer,425934,confidence_buffer,,null,,,,,,,,,,,,,,,,,,
2536.89999999851,,pt2_unique_rating,428472,US_Cities_List/nat_healdsburg.png,,51,,,3,,,,,,,,,,,,,,,
null,,confidence_buffer,428574,confidence_buffer,,null,,,,,,,,,,,,,,,,,,
2062.800000000745,,pt2_memorable_rating,430637,US_Cities_List/nat_healdsburg.png,,51,,,3,,,,,,,,,,,,,,,
null,,confidence_buffer,430739,confidence_buffer,,null,,,,,,,,,,,,,,,,,,
2263.5,,recognition_phase,433003,US_Cities_List/nat_healdsburg.png,,52,,,,,,new,0,0.8,,,,,,,,,,
null,,confidence_buffer,433105,confidence_buffer,,null,,,,,,,,,,,,,,,,,,
null,,thebreak,433607,break,,null,,,,,,,,,,,,,,,,,,
4961,,realistic_rating,438569,US_Cities_List/nat_peoria.png,,52,US_Cities_List/nat_peoria.png,NAT,4,,,,,,,,,,,,,,,
null,,confidence_buffer,438671,confidence_buffer,,null,,,,,,,,,,,,,,,,,,
2527,,pt2_unique_rating,441199,US_Cities_List/nat_peoria.png,,51,,,3,,,,,,,,,,,,,,,
null,,confidence_buffer,441301,confidence_buffer,,null,,,,,,,,,,,,,,,,,,
1780.199999999255,,pt2_memorable_rating,443082,US_Cities_List/nat_peoria.png,,51,,,3,,,,,,,,,,,,,,,
null,,confidence_buffer,443183,confidence_buffer,,null,,,,,,,,,,,,,,,,,,
2839,,probe_rating,446023,probe_rating,,51,,,,3,1,,,,,,,,,,,,,
null,,confidence_buffer,446124,confidence_buffer,,null,,,,,,,,,,,,,,,,,,
4056.699999999255,,recognition_phase,450182,US_Cities_List/nat_peoria.png,,52,,,,,,new,1,0.8333333333333334,,,,,,,,,,
null,,confidence_buffer,450283,confidence_buffer,,null,,,,,,,,,,,,,,,,,,
null,,thebreak,450785,break,,null,,,,,,,,,,,,,,,,,,
5487.5,,realistic_rating,456273,US_Cities_List/mm_sitka.png,,52,US_Cities_List/mm_sitka.png,MM,4,,,,,,,,,,,,,,,
null,,confidence_buffer,456374,confidence_buffer,,null,,,,,,,,,,,,,,,,,,
2433.400000002235,,pt2_unique_rating,458808,US_Cities_List/mm_sitka.png,,51,,,3,,,,,,,,,,,,,,,
null,,confidence_buffer,458918,confidence_buffer,,null,,,,,,,,,,,,,,,,,,
4018.10000000149,,pt2_memorable_rating,462937,US_Cities_List/mm_sitka.png,,50,,,2,,,,,,,,,,,,,,,
null,,confidence_buffer,463039,confidence_buffer,,null,,,,,,,,,,,,,,,,,,
2377.599999997765,,recognition_phase,465418,US_Cities_List/mm_sitka.png,,52,,,,,,new,1,0.8571428571428571,,,,,,,,,,
null,,confidence_buffer,465520,confidence_buffer,,null,,,,,,,,,,,,,,,,,,
null,,thebreak,466022,break,,null,,,,,,,,,,,,,,,,,,
4226.39999999851,,realistic_rating,470250,Fictional_Cities_List/img_manmade_07.png,,51,Fictional_Cities_List/img_manmade_07.png,MM,3,,,,,,,,,,,,,,,
null,,confidence_buffer,470352,confidence_buffer,,null,,,,,,,,,,,,,,,,,,
1693.199999999255,,pt2_unique_rating,472046,Fictional_Cities_List/img_manmade_07.png,,50,,,2,,,,,,,,,,,,,,,
null,,confidence_buffer,472148,confidence_buffer,,null,,,,,,,,,,,,,,,,,,
1866.1000000014901,,pt2_memorable_rating,474015,Fictional_Cities_List/img_manmade_07.png,,49,,,1,,,,,,,,,,,,,,,
null,,confidence_buffer,474117,confidence_buffer,,null,,,,,,,,,,,,,,,,,,
1860.699999999255,,recognition_phase,475980,Fictional_Cities_List/img_manmade_07.png,,49,,,,,,old,1,0.875,,,,,,,,,,
null,,confidence_buffer,476094,confidence_buffer,,null,,,,,,,,,,,,,,,,,,
null,,thebreak,476595,break,,null,,,,,,,,,,,,,,,,,,
3020.900000002235,,realistic_rating,479617,US_Cities_List/nat_coeurdalene.png,,52,US_Cities_List/nat_coeurdalene.png,NAT,4,,,,,,,,,,,,,,,
null,,confidence_buffer,479719,confidence_buffer,,null,,,,,,,,,,,,,,,,,,
2009,,pt2_unique_rating,481729,US_Cities_List/nat_coeurdalene.png,,52,,,4,,,,,,,,,,,,,,,
null,,confidence_buffer,481831,confidence_buffer,,null,,,,,,,,,,,,,,,,,,
1429.0999999977648,,pt2_memorable_rating,483261,US_Cities_List/nat_coeurdalene.png,,51,,,3,,,,,,,,,,,,,,,
null,,confidence_buffer,483363,confidence_buffer,,null,,,,,,,,,,,,,,,,,,
1418.800000000745,,recognition_phase,484783,US_Cities_List/nat_coeurdalene.png,,49,,,,,,old,1,0.8888888888888888,,,,,,,,,,
null,,confidence_buffer,484884,confidence_buffer,,null,,,,,,,,,,,,,,,,,,
null,,thebreak,485386,break,,null,,,,,,,,,,,,,,,,,,
4671.5,,realistic_rating,490058,Fictional_Cities_List/img_manmade_10.png,,52,Fictional_Cities_List/img_manmade_10.png,MM,4,,,,,,,,,,,,,,,
null,,confidence_buffer,490163,confidence_buffer,,null,,,,,,,,,,,,,,,,,,
1685.6000000014901,,pt2_unique_rating,491849,Fictional_Cities_List/img_manmade_10.png,,51,,,3,,,,,,,,,,,,,,,
null,,confidence_buffer,491952,confidence_buffer,,null,,,,,,,,,,,,,,,,,,
2619.5,,pt2_memorable_rating,494572,Fictional_Cities_List/img_manmade_10.png,,51,,,3,,,,,,,,,,,,,,,
null,,confidence_buffer,494673,confidence_buffer,,null,,,,,,,,,,,,,,,,,,
2304.5,,recognition_phase,496979,Fictional_Cities_List/img_manmade_10.png,,52,,,,,,new,1,0.9,,,,,,,,,,
null,,confidence_buffer,497081,confidence_buffer,,null,,,,,,,,,,,,,,,,,,
null,,thebreak,497583,break,,null,,,,,,,,,,,,,,,,,,
4088,,realistic_rating,501671,Fictional_Cities_List/img_natural_04.png,,52,Fictional_Cities_List/img_natural_04.png,NAT,4,,,,,,,,,,,,,,,
null,,confidence_buffer,501774,confidence_buffer,,null,,,,,,,,,,,,,,,,,,
1445.300000000745,,pt2_unique_rating,503220,Fictional_Cities_List/img_natural_04.png,,52,,,4,,,,,,,,,,,,,,,
null,,confidence_buffer,503321,confidence_buffer,,null,,,,,,,,,,,,,,,,,,
1566.6000000014901,,pt2_memorable_rating,504889,Fictional_Cities_List/img_natural_04.png,,52,,,4,,,,,,,,,,,,,,,
null,,confidence_buffer,504991,confidence_buffer,,null,,,,,,,,,,,,,,,,,,
1820.5,,recognition_phase,506812,Fictional_Cities_List/img_natural_04.png,,49,,,,,,old,1,0.9090909090909091,,,,,,,,,,
null,,confidence_buffer,506914,confidence_buffer,,null,,,,,,,,,,,,,,,,,,
null,,thebreak,507431,break,,null,,,,,,,,,,,,,,,,,,
2754.39999999851,,realistic_rating,510186,Fictional_Cities_List/img_natural_07.png,,52,Fictional_Cities_List/img_natural_07.png,NAT,4,,,,,,,,,,,,,,,
null,,confidence_buffer,510288,confidence_buffer,,null,,,,,,,,,,,,,,,,,,
2925.39999999851,,pt2_unique_rating,513214,Fictional_Cities_List/img_natural_07.png,,51,,,3,,,,,,,,,,,,,,,
null,,confidence_buffer,513315,confidence_buffer,,null,,,,,,,,,,,,,,,,,,
1667.4000000022352,,pt2_memorable_rating,514983,Fictional_Cities_List/img_natural_07.png,,51,,,3,,,,,,,,,,,,,,,
null,,confidence_buffer,515085,confidence_buffer,,null,,,,,,,,,,,,,,,,,,
2421.7000000029802,,recognition_phase,517508,Fictional_Cities_List/img_natural_07.png,,52,,,,,,new,1,0.9166666666666666,,,,,,,,,,
null,,confidence_buffer,517609,confidence_buffer,,null,,,,,,,,,,,,,,,,,,
null,,thebreak,518111,break,,null,,,,,,,,,,,,,,,,,,
4340.10000000149,,realistic_rating,522451,US_Cities_List/mm_peoria.png,,51,US_Cities_List/mm_peoria.png,MM,3,,,,,,,,,,,,,,,
null,,confidence_buffer,522552,confidence_buffer,,null,,,,,,,,,,,,,,,,,,
2122.5,,pt2_unique_rating,524676,US_Cities_List/mm_peoria.png,,50,,,2,,,,,,,,,,,,,,,
null,,confidence_buffer,524778,confidence_buffer,,null,,,,,,,,,,,,,,,,,,
3853.5,,pt2_memorable_rating,528633,US_Cities_List/mm_peoria.png,,49,,,1,,,,,,,,,,,,,,,
null,,confidence_buffer,528736,confidence_buffer,,null,,,,,,,,,,,,,,,,,,
1965.199999999255,,recognition_phase,530702,US_Cities_List/mm_peoria.png,,49,,,,,,old,1,0.9230769230769231,,,,,,,,,,
null,,confidence_buffer,530803,confidence_buffer,,null,,,,,,,,,,,,,,,,,,
null,,thebreak,531305,break,,null,,,,,,,,,,,,,,,,,,
4261.39999999851,,realistic_rating,535567,US_Cities_List/mm_westpalmbeach.png,,52,US_Cities_List/mm_westpalmbeach.png,MM,4,,,,,,,,,,,,,,,
null,,confidence_buffer,535669,confidence_buffer,,null,,,,,,,,,,,,,,,,,,
2089.900000002235,,probe_rating,537760,probe_rating,,51,,,,3,1,,,,,,,,,,,,,
null,,confidence_buffer,537862,confidence_buffer,,null,,,,,,,,,,,,,,,,,,
1538.7999999970198,,pt2_unique_rating,539402,US_Cities_List/mm_westpalmbeach.png,,51,,,3,,,,,,,,,,,,,,,
null,,confidence_buffer,539503,confidence_buffer,,null,,,,,,,,,,,,,,,,,,
2773.699999999255,,pt2_memorable_rating,542277,US_Cities_List/mm_westpalmbeach.png,,51,,,3,,,,,,,,,,,,,,,
null,,confidence_buffer,542379,confidence_buffer,,null,,,,,,,,,,,,,,,,,,
1699.5999999977648,,recognition_phase,544079,US_Cities_List/mm_westpalmbeach.png,,52,,,,,,new,1,0.9285714285714286,,,,,,,,,,
null,,confidence_buffer,544181,confidence_buffer,,null,,,,,,,,,,,,,,,,,,
null,,thebreak,544684,break,,null,,,,,,,,,,,,,,,,,,
2688.199999999255,,realistic_rating,547372,Fictional_Cities_List/img_natural_14.png,,52,Fictional_Cities_List/img_natural_14.png,NAT,4,,,,,,,,,,,,,,,
null,,confidence_buffer,547475,confidence_buffer,,null,,,,,,,,,,,,,,,,,,
1924.800000000745,,pt2_unique_rating,549400,Fictional_Cities_List/img_natural_14.png,,52,,,4,,,,,,,,,,,,,,,
null,,confidence_buffer,549503,confidence_buffer,,null,,,,,,,,,,,,,,,,,,
1534.699999999255,,pt2_memorable_rating,551039,Fictional_Cities_List/img_natural_14.png,,52,,,4,,,,,,,,,,,,,,,
null,,confidence_buffer,551140,confidence_buffer,,null,,,,,,,,,,,,,,,,,,
2063.099999997765,,recognition_phase,553204,Fictional_Cities_List/img_natural_14.png,,52,,,,,,new,1,0.9333333333333333,,,,,,,,,,
null,,confidence_buffer,553306,confidence_buffer,,null,,,,,,,,,,,,,,,,,,
null,,thebreak,553808,break,,null,,,,,,,,,,,,,,,,,,
5905.199999999255,,realistic_rating,559714,Fictional_Cities_List/img_natural_03.png,,50,Fictional_Cities_List/img_natural_03.png,NAT,2,,,,,,,,,,,,,,,
null,,confidence_buffer,559816,confidence_buffer,,null,,,,,,,,,,,,,,,,,,
2718.7000000029802,,pt2_unique_rating,562536,Fictional_Cities_List/img_natural_03.png,,51,,,3,,,,,,,,,,,,,,,
null,,confidence_buffer,562637,confidence_buffer,,null,,,,,,,,,,,,,,,,,,
1558,,pt2_memorable_rating,564196,Fictional_Cities_List/img_natural_03.png,,51,,,3,,,,,,,,,,,,,,,
null,,confidence_buffer,564299,confidence_buffer,,null,,,,,,,,,,,,,,,,,,
2546.5,,probe_rating,566847,probe_rating,,49,,,,1,1,,,,,,,,,,,,,
null,,confidence_buffer,566950,confidence_buffer,,null,,,,,,,,,,,,,,,,,,
2739.800000000745,,recognition_phase,569691,Fictional_Cities_List/img_natural_03.png,,52,,,,,,new,1,0.9375,,,,,,,,,,
null,,confidence_buffer,569792,confidence_buffer,,null,,,,,,,,,,,,,,,,,,
null,,thebreak,570293,break,,null,,,,,,,,,,,,,,,,,,
4188.79999999702,,realistic_rating,574483,US_Cities_List/mm_healdsburg.png,,51,US_Cities_List/mm_healdsburg.png,MM,3,,,,,,,,,,,,,,,
null,,confidence_buffer,574585,confidence_buffer,,null,,,,,,,,,,,,,,,,,,
3188.60000000149,,pt2_unique_rating,577774,US_Cities_List/mm_healdsburg.png,,50,,,2,,,,,,,,,,,,,,,
null,,confidence_buffer,577876,confidence_buffer,,null,,,,,,,,,,,,,,,,,,
2572.699999999255,,probe_rating,580449,probe_rating,,50,,,,2,1,,,,,,,,,,,,,
null,,confidence_buffer,580552,confidence_buffer,,null,,,,,,,,,,,,,,,,,,
3676.5,,pt2_memorable_rating,584229,US_Cities_List/mm_healdsburg.png,,50,,,2,,,,,,,,,,,,,,,
null,,confidence_buffer,584331,confidence_buffer,,null,,,,,,,,,,,,,,,,,,
2222.699999999255,,recognition_phase,586554,US_Cities_List/mm_healdsburg.png,,51,,,,,,new,1,0.9411764705882353,,,,,,,,,,
null,,confidence_buffer,586656,confidence_buffer,,null,,,,,,,,,,,,,,,,,,
null,,thebreak,587157,break,,null,,,,,,,,,,,,,,,,,,
4672.10000000149,,realistic_rating,591830,US_Cities_List/nat_hotsprings.png,,52,US_Cities_List/nat_hotsprings.png,NAT,4,,,,,,,,,,,,,,,
null,,confidence_buffer,591932,confidence_buffer,,null,,,,,,,,,,,,,,,,,,
1775.4000000022352,,pt2_unique_rating,593708,US_Cities_List/nat_hotsprings.png,,51,,,3,,,,,,,,,,,,,,,
null,,confidence_buffer,593817,confidence_buffer,,null,,,,,,,,,,,,,,,,,,
2692.699999999255,,pt2_memorable_rating,596511,US_Cities_List/nat_hotsprings.png,,51,,,3,,,,,,,,,,,,,,,
null,,confidence_buffer,596612,confidence_buffer,,null,,,,,,,,,,,,,,,,,,
2431.5,,recognition_phase,599045,US_Cities_List/nat_hotsprings.png,,50,,,,,,old,1,0.9444444444444444,,,,,,,,,,
null,,confidence_buffer,599148,confidence_buffer,,null,,,,,,,,,,,,,,,,,,
null,,thebreak,599649,break,,null,,,,,,,,,,,,,,,,,,
3851.5,,realistic_rating,603502,US_Cities_List/nat_abilene.png,,52,US_Cities_List/nat_abilene.png,NAT,4,,,,,,,,,,,,,,,
null,,confidence_buffer,603604,confidence_buffer,,null,,,,,,,,,,,,,,,,,,
3154.900000002235,,pt2_unique_rating,606759,US_Cities_List/nat_abilene.png,,51,,,3,,,,,,,,,,,,,,,
null,,confidence_buffer,606873,confidence_buffer,,null,,,,,,,,,,,,,,,,,,
2186.099999997765,,pt2_memorable_rating,609060,US_Cities_List/nat_abilene.png,,50,,,2,,,,,,,,,,,,,,,
null,,confidence_buffer,609162,confidence_buffer,,null,,,,,,,,,,,,,,,,,,
2252.400000002235,,recognition_phase,611416,US_Cities_List/nat_abilene.png,,52,,,,,,new,1,0.9473684210526315,,,,,,,,,,
null,,confidence_buffer,611518,confidence_buffer,,null,,,,,,,,,,,,,,,,,,
null,,thebreak,612018,break,,null,,,,,,,,,,,,,,,,,,
2200.5,,realistic_rating,614220,Fictional_Cities_List/img_manmade_05.png,,52,Fictional_Cities_List/img_manmade_05.png,MM,4,,,,,,,,,,,,,,,
null,,confidence_buffer,614322,confidence_buffer,,null,,,,,,,,,,,,,,,,,,
1581.3999999985099,,pt2_unique_rating,615905,Fictional_Cities_List/img_manmade_05.png,,51,,,3,,,,,,,,,,,,,,,
null,,confidence_buffer,616007,confidence_buffer,,null,,,,,,,,,,,,,,,,,,
1962.800000000745,,pt2_memorable_rating,617971,Fictional_Cities_List/img_manmade_05.png,,51,,,3,,,,,,,,,,,,,,,
null,,confidence_buffer,618072,confidence_buffer,,null,,,,,,,,,,,,,,,,,,
6707.60000000149,,probe_rating,624781,probe_rating,,49,,,,1,1,,,,,,,,,,,,,
null,,confidence_buffer,624882,confidence_buffer,,null,,,,,,,,,,,,,,,,,,
2120.800000000745,,recognition_phase,627004,Fictional_Cities_List/img_manmade_05.png,,49,,,,,,old,1,0.95,,,,,,,,,,
null,,confidence_buffer,627107,confidence_buffer,,null,,,,,,,,,,,,,,,,,,
null,,thebreak,627608,break,,null,,,,,,,,,,,,,,,,,,
2156.2000000029802,,realistic_rating,629765,Fictional_Cities_List/img_manmade_02.png,,52,Fictional_Cities_List/img_manmade_02.png,MM,4,,,,,,,,,,,,,,,
null,,confidence_buffer,629867,confidence_buffer,,null,,,,,,,,,,,,,,,,,,
1368.1000000014901,,pt2_unique_rating,631236,Fictional_Cities_List/img_manmade_02.png,,51,,,3,,,,,,,,,,,,,,,
null,,confidence_buffer,631338,confidence_buffer,,null,,,,,,,,,,,,,,,,,,
1866,,pt2_memorable_rating,633205,Fictional_Cities_List/img_manmade_02.png,,50,,,2,,,,,,,,,,,,,,,
null,,confidence_buffer,633307,confidence_buffer,,null,,,,,,,,,,,,,,,,,,
1578.8999999985099,,recognition_phase,634888,Fictional_Cities_List/img_manmade_02.png,,52,,,,,,new,1,0.9523809523809523,,,,,,,,,,
null,,confidence_buffer,634989,confidence_buffer,,null,,,,,,,,,,,,,,,,,,
null,,thebreak,635491,break,,null,,,,,,,,,,,,,,,,,,
2147.89999999851,,realistic_rating,637640,Fictional_Cities_List/img_manmade_15.png,,52,Fictional_Cities_List/img_manmade_15.png,MM,4,,,,,,,,,,,,,,,
null,,confidence_buffer,637741,confidence_buffer,,null,,,,,,,,,,,,,,,,,,
1512,,pt2_unique_rating,639254,Fictional_Cities_List/img_manmade_15.png,,52,,,4,,,,,,,,,,,,,,,
null,,confidence_buffer,639356,confidence_buffer,,null,,,,,,,,,,,,,,,,,,
1902.5,,pt2_memorable_rating,641259,Fictional_Cities_List/img_manmade_15.png,,51,,,3,,,,,,,,,,,,,,,
null,,confidence_buffer,641361,confidence_buffer,,null,,,,,,,,,,,,,,,,,,
1689.3999999985099,,recognition_phase,643051,Fictional_Cities_List/img_manmade_15.png,,49,,,,,,old,1,0.9545454545454546,,,,,,,,,,
null,,confidence_buffer,643152,confidence_buffer,,null,,,,,,,,,,,,,,,,,,
null,,thebreak,643654,break,,null,,,,,,,,,,,,,,,,,,
3046.800000000745,,realistic_rating,646701,US_Cities_List/mm_bisbee.png,,52,US_Cities_List/mm_bisbee.png,MM,4,,,,,,,,,,,,,,,
null,,confidence_buffer,646803,confidence_buffer,,null,,,,,,,,,,,,,,,,,,
2246.699999999255,,pt2_unique_rating,649050,US_Cities_List/mm_bisbee.png,,50,,,2,,,,,,,,,,,,,,,
null,,confidence_buffer,649153,confidence_buffer,,null,,,,,,,,,,,,,,,,,,
2262.5,,pt2_memorable_rating,651416,US_Cities_List/mm_bisbee.png,,50,,,2,,,,,,,,,,,,,,,
null,,confidence_buffer,651519,confidence_buffer,,null,,,,,,,,,,,,,,,,,,
1725,,recognition_phase,653245,US_Cities_List/mm_bisbee.png,,49,,,,,,old,1,0.9565217391304348,,,,,,,,,,
null,,confidence_buffer,653346,confidence_buffer,,null,,,,,,,,,,,,,,,,,,
null,,thebreak,653848,break,,null,,,,,,,,,,,,,,,,,,
2287.300000000745,,realistic_rating,656136,Fictional_Cities_List/img_manmade_13.png,,52,Fictional_Cities_List/img_manmade_13.png,MM,4,,,,,,,,,,,,,,,
null,,confidence_buffer,656239,confidence_buffer,,null,,,,,,,,,,,,,,,,,,
2284.599999997765,,pt2_unique_rating,658524,Fictional_Cities_List/img_manmade_13.png,,51,,,3,,,,,,,,,,,,,,,
null,,confidence_buffer,658627,confidence_buffer,,null,,,,,,,,,,,,,,,,,,
1264.0999999977648,,pt2_memorable_rating,659892,Fictional_Cities_List/img_manmade_13.png,,50,,,2,,,,,,,,,,,,,,,
null,,confidence_buffer,659994,confidence_buffer,,null,,,,,,,,,,,,,,,,,,
1885.800000000745,,recognition_phase,661880,Fictional_Cities_List/img_manmade_13.png,,52,,,,,,new,1,0.9583333333333334,,,,,,,,,,
null,,confidence_buffer,661982,confidence_buffer,,null,,,,,,,,,,,,,,,,,,
null,,thebreak,662483,break,,null,,,,,,,,,,,,,,,,,,
3799,,realistic_rating,666283,Fictional_Cities_List/img_manmade_08.png,,52,Fictional_Cities_List/img_manmade_08.png,MM,4,,,,,,,,,,,,,,,
null,,confidence_buffer,666384,confidence_buffer,,null,,,,,,,,,,,,,,,,,,
2109,,pt2_unique_rating,668494,Fictional_Cities_List/img_manmade_08.png,,52,,,4,,,,,,,,,,,,,,,
null,,confidence_buffer,668595,confidence_buffer,,null,,,,,,,,,,,,,,,,,,
1977.3999999985099,,pt2_memorable_rating,670573,Fictional_Cities_List/img_manmade_08.png,,51,,,3,,,,,,,,,,,,,,,
null,,confidence_buffer,670675,confidence_buffer,,null,,,,,,,,,,,,,,,,,,
3872.7000000029802,,recognition_phase,674549,Fictional_Cities_List/img_manmade_08.png,,51,,,,,,new,1,0.96,,,,,,,,,,
null,,confidence_buffer,674651,confidence_buffer,,null,,,,,,,,,,,,,,,,,,
null,,thebreak,675153,break,,null,,,,,,,,,,,,,,,,,,
3571.300000000745,,realistic_rating,678725,Fictional_Cities_List/img_natural_01.png,,52,Fictional_Cities_List/img_natural_01.png,NAT,4,,,,,,,,,,,,,,,
null,,confidence_buffer,678826,confidence_buffer,,null,,,,,,,,,,,,,,,,,,
2142.199999999255,,pt2_unique_rating,680969,Fictional_Cities_List/img_natural_01.png,,52,,,4,,,,,,,,,,,,,,,
null,,confidence_buffer,681072,confidence_buffer,,null,,,,,,,,,,,,,,,,,,
1887.1000000014901,,pt2_memorable_rating,682960,Fictional_Cities_List/img_natural_01.png,,53,,,5,,,,,,,,,,,,,,,
null,,confidence_buffer,683062,confidence_buffer,,null,,,,,,,,,,,,,,,,,,
1758,,recognition_phase,684821,Fictional_Cities_List/img_natural_01.png,,49,,,,,,old,1,0.9615384615384616,,,,,,,,,,
null,,confidence_buffer,684923,confidence_buffer,,null,,,,,,,,,,,,,,,,,,
null,,thebreak,685425,break,,null,,,,,,,,,,,,,,,,,,
4136.39999999851,,realistic_rating,689562,US_Cities_List/nat_sitka.png,,53,US_Cities_List/nat_sitka.png,NAT,5,,,,,,,,,,,,,,,
null,,confidence_buffer,689664,confidence_buffer,,null,,,,,,,,,,,,,,,,,,
2377.60000000149,,pt2_unique_rating,692043,US_Cities_List/nat_sitka.png,,51,,,3,,,,,,,,,,,,,,,
null,,confidence_buffer,692144,confidence_buffer,,null,,,,,,,,,,,,,,,,,,
3188.300000000745,,pt2_memorable_rating,695334,US_Cities_List/nat_sitka.png,,50,,,2,,,,,,,,,,,,,,,
null,,confidence_buffer,695435,confidence_buffer,,null,,,,,,,,,,,,,,,,,,
1397.1000000014901,,recognition_phase,696834,US_Cities_List/nat_sitka.png,,49,,,,,,old,1,0.9629629629629629,,,,,,,,,,
null,,confidence_buffer,696936,confidence_buffer,,null,,,,,,,,,,,,,,,,,,
null,,thebreak,697439,break,,null,,,,,,,,,,,,,,,,,,
3539.60000000149,,realistic_rating,700979,US_Cities_List/mm_hotsprings.png,,52,US_Cities_List/mm_hotsprings.png,MM,4,,,,,,,,,,,,,,,
null,,confidence_buffer,701080,confidence_buffer,,null,,,,,,,,,,,,,,,,,,
2401.199999999255,,pt2_unique_rating,703483,US_Cities_List/mm_hotsprings.png,,51,,,3,,,,,,,,,,,,,,,
null,,confidence_buffer,703586,confidence_buffer,,null,,,,,,,,,,,,,,,,,,
2439.300000000745,,pt2_memorable_rating,706026,US_Cities_List/mm_hotsprings.png,,50,,,2,,,,,,,,,,,,,,,
null,,confidence_buffer,706128,confidence_buffer,,null,,,,,,,,,,,,,,,,,,
1186.8999999985099,,recognition_phase,707316,US_Cities_List/mm_hotsprings.png,,49,,,,,,old,1,0.9642857142857143,,,,,,,,,,
null,,confidence_buffer,707417,confidence_buffer,,null,,,,,,,,,,,,,,,,,,
null,,thebreak,707919,break,,null,,,,,,,,,,,,,,,,,,
3745.39999999851,,realistic_rating,711666,Fictional_Cities_List/img_manmade_03.png,,51,Fictional_Cities_List/img_manmade_03.png,MM,3,,,,,,,,,,,,,,,
null,,confidence_buffer,711768,confidence_buffer,,null,,,,,,,,,,,,,,,,,,
2367.300000000745,,pt2_unique_rating,714137,Fictional_Cities_List/img_manmade_03.png,,52,,,4,,,,,,,,,,,,,,,
null,,confidence_buffer,714238,confidence_buffer,,null,,,,,,,,,,,,,,,,,,
3404.300000000745,,pt2_memorable_rating,717644,Fictional_Cities_List/img_manmade_03.png,,52,,,4,,,,,,,,,,,,,,,
null,,confidence_buffer,717745,confidence_buffer,,null,,,,,,,,,,,,,,,,,,
2348.7000000029802,,probe_rating,720095,probe_rating,,49,,,,1,1,,,,,,,,,,,,,
null,,confidence_buffer,720197,confidence_buffer,,null,,,,,,,,,,,,,,,,,,
1577.0999999977648,,recognition_phase,721775,Fictional_Cities_List/img_manmade_03.png,,52,,,,,,new,1,0.9655172413793104,,,,,,,,,,
null,,confidence_buffer,721876,confidence_buffer,,null,,,,,,,,,,,,,,,,,,
null,,thebreak,722378,break,,null,,,,,,,,,,,,,,,,,,
3023.699999999255,,realistic_rating,725402,Fictional_Cities_List/img_manmade_12.png,,52,Fictional_Cities_List/img_manmade_12.png,MM,4,,,,,,,,,,,,,,,
null,,confidence_buffer,725504,confidence_buffer,,null,,,,,,,,,,,,,,,,,,
3662.900000002235,,pt2_unique_rating,729168,Fictional_Cities_List/img_manmade_12.png,,51,,,3,,,,,,,,,,,,,,,
null,,confidence_buffer,729281,confidence_buffer,,null,,,,,,,,,,,,,,,,,,
2757.2000000029802,,pt2_memorable_rating,732039,Fictional_Cities_List/img_manmade_12.png,,51,,,3,,,,,,,,,,,,,,,
null,,confidence_buffer,732141,confidence_buffer,,null,,,,,,,,,,,,,,,,,,
5403.699999999255,,probe_rating,737546,probe_rating,,50,,,,2,1,,,,,,,,,,,,,
null,,confidence_buffer,737649,confidence_buffer,,null,,,,,,,,,,,,,,,,,,
2871.800000000745,,recognition_phase,740521,Fictional_Cities_List/img_manmade_12.png,,50,,,,,,old,1,0.9666666666666667,,,,,,,,,,
null,,confidence_buffer,740622,confidence_buffer,,null,,,,,,,,,,,,,,,,,,
null,,thebreak,741124,break,,null,,,,,,,,,,,,,,,,,,
2244.300000000745,,realistic_rating,743370,Fictional_Cities_List/img_manmade_11.png,,52,Fictional_Cities_List/img_manmade_11.png,MM,4,,,,,,,,,,,,,,,
null,,confidence_buffer,743476,confidence_buffer,,null,,,,,,,,,,,,,,,,,,
1951.699999999255,,pt2_unique_rating,745429,Fictional_Cities_List/img_manmade_11.png,,52,,,4,,,,,,,,,,,,,,,
null,,confidence_buffer,745530,confidence_buffer,,null,,,,,,,,,,,,,,,,,,
1939.8999999985099,,pt2_memorable_rating,747471,Fictional_Cities_List/img_manmade_11.png,,52,,,4,,,,,,,,,,,,,,,
null,,confidence_buffer,747573,confidence_buffer,,null,,,,,,,,,,,,,,,,,,
1863.300000000745,,recognition_phase,749437,Fictional_Cities_List/img_manmade_11.png,,49,,,,,,old,1,0.967741935483871,,,,,,,,,,
null,,confidence_buffer,749539,confidence_buffer,,null,,,,,,,,,,,,,,,,,,
null,,thebreak,750040,break,,null,,,,,,,,,,,,,,,,,,
2769.199999999255,,realistic_rating,752810,US_Cities_List/nat_okoboji.png,,52,US_Cities_List/nat_okoboji.png,NAT,4,,,,,,,,,,,,,,,
null,,confidence_buffer,752913,confidence_buffer,,null,,,,,,,,,,,,,,,,,,
2975.900000002235,,pt2_unique_rating,755890,US_Cities_List/nat_okoboji.png,,51,,,3,,,,,,,,,,,,,,,
null,,confidence_buffer,755992,confidence_buffer,,null,,,,,,,,,,,,,,,,,,
1433.3999999985099,,pt2_memorable_rating,757426,US_Cities_List/nat_okoboji.png,,50,,,2,,,,,,,,,,,,,,,
null,,confidence_buffer,757528,confidence_buffer,,null,,,,,,,,,,,,,,,,,,
1433.1000000014901,,recognition_phase,758962,US_Cities_List/nat_okoboji.png,,52,,,,,,new,1,0.96875,,,,,,,,,,
null,,confidence_buffer,759064,confidence_buffer,,null,,,,,,,,,,,,,,,,,,
null,,thebreak,759575,break,,null,,,,,,,,,,,,,,,,,,
2202.89999999851,,realistic_rating,761779,Fictional_Cities_List/img_natural_02.png,,52,Fictional_Cities_List/img_natural_02.png,NAT,4,,,,,,,,,,,,,,,
null,,confidence_buffer,761881,confidence_buffer,,null,,,,,,,,,,,,,,,,,,
2437.300000000745,,pt2_unique_rating,764319,Fictional_Cities_List/img_natural_02.png,,51,,,3,,,,,,,,,,,,,,,
null,,confidence_buffer,764422,confidence_buffer,,null,,,,,,,,,,,,,,,,,,
2689.89999999851,,pt2_memorable_rating,767113,Fictional_Cities_List/img_natural_02.png,,51,,,3,,,,,,,,,,,,,,,
null,,confidence_buffer,767214,confidence_buffer,,null,,,,,,,,,,,,,,,,,,
1986.5,,recognition_phase,769202,Fictional_Cities_List/img_natural_02.png,,49,,,,,,old,1,0.9696969696969697,,,,,,,,,,
null,,confidence_buffer,769304,confidence_buffer,,null,,,,,,,,,,,,,,,,,,
null,,thebreak,769805,break,,null,,,,,,,,,,,,,,,,,,
2508.5,,realistic_rating,772315,Fictional_Cities_List/img_natural_09.png,,52,Fictional_Cities_List/img_natural_09.png,NAT,4,,,,,,,,,,,,,,,
null,,confidence_buffer,772417,confidence_buffer,,null,,,,,,,,,,,,,,,,,,
2193.300000000745,,pt2_unique_rating,774611,Fictional_Cities_List/img_natural_09.png,,52,,,4,,,,,,,,,,,,,,,
null,,confidence_buffer,774713,confidence_buffer,,null,,,,,,,,,,,,,,,,,,
2619.800000000745,,pt2_memorable_rating,777333,Fictional_Cities_List/img_natural_09.png,,53,,,5,,,,,,,,,,,,,,,
null,,confidence_buffer,777435,confidence_buffer,,null,,,,,,,,,,,,,,,,,,
1989.800000000745,,recognition_phase,779426,Fictional_Cities_List/img_natural_09.png,,52,,,,,,new,1,0.9705882352941176,,,,,,,,,,
null,,confidence_buffer,779528,confidence_buffer,,null,,,,,,,,,,,,,,,,,,
null,,thebreak,780031,break,,null,,,,,,,,,,,,,,,,,,
5009.300000000745,,realistic_rating,785041,Fictional_Cities_List/img_manmade_09.png,,52,Fictional_Cities_List/img_manmade_09.png,MM,4,,,,,,,,,,,,,,,
null,,confidence_buffer,785143,confidence_buffer,,null,,,,,,,,,,,,,,,,,,
1473,,pt2_unique_rating,786616,Fictional_Cities_List/img_manmade_09.png,,51,,,3,,,,,,,,,,,,,,,
null,,confidence_buffer,786718,confidence_buffer,,null,,,,,,,,,,,,,,,,,,
2323.099999997765,,pt2_memorable_rating,789043,Fictional_Cities_List/img_manmade_09.png,,50,,,2,,,,,,,,,,,,,,,
null,,confidence_buffer,789145,confidence_buffer,,null,,,,,,,,,,,,,,,,,,
1738.300000000745,,recognition_phase,790884,Fictional_Cities_List/img_manmade_09.png,,50,,,,,,old,0,0.9428571428571428,,,,,,,,,,
null,,confidence_buffer,790985,confidence_buffer,,null,,,,,,,,,,,,,,,,,,
null,,thebreak,791486,break,,null,,,,,,,,,,,,,,,,,,
3584.300000000745,,realistic_rating,795071,US_Cities_List/mm_cornwall.png,,52,US_Cities_List/mm_cornwall.png,MM,4,,,,,,,,,,,,,,,
null,,confidence_buffer,795173,confidence_buffer,,null,,,,,,,,,,,,,,,,,,
4022.5,,probe_rating,799196,probe_rating,,53,,,,5,1,,,,,,,,,,,,,
null,,confidence_buffer,799298,confidence_buffer,,null,,,,,,,,,,,,,,,,,,
3275.300000000745,,pt2_unique_rating,802574,US_Cities_List/mm_cornwall.png,,51,,,3,,,,,,,,,,,,,,,
null,,confidence_buffer,802676,confidence_buffer,,null,,,,,,,,,,,,,,,,,,
1438.5,,pt2_memorable_rating,804115,US_Cities_List/mm_cornwall.png,,50,,,2,,,,,,,,,,,,,,,
null,,confidence_buffer,804217,confidence_buffer,,null,,,,,,,,,,,,,,,,,,
1021.6999999992549,,recognition_phase,805240,US_Cities_List/mm_cornwall.png,,49,,,,,,old,1,0.9444444444444444,,,,,,,,,,
null,,confidence_buffer,805343,confidence_buffer,,null,,,,,,,,,,,,,,,,,,
null,,thebreak,805844,break,,null,,,,,,,,,,,,,,,,,,
3431,,realistic_rating,809276,US_Cities_List/nat_westpalmbeach.png,,52,US_Cities_List/nat_westpalmbeach.png,NAT,4,,,,,,,,,,,,,,,
null,,confidence_buffer,809378,confidence_buffer,,null,,,,,,,,,,,,,,,,,,
1400.7999999970198,,pt2_unique_rating,810780,US_Cities_List/nat_westpalmbeach.png,,52,,,4,,,,,,,,,,,,,,,
null,,confidence_buffer,810881,confidence_buffer,,null,,,,,,,,,,,,,,,,,,
1195.7999999970198,,pt2_memorable_rating,812078,US_Cities_List/nat_westpalmbeach.png,,53,,,5,,,,,,,,,,,,,,,
null,,confidence_buffer,812181,confidence_buffer,,null,,,,,,,,,,,,,,,,,,
1122.1000000014901,,recognition_phase,813304,US_Cities_List/nat_westpalmbeach.png,,49,,,,,,old,1,0.9459459459459459,,,,,,,,,,
null,,confidence_buffer,813405,confidence_buffer,,null,,,,,,,,,,,,,,,,,,
null,,thebreak,813906,break,,null,,,,,,,,,,,,,,,,,,
2626.099999997765,,realistic_rating,816533,Fictional_Cities_List/img_natural_11.png,,52,Fictional_Cities_List/img_natural_11.png,NAT,4,,,,,,,,,,,,,,,
null,,confidence_buffer,816635,confidence_buffer,,null,,,,,,,,,,,,,,,,,,
3655.800000000745,,pt2_unique_rating,820292,Fictional_Cities_List/img_natural_11.png,,52,,,4,,,,,,,,,,,,,,,
null,,confidence_buffer,820393,confidence_buffer,,null,,,,,,,,,,,,,,,,,,
2768.89999999851,,pt2_memorable_rating,823163,Fictional_Cities_List/img_natural_11.png,,51,,,3,,,,,,,,,,,,,,,
null,,confidence_buffer,823265,confidence_buffer,,null,,,,,,,,,,,,,,,,,,
1593.0999999977648,,probe_rating,824859,probe_rating,,50,,,,2,1,,,,,,,,,,,,,
null,,confidence_buffer,824960,confidence_buffer,,null,,,,,,,,,,,,,,,,,,
3149.699999999255,,recognition_phase,828110,Fictional_Cities_List/img_natural_11.png,,50,,,,,,old,1,0.9473684210526315,,,,,,,,,,
null,,confidence_buffer,828212,confidence_buffer,,null,,,,,,,,,,,,,,,,,,
null,,thebreak,828714,break,,null,,,,,,,,,,,,,,,,,,
3940.5,,realistic_rating,832656,US_Cities_List/mm_abilene.png,,52,US_Cities_List/mm_abilene.png,MM,4,,,,,,,,,,,,,,,
null,,confidence_buffer,832757,confidence_buffer,,null,,,,,,,,,,,,,,,,,,
2358.89999999851,,pt2_unique_rating,835117,US_Cities_List/mm_abilene.png,,51,,,3,,,,,,,,,,,,,,,
null,,confidence_buffer,835219,confidence_buffer,,null,,,,,,,,,,,,,,,,,,
2272.5,,pt2_memorable_rating,837493,US_Cities_List/mm_abilene.png,,50,,,2,,,,,,,,,,,,,,,
null,,confidence_buffer,837594,confidence_buffer,,null,,,,,,,,,,,,,,,,,,
1765.7999999970198,,recognition_phase,839361,US_Cities_List/mm_abilene.png,,52,,,,,,new,1,0.9487179487179487,,,,,,,,,,
null,,confidence_buffer,839462,confidence_buffer,,null,,,,,,,,,,,,,,,,,,
null,,thebreak,839964,break,,null,,,,,,,,,,,,,,,,,,
3886.800000000745,,realistic_rating,843851,Fictional_Cities_List/img_natural_13.png,,52,Fictional_Cities_List/img_natural_13.png,NAT,4,,,,,,,,,,,,,,,
null,,confidence_buffer,843953,confidence_buffer,,null,,,,,,,,,,,,,,,,,,
3530,,pt2_unique_rating,847484,Fictional_Cities_List/img_natural_13.png,,52,,,4,,,,,,,,,,,,,,,
null,,confidence_buffer,847585,confidence_buffer,,null,,,,,,,,,,,,,,,,,,
2118.2000000029802,,pt2_memorable_rating,849704,Fictional_Cities_List/img_natural_13.png,,51,,,3,,,,,,,,,,,,,,,
null,,confidence_buffer,849806,confidence_buffer,,null,,,,,,,,,,,,,,,,,,
2824.199999999255,,recognition_phase,852631,Fictional_Cities_List/img_natural_13.png,,49,,,,,,old,1,0.95,,,,,,,,,,
null,,confidence_buffer,852733,confidence_buffer,,null,,,,,,,,,,,,,,,,,,
null,,thebreak,853235,break,,null,,,,,,,,,,,,,,,,,,
3048,,realistic_rating,856283,Fictional_Cities_List/img_manmade_04.png,,52,Fictional_Cities_List/img_manmade_04.png,MM,4,,,,,,,,,,,,,,,
null,,confidence_buffer,856385,confidence_buffer,,null,,,,,,,,,,,,,,,,,,
2252.5,,pt2_unique_rating,858638,Fictional_Cities_List/img_manmade_04.png,,51,,,3,,,,,,,,,,,,,,,
null,,confidence_buffer,858746,confidence_buffer,,null,,,,,,,,,,,,,,,,,,
2165.800000000745,,pt2_memorable_rating,860913,Fictional_Cities_List/img_manmade_04.png,,51,,,3,,,,,,,,,,,,,,,
null,,confidence_buffer,861015,confidence_buffer,,null,,,,,,,,,,,,,,,,,,
2722.599999997765,,recognition_phase,863738,Fictional_Cities_List/img_manmade_04.png,,49,,,,,,old,1,0.9512195121951219,,,,,,,,,,
null,,confidence_buffer,863839,confidence_buffer,,null,,,,,,,,,,,,,,,,,,
null,,thebreak,864341,break,,null,,,,,,,,,,,,,,,,,,
2751.5,,realistic_rating,867093,US_Cities_List/mm_carmel.png,,52,US_Cities_List/mm_carmel.png,MM,4,,,,,,,,,,,,,,,
null,,confidence_buffer,867195,confidence_buffer,,null,,,,,,,,,,,,,,,,,,
2034.6000000014901,,pt2_unique_rating,869231,US_Cities_List/mm_carmel.png,,51,,,3,,,,,,,,,,,,,,,
null,,confidence_buffer,869333,confidence_buffer,,null,,,,,,,,,,,,,,,,,,
2584.699999999255,,pt2_memorable_rating,871919,US_Cities_List/mm_carmel.png,,50,,,2,,,,,,,,,,,,,,,
null,,confidence_buffer,872020,confidence_buffer,,null,,,,,,,,,,,,,,,,,,
2832.5,,recognition_phase,874854,US_Cities_List/mm_carmel.png,,52,,,,,,new,1,0.9523809523809523,,,,,,,,,,
null,,confidence_buffer,874956,confidence_buffer,,null,,,,,,,,,,,,,,,,,,
null,,thebreak,875457,break,,null,,,,,,,,,,,,,,,,,,
4250.89999999851,,realistic_rating,879709,Fictional_Cities_List/img_natural_12.png,,51,Fictional_Cities_List/img_natural_12.png,NAT,3,,,,,,,,,,,,,,,
null,,confidence_buffer,879812,confidence_buffer,,null,,,,,,,,,,,,,,,,,,
1541,,pt2_unique_rating,881354,Fictional_Cities_List/img_natural_12.png,,52,,,4,,,,,,,,,,,,,,,
null,,confidence_buffer,881456,confidence_buffer,,null,,,,,,,,,,,,,,,,,,
1784,,pt2_memorable_rating,883241,Fictional_Cities_List/img_natural_12.png,,53,,,5,,,,,,,,,,,,,,,
null,,confidence_buffer,883343,confidence_buffer,,null,,,,,,,,,,,,,,,,,,
1626.0999999977648,,recognition_phase,884970,Fictional_Cities_List/img_natural_12.png,,51,,,,,,new,1,0.9534883720930233,,,,,,,,,,
null,,confidence_buffer,885072,confidence_buffer,,null,,,,,,,,,,,,,,,,,,
null,,thebreak,885581,break,,null,,,,,,,,,,,,,,,,,,
2510.10000000149,,realistic_rating,888092,US_Cities_List/mm_okoboji.png,,52,US_Cities_List/mm_okoboji.png,MM,4,,,,,,,,,,,,,,,
null,,confidence_buffer,888194,confidence_buffer,,null,,,,,,,,,,,,,,,,,,
2012.5,,pt2_unique_rating,890207,US_Cities_List/mm_okoboji.png,,51,,,3,,,,,,,,,,,,,,,
null,,confidence_buffer,890309,confidence_buffer,,null,,,,,,,,,,,,,,,,,,
1707.199999999255,,pt2_memorable_rating,892017,US_Cities_List/mm_okoboji.png,,50,,,2,,,,,,,,,,,,,,,
null,,confidence_buffer,892119,confidence_buffer,,null,,,,,,,,,,,,,,,,,,
1480.5,,recognition_phase,893601,US_Cities_List/mm_okoboji.png,,52,,,,,,new,1,0.9545454545454546,,,,,,,,,,
null,,confidence_buffer,893702,confidence_buffer,,null,,,,,,,,,,,,,,,,,,
null,,thebreak,894203,break,,null,,,,,,,,,,,,,,,,,,
3029.89999999851,,realistic_rating,897234,Fictional_Cities_List/img_manmade_01.png,,51,Fictional_Cities_List/img_manmade_01.png,MM,3,,,,,,,,,,,,,,,
null,,confidence_buffer,897335,confidence_buffer,,null,,,,,,,,,,,,,,,,,,
2026.3999999985099,,pt2_unique_rating,899362,Fictional_Cities_List/img_manmade_01.png,,51,,,3,,,,,,,,,,,,,,,
null,,confidence_buffer,899465,confidence_buffer,,null,,,,,,,,,,,,,,,,,,
2258.39999999851,,pt2_memorable_rating,901724,Fictional_Cities_List/img_manmade_01.png,,51,,,3,,,,,,,,,,,,,,,
null,,confidence_buffer,901826,confidence_buffer,,null,,,,,,,,,,,,,,,,,,
1977.699999999255,,recognition_phase,903805,Fictional_Cities_List/img_manmade_01.png,,51,,,,,,new,1,0.9555555555555556,,,,,,,,,,
null,,confidence_buffer,903906,confidence_buffer,,null,,,,,,,,,,,,,,,,,,
null,,thebreak,904407,break,,null,,,,,,,,,,,,,,,,,,
2691.89999999851,,realistic_rating,907100,Fictional_Cities_List/img_natural_08.png,,52,Fictional_Cities_List/img_natural_08.png,NAT,4,,,,,,,,,,,,,,,
null,,confidence_buffer,907202,confidence_buffer,,null,,,,,,,,,,,,,,,,,,
3596.2000000029802,,pt2_unique_rating,910800,Fictional_Cities_List/img_natural_08.png,,52,,,4,,,,,,,,,,,,,,,
null,,confidence_buffer,910902,confidence_buffer,,null,,,,,,,,,,,,,,,,,,
1574.5,,pt2_memorable_rating,912478,Fictional_Cities_List/img_natural_08.png,,53,,,5,,,,,,,,,,,,,,,
null,,confidence_buffer,912580,confidence_buffer,,null,,,,,,,,,,,,,,,,,,
1043.699999999255,,recognition_phase,913625,Fictional_Cities_List/img_natural_08.png,,49,,,,,,old,1,0.9565217391304348,,,,,,,,,,
null,,confidence_buffer,913728,confidence_buffer,,null,,,,,,,,,,,,,,,,,,
null,,thebreak,914229,break,,null,,,,,,,,,,,,,,,,,,
2253,,realistic_rating,916483,US_Cities_List/nat_carmel.png,,52,US_Cities_List/nat_carmel.png,NAT,4,,,,,,,,,,,,,,,
null,,confidence_buffer,916585,confidence_buffer,,null,,,,,,,,,,,,,,,,,,
1642.6000000014901,,pt2_unique_rating,918229,US_Cities_List/nat_carmel.png,,51,,,3,,,,,,,,,,,,,,,
null,,confidence_buffer,918332,confidence_buffer,,null,,,,,,,,,,,,,,,,,,
3280.900000002235,,pt2_memorable_rating,921614,US_Cities_List/nat_carmel.png,,50,,,2,,,,,,,,,,,,,,,
null,,confidence_buffer,921715,confidence_buffer,,null,,,,,,,,,,,,,,,,,,
1990.199999999255,,recognition_phase,923706,US_Cities_List/nat_carmel.png,,52,,,,,,new,1,0.9574468085106383,,,,,,,,,,
null,,confidence_buffer,923807,confidence_buffer,,null,,,,,,,,,,,,,,,,,,
null,,thebreak,924309,break,,null,,,,,,,,,,,,,,,,,,
4693.60000000149,,realistic_rating,929003,Fictional_Cities_List/img_natural_10.png,,51,Fictional_Cities_List/img_natural_10.png,NAT,3,,,,,,,,,,,,,,,
null,,confidence_buffer,929106,confidence_buffer,,null,,,,,,,,,,,,,,,,,,
1747.3999999985099,,probe_rating,930854,probe_rating,,49,,,,1,1,,,,,,,,,,,,,
null,,confidence_buffer,930956,confidence_buffer,,null,,,,,,,,,,,,,,,,,,
3252.60000000149,,pt2_unique_rating,934210,Fictional_Cities_List/img_natural_10.png,,51,,,3,,,,,,,,,,,,,,,
null,,confidence_buffer,934312,confidence_buffer,,null,,,,,,,,,,,,,,,,,,
2112.099999997765,,pt2_memorable_rating,936425,Fictional_Cities_List/img_natural_10.png,,50,,,2,,,,,,,,,,,,,,,
null,,confidence_buffer,936527,confidence_buffer,,null,,,,,,,,,,,,,,,,,,
3046.60000000149,,recognition_phase,939575,Fictional_Cities_List/img_natural_10.png,,52,,,,,,new,1,0.9583333333333334,,,,,,,,,,
null,,confidence_buffer,939676,confidence_buffer,,null,,,,,,,,,,,,,,,,,,
null,,thebreak,940177,break,,null,,,,,,,,,,,,,,,,,,
2405.89999999851,,realistic_rating,942584,Fictional_Cities_List/img_natural_06.png,,51,Fictional_Cities_List/img_natural_06.png,NAT,3,,,,,,,,,,,,,,,
null,,confidence_buffer,942685,confidence_buffer,,null,,,,,,,,,,,,,,,,,,
1539.3999999985099,,pt2_unique_rating,944226,Fictional_Cities_List/img_natural_06.png,,52,,,4,,,,,,,,,,,,,,,
null,,confidence_buffer,944328,confidence_buffer,,null,,,,,,,,,,,,,,,,,,
2606,,pt2_memorable_rating,946935,Fictional_Cities_List/img_natural_06.png,,53,,,5,,,,,,,,,,,,,,,
null,,confidence_buffer,947036,confidence_buffer,,null,,,,,,,,,,,,,,,,,,
1332.2999999970198,,recognition_phase,948370,Fictional_Cities_List/img_natural_06.png,,49,,,,,,old,1,0.9591836734693877,,,,,,,,,,
null,,confidence_buffer,948472,confidence_buffer,,null,,,,,,,,,,,,,,,,,,
null,,thebreak,948973,break,,null,,,,,,,,,,,,,,,,,,
4220.900000002235,,realistic_rating,953196,US_Cities_List/nat_delawarecity.png,,52,US_Cities_List/nat_delawarecity.png,NAT,4,,,,,,,,,,,,,,,
null,,confidence_buffer,953298,confidence_buffer,,null,,,,,,,,,,,,,,,,,,
2486.099999997765,,probe_rating,955785,probe_rating,,52,,,,4,1,,,,,,,,,,,,,
null,,confidence_buffer,955887,confidence_buffer,,null,,,,,,,,,,,,,,,,,,
3908.599999997765,,pt2_unique_rating,959796,US_Cities_List/nat_delawarecity.png,,51,,,3,,,,,,,,,,,,,,,
null,,confidence_buffer,959898,confidence_buffer,,null,,,,,,,,,,,,,,,,,,
2624.400000002235,,pt2_memorable_rating,962524,US_Cities_List/nat_delawarecity.png,,50,,,2,,,,,,,,,,,,,,,
null,,confidence_buffer,962625,confidence_buffer,,null,,,,,,,,,,,,,,,,,,
2245.300000000745,,recognition_phase,964871,US_Cities_List/nat_delawarecity.png,,51,,,,,,new,0,0.94,,,,,,,,,,
null,,confidence_buffer,964973,confidence_buffer,,null,,,,,,,,,,,,,,,,,,
null,,thebreak,965476,break,,null,,,,,,,,,,,,,,,,,,
2803.599999997765,,realistic_rating,968281,US_Cities_List/mm_coeurdalene.png,,52,US_Cities_List/mm_coeurdalene.png,MM,4,,,,,,,,,,,,,,,
null,,confidence_buffer,968382,confidence_buffer,,null,,,,,,,,,,,,,,,,,,
2456.10000000149,,pt2_unique_rating,970839,US_Cities_List/mm_coeurdalene.png,,51,,,3,,,,,,,,,,,,,,,
null,,confidence_buffer,970941,confidence_buffer,,null,,,,,,,,,,,,,,,,,,
1534.199999999255,,pt2_memorable_rating,972476,US_Cities_List/mm_coeurdalene.png,,50,,,2,,,,,,,,,,,,,,,
null,,confidence_buffer,972578,confidence_buffer,,null,,,,,,,,,,,,,,,,,,
2656.7000000029802,,recognition_phase,975235,US_Cities_List/mm_coeurdalene.png,,51,,,,,,new,1,0.9411764705882353,,,,,,,,,,
null,,confidence_buffer,975336,confidence_buffer,,null,,,,,,,,,,,,,,,,,,
null,,thebreak,975838,break,,null,,,,,,,,,,,,,,,,,,
3351.199999999255,,realistic_rating,979190,US_Cities_List/mm_boulder.png,,52,US_Cities_List/mm_boulder.png,MM,4,,,,,,,,,,,,,,,
null,,confidence_buffer,979291,confidence_buffer,,null,,,,,,,,,,,,,,,,,,
2717.2999999970198,,pt2_unique_rating,982009,US_Cities_List/mm_boulder.png,,51,,,3,,,,,,,,,,,,,,,
null,,confidence_buffer,982111,confidence_buffer,,null,,,,,,,,,,,,,,,,,,
2052.300000000745,,pt2_memorable_rating,984164,US_Cities_List/mm_boulder.png,,50,,,2,,,,,,,,,,,,,,,
null,,confidence_buffer,984265,confidence_buffer,,null,,,,,,,,,,,,,,,,,,
1366.5,,recognition_phase,985632,US_Cities_List/mm_boulder.png,,49,,,,,,old,1,0.9423076923076923,,,,,,,,,,
null,,confidence_buffer,985733,confidence_buffer,,null,,,,,,,,,,,,,,,,,,
null,,thebreak,986235,break,,null,,,,,,,,,,,,,,,,,,
4535.699999999255,,realistic_rating,990772,Fictional_Cities_List/img_natural_15.png,,51,Fictional_Cities_List/img_natural_15.png,NAT,3,,,,,,,,,,,,,,,
null,,confidence_buffer,990874,confidence_buffer,,null,,,,,,,,,,,,,,,,,,
1955.8999999985099,,pt2_unique_rating,992831,Fictional_Cities_List/img_natural_15.png,,52,,,4,,,,,,,,,,,,,,,
null,,confidence_buffer,992932,confidence_buffer,,null,,,,,,,,,,,,,,,,,,
3033.60000000149,,pt2_memorable_rating,995967,Fictional_Cities_List/img_natural_15.png,,51,,,3,,,,,,,,,,,,,,,
null,,confidence_buffer,996068,confidence_buffer,,null,,,,,,,,,,,,,,,,,,
1676.2999999970198,,recognition_phase,997746,Fictional_Cities_List/img_natural_15.png,,52,,,,,,new,1,0.9433962264150944,,,,,,,,,,
null,,confidence_buffer,997847,confidence_buffer,,null,,,,,,,,,,,,,,,,,,
null,,thebreak,998349,break,,null,,,,,,,,,,,,,,,,,,
3217.39999999851,,realistic_rating,1001568,US_Cities_List/nat_hilo.png,,52,US_Cities_List/nat_hilo.png,NAT,4,,,,,,,,,,,,,,,
null,,confidence_buffer,1001670,confidence_buffer,,null,,,,,,,,,,,,,,,,,,
3709.5,,pt2_unique_rating,1005380,US_Cities_List/nat_hilo.png,,51,,,3,,,,,,,,,,,,,,,
null,,confidence_buffer,1005483,confidence_buffer,,null,,,,,,,,,,,,,,,,,,
2556.800000000745,,pt2_memorable_rating,1008041,US_Cities_List/nat_hilo.png,,51,,,3,,,,,,,,,,,,,,,
null,,confidence_buffer,1008143,confidence_buffer,,null,,,,,,,,,,,,,,,,,,
1591.300000000745,,recognition_phase,1009735,US_Cities_List/nat_hilo.png,,52,,,,,,new,1,0.9444444444444444,,,,,,,,,,
null,,confidence_buffer,1009837,confidence_buffer,,null,,,,,,,,,,,,,,,,,,
null,,thebreak,1010339,break,,null,,,,,,,,,,,,,,,,,,
3571.199999999255,,realistic_rating,1013911,Fictional_Cities_List/img_manmade_14.png,,52,Fictional_Cities_List/img_manmade_14.png,MM,4,,,,,,,,,,,,,,,
null,,confidence_buffer,1014013,confidence_buffer,,null,,,,,,,,,,,,,,,,,,
2258.5,,pt2_unique_rating,1016272,Fictional_Cities_List/img_manmade_14.png,,51,,,3,,,,,,,,,,,,,,,
null,,confidence_buffer,1016374,confidence_buffer,,null,,,,,,,,,,,,,,,,,,
3222,,pt2_memorable_rating,1019597,Fictional_Cities_List/img_manmade_14.png,,50,,,2,,,,,,,,,,,,,,,
null,,confidence_buffer,1019709,confidence_buffer,,null,,,,,,,,,,,,,,,,,,
1546.1000000014901,,recognition_phase,1021256,Fictional_Cities_List/img_manmade_14.png,,49,,,,,,old,1,0.9454545454545454,,,,,,,,,,
null,,confidence_buffer,1021358,confidence_buffer,,null,,,,,,,,,,,,,,,,,,
null,,thebreak,1021859,break,,null,,,,,,,,,,,,,,,,,,
2483.60000000149,,realistic_rating,1024343,US_Cities_List/nat_boulder.png,,52,US_Cities_List/nat_boulder.png,NAT,4,,,,,,,,,,,,,,,
null,,confidence_buffer,1024445,confidence_buffer,,null,,,,,,,,,,,,,,,,,,
1935.3999999985099,,pt2_unique_rating,1026382,US_Cities_List/nat_boulder.png,,51,,,3,,,,,,,,,,,,,,,
null,,confidence_buffer,1026483,confidence_buffer,,null,,,,,,,,,,,,,,,,,,
3102.699999999255,,pt2_memorable_rating,1029587,US_Cities_List/nat_boulder.png,,50,,,2,,,,,,,,,,,,,,,
null,,confidence_buffer,1029689,confidence_buffer,,null,,,,,,,,,,,,,,,,,,
1450.8999999985099,,recognition_phase,1031142,US_Cities_List/nat_boulder.png,,52,,,,,,new,1,0.9464285714285714,,,,,,,,,,
null,,confidence_buffer,1031243,confidence_buffer,,null,,,,,,,,,,,,,,,,,,
null,,thebreak,1031745,break,,null,,,,,,,,,,,,,,,,,,
3467.39999999851,,realistic_rating,1035213,US_Cities_List/mm_delawarecity.png,,52,US_Cities_List/mm_delawarecity.png,MM,4,,,,,,,,,,,,,,,
null,,confidence_buffer,1035315,confidence_buffer,,null,,,,,,,,,,,,,,,,,,
1858.4000000022352,,pt2_unique_rating,1037175,US_Cities_List/mm_delawarecity.png,,51,,,3,,,,,,,,,,,,,,,
null,,confidence_buffer,1037278,confidence_buffer,,null,,,,,,,,,,,,,,,,,,
2941.699999999255,,pt2_memorable_rating,1040220,US_Cities_List/mm_delawarecity.png,,50,,,2,,,,,,,,,,,,,,,
null,,confidence_buffer,1040322,confidence_buffer,,null,,,,,,,,,,,,,,,,,,
2356.89999999851,,recognition_phase,1042680,US_Cities_List/mm_delawarecity.png,,50,,,,,,old,1,0.9473684210526315,,,,,,,,,,
null,,confidence_buffer,1042781,confidence_buffer,,null,,,,,,,,,,,,,,,,,,
null,,thebreak,1043283,break,,null,,,,,,,,,,,,,,,,,,
2551,,realistic_rating,1045834,US_Cities_List/nat_cornwall.png,,52,US_Cities_List/nat_cornwall.png,NAT,4,,,,,,,,,,,,,,,
null,,confidence_buffer,1045936,confidence_buffer,,null,,,,,,,,,,,,,,,,,,
3102.7999999970198,,pt2_unique_rating,1049040,US_Cities_List/nat_cornwall.png,,52,,,4,,,,,,,,,,,,,,,
null,,confidence_buffer,1049143,confidence_buffer,,null,,,,,,,,,,,,,,,,,,
1775,,pt2_memorable_rating,1050919,US_Cities_List/nat_cornwall.png,,51,,,3,,,,,,,,,,,,,,,
null,,confidence_buffer,1051020,confidence_buffer,,null,,,,,,,,,,,,,,,,,,
1909.8999999985099,,recognition_phase,1052931,US_Cities_List/nat_cornwall.png,,52,,,,,,new,0,0.9310344827586207,,,,,,,,,,
null,,confidence_buffer,1053032,confidence_buffer,,null,,,,,,,,,,,,,,,,,,
null,,thebreak,1053534,break,,null,,,,,,,,,,,,,,,,,,
3174.300000000745,,realistic_rating,1056710,Fictional_Cities_List/img_natural_05.png,,51,Fictional_Cities_List/img_natural_05.png,NAT,3,,,,,,,,,,,,,,,
null,,confidence_buffer,1056811,confidence_buffer,,null,,,,,,,,,,,,,,,,,,
2251,,pt2_unique_rating,1059063,Fictional_Cities_List/img_natural_05.png,,52,,,4,,,,,,,,,,,,,,,
null,,confidence_buffer,1059164,confidence_buffer,,null,,,,,,,,,,,,,,,,,,
1896.0999999977648,,pt2_memorable_rating,1061061,Fictional_Cities_List/img_natural_05.png,,53,,,5,,,,,,,,,,,,,,,
null,,confidence_buffer,1061164,confidence_buffer,,null,,,,,,,,,,,,,,,,,,
1313.300000000745,,recognition_phase,1062478,Fictional_Cities_List/img_natural_05.png,,49,,,,,,old,1,0.9322033898305084,,,,,,,,,,
null,,confidence_buffer,1062579,confidence_buffer,,null,,,,,,,,,,,,,,,,,,
null,,thebreak,1063081,break,,null,,,,,,,,,,,,,,,,,,
3205.699999999255,,realistic_rating,1066288,US_Cities_List/mm_hilo.png,,52,US_Cities_List/mm_hilo.png,MM,4,,,,,,,,,,,,,,,
null,,confidence_buffer,1066389,confidence_buffer,,null,,,,,,,,,,,,,,,,,,
1738.699999999255,,pt2_unique_rating,1068129,US_Cities_List/mm_hilo.png,,51,,,3,,,,,,,,,,,,,,,
null,,confidence_buffer,1068231,confidence_buffer,,null,,,,,,,,,,,,,,,,,,
1456.1000000014901,,pt2_memorable_rating,1069688,US_Cities_List/mm_hilo.png,,50,,,2,,,,,,,,,,,,,,,
null,,confidence_buffer,1069805,confidence_buffer,,null,,,,,,,,,,,,,,,,,,
1121.5,,recognition_phase,1070928,US_Cities_List/mm_hilo.png,,49,,,,,,old,1,0.9333333333333333,,,,,,,,,,
null,,confidence_buffer,1071029,confidence_buffer,,null,,,,,,,,,,,,,,,,,,
null,,thebreak,1071531,break,,null,,,,,,,,,,,,,,,,,,
,,survey,1437261,survey-questions,,,,,,,,,,,none,high,No I was focused.,I paid close attention to the pictures and I just tried to remember base on my memory. ,I thought the familiar reminded me on things I've seen before in my life. ,The images we as memorable base on the impression I got with the image.  I just used visual and emotion.,Images were unique if they looked different to me some were typical scene I have seen before.  The uniqueness stood out base on the images and colors.,Images on realism was base on how natural or believable the images were.  If I thought they exist in real life then it would be realistic,No, this is my first time participating. ,The study was well structured and straight forward.  It was very engaging.  Thank you for letting me participate.  I really appreciate it. 
