rt,responses,trial_type,time_elapsed,stimulus,button_pressed,key_press,name_trial,city_type,rating,probe,probe_accuracy,response,correct,accuracy,problems,smooth,distraction,strategies,familiar,memorable,unique,realistic,similar,comments
3454.800000011921,{worker_id:6132542039ead71f30971bd6},id_enter,3456,,,,,,,,,,,,,,,,,,,,,
6459.100000023842,,fullscreen,9920,fullscreen,0,,,,,,,,,,,,,,,,,,,
325608.5,,intro_0,335533,instruct,,32,,,,,,,,,,,,,,,,,,
7069.600000023842,,intro_1,342604,instruct,,32,,,,,,,,,,,,,,,,,,
8364.099999964237,,intro_2,350970,instruct,,32,,,,,,,,,,,,,,,,,,
null,,instruct_dir_4,352471,instruct,,null,,,,,,,,,,,,,,,,,,
null,,thebreak,352972,break,,null,,,,,,,,,,,,,,,,,,
11659.200000047684,,familiar_rating,364633,Hot Springs,,53,Hot Springs,US,5,,,,,,,,,,,,,,,
null,,confidence_buffer,364736,confidence_buffer,,null,,,,,,,,,,,,,,,,,,
121.39999997615814,,unique_rating,364858,Hot Springs,,53,,,5,,,,,,,,,,,,,,,
null,,confidence_buffer,364960,confidence_buffer,,null,,,,,,,,,,,,,,,,,,
30.399999976158142,,probe_rating,364992,probe_rating,,53,,,,5,0,,,,,,,,,,,,,
null,,confidence_buffer,365095,confidence_buffer,,null,,,,,,,,,,,,,,,,,,
11444.800000011921,,memorable_rating,376541,Hot Springs,,53,,,5,,,,,,,,,,,,,,,
null,,confidence_buffer,376643,confidence_buffer,,null,,,,,,,,,,,,,,,,,,
null,,thebreak,377158,break,,null,,,,,,,,,,,,,,,,,,
5041,,familiar_rating,382200,Folly Beach,,49,Folly Beach,US,1,,,,,,,,,,,,,,,
null,,confidence_buffer,382303,confidence_buffer,,null,,,,,,,,,,,,,,,,,,
4606.300000011921,,unique_rating,386911,Folly Beach,,51,,,3,,,,,,,,,,,,,,,
null,,confidence_buffer,387013,confidence_buffer,,null,,,,,,,,,,,,,,,,,,
5300.299999952316,,memorable_rating,392314,Folly Beach,,53,,,5,,,,,,,,,,,,,,,
null,,confidence_buffer,392416,confidence_buffer,,null,,,,,,,,,,,,,,,,,,
null,,thebreak,392918,break,,null,,,,,,,,,,,,,,,,,,
3696,,familiar_rating,396615,Juniper Creek,,53,Juniper Creek,Fictional,5,,,,,,,,,,,,,,,
null,,confidence_buffer,396717,confidence_buffer,,null,,,,,,,,,,,,,,,,,,
3837.899999976158,,probe_rating,400557,probe_rating,,49,,,,1,1,,,,,,,,,,,,,
null,,confidence_buffer,400659,confidence_buffer,,null,,,,,,,,,,,,,,,,,,
2971.100000023842,,unique_rating,403631,Juniper Creek,,52,,,4,,,,,,,,,,,,,,,
null,,confidence_buffer,403733,confidence_buffer,,null,,,,,,,,,,,,,,,,,,
3231.2000000476837,,memorable_rating,406965,Juniper Creek,,52,,,4,,,,,,,,,,,,,,,
null,,confidence_buffer,407067,confidence_buffer,,null,,,,,,,,,,,,,,,,,,
null,,thebreak,407569,break,,null,,,,,,,,,,,,,,,,,,
4120.399999976158,,familiar_rating,411690,Cape May,,53,Cape May,US,5,,,,,,,,,,,,,,,
null,,confidence_buffer,411792,confidence_buffer,,null,,,,,,,,,,,,,,,,,,
2647.5,,unique_rating,414441,Cape May,,53,,,5,,,,,,,,,,,,,,,
null,,confidence_buffer,414542,confidence_buffer,,null,,,,,,,,,,,,,,,,,,
1961.300000011921,,memorable_rating,416504,Cape May,,53,,,5,,,,,,,,,,,,,,,
null,,confidence_buffer,416607,confidence_buffer,,null,,,,,,,,,,,,,,,,,,
null,,thebreak,417109,break,,null,,,,,,,,,,,,,,,,,,
3575.7999999523163,,familiar_rating,420686,Coralridge,,49,Coralridge,Fictional,1,,,,,,,,,,,,,,,
null,,confidence_buffer,420787,confidence_buffer,,null,,,,,,,,,,,,,,,,,,
1470.5,,unique_rating,422259,Coralridge,,49,,,1,,,,,,,,,,,,,,,
null,,confidence_buffer,422361,confidence_buffer,,null,,,,,,,,,,,,,,,,,,
1508.5,,memorable_rating,423871,Coralridge,,49,,,1,,,,,,,,,,,,,,,
null,,confidence_buffer,423973,confidence_buffer,,null,,,,,,,,,,,,,,,,,,
null,,thebreak,424475,break,,null,,,,,,,,,,,,,,,,,,
2789.2999999523163,,familiar_rating,427266,Highvale,,49,Highvale,Fictional,1,,,,,,,,,,,,,,,
null,,confidence_buffer,427367,confidence_buffer,,null,,,,,,,,,,,,,,,,,,
1461.300000011921,,unique_rating,428830,Highvale,,49,,,1,,,,,,,,,,,,,,,
null,,confidence_buffer,428935,confidence_buffer,,null,,,,,,,,,,,,,,,,,,
1556,,memorable_rating,430492,Highvale,,49,,,1,,,,,,,,,,,,,,,
null,,confidence_buffer,430603,confidence_buffer,,null,,,,,,,,,,,,,,,,,,
null,,thebreak,431104,break,,null,,,,,,,,,,,,,,,,,,
2994.5,,familiar_rating,434100,Sitka,,49,Sitka,US,1,,,,,,,,,,,,,,,
null,,confidence_buffer,434201,confidence_buffer,,null,,,,,,,,,,,,,,,,,,
1126,,unique_rating,435329,Sitka,,49,,,1,,,,,,,,,,,,,,,
null,,confidence_buffer,435432,confidence_buffer,,null,,,,,,,,,,,,,,,,,,
946.2000000476837,,memorable_rating,436379,Sitka,,49,,,1,,,,,,,,,,,,,,,
null,,confidence_buffer,436481,confidence_buffer,,null,,,,,,,,,,,,,,,,,,
null,,thebreak,436982,break,,null,,,,,,,,,,,,,,,,,,
3178.900000035763,,familiar_rating,440162,Albuquerque,,53,Albuquerque,US,5,,,,,,,,,,,,,,,
null,,confidence_buffer,440264,confidence_buffer,,null,,,,,,,,,,,,,,,,,,
1360.199999988079,,unique_rating,441626,Albuquerque,,53,,,5,,,,,,,,,,,,,,,
null,,confidence_buffer,441728,confidence_buffer,,null,,,,,,,,,,,,,,,,,,
1462,,memorable_rating,443191,Albuquerque,,53,,,5,,,,,,,,,,,,,,,
null,,confidence_buffer,443295,confidence_buffer,,null,,,,,,,,,,,,,,,,,,
null,,thebreak,443796,break,,null,,,,,,,,,,,,,,,,,,
1894,,familiar_rating,445691,Meadowspire,,49,Meadowspire,Fictional,1,,,,,,,,,,,,,,,
null,,confidence_buffer,445792,confidence_buffer,,null,,,,,,,,,,,,,,,,,,
948.6999999880791,,unique_rating,446742,Meadowspire,,49,,,1,,,,,,,,,,,,,,,
null,,confidence_buffer,446843,confidence_buffer,,null,,,,,,,,,,,,,,,,,,
908.6000000238419,,memorable_rating,447752,Meadowspire,,49,,,1,,,,,,,,,,,,,,,
null,,confidence_buffer,447854,confidence_buffer,,null,,,,,,,,,,,,,,,,,,
null,,thebreak,448355,break,,null,,,,,,,,,,,,,,,,,,
2212.5,,familiar_rating,450568,Leesburg,,49,Leesburg,US,1,,,,,,,,,,,,,,,
null,,confidence_buffer,450669,confidence_buffer,,null,,,,,,,,,,,,,,,,,,
924.9000000357628,,unique_rating,451595,Leesburg,,49,,,1,,,,,,,,,,,,,,,
null,,confidence_buffer,451697,confidence_buffer,,null,,,,,,,,,,,,,,,,,,
675.5,,memorable_rating,452373,Leesburg,,49,,,1,,,,,,,,,,,,,,,
null,,confidence_buffer,452475,confidence_buffer,,null,,,,,,,,,,,,,,,,,,
null,,thebreak,452988,break,,null,,,,,,,,,,,,,,,,,,
3945.599999964237,,familiar_rating,456934,Shreveport,,51,Shreveport,US,3,,,,,,,,,,,,,,,
null,,confidence_buffer,457036,confidence_buffer,,null,,,,,,,,,,,,,,,,,,
937.6999999880791,,unique_rating,457975,Shreveport,,51,,,3,,,,,,,,,,,,,,,
null,,confidence_buffer,458077,confidence_buffer,,null,,,,,,,,,,,,,,,,,,
2638,,memorable_rating,460716,Shreveport,,51,,,3,,,,,,,,,,,,,,,
null,,confidence_buffer,460819,confidence_buffer,,null,,,,,,,,,,,,,,,,,,
null,,thebreak,461320,break,,null,,,,,,,,,,,,,,,,,,
3635.899999976158,,familiar_rating,464957,Abilene,,52,Abilene,US,4,,,,,,,,,,,,,,,
null,,confidence_buffer,465061,confidence_buffer,,null,,,,,,,,,,,,,,,,,,
2173.699999988079,,unique_rating,467236,Abilene,,51,,,3,,,,,,,,,,,,,,,
null,,confidence_buffer,467338,confidence_buffer,,null,,,,,,,,,,,,,,,,,,
2221.899999976158,,memorable_rating,469561,Abilene,,52,,,4,,,,,,,,,,,,,,,
null,,confidence_buffer,469673,confidence_buffer,,null,,,,,,,,,,,,,,,,,,
null,,thebreak,470182,break,,null,,,,,,,,,,,,,,,,,,
3844.899999976158,,familiar_rating,474029,Delaro Park,,49,Delaro Park,Fictional,1,,,,,,,,,,,,,,,
null,,confidence_buffer,474131,confidence_buffer,,null,,,,,,,,,,,,,,,,,,
1014.6000000238419,,unique_rating,475146,Delaro Park,,49,,,1,,,,,,,,,,,,,,,
null,,confidence_buffer,475250,confidence_buffer,,null,,,,,,,,,,,,,,,,,,
3104.399999976158,,probe_rating,478356,probe_rating,,49,,,,1,1,,,,,,,,,,,,,
null,,confidence_buffer,478458,confidence_buffer,,null,,,,,,,,,,,,,,,,,,
2822.899999976158,,memorable_rating,481282,Delaro Park,,49,,,1,,,,,,,,,,,,,,,
null,,confidence_buffer,481384,confidence_buffer,,null,,,,,,,,,,,,,,,,,,
null,,thebreak,481886,break,,null,,,,,,,,,,,,,,,,,,
2500.599999964237,,familiar_rating,484388,Ravenport,,50,Ravenport,Fictional,2,,,,,,,,,,,,,,,
null,,confidence_buffer,484489,confidence_buffer,,null,,,,,,,,,,,,,,,,,,
2879.900000035763,,unique_rating,487370,Ravenport,,50,,,2,,,,,,,,,,,,,,,
null,,confidence_buffer,487472,confidence_buffer,,null,,,,,,,,,,,,,,,,,,
1123,,probe_rating,488597,probe_rating,,49,,,,1,1,,,,,,,,,,,,,
null,,confidence_buffer,488698,confidence_buffer,,null,,,,,,,,,,,,,,,,,,
1594.3999999761581,,memorable_rating,490294,Ravenport,,49,,,1,,,,,,,,,,,,,,,
null,,confidence_buffer,490395,confidence_buffer,,null,,,,,,,,,,,,,,,,,,
null,,thebreak,490906,break,,null,,,,,,,,,,,,,,,,,,
1944.5999999642372,,familiar_rating,492851,Driftwood Bay,,49,Driftwood Bay,Fictional,1,,,,,,,,,,,,,,,
null,,confidence_buffer,492952,confidence_buffer,,null,,,,,,,,,,,,,,,,,,
1423.800000011921,,unique_rating,494376,Driftwood Bay,,50,,,2,,,,,,,,,,,,,,,
null,,confidence_buffer,494478,confidence_buffer,,null,,,,,,,,,,,,,,,,,,
2259.5,,probe_rating,496738,probe_rating,,53,,,,5,1,,,,,,,,,,,,,
null,,confidence_buffer,496839,confidence_buffer,,null,,,,,,,,,,,,,,,,,,
3078.199999988079,,memorable_rating,499919,Driftwood Bay,,50,,,2,,,,,,,,,,,,,,,
null,,confidence_buffer,500021,confidence_buffer,,null,,,,,,,,,,,,,,,,,,
null,,thebreak,500522,break,,null,,,,,,,,,,,,,,,,,,
3373.7999999523163,,familiar_rating,503896,Gloucester,,52,Gloucester,US,4,,,,,,,,,,,,,,,
null,,confidence_buffer,503999,confidence_buffer,,null,,,,,,,,,,,,,,,,,,
2205.099999964237,,unique_rating,506205,Gloucester,,52,,,4,,,,,,,,,,,,,,,
null,,confidence_buffer,506307,confidence_buffer,,null,,,,,,,,,,,,,,,,,,
2775.099999964237,,memorable_rating,509083,Gloucester,,53,,,5,,,,,,,,,,,,,,,
null,,confidence_buffer,509186,confidence_buffer,,null,,,,,,,,,,,,,,,,,,
null,,thebreak,509688,break,,null,,,,,,,,,,,,,,,,,,
2646.300000011921,,familiar_rating,512336,Hollendale,,51,Hollendale,Fictional,3,,,,,,,,,,,,,,,
null,,confidence_buffer,512437,confidence_buffer,,null,,,,,,,,,,,,,,,,,,
1452.8999999761581,,unique_rating,513891,Hollendale,,52,,,4,,,,,,,,,,,,,,,
null,,confidence_buffer,513992,confidence_buffer,,null,,,,,,,,,,,,,,,,,,
2055.699999988079,,memorable_rating,516049,Hollendale,,51,,,3,,,,,,,,,,,,,,,
null,,confidence_buffer,516151,confidence_buffer,,null,,,,,,,,,,,,,,,,,,
null,,thebreak,516658,break,,null,,,,,,,,,,,,,,,,,,
13574.699999988079,,familiar_rating,530234,Bisbee,,51,Bisbee,US,3,,,,,,,,,,,,,,,
null,,confidence_buffer,530337,confidence_buffer,,null,,,,,,,,,,,,,,,,,,
2255,,unique_rating,532593,Bisbee,,52,,,4,,,,,,,,,,,,,,,
null,,confidence_buffer,532695,confidence_buffer,,null,,,,,,,,,,,,,,,,,,
1010.6999999880791,,memorable_rating,533707,Bisbee,,51,,,3,,,,,,,,,,,,,,,
null,,confidence_buffer,533808,confidence_buffer,,null,,,,,,,,,,,,,,,,,,
null,,thebreak,534309,break,,null,,,,,,,,,,,,,,,,,,
3320.2999999523163,,familiar_rating,537630,Redgrove,,50,Redgrove,Fictional,2,,,,,,,,,,,,,,,
null,,confidence_buffer,537733,confidence_buffer,,null,,,,,,,,,,,,,,,,,,
1494.7000000476837,,unique_rating,539228,Redgrove,,51,,,3,,,,,,,,,,,,,,,
null,,confidence_buffer,539331,confidence_buffer,,null,,,,,,,,,,,,,,,,,,
2070.300000011921,,memorable_rating,541402,Redgrove,,51,,,3,,,,,,,,,,,,,,,
null,,confidence_buffer,541505,confidence_buffer,,null,,,,,,,,,,,,,,,,,,
null,,thebreak,542006,break,,null,,,,,,,,,,,,,,,,,,
3195.099999964237,,familiar_rating,545202,Cody,,52,Cody,US,4,,,,,,,,,,,,,,,
null,,confidence_buffer,545305,confidence_buffer,,null,,,,,,,,,,,,,,,,,,
1388.699999988079,,unique_rating,546695,Cody,,52,,,4,,,,,,,,,,,,,,,
null,,confidence_buffer,546797,confidence_buffer,,null,,,,,,,,,,,,,,,,,,
2298.900000035763,,memorable_rating,549097,Cody,,52,,,4,,,,,,,,,,,,,,,
null,,confidence_buffer,549199,confidence_buffer,,null,,,,,,,,,,,,,,,,,,
null,,thebreak,549700,break,,null,,,,,,,,,,,,,,,,,,
4303.100000023842,,familiar_rating,554005,Sierra Hollow,,50,Sierra Hollow,Fictional,2,,,,,,,,,,,,,,,
null,,confidence_buffer,554107,confidence_buffer,,null,,,,,,,,,,,,,,,,,,
2114.900000035763,,unique_rating,556223,Sierra Hollow,,49,,,1,,,,,,,,,,,,,,,
null,,confidence_buffer,556325,confidence_buffer,,null,,,,,,,,,,,,,,,,,,
1218.6000000238419,,memorable_rating,557545,Sierra Hollow,,49,,,1,,,,,,,,,,,,,,,
null,,confidence_buffer,557647,confidence_buffer,,null,,,,,,,,,,,,,,,,,,
null,,thebreak,558164,break,,null,,,,,,,,,,,,,,,,,,
2967.100000023842,,familiar_rating,561132,Clearbrook,,50,Clearbrook,Fictional,2,,,,,,,,,,,,,,,
null,,confidence_buffer,561233,confidence_buffer,,null,,,,,,,,,,,,,,,,,,
1055.7999999523163,,unique_rating,562290,Clearbrook,,49,,,1,,,,,,,,,,,,,,,
null,,confidence_buffer,562398,confidence_buffer,,null,,,,,,,,,,,,,,,,,,
949.9000000357628,,memorable_rating,563349,Clearbrook,,49,,,1,,,,,,,,,,,,,,,
null,,confidence_buffer,563451,confidence_buffer,,null,,,,,,,,,,,,,,,,,,
null,,thebreak,563954,break,,null,,,,,,,,,,,,,,,,,,
1950.3999999761581,,familiar_rating,565906,North Arroya,,49,North Arroya,Fictional,1,,,,,,,,,,,,,,,
null,,confidence_buffer,566008,confidence_buffer,,null,,,,,,,,,,,,,,,,,,
1080.9000000357628,,unique_rating,567090,North Arroya,,49,,,1,,,,,,,,,,,,,,,
null,,confidence_buffer,567192,confidence_buffer,,null,,,,,,,,,,,,,,,,,,
864.2999999523163,,memorable_rating,568057,North Arroya,,49,,,1,,,,,,,,,,,,,,,
null,,confidence_buffer,568158,confidence_buffer,,null,,,,,,,,,,,,,,,,,,
null,,thebreak,568660,break,,null,,,,,,,,,,,,,,,,,,
4444.399999976158,,familiar_rating,573105,Okoboji,,52,Okoboji,US,4,,,,,,,,,,,,,,,
null,,confidence_buffer,573207,confidence_buffer,,null,,,,,,,,,,,,,,,,,,
1857.800000011921,,unique_rating,575066,Okoboji,,52,,,4,,,,,,,,,,,,,,,
null,,confidence_buffer,575167,confidence_buffer,,null,,,,,,,,,,,,,,,,,,
1695.8999999761581,,memorable_rating,576865,Okoboji,,52,,,4,,,,,,,,,,,,,,,
null,,confidence_buffer,576967,confidence_buffer,,null,,,,,,,,,,,,,,,,,,
null,,thebreak,577470,break,,null,,,,,,,,,,,,,,,,,,
5271.799999952316,,familiar_rating,582742,Ironwood Heights,,51,Ironwood Heights,Fictional,3,,,,,,,,,,,,,,,
null,,confidence_buffer,582843,confidence_buffer,,null,,,,,,,,,,,,,,,,,,
1670.4000000357628,,probe_rating,584515,probe_rating,,53,,,,5,1,,,,,,,,,,,,,
null,,confidence_buffer,584617,confidence_buffer,,null,,,,,,,,,,,,,,,,,,
5050,,unique_rating,589668,Ironwood Heights,,51,,,3,,,,,,,,,,,,,,,
null,,confidence_buffer,589770,confidence_buffer,,null,,,,,,,,,,,,,,,,,,
1318.699999988079,,memorable_rating,591090,Ironwood Heights,,51,,,3,,,,,,,,,,,,,,,
null,,confidence_buffer,591192,confidence_buffer,,null,,,,,,,,,,,,,,,,,,
null,,thebreak,591694,break,,null,,,,,,,,,,,,,,,,,,
4514.399999976158,,familiar_rating,596210,Carmel,,53,Carmel,US,5,,,,,,,,,,,,,,,
null,,confidence_buffer,596313,confidence_buffer,,null,,,,,,,,,,,,,,,,,,
2658.099999964237,,unique_rating,598971,Carmel,,49,,,1,,,,,,,,,,,,,,,
null,,confidence_buffer,599073,confidence_buffer,,null,,,,,,,,,,,,,,,,,,
2539.7999999523163,,memorable_rating,601614,Carmel,,53,,,5,,,,,,,,,,,,,,,
null,,confidence_buffer,601716,confidence_buffer,,null,,,,,,,,,,,,,,,,,,
null,,thebreak,602218,break,,null,,,,,,,,,,,,,,,,,,
3925.699999988079,,familiar_rating,606145,Huntsville,,50,Huntsville,US,2,,,,,,,,,,,,,,,
null,,confidence_buffer,606247,confidence_buffer,,null,,,,,,,,,,,,,,,,,,
1343.699999988079,,unique_rating,607592,Huntsville,,49,,,1,,,,,,,,,,,,,,,
null,,confidence_buffer,607694,confidence_buffer,,null,,,,,,,,,,,,,,,,,,
1525.8999999761581,,memorable_rating,609221,Huntsville,,50,,,2,,,,,,,,,,,,,,,
null,,confidence_buffer,609322,confidence_buffer,,null,,,,,,,,,,,,,,,,,,
null,,thebreak,609824,break,,null,,,,,,,,,,,,,,,,,,
2758.699999988079,,familiar_rating,612584,East Ladera,,49,East Ladera,Fictional,1,,,,,,,,,,,,,,,
null,,confidence_buffer,612688,confidence_buffer,,null,,,,,,,,,,,,,,,,,,
1111.699999988079,,unique_rating,613801,East Ladera,,49,,,1,,,,,,,,,,,,,,,
null,,confidence_buffer,613902,confidence_buffer,,null,,,,,,,,,,,,,,,,,,
1089.3999999761581,,memorable_rating,614992,East Ladera,,49,,,1,,,,,,,,,,,,,,,
null,,confidence_buffer,615094,confidence_buffer,,null,,,,,,,,,,,,,,,,,,
null,,thebreak,615595,break,,null,,,,,,,,,,,,,,,,,,
3236.300000011921,,familiar_rating,618832,Barnard,,50,Barnard,US,2,,,,,,,,,,,,,,,
null,,confidence_buffer,618934,confidence_buffer,,null,,,,,,,,,,,,,,,,,,
938,,unique_rating,619873,Barnard,,49,,,1,,,,,,,,,,,,,,,
null,,confidence_buffer,619975,confidence_buffer,,null,,,,,,,,,,,,,,,,,,
640.2999999523163,,memorable_rating,620616,Barnard,,49,,,1,,,,,,,,,,,,,,,
null,,confidence_buffer,620718,confidence_buffer,,null,,,,,,,,,,,,,,,,,,
null,,thebreak,621220,break,,null,,,,,,,,,,,,,,,,,,
1697.300000011921,,familiar_rating,622918,New Verdan,,49,New Verdan,Fictional,1,,,,,,,,,,,,,,,
null,,confidence_buffer,623019,confidence_buffer,,null,,,,,,,,,,,,,,,,,,
1198.5,,unique_rating,624219,New Verdan,,49,,,1,,,,,,,,,,,,,,,
null,,confidence_buffer,624321,confidence_buffer,,null,,,,,,,,,,,,,,,,,,
984.5999999642372,,memorable_rating,625307,New Verdan,,49,,,1,,,,,,,,,,,,,,,
null,,confidence_buffer,625410,confidence_buffer,,null,,,,,,,,,,,,,,,,,,
null,,thebreak,625927,break,,null,,,,,,,,,,,,,,,,,,
5504.5,,intro_0,631432,instruct,,32,,,,,,,,,,,,,,,,,,
2042.5999999642372,,intro_1,633475,instruct,,32,,,,,,,,,,,,,,,,,,
14202.799999952316,,intro_2,647678,instruct,,32,,,,,,,,,,,,,,,,,,
null,,instruct_dir_4,649179,instruct,,null,,,,,,,,,,,,,,,,,,
6597.100000023842,,realistic_rating,655777,Willowford,,51,Willowford,Fictional,3,,,,,,,,,,,,,,,
null,,confidence_buffer,655878,confidence_buffer,,null,,,,,,,,,,,,,,,,,,
6489.199999988079,,pt2_unique_rating,662367,Willowford,,49,,,1,,,,,,,,,,,,,,,
null,,confidence_buffer,662471,confidence_buffer,,null,,,,,,,,,,,,,,,,,,
176.80000001192093,,pt2_memorable_rating,662649,Willowford,,49,,,1,,,,,,,,,,,,,,,
null,,confidence_buffer,662750,confidence_buffer,,null,,,,,,,,,,,,,,,,,,
4424.600000023842,,recognition_phase,667175,Willowford,,52,,,,,,new,1,1,,,,,,,,,,
null,,confidence_buffer,667277,confidence_buffer,,null,,,,,,,,,,,,,,,,,,
null,,thebreak,667791,break,,null,,,,,,,,,,,,,,,,,,
3243.100000023842,,realistic_rating,671036,Cody,,53,Cody,US,5,,,,,,,,,,,,,,,
null,,confidence_buffer,671138,confidence_buffer,,null,,,,,,,,,,,,,,,,,,
2252.899999976158,,pt2_unique_rating,673392,Cody,,53,,,5,,,,,,,,,,,,,,,
null,,confidence_buffer,673493,confidence_buffer,,null,,,,,,,,,,,,,,,,,,
2208.600000023842,,pt2_memorable_rating,675703,Cody,,52,,,4,,,,,,,,,,,,,,,
null,,confidence_buffer,675805,confidence_buffer,,null,,,,,,,,,,,,,,,,,,
2762.599999964237,,recognition_phase,678568,Cody,,49,,,,,,old,1,1,,,,,,,,,,
null,,confidence_buffer,678678,confidence_buffer,,null,,,,,,,,,,,,,,,,,,
null,,thebreak,679180,break,,null,,,,,,,,,,,,,,,,,,
3963.399999976158,,realistic_rating,683144,Fairhaven,,52,Fairhaven,Fictional,4,,,,,,,,,,,,,,,
null,,confidence_buffer,683246,confidence_buffer,,null,,,,,,,,,,,,,,,,,,
1324.5,,pt2_unique_rating,684571,Fairhaven,,52,,,4,,,,,,,,,,,,,,,
null,,confidence_buffer,684673,confidence_buffer,,null,,,,,,,,,,,,,,,,,,
1355.6000000238419,,pt2_memorable_rating,686031,Fairhaven,,51,,,3,,,,,,,,,,,,,,,
null,,confidence_buffer,686143,confidence_buffer,,null,,,,,,,,,,,,,,,,,,
2506.900000035763,,recognition_phase,688652,Fairhaven,,49,,,,,,old,0,0.6666666666666666,,,,,,,,,,
null,,confidence_buffer,688755,confidence_buffer,,null,,,,,,,,,,,,,,,,,,
null,,thebreak,689260,break,,null,,,,,,,,,,,,,,,,,,
5150.299999952316,,realistic_rating,694411,West Palm Beach,,53,West Palm Beach,US,5,,,,,,,,,,,,,,,
null,,confidence_buffer,694514,confidence_buffer,,null,,,,,,,,,,,,,,,,,,
2480.600000023842,,pt2_unique_rating,696996,West Palm Beach,,50,,,2,,,,,,,,,,,,,,,
null,,confidence_buffer,697098,confidence_buffer,,null,,,,,,,,,,,,,,,,,,
1961,,pt2_memorable_rating,699060,West Palm Beach,,53,,,5,,,,,,,,,,,,,,,
null,,confidence_buffer,699162,confidence_buffer,,null,,,,,,,,,,,,,,,,,,
2207.100000023842,,recognition_phase,701371,West Palm Beach,,52,,,,,,new,1,0.75,,,,,,,,,,
null,,confidence_buffer,701472,confidence_buffer,,null,,,,,,,,,,,,,,,,,,
null,,thebreak,701974,break,,null,,,,,,,,,,,,,,,,,,
2658.300000011921,,realistic_rating,704633,Highvale,,51,Highvale,Fictional,3,,,,,,,,,,,,,,,
null,,confidence_buffer,704735,confidence_buffer,,null,,,,,,,,,,,,,,,,,,
1799.7000000476837,,pt2_unique_rating,706536,Highvale,,50,,,2,,,,,,,,,,,,,,,
null,,confidence_buffer,706637,confidence_buffer,,null,,,,,,,,,,,,,,,,,,
3593.199999988079,,pt2_memorable_rating,710231,Highvale,,50,,,2,,,,,,,,,,,,,,,
null,,confidence_buffer,710334,confidence_buffer,,null,,,,,,,,,,,,,,,,,,
3038.900000035763,,recognition_phase,713374,Highvale,,50,,,,,,old,1,0.8,,,,,,,,,,
null,,confidence_buffer,713476,confidence_buffer,,null,,,,,,,,,,,,,,,,,,
null,,thebreak,713977,break,,null,,,,,,,,,,,,,,,,,,
3384.899999976158,,realistic_rating,717362,Sierra Hollow,,52,Sierra Hollow,Fictional,4,,,,,,,,,,,,,,,
null,,confidence_buffer,717463,confidence_buffer,,null,,,,,,,,,,,,,,,,,,
2227.899999976158,,pt2_unique_rating,719692,Sierra Hollow,,51,,,3,,,,,,,,,,,,,,,
null,,confidence_buffer,719794,confidence_buffer,,null,,,,,,,,,,,,,,,,,,
3139.7999999523163,,pt2_memorable_rating,722935,Sierra Hollow,,51,,,3,,,,,,,,,,,,,,,
null,,confidence_buffer,723037,confidence_buffer,,null,,,,,,,,,,,,,,,,,,
2208.600000023842,,recognition_phase,725247,Sierra Hollow,,49,,,,,,old,1,0.8333333333333334,,,,,,,,,,
null,,confidence_buffer,725349,confidence_buffer,,null,,,,,,,,,,,,,,,,,,
null,,thebreak,725850,break,,null,,,,,,,,,,,,,,,,,,
3394.399999976158,,realistic_rating,729246,Hawthorne Bluffs,,51,Hawthorne Bluffs,Fictional,3,,,,,,,,,,,,,,,
null,,confidence_buffer,729348,confidence_buffer,,null,,,,,,,,,,,,,,,,,,
2772.399999976158,,pt2_unique_rating,732122,Hawthorne Bluffs,,51,,,3,,,,,,,,,,,,,,,
null,,confidence_buffer,732225,confidence_buffer,,null,,,,,,,,,,,,,,,,,,
2516,,pt2_memorable_rating,734742,Hawthorne Bluffs,,50,,,2,,,,,,,,,,,,,,,
null,,confidence_buffer,734843,confidence_buffer,,null,,,,,,,,,,,,,,,,,,
5723.399999976158,,recognition_phase,740567,Hawthorne Bluffs,,50,,,,,,old,0,0.7142857142857143,,,,,,,,,,
null,,confidence_buffer,740670,confidence_buffer,,null,,,,,,,,,,,,,,,,,,
null,,thebreak,741171,break,,null,,,,,,,,,,,,,,,,,,
3033.199999988079,,realistic_rating,744206,Huntsville,,52,Huntsville,US,4,,,,,,,,,,,,,,,
null,,confidence_buffer,744308,confidence_buffer,,null,,,,,,,,,,,,,,,,,,
2373,,pt2_unique_rating,746682,Huntsville,,52,,,4,,,,,,,,,,,,,,,
null,,confidence_buffer,746784,confidence_buffer,,null,,,,,,,,,,,,,,,,,,
1825.800000011921,,probe_rating,748611,probe_rating,,49,,,,1,1,,,,,,,,,,,,,
null,,confidence_buffer,748720,confidence_buffer,,null,,,,,,,,,,,,,,,,,,
2790.099999964237,,pt2_memorable_rating,751511,Huntsville,,52,,,4,,,,,,,,,,,,,,,
null,,confidence_buffer,751613,confidence_buffer,,null,,,,,,,,,,,,,,,,,,
3779.800000011921,,recognition_phase,755394,Huntsville,,49,,,,,,old,1,0.75,,,,,,,,,,
null,,confidence_buffer,755496,confidence_buffer,,null,,,,,,,,,,,,,,,,,,
null,,thebreak,755999,break,,null,,,,,,,,,,,,,,,,,,
3102.899999976158,,realistic_rating,759104,Ravenport,,51,Ravenport,Fictional,3,,,,,,,,,,,,,,,
null,,confidence_buffer,759212,confidence_buffer,,null,,,,,,,,,,,,,,,,,,
1492.5,,pt2_unique_rating,760706,Ravenport,,50,,,2,,,,,,,,,,,,,,,
null,,confidence_buffer,760807,confidence_buffer,,null,,,,,,,,,,,,,,,,,,
2501.599999964237,,pt2_memorable_rating,763310,Ravenport,,50,,,2,,,,,,,,,,,,,,,
null,,confidence_buffer,763413,confidence_buffer,,null,,,,,,,,,,,,,,,,,,
3587.099999964237,,recognition_phase,767001,Ravenport,,49,,,,,,old,1,0.7777777777777778,,,,,,,,,,
null,,confidence_buffer,767103,confidence_buffer,,null,,,,,,,,,,,,,,,,,,
null,,thebreak,767605,break,,null,,,,,,,,,,,,,,,,,,
3845.800000011921,,realistic_rating,771452,Delaro Park,,50,Delaro Park,Fictional,2,,,,,,,,,,,,,,,
null,,confidence_buffer,771554,confidence_buffer,,null,,,,,,,,,,,,,,,,,,
1048.5,,pt2_unique_rating,772604,Delaro Park,,50,,,2,,,,,,,,,,,,,,,
null,,confidence_buffer,772706,confidence_buffer,,null,,,,,,,,,,,,,,,,,,
2911.899999976158,,pt2_memorable_rating,775619,Delaro Park,,51,,,3,,,,,,,,,,,,,,,
null,,confidence_buffer,775722,confidence_buffer,,null,,,,,,,,,,,,,,,,,,
2225.300000011921,,recognition_phase,777949,Delaro Park,,49,,,,,,old,1,0.8,,,,,,,,,,
null,,confidence_buffer,778050,confidence_buffer,,null,,,,,,,,,,,,,,,,,,
null,,thebreak,778551,break,,null,,,,,,,,,,,,,,,,,,
3854.699999988079,,realistic_rating,782407,Sisters,,49,Sisters,US,1,,,,,,,,,,,,,,,
null,,confidence_buffer,782509,confidence_buffer,,null,,,,,,,,,,,,,,,,,,
2071.699999988079,,pt2_unique_rating,784582,Sisters,,53,,,5,,,,,,,,,,,,,,,
null,,confidence_buffer,784684,confidence_buffer,,null,,,,,,,,,,,,,,,,,,
1599.0999999642372,,pt2_memorable_rating,786284,Sisters,,53,,,5,,,,,,,,,,,,,,,
null,,confidence_buffer,786386,confidence_buffer,,null,,,,,,,,,,,,,,,,,,
3469.199999988079,,recognition_phase,789856,Sisters,,52,,,,,,new,1,0.8181818181818182,,,,,,,,,,
null,,confidence_buffer,789958,confidence_buffer,,null,,,,,,,,,,,,,,,,,,
null,,thebreak,790460,break,,null,,,,,,,,,,,,,,,,,,
3012.400000035763,,realistic_rating,793474,Abilene,,52,Abilene,US,4,,,,,,,,,,,,,,,
null,,confidence_buffer,793576,confidence_buffer,,null,,,,,,,,,,,,,,,,,,
1883.5999999642372,,pt2_unique_rating,795461,Abilene,,53,,,5,,,,,,,,,,,,,,,
null,,confidence_buffer,795562,confidence_buffer,,null,,,,,,,,,,,,,,,,,,
2284.600000023842,,pt2_memorable_rating,797848,Abilene,,52,,,4,,,,,,,,,,,,,,,
null,,confidence_buffer,797950,confidence_buffer,,null,,,,,,,,,,,,,,,,,,
3210.600000023842,,recognition_phase,801162,Abilene,,49,,,,,,old,1,0.8333333333333334,,,,,,,,,,
null,,confidence_buffer,801265,confidence_buffer,,null,,,,,,,,,,,,,,,,,,
null,,thebreak,801766,break,,null,,,,,,,,,,,,,,,,,,
4418.200000047684,,realistic_rating,806185,Bowling Green,,53,Bowling Green,US,5,,,,,,,,,,,,,,,
null,,confidence_buffer,806287,confidence_buffer,,null,,,,,,,,,,,,,,,,,,
1970.7000000476837,,pt2_unique_rating,808260,Bowling Green,,53,,,5,,,,,,,,,,,,,,,
null,,confidence_buffer,808363,confidence_buffer,,null,,,,,,,,,,,,,,,,,,
1417.3999999761581,,probe_rating,809780,probe_rating,,52,,,,4,1,,,,,,,,,,,,,
null,,confidence_buffer,809882,confidence_buffer,,null,,,,,,,,,,,,,,,,,,
2262.199999988079,,pt2_memorable_rating,812145,Bowling Green,,52,,,4,,,,,,,,,,,,,,,
null,,confidence_buffer,812246,confidence_buffer,,null,,,,,,,,,,,,,,,,,,
2967.199999988079,,recognition_phase,815215,Bowling Green,,52,,,,,,new,1,0.8461538461538461,,,,,,,,,,
null,,confidence_buffer,815317,confidence_buffer,,null,,,,,,,,,,,,,,,,,,
null,,thebreak,815819,break,,null,,,,,,,,,,,,,,,,,,
5028.100000023842,,realistic_rating,820849,Sunmere,,50,Sunmere,Fictional,2,,,,,,,,,,,,,,,
null,,confidence_buffer,820950,confidence_buffer,,null,,,,,,,,,,,,,,,,,,
2010.8999999761581,,pt2_unique_rating,822962,Sunmere,,50,,,2,,,,,,,,,,,,,,,
null,,confidence_buffer,823065,confidence_buffer,,null,,,,,,,,,,,,,,,,,,
2856.7999999523163,,pt2_memorable_rating,825923,Sunmere,,49,,,1,,,,,,,,,,,,,,,
null,,confidence_buffer,826024,confidence_buffer,,null,,,,,,,,,,,,,,,,,,
2346.5,,recognition_phase,828371,Sunmere,,52,,,,,,new,1,0.8571428571428571,,,,,,,,,,
null,,confidence_buffer,828473,confidence_buffer,,null,,,,,,,,,,,,,,,,,,
null,,thebreak,828975,break,,null,,,,,,,,,,,,,,,,,,
2578.899999976158,,realistic_rating,831555,Driftwood Bay,,51,Driftwood Bay,Fictional,3,,,,,,,,,,,,,,,
null,,confidence_buffer,831669,confidence_buffer,,null,,,,,,,,,,,,,,,,,,
1739.5,,pt2_unique_rating,833409,Driftwood Bay,,50,,,2,,,,,,,,,,,,,,,
null,,confidence_buffer,833511,confidence_buffer,,null,,,,,,,,,,,,,,,,,,
2055.199999988079,,pt2_memorable_rating,835567,Driftwood Bay,,50,,,2,,,,,,,,,,,,,,,
null,,confidence_buffer,835672,confidence_buffer,,null,,,,,,,,,,,,,,,,,,
2332.599999964237,,recognition_phase,838006,Driftwood Bay,,52,,,,,,new,0,0.8,,,,,,,,,,
null,,confidence_buffer,838107,confidence_buffer,,null,,,,,,,,,,,,,,,,,,
null,,thebreak,838609,break,,null,,,,,,,,,,,,,,,,,,
3290.399999976158,,realistic_rating,841901,North Arroya,,51,North Arroya,Fictional,3,,,,,,,,,,,,,,,
null,,confidence_buffer,842004,confidence_buffer,,null,,,,,,,,,,,,,,,,,,
941.8999999761581,,pt2_unique_rating,842946,North Arroya,,50,,,2,,,,,,,,,,,,,,,
null,,confidence_buffer,843048,confidence_buffer,,null,,,,,,,,,,,,,,,,,,
2818.699999988079,,pt2_memorable_rating,845868,North Arroya,,49,,,1,,,,,,,,,,,,,,,
null,,confidence_buffer,845970,confidence_buffer,,null,,,,,,,,,,,,,,,,,,
1746.8999999761581,,recognition_phase,847717,North Arroya,,49,,,,,,old,1,0.8125,,,,,,,,,,
null,,confidence_buffer,847832,confidence_buffer,,null,,,,,,,,,,,,,,,,,,
null,,thebreak,848335,break,,null,,,,,,,,,,,,,,,,,,
3296.5,,realistic_rating,851633,Carmel,,53,Carmel,US,5,,,,,,,,,,,,,,,
null,,confidence_buffer,851736,confidence_buffer,,null,,,,,,,,,,,,,,,,,,
3542.600000023842,,pt2_unique_rating,855280,Carmel,,52,,,4,,,,,,,,,,,,,,,
null,,confidence_buffer,855382,confidence_buffer,,null,,,,,,,,,,,,,,,,,,
1260.8999999761581,,pt2_memorable_rating,856644,Carmel,,52,,,4,,,,,,,,,,,,,,,
null,,confidence_buffer,856746,confidence_buffer,,null,,,,,,,,,,,,,,,,,,
3146.199999988079,,recognition_phase,859893,Carmel,,49,,,,,,old,1,0.8235294117647058,,,,,,,,,,
null,,confidence_buffer,859995,confidence_buffer,,null,,,,,,,,,,,,,,,,,,
null,,thebreak,860497,break,,null,,,,,,,,,,,,,,,,,,
2463.699999988079,,realistic_rating,862962,Newport,,51,Newport,US,3,,,,,,,,,,,,,,,
null,,confidence_buffer,863074,confidence_buffer,,null,,,,,,,,,,,,,,,,,,
2607.399999976158,,pt2_unique_rating,865682,Newport,,52,,,4,,,,,,,,,,,,,,,
null,,confidence_buffer,865783,confidence_buffer,,null,,,,,,,,,,,,,,,,,,
2336.899999976158,,pt2_memorable_rating,868121,Newport,,50,,,2,,,,,,,,,,,,,,,
null,,confidence_buffer,868222,confidence_buffer,,null,,,,,,,,,,,,,,,,,,
7196.800000011921,,recognition_phase,875420,Newport,,51,,,,,,new,1,0.8333333333333334,,,,,,,,,,
null,,confidence_buffer,875527,confidence_buffer,,null,,,,,,,,,,,,,,,,,,
null,,thebreak,876028,break,,null,,,,,,,,,,,,,,,,,,
3274.199999988079,,realistic_rating,879304,Ironwood Heights,,53,Ironwood Heights,Fictional,5,,,,,,,,,,,,,,,
null,,confidence_buffer,879406,confidence_buffer,,null,,,,,,,,,,,,,,,,,,
1793.5,,pt2_unique_rating,881200,Ironwood Heights,,52,,,4,,,,,,,,,,,,,,,
null,,confidence_buffer,881303,confidence_buffer,,null,,,,,,,,,,,,,,,,,,
1146.1000000238419,,pt2_memorable_rating,882449,Ironwood Heights,,52,,,4,,,,,,,,,,,,,,,
null,,confidence_buffer,882559,confidence_buffer,,null,,,,,,,,,,,,,,,,,,
4351,,recognition_phase,886911,Ironwood Heights,,49,,,,,,old,1,0.8421052631578947,,,,,,,,,,
null,,confidence_buffer,887013,confidence_buffer,,null,,,,,,,,,,,,,,,,,,
null,,thebreak,887515,break,,null,,,,,,,,,,,,,,,,,,
3685.899999976158,,realistic_rating,891202,Barnard,,51,Barnard,US,3,,,,,,,,,,,,,,,
null,,confidence_buffer,891304,confidence_buffer,,null,,,,,,,,,,,,,,,,,,
1317,,pt2_unique_rating,892622,Barnard,,51,,,3,,,,,,,,,,,,,,,
null,,confidence_buffer,892724,confidence_buffer,,null,,,,,,,,,,,,,,,,,,
933.5999999642372,,pt2_memorable_rating,893659,Barnard,,50,,,2,,,,,,,,,,,,,,,
null,,confidence_buffer,893760,confidence_buffer,,null,,,,,,,,,,,,,,,,,,
3162.599999964237,,recognition_phase,896924,Barnard,,49,,,,,,old,1,0.85,,,,,,,,,,
null,,confidence_buffer,897026,confidence_buffer,,null,,,,,,,,,,,,,,,,,,
null,,thebreak,897528,break,,null,,,,,,,,,,,,,,,,,,
3426.800000011921,,realistic_rating,900956,Alliance,,50,Alliance,US,2,,,,,,,,,,,,,,,
null,,confidence_buffer,901058,confidence_buffer,,null,,,,,,,,,,,,,,,,,,
1024.5999999642372,,pt2_unique_rating,902083,Alliance,,51,,,3,,,,,,,,,,,,,,,
null,,confidence_buffer,902189,confidence_buffer,,null,,,,,,,,,,,,,,,,,,
1183.800000011921,,pt2_memorable_rating,903373,Alliance,,50,,,2,,,,,,,,,,,,,,,
null,,confidence_buffer,903475,confidence_buffer,,null,,,,,,,,,,,,,,,,,,
3058.400000035763,,recognition_phase,906534,Alliance,,49,,,,,,old,0,0.8095238095238095,,,,,,,,,,
null,,confidence_buffer,906636,confidence_buffer,,null,,,,,,,,,,,,,,,,,,
null,,thebreak,907138,break,,null,,,,,,,,,,,,,,,,,,
3187.399999976158,,realistic_rating,910327,Gardnerville,,52,Gardnerville,US,4,,,,,,,,,,,,,,,
null,,confidence_buffer,910429,confidence_buffer,,null,,,,,,,,,,,,,,,,,,
2080.300000011921,,probe_rating,912510,probe_rating,,51,,,,3,1,,,,,,,,,,,,,
null,,confidence_buffer,912612,confidence_buffer,,null,,,,,,,,,,,,,,,,,,
1772.1000000238419,,pt2_unique_rating,914385,Gardnerville,,50,,,2,,,,,,,,,,,,,,,
null,,confidence_buffer,914488,confidence_buffer,,null,,,,,,,,,,,,,,,,,,
1425.1000000238419,,pt2_memorable_rating,915914,Gardnerville,,50,,,2,,,,,,,,,,,,,,,
null,,confidence_buffer,916015,confidence_buffer,,null,,,,,,,,,,,,,,,,,,
3105.599999964237,,recognition_phase,919122,Gardnerville,,49,,,,,,old,0,0.7727272727272727,,,,,,,,,,
null,,confidence_buffer,919223,confidence_buffer,,null,,,,,,,,,,,,,,,,,,
null,,thebreak,919725,break,,null,,,,,,,,,,,,,,,,,,
2596.900000035763,,realistic_rating,922323,New Verdan,,50,New Verdan,Fictional,2,,,,,,,,,,,,,,,
null,,confidence_buffer,922425,confidence_buffer,,null,,,,,,,,,,,,,,,,,,
882.8000000119209,,pt2_unique_rating,923309,New Verdan,,51,,,3,,,,,,,,,,,,,,,
null,,confidence_buffer,923411,confidence_buffer,,null,,,,,,,,,,,,,,,,,,
1660.800000011921,,pt2_memorable_rating,925073,New Verdan,,51,,,3,,,,,,,,,,,,,,,
null,,confidence_buffer,925174,confidence_buffer,,null,,,,,,,,,,,,,,,,,,
2011.699999988079,,probe_rating,927187,probe_rating,,51,,,,3,1,,,,,,,,,,,,,
null,,confidence_buffer,927289,confidence_buffer,,null,,,,,,,,,,,,,,,,,,
7206.300000011921,,recognition_phase,934497,New Verdan,,49,,,,,,old,1,0.782608695652174,,,,,,,,,,
null,,confidence_buffer,934599,confidence_buffer,,null,,,,,,,,,,,,,,,,,,
null,,thebreak,935101,break,,null,,,,,,,,,,,,,,,,,,
3506.899999976158,,realistic_rating,938609,New Hope,,52,New Hope,US,4,,,,,,,,,,,,,,,
null,,confidence_buffer,938711,confidence_buffer,,null,,,,,,,,,,,,,,,,,,
1376.0999999642372,,pt2_unique_rating,940088,New Hope,,50,,,2,,,,,,,,,,,,,,,
null,,confidence_buffer,940190,confidence_buffer,,null,,,,,,,,,,,,,,,,,,
3320.800000011921,,probe_rating,943512,probe_rating,,53,,,,5,1,,,,,,,,,,,,,
null,,confidence_buffer,943615,confidence_buffer,,null,,,,,,,,,,,,,,,,,,
3718.899999976158,,pt2_memorable_rating,947335,New Hope,,51,,,3,,,,,,,,,,,,,,,
null,,confidence_buffer,947437,confidence_buffer,,null,,,,,,,,,,,,,,,,,,
2078.100000023842,,recognition_phase,949516,New Hope,,52,,,,,,new,1,0.7916666666666666,,,,,,,,,,
null,,confidence_buffer,949617,confidence_buffer,,null,,,,,,,,,,,,,,,,,,
null,,thebreak,950119,break,,null,,,,,,,,,,,,,,,,,,
4342.5,,realistic_rating,954463,Meadowspire,,50,Meadowspire,Fictional,2,,,,,,,,,,,,,,,
null,,confidence_buffer,954565,confidence_buffer,,null,,,,,,,,,,,,,,,,,,
2279.100000023842,,pt2_unique_rating,956845,Meadowspire,,50,,,2,,,,,,,,,,,,,,,
null,,confidence_buffer,956946,confidence_buffer,,null,,,,,,,,,,,,,,,,,,
2201.600000023842,,pt2_memorable_rating,959149,Meadowspire,,49,,,1,,,,,,,,,,,,,,,
null,,confidence_buffer,959251,confidence_buffer,,null,,,,,,,,,,,,,,,,,,
1964.199999988079,,probe_rating,961217,probe_rating,,52,,,,4,1,,,,,,,,,,,,,
null,,confidence_buffer,961319,confidence_buffer,,null,,,,,,,,,,,,,,,,,,
5721.800000011921,,recognition_phase,967042,Meadowspire,,51,,,,,,new,0,0.76,,,,,,,,,,
null,,confidence_buffer,967150,confidence_buffer,,null,,,,,,,,,,,,,,,,,,
null,,thebreak,967652,break,,null,,,,,,,,,,,,,,,,,,
6567.899999976158,,realistic_rating,974221,Assateague Island,,50,Assateague Island,US,2,,,,,,,,,,,,,,,
null,,confidence_buffer,974322,confidence_buffer,,null,,,,,,,,,,,,,,,,,,
14331.299999952316,,pt2_unique_rating,988655,Assateague Island,,51,,,3,,,,,,,,,,,,,,,
null,,confidence_buffer,988756,confidence_buffer,,null,,,,,,,,,,,,,,,,,,
3694.800000011921,,pt2_memorable_rating,992452,Assateague Island,,51,,,3,,,,,,,,,,,,,,,
null,,confidence_buffer,992555,confidence_buffer,,null,,,,,,,,,,,,,,,,,,
15916.600000023842,,recognition_phase,1008473,Assateague Island,,49,,,,,,old,0,0.7307692307692307,,,,,,,,,,
null,,confidence_buffer,1008574,confidence_buffer,,null,,,,,,,,,,,,,,,,,,
null,,thebreak,1009081,break,,null,,,,,,,,,,,,,,,,,,
7181.800000011921,,realistic_rating,1016265,Healdsburg,,49,Healdsburg,US,1,,,,,,,,,,,,,,,
null,,confidence_buffer,1016367,confidence_buffer,,null,,,,,,,,,,,,,,,,,,
4032.600000023842,,pt2_unique_rating,1020400,Healdsburg,,49,,,1,,,,,,,,,,,,,,,
null,,confidence_buffer,1020502,confidence_buffer,,null,,,,,,,,,,,,,,,,,,
3301.7000000476837,,pt2_memorable_rating,1023805,Healdsburg,,49,,,1,,,,,,,,,,,,,,,
null,,confidence_buffer,1023907,confidence_buffer,,null,,,,,,,,,,,,,,,,,,
4459.900000035763,,recognition_phase,1028368,Healdsburg,,52,,,,,,new,1,0.7407407407407407,,,,,,,,,,
null,,confidence_buffer,1028469,confidence_buffer,,null,,,,,,,,,,,,,,,,,,
null,,thebreak,1028971,break,,null,,,,,,,,,,,,,,,,,,
3769.5,,realistic_rating,1032741,Watkins Glen,,53,Watkins Glen,US,5,,,,,,,,,,,,,,,
null,,confidence_buffer,1032842,confidence_buffer,,null,,,,,,,,,,,,,,,,,,
1531.7000000476837,,pt2_unique_rating,1034374,Watkins Glen,,52,,,4,,,,,,,,,,,,,,,
null,,confidence_buffer,1034476,confidence_buffer,,null,,,,,,,,,,,,,,,,,,
1383.300000011921,,probe_rating,1035860,probe_rating,,49,,,,1,1,,,,,,,,,,,,,
null,,confidence_buffer,1035962,confidence_buffer,,null,,,,,,,,,,,,,,,,,,
1673.199999988079,,pt2_memorable_rating,1037636,Watkins Glen,,50,,,2,,,,,,,,,,,,,,,
null,,confidence_buffer,1037737,confidence_buffer,,null,,,,,,,,,,,,,,,,,,
4003.099999964237,,recognition_phase,1041741,Watkins Glen,,51,,,,,,new,1,0.75,,,,,,,,,,
null,,confidence_buffer,1041843,confidence_buffer,,null,,,,,,,,,,,,,,,,,,
null,,thebreak,1042347,break,,null,,,,,,,,,,,,,,,,,,
2568.300000011921,,realistic_rating,1044916,Falconridge,,52,Falconridge,Fictional,4,,,,,,,,,,,,,,,
null,,confidence_buffer,1045017,confidence_buffer,,null,,,,,,,,,,,,,,,,,,
1680.3999999761581,,pt2_unique_rating,1046699,Falconridge,,51,,,3,,,,,,,,,,,,,,,
null,,confidence_buffer,1046802,confidence_buffer,,null,,,,,,,,,,,,,,,,,,
1008.5,,pt2_memorable_rating,1047811,Falconridge,,51,,,3,,,,,,,,,,,,,,,
null,,confidence_buffer,1047913,confidence_buffer,,null,,,,,,,,,,,,,,,,,,
5575.699999988079,,recognition_phase,1053490,Falconridge,,52,,,,,,new,1,0.7586206896551724,,,,,,,,,,
null,,confidence_buffer,1053592,confidence_buffer,,null,,,,,,,,,,,,,,,,,,
null,,thebreak,1054093,break,,null,,,,,,,,,,,,,,,,,,
3082.400000035763,,realistic_rating,1057176,Maplehurst,,50,Maplehurst,Fictional,2,,,,,,,,,,,,,,,
null,,confidence_buffer,1057278,confidence_buffer,,null,,,,,,,,,,,,,,,,,,
1668.800000011921,,pt2_unique_rating,1058949,Maplehurst,,50,,,2,,,,,,,,,,,,,,,
null,,confidence_buffer,1059051,confidence_buffer,,null,,,,,,,,,,,,,,,,,,
1992.300000011921,,pt2_memorable_rating,1061044,Maplehurst,,51,,,3,,,,,,,,,,,,,,,
null,,confidence_buffer,1061154,confidence_buffer,,null,,,,,,,,,,,,,,,,,,
1008.6999999880791,,recognition_phase,1062164,Maplehurst,,50,,,,,,old,0,0.7333333333333333,,,,,,,,,,
null,,confidence_buffer,1062267,confidence_buffer,,null,,,,,,,,,,,,,,,,,,
null,,thebreak,1062769,break,,null,,,,,,,,,,,,,,,,,,
2381.100000023842,,realistic_rating,1065151,Hollendale,,50,Hollendale,Fictional,2,,,,,,,,,,,,,,,
null,,confidence_buffer,1065253,confidence_buffer,,null,,,,,,,,,,,,,,,,,,
1997.199999988079,,pt2_unique_rating,1067251,Hollendale,,49,,,1,,,,,,,,,,,,,,,
null,,confidence_buffer,1067362,confidence_buffer,,null,,,,,,,,,,,,,,,,,,
1160,,pt2_memorable_rating,1068523,Hollendale,,50,,,2,,,,,,,,,,,,,,,
null,,confidence_buffer,1068625,confidence_buffer,,null,,,,,,,,,,,,,,,,,,
3410.800000011921,,recognition_phase,1072037,Hollendale,,50,,,,,,old,1,0.7419354838709677,,,,,,,,,,
null,,confidence_buffer,1072139,confidence_buffer,,null,,,,,,,,,,,,,,,,,,
null,,thebreak,1072640,break,,null,,,,,,,,,,,,,,,,,,
3217.399999976158,,realistic_rating,1075859,Redgrove,,51,Redgrove,Fictional,3,,,,,,,,,,,,,,,
null,,confidence_buffer,1075960,confidence_buffer,,null,,,,,,,,,,,,,,,,,,
1423.7999999523163,,pt2_unique_rating,1077385,Redgrove,,50,,,2,,,,,,,,,,,,,,,
null,,confidence_buffer,1077487,confidence_buffer,,null,,,,,,,,,,,,,,,,,,
1484.0999999642372,,pt2_memorable_rating,1078972,Redgrove,,51,,,3,,,,,,,,,,,,,,,
null,,confidence_buffer,1079084,confidence_buffer,,null,,,,,,,,,,,,,,,,,,
1727.3999999761581,,probe_rating,1080813,probe_rating,,52,,,,4,1,,,,,,,,,,,,,
null,,confidence_buffer,1080924,confidence_buffer,,null,,,,,,,,,,,,,,,,,,
3563.5,,recognition_phase,1084489,Redgrove,,50,,,,,,old,1,0.75,,,,,,,,,,
null,,confidence_buffer,1084590,confidence_buffer,,null,,,,,,,,,,,,,,,,,,
null,,thebreak,1085091,break,,null,,,,,,,,,,,,,,,,,,
2719.900000035763,,realistic_rating,1087812,Cape May,,53,Cape May,US,5,,,,,,,,,,,,,,,
null,,confidence_buffer,1087914,confidence_buffer,,null,,,,,,,,,,,,,,,,,,
1785.800000011921,,pt2_unique_rating,1089701,Cape May,,52,,,4,,,,,,,,,,,,,,,
null,,confidence_buffer,1089803,confidence_buffer,,null,,,,,,,,,,,,,,,,,,
1561,,pt2_memorable_rating,1091365,Cape May,,53,,,5,,,,,,,,,,,,,,,
null,,confidence_buffer,1091468,confidence_buffer,,null,,,,,,,,,,,,,,,,,,
3593.699999988079,,recognition_phase,1095063,Cape May,,49,,,,,,old,1,0.7575757575757576,,,,,,,,,,
null,,confidence_buffer,1095164,confidence_buffer,,null,,,,,,,,,,,,,,,,,,
null,,thebreak,1095666,break,,null,,,,,,,,,,,,,,,,,,
1753.2000000476837,,realistic_rating,1097421,Westridge,,51,Westridge,Fictional,3,,,,,,,,,,,,,,,
null,,confidence_buffer,1097523,confidence_buffer,,null,,,,,,,,,,,,,,,,,,
1556.5,,pt2_unique_rating,1099081,Westridge,,52,,,4,,,,,,,,,,,,,,,
null,,confidence_buffer,1099182,confidence_buffer,,null,,,,,,,,,,,,,,,,,,
1282.800000011921,,pt2_memorable_rating,1100466,Westridge,,52,,,4,,,,,,,,,,,,,,,
null,,confidence_buffer,1100567,confidence_buffer,,null,,,,,,,,,,,,,,,,,,
3995,,recognition_phase,1104564,Westridge,,52,,,,,,new,1,0.7647058823529411,,,,,,,,,,
null,,confidence_buffer,1104666,confidence_buffer,,null,,,,,,,,,,,,,,,,,,
null,,thebreak,1105167,break,,null,,,,,,,,,,,,,,,,,,
3161.399999976158,,realistic_rating,1108330,Solara Glen,,51,Solara Glen,Fictional,3,,,,,,,,,,,,,,,
null,,confidence_buffer,1108432,confidence_buffer,,null,,,,,,,,,,,,,,,,,,
2388.399999976158,,pt2_unique_rating,1110821,Solara Glen,,50,,,2,,,,,,,,,,,,,,,
null,,confidence_buffer,1110923,confidence_buffer,,null,,,,,,,,,,,,,,,,,,
2331.300000011921,,pt2_memorable_rating,1113255,Solara Glen,,49,,,1,,,,,,,,,,,,,,,
null,,confidence_buffer,1113357,confidence_buffer,,null,,,,,,,,,,,,,,,,,,
7856.799999952316,,recognition_phase,1121215,Solara Glen,,52,,,,,,new,1,0.7714285714285715,,,,,,,,,,
null,,confidence_buffer,1121317,confidence_buffer,,null,,,,,,,,,,,,,,,,,,
null,,thebreak,1121818,break,,null,,,,,,,,,,,,,,,,,,
3197.100000023842,,realistic_rating,1125017,Granton Ridge,,50,Granton Ridge,Fictional,2,,,,,,,,,,,,,,,
null,,confidence_buffer,1125119,confidence_buffer,,null,,,,,,,,,,,,,,,,,,
2990.600000023842,,pt2_unique_rating,1128111,Granton Ridge,,49,,,1,,,,,,,,,,,,,,,
null,,confidence_buffer,1128213,confidence_buffer,,null,,,,,,,,,,,,,,,,,,
4624.900000035763,,pt2_memorable_rating,1132839,Granton Ridge,,49,,,1,,,,,,,,,,,,,,,
null,,confidence_buffer,1132941,confidence_buffer,,null,,,,,,,,,,,,,,,,,,
2272.800000011921,,probe_rating,1135215,probe_rating,,49,,,,1,1,,,,,,,,,,,,,
null,,confidence_buffer,1135316,confidence_buffer,,null,,,,,,,,,,,,,,,,,,
7124.5,,recognition_phase,1142442,Granton Ridge,,52,,,,,,new,1,0.7777777777777778,,,,,,,,,,
null,,confidence_buffer,1142544,confidence_buffer,,null,,,,,,,,,,,,,,,,,,
null,,thebreak,1143049,break,,null,,,,,,,,,,,,,,,,,,
5883.300000011921,,realistic_rating,1148933,Juniper Creek,,53,Juniper Creek,Fictional,5,,,,,,,,,,,,,,,
null,,confidence_buffer,1149036,confidence_buffer,,null,,,,,,,,,,,,,,,,,,
6242.199999988079,,pt2_unique_rating,1155279,Juniper Creek,,53,,,5,,,,,,,,,,,,,,,
null,,confidence_buffer,1155382,confidence_buffer,,null,,,,,,,,,,,,,,,,,,
3291.2000000476837,,pt2_memorable_rating,1158674,Juniper Creek,,53,,,5,,,,,,,,,,,,,,,
null,,confidence_buffer,1158777,confidence_buffer,,null,,,,,,,,,,,,,,,,,,
4214.800000011921,,recognition_phase,1162993,Juniper Creek,,49,,,,,,old,1,0.7837837837837838,,,,,,,,,,
null,,confidence_buffer,1163094,confidence_buffer,,null,,,,,,,,,,,,,,,,,,
null,,thebreak,1163596,break,,null,,,,,,,,,,,,,,,,,,
5270.800000011921,,realistic_rating,1168868,Sammamish,,49,Sammamish,US,1,,,,,,,,,,,,,,,
null,,confidence_buffer,1168969,confidence_buffer,,null,,,,,,,,,,,,,,,,,,
3921,,pt2_unique_rating,1172891,Sammamish,,53,,,5,,,,,,,,,,,,,,,
null,,confidence_buffer,1172993,confidence_buffer,,null,,,,,,,,,,,,,,,,,,
5139.400000035763,,pt2_memorable_rating,1178133,Sammamish,,52,,,4,,,,,,,,,,,,,,,
null,,confidence_buffer,1178235,confidence_buffer,,null,,,,,,,,,,,,,,,,,,
5756.199999988079,,recognition_phase,1183992,Sammamish,,49,,,,,,old,0,0.7631578947368421,,,,,,,,,,
null,,confidence_buffer,1184095,confidence_buffer,,null,,,,,,,,,,,,,,,,,,
null,,thebreak,1184598,break,,null,,,,,,,,,,,,,,,,,,
4629.5,,realistic_rating,1189228,Shreveport,,51,Shreveport,US,3,,,,,,,,,,,,,,,
null,,confidence_buffer,1189330,confidence_buffer,,null,,,,,,,,,,,,,,,,,,
1859.4000000357628,,pt2_unique_rating,1191191,Shreveport,,52,,,4,,,,,,,,,,,,,,,
null,,confidence_buffer,1191293,confidence_buffer,,null,,,,,,,,,,,,,,,,,,
1172,,pt2_memorable_rating,1192466,Shreveport,,51,,,3,,,,,,,,,,,,,,,
null,,confidence_buffer,1192568,confidence_buffer,,null,,,,,,,,,,,,,,,,,,
3823.800000011921,,recognition_phase,1196393,Shreveport,,49,,,,,,old,1,0.7692307692307693,,,,,,,,,,
null,,confidence_buffer,1196495,confidence_buffer,,null,,,,,,,,,,,,,,,,,,
null,,thebreak,1196996,break,,null,,,,,,,,,,,,,,,,,,
3144.699999988079,,realistic_rating,1200142,San Antonio,,53,San Antonio,US,5,,,,,,,,,,,,,,,
null,,confidence_buffer,1200244,confidence_buffer,,null,,,,,,,,,,,,,,,,,,
1708,,pt2_unique_rating,1201953,San Antonio,,52,,,4,,,,,,,,,,,,,,,
null,,confidence_buffer,1202055,confidence_buffer,,null,,,,,,,,,,,,,,,,,,
974.6999999880791,,pt2_memorable_rating,1203031,San Antonio,,52,,,4,,,,,,,,,,,,,,,
null,,confidence_buffer,1203134,confidence_buffer,,null,,,,,,,,,,,,,,,,,,
4761.399999976158,,recognition_phase,1207896,San Antonio,,50,,,,,,old,0,0.75,,,,,,,,,,
null,,confidence_buffer,1207997,confidence_buffer,,null,,,,,,,,,,,,,,,,,,
null,,thebreak,1208499,break,,null,,,,,,,,,,,,,,,,,,
124318.09999996424,,realistic_rating,1332819,Golden Trace,,52,Golden Trace,Fictional,4,,,,,,,,,,,,,,,
null,,confidence_buffer,1332921,confidence_buffer,,null,,,,,,,,,,,,,,,,,,
979.6999999880791,,pt2_unique_rating,1333901,Golden Trace,,52,,,4,,,,,,,,,,,,,,,
null,,confidence_buffer,1334004,confidence_buffer,,null,,,,,,,,,,,,,,,,,,
1996.9000000357628,,pt2_memorable_rating,1336002,Golden Trace,,53,,,5,,,,,,,,,,,,,,,
null,,confidence_buffer,1336105,confidence_buffer,,null,,,,,,,,,,,,,,,,,,
4266.100000023842,,recognition_phase,1340373,Golden Trace,,49,,,,,,old,0,0.7317073170731707,,,,,,,,,,
null,,confidence_buffer,1340475,confidence_buffer,,null,,,,,,,,,,,,,,,,,,
null,,thebreak,1340983,break,,null,,,,,,,,,,,,,,,,,,
2253.800000011921,,realistic_rating,1343237,Hot Springs,,51,Hot Springs,US,3,,,,,,,,,,,,,,,
null,,confidence_buffer,1343338,confidence_buffer,,null,,,,,,,,,,,,,,,,,,
1305.300000011921,,pt2_unique_rating,1344644,Hot Springs,,52,,,4,,,,,,,,,,,,,,,
null,,confidence_buffer,1344746,confidence_buffer,,null,,,,,,,,,,,,,,,,,,
1182,,pt2_memorable_rating,1345929,Hot Springs,,52,,,4,,,,,,,,,,,,,,,
null,,confidence_buffer,1346030,confidence_buffer,,null,,,,,,,,,,,,,,,,,,
2458.599999964237,,recognition_phase,1348490,Hot Springs,,49,,,,,,old,1,0.7380952380952381,,,,,,,,,,
null,,confidence_buffer,1348592,confidence_buffer,,null,,,,,,,,,,,,,,,,,,
null,,thebreak,1349094,break,,null,,,,,,,,,,,,,,,,,,
3970.599999964237,,realistic_rating,1353065,Bisbee,,50,Bisbee,US,2,,,,,,,,,,,,,,,
null,,confidence_buffer,1353168,confidence_buffer,,null,,,,,,,,,,,,,,,,,,
1996.5,,pt2_unique_rating,1355165,Bisbee,,52,,,4,,,,,,,,,,,,,,,
null,,confidence_buffer,1355267,confidence_buffer,,null,,,,,,,,,,,,,,,,,,
1130.5,,pt2_memorable_rating,1356399,Bisbee,,52,,,4,,,,,,,,,,,,,,,
null,,confidence_buffer,1356501,confidence_buffer,,null,,,,,,,,,,,,,,,,,,
1816.699999988079,,recognition_phase,1358319,Bisbee,,49,,,,,,old,1,0.7441860465116279,,,,,,,,,,
null,,confidence_buffer,1358422,confidence_buffer,,null,,,,,,,,,,,,,,,,,,
null,,thebreak,1358924,break,,null,,,,,,,,,,,,,,,,,,
2721.600000023842,,realistic_rating,1361646,Coralridge,,51,Coralridge,Fictional,3,,,,,,,,,,,,,,,
null,,confidence_buffer,1361748,confidence_buffer,,null,,,,,,,,,,,,,,,,,,
944.6000000238419,,pt2_unique_rating,1362693,Coralridge,,52,,,4,,,,,,,,,,,,,,,
null,,confidence_buffer,1362795,confidence_buffer,,null,,,,,,,,,,,,,,,,,,
1032.3999999761581,,pt2_memorable_rating,1363829,Coralridge,,51,,,3,,,,,,,,,,,,,,,
null,,confidence_buffer,1363930,confidence_buffer,,null,,,,,,,,,,,,,,,,,,
2515.600000023842,,recognition_phase,1366447,Coralridge,,49,,,,,,old,1,0.75,,,,,,,,,,
null,,confidence_buffer,1366549,confidence_buffer,,null,,,,,,,,,,,,,,,,,,
null,,thebreak,1367049,break,,null,,,,,,,,,,,,,,,,,,
2785.5,,realistic_rating,1369836,Cornwall,,51,Cornwall,US,3,,,,,,,,,,,,,,,
null,,confidence_buffer,1369945,confidence_buffer,,null,,,,,,,,,,,,,,,,,,
826,,pt2_unique_rating,1370772,Cornwall,,50,,,2,,,,,,,,,,,,,,,
null,,confidence_buffer,1370875,confidence_buffer,,null,,,,,,,,,,,,,,,,,,
1387.6000000238419,,pt2_memorable_rating,1372263,Cornwall,,50,,,2,,,,,,,,,,,,,,,
null,,confidence_buffer,1372365,confidence_buffer,,null,,,,,,,,,,,,,,,,,,
2403.7999999523163,,recognition_phase,1374770,Cornwall,,49,,,,,,old,0,0.7333333333333333,,,,,,,,,,
null,,confidence_buffer,1374872,confidence_buffer,,null,,,,,,,,,,,,,,,,,,
null,,thebreak,1375374,break,,null,,,,,,,,,,,,,,,,,,
3063.100000023842,,realistic_rating,1378438,Sitka,,51,Sitka,US,3,,,,,,,,,,,,,,,
null,,confidence_buffer,1378541,confidence_buffer,,null,,,,,,,,,,,,,,,,,,
1791.9000000357628,,pt2_unique_rating,1380334,Sitka,,50,,,2,,,,,,,,,,,,,,,
null,,confidence_buffer,1380437,confidence_buffer,,null,,,,,,,,,,,,,,,,,,
1012.8999999761581,,pt2_memorable_rating,1381452,Sitka,,50,,,2,,,,,,,,,,,,,,,
null,,confidence_buffer,1381554,confidence_buffer,,null,,,,,,,,,,,,,,,,,,
2463.699999988079,,recognition_phase,1384019,Sitka,,50,,,,,,old,1,0.7391304347826086,,,,,,,,,,
null,,confidence_buffer,1384120,confidence_buffer,,null,,,,,,,,,,,,,,,,,,
null,,thebreak,1384622,break,,null,,,,,,,,,,,,,,,,,,
5808.099999964237,,realistic_rating,1390431,East Ladera,,50,East Ladera,Fictional,2,,,,,,,,,,,,,,,
null,,confidence_buffer,1390533,confidence_buffer,,null,,,,,,,,,,,,,,,,,,
2062.800000011921,,pt2_unique_rating,1392597,East Ladera,,50,,,2,,,,,,,,,,,,,,,
null,,confidence_buffer,1392699,confidence_buffer,,null,,,,,,,,,,,,,,,,,,
1684.199999988079,,pt2_memorable_rating,1394384,East Ladera,,49,,,1,,,,,,,,,,,,,,,
null,,confidence_buffer,1394486,confidence_buffer,,null,,,,,,,,,,,,,,,,,,
4454.199999988079,,recognition_phase,1398942,East Ladera,,49,,,,,,old,1,0.7446808510638298,,,,,,,,,,
null,,confidence_buffer,1399044,confidence_buffer,,null,,,,,,,,,,,,,,,,,,
null,,thebreak,1399547,break,,null,,,,,,,,,,,,,,,,,,
2196.2999999523163,,realistic_rating,1401744,Baymarsh,,50,Baymarsh,Fictional,2,,,,,,,,,,,,,,,
null,,confidence_buffer,1401846,confidence_buffer,,null,,,,,,,,,,,,,,,,,,
1317.5,,pt2_unique_rating,1403164,Baymarsh,,50,,,2,,,,,,,,,,,,,,,
null,,confidence_buffer,1403265,confidence_buffer,,null,,,,,,,,,,,,,,,,,,
1456.300000011921,,pt2_memorable_rating,1404722,Baymarsh,,51,,,3,,,,,,,,,,,,,,,
null,,confidence_buffer,1404824,confidence_buffer,,null,,,,,,,,,,,,,,,,,,
3045.5,,recognition_phase,1407871,Baymarsh,,51,,,,,,new,1,0.75,,,,,,,,,,
null,,confidence_buffer,1407972,confidence_buffer,,null,,,,,,,,,,,,,,,,,,
null,,thebreak,1408473,break,,null,,,,,,,,,,,,,,,,,,
8692,,realistic_rating,1417167,Lakehaven,,50,Lakehaven,Fictional,2,,,,,,,,,,,,,,,
null,,confidence_buffer,1417269,confidence_buffer,,null,,,,,,,,,,,,,,,,,,
2340.100000023842,,pt2_unique_rating,1419611,Lakehaven,,51,,,3,,,,,,,,,,,,,,,
null,,confidence_buffer,1419714,confidence_buffer,,null,,,,,,,,,,,,,,,,,,
1164.6000000238419,,pt2_memorable_rating,1420879,Lakehaven,,50,,,2,,,,,,,,,,,,,,,
null,,confidence_buffer,1420981,confidence_buffer,,null,,,,,,,,,,,,,,,,,,
2924.400000035763,,recognition_phase,1423906,Lakehaven,,51,,,,,,new,1,0.7551020408163265,,,,,,,,,,
null,,confidence_buffer,1424008,confidence_buffer,,null,,,,,,,,,,,,,,,,,,
null,,thebreak,1424510,break,,null,,,,,,,,,,,,,,,,,,
3052.699999988079,,realistic_rating,1427564,Folly Beach,,52,Folly Beach,US,4,,,,,,,,,,,,,,,
null,,confidence_buffer,1427667,confidence_buffer,,null,,,,,,,,,,,,,,,,,,
1875.6000000238419,,pt2_unique_rating,1429544,Folly Beach,,53,,,5,,,,,,,,,,,,,,,
null,,confidence_buffer,1429646,confidence_buffer,,null,,,,,,,,,,,,,,,,,,
1079.2000000476837,,pt2_memorable_rating,1430726,Folly Beach,,52,,,4,,,,,,,,,,,,,,,
null,,confidence_buffer,1430828,confidence_buffer,,null,,,,,,,,,,,,,,,,,,
1962.1000000238419,,recognition_phase,1432791,Folly Beach,,49,,,,,,old,1,0.76,,,,,,,,,,
null,,confidence_buffer,1432893,confidence_buffer,,null,,,,,,,,,,,,,,,,,,
null,,thebreak,1433394,break,,null,,,,,,,,,,,,,,,,,,
4023.100000023842,,realistic_rating,1437419,Clearbrook,,53,Clearbrook,Fictional,5,,,,,,,,,,,,,,,
null,,confidence_buffer,1437522,confidence_buffer,,null,,,,,,,,,,,,,,,,,,
2790.600000023842,,pt2_unique_rating,1440314,Clearbrook,,49,,,1,,,,,,,,,,,,,,,
null,,confidence_buffer,1440416,confidence_buffer,,null,,,,,,,,,,,,,,,,,,
2136.5,,pt2_memorable_rating,1442554,Clearbrook,,49,,,1,,,,,,,,,,,,,,,
null,,confidence_buffer,1442655,confidence_buffer,,null,,,,,,,,,,,,,,,,,,
1325.2000000476837,,recognition_phase,1443982,Clearbrook,,49,,,,,,old,1,0.7647058823529411,,,,,,,,,,
null,,confidence_buffer,1444085,confidence_buffer,,null,,,,,,,,,,,,,,,,,,
null,,thebreak,1444587,break,,null,,,,,,,,,,,,,,,,,,
4010.099999964237,,realistic_rating,1448598,Okoboji,,49,Okoboji,US,1,,,,,,,,,,,,,,,
null,,confidence_buffer,1448700,confidence_buffer,,null,,,,,,,,,,,,,,,,,,
2111.800000011921,,pt2_unique_rating,1450813,Okoboji,,53,,,5,,,,,,,,,,,,,,,
null,,confidence_buffer,1450922,confidence_buffer,,null,,,,,,,,,,,,,,,,,,
1484.800000011921,,pt2_memorable_rating,1452408,Okoboji,,53,,,5,,,,,,,,,,,,,,,
null,,confidence_buffer,1452510,confidence_buffer,,null,,,,,,,,,,,,,,,,,,
1798.800000011921,,recognition_phase,1454309,Okoboji,,49,,,,,,old,1,0.7692307692307693,,,,,,,,,,
null,,confidence_buffer,1454412,confidence_buffer,,null,,,,,,,,,,,,,,,,,,
null,,thebreak,1454913,break,,null,,,,,,,,,,,,,,,,,,
3445.2999999523163,,realistic_rating,1458359,Rosehollow,,50,Rosehollow,Fictional,2,,,,,,,,,,,,,,,
null,,confidence_buffer,1458462,confidence_buffer,,null,,,,,,,,,,,,,,,,,,
1672.8999999761581,,probe_rating,1460136,probe_rating,,53,,,,5,1,,,,,,,,,,,,,
null,,confidence_buffer,1460239,confidence_buffer,,null,,,,,,,,,,,,,,,,,,
2176.5,,pt2_unique_rating,1462416,Rosehollow,,50,,,2,,,,,,,,,,,,,,,
null,,confidence_buffer,1462518,confidence_buffer,,null,,,,,,,,,,,,,,,,,,
5364.600000023842,,pt2_memorable_rating,1467883,Rosehollow,,50,,,2,,,,,,,,,,,,,,,
null,,confidence_buffer,1467985,confidence_buffer,,null,,,,,,,,,,,,,,,,,,
2206.699999988079,,recognition_phase,1470193,Rosehollow,,49,,,,,,old,0,0.7547169811320755,,,,,,,,,,
null,,confidence_buffer,1470296,confidence_buffer,,null,,,,,,,,,,,,,,,,,,
null,,thebreak,1470797,break,,null,,,,,,,,,,,,,,,,,,
2939.5,,realistic_rating,1473738,Gloucester,,51,Gloucester,US,3,,,,,,,,,,,,,,,
null,,confidence_buffer,1473840,confidence_buffer,,null,,,,,,,,,,,,,,,,,,
1269.5,,pt2_unique_rating,1475111,Gloucester,,52,,,4,,,,,,,,,,,,,,,
null,,confidence_buffer,1475213,confidence_buffer,,null,,,,,,,,,,,,,,,,,,
2396.100000023842,,pt2_memorable_rating,1477611,Gloucester,,53,,,5,,,,,,,,,,,,,,,
null,,confidence_buffer,1477712,confidence_buffer,,null,,,,,,,,,,,,,,,,,,
1900.5,,recognition_phase,1479614,Gloucester,,49,,,,,,old,1,0.7592592592592593,,,,,,,,,,
null,,confidence_buffer,1479716,confidence_buffer,,null,,,,,,,,,,,,,,,,,,
null,,thebreak,1480218,break,,null,,,,,,,,,,,,,,,,,,
2918.300000011921,,realistic_rating,1483137,Leesburg,,50,Leesburg,US,2,,,,,,,,,,,,,,,
null,,confidence_buffer,1483240,confidence_buffer,,null,,,,,,,,,,,,,,,,,,
2083,,pt2_unique_rating,1485324,Leesburg,,50,,,2,,,,,,,,,,,,,,,
null,,confidence_buffer,1485425,confidence_buffer,,null,,,,,,,,,,,,,,,,,,
3359.7999999523163,,pt2_memorable_rating,1488786,Leesburg,,50,,,2,,,,,,,,,,,,,,,
null,,confidence_buffer,1488887,confidence_buffer,,null,,,,,,,,,,,,,,,,,,
1616.9000000357628,,recognition_phase,1490505,Leesburg,,49,,,,,,old,1,0.7636363636363637,,,,,,,,,,
null,,confidence_buffer,1490606,confidence_buffer,,null,,,,,,,,,,,,,,,,,,
null,,thebreak,1491108,break,,null,,,,,,,,,,,,,,,,,,
6364.700000047684,,realistic_rating,1497474,Medora,,50,Medora,US,2,,,,,,,,,,,,,,,
null,,confidence_buffer,1497576,confidence_buffer,,null,,,,,,,,,,,,,,,,,,
2558.7000000476837,,pt2_unique_rating,1500135,Medora,,49,,,1,,,,,,,,,,,,,,,
null,,confidence_buffer,1500238,confidence_buffer,,null,,,,,,,,,,,,,,,,,,
1187.699999988079,,pt2_memorable_rating,1501426,Medora,,49,,,1,,,,,,,,,,,,,,,
null,,confidence_buffer,1501528,confidence_buffer,,null,,,,,,,,,,,,,,,,,,
1716.6000000238419,,recognition_phase,1503247,Medora,,50,,,,,,old,0,0.75,,,,,,,,,,
null,,confidence_buffer,1503348,confidence_buffer,,null,,,,,,,,,,,,,,,,,,
null,,thebreak,1503849,break,,null,,,,,,,,,,,,,,,,,,
4663.5,,realistic_rating,1508514,Yukon,,51,Yukon,US,3,,,,,,,,,,,,,,,
null,,confidence_buffer,1508616,confidence_buffer,,null,,,,,,,,,,,,,,,,,,
1619.800000011921,,pt2_unique_rating,1510236,Yukon,,50,,,2,,,,,,,,,,,,,,,
null,,confidence_buffer,1510338,confidence_buffer,,null,,,,,,,,,,,,,,,,,,
1593.199999988079,,pt2_memorable_rating,1511933,Yukon,,51,,,3,,,,,,,,,,,,,,,
null,,confidence_buffer,1512035,confidence_buffer,,null,,,,,,,,,,,,,,,,,,
7556.199999988079,,recognition_phase,1519593,Yukon,,52,,,,,,new,1,0.7543859649122807,,,,,,,,,,
null,,confidence_buffer,1519694,confidence_buffer,,null,,,,,,,,,,,,,,,,,,
null,,thebreak,1520195,break,,null,,,,,,,,,,,,,,,,,,
3306.399999976158,,realistic_rating,1523503,Albuquerque,,53,Albuquerque,US,5,,,,,,,,,,,,,,,
null,,confidence_buffer,1523605,confidence_buffer,,null,,,,,,,,,,,,,,,,,,
1311.1000000238419,,pt2_unique_rating,1524917,Albuquerque,,53,,,5,,,,,,,,,,,,,,,
null,,confidence_buffer,1525019,confidence_buffer,,null,,,,,,,,,,,,,,,,,,
1577.800000011921,,probe_rating,1526598,probe_rating,,50,,,,2,1,,,,,,,,,,,,,
null,,confidence_buffer,1526700,confidence_buffer,,null,,,,,,,,,,,,,,,,,,
3770,,pt2_memorable_rating,1530472,Albuquerque,,53,,,5,,,,,,,,,,,,,,,
null,,confidence_buffer,1530574,confidence_buffer,,null,,,,,,,,,,,,,,,,,,
2146.399999976158,,recognition_phase,1532721,Albuquerque,,49,,,,,,old,1,0.7586206896551724,,,,,,,,,,
null,,confidence_buffer,1532823,confidence_buffer,,null,,,,,,,,,,,,,,,,,,
null,,thebreak,1533324,break,,null,,,,,,,,,,,,,,,,,,
4229.5,,realistic_rating,1537555,Cedarwyn,,50,Cedarwyn,Fictional,2,,,,,,,,,,,,,,,
null,,confidence_buffer,1537657,confidence_buffer,,null,,,,,,,,,,,,,,,,,,
2689.300000011921,,pt2_unique_rating,1540347,Cedarwyn,,49,,,1,,,,,,,,,,,,,,,
null,,confidence_buffer,1540449,confidence_buffer,,null,,,,,,,,,,,,,,,,,,
983.8000000119209,,pt2_memorable_rating,1541433,Cedarwyn,,49,,,1,,,,,,,,,,,,,,,
null,,confidence_buffer,1541535,confidence_buffer,,null,,,,,,,,,,,,,,,,,,
2126.7999999523163,,recognition_phase,1543663,Cedarwyn,,50,,,,,,old,0,0.7457627118644068,,,,,,,,,,
null,,confidence_buffer,1543764,confidence_buffer,,null,,,,,,,,,,,,,,,,,,
null,,thebreak,1544266,break,,null,,,,,,,,,,,,,,,,,,
4067.300000011921,,realistic_rating,1548335,Millstone,,51,Millstone,Fictional,3,,,,,,,,,,,,,,,
null,,confidence_buffer,1548437,confidence_buffer,,null,,,,,,,,,,,,,,,,,,
511.4000000357628,,pt2_unique_rating,1548949,Millstone,,50,,,2,,,,,,,,,,,,,,,
null,,confidence_buffer,1549051,confidence_buffer,,null,,,,,,,,,,,,,,,,,,
876.9000000357628,,pt2_memorable_rating,1549929,Millstone,,49,,,1,,,,,,,,,,,,,,,
null,,confidence_buffer,1550031,confidence_buffer,,null,,,,,,,,,,,,,,,,,,
3698.5,,recognition_phase,1553731,Millstone,,51,,,,,,new,1,0.75,,,,,,,,,,
null,,confidence_buffer,1553833,confidence_buffer,,null,,,,,,,,,,,,,,,,,,
null,,thebreak,1554335,break,,null,,,,,,,,,,,,,,,,,,
,,survey,1674230,survey-questions,,,,,,,,,,,none,high,Nothing else,just memory,seen before,funny or unique name,Odd or different,Not fake in appearance,No other ,Enjoyed the study!
