rt,responses,trial_type,time_elapsed,stimulus,button_pressed,key_press,name_trial,city_type,rating,probe,probe_accuracy,response,correct,accuracy,problems,smooth,distraction,strategies,familiar,memorable,unique,realistic,similar,comments
51110.20000001788,{worker_id:682527345a6b28c7c30cf17c},id_enter,51113,,,,,,,,,,,,,,,,,,,,,
87632.40000000596,,fullscreen,138753,fullscreen,0,,,,,,,,,,,,,,,,,,,
77606.40000000596,,intro_0,216362,instruct,,32,,,,,,,,,,,,,,,,,,
124004.59999999404,,intro_1,340368,instruct,,32,,,,,,,,,,,,,,,,,,
16447.79999998212,,intro_2,356817,instruct,,32,,,,,,,,,,,,,,,,,,
null,,instruct_dir_4,358329,instruct,,null,,,,,,,,,,,,,,,,,,
null,,thebreak,358835,break,,null,,,,,,,,,,,,,,,,,,
14531.90000000596,,familiar_rating,373369,Baymarsh,,51,Baymarsh,Fictional,3,,,,,,,,,,,,,,,
null,,confidence_buffer,373473,confidence_buffer,,null,,,,,,,,,,,,,,,,,,
8611,,unique_rating,382086,Baymarsh,,51,,,3,,,,,,,,,,,,,,,
null,,confidence_buffer,382192,confidence_buffer,,null,,,,,,,,,,,,,,,,,,
7329.5,,memorable_rating,389523,Baymarsh,,51,,,3,,,,,,,,,,,,,,,
null,,confidence_buffer,389630,confidence_buffer,,null,,,,,,,,,,,,,,,,,,
null,,thebreak,390137,break,,null,,,,,,,,,,,,,,,,,,
39936.69999998808,,familiar_rating,430075,Watkins Glen,,52,Watkins Glen,US,4,,,,,,,,,,,,,,,
null,,confidence_buffer,430192,confidence_buffer,,null,,,,,,,,,,,,,,,,,,
4936.300000011921,,unique_rating,435129,Watkins Glen,,52,,,4,,,,,,,,,,,,,,,
null,,confidence_buffer,435231,confidence_buffer,,null,,,,,,,,,,,,,,,,,,
8929.300000011921,,memorable_rating,444162,Watkins Glen,,51,,,3,,,,,,,,,,,,,,,
null,,confidence_buffer,444264,confidence_buffer,,null,,,,,,,,,,,,,,,,,,
null,,thebreak,444769,break,,null,,,,,,,,,,,,,,,,,,
36297.40000000596,,familiar_rating,481068,Silverpine,,49,Silverpine,Fictional,1,,,,,,,,,,,,,,,
null,,confidence_buffer,481175,confidence_buffer,,null,,,,,,,,,,,,,,,,,,
5389.699999988079,,unique_rating,486566,Silverpine,,52,,,4,,,,,,,,,,,,,,,
null,,confidence_buffer,486672,confidence_buffer,,null,,,,,,,,,,,,,,,,,,
5675.299999982119,,memorable_rating,492349,Silverpine,,49,,,1,,,,,,,,,,,,,,,
null,,confidence_buffer,492464,confidence_buffer,,null,,,,,,,,,,,,,,,,,,
null,,thebreak,492968,break,,null,,,,,,,,,,,,,,,,,,
26724.70000001788,,familiar_rating,519694,Elmsbury,,51,Elmsbury,Fictional,3,,,,,,,,,,,,,,,
null,,confidence_buffer,519801,confidence_buffer,,null,,,,,,,,,,,,,,,,,,
3723.600000023842,,unique_rating,523526,Elmsbury,,51,,,3,,,,,,,,,,,,,,,
null,,confidence_buffer,523627,confidence_buffer,,null,,,,,,,,,,,,,,,,,,
4994.699999988079,,memorable_rating,528622,Elmsbury,,51,,,3,,,,,,,,,,,,,,,
null,,confidence_buffer,528728,confidence_buffer,,null,,,,,,,,,,,,,,,,,,
null,,thebreak,529237,break,,null,,,,,,,,,,,,,,,,,,
22878.09999999404,,familiar_rating,552116,Hot Springs,,52,Hot Springs,US,4,,,,,,,,,,,,,,,
null,,confidence_buffer,552224,confidence_buffer,,null,,,,,,,,,,,,,,,,,,
3527.699999988079,,unique_rating,555753,Hot Springs,,52,,,4,,,,,,,,,,,,,,,
null,,confidence_buffer,555857,confidence_buffer,,null,,,,,,,,,,,,,,,,,,
2592.4000000059605,,memorable_rating,558451,Hot Springs,,52,,,4,,,,,,,,,,,,,,,
null,,confidence_buffer,558554,confidence_buffer,,null,,,,,,,,,,,,,,,,,,
null,,thebreak,559058,break,,null,,,,,,,,,,,,,,,,,,
13974.5,,familiar_rating,573033,Hanover,,53,Hanover,US,5,,,,,,,,,,,,,,,
null,,confidence_buffer,573141,confidence_buffer,,null,,,,,,,,,,,,,,,,,,
3231.300000011921,,unique_rating,576373,Hanover,,52,,,4,,,,,,,,,,,,,,,
null,,confidence_buffer,576480,confidence_buffer,,null,,,,,,,,,,,,,,,,,,
1980.199999988079,,memorable_rating,578462,Hanover,,53,,,5,,,,,,,,,,,,,,,
null,,confidence_buffer,578569,confidence_buffer,,null,,,,,,,,,,,,,,,,,,
null,,thebreak,579077,break,,null,,,,,,,,,,,,,,,,,,
11802.90000000596,,familiar_rating,590881,Hilo,,52,Hilo,US,4,,,,,,,,,,,,,,,
null,,confidence_buffer,590987,confidence_buffer,,null,,,,,,,,,,,,,,,,,,
3007.2999999821186,,unique_rating,593996,Hilo,,52,,,4,,,,,,,,,,,,,,,
null,,confidence_buffer,594104,confidence_buffer,,null,,,,,,,,,,,,,,,,,,
2251.899999976158,,memorable_rating,596357,Hilo,,53,,,5,,,,,,,,,,,,,,,
null,,confidence_buffer,596467,confidence_buffer,,null,,,,,,,,,,,,,,,,,,
null,,thebreak,596974,break,,null,,,,,,,,,,,,,,,,,,
22430.09999999404,,familiar_rating,619405,Sierra Hollow,,52,Sierra Hollow,Fictional,4,,,,,,,,,,,,,,,
null,,confidence_buffer,619514,confidence_buffer,,null,,,,,,,,,,,,,,,,,,
3187,,unique_rating,622702,Sierra Hollow,,51,,,3,,,,,,,,,,,,,,,
null,,confidence_buffer,622803,confidence_buffer,,null,,,,,,,,,,,,,,,,,,
3930.0999999940395,,probe_rating,626734,probe_rating,,50,,,,2,1,,,,,,,,,,,,,
null,,confidence_buffer,626845,confidence_buffer,,null,,,,,,,,,,,,,,,,,,
7006.0999999940395,,memorable_rating,633852,Sierra Hollow,,52,,,4,,,,,,,,,,,,,,,
null,,confidence_buffer,633959,confidence_buffer,,null,,,,,,,,,,,,,,,,,,
null,,thebreak,634468,break,,null,,,,,,,,,,,,,,,,,,
15919.09999999404,,familiar_rating,650388,Bar Harbor,,51,Bar Harbor,US,3,,,,,,,,,,,,,,,
null,,confidence_buffer,650490,confidence_buffer,,null,,,,,,,,,,,,,,,,,,
2800.2999999821186,,unique_rating,653292,Bar Harbor,,52,,,4,,,,,,,,,,,,,,,
null,,confidence_buffer,653395,confidence_buffer,,null,,,,,,,,,,,,,,,,,,
2735,,memorable_rating,656131,Bar Harbor,,51,,,3,,,,,,,,,,,,,,,
null,,confidence_buffer,656244,confidence_buffer,,null,,,,,,,,,,,,,,,,,,
null,,thebreak,656749,break,,null,,,,,,,,,,,,,,,,,,
18338.40000000596,,familiar_rating,675088,West Talora,,49,West Talora,Fictional,1,,,,,,,,,,,,,,,
null,,confidence_buffer,675190,confidence_buffer,,null,,,,,,,,,,,,,,,,,,
3117.0999999940395,,unique_rating,678309,West Talora,,50,,,2,,,,,,,,,,,,,,,
null,,confidence_buffer,678413,confidence_buffer,,null,,,,,,,,,,,,,,,,,,
1874.5999999940395,,memorable_rating,680289,West Talora,,49,,,1,,,,,,,,,,,,,,,
null,,confidence_buffer,680393,confidence_buffer,,null,,,,,,,,,,,,,,,,,,
null,,thebreak,680896,break,,null,,,,,,,,,,,,,,,,,,
23351.30000001192,,familiar_rating,704248,Cornwall,,52,Cornwall,US,4,,,,,,,,,,,,,,,
null,,confidence_buffer,704353,confidence_buffer,,null,,,,,,,,,,,,,,,,,,
2981.699999988079,,unique_rating,707336,Cornwall,,52,,,4,,,,,,,,,,,,,,,
null,,confidence_buffer,707439,confidence_buffer,,null,,,,,,,,,,,,,,,,,,
1967.6000000238419,,memorable_rating,709408,Cornwall,,52,,,4,,,,,,,,,,,,,,,
null,,confidence_buffer,709517,confidence_buffer,,null,,,,,,,,,,,,,,,,,,
3480,,probe_rating,712998,probe_rating,,50,,,,2,1,,,,,,,,,,,,,
null,,confidence_buffer,713099,confidence_buffer,,null,,,,,,,,,,,,,,,,,,
null,,thebreak,713605,break,,null,,,,,,,,,,,,,,,,,,
55771.30000001192,,familiar_rating,769377,Granton Ridge,,49,Granton Ridge,Fictional,1,,,,,,,,,,,,,,,
null,,confidence_buffer,769480,confidence_buffer,,null,,,,,,,,,,,,,,,,,,
3788.600000023842,,unique_rating,773270,Granton Ridge,,50,,,2,,,,,,,,,,,,,,,
null,,confidence_buffer,773374,confidence_buffer,,null,,,,,,,,,,,,,,,,,,
2000.300000011921,,memorable_rating,775375,Granton Ridge,,49,,,1,,,,,,,,,,,,,,,
null,,confidence_buffer,775480,confidence_buffer,,null,,,,,,,,,,,,,,,,,,
null,,thebreak,775985,break,,null,,,,,,,,,,,,,,,,,,
25766.5,,familiar_rating,801753,North Arroya,,51,North Arroya,Fictional,3,,,,,,,,,,,,,,,
null,,confidence_buffer,801856,confidence_buffer,,null,,,,,,,,,,,,,,,,,,
3204.5,,unique_rating,805062,North Arroya,,52,,,4,,,,,,,,,,,,,,,
null,,confidence_buffer,805170,confidence_buffer,,null,,,,,,,,,,,,,,,,,,
2078.699999988079,,memorable_rating,807250,North Arroya,,51,,,3,,,,,,,,,,,,,,,
null,,confidence_buffer,807358,confidence_buffer,,null,,,,,,,,,,,,,,,,,,
null,,thebreak,807867,break,,null,,,,,,,,,,,,,,,,,,
13374.09999999404,,familiar_rating,821243,Abilene,,53,Abilene,US,5,,,,,,,,,,,,,,,
null,,confidence_buffer,821346,confidence_buffer,,null,,,,,,,,,,,,,,,,,,
2311.9000000059605,,unique_rating,823659,Abilene,,53,,,5,,,,,,,,,,,,,,,
null,,confidence_buffer,823761,confidence_buffer,,null,,,,,,,,,,,,,,,,,,
2193.5,,memorable_rating,825955,Abilene,,53,,,5,,,,,,,,,,,,,,,
null,,confidence_buffer,826061,confidence_buffer,,null,,,,,,,,,,,,,,,,,,
null,,thebreak,826564,break,,null,,,,,,,,,,,,,,,,,,
18697.40000000596,,familiar_rating,845262,Linden Trace,,52,Linden Trace,Fictional,4,,,,,,,,,,,,,,,
null,,confidence_buffer,845367,confidence_buffer,,null,,,,,,,,,,,,,,,,,,
2748.2999999821186,,unique_rating,848116,Linden Trace,,51,,,3,,,,,,,,,,,,,,,
null,,confidence_buffer,848220,confidence_buffer,,null,,,,,,,,,,,,,,,,,,
1942.4000000059605,,memorable_rating,850163,Linden Trace,,52,,,4,,,,,,,,,,,,,,,
null,,confidence_buffer,850269,confidence_buffer,,null,,,,,,,,,,,,,,,,,,
null,,thebreak,850771,break,,null,,,,,,,,,,,,,,,,,,
26209.59999999404,,familiar_rating,876982,Falconridge,,49,Falconridge,Fictional,1,,,,,,,,,,,,,,,
null,,confidence_buffer,877084,confidence_buffer,,null,,,,,,,,,,,,,,,,,,
4460.300000011921,,unique_rating,881546,Falconridge,,49,,,1,,,,,,,,,,,,,,,
null,,confidence_buffer,881650,confidence_buffer,,null,,,,,,,,,,,,,,,,,,
1464.6000000238419,,memorable_rating,883115,Falconridge,,49,,,1,,,,,,,,,,,,,,,
null,,confidence_buffer,883221,confidence_buffer,,null,,,,,,,,,,,,,,,,,,
null,,thebreak,883728,break,,null,,,,,,,,,,,,,,,,,,
16666.20000001788,,familiar_rating,900396,Gloucester,,49,Gloucester,US,1,,,,,,,,,,,,,,,
null,,confidence_buffer,900501,confidence_buffer,,null,,,,,,,,,,,,,,,,,,
1349.0999999940395,,unique_rating,901851,Gloucester,,49,,,1,,,,,,,,,,,,,,,
null,,confidence_buffer,901954,confidence_buffer,,null,,,,,,,,,,,,,,,,,,
728.1999999880791,,memorable_rating,902684,Gloucester,,49,,,1,,,,,,,,,,,,,,,
null,,confidence_buffer,902793,confidence_buffer,,null,,,,,,,,,,,,,,,,,,
null,,thebreak,903303,break,,null,,,,,,,,,,,,,,,,,,
24039.90000000596,,familiar_rating,927344,Carmel,,52,Carmel,US,4,,,,,,,,,,,,,,,
null,,confidence_buffer,927451,confidence_buffer,,null,,,,,,,,,,,,,,,,,,
1858.9000000059605,,unique_rating,929311,Carmel,,52,,,4,,,,,,,,,,,,,,,
null,,confidence_buffer,929420,confidence_buffer,,null,,,,,,,,,,,,,,,,,,
1969.7999999821186,,memorable_rating,931390,Carmel,,52,,,4,,,,,,,,,,,,,,,
null,,confidence_buffer,931496,confidence_buffer,,null,,,,,,,,,,,,,,,,,,
null,,thebreak,932010,break,,null,,,,,,,,,,,,,,,,,,
16869.90000000596,,familiar_rating,948880,Delaro Park,,49,Delaro Park,Fictional,1,,,,,,,,,,,,,,,
null,,confidence_buffer,948985,confidence_buffer,,null,,,,,,,,,,,,,,,,,,
1204.199999988079,,unique_rating,950190,Delaro Park,,50,,,2,,,,,,,,,,,,,,,
null,,confidence_buffer,950300,confidence_buffer,,null,,,,,,,,,,,,,,,,,,
1253.0999999940395,,memorable_rating,951554,Delaro Park,,49,,,1,,,,,,,,,,,,,,,
null,,confidence_buffer,951660,confidence_buffer,,null,,,,,,,,,,,,,,,,,,
null,,thebreak,952171,break,,null,,,,,,,,,,,,,,,,,,
22332.09999999404,,familiar_rating,974504,Riverlyn,,49,Riverlyn,Fictional,1,,,,,,,,,,,,,,,
null,,confidence_buffer,974612,confidence_buffer,,null,,,,,,,,,,,,,,,,,,
4461.4000000059605,,unique_rating,979074,Riverlyn,,50,,,2,,,,,,,,,,,,,,,
null,,confidence_buffer,979178,confidence_buffer,,null,,,,,,,,,,,,,,,,,,
1862,,memorable_rating,981041,Riverlyn,,49,,,1,,,,,,,,,,,,,,,
null,,confidence_buffer,981154,confidence_buffer,,null,,,,,,,,,,,,,,,,,,
null,,thebreak,981659,break,,null,,,,,,,,,,,,,,,,,,
29437.90000000596,,familiar_rating,1011098,Berkeley Springs,,50,Berkeley Springs,US,2,,,,,,,,,,,,,,,
null,,confidence_buffer,1011200,confidence_buffer,,null,,,,,,,,,,,,,,,,,,
3231.7999999821186,,unique_rating,1014434,Berkeley Springs,,51,,,3,,,,,,,,,,,,,,,
null,,confidence_buffer,1014536,confidence_buffer,,null,,,,,,,,,,,,,,,,,,
10022.699999988079,,memorable_rating,1024560,Berkeley Springs,,50,,,2,,,,,,,,,,,,,,,
null,,confidence_buffer,1024669,confidence_buffer,,null,,,,,,,,,,,,,,,,,,
null,,thebreak,1025174,break,,null,,,,,,,,,,,,,,,,,,
36727.59999999404,,familiar_rating,1061903,Sisters,,50,Sisters,US,2,,,,,,,,,,,,,,,
null,,confidence_buffer,1062007,confidence_buffer,,null,,,,,,,,,,,,,,,,,,
1879.199999988079,,unique_rating,1063888,Sisters,,49,,,1,,,,,,,,,,,,,,,
null,,confidence_buffer,1064002,confidence_buffer,,null,,,,,,,,,,,,,,,,,,
3698.0999999940395,,memorable_rating,1067701,Sisters,,50,,,2,,,,,,,,,,,,,,,
null,,confidence_buffer,1067804,confidence_buffer,,null,,,,,,,,,,,,,,,,,,
null,,thebreak,1068310,break,,null,,,,,,,,,,,,,,,,,,
26539.5,,familiar_rating,1094850,Summershade,,49,Summershade,Fictional,1,,,,,,,,,,,,,,,
null,,confidence_buffer,1094953,confidence_buffer,,null,,,,,,,,,,,,,,,,,,
1190.5999999940395,,unique_rating,1096145,Summershade,,49,,,1,,,,,,,,,,,,,,,
null,,confidence_buffer,1096251,confidence_buffer,,null,,,,,,,,,,,,,,,,,,
960.5999999940395,,memorable_rating,1097214,Summershade,,49,,,1,,,,,,,,,,,,,,,
null,,confidence_buffer,1097319,confidence_buffer,,null,,,,,,,,,,,,,,,,,,
null,,thebreak,1097824,break,,null,,,,,,,,,,,,,,,,,,
14274.09999999404,,familiar_rating,1112099,Athens,,53,Athens,US,5,,,,,,,,,,,,,,,
null,,confidence_buffer,1112207,confidence_buffer,,null,,,,,,,,,,,,,,,,,,
10317.200000017881,,probe_rating,1122525,probe_rating,,49,,,,1,1,,,,,,,,,,,,,
null,,confidence_buffer,1122630,confidence_buffer,,null,,,,,,,,,,,,,,,,,,
6272.899999976158,,unique_rating,1128904,Athens,,52,,,4,,,,,,,,,,,,,,,
null,,confidence_buffer,1129006,confidence_buffer,,null,,,,,,,,,,,,,,,,,,
1882.699999988079,,memorable_rating,1130890,Athens,,53,,,5,,,,,,,,,,,,,,,
null,,confidence_buffer,1130996,confidence_buffer,,null,,,,,,,,,,,,,,,,,,
null,,thebreak,1131506,break,,null,,,,,,,,,,,,,,,,,,
18400.40000000596,,familiar_rating,1149908,Lake of the Ozarks,,49,Lake of the Ozarks,US,1,,,,,,,,,,,,,,,
null,,confidence_buffer,1150018,confidence_buffer,,null,,,,,,,,,,,,,,,,,,
15197.5,,probe_rating,1165217,probe_rating,,53,,,,5,1,,,,,,,,,,,,,
null,,confidence_buffer,1165320,confidence_buffer,,null,,,,,,,,,,,,,,,,,,
6318,,unique_rating,1171640,Lake of the Ozarks,,49,,,1,,,,,,,,,,,,,,,
null,,confidence_buffer,1171745,confidence_buffer,,null,,,,,,,,,,,,,,,,,,
12923.5,,memorable_rating,1184669,Lake of the Ozarks,,49,,,1,,,,,,,,,,,,,,,
null,,confidence_buffer,1184773,confidence_buffer,,null,,,,,,,,,,,,,,,,,,
null,,thebreak,1185277,break,,null,,,,,,,,,,,,,,,,,,
23626.19999998808,,familiar_rating,1208904,Coralridge,,50,Coralridge,Fictional,2,,,,,,,,,,,,,,,
null,,confidence_buffer,1209011,confidence_buffer,,null,,,,,,,,,,,,,,,,,,
3373,,unique_rating,1212385,Coralridge,,50,,,2,,,,,,,,,,,,,,,
null,,confidence_buffer,1212493,confidence_buffer,,null,,,,,,,,,,,,,,,,,,
3481,,memorable_rating,1215975,Coralridge,,50,,,2,,,,,,,,,,,,,,,
null,,confidence_buffer,1216081,confidence_buffer,,null,,,,,,,,,,,,,,,,,,
null,,thebreak,1216588,break,,null,,,,,,,,,,,,,,,,,,
30791.19999998808,,familiar_rating,1247380,Crestwood,,52,Crestwood,Fictional,4,,,,,,,,,,,,,,,
null,,confidence_buffer,1247484,confidence_buffer,,null,,,,,,,,,,,,,,,,,,
4408.299999982119,,unique_rating,1251894,Crestwood,,51,,,3,,,,,,,,,,,,,,,
null,,confidence_buffer,1252000,confidence_buffer,,null,,,,,,,,,,,,,,,,,,
2054.300000011921,,memorable_rating,1254056,Crestwood,,52,,,4,,,,,,,,,,,,,,,
null,,confidence_buffer,1254159,confidence_buffer,,null,,,,,,,,,,,,,,,,,,
null,,thebreak,1254667,break,,null,,,,,,,,,,,,,,,,,,
45054.40000000596,,familiar_rating,1299723,Ravenport,,50,Ravenport,Fictional,2,,,,,,,,,,,,,,,
null,,confidence_buffer,1299836,confidence_buffer,,null,,,,,,,,,,,,,,,,,,
2429.199999988079,,unique_rating,1302266,Ravenport,,51,,,3,,,,,,,,,,,,,,,
null,,confidence_buffer,1302367,confidence_buffer,,null,,,,,,,,,,,,,,,,,,
1633,,memorable_rating,1304001,Ravenport,,50,,,2,,,,,,,,,,,,,,,
null,,confidence_buffer,1304112,confidence_buffer,,null,,,,,,,,,,,,,,,,,,
null,,thebreak,1304622,break,,null,,,,,,,,,,,,,,,,,,
49834.90000000596,,familiar_rating,1354458,Cody,,52,Cody,US,4,,,,,,,,,,,,,,,
null,,confidence_buffer,1354569,confidence_buffer,,null,,,,,,,,,,,,,,,,,,
1225.7999999821186,,unique_rating,1355796,Cody,,52,,,4,,,,,,,,,,,,,,,
null,,confidence_buffer,1355902,confidence_buffer,,null,,,,,,,,,,,,,,,,,,
1208,,memorable_rating,1357111,Cody,,52,,,4,,,,,,,,,,,,,,,
null,,confidence_buffer,1357220,confidence_buffer,,null,,,,,,,,,,,,,,,,,,
null,,thebreak,1357730,break,,null,,,,,,,,,,,,,,,,,,
20916.100000023842,,familiar_rating,1378647,Alliance,,49,Alliance,US,1,,,,,,,,,,,,,,,
null,,confidence_buffer,1378764,confidence_buffer,,null,,,,,,,,,,,,,,,,,,
2479.899999976158,,unique_rating,1381244,Alliance,,50,,,2,,,,,,,,,,,,,,,
null,,confidence_buffer,1381352,confidence_buffer,,null,,,,,,,,,,,,,,,,,,
1202.7000000178814,,memorable_rating,1382555,Alliance,,49,,,1,,,,,,,,,,,,,,,
null,,confidence_buffer,1382662,confidence_buffer,,null,,,,,,,,,,,,,,,,,,
null,,thebreak,1383167,break,,null,,,,,,,,,,,,,,,,,,
74069.19999998808,,intro_0,1457237,instruct,,32,,,,,,,,,,,,,,,,,,
16655.30000001192,,intro_1,1473893,instruct,,32,,,,,,,,,,,,,,,,,,
26394.09999999404,,intro_2,1500288,instruct,,32,,,,,,,,,,,,,,,,,,
null,,instruct_dir_4,1501793,instruct,,null,,,,,,,,,,,,,,,,,,
13443.59999999404,,realistic_rating,1515238,Alliance,,49,Alliance,US,1,,,,,,,,,,,,,,,
null,,confidence_buffer,1515344,confidence_buffer,,null,,,,,,,,,,,,,,,,,,
4052.5,,pt2_unique_rating,1519398,Alliance,,50,,,2,,,,,,,,,,,,,,,
null,,confidence_buffer,1519500,confidence_buffer,,null,,,,,,,,,,,,,,,,,,
5761.9000000059605,,pt2_memorable_rating,1525263,Alliance,,49,,,1,,,,,,,,,,,,,,,
null,,confidence_buffer,1525371,confidence_buffer,,null,,,,,,,,,,,,,,,,,,
3577.7000000178814,,recognition_phase,1528950,Alliance,,49,,,,,,old,1,1,,,,,,,,,,
null,,confidence_buffer,1529054,confidence_buffer,,null,,,,,,,,,,,,,,,,,,
null,,thebreak,1529561,break,,null,,,,,,,,,,,,,,,,,,
43729.89999997616,,realistic_rating,1573293,Brookmere,,50,Brookmere,Fictional,2,,,,,,,,,,,,,,,
null,,confidence_buffer,1573406,confidence_buffer,,null,,,,,,,,,,,,,,,,,,
3221.899999976158,,pt2_unique_rating,1576629,Brookmere,,51,,,3,,,,,,,,,,,,,,,
null,,confidence_buffer,1576736,confidence_buffer,,null,,,,,,,,,,,,,,,,,,
1607,,pt2_memorable_rating,1578344,Brookmere,,50,,,2,,,,,,,,,,,,,,,
null,,confidence_buffer,1578450,confidence_buffer,,null,,,,,,,,,,,,,,,,,,
6985.5,,recognition_phase,1585437,Brookmere,,52,,,,,,new,1,1,,,,,,,,,,
null,,confidence_buffer,1585542,confidence_buffer,,null,,,,,,,,,,,,,,,,,,
null,,thebreak,1586048,break,,null,,,,,,,,,,,,,,,,,,
4304.5999999940395,,realistic_rating,1590353,Duck,,49,Duck,US,1,,,,,,,,,,,,,,,
null,,confidence_buffer,1590459,confidence_buffer,,null,,,,,,,,,,,,,,,,,,
1973.300000011921,,pt2_unique_rating,1592434,Duck,,49,,,1,,,,,,,,,,,,,,,
null,,confidence_buffer,1592544,confidence_buffer,,null,,,,,,,,,,,,,,,,,,
9997.100000023842,,probe_rating,1602543,probe_rating,,53,,,,5,1,,,,,,,,,,,,,
null,,confidence_buffer,1602652,confidence_buffer,,null,,,,,,,,,,,,,,,,,,
3141.7999999821186,,pt2_memorable_rating,1605795,Duck,,49,,,1,,,,,,,,,,,,,,,
null,,confidence_buffer,1605901,confidence_buffer,,null,,,,,,,,,,,,,,,,,,
2971.899999976158,,recognition_phase,1608874,Duck,,52,,,,,,new,1,1,,,,,,,,,,
null,,confidence_buffer,1608981,confidence_buffer,,null,,,,,,,,,,,,,,,,,,
null,,thebreak,1609488,break,,null,,,,,,,,,,,,,,,,,,
18810.09999999404,,realistic_rating,1628299,Delaro Park,,49,Delaro Park,Fictional,1,,,,,,,,,,,,,,,
null,,confidence_buffer,1628414,confidence_buffer,,null,,,,,,,,,,,,,,,,,,
1536.4000000059605,,pt2_unique_rating,1629952,Delaro Park,,49,,,1,,,,,,,,,,,,,,,
null,,confidence_buffer,1630060,confidence_buffer,,null,,,,,,,,,,,,,,,,,,
2183.4000000059605,,pt2_memorable_rating,1632244,Delaro Park,,49,,,1,,,,,,,,,,,,,,,
null,,confidence_buffer,1632355,confidence_buffer,,null,,,,,,,,,,,,,,,,,,
2072.5,,recognition_phase,1634429,Delaro Park,,49,,,,,,old,1,1,,,,,,,,,,
null,,confidence_buffer,1634536,confidence_buffer,,null,,,,,,,,,,,,,,,,,,
null,,thebreak,1635046,break,,null,,,,,,,,,,,,,,,,,,
4188.799999982119,,realistic_rating,1639236,Sitka,,49,Sitka,US,1,,,,,,,,,,,,,,,
null,,confidence_buffer,1639343,confidence_buffer,,null,,,,,,,,,,,,,,,,,,
1361,,pt2_unique_rating,1640705,Sitka,,49,,,1,,,,,,,,,,,,,,,
null,,confidence_buffer,1640811,confidence_buffer,,null,,,,,,,,,,,,,,,,,,
1375.2000000178814,,pt2_memorable_rating,1642188,Sitka,,49,,,1,,,,,,,,,,,,,,,
null,,confidence_buffer,1642291,confidence_buffer,,null,,,,,,,,,,,,,,,,,,
3166,,recognition_phase,1645458,Sitka,,52,,,,,,new,1,1,,,,,,,,,,
null,,confidence_buffer,1645567,confidence_buffer,,null,,,,,,,,,,,,,,,,,,
null,,thebreak,1646070,break,,null,,,,,,,,,,,,,,,,,,
57468,,realistic_rating,1703540,Livingston,,53,Livingston,US,5,,,,,,,,,,,,,,,
null,,confidence_buffer,1703652,confidence_buffer,,null,,,,,,,,,,,,,,,,,,
5972.5,,pt2_unique_rating,1709626,Livingston,,52,,,4,,,,,,,,,,,,,,,
null,,confidence_buffer,1709731,confidence_buffer,,null,,,,,,,,,,,,,,,,,,
1609.0999999940395,,pt2_memorable_rating,1711341,Livingston,,53,,,5,,,,,,,,,,,,,,,
null,,confidence_buffer,1711443,confidence_buffer,,null,,,,,,,,,,,,,,,,,,
3138.699999988079,,recognition_phase,1714583,Livingston,,52,,,,,,new,1,1,,,,,,,,,,
null,,confidence_buffer,1714701,confidence_buffer,,null,,,,,,,,,,,,,,,,,,
null,,thebreak,1715211,break,,null,,,,,,,,,,,,,,,,,,
14625.09999999404,,realistic_rating,1729838,Custer,,52,Custer,US,4,,,,,,,,,,,,,,,
null,,confidence_buffer,1729944,confidence_buffer,,null,,,,,,,,,,,,,,,,,,
3115.4000000059605,,pt2_unique_rating,1733060,Custer,,51,,,3,,,,,,,,,,,,,,,
null,,confidence_buffer,1733164,confidence_buffer,,null,,,,,,,,,,,,,,,,,,
3434.7000000178814,,pt2_memorable_rating,1736600,Custer,,52,,,4,,,,,,,,,,,,,,,
null,,confidence_buffer,1736705,confidence_buffer,,null,,,,,,,,,,,,,,,,,,
3298.9000000059605,,recognition_phase,1740005,Custer,,52,,,,,,new,1,1,,,,,,,,,,
null,,confidence_buffer,1740109,confidence_buffer,,null,,,,,,,,,,,,,,,,,,
null,,thebreak,1740620,break,,null,,,,,,,,,,,,,,,,,,
30111.29999998212,,realistic_rating,1770733,Linden Trace,,53,Linden Trace,Fictional,5,,,,,,,,,,,,,,,
null,,confidence_buffer,1770841,confidence_buffer,,null,,,,,,,,,,,,,,,,,,
2417,,pt2_unique_rating,1773259,Linden Trace,,52,,,4,,,,,,,,,,,,,,,
null,,confidence_buffer,1773365,confidence_buffer,,null,,,,,,,,,,,,,,,,,,
1817,,pt2_memorable_rating,1775184,Linden Trace,,53,,,5,,,,,,,,,,,,,,,
null,,confidence_buffer,1775290,confidence_buffer,,null,,,,,,,,,,,,,,,,,,
2972.2000000178814,,recognition_phase,1778264,Linden Trace,,49,,,,,,old,1,1,,,,,,,,,,
null,,confidence_buffer,1778370,confidence_buffer,,null,,,,,,,,,,,,,,,,,,
null,,thebreak,1778872,break,,null,,,,,,,,,,,,,,,,,,
29451.600000023842,,realistic_rating,1808325,Watkins Glen,,50,Watkins Glen,US,2,,,,,,,,,,,,,,,
null,,confidence_buffer,1808427,confidence_buffer,,null,,,,,,,,,,,,,,,,,,
2792.199999988079,,pt2_unique_rating,1811221,Watkins Glen,,51,,,3,,,,,,,,,,,,,,,
null,,confidence_buffer,1811332,confidence_buffer,,null,,,,,,,,,,,,,,,,,,
1315,,pt2_memorable_rating,1812648,Watkins Glen,,50,,,2,,,,,,,,,,,,,,,
null,,confidence_buffer,1812752,confidence_buffer,,null,,,,,,,,,,,,,,,,,,
2228.2999999821186,,recognition_phase,1814981,Watkins Glen,,49,,,,,,old,1,1,,,,,,,,,,
null,,confidence_buffer,1815086,confidence_buffer,,null,,,,,,,,,,,,,,,,,,
null,,thebreak,1815589,break,,null,,,,,,,,,,,,,,,,,,
24725.09999999404,,realistic_rating,1840315,Gloucester,,49,Gloucester,US,1,,,,,,,,,,,,,,,
null,,confidence_buffer,1840417,confidence_buffer,,null,,,,,,,,,,,,,,,,,,
17403.79999998212,,pt2_unique_rating,1857822,Gloucester,,49,,,1,,,,,,,,,,,,,,,
null,,confidence_buffer,1857926,confidence_buffer,,null,,,,,,,,,,,,,,,,,,
1155.6000000238419,,pt2_memorable_rating,1859082,Gloucester,,49,,,1,,,,,,,,,,,,,,,
null,,confidence_buffer,1859192,confidence_buffer,,null,,,,,,,,,,,,,,,,,,
2346.5,,probe_rating,1861540,probe_rating,,51,,,,3,1,,,,,,,,,,,,,
null,,confidence_buffer,1861644,confidence_buffer,,null,,,,,,,,,,,,,,,,,,
5571.299999982119,,recognition_phase,1867217,Gloucester,,49,,,,,,old,1,1,,,,,,,,,,
null,,confidence_buffer,1867324,confidence_buffer,,null,,,,,,,,,,,,,,,,,,
null,,thebreak,1867834,break,,null,,,,,,,,,,,,,,,,,,
27126.19999998808,,realistic_rating,1894961,Clearbrook,,49,Clearbrook,Fictional,1,,,,,,,,,,,,,,,
null,,confidence_buffer,1895068,confidence_buffer,,null,,,,,,,,,,,,,,,,,,
3830.0999999940395,,pt2_unique_rating,1898899,Clearbrook,,50,,,2,,,,,,,,,,,,,,,
null,,confidence_buffer,1899011,confidence_buffer,,null,,,,,,,,,,,,,,,,,,
1631.300000011921,,pt2_memorable_rating,1900643,Clearbrook,,49,,,1,,,,,,,,,,,,,,,
null,,confidence_buffer,1900753,confidence_buffer,,null,,,,,,,,,,,,,,,,,,
2928.800000011921,,recognition_phase,1903682,Clearbrook,,52,,,,,,new,1,1,,,,,,,,,,
null,,confidence_buffer,1903791,confidence_buffer,,null,,,,,,,,,,,,,,,,,,
null,,thebreak,1904293,break,,null,,,,,,,,,,,,,,,,,,
5873.4000000059605,,realistic_rating,1910168,Montelake,,50,Montelake,Fictional,2,,,,,,,,,,,,,,,
null,,confidence_buffer,1910277,confidence_buffer,,null,,,,,,,,,,,,,,,,,,
4418.199999988079,,pt2_unique_rating,1914696,Montelake,,51,,,3,,,,,,,,,,,,,,,
null,,confidence_buffer,1914799,confidence_buffer,,null,,,,,,,,,,,,,,,,,,
2140,,pt2_memorable_rating,1916940,Montelake,,50,,,2,,,,,,,,,,,,,,,
null,,confidence_buffer,1917042,confidence_buffer,,null,,,,,,,,,,,,,,,,,,
2371.5999999940395,,recognition_phase,1919415,Montelake,,52,,,,,,new,1,1,,,,,,,,,,
null,,confidence_buffer,1919518,confidence_buffer,,null,,,,,,,,,,,,,,,,,,
null,,thebreak,1920020,break,,null,,,,,,,,,,,,,,,,,,
25858.90000000596,,realistic_rating,1945879,Ironwood Heights,,49,Ironwood Heights,Fictional,1,,,,,,,,,,,,,,,
null,,confidence_buffer,1945980,confidence_buffer,,null,,,,,,,,,,,,,,,,,,
985.9000000059605,,pt2_unique_rating,1946967,Ironwood Heights,,50,,,2,,,,,,,,,,,,,,,
null,,confidence_buffer,1947074,confidence_buffer,,null,,,,,,,,,,,,,,,,,,
953.5,,pt2_memorable_rating,1948028,Ironwood Heights,,49,,,1,,,,,,,,,,,,,,,
null,,confidence_buffer,1948144,confidence_buffer,,null,,,,,,,,,,,,,,,,,,
2710.5,,recognition_phase,1950856,Ironwood Heights,,52,,,,,,new,1,1,,,,,,,,,,
null,,confidence_buffer,1950961,confidence_buffer,,null,,,,,,,,,,,,,,,,,,
null,,thebreak,1951467,break,,null,,,,,,,,,,,,,,,,,,
12261.199999988079,,realistic_rating,1963730,Bar Harbor,,50,Bar Harbor,US,2,,,,,,,,,,,,,,,
null,,confidence_buffer,1963835,confidence_buffer,,null,,,,,,,,,,,,,,,,,,
2958.5,,pt2_unique_rating,1966795,Bar Harbor,,49,,,1,,,,,,,,,,,,,,,
null,,confidence_buffer,1966899,confidence_buffer,,null,,,,,,,,,,,,,,,,,,
1920.9000000059605,,pt2_memorable_rating,1968821,Bar Harbor,,50,,,2,,,,,,,,,,,,,,,
null,,confidence_buffer,1968924,confidence_buffer,,null,,,,,,,,,,,,,,,,,,
3260.0999999940395,,probe_rating,1972186,probe_rating,,50,,,,2,1,,,,,,,,,,,,,
null,,confidence_buffer,1972293,confidence_buffer,,null,,,,,,,,,,,,,,,,,,
3188.7999999821186,,recognition_phase,1975484,Bar Harbor,,52,,,,,,new,0,0.9285714285714286,,,,,,,,,,
null,,confidence_buffer,1975591,confidence_buffer,,null,,,,,,,,,,,,,,,,,,
null,,thebreak,1976098,break,,null,,,,,,,,,,,,,,,,,,
26870.70000001788,,realistic_rating,2002970,Stonebrook,,51,Stonebrook,Fictional,3,,,,,,,,,,,,,,,
null,,confidence_buffer,2003085,confidence_buffer,,null,,,,,,,,,,,,,,,,,,
3465.2999999821186,,pt2_unique_rating,2006551,Stonebrook,,51,,,3,,,,,,,,,,,,,,,
null,,confidence_buffer,2006661,confidence_buffer,,null,,,,,,,,,,,,,,,,,,
1371.699999988079,,pt2_memorable_rating,2008034,Stonebrook,,51,,,3,,,,,,,,,,,,,,,
null,,confidence_buffer,2008136,confidence_buffer,,null,,,,,,,,,,,,,,,,,,
4412.699999988079,,recognition_phase,2012551,Stonebrook,,51,,,,,,new,1,0.9333333333333333,,,,,,,,,,
null,,confidence_buffer,2012658,confidence_buffer,,null,,,,,,,,,,,,,,,,,,
null,,thebreak,2013163,break,,null,,,,,,,,,,,,,,,,,,
4912.0999999940395,,realistic_rating,2018077,Healdsburg,,50,Healdsburg,US,2,,,,,,,,,,,,,,,
null,,confidence_buffer,2018185,confidence_buffer,,null,,,,,,,,,,,,,,,,,,
2411.0999999940395,,pt2_unique_rating,2020597,Healdsburg,,51,,,3,,,,,,,,,,,,,,,
null,,confidence_buffer,2020704,confidence_buffer,,null,,,,,,,,,,,,,,,,,,
1298.4000000059605,,pt2_memorable_rating,2022004,Healdsburg,,50,,,2,,,,,,,,,,,,,,,
null,,confidence_buffer,2022112,confidence_buffer,,null,,,,,,,,,,,,,,,,,,
2847.7999999821186,,recognition_phase,2024962,Healdsburg,,52,,,,,,new,1,0.9375,,,,,,,,,,
null,,confidence_buffer,2025067,confidence_buffer,,null,,,,,,,,,,,,,,,,,,
null,,thebreak,2025575,break,,null,,,,,,,,,,,,,,,,,,
4552.4000000059605,,realistic_rating,2030129,Athens,,53,Athens,US,5,,,,,,,,,,,,,,,
null,,confidence_buffer,2030236,confidence_buffer,,null,,,,,,,,,,,,,,,,,,
1462.9000000059605,,pt2_unique_rating,2031700,Athens,,53,,,5,,,,,,,,,,,,,,,
null,,confidence_buffer,2031802,confidence_buffer,,null,,,,,,,,,,,,,,,,,,
1472.1000000238419,,pt2_memorable_rating,2033275,Athens,,53,,,5,,,,,,,,,,,,,,,
null,,confidence_buffer,2033379,confidence_buffer,,null,,,,,,,,,,,,,,,,,,
2555,,recognition_phase,2035934,Athens,,49,,,,,,old,1,0.9411764705882353,,,,,,,,,,
null,,confidence_buffer,2036044,confidence_buffer,,null,,,,,,,,,,,,,,,,,,
null,,thebreak,2036546,break,,null,,,,,,,,,,,,,,,,,,
25166.09999999404,,realistic_rating,2061713,Summershade,,49,Summershade,Fictional,1,,,,,,,,,,,,,,,
null,,confidence_buffer,2061830,confidence_buffer,,null,,,,,,,,,,,,,,,,,,
1708.1000000238419,,pt2_unique_rating,2063539,Summershade,,49,,,1,,,,,,,,,,,,,,,
null,,confidence_buffer,2063653,confidence_buffer,,null,,,,,,,,,,,,,,,,,,
1174.199999988079,,pt2_memorable_rating,2064828,Summershade,,49,,,1,,,,,,,,,,,,,,,
null,,confidence_buffer,2064936,confidence_buffer,,null,,,,,,,,,,,,,,,,,,
3483.5999999940395,,recognition_phase,2068420,Summershade,,51,,,,,,new,0,0.8888888888888888,,,,,,,,,,
null,,confidence_buffer,2068530,confidence_buffer,,null,,,,,,,,,,,,,,,,,,
null,,thebreak,2069038,break,,null,,,,,,,,,,,,,,,,,,
4881.300000011921,,realistic_rating,2073921,Sisters,,49,Sisters,US,1,,,,,,,,,,,,,,,
null,,confidence_buffer,2074028,confidence_buffer,,null,,,,,,,,,,,,,,,,,,
1699.9000000059605,,pt2_unique_rating,2075729,Sisters,,49,,,1,,,,,,,,,,,,,,,
null,,confidence_buffer,2075835,confidence_buffer,,null,,,,,,,,,,,,,,,,,,
2170.5,,pt2_memorable_rating,2078007,Sisters,,49,,,1,,,,,,,,,,,,,,,
null,,confidence_buffer,2078114,confidence_buffer,,null,,,,,,,,,,,,,,,,,,
1327.2000000178814,,recognition_phase,2079443,Sisters,,49,,,,,,old,1,0.8947368421052632,,,,,,,,,,
null,,confidence_buffer,2079557,confidence_buffer,,null,,,,,,,,,,,,,,,,,,
null,,thebreak,2080059,break,,null,,,,,,,,,,,,,,,,,,
20487.09999999404,,realistic_rating,2100546,Highvale,,51,Highvale,Fictional,3,,,,,,,,,,,,,,,
null,,confidence_buffer,2100652,confidence_buffer,,null,,,,,,,,,,,,,,,,,,
1460.199999988079,,probe_rating,2102113,probe_rating,,51,,,,3,1,,,,,,,,,,,,,
null,,confidence_buffer,2102228,confidence_buffer,,null,,,,,,,,,,,,,,,,,,
5278.300000011921,,pt2_unique_rating,2107508,Highvale,,50,,,2,,,,,,,,,,,,,,,
null,,confidence_buffer,2107618,confidence_buffer,,null,,,,,,,,,,,,,,,,,,
3022.2999999821186,,pt2_memorable_rating,2110642,Highvale,,51,,,3,,,,,,,,,,,,,,,
null,,confidence_buffer,2110752,confidence_buffer,,null,,,,,,,,,,,,,,,,,,
3615,,recognition_phase,2114368,Highvale,,52,,,,,,new,1,0.9,,,,,,,,,,
null,,confidence_buffer,2114472,confidence_buffer,,null,,,,,,,,,,,,,,,,,,
null,,thebreak,2114985,break,,null,,,,,,,,,,,,,,,,,,
32830.5,,realistic_rating,2147817,Hilo,,51,Hilo,US,3,,,,,,,,,,,,,,,
null,,confidence_buffer,2147925,confidence_buffer,,null,,,,,,,,,,,,,,,,,,
3205.9000000059605,,pt2_unique_rating,2151132,Hilo,,51,,,3,,,,,,,,,,,,,,,
null,,confidence_buffer,2151236,confidence_buffer,,null,,,,,,,,,,,,,,,,,,
1330.7999999821186,,pt2_memorable_rating,2152568,Hilo,,51,,,3,,,,,,,,,,,,,,,
null,,confidence_buffer,2152677,confidence_buffer,,null,,,,,,,,,,,,,,,,,,
2431.7999999821186,,recognition_phase,2155110,Hilo,,52,,,,,,new,0,0.8571428571428571,,,,,,,,,,
null,,confidence_buffer,2155220,confidence_buffer,,null,,,,,,,,,,,,,,,,,,
null,,thebreak,2155730,break,,null,,,,,,,,,,,,,,,,,,
5196.799999982119,,realistic_rating,2160929,Barnard,,50,Barnard,US,2,,,,,,,,,,,,,,,
null,,confidence_buffer,2161035,confidence_buffer,,null,,,,,,,,,,,,,,,,,,
1987.8999999761581,,pt2_unique_rating,2163024,Barnard,,51,,,3,,,,,,,,,,,,,,,
null,,confidence_buffer,2163136,confidence_buffer,,null,,,,,,,,,,,,,,,,,,
1907,,pt2_memorable_rating,2165044,Barnard,,50,,,2,,,,,,,,,,,,,,,
null,,confidence_buffer,2165153,confidence_buffer,,null,,,,,,,,,,,,,,,,,,
2826.199999988079,,recognition_phase,2167980,Barnard,,52,,,,,,new,1,0.8636363636363636,,,,,,,,,,
null,,confidence_buffer,2168083,confidence_buffer,,null,,,,,,,,,,,,,,,,,,
null,,thebreak,2168586,break,,null,,,,,,,,,,,,,,,,,,
5903.700000017881,,realistic_rating,2174491,New Hope,,49,New Hope,US,1,,,,,,,,,,,,,,,
null,,confidence_buffer,2174605,confidence_buffer,,null,,,,,,,,,,,,,,,,,,
1603.199999988079,,pt2_unique_rating,2176209,New Hope,,49,,,1,,,,,,,,,,,,,,,
null,,confidence_buffer,2176324,confidence_buffer,,null,,,,,,,,,,,,,,,,,,
1600.300000011921,,probe_rating,2177926,probe_rating,,49,,,,1,1,,,,,,,,,,,,,
null,,confidence_buffer,2178041,confidence_buffer,,null,,,,,,,,,,,,,,,,,,
2639.5,,pt2_memorable_rating,2180681,New Hope,,49,,,1,,,,,,,,,,,,,,,
null,,confidence_buffer,2180790,confidence_buffer,,null,,,,,,,,,,,,,,,,,,
3055.600000023842,,recognition_phase,2183847,New Hope,,52,,,,,,new,1,0.8695652173913043,,,,,,,,,,
null,,confidence_buffer,2183953,confidence_buffer,,null,,,,,,,,,,,,,,,,,,
null,,thebreak,2184458,break,,null,,,,,,,,,,,,,,,,,,
13759.40000000596,,realistic_rating,2198218,Riverlyn,,49,Riverlyn,Fictional,1,,,,,,,,,,,,,,,
null,,confidence_buffer,2198334,confidence_buffer,,null,,,,,,,,,,,,,,,,,,
2558.7999999821186,,pt2_unique_rating,2200894,Riverlyn,,50,,,2,,,,,,,,,,,,,,,
null,,confidence_buffer,2200999,confidence_buffer,,null,,,,,,,,,,,,,,,,,,
1123.2999999821186,,pt2_memorable_rating,2202124,Riverlyn,,49,,,1,,,,,,,,,,,,,,,
null,,confidence_buffer,2202229,confidence_buffer,,null,,,,,,,,,,,,,,,,,,
1907.1000000238419,,recognition_phase,2204137,Riverlyn,,49,,,,,,old,1,0.875,,,,,,,,,,
null,,confidence_buffer,2204244,confidence_buffer,,null,,,,,,,,,,,,,,,,,,
null,,thebreak,2204748,break,,null,,,,,,,,,,,,,,,,,,
36835.59999999404,,realistic_rating,2241584,Elmsbury,,52,Elmsbury,Fictional,4,,,,,,,,,,,,,,,
null,,confidence_buffer,2241690,confidence_buffer,,null,,,,,,,,,,,,,,,,,,
2141.800000011921,,pt2_unique_rating,2243833,Elmsbury,,52,,,4,,,,,,,,,,,,,,,
null,,confidence_buffer,2243937,confidence_buffer,,null,,,,,,,,,,,,,,,,,,
2183.0999999940395,,probe_rating,2246121,probe_rating,,52,,,,4,1,,,,,,,,,,,,,
null,,confidence_buffer,2246237,confidence_buffer,,null,,,,,,,,,,,,,,,,,,
16253.800000011921,,pt2_memorable_rating,2262492,Elmsbury,,52,,,4,,,,,,,,,,,,,,,
null,,confidence_buffer,2262598,confidence_buffer,,null,,,,,,,,,,,,,,,,,,
3974.9000000059605,,recognition_phase,2266574,Elmsbury,,52,,,,,,new,0,0.84,,,,,,,,,,
null,,confidence_buffer,2266681,confidence_buffer,,null,,,,,,,,,,,,,,,,,,
null,,thebreak,2267190,break,,null,,,,,,,,,,,,,,,,,,
6319.299999982119,,realistic_rating,2273510,Sierra Hollow,,49,Sierra Hollow,Fictional,1,,,,,,,,,,,,,,,
null,,confidence_buffer,2273617,confidence_buffer,,null,,,,,,,,,,,,,,,,,,
2063,,pt2_unique_rating,2275681,Sierra Hollow,,50,,,2,,,,,,,,,,,,,,,
null,,confidence_buffer,2275798,confidence_buffer,,null,,,,,,,,,,,,,,,,,,
2870.0999999940395,,probe_rating,2278669,probe_rating,,50,,,,2,1,,,,,,,,,,,,,
null,,confidence_buffer,2278777,confidence_buffer,,null,,,,,,,,,,,,,,,,,,
3816.300000011921,,pt2_memorable_rating,2282594,Sierra Hollow,,50,,,2,,,,,,,,,,,,,,,
null,,confidence_buffer,2282705,confidence_buffer,,null,,,,,,,,,,,,,,,,,,
2568.800000011921,,recognition_phase,2285275,Sierra Hollow,,49,,,,,,old,1,0.8461538461538461,,,,,,,,,,
null,,confidence_buffer,2285383,confidence_buffer,,null,,,,,,,,,,,,,,,,,,
null,,thebreak,2285886,break,,null,,,,,,,,,,,,,,,,,,
74843.69999998808,,realistic_rating,2360731,Abilene,,53,Abilene,US,5,,,,,,,,,,,,,,,
null,,confidence_buffer,2360840,confidence_buffer,,null,,,,,,,,,,,,,,,,,,
2749.2999999821186,,pt2_unique_rating,2363590,Abilene,,52,,,4,,,,,,,,,,,,,,,
null,,confidence_buffer,2363700,confidence_buffer,,null,,,,,,,,,,,,,,,,,,
3356.4000000059605,,pt2_memorable_rating,2367057,Abilene,,52,,,4,,,,,,,,,,,,,,,
null,,confidence_buffer,2367160,confidence_buffer,,null,,,,,,,,,,,,,,,,,,
13036.09999999404,,recognition_phase,2380198,Abilene,,51,,,,,,new,0,0.8148148148148148,,,,,,,,,,
null,,confidence_buffer,2380300,confidence_buffer,,null,,,,,,,,,,,,,,,,,,
null,,thebreak,2380809,break,,null,,,,,,,,,,,,,,,,,,
5340,,realistic_rating,2386150,Hot Springs,,49,Hot Springs,US,1,,,,,,,,,,,,,,,
null,,confidence_buffer,2386259,confidence_buffer,,null,,,,,,,,,,,,,,,,,,
4811.4000000059605,,pt2_unique_rating,2391071,Hot Springs,,49,,,1,,,,,,,,,,,,,,,
null,,confidence_buffer,2391182,confidence_buffer,,null,,,,,,,,,,,,,,,,,,
2203.699999988079,,pt2_memorable_rating,2393387,Hot Springs,,49,,,1,,,,,,,,,,,,,,,
null,,confidence_buffer,2393497,confidence_buffer,,null,,,,,,,,,,,,,,,,,,
1993.5999999940395,,recognition_phase,2395491,Hot Springs,,49,,,,,,old,1,0.8214285714285714,,,,,,,,,,
null,,confidence_buffer,2395596,confidence_buffer,,null,,,,,,,,,,,,,,,,,,
null,,thebreak,2396100,break,,null,,,,,,,,,,,,,,,,,,
17567.80000001192,,realistic_rating,2413668,Cody,,52,Cody,US,4,,,,,,,,,,,,,,,
null,,confidence_buffer,2413775,confidence_buffer,,null,,,,,,,,,,,,,,,,,,
1322,,pt2_unique_rating,2415098,Cody,,52,,,4,,,,,,,,,,,,,,,
null,,confidence_buffer,2415203,confidence_buffer,,null,,,,,,,,,,,,,,,,,,
3217.2000000178814,,pt2_memorable_rating,2418422,Cody,,53,,,5,,,,,,,,,,,,,,,
null,,confidence_buffer,2418530,confidence_buffer,,null,,,,,,,,,,,,,,,,,,
2100.800000011921,,recognition_phase,2420632,Cody,,49,,,,,,old,1,0.8275862068965517,,,,,,,,,,
null,,confidence_buffer,2420735,confidence_buffer,,null,,,,,,,,,,,,,,,,,,
null,,thebreak,2421247,break,,null,,,,,,,,,,,,,,,,,,
4650.0999999940395,,realistic_rating,2425898,West Palm Beach,,49,West Palm Beach,US,1,,,,,,,,,,,,,,,
null,,confidence_buffer,2426007,confidence_buffer,,null,,,,,,,,,,,,,,,,,,
2031,,pt2_unique_rating,2428038,West Palm Beach,,50,,,2,,,,,,,,,,,,,,,
null,,confidence_buffer,2428140,confidence_buffer,,null,,,,,,,,,,,,,,,,,,
1005,,pt2_memorable_rating,2429146,West Palm Beach,,49,,,1,,,,,,,,,,,,,,,
null,,confidence_buffer,2429261,confidence_buffer,,null,,,,,,,,,,,,,,,,,,
5703.0999999940395,,recognition_phase,2434966,West Palm Beach,,50,,,,,,old,0,0.8,,,,,,,,,,
null,,confidence_buffer,2435070,confidence_buffer,,null,,,,,,,,,,,,,,,,,,
null,,thebreak,2435585,break,,null,,,,,,,,,,,,,,,,,,
4961.4000000059605,,realistic_rating,2440548,Hanover,,50,Hanover,US,2,,,,,,,,,,,,,,,
null,,confidence_buffer,2440650,confidence_buffer,,null,,,,,,,,,,,,,,,,,,
1478.5999999940395,,pt2_unique_rating,2442130,Hanover,,50,,,2,,,,,,,,,,,,,,,
null,,confidence_buffer,2442232,confidence_buffer,,null,,,,,,,,,,,,,,,,,,
1351.699999988079,,pt2_memorable_rating,2443585,Hanover,,50,,,2,,,,,,,,,,,,,,,
null,,confidence_buffer,2443698,confidence_buffer,,null,,,,,,,,,,,,,,,,,,
5385.300000011921,,recognition_phase,2449085,Hanover,,50,,,,,,old,1,0.8064516129032258,,,,,,,,,,
null,,confidence_buffer,2449190,confidence_buffer,,null,,,,,,,,,,,,,,,,,,
null,,thebreak,2449701,break,,null,,,,,,,,,,,,,,,,,,
17442.80000001192,,realistic_rating,2467144,San Antonio,,52,San Antonio,US,4,,,,,,,,,,,,,,,
null,,confidence_buffer,2467253,confidence_buffer,,null,,,,,,,,,,,,,,,,,,
2258,,pt2_unique_rating,2469512,San Antonio,,51,,,3,,,,,,,,,,,,,,,
null,,confidence_buffer,2469620,confidence_buffer,,null,,,,,,,,,,,,,,,,,,
2040.9000000059605,,probe_rating,2471662,probe_rating,,53,,,,5,1,,,,,,,,,,,,,
null,,confidence_buffer,2471767,confidence_buffer,,null,,,,,,,,,,,,,,,,,,
2547.199999988079,,pt2_memorable_rating,2474316,San Antonio,,51,,,3,,,,,,,,,,,,,,,
null,,confidence_buffer,2474423,confidence_buffer,,null,,,,,,,,,,,,,,,,,,
3385.9000000059605,,recognition_phase,2477810,San Antonio,,52,,,,,,new,1,0.8125,,,,,,,,,,
null,,confidence_buffer,2477914,confidence_buffer,,null,,,,,,,,,,,,,,,,,,
null,,thebreak,2478431,break,,null,,,,,,,,,,,,,,,,,,
4403.800000011921,,realistic_rating,2482836,Maravilla Springs,,50,Maravilla Springs,Fictional,2,,,,,,,,,,,,,,,
null,,confidence_buffer,2482939,confidence_buffer,,null,,,,,,,,,,,,,,,,,,
2941,,pt2_unique_rating,2485881,Maravilla Springs,,50,,,2,,,,,,,,,,,,,,,
null,,confidence_buffer,2485987,confidence_buffer,,null,,,,,,,,,,,,,,,,,,
1207.5999999940395,,pt2_memorable_rating,2487196,Maravilla Springs,,50,,,2,,,,,,,,,,,,,,,
null,,confidence_buffer,2487302,confidence_buffer,,null,,,,,,,,,,,,,,,,,,
2816.800000011921,,recognition_phase,2490120,Maravilla Springs,,52,,,,,,new,1,0.8181818181818182,,,,,,,,,,
null,,confidence_buffer,2490230,confidence_buffer,,null,,,,,,,,,,,,,,,,,,
null,,thebreak,2490734,break,,null,,,,,,,,,,,,,,,,,,
24251.29999998212,,realistic_rating,2514986,Sunmere,,49,Sunmere,Fictional,1,,,,,,,,,,,,,,,
null,,confidence_buffer,2515091,confidence_buffer,,null,,,,,,,,,,,,,,,,,,
2615.199999988079,,pt2_unique_rating,2517708,Sunmere,,50,,,2,,,,,,,,,,,,,,,
null,,confidence_buffer,2517816,confidence_buffer,,null,,,,,,,,,,,,,,,,,,
2027.0999999940395,,pt2_memorable_rating,2519845,Sunmere,,49,,,1,,,,,,,,,,,,,,,
null,,confidence_buffer,2519955,confidence_buffer,,null,,,,,,,,,,,,,,,,,,
2623.199999988079,,probe_rating,2522579,probe_rating,,52,,,,4,1,,,,,,,,,,,,,
null,,confidence_buffer,2522687,confidence_buffer,,null,,,,,,,,,,,,,,,,,,
2617,,recognition_phase,2525305,Sunmere,,51,,,,,,new,1,0.8235294117647058,,,,,,,,,,
null,,confidence_buffer,2525414,confidence_buffer,,null,,,,,,,,,,,,,,,,,,
null,,thebreak,2525920,break,,null,,,,,,,,,,,,,,,,,,
4917.199999988079,,realistic_rating,2530838,Ravenport,,51,Ravenport,Fictional,3,,,,,,,,,,,,,,,
null,,confidence_buffer,2530951,confidence_buffer,,null,,,,,,,,,,,,,,,,,,
1985.2999999821186,,pt2_unique_rating,2532938,Ravenport,,51,,,3,,,,,,,,,,,,,,,
null,,confidence_buffer,2533046,confidence_buffer,,null,,,,,,,,,,,,,,,,,,
1962.7999999821186,,pt2_memorable_rating,2535010,Ravenport,,51,,,3,,,,,,,,,,,,,,,
null,,confidence_buffer,2535122,confidence_buffer,,null,,,,,,,,,,,,,,,,,,
1844.2999999821186,,recognition_phase,2536968,Ravenport,,51,,,,,,new,0,0.8,,,,,,,,,,
null,,confidence_buffer,2537074,confidence_buffer,,null,,,,,,,,,,,,,,,,,,
null,,thebreak,2537592,break,,null,,,,,,,,,,,,,,,,,,
4368.0999999940395,,realistic_rating,2541961,Lakehaven,,50,Lakehaven,Fictional,2,,,,,,,,,,,,,,,
null,,confidence_buffer,2542066,confidence_buffer,,null,,,,,,,,,,,,,,,,,,
1252.5999999940395,,pt2_unique_rating,2543320,Lakehaven,,50,,,2,,,,,,,,,,,,,,,
null,,confidence_buffer,2543430,confidence_buffer,,null,,,,,,,,,,,,,,,,,,
2249.800000011921,,pt2_memorable_rating,2545682,Lakehaven,,51,,,3,,,,,,,,,,,,,,,
null,,confidence_buffer,2545790,confidence_buffer,,null,,,,,,,,,,,,,,,,,,
2676.800000011921,,recognition_phase,2548469,Lakehaven,,51,,,,,,new,1,0.8055555555555556,,,,,,,,,,
null,,confidence_buffer,2548570,confidence_buffer,,null,,,,,,,,,,,,,,,,,,
null,,thebreak,2549072,break,,null,,,,,,,,,,,,,,,,,,
4471.800000011921,,realistic_rating,2553545,Coeur d'Alene,,52,Coeur d'Alene,US,4,,,,,,,,,,,,,,,
null,,confidence_buffer,2553647,confidence_buffer,,null,,,,,,,,,,,,,,,,,,
1816.7999999821186,,pt2_unique_rating,2555465,Coeur d'Alene,,52,,,4,,,,,,,,,,,,,,,
null,,confidence_buffer,2555580,confidence_buffer,,null,,,,,,,,,,,,,,,,,,
3855.5,,pt2_memorable_rating,2559436,Coeur d'Alene,,50,,,2,,,,,,,,,,,,,,,
null,,confidence_buffer,2559550,confidence_buffer,,null,,,,,,,,,,,,,,,,,,
2390.600000023842,,recognition_phase,2561941,Coeur d'Alene,,52,,,,,,new,1,0.8108108108108109,,,,,,,,,,
null,,confidence_buffer,2562051,confidence_buffer,,null,,,,,,,,,,,,,,,,,,
null,,thebreak,2562559,break,,null,,,,,,,,,,,,,,,,,,
4742.4000000059605,,realistic_rating,2567303,North Arroya,,52,North Arroya,Fictional,4,,,,,,,,,,,,,,,
null,,confidence_buffer,2567416,confidence_buffer,,null,,,,,,,,,,,,,,,,,,
2869.699999988079,,pt2_unique_rating,2570287,North Arroya,,52,,,4,,,,,,,,,,,,,,,
null,,confidence_buffer,2570404,confidence_buffer,,null,,,,,,,,,,,,,,,,,,
1140.9000000059605,,pt2_memorable_rating,2571546,North Arroya,,52,,,4,,,,,,,,,,,,,,,
null,,confidence_buffer,2571652,confidence_buffer,,null,,,,,,,,,,,,,,,,,,
1363.4000000059605,,recognition_phase,2573017,North Arroya,,52,,,,,,new,0,0.7894736842105263,,,,,,,,,,
null,,confidence_buffer,2573123,confidence_buffer,,null,,,,,,,,,,,,,,,,,,
null,,thebreak,2573635,break,,null,,,,,,,,,,,,,,,,,,
7836.399999976158,,realistic_rating,2581473,Berkeley Springs,,50,Berkeley Springs,US,2,,,,,,,,,,,,,,,
null,,confidence_buffer,2581586,confidence_buffer,,null,,,,,,,,,,,,,,,,,,
2005.9000000059605,,pt2_unique_rating,2583593,Berkeley Springs,,49,,,1,,,,,,,,,,,,,,,
null,,confidence_buffer,2583702,confidence_buffer,,null,,,,,,,,,,,,,,,,,,
2663.300000011921,,probe_rating,2586367,probe_rating,,49,,,,1,1,,,,,,,,,,,,,
null,,confidence_buffer,2586482,confidence_buffer,,null,,,,,,,,,,,,,,,,,,
5439.9000000059605,,pt2_memorable_rating,2591923,Berkeley Springs,,50,,,2,,,,,,,,,,,,,,,
null,,confidence_buffer,2592033,confidence_buffer,,null,,,,,,,,,,,,,,,,,,
2793.0999999940395,,recognition_phase,2594827,Berkeley Springs,,51,,,,,,new,0,0.7692307692307693,,,,,,,,,,
null,,confidence_buffer,2594933,confidence_buffer,,null,,,,,,,,,,,,,,,,,,
null,,thebreak,2595436,break,,null,,,,,,,,,,,,,,,,,,
6120.600000023842,,realistic_rating,2601558,Juniper Creek,,51,Juniper Creek,Fictional,3,,,,,,,,,,,,,,,
null,,confidence_buffer,2601662,confidence_buffer,,null,,,,,,,,,,,,,,,,,,
2825.300000011921,,pt2_unique_rating,2604488,Juniper Creek,,52,,,4,,,,,,,,,,,,,,,
null,,confidence_buffer,2604591,confidence_buffer,,null,,,,,,,,,,,,,,,,,,
4141.300000011921,,pt2_memorable_rating,2608733,Juniper Creek,,51,,,3,,,,,,,,,,,,,,,
null,,confidence_buffer,2608849,confidence_buffer,,null,,,,,,,,,,,,,,,,,,
1951.7999999821186,,recognition_phase,2610802,Juniper Creek,,52,,,,,,new,1,0.775,,,,,,,,,,
null,,confidence_buffer,2610912,confidence_buffer,,null,,,,,,,,,,,,,,,,,,
null,,thebreak,2611428,break,,null,,,,,,,,,,,,,,,,,,
33158.39999997616,,realistic_rating,2644588,Coralridge,,49,Coralridge,Fictional,1,,,,,,,,,,,,,,,
null,,confidence_buffer,2644691,confidence_buffer,,null,,,,,,,,,,,,,,,,,,
1638.9000000059605,,pt2_unique_rating,2646331,Coralridge,,49,,,1,,,,,,,,,,,,,,,
null,,confidence_buffer,2646437,confidence_buffer,,null,,,,,,,,,,,,,,,,,,
1599.6000000238419,,pt2_memorable_rating,2648038,Coralridge,,49,,,1,,,,,,,,,,,,,,,
null,,confidence_buffer,2648141,confidence_buffer,,null,,,,,,,,,,,,,,,,,,
3148.300000011921,,recognition_phase,2651290,Coralridge,,51,,,,,,new,0,0.7560975609756098,,,,,,,,,,
null,,confidence_buffer,2651398,confidence_buffer,,null,,,,,,,,,,,,,,,,,,
null,,thebreak,2651901,break,,null,,,,,,,,,,,,,,,,,,
4433.4000000059605,,realistic_rating,2656335,Falconridge,,50,Falconridge,Fictional,2,,,,,,,,,,,,,,,
null,,confidence_buffer,2656440,confidence_buffer,,null,,,,,,,,,,,,,,,,,,
2095.7999999821186,,pt2_unique_rating,2658537,Falconridge,,49,,,1,,,,,,,,,,,,,,,
null,,confidence_buffer,2658640,confidence_buffer,,null,,,,,,,,,,,,,,,,,,
1912.300000011921,,pt2_memorable_rating,2660554,Falconridge,,49,,,1,,,,,,,,,,,,,,,
null,,confidence_buffer,2660661,confidence_buffer,,null,,,,,,,,,,,,,,,,,,
3891.0999999940395,,probe_rating,2664553,probe_rating,,51,,,,3,1,,,,,,,,,,,,,
null,,confidence_buffer,2664664,confidence_buffer,,null,,,,,,,,,,,,,,,,,,
2681,,recognition_phase,2667346,Falconridge,,51,,,,,,new,0,0.7380952380952381,,,,,,,,,,
null,,confidence_buffer,2667448,confidence_buffer,,null,,,,,,,,,,,,,,,,,,
null,,thebreak,2667951,break,,null,,,,,,,,,,,,,,,,,,
4215.699999988079,,realistic_rating,2672167,Golden Trace,,51,Golden Trace,Fictional,3,,,,,,,,,,,,,,,
null,,confidence_buffer,2672278,confidence_buffer,,null,,,,,,,,,,,,,,,,,,
926.2000000178814,,pt2_unique_rating,2673206,Golden Trace,,51,,,3,,,,,,,,,,,,,,,
null,,confidence_buffer,2673326,confidence_buffer,,null,,,,,,,,,,,,,,,,,,
1248.2000000178814,,pt2_memorable_rating,2674576,Golden Trace,,50,,,2,,,,,,,,,,,,,,,
null,,confidence_buffer,2674686,confidence_buffer,,null,,,,,,,,,,,,,,,,,,
3540.0999999940395,,recognition_phase,2678228,Golden Trace,,52,,,,,,new,1,0.7441860465116279,,,,,,,,,,
null,,confidence_buffer,2678331,confidence_buffer,,null,,,,,,,,,,,,,,,,,,
null,,thebreak,2678842,break,,null,,,,,,,,,,,,,,,,,,
3505.2999999821186,,realistic_rating,2682349,Hawthorne Bluffs,,49,Hawthorne Bluffs,Fictional,1,,,,,,,,,,,,,,,
null,,confidence_buffer,2682450,confidence_buffer,,null,,,,,,,,,,,,,,,,,,
2257.9000000059605,,pt2_unique_rating,2684709,Hawthorne Bluffs,,50,,,2,,,,,,,,,,,,,,,
null,,confidence_buffer,2684816,confidence_buffer,,null,,,,,,,,,,,,,,,,,,
593.7000000178814,,pt2_memorable_rating,2685411,Hawthorne Bluffs,,49,,,1,,,,,,,,,,,,,,,
null,,confidence_buffer,2685517,confidence_buffer,,null,,,,,,,,,,,,,,,,,,
2201.7999999821186,,recognition_phase,2687720,Hawthorne Bluffs,,52,,,,,,new,1,0.75,,,,,,,,,,
null,,confidence_buffer,2687838,confidence_buffer,,null,,,,,,,,,,,,,,,,,,
null,,thebreak,2688345,break,,null,,,,,,,,,,,,,,,,,,
7875.5999999940395,,realistic_rating,2696222,Carmel,,51,Carmel,US,3,,,,,,,,,,,,,,,
null,,confidence_buffer,2696334,confidence_buffer,,null,,,,,,,,,,,,,,,,,,
2560,,pt2_unique_rating,2698895,Carmel,,49,,,1,,,,,,,,,,,,,,,
null,,confidence_buffer,2699004,confidence_buffer,,null,,,,,,,,,,,,,,,,,,
6396.5999999940395,,pt2_memorable_rating,2705402,Carmel,,52,,,4,,,,,,,,,,,,,,,
null,,confidence_buffer,2705509,confidence_buffer,,null,,,,,,,,,,,,,,,,,,
4664.700000017881,,recognition_phase,2710176,Carmel,,49,,,,,,old,1,0.7555555555555555,,,,,,,,,,
null,,confidence_buffer,2710281,confidence_buffer,,null,,,,,,,,,,,,,,,,,,
null,,thebreak,2710787,break,,null,,,,,,,,,,,,,,,,,,
23124.29999998212,,realistic_rating,2733913,Natchez,,49,Natchez,US,1,,,,,,,,,,,,,,,
null,,confidence_buffer,2734018,confidence_buffer,,null,,,,,,,,,,,,,,,,,,
2354,,pt2_unique_rating,2736373,Natchez,,50,,,2,,,,,,,,,,,,,,,
null,,confidence_buffer,2736476,confidence_buffer,,null,,,,,,,,,,,,,,,,,,
550.1999999880791,,pt2_memorable_rating,2737028,Natchez,,49,,,1,,,,,,,,,,,,,,,
null,,confidence_buffer,2737137,confidence_buffer,,null,,,,,,,,,,,,,,,,,,
2636.5999999940395,,recognition_phase,2739775,Natchez,,52,,,,,,new,1,0.7608695652173914,,,,,,,,,,
null,,confidence_buffer,2739877,confidence_buffer,,null,,,,,,,,,,,,,,,,,,
null,,thebreak,2740386,break,,null,,,,,,,,,,,,,,,,,,
8745.5,,realistic_rating,2749132,Granton Ridge,,49,Granton Ridge,Fictional,1,,,,,,,,,,,,,,,
null,,confidence_buffer,2749240,confidence_buffer,,null,,,,,,,,,,,,,,,,,,
1682.7000000178814,,pt2_unique_rating,2750924,Granton Ridge,,50,,,2,,,,,,,,,,,,,,,
null,,confidence_buffer,2751030,confidence_buffer,,null,,,,,,,,,,,,,,,,,,
1098.300000011921,,pt2_memorable_rating,2752129,Granton Ridge,,50,,,2,,,,,,,,,,,,,,,
null,,confidence_buffer,2752236,confidence_buffer,,null,,,,,,,,,,,,,,,,,,
24335.80000001192,,recognition_phase,2776574,Granton Ridge,,52,,,,,,new,0,0.7446808510638298,,,,,,,,,,
null,,confidence_buffer,2776686,confidence_buffer,,null,,,,,,,,,,,,,,,,,,
null,,thebreak,2777191,break,,null,,,,,,,,,,,,,,,,,,
27770.90000000596,,realistic_rating,2804964,Cape May,,49,Cape May,US,1,,,,,,,,,,,,,,,
null,,confidence_buffer,2805074,confidence_buffer,,null,,,,,,,,,,,,,,,,,,
3503.9000000059605,,pt2_unique_rating,2808579,Cape May,,49,,,1,,,,,,,,,,,,,,,
null,,confidence_buffer,2808684,confidence_buffer,,null,,,,,,,,,,,,,,,,,,
10945.59999999404,,pt2_memorable_rating,2819631,Cape May,,49,,,1,,,,,,,,,,,,,,,
null,,confidence_buffer,2819737,confidence_buffer,,null,,,,,,,,,,,,,,,,,,
10942.600000023842,,recognition_phase,2830681,Cape May,,52,,,,,,new,1,0.75,,,,,,,,,,
null,,confidence_buffer,2830790,confidence_buffer,,null,,,,,,,,,,,,,,,,,,
null,,thebreak,2831302,break,,null,,,,,,,,,,,,,,,,,,
3933,,realistic_rating,2835236,Fairhaven,,51,Fairhaven,Fictional,3,,,,,,,,,,,,,,,
null,,confidence_buffer,2835346,confidence_buffer,,null,,,,,,,,,,,,,,,,,,
1860.0999999940395,,pt2_unique_rating,2837207,Fairhaven,,51,,,3,,,,,,,,,,,,,,,
null,,confidence_buffer,2837319,confidence_buffer,,null,,,,,,,,,,,,,,,,,,
1002.5999999940395,,pt2_memorable_rating,2838323,Fairhaven,,51,,,3,,,,,,,,,,,,,,,
null,,confidence_buffer,2838430,confidence_buffer,,null,,,,,,,,,,,,,,,,,,
3546.300000011921,,recognition_phase,2841977,Fairhaven,,52,,,,,,new,1,0.7551020408163265,,,,,,,,,,
null,,confidence_buffer,2842081,confidence_buffer,,null,,,,,,,,,,,,,,,,,,
null,,thebreak,2842588,break,,null,,,,,,,,,,,,,,,,,,
4181.5,,realistic_rating,2846771,Pine Hollow,,50,Pine Hollow,Fictional,2,,,,,,,,,,,,,,,
null,,confidence_buffer,2846877,confidence_buffer,,null,,,,,,,,,,,,,,,,,,
685.3000000119209,,pt2_unique_rating,2847564,Pine Hollow,,50,,,2,,,,,,,,,,,,,,,
null,,confidence_buffer,2847667,confidence_buffer,,null,,,,,,,,,,,,,,,,,,
2368.5999999940395,,probe_rating,2850038,probe_rating,,53,,,,5,1,,,,,,,,,,,,,
null,,confidence_buffer,2850146,confidence_buffer,,null,,,,,,,,,,,,,,,,,,
3729.2000000178814,,pt2_memorable_rating,2853876,Pine Hollow,,50,,,2,,,,,,,,,,,,,,,
null,,confidence_buffer,2853980,confidence_buffer,,null,,,,,,,,,,,,,,,,,,
3302,,recognition_phase,2857283,Pine Hollow,,51,,,,,,new,1,0.76,,,,,,,,,,
null,,confidence_buffer,2857396,confidence_buffer,,null,,,,,,,,,,,,,,,,,,
null,,thebreak,2857904,break,,null,,,,,,,,,,,,,,,,,,
44861.40000000596,,realistic_rating,2902767,Lake of the Ozarks,,49,Lake of the Ozarks,US,1,,,,,,,,,,,,,,,
null,,confidence_buffer,2902876,confidence_buffer,,null,,,,,,,,,,,,,,,,,,
835.9000000059605,,pt2_unique_rating,2903713,Lake of the Ozarks,,49,,,1,,,,,,,,,,,,,,,
null,,confidence_buffer,2903819,confidence_buffer,,null,,,,,,,,,,,,,,,,,,
749.8000000119209,,pt2_memorable_rating,2904570,Lake of the Ozarks,,49,,,1,,,,,,,,,,,,,,,
null,,confidence_buffer,2904672,confidence_buffer,,null,,,,,,,,,,,,,,,,,,
3826.5,,recognition_phase,2908500,Lake of the Ozarks,,49,,,,,,old,1,0.7647058823529411,,,,,,,,,,
null,,confidence_buffer,2908604,confidence_buffer,,null,,,,,,,,,,,,,,,,,,
null,,thebreak,2909116,break,,null,,,,,,,,,,,,,,,,,,
3078.9000000059605,,realistic_rating,2912196,Cornwall,,50,Cornwall,US,2,,,,,,,,,,,,,,,
null,,confidence_buffer,2912302,confidence_buffer,,null,,,,,,,,,,,,,,,,,,
1268.4000000059605,,pt2_unique_rating,2913572,Cornwall,,49,,,1,,,,,,,,,,,,,,,
null,,confidence_buffer,2913680,confidence_buffer,,null,,,,,,,,,,,,,,,,,,
1141.699999988079,,pt2_memorable_rating,2914823,Cornwall,,50,,,2,,,,,,,,,,,,,,,
null,,confidence_buffer,2914936,confidence_buffer,,null,,,,,,,,,,,,,,,,,,
2165.5,,recognition_phase,2917102,Cornwall,,52,,,,,,new,0,0.75,,,,,,,,,,
null,,confidence_buffer,2917209,confidence_buffer,,null,,,,,,,,,,,,,,,,,,
null,,thebreak,2917716,break,,null,,,,,,,,,,,,,,,,,,
22708.59999999404,,realistic_rating,2940426,Baymarsh,,50,Baymarsh,Fictional,2,,,,,,,,,,,,,,,
null,,confidence_buffer,2940527,confidence_buffer,,null,,,,,,,,,,,,,,,,,,
2024,,pt2_unique_rating,2942552,Baymarsh,,49,,,1,,,,,,,,,,,,,,,
null,,confidence_buffer,2942660,confidence_buffer,,null,,,,,,,,,,,,,,,,,,
1785.699999988079,,pt2_memorable_rating,2944448,Baymarsh,,50,,,2,,,,,,,,,,,,,,,
null,,confidence_buffer,2944556,confidence_buffer,,null,,,,,,,,,,,,,,,,,,
2874.2000000178814,,recognition_phase,2947432,Baymarsh,,51,,,,,,new,0,0.7358490566037735,,,,,,,,,,
null,,confidence_buffer,2947542,confidence_buffer,,null,,,,,,,,,,,,,,,,,,
null,,thebreak,2948061,break,,null,,,,,,,,,,,,,,,,,,
3381.5999999940395,,realistic_rating,2951444,Silverpine,,51,Silverpine,Fictional,3,,,,,,,,,,,,,,,
null,,confidence_buffer,2951550,confidence_buffer,,null,,,,,,,,,,,,,,,,,,
2025.6000000238419,,pt2_unique_rating,2953576,Silverpine,,51,,,3,,,,,,,,,,,,,,,
null,,confidence_buffer,2953686,confidence_buffer,,null,,,,,,,,,,,,,,,,,,
4927.0999999940395,,pt2_memorable_rating,2958614,Silverpine,,51,,,3,,,,,,,,,,,,,,,
null,,confidence_buffer,2958723,confidence_buffer,,null,,,,,,,,,,,,,,,,,,
3891.4000000059605,,recognition_phase,2962615,Silverpine,,51,,,,,,new,0,0.7222222222222222,,,,,,,,,,
null,,confidence_buffer,2962719,confidence_buffer,,null,,,,,,,,,,,,,,,,,,
null,,thebreak,2963223,break,,null,,,,,,,,,,,,,,,,,,
3190.4000000059605,,realistic_rating,2966414,Westridge,,52,Westridge,Fictional,4,,,,,,,,,,,,,,,
null,,confidence_buffer,2966520,confidence_buffer,,null,,,,,,,,,,,,,,,,,,
1936.699999988079,,pt2_unique_rating,2968458,Westridge,,51,,,3,,,,,,,,,,,,,,,
null,,confidence_buffer,2968568,confidence_buffer,,null,,,,,,,,,,,,,,,,,,
1171.800000011921,,pt2_memorable_rating,2969741,Westridge,,52,,,4,,,,,,,,,,,,,,,
null,,confidence_buffer,2969851,confidence_buffer,,null,,,,,,,,,,,,,,,,,,
4723.4000000059605,,recognition_phase,2974576,Westridge,,52,,,,,,new,1,0.7272727272727273,,,,,,,,,,
null,,confidence_buffer,2974678,confidence_buffer,,null,,,,,,,,,,,,,,,,,,
null,,thebreak,2975182,break,,null,,,,,,,,,,,,,,,,,,
2923.699999988079,,realistic_rating,2978107,Crestwood,,53,Crestwood,Fictional,5,,,,,,,,,,,,,,,
null,,confidence_buffer,2978218,confidence_buffer,,null,,,,,,,,,,,,,,,,,,
990.0999999940395,,pt2_unique_rating,2979209,Crestwood,,53,,,5,,,,,,,,,,,,,,,
null,,confidence_buffer,2979318,confidence_buffer,,null,,,,,,,,,,,,,,,,,,
1824.199999988079,,pt2_memorable_rating,2981143,Crestwood,,52,,,4,,,,,,,,,,,,,,,
null,,confidence_buffer,2981245,confidence_buffer,,null,,,,,,,,,,,,,,,,,,
3076.9000000059605,,recognition_phase,2984324,Crestwood,,51,,,,,,new,0,0.7142857142857143,,,,,,,,,,
null,,confidence_buffer,2984428,confidence_buffer,,null,,,,,,,,,,,,,,,,,,
null,,thebreak,2984931,break,,null,,,,,,,,,,,,,,,,,,
3868.199999988079,,realistic_rating,2988800,West Talora,,51,West Talora,Fictional,3,,,,,,,,,,,,,,,
null,,confidence_buffer,2988908,confidence_buffer,,null,,,,,,,,,,,,,,,,,,
1216,,pt2_unique_rating,2990125,West Talora,,52,,,4,,,,,,,,,,,,,,,
null,,confidence_buffer,2990234,confidence_buffer,,null,,,,,,,,,,,,,,,,,,
2471.4000000059605,,probe_rating,2992706,probe_rating,,49,,,,1,1,,,,,,,,,,,,,
null,,confidence_buffer,2992810,confidence_buffer,,null,,,,,,,,,,,,,,,,,,
2351.0999999940395,,pt2_memorable_rating,2995162,West Talora,,52,,,4,,,,,,,,,,,,,,,
null,,confidence_buffer,2995275,confidence_buffer,,null,,,,,,,,,,,,,,,,,,
8212.700000017881,,recognition_phase,3003489,West Talora,,51,,,,,,new,0,0.7017543859649122,,,,,,,,,,
null,,confidence_buffer,3003593,confidence_buffer,,null,,,,,,,,,,,,,,,,,,
null,,thebreak,3004101,break,,null,,,,,,,,,,,,,,,,,,
3356.300000011921,,realistic_rating,3007458,Boulder,,50,Boulder,US,2,,,,,,,,,,,,,,,
null,,confidence_buffer,3007564,confidence_buffer,,null,,,,,,,,,,,,,,,,,,
1099,,pt2_unique_rating,3008664,Boulder,,49,,,1,,,,,,,,,,,,,,,
null,,confidence_buffer,3008774,confidence_buffer,,null,,,,,,,,,,,,,,,,,,
1147.7000000178814,,pt2_memorable_rating,3009923,Boulder,,50,,,2,,,,,,,,,,,,,,,
null,,confidence_buffer,3010026,confidence_buffer,,null,,,,,,,,,,,,,,,,,,
2711.9000000059605,,recognition_phase,3012739,Boulder,,52,,,,,,new,1,0.7068965517241379,,,,,,,,,,
null,,confidence_buffer,3012852,confidence_buffer,,null,,,,,,,,,,,,,,,,,,
null,,thebreak,3013362,break,,null,,,,,,,,,,,,,,,,,,
5004.4000000059605,,realistic_rating,3018368,Racine,,53,Racine,US,5,,,,,,,,,,,,,,,
null,,confidence_buffer,3018477,confidence_buffer,,null,,,,,,,,,,,,,,,,,,
1361.5999999940395,,pt2_unique_rating,3019840,Racine,,52,,,4,,,,,,,,,,,,,,,
null,,confidence_buffer,3019953,confidence_buffer,,null,,,,,,,,,,,,,,,,,,
855.8000000119209,,pt2_memorable_rating,3020810,Racine,,52,,,4,,,,,,,,,,,,,,,
null,,confidence_buffer,3020916,confidence_buffer,,null,,,,,,,,,,,,,,,,,,
2189.800000011921,,recognition_phase,3023107,Racine,,52,,,,,,new,1,0.711864406779661,,,,,,,,,,
null,,confidence_buffer,3023216,confidence_buffer,,null,,,,,,,,,,,,,,,,,,
null,,thebreak,3023732,break,,null,,,,,,,,,,,,,,,,,,
2593.0999999940395,,realistic_rating,3026326,Cleveland,,53,Cleveland,US,5,,,,,,,,,,,,,,,
null,,confidence_buffer,3026430,confidence_buffer,,null,,,,,,,,,,,,,,,,,,
1776.300000011921,,pt2_unique_rating,3028208,Cleveland,,53,,,5,,,,,,,,,,,,,,,
null,,confidence_buffer,3028315,confidence_buffer,,null,,,,,,,,,,,,,,,,,,
1405.199999988079,,pt2_memorable_rating,3029722,Cleveland,,53,,,5,,,,,,,,,,,,,,,
null,,confidence_buffer,3029826,confidence_buffer,,null,,,,,,,,,,,,,,,,,,
3335.7999999821186,,recognition_phase,3033163,Cleveland,,52,,,,,,new,1,0.7166666666666667,,,,,,,,,,
null,,confidence_buffer,3033271,confidence_buffer,,null,,,,,,,,,,,,,,,,,,
null,,thebreak,3033779,break,,null,,,,,,,,,,,,,,,,,,
,,survey,3608264,survey-questions,,,,,,,,,,,none,high,No, I was fully focused on the study.,I majorly used memory on the cities I know then for the ones I was not sure I tried to imagine if the name sounds realistick.,I imagined if it is something I know.,I majorly focused on whether I could remember.,I focused on the features that are not very common to determine the uniqueness.,I tried to imagine if it is something I have heard before and if it sounds like something practical.,No,N/A
