rt,responses,trial_type,time_elapsed,stimulus,button_pressed,key_press,name_trial,city_type,rating,probe,probe_accuracy,response,correct,accuracy,problems,smooth,distraction,strategies,familiar,memorable,unique,realistic,similar,comments
130532.80000001192,{worker_id:66094df25d9e0e035e535a71},id_enter,130537,,,,,,,,,,,,,,,,,,,,,
5967.600000023842,,fullscreen,136513,fullscreen,0,,,,,,,,,,,,,,,,,,,
5386.699999988079,,intro_0,141905,instruct,,32,,,,,,,,,,,,,,,,,,
7915.700000047684,,intro_1,149823,instruct,,32,,,,,,,,,,,,,,,,,,
6559.699999988079,,intro_2,156384,instruct,,32,,,,,,,,,,,,,,,,,,
null,,instruct_dir_4,157886,instruct,,null,,,,,,,,,,,,,,,,,,
null,,thebreak,158388,break,,null,,,,,,,,,,,,,,,,,,
59623.89999997616,,familiar_rating,218014,Albuquerque,,52,Albuquerque,US,4,,,,,,,,,,,,,,,
null,,confidence_buffer,218118,confidence_buffer,,null,,,,,,,,,,,,,,,,,,
48860.89999997616,,unique_rating,266981,Albuquerque,,50,,,2,,,,,,,,,,,,,,,
null,,confidence_buffer,267084,confidence_buffer,,null,,,,,,,,,,,,,,,,,,
2121.2999999523163,,memorable_rating,269207,Albuquerque,,49,,,1,,,,,,,,,,,,,,,
null,,confidence_buffer,269310,confidence_buffer,,null,,,,,,,,,,,,,,,,,,
null,,thebreak,269812,break,,null,,,,,,,,,,,,,,,,,,
5700.899999976158,,familiar_rating,275515,Athens,,52,Athens,US,4,,,,,,,,,,,,,,,
null,,confidence_buffer,275617,confidence_buffer,,null,,,,,,,,,,,,,,,,,,
2495.599999964237,,unique_rating,278114,Athens,,52,,,4,,,,,,,,,,,,,,,
null,,confidence_buffer,278216,confidence_buffer,,null,,,,,,,,,,,,,,,,,,
1972.0999999642372,,memorable_rating,280190,Athens,,51,,,3,,,,,,,,,,,,,,,
null,,confidence_buffer,280292,confidence_buffer,,null,,,,,,,,,,,,,,,,,,
null,,thebreak,280803,break,,null,,,,,,,,,,,,,,,,,,
42498.89999997616,,familiar_rating,323303,Sunmere,,49,Sunmere,Fictional,1,,,,,,,,,,,,,,,
null,,confidence_buffer,323405,confidence_buffer,,null,,,,,,,,,,,,,,,,,,
1050,,unique_rating,324457,Sunmere,,50,,,2,,,,,,,,,,,,,,,
null,,confidence_buffer,324560,confidence_buffer,,null,,,,,,,,,,,,,,,,,,
1040.8999999761581,,memorable_rating,325603,Sunmere,,49,,,1,,,,,,,,,,,,,,,
null,,confidence_buffer,325705,confidence_buffer,,null,,,,,,,,,,,,,,,,,,
null,,thebreak,326206,break,,null,,,,,,,,,,,,,,,,,,
23970.400000035763,,familiar_rating,350178,Bar Harbor,,52,Bar Harbor,US,4,,,,,,,,,,,,,,,
null,,confidence_buffer,350281,confidence_buffer,,null,,,,,,,,,,,,,,,,,,
3841.099999964237,,unique_rating,354124,Bar Harbor,,52,,,4,,,,,,,,,,,,,,,
null,,confidence_buffer,354226,confidence_buffer,,null,,,,,,,,,,,,,,,,,,
2034.8999999761581,,memorable_rating,356263,Bar Harbor,,51,,,3,,,,,,,,,,,,,,,
null,,confidence_buffer,356365,confidence_buffer,,null,,,,,,,,,,,,,,,,,,
null,,thebreak,356868,break,,null,,,,,,,,,,,,,,,,,,
20904.600000023842,,familiar_rating,377774,Willowford,,49,Willowford,Fictional,1,,,,,,,,,,,,,,,
null,,confidence_buffer,377876,confidence_buffer,,null,,,,,,,,,,,,,,,,,,
880.5,,unique_rating,378758,Willowford,,50,,,2,,,,,,,,,,,,,,,
null,,confidence_buffer,378863,confidence_buffer,,null,,,,,,,,,,,,,,,,,,
692.5,,memorable_rating,379557,Willowford,,49,,,1,,,,,,,,,,,,,,,
null,,confidence_buffer,379659,confidence_buffer,,null,,,,,,,,,,,,,,,,,,
null,,thebreak,380162,break,,null,,,,,,,,,,,,,,,,,,
21261.5,,familiar_rating,401425,Oakridge,,50,Oakridge,Fictional,2,,,,,,,,,,,,,,,
null,,confidence_buffer,401527,confidence_buffer,,null,,,,,,,,,,,,,,,,,,
754,,unique_rating,402282,Oakridge,,51,,,3,,,,,,,,,,,,,,,
null,,confidence_buffer,402384,confidence_buffer,,null,,,,,,,,,,,,,,,,,,
600.5,,memorable_rating,402986,Oakridge,,50,,,2,,,,,,,,,,,,,,,
null,,confidence_buffer,403088,confidence_buffer,,null,,,,,,,,,,,,,,,,,,
null,,thebreak,403600,break,,null,,,,,,,,,,,,,,,,,,
21940.400000035763,,familiar_rating,425542,East Ladera,,53,East Ladera,Fictional,5,,,,,,,,,,,,,,,
null,,confidence_buffer,425645,confidence_buffer,,null,,,,,,,,,,,,,,,,,,
1530.199999988079,,unique_rating,427177,East Ladera,,52,,,4,,,,,,,,,,,,,,,
null,,confidence_buffer,427284,confidence_buffer,,null,,,,,,,,,,,,,,,,,,
830.1999999880791,,memorable_rating,428116,East Ladera,,51,,,3,,,,,,,,,,,,,,,
null,,confidence_buffer,428217,confidence_buffer,,null,,,,,,,,,,,,,,,,,,
4097.300000011921,,probe_rating,432317,probe_rating,,52,,,,4,1,,,,,,,,,,,,,
null,,confidence_buffer,432419,confidence_buffer,,null,,,,,,,,,,,,,,,,,,
null,,thebreak,432921,break,,null,,,,,,,,,,,,,,,,,,
19347.5,,familiar_rating,452270,Livingston,,53,Livingston,US,5,,,,,,,,,,,,,,,
null,,confidence_buffer,452372,confidence_buffer,,null,,,,,,,,,,,,,,,,,,
1740.2000000476837,,unique_rating,454113,Livingston,,53,,,5,,,,,,,,,,,,,,,
null,,confidence_buffer,454215,confidence_buffer,,null,,,,,,,,,,,,,,,,,,
1751.8999999761581,,memorable_rating,455969,Livingston,,51,,,3,,,,,,,,,,,,,,,
null,,confidence_buffer,456071,confidence_buffer,,null,,,,,,,,,,,,,,,,,,
null,,thebreak,456575,break,,null,,,,,,,,,,,,,,,,,,
25161.80000001192,,familiar_rating,481738,Ravenport,,50,Ravenport,Fictional,2,,,,,,,,,,,,,,,
null,,confidence_buffer,481850,confidence_buffer,,null,,,,,,,,,,,,,,,,,,
1182.699999988079,,unique_rating,483035,Ravenport,,50,,,2,,,,,,,,,,,,,,,
null,,confidence_buffer,483137,confidence_buffer,,null,,,,,,,,,,,,,,,,,,
729.1000000238419,,memorable_rating,483868,Ravenport,,49,,,1,,,,,,,,,,,,,,,
null,,confidence_buffer,483970,confidence_buffer,,null,,,,,,,,,,,,,,,,,,
null,,thebreak,484471,break,,null,,,,,,,,,,,,,,,,,,
2916.600000023842,,familiar_rating,487390,San Antonio,,53,San Antonio,US,5,,,,,,,,,,,,,,,
null,,confidence_buffer,487492,confidence_buffer,,null,,,,,,,,,,,,,,,,,,
1430.199999988079,,unique_rating,488924,San Antonio,,52,,,4,,,,,,,,,,,,,,,
null,,confidence_buffer,489027,confidence_buffer,,null,,,,,,,,,,,,,,,,,,
916.3000000119209,,memorable_rating,489945,San Antonio,,51,,,3,,,,,,,,,,,,,,,
null,,confidence_buffer,490047,confidence_buffer,,null,,,,,,,,,,,,,,,,,,
null,,thebreak,490550,break,,null,,,,,,,,,,,,,,,,,,
19146.80000001192,,familiar_rating,509698,Manistee,,52,Manistee,US,4,,,,,,,,,,,,,,,
null,,confidence_buffer,509801,confidence_buffer,,null,,,,,,,,,,,,,,,,,,
960.0999999642372,,unique_rating,510762,Manistee,,51,,,3,,,,,,,,,,,,,,,
null,,confidence_buffer,510864,confidence_buffer,,null,,,,,,,,,,,,,,,,,,
1325.699999988079,,memorable_rating,512191,Manistee,,50,,,2,,,,,,,,,,,,,,,
null,,confidence_buffer,512294,confidence_buffer,,null,,,,,,,,,,,,,,,,,,
null,,thebreak,512795,break,,null,,,,,,,,,,,,,,,,,,
17518.399999976158,,familiar_rating,530315,Lakehaven,,50,Lakehaven,Fictional,2,,,,,,,,,,,,,,,
null,,confidence_buffer,530417,confidence_buffer,,null,,,,,,,,,,,,,,,,,,
763.3000000119209,,unique_rating,531182,Lakehaven,,50,,,2,,,,,,,,,,,,,,,
null,,confidence_buffer,531284,confidence_buffer,,null,,,,,,,,,,,,,,,,,,
1279.3999999761581,,memorable_rating,532565,Lakehaven,,49,,,1,,,,,,,,,,,,,,,
null,,confidence_buffer,532667,confidence_buffer,,null,,,,,,,,,,,,,,,,,,
null,,thebreak,533169,break,,null,,,,,,,,,,,,,,,,,,
20675,,familiar_rating,553845,Sierra Hollow,,50,Sierra Hollow,Fictional,2,,,,,,,,,,,,,,,
null,,confidence_buffer,553948,confidence_buffer,,null,,,,,,,,,,,,,,,,,,
1089,,unique_rating,555039,Sierra Hollow,,51,,,3,,,,,,,,,,,,,,,
null,,confidence_buffer,555141,confidence_buffer,,null,,,,,,,,,,,,,,,,,,
736.6999999880791,,memorable_rating,555879,Sierra Hollow,,50,,,2,,,,,,,,,,,,,,,
null,,confidence_buffer,555981,confidence_buffer,,null,,,,,,,,,,,,,,,,,,
null,,thebreak,556483,break,,null,,,,,,,,,,,,,,,,,,
32898.10000002384,,familiar_rating,589383,Ashford Hills,,51,Ashford Hills,Fictional,3,,,,,,,,,,,,,,,
null,,confidence_buffer,589485,confidence_buffer,,null,,,,,,,,,,,,,,,,,,
655.8000000119209,,unique_rating,590142,Ashford Hills,,50,,,2,,,,,,,,,,,,,,,
null,,confidence_buffer,590244,confidence_buffer,,null,,,,,,,,,,,,,,,,,,
236.20000004768372,,memorable_rating,590482,Ashford Hills,,50,,,2,,,,,,,,,,,,,,,
null,,confidence_buffer,590584,confidence_buffer,,null,,,,,,,,,,,,,,,,,,
null,,thebreak,591085,break,,null,,,,,,,,,,,,,,,,,,
20601.399999976158,,familiar_rating,611688,Custer,,52,Custer,US,4,,,,,,,,,,,,,,,
null,,confidence_buffer,611791,confidence_buffer,,null,,,,,,,,,,,,,,,,,,
1464.5,,unique_rating,613257,Custer,,53,,,5,,,,,,,,,,,,,,,
null,,confidence_buffer,613359,confidence_buffer,,null,,,,,,,,,,,,,,,,,,
788,,memorable_rating,614149,Custer,,52,,,4,,,,,,,,,,,,,,,
null,,confidence_buffer,614251,confidence_buffer,,null,,,,,,,,,,,,,,,,,,
null,,thebreak,614754,break,,null,,,,,,,,,,,,,,,,,,
20332,,familiar_rating,635087,West Palm Beach,,53,West Palm Beach,US,5,,,,,,,,,,,,,,,
null,,confidence_buffer,635189,confidence_buffer,,null,,,,,,,,,,,,,,,,,,
952.5,,unique_rating,636143,West Palm Beach,,52,,,4,,,,,,,,,,,,,,,
null,,confidence_buffer,636246,confidence_buffer,,null,,,,,,,,,,,,,,,,,,
965.1999999880791,,memorable_rating,637212,West Palm Beach,,51,,,3,,,,,,,,,,,,,,,
null,,confidence_buffer,637314,confidence_buffer,,null,,,,,,,,,,,,,,,,,,
null,,thebreak,637826,break,,null,,,,,,,,,,,,,,,,,,
28303.100000023842,,familiar_rating,666130,Delaro Park,,53,Delaro Park,Fictional,5,,,,,,,,,,,,,,,
null,,confidence_buffer,666234,confidence_buffer,,null,,,,,,,,,,,,,,,,,,
1859.699999988079,,unique_rating,668095,Delaro Park,,52,,,4,,,,,,,,,,,,,,,
null,,confidence_buffer,668198,confidence_buffer,,null,,,,,,,,,,,,,,,,,,
813.5,,memorable_rating,669013,Delaro Park,,51,,,3,,,,,,,,,,,,,,,
null,,confidence_buffer,669114,confidence_buffer,,null,,,,,,,,,,,,,,,,,,
null,,thebreak,669616,break,,null,,,,,,,,,,,,,,,,,,
4739.100000023842,,familiar_rating,674357,Gloucester,,51,Gloucester,US,3,,,,,,,,,,,,,,,
null,,confidence_buffer,674459,confidence_buffer,,null,,,,,,,,,,,,,,,,,,
1274.6000000238419,,unique_rating,675734,Gloucester,,50,,,2,,,,,,,,,,,,,,,
null,,confidence_buffer,675836,confidence_buffer,,null,,,,,,,,,,,,,,,,,,
1016.8999999761581,,memorable_rating,676855,Gloucester,,52,,,4,,,,,,,,,,,,,,,
null,,confidence_buffer,676957,confidence_buffer,,null,,,,,,,,,,,,,,,,,,
null,,thebreak,677460,break,,null,,,,,,,,,,,,,,,,,,
2833.300000011921,,familiar_rating,680295,Driftwood Bay,,52,Driftwood Bay,Fictional,4,,,,,,,,,,,,,,,
null,,confidence_buffer,680398,confidence_buffer,,null,,,,,,,,,,,,,,,,,,
1943.6000000238419,,unique_rating,682343,Driftwood Bay,,51,,,3,,,,,,,,,,,,,,,
null,,confidence_buffer,682445,confidence_buffer,,null,,,,,,,,,,,,,,,,,,
1014.8000000119209,,memorable_rating,683462,Driftwood Bay,,50,,,2,,,,,,,,,,,,,,,
null,,confidence_buffer,683563,confidence_buffer,,null,,,,,,,,,,,,,,,,,,
null,,thebreak,684066,break,,null,,,,,,,,,,,,,,,,,,
1878.300000011921,,familiar_rating,685946,Newport,,52,Newport,US,4,,,,,,,,,,,,,,,
null,,confidence_buffer,686049,confidence_buffer,,null,,,,,,,,,,,,,,,,,,
1124.9000000357628,,unique_rating,687175,Newport,,50,,,2,,,,,,,,,,,,,,,
null,,confidence_buffer,687278,confidence_buffer,,null,,,,,,,,,,,,,,,,,,
3210.800000011921,,probe_rating,690490,probe_rating,,51,,,,3,1,,,,,,,,,,,,,
null,,confidence_buffer,690593,confidence_buffer,,null,,,,,,,,,,,,,,,,,,
1630,,memorable_rating,692225,Newport,,52,,,4,,,,,,,,,,,,,,,
null,,confidence_buffer,692336,confidence_buffer,,null,,,,,,,,,,,,,,,,,,
null,,thebreak,692839,break,,null,,,,,,,,,,,,,,,,,,
2611.800000011921,,familiar_rating,695452,Cornwall,,49,Cornwall,US,1,,,,,,,,,,,,,,,
null,,confidence_buffer,695556,confidence_buffer,,null,,,,,,,,,,,,,,,,,,
815.5999999642372,,unique_rating,696373,Cornwall,,51,,,3,,,,,,,,,,,,,,,
null,,confidence_buffer,696476,confidence_buffer,,null,,,,,,,,,,,,,,,,,,
1057.3999999761581,,memorable_rating,697535,Cornwall,,50,,,2,,,,,,,,,,,,,,,
null,,confidence_buffer,697637,confidence_buffer,,null,,,,,,,,,,,,,,,,,,
null,,thebreak,698139,break,,null,,,,,,,,,,,,,,,,,,
1879.199999988079,,familiar_rating,700021,Highvale,,53,Highvale,Fictional,5,,,,,,,,,,,,,,,
null,,confidence_buffer,700124,confidence_buffer,,null,,,,,,,,,,,,,,,,,,
1352,,unique_rating,701477,Highvale,,52,,,4,,,,,,,,,,,,,,,
null,,confidence_buffer,701579,confidence_buffer,,null,,,,,,,,,,,,,,,,,,
865.5,,memorable_rating,702446,Highvale,,51,,,3,,,,,,,,,,,,,,,
null,,confidence_buffer,702549,confidence_buffer,,null,,,,,,,,,,,,,,,,,,
null,,thebreak,703052,break,,null,,,,,,,,,,,,,,,,,,
2214,,familiar_rating,705267,Boulder,,50,Boulder,US,2,,,,,,,,,,,,,,,
null,,confidence_buffer,705370,confidence_buffer,,null,,,,,,,,,,,,,,,,,,
1102.199999988079,,unique_rating,706473,Boulder,,53,,,5,,,,,,,,,,,,,,,
null,,confidence_buffer,706576,confidence_buffer,,null,,,,,,,,,,,,,,,,,,
1102.5,,memorable_rating,707680,Boulder,,53,,,5,,,,,,,,,,,,,,,
null,,confidence_buffer,707781,confidence_buffer,,null,,,,,,,,,,,,,,,,,,
1964,,probe_rating,709747,probe_rating,,53,,,,5,1,,,,,,,,,,,,,
null,,confidence_buffer,709848,confidence_buffer,,null,,,,,,,,,,,,,,,,,,
null,,thebreak,710350,break,,null,,,,,,,,,,,,,,,,,,
2309.5,,familiar_rating,712661,Claywater,,50,Claywater,Fictional,2,,,,,,,,,,,,,,,
null,,confidence_buffer,712763,confidence_buffer,,null,,,,,,,,,,,,,,,,,,
1058.699999988079,,unique_rating,713823,Claywater,,52,,,4,,,,,,,,,,,,,,,
null,,confidence_buffer,713926,confidence_buffer,,null,,,,,,,,,,,,,,,,,,
1409.5,,probe_rating,715338,probe_rating,,50,,,,2,0,,,,,,,,,,,,,
null,,confidence_buffer,715441,confidence_buffer,,null,,,,,,,,,,,,,,,,,,
5474.300000011921,,memorable_rating,720916,Claywater,,53,,,5,,,,,,,,,,,,,,,
null,,confidence_buffer,721019,confidence_buffer,,null,,,,,,,,,,,,,,,,,,
null,,thebreak,721521,break,,null,,,,,,,,,,,,,,,,,,
1662.1000000238419,,familiar_rating,723185,Cody,,49,Cody,US,1,,,,,,,,,,,,,,,
null,,confidence_buffer,723287,confidence_buffer,,null,,,,,,,,,,,,,,,,,,
1805,,unique_rating,725093,Cody,,50,,,2,,,,,,,,,,,,,,,
null,,confidence_buffer,725194,confidence_buffer,,null,,,,,,,,,,,,,,,,,,
2315.100000023842,,memorable_rating,727512,Cody,,51,,,3,,,,,,,,,,,,,,,
null,,confidence_buffer,727614,confidence_buffer,,null,,,,,,,,,,,,,,,,,,
null,,thebreak,728115,break,,null,,,,,,,,,,,,,,,,,,
2728.2000000476837,,familiar_rating,730844,Sitka,,50,Sitka,US,2,,,,,,,,,,,,,,,
null,,confidence_buffer,730946,confidence_buffer,,null,,,,,,,,,,,,,,,,,,
1290.5,,unique_rating,732238,Sitka,,51,,,3,,,,,,,,,,,,,,,
null,,confidence_buffer,732339,confidence_buffer,,null,,,,,,,,,,,,,,,,,,
1458.4000000357628,,memorable_rating,733799,Sitka,,52,,,4,,,,,,,,,,,,,,,
null,,confidence_buffer,733902,confidence_buffer,,null,,,,,,,,,,,,,,,,,,
null,,thebreak,734404,break,,null,,,,,,,,,,,,,,,,,,
2157.5,,familiar_rating,736563,Gardnerville,,49,Gardnerville,US,1,,,,,,,,,,,,,,,
null,,confidence_buffer,736666,confidence_buffer,,null,,,,,,,,,,,,,,,,,,
1573.300000011921,,unique_rating,738240,Gardnerville,,50,,,2,,,,,,,,,,,,,,,
null,,confidence_buffer,738343,confidence_buffer,,null,,,,,,,,,,,,,,,,,,
1522.9000000357628,,memorable_rating,739867,Gardnerville,,52,,,4,,,,,,,,,,,,,,,
null,,confidence_buffer,739970,confidence_buffer,,null,,,,,,,,,,,,,,,,,,
null,,thebreak,740472,break,,null,,,,,,,,,,,,,,,,,,
1770.699999988079,,familiar_rating,742244,Brookmere,,50,Brookmere,Fictional,2,,,,,,,,,,,,,,,
null,,confidence_buffer,742347,confidence_buffer,,null,,,,,,,,,,,,,,,,,,
1449.5,,probe_rating,743798,probe_rating,,53,,,,5,1,,,,,,,,,,,,,
null,,confidence_buffer,743901,confidence_buffer,,null,,,,,,,,,,,,,,,,,,
1300,,unique_rating,745203,Brookmere,,50,,,2,,,,,,,,,,,,,,,
null,,confidence_buffer,745306,confidence_buffer,,null,,,,,,,,,,,,,,,,,,
1498.300000011921,,memorable_rating,746805,Brookmere,,51,,,3,,,,,,,,,,,,,,,
null,,confidence_buffer,746907,confidence_buffer,,null,,,,,,,,,,,,,,,,,,
null,,thebreak,747410,break,,null,,,,,,,,,,,,,,,,,,
2074.099999964237,,familiar_rating,749486,Coralridge,,53,Coralridge,Fictional,5,,,,,,,,,,,,,,,
null,,confidence_buffer,749588,confidence_buffer,,null,,,,,,,,,,,,,,,,,,
1047.199999988079,,probe_rating,750638,probe_rating,,51,,,,3,0,,,,,,,,,,,,,
null,,confidence_buffer,750741,confidence_buffer,,null,,,,,,,,,,,,,,,,,,
2119.100000023842,,unique_rating,752862,Coralridge,,53,,,5,,,,,,,,,,,,,,,
null,,confidence_buffer,752963,confidence_buffer,,null,,,,,,,,,,,,,,,,,,
1131.2000000476837,,memorable_rating,754096,Coralridge,,51,,,3,,,,,,,,,,,,,,,
null,,confidence_buffer,754198,confidence_buffer,,null,,,,,,,,,,,,,,,,,,
null,,thebreak,754700,break,,null,,,,,,,,,,,,,,,,,,
1245,,familiar_rating,755947,Cedarwyn,,52,Cedarwyn,Fictional,4,,,,,,,,,,,,,,,
null,,confidence_buffer,756049,confidence_buffer,,null,,,,,,,,,,,,,,,,,,
898.8999999761581,,unique_rating,756950,Cedarwyn,,53,,,5,,,,,,,,,,,,,,,
null,,confidence_buffer,757052,confidence_buffer,,null,,,,,,,,,,,,,,,,,,
886.4000000357628,,memorable_rating,757940,Cedarwyn,,51,,,3,,,,,,,,,,,,,,,
null,,confidence_buffer,758042,confidence_buffer,,null,,,,,,,,,,,,,,,,,,
null,,thebreak,758548,break,,null,,,,,,,,,,,,,,,,,,
12325,,intro_0,770877,instruct,,32,,,,,,,,,,,,,,,,,,
17206.80000001192,,intro_1,788086,instruct,,32,,,,,,,,,,,,,,,,,,
11018.099999964237,,intro_2,799106,instruct,,32,,,,,,,,,,,,,,,,,,
null,,instruct_dir_4,800610,instruct,,null,,,,,,,,,,,,,,,,,,
8415.199999988079,,realistic_rating,809027,Albuquerque,,52,Albuquerque,US,4,,,,,,,,,,,,,,,
null,,confidence_buffer,809131,confidence_buffer,,null,,,,,,,,,,,,,,,,,,
3146.399999976158,,pt2_unique_rating,812279,Albuquerque,,51,,,3,,,,,,,,,,,,,,,
null,,confidence_buffer,812382,confidence_buffer,,null,,,,,,,,,,,,,,,,,,
1099.4000000357628,,pt2_memorable_rating,813482,Albuquerque,,50,,,2,,,,,,,,,,,,,,,
null,,confidence_buffer,813587,confidence_buffer,,null,,,,,,,,,,,,,,,,,,
2797.300000011921,,recognition_phase,816390,Albuquerque,,49,,,,,,old,1,1,,,,,,,,,,
null,,confidence_buffer,816493,confidence_buffer,,null,,,,,,,,,,,,,,,,,,
null,,thebreak,817002,break,,null,,,,,,,,,,,,,,,,,,
6737.600000023842,,realistic_rating,823742,Ironwood Heights,,52,Ironwood Heights,Fictional,4,,,,,,,,,,,,,,,
null,,confidence_buffer,823844,confidence_buffer,,null,,,,,,,,,,,,,,,,,,
1120.6000000238419,,pt2_unique_rating,824966,Ironwood Heights,,51,,,3,,,,,,,,,,,,,,,
null,,confidence_buffer,825076,confidence_buffer,,null,,,,,,,,,,,,,,,,,,
1876.300000011921,,pt2_memorable_rating,826954,Ironwood Heights,,50,,,2,,,,,,,,,,,,,,,
null,,confidence_buffer,827056,confidence_buffer,,null,,,,,,,,,,,,,,,,,,
2204.5,,recognition_phase,829263,Ironwood Heights,,52,,,,,,new,1,1,,,,,,,,,,
null,,confidence_buffer,829367,confidence_buffer,,null,,,,,,,,,,,,,,,,,,
null,,thebreak,829870,break,,null,,,,,,,,,,,,,,,,,,
3103.899999976158,,realistic_rating,832975,Briarfield,,50,Briarfield,Fictional,2,,,,,,,,,,,,,,,
null,,confidence_buffer,833078,confidence_buffer,,null,,,,,,,,,,,,,,,,,,
764.7999999523163,,pt2_unique_rating,833844,Briarfield,,51,,,3,,,,,,,,,,,,,,,
null,,confidence_buffer,833947,confidence_buffer,,null,,,,,,,,,,,,,,,,,,
1637.300000011921,,pt2_memorable_rating,835586,Briarfield,,52,,,4,,,,,,,,,,,,,,,
null,,confidence_buffer,835688,confidence_buffer,,null,,,,,,,,,,,,,,,,,,
1742.3999999761581,,recognition_phase,837433,Briarfield,,52,,,,,,new,1,1,,,,,,,,,,
null,,confidence_buffer,837536,confidence_buffer,,null,,,,,,,,,,,,,,,,,,
null,,thebreak,838038,break,,null,,,,,,,,,,,,,,,,,,
2632.800000011921,,realistic_rating,840672,Custer,,51,Custer,US,3,,,,,,,,,,,,,,,
null,,confidence_buffer,840774,confidence_buffer,,null,,,,,,,,,,,,,,,,,,
927,,pt2_unique_rating,841702,Custer,,52,,,4,,,,,,,,,,,,,,,
null,,confidence_buffer,841805,confidence_buffer,,null,,,,,,,,,,,,,,,,,,
1170.300000011921,,pt2_memorable_rating,842977,Custer,,51,,,3,,,,,,,,,,,,,,,
null,,confidence_buffer,843081,confidence_buffer,,null,,,,,,,,,,,,,,,,,,
1546.8999999761581,,recognition_phase,844629,Custer,,49,,,,,,old,1,1,,,,,,,,,,
null,,confidence_buffer,844732,confidence_buffer,,null,,,,,,,,,,,,,,,,,,
null,,thebreak,845234,break,,null,,,,,,,,,,,,,,,,,,
2044.199999988079,,realistic_rating,847279,Sunmere,,52,Sunmere,Fictional,4,,,,,,,,,,,,,,,
null,,confidence_buffer,847382,confidence_buffer,,null,,,,,,,,,,,,,,,,,,
922.6999999880791,,pt2_unique_rating,848306,Sunmere,,51,,,3,,,,,,,,,,,,,,,
null,,confidence_buffer,848409,confidence_buffer,,null,,,,,,,,,,,,,,,,,,
1375.1000000238419,,pt2_memorable_rating,849786,Sunmere,,52,,,4,,,,,,,,,,,,,,,
null,,confidence_buffer,849904,confidence_buffer,,null,,,,,,,,,,,,,,,,,,
1726.199999988079,,recognition_phase,851632,Sunmere,,49,,,,,,old,1,1,,,,,,,,,,
null,,confidence_buffer,851735,confidence_buffer,,null,,,,,,,,,,,,,,,,,,
null,,thebreak,852237,break,,null,,,,,,,,,,,,,,,,,,
3683.400000035763,,realistic_rating,855922,Baymarsh,,52,Baymarsh,Fictional,4,,,,,,,,,,,,,,,
null,,confidence_buffer,856025,confidence_buffer,,null,,,,,,,,,,,,,,,,,,
1068.699999988079,,pt2_unique_rating,857095,Baymarsh,,51,,,3,,,,,,,,,,,,,,,
null,,confidence_buffer,857197,confidence_buffer,,null,,,,,,,,,,,,,,,,,,
968.8999999761581,,pt2_memorable_rating,858168,Baymarsh,,52,,,4,,,,,,,,,,,,,,,
null,,confidence_buffer,858270,confidence_buffer,,null,,,,,,,,,,,,,,,,,,
1307,,recognition_phase,859578,Baymarsh,,52,,,,,,new,1,1,,,,,,,,,,
null,,confidence_buffer,859682,confidence_buffer,,null,,,,,,,,,,,,,,,,,,
null,,thebreak,860198,break,,null,,,,,,,,,,,,,,,,,,
2299.199999988079,,realistic_rating,862499,Boulder,,51,Boulder,US,3,,,,,,,,,,,,,,,
null,,confidence_buffer,862602,confidence_buffer,,null,,,,,,,,,,,,,,,,,,
2258.800000011921,,probe_rating,864862,probe_rating,,50,,,,2,1,,,,,,,,,,,,,
null,,confidence_buffer,864963,confidence_buffer,,null,,,,,,,,,,,,,,,,,,
1069.7000000476837,,pt2_unique_rating,866034,Boulder,,51,,,3,,,,,,,,,,,,,,,
null,,confidence_buffer,866136,confidence_buffer,,null,,,,,,,,,,,,,,,,,,
1555.8999999761581,,pt2_memorable_rating,867694,Boulder,,50,,,2,,,,,,,,,,,,,,,
null,,confidence_buffer,867796,confidence_buffer,,null,,,,,,,,,,,,,,,,,,
1507,,recognition_phase,869305,Boulder,,49,,,,,,old,1,1,,,,,,,,,,
null,,confidence_buffer,869407,confidence_buffer,,null,,,,,,,,,,,,,,,,,,
null,,thebreak,869909,break,,null,,,,,,,,,,,,,,,,,,
2116.300000011921,,realistic_rating,872027,Hawthorne Bluffs,,53,Hawthorne Bluffs,Fictional,5,,,,,,,,,,,,,,,
null,,confidence_buffer,872129,confidence_buffer,,null,,,,,,,,,,,,,,,,,,
1045,,pt2_unique_rating,873176,Hawthorne Bluffs,,51,,,3,,,,,,,,,,,,,,,
null,,confidence_buffer,873278,confidence_buffer,,null,,,,,,,,,,,,,,,,,,
744.8999999761581,,pt2_memorable_rating,874024,Hawthorne Bluffs,,52,,,4,,,,,,,,,,,,,,,
null,,confidence_buffer,874128,confidence_buffer,,null,,,,,,,,,,,,,,,,,,
1566,,recognition_phase,875696,Hawthorne Bluffs,,52,,,,,,new,1,1,,,,,,,,,,
null,,confidence_buffer,875808,confidence_buffer,,null,,,,,,,,,,,,,,,,,,
null,,thebreak,876310,break,,null,,,,,,,,,,,,,,,,,,
1762.8999999761581,,realistic_rating,878074,Bisbee,,50,Bisbee,US,2,,,,,,,,,,,,,,,
null,,confidence_buffer,878176,confidence_buffer,,null,,,,,,,,,,,,,,,,,,
987.5999999642372,,pt2_unique_rating,879166,Bisbee,,51,,,3,,,,,,,,,,,,,,,
null,,confidence_buffer,879267,confidence_buffer,,null,,,,,,,,,,,,,,,,,,
766.4000000357628,,pt2_memorable_rating,880035,Bisbee,,50,,,2,,,,,,,,,,,,,,,
null,,confidence_buffer,880137,confidence_buffer,,null,,,,,,,,,,,,,,,,,,
1278.7000000476837,,recognition_phase,881417,Bisbee,,52,,,,,,new,1,1,,,,,,,,,,
null,,confidence_buffer,881524,confidence_buffer,,null,,,,,,,,,,,,,,,,,,
null,,thebreak,882025,break,,null,,,,,,,,,,,,,,,,,,
3002.599999964237,,realistic_rating,885030,Medora,,51,Medora,US,3,,,,,,,,,,,,,,,
null,,confidence_buffer,885134,confidence_buffer,,null,,,,,,,,,,,,,,,,,,
1259.800000011921,,pt2_unique_rating,886395,Medora,,52,,,4,,,,,,,,,,,,,,,
null,,confidence_buffer,886498,confidence_buffer,,null,,,,,,,,,,,,,,,,,,
1066,,pt2_memorable_rating,887565,Medora,,51,,,3,,,,,,,,,,,,,,,
null,,confidence_buffer,887668,confidence_buffer,,null,,,,,,,,,,,,,,,,,,
1973.9000000357628,,recognition_phase,889643,Medora,,52,,,,,,new,1,1,,,,,,,,,,
null,,confidence_buffer,889746,confidence_buffer,,null,,,,,,,,,,,,,,,,,,
null,,thebreak,890247,break,,null,,,,,,,,,,,,,,,,,,
1983.800000011921,,realistic_rating,892233,Coralridge,,51,Coralridge,Fictional,3,,,,,,,,,,,,,,,
null,,confidence_buffer,892336,confidence_buffer,,null,,,,,,,,,,,,,,,,,,
791.8000000119209,,pt2_unique_rating,893129,Coralridge,,50,,,2,,,,,,,,,,,,,,,
null,,confidence_buffer,893232,confidence_buffer,,null,,,,,,,,,,,,,,,,,,
1213.9000000357628,,pt2_memorable_rating,894447,Coralridge,,51,,,3,,,,,,,,,,,,,,,
null,,confidence_buffer,894549,confidence_buffer,,null,,,,,,,,,,,,,,,,,,
1056,,recognition_phase,895607,Coralridge,,50,,,,,,old,1,1,,,,,,,,,,
null,,confidence_buffer,895711,confidence_buffer,,null,,,,,,,,,,,,,,,,,,
null,,thebreak,896212,break,,null,,,,,,,,,,,,,,,,,,
2137.300000011921,,realistic_rating,898351,Northbridge,,52,Northbridge,Fictional,4,,,,,,,,,,,,,,,
null,,confidence_buffer,898454,confidence_buffer,,null,,,,,,,,,,,,,,,,,,
1051.5,,pt2_unique_rating,899507,Northbridge,,51,,,3,,,,,,,,,,,,,,,
null,,confidence_buffer,899610,confidence_buffer,,null,,,,,,,,,,,,,,,,,,
1065.300000011921,,probe_rating,900677,probe_rating,,50,,,,2,1,,,,,,,,,,,,,
null,,confidence_buffer,900780,confidence_buffer,,null,,,,,,,,,,,,,,,,,,
1358.800000011921,,pt2_memorable_rating,902140,Northbridge,,51,,,3,,,,,,,,,,,,,,,
null,,confidence_buffer,902243,confidence_buffer,,null,,,,,,,,,,,,,,,,,,
1569,,recognition_phase,903815,Northbridge,,49,,,,,,old,0,0.9166666666666666,,,,,,,,,,
null,,confidence_buffer,903925,confidence_buffer,,null,,,,,,,,,,,,,,,,,,
null,,thebreak,904427,break,,null,,,,,,,,,,,,,,,,,,
3117.900000035763,,realistic_rating,907546,Peoria,,53,Peoria,US,5,,,,,,,,,,,,,,,
null,,confidence_buffer,907650,confidence_buffer,,null,,,,,,,,,,,,,,,,,,
1558.4000000357628,,pt2_unique_rating,909210,Peoria,,52,,,4,,,,,,,,,,,,,,,
null,,confidence_buffer,909312,confidence_buffer,,null,,,,,,,,,,,,,,,,,,
5166.600000023842,,pt2_memorable_rating,914481,Peoria,,51,,,3,,,,,,,,,,,,,,,
null,,confidence_buffer,914583,confidence_buffer,,null,,,,,,,,,,,,,,,,,,
1989.199999988079,,recognition_phase,916573,Peoria,,52,,,,,,new,1,0.9230769230769231,,,,,,,,,,
null,,confidence_buffer,916676,confidence_buffer,,null,,,,,,,,,,,,,,,,,,
null,,thebreak,917178,break,,null,,,,,,,,,,,,,,,,,,
2028.699999988079,,realistic_rating,919208,East Ladera,,52,East Ladera,Fictional,4,,,,,,,,,,,,,,,
null,,confidence_buffer,919312,confidence_buffer,,null,,,,,,,,,,,,,,,,,,
1000.1000000238419,,pt2_unique_rating,920313,East Ladera,,51,,,3,,,,,,,,,,,,,,,
null,,confidence_buffer,920417,confidence_buffer,,null,,,,,,,,,,,,,,,,,,
861.7000000476837,,pt2_memorable_rating,921280,East Ladera,,50,,,2,,,,,,,,,,,,,,,
null,,confidence_buffer,921382,confidence_buffer,,null,,,,,,,,,,,,,,,,,,
2431.300000011921,,probe_rating,923815,probe_rating,,52,,,,4,1,,,,,,,,,,,,,
null,,confidence_buffer,923919,confidence_buffer,,null,,,,,,,,,,,,,,,,,,
5535.100000023842,,recognition_phase,929456,East Ladera,,52,,,,,,new,0,0.8571428571428571,,,,,,,,,,
null,,confidence_buffer,929567,confidence_buffer,,null,,,,,,,,,,,,,,,,,,
null,,thebreak,930069,break,,null,,,,,,,,,,,,,,,,,,
2736.100000023842,,realistic_rating,932807,Cody,,51,Cody,US,3,,,,,,,,,,,,,,,
null,,confidence_buffer,932910,confidence_buffer,,null,,,,,,,,,,,,,,,,,,
14738.600000023842,,probe_rating,947650,probe_rating,,52,,,,4,1,,,,,,,,,,,,,
null,,confidence_buffer,947754,confidence_buffer,,null,,,,,,,,,,,,,,,,,,
2262.800000011921,,pt2_unique_rating,950018,Cody,,53,,,5,,,,,,,,,,,,,,,
null,,confidence_buffer,950121,confidence_buffer,,null,,,,,,,,,,,,,,,,,,
957.3000000119209,,pt2_memorable_rating,951080,Cody,,52,,,4,,,,,,,,,,,,,,,
null,,confidence_buffer,951182,confidence_buffer,,null,,,,,,,,,,,,,,,,,,
1537.0999999642372,,recognition_phase,952721,Cody,,49,,,,,,old,1,0.8666666666666667,,,,,,,,,,
null,,confidence_buffer,952824,confidence_buffer,,null,,,,,,,,,,,,,,,,,,
null,,thebreak,953325,break,,null,,,,,,,,,,,,,,,,,,
2934.2000000476837,,realistic_rating,956261,Manistee,,52,Manistee,US,4,,,,,,,,,,,,,,,
null,,confidence_buffer,956364,confidence_buffer,,null,,,,,,,,,,,,,,,,,,
1925.199999988079,,pt2_unique_rating,958291,Manistee,,51,,,3,,,,,,,,,,,,,,,
null,,confidence_buffer,958392,confidence_buffer,,null,,,,,,,,,,,,,,,,,,
1295.5,,probe_rating,959689,probe_rating,,52,,,,4,1,,,,,,,,,,,,,
null,,confidence_buffer,959792,confidence_buffer,,null,,,,,,,,,,,,,,,,,,
1480.8999999761581,,pt2_memorable_rating,961274,Manistee,,51,,,3,,,,,,,,,,,,,,,
null,,confidence_buffer,961377,confidence_buffer,,null,,,,,,,,,,,,,,,,,,
1366.300000011921,,recognition_phase,962744,Manistee,,49,,,,,,old,1,0.875,,,,,,,,,,
null,,confidence_buffer,962847,confidence_buffer,,null,,,,,,,,,,,,,,,,,,
null,,thebreak,963348,break,,null,,,,,,,,,,,,,,,,,,
1934.5999999642372,,realistic_rating,965284,Brookmere,,53,Brookmere,Fictional,5,,,,,,,,,,,,,,,
null,,confidence_buffer,965386,confidence_buffer,,null,,,,,,,,,,,,,,,,,,
1478.1000000238419,,pt2_unique_rating,966865,Brookmere,,51,,,3,,,,,,,,,,,,,,,
null,,confidence_buffer,966967,confidence_buffer,,null,,,,,,,,,,,,,,,,,,
679.8000000119209,,pt2_memorable_rating,967649,Brookmere,,53,,,5,,,,,,,,,,,,,,,
null,,confidence_buffer,967751,confidence_buffer,,null,,,,,,,,,,,,,,,,,,
1219.1000000238419,,recognition_phase,968971,Brookmere,,49,,,,,,old,1,0.8823529411764706,,,,,,,,,,
null,,confidence_buffer,969073,confidence_buffer,,null,,,,,,,,,,,,,,,,,,
null,,thebreak,969576,break,,null,,,,,,,,,,,,,,,,,,
1125.8999999761581,,realistic_rating,970704,Claywater,,53,Claywater,Fictional,5,,,,,,,,,,,,,,,
null,,confidence_buffer,970807,confidence_buffer,,null,,,,,,,,,,,,,,,,,,
796.8000000119209,,pt2_unique_rating,971606,Claywater,,52,,,4,,,,,,,,,,,,,,,
null,,confidence_buffer,971716,confidence_buffer,,null,,,,,,,,,,,,,,,,,,
816.3999999761581,,pt2_memorable_rating,972534,Claywater,,52,,,4,,,,,,,,,,,,,,,
null,,confidence_buffer,972636,confidence_buffer,,null,,,,,,,,,,,,,,,,,,
1565.199999988079,,recognition_phase,974203,Claywater,,52,,,,,,new,0,0.8333333333333334,,,,,,,,,,
null,,confidence_buffer,974306,confidence_buffer,,null,,,,,,,,,,,,,,,,,,
null,,thebreak,974808,break,,null,,,,,,,,,,,,,,,,,,
1190.300000011921,,realistic_rating,976000,Maravilla Springs,,53,Maravilla Springs,Fictional,5,,,,,,,,,,,,,,,
null,,confidence_buffer,976103,confidence_buffer,,null,,,,,,,,,,,,,,,,,,
2586,,pt2_unique_rating,978690,Maravilla Springs,,51,,,3,,,,,,,,,,,,,,,
null,,confidence_buffer,978792,confidence_buffer,,null,,,,,,,,,,,,,,,,,,
690.9000000357628,,pt2_memorable_rating,979484,Maravilla Springs,,52,,,4,,,,,,,,,,,,,,,
null,,confidence_buffer,979586,confidence_buffer,,null,,,,,,,,,,,,,,,,,,
1571.2999999523163,,recognition_phase,981159,Maravilla Springs,,49,,,,,,old,0,0.7894736842105263,,,,,,,,,,
null,,confidence_buffer,981263,confidence_buffer,,null,,,,,,,,,,,,,,,,,,
null,,thebreak,981778,break,,null,,,,,,,,,,,,,,,,,,
928.6999999880791,,realistic_rating,982708,Gardnerville,,53,Gardnerville,US,5,,,,,,,,,,,,,,,
null,,confidence_buffer,982811,confidence_buffer,,null,,,,,,,,,,,,,,,,,,
724.9000000357628,,pt2_unique_rating,983537,Gardnerville,,52,,,4,,,,,,,,,,,,,,,
null,,confidence_buffer,983642,confidence_buffer,,null,,,,,,,,,,,,,,,,,,
1122.6000000238419,,pt2_memorable_rating,984766,Gardnerville,,53,,,5,,,,,,,,,,,,,,,
null,,confidence_buffer,984881,confidence_buffer,,null,,,,,,,,,,,,,,,,,,
1028.5999999642372,,recognition_phase,985912,Gardnerville,,52,,,,,,new,0,0.75,,,,,,,,,,
null,,confidence_buffer,986014,confidence_buffer,,null,,,,,,,,,,,,,,,,,,
null,,thebreak,986516,break,,null,,,,,,,,,,,,,,,,,,
1611.800000011921,,realistic_rating,988129,Livingston,,51,Livingston,US,3,,,,,,,,,,,,,,,
null,,confidence_buffer,988231,confidence_buffer,,null,,,,,,,,,,,,,,,,,,
958.1000000238419,,pt2_unique_rating,989190,Livingston,,51,,,3,,,,,,,,,,,,,,,
null,,confidence_buffer,989292,confidence_buffer,,null,,,,,,,,,,,,,,,,,,
995.1999999880791,,pt2_memorable_rating,990289,Livingston,,51,,,3,,,,,,,,,,,,,,,
null,,confidence_buffer,990392,confidence_buffer,,null,,,,,,,,,,,,,,,,,,
1032.699999988079,,recognition_phase,991426,Livingston,,49,,,,,,old,1,0.7619047619047619,,,,,,,,,,
null,,confidence_buffer,991529,confidence_buffer,,null,,,,,,,,,,,,,,,,,,
null,,thebreak,992032,break,,null,,,,,,,,,,,,,,,,,,
970.7999999523163,,realistic_rating,993004,Gloucester,,53,Gloucester,US,5,,,,,,,,,,,,,,,
null,,confidence_buffer,993106,confidence_buffer,,null,,,,,,,,,,,,,,,,,,
630.5,,pt2_unique_rating,993738,Gloucester,,52,,,4,,,,,,,,,,,,,,,
null,,confidence_buffer,993851,confidence_buffer,,null,,,,,,,,,,,,,,,,,,
862,,pt2_memorable_rating,994715,Gloucester,,51,,,3,,,,,,,,,,,,,,,
null,,confidence_buffer,994816,confidence_buffer,,null,,,,,,,,,,,,,,,,,,
1649.5,,recognition_phase,996467,Gloucester,,52,,,,,,new,0,0.7272727272727273,,,,,,,,,,
null,,confidence_buffer,996581,confidence_buffer,,null,,,,,,,,,,,,,,,,,,
null,,thebreak,997084,break,,null,,,,,,,,,,,,,,,,,,
2961.600000023842,,realistic_rating,1000047,Cornwall,,53,Cornwall,US,5,,,,,,,,,,,,,,,
null,,confidence_buffer,1000149,confidence_buffer,,null,,,,,,,,,,,,,,,,,,
1395.3999999761581,,pt2_unique_rating,1001546,Cornwall,,51,,,3,,,,,,,,,,,,,,,
null,,confidence_buffer,1001648,confidence_buffer,,null,,,,,,,,,,,,,,,,,,
1074.5999999642372,,probe_rating,1002724,probe_rating,,51,,,,3,1,,,,,,,,,,,,,
null,,confidence_buffer,1002834,confidence_buffer,,null,,,,,,,,,,,,,,,,,,
1027.199999988079,,pt2_memorable_rating,1003863,Cornwall,,50,,,2,,,,,,,,,,,,,,,
null,,confidence_buffer,1003965,confidence_buffer,,null,,,,,,,,,,,,,,,,,,
1031.300000011921,,recognition_phase,1004997,Cornwall,,49,,,,,,old,1,0.7391304347826086,,,,,,,,,,
null,,confidence_buffer,1005099,confidence_buffer,,null,,,,,,,,,,,,,,,,,,
null,,thebreak,1005602,break,,null,,,,,,,,,,,,,,,,,,
1628,,realistic_rating,1007232,Delaro Park,,53,Delaro Park,Fictional,5,,,,,,,,,,,,,,,
null,,confidence_buffer,1007334,confidence_buffer,,null,,,,,,,,,,,,,,,,,,
442,,pt2_unique_rating,1007779,Delaro Park,,52,,,4,,,,,,,,,,,,,,,
null,,confidence_buffer,1007882,confidence_buffer,,null,,,,,,,,,,,,,,,,,,
1216.300000011921,,pt2_memorable_rating,1009100,Delaro Park,,53,,,5,,,,,,,,,,,,,,,
null,,confidence_buffer,1009203,confidence_buffer,,null,,,,,,,,,,,,,,,,,,
1850.4000000357628,,recognition_phase,1011055,Delaro Park,,49,,,,,,old,1,0.75,,,,,,,,,,
null,,confidence_buffer,1011159,confidence_buffer,,null,,,,,,,,,,,,,,,,,,
null,,thebreak,1011661,break,,null,,,,,,,,,,,,,,,,,,
3051.800000011921,,realistic_rating,1014715,Coeur d'Alene,,52,Coeur d'Alene,US,4,,,,,,,,,,,,,,,
null,,confidence_buffer,1014818,confidence_buffer,,null,,,,,,,,,,,,,,,,,,
879.5999999642372,,pt2_unique_rating,1015699,Coeur d'Alene,,50,,,2,,,,,,,,,,,,,,,
null,,confidence_buffer,1015804,confidence_buffer,,null,,,,,,,,,,,,,,,,,,
630.5,,pt2_memorable_rating,1016436,Coeur d'Alene,,49,,,1,,,,,,,,,,,,,,,
null,,confidence_buffer,1016540,confidence_buffer,,null,,,,,,,,,,,,,,,,,,
1601.6000000238419,,recognition_phase,1018143,Coeur d'Alene,,52,,,,,,new,1,0.76,,,,,,,,,,
null,,confidence_buffer,1018246,confidence_buffer,,null,,,,,,,,,,,,,,,,,,
null,,thebreak,1018750,break,,null,,,,,,,,,,,,,,,,,,
1102.300000011921,,realistic_rating,1019854,Bowling Green,,53,Bowling Green,US,5,,,,,,,,,,,,,,,
null,,confidence_buffer,1019956,confidence_buffer,,null,,,,,,,,,,,,,,,,,,
675.1999999880791,,pt2_unique_rating,1020633,Bowling Green,,51,,,3,,,,,,,,,,,,,,,
null,,confidence_buffer,1020736,confidence_buffer,,null,,,,,,,,,,,,,,,,,,
1338.6000000238419,,probe_rating,1022076,probe_rating,,53,,,,5,1,,,,,,,,,,,,,
null,,confidence_buffer,1022180,confidence_buffer,,null,,,,,,,,,,,,,,,,,,
2499.399999976158,,pt2_memorable_rating,1024680,Bowling Green,,52,,,4,,,,,,,,,,,,,,,
null,,confidence_buffer,1024783,confidence_buffer,,null,,,,,,,,,,,,,,,,,,
1217.7999999523163,,recognition_phase,1026003,Bowling Green,,52,,,,,,new,1,0.7692307692307693,,,,,,,,,,
null,,confidence_buffer,1026105,confidence_buffer,,null,,,,,,,,,,,,,,,,,,
null,,thebreak,1026607,break,,null,,,,,,,,,,,,,,,,,,
1471.5999999642372,,realistic_rating,1028080,Driftwood Bay,,52,Driftwood Bay,Fictional,4,,,,,,,,,,,,,,,
null,,confidence_buffer,1028183,confidence_buffer,,null,,,,,,,,,,,,,,,,,,
879.6999999880791,,pt2_unique_rating,1029064,Driftwood Bay,,51,,,3,,,,,,,,,,,,,,,
null,,confidence_buffer,1029167,confidence_buffer,,null,,,,,,,,,,,,,,,,,,
1073.5,,probe_rating,1030242,probe_rating,,50,,,,2,1,,,,,,,,,,,,,
null,,confidence_buffer,1030344,confidence_buffer,,null,,,,,,,,,,,,,,,,,,
1390,,pt2_memorable_rating,1031736,Driftwood Bay,,51,,,3,,,,,,,,,,,,,,,
null,,confidence_buffer,1031850,confidence_buffer,,null,,,,,,,,,,,,,,,,,,
676.9000000357628,,recognition_phase,1032529,Driftwood Bay,,49,,,,,,old,1,0.7777777777777778,,,,,,,,,,
null,,confidence_buffer,1032631,confidence_buffer,,null,,,,,,,,,,,,,,,,,,
null,,thebreak,1033133,break,,null,,,,,,,,,,,,,,,,,,
1116.1000000238419,,realistic_rating,1034251,Delaware City,,53,Delaware City,US,5,,,,,,,,,,,,,,,
null,,confidence_buffer,1034354,confidence_buffer,,null,,,,,,,,,,,,,,,,,,
906.8999999761581,,pt2_unique_rating,1035262,Delaware City,,52,,,4,,,,,,,,,,,,,,,
null,,confidence_buffer,1035364,confidence_buffer,,null,,,,,,,,,,,,,,,,,,
732.1000000238419,,pt2_memorable_rating,1036098,Delaware City,,51,,,3,,,,,,,,,,,,,,,
null,,confidence_buffer,1036200,confidence_buffer,,null,,,,,,,,,,,,,,,,,,
1050.199999988079,,probe_rating,1037252,probe_rating,,52,,,,4,1,,,,,,,,,,,,,
null,,confidence_buffer,1037354,confidence_buffer,,null,,,,,,,,,,,,,,,,,,
759,,recognition_phase,1038115,Delaware City,,49,,,,,,old,0,0.75,,,,,,,,,,
null,,confidence_buffer,1038218,confidence_buffer,,null,,,,,,,,,,,,,,,,,,
null,,thebreak,1038721,break,,null,,,,,,,,,,,,,,,,,,
1091.5999999642372,,realistic_rating,1039814,Sisters,,53,Sisters,US,5,,,,,,,,,,,,,,,
null,,confidence_buffer,1039918,confidence_buffer,,null,,,,,,,,,,,,,,,,,,
873.8000000119209,,pt2_unique_rating,1040793,Sisters,,51,,,3,,,,,,,,,,,,,,,
null,,confidence_buffer,1040896,confidence_buffer,,null,,,,,,,,,,,,,,,,,,
607.8000000119209,,pt2_memorable_rating,1041505,Sisters,,52,,,4,,,,,,,,,,,,,,,
null,,confidence_buffer,1041607,confidence_buffer,,null,,,,,,,,,,,,,,,,,,
1145.300000011921,,recognition_phase,1042754,Sisters,,49,,,,,,old,0,0.7241379310344828,,,,,,,,,,
null,,confidence_buffer,1042856,confidence_buffer,,null,,,,,,,,,,,,,,,,,,
null,,thebreak,1043359,break,,null,,,,,,,,,,,,,,,,,,
1038,,realistic_rating,1044399,Newport,,53,Newport,US,5,,,,,,,,,,,,,,,
null,,confidence_buffer,1044501,confidence_buffer,,null,,,,,,,,,,,,,,,,,,
1009.3999999761581,,pt2_unique_rating,1045512,Newport,,52,,,4,,,,,,,,,,,,,,,
null,,confidence_buffer,1045614,confidence_buffer,,null,,,,,,,,,,,,,,,,,,
568.5,,pt2_memorable_rating,1046185,Newport,,51,,,3,,,,,,,,,,,,,,,
null,,confidence_buffer,1046287,confidence_buffer,,null,,,,,,,,,,,,,,,,,,
1081.3999999761581,,recognition_phase,1047370,Newport,,49,,,,,,old,1,0.7333333333333333,,,,,,,,,,
null,,confidence_buffer,1047473,confidence_buffer,,null,,,,,,,,,,,,,,,,,,
null,,thebreak,1047975,break,,null,,,,,,,,,,,,,,,,,,
1041.6000000238419,,realistic_rating,1049018,Duck,,53,Duck,US,5,,,,,,,,,,,,,,,
null,,confidence_buffer,1049121,confidence_buffer,,null,,,,,,,,,,,,,,,,,,
889.8000000119209,,pt2_unique_rating,1050012,Duck,,52,,,4,,,,,,,,,,,,,,,
null,,confidence_buffer,1050115,confidence_buffer,,null,,,,,,,,,,,,,,,,,,
627.4000000357628,,pt2_memorable_rating,1050744,Duck,,51,,,3,,,,,,,,,,,,,,,
null,,confidence_buffer,1050847,confidence_buffer,,null,,,,,,,,,,,,,,,,,,
2231.399999976158,,recognition_phase,1053080,Duck,,52,,,,,,new,1,0.7419354838709677,,,,,,,,,,
null,,confidence_buffer,1053182,confidence_buffer,,null,,,,,,,,,,,,,,,,,,
null,,thebreak,1053685,break,,null,,,,,,,,,,,,,,,,,,
1440.800000011921,,realistic_rating,1055127,Lakehaven,,53,Lakehaven,Fictional,5,,,,,,,,,,,,,,,
null,,confidence_buffer,1055230,confidence_buffer,,null,,,,,,,,,,,,,,,,,,
1064.4000000357628,,pt2_unique_rating,1056296,Lakehaven,,52,,,4,,,,,,,,,,,,,,,
null,,confidence_buffer,1056408,confidence_buffer,,null,,,,,,,,,,,,,,,,,,
983.5999999642372,,pt2_memorable_rating,1057393,Lakehaven,,51,,,3,,,,,,,,,,,,,,,
null,,confidence_buffer,1057495,confidence_buffer,,null,,,,,,,,,,,,,,,,,,
1497.4000000357628,,recognition_phase,1058994,Lakehaven,,49,,,,,,old,1,0.75,,,,,,,,,,
null,,confidence_buffer,1059096,confidence_buffer,,null,,,,,,,,,,,,,,,,,,
null,,thebreak,1059598,break,,null,,,,,,,,,,,,,,,,,,
996,,realistic_rating,1060595,Millstone,,53,Millstone,Fictional,5,,,,,,,,,,,,,,,
null,,confidence_buffer,1060699,confidence_buffer,,null,,,,,,,,,,,,,,,,,,
5078.300000011921,,pt2_unique_rating,1065779,Millstone,,52,,,4,,,,,,,,,,,,,,,
null,,confidence_buffer,1065881,confidence_buffer,,null,,,,,,,,,,,,,,,,,,
1340.4000000357628,,probe_rating,1067223,probe_rating,,52,,,,4,1,,,,,,,,,,,,,
null,,confidence_buffer,1067326,confidence_buffer,,null,,,,,,,,,,,,,,,,,,
1886.4000000357628,,pt2_memorable_rating,1069214,Millstone,,49,,,1,,,,,,,,,,,,,,,
null,,confidence_buffer,1069317,confidence_buffer,,null,,,,,,,,,,,,,,,,,,
1079.2000000476837,,recognition_phase,1070397,Millstone,,51,,,,,,new,1,0.7575757575757576,,,,,,,,,,
null,,confidence_buffer,1070500,confidence_buffer,,null,,,,,,,,,,,,,,,,,,
null,,thebreak,1071002,break,,null,,,,,,,,,,,,,,,,,,
1252.199999988079,,realistic_rating,1072256,Hilo,,53,Hilo,US,5,,,,,,,,,,,,,,,
null,,confidence_buffer,1072358,confidence_buffer,,null,,,,,,,,,,,,,,,,,,
1548.7000000476837,,pt2_unique_rating,1073908,Hilo,,52,,,4,,,,,,,,,,,,,,,
null,,confidence_buffer,1074010,confidence_buffer,,null,,,,,,,,,,,,,,,,,,
1305.699999988079,,pt2_memorable_rating,1075317,Hilo,,51,,,3,,,,,,,,,,,,,,,
null,,confidence_buffer,1075427,confidence_buffer,,null,,,,,,,,,,,,,,,,,,
1637.5,,recognition_phase,1077066,Hilo,,52,,,,,,new,1,0.7647058823529411,,,,,,,,,,
null,,confidence_buffer,1077168,confidence_buffer,,null,,,,,,,,,,,,,,,,,,
null,,thebreak,1077671,break,,null,,,,,,,,,,,,,,,,,,
2227.5,,realistic_rating,1079900,Ashford Hills,,53,Ashford Hills,Fictional,5,,,,,,,,,,,,,,,
null,,confidence_buffer,1080010,confidence_buffer,,null,,,,,,,,,,,,,,,,,,
2379.800000011921,,pt2_unique_rating,1082391,Ashford Hills,,52,,,4,,,,,,,,,,,,,,,
null,,confidence_buffer,1082494,confidence_buffer,,null,,,,,,,,,,,,,,,,,,
2519.100000023842,,pt2_memorable_rating,1085015,Ashford Hills,,51,,,3,,,,,,,,,,,,,,,
null,,confidence_buffer,1085117,confidence_buffer,,null,,,,,,,,,,,,,,,,,,
934.0999999642372,,probe_rating,1086052,probe_rating,,50,,,,2,1,,,,,,,,,,,,,
null,,confidence_buffer,1086154,confidence_buffer,,null,,,,,,,,,,,,,,,,,,
1039.6000000238419,,recognition_phase,1087195,Ashford Hills,,49,,,,,,old,1,0.7714285714285715,,,,,,,,,,
null,,confidence_buffer,1087297,confidence_buffer,,null,,,,,,,,,,,,,,,,,,
null,,thebreak,1087799,break,,null,,,,,,,,,,,,,,,,,,
1355,,realistic_rating,1089156,Sitka,,53,Sitka,US,5,,,,,,,,,,,,,,,
null,,confidence_buffer,1089272,confidence_buffer,,null,,,,,,,,,,,,,,,,,,
681.8000000119209,,pt2_unique_rating,1089955,Sitka,,52,,,4,,,,,,,,,,,,,,,
null,,confidence_buffer,1090056,confidence_buffer,,null,,,,,,,,,,,,,,,,,,
754.3999999761581,,pt2_memorable_rating,1090812,Sitka,,51,,,3,,,,,,,,,,,,,,,
null,,confidence_buffer,1090914,confidence_buffer,,null,,,,,,,,,,,,,,,,,,
1352,,recognition_phase,1092267,Sitka,,52,,,,,,new,0,0.75,,,,,,,,,,
null,,confidence_buffer,1092371,confidence_buffer,,null,,,,,,,,,,,,,,,,,,
null,,thebreak,1092873,break,,null,,,,,,,,,,,,,,,,,,
1862.0999999642372,,realistic_rating,1094737,Cleveland,,53,Cleveland,US,5,,,,,,,,,,,,,,,
null,,confidence_buffer,1094850,confidence_buffer,,null,,,,,,,,,,,,,,,,,,
992.3000000119209,,pt2_unique_rating,1095844,Cleveland,,52,,,4,,,,,,,,,,,,,,,
null,,confidence_buffer,1095946,confidence_buffer,,null,,,,,,,,,,,,,,,,,,
933.1000000238419,,pt2_memorable_rating,1096881,Cleveland,,51,,,3,,,,,,,,,,,,,,,
null,,confidence_buffer,1096983,confidence_buffer,,null,,,,,,,,,,,,,,,,,,
1031.2999999523163,,probe_rating,1098016,probe_rating,,52,,,,4,1,,,,,,,,,,,,,
null,,confidence_buffer,1098123,confidence_buffer,,null,,,,,,,,,,,,,,,,,,
1611.300000011921,,recognition_phase,1099736,Cleveland,,52,,,,,,new,1,0.7567567567567568,,,,,,,,,,
null,,confidence_buffer,1099848,confidence_buffer,,null,,,,,,,,,,,,,,,,,,
null,,thebreak,1100350,break,,null,,,,,,,,,,,,,,,,,,
811.5,,realistic_rating,1101163,Sammamish,,53,Sammamish,US,5,,,,,,,,,,,,,,,
null,,confidence_buffer,1101265,confidence_buffer,,null,,,,,,,,,,,,,,,,,,
561.8999999761581,,pt2_unique_rating,1101828,Sammamish,,52,,,4,,,,,,,,,,,,,,,
null,,confidence_buffer,1101931,confidence_buffer,,null,,,,,,,,,,,,,,,,,,
1169.9000000357628,,pt2_memorable_rating,1103102,Sammamish,,49,,,1,,,,,,,,,,,,,,,
null,,confidence_buffer,1103207,confidence_buffer,,null,,,,,,,,,,,,,,,,,,
1085.6000000238419,,recognition_phase,1104294,Sammamish,,52,,,,,,new,1,0.7631578947368421,,,,,,,,,,
null,,confidence_buffer,1104396,confidence_buffer,,null,,,,,,,,,,,,,,,,,,
null,,thebreak,1104900,break,,null,,,,,,,,,,,,,,,,,,
2702,,realistic_rating,1107604,Lake of the Ozarks,,53,Lake of the Ozarks,US,5,,,,,,,,,,,,,,,
null,,confidence_buffer,1107706,confidence_buffer,,null,,,,,,,,,,,,,,,,,,
1572.0999999642372,,pt2_unique_rating,1109279,Lake of the Ozarks,,53,,,5,,,,,,,,,,,,,,,
null,,confidence_buffer,1109381,confidence_buffer,,null,,,,,,,,,,,,,,,,,,
1105.5,,probe_rating,1110488,probe_rating,,51,,,,3,1,,,,,,,,,,,,,
null,,confidence_buffer,1110591,confidence_buffer,,null,,,,,,,,,,,,,,,,,,
2266.2000000476837,,pt2_memorable_rating,1112859,Lake of the Ozarks,,49,,,1,,,,,,,,,,,,,,,
null,,confidence_buffer,1112961,confidence_buffer,,null,,,,,,,,,,,,,,,,,,
1580.5,,recognition_phase,1114543,Lake of the Ozarks,,52,,,,,,new,1,0.7692307692307693,,,,,,,,,,
null,,confidence_buffer,1114646,confidence_buffer,,null,,,,,,,,,,,,,,,,,,
null,,thebreak,1115149,break,,null,,,,,,,,,,,,,,,,,,
1724.5,,realistic_rating,1116875,West Palm Beach,,53,West Palm Beach,US,5,,,,,,,,,,,,,,,
null,,confidence_buffer,1116976,confidence_buffer,,null,,,,,,,,,,,,,,,,,,
2561.800000011921,,pt2_unique_rating,1119540,West Palm Beach,,53,,,5,,,,,,,,,,,,,,,
null,,confidence_buffer,1119644,confidence_buffer,,null,,,,,,,,,,,,,,,,,,
2702.600000023842,,pt2_memorable_rating,1122348,West Palm Beach,,52,,,4,,,,,,,,,,,,,,,
null,,confidence_buffer,1122451,confidence_buffer,,null,,,,,,,,,,,,,,,,,,
1868.0999999642372,,recognition_phase,1124321,West Palm Beach,,49,,,,,,old,1,0.775,,,,,,,,,,
null,,confidence_buffer,1124423,confidence_buffer,,null,,,,,,,,,,,,,,,,,,
null,,thebreak,1124925,break,,null,,,,,,,,,,,,,,,,,,
1321.5,,realistic_rating,1126248,Cedarwyn,,53,Cedarwyn,Fictional,5,,,,,,,,,,,,,,,
null,,confidence_buffer,1126352,confidence_buffer,,null,,,,,,,,,,,,,,,,,,
734.6999999880791,,pt2_unique_rating,1127088,Cedarwyn,,52,,,4,,,,,,,,,,,,,,,
null,,confidence_buffer,1127191,confidence_buffer,,null,,,,,,,,,,,,,,,,,,
620.7999999523163,,pt2_memorable_rating,1127813,Cedarwyn,,53,,,5,,,,,,,,,,,,,,,
null,,confidence_buffer,1127916,confidence_buffer,,null,,,,,,,,,,,,,,,,,,
1394.699999988079,,recognition_phase,1129313,Cedarwyn,,52,,,,,,new,0,0.7560975609756098,,,,,,,,,,
null,,confidence_buffer,1129415,confidence_buffer,,null,,,,,,,,,,,,,,,,,,
null,,thebreak,1129917,break,,null,,,,,,,,,,,,,,,,,,
520.6999999880791,,realistic_rating,1130439,Hollendale,,53,Hollendale,Fictional,5,,,,,,,,,,,,,,,
null,,confidence_buffer,1130542,confidence_buffer,,null,,,,,,,,,,,,,,,,,,
580.5999999642372,,pt2_unique_rating,1131124,Hollendale,,53,,,5,,,,,,,,,,,,,,,
null,,confidence_buffer,1131225,confidence_buffer,,null,,,,,,,,,,,,,,,,,,
782.3999999761581,,pt2_memorable_rating,1132009,Hollendale,,53,,,5,,,,,,,,,,,,,,,
null,,confidence_buffer,1132111,confidence_buffer,,null,,,,,,,,,,,,,,,,,,
1001.6000000238419,,recognition_phase,1133114,Hollendale,,52,,,,,,new,1,0.7619047619047619,,,,,,,,,,
null,,confidence_buffer,1133218,confidence_buffer,,null,,,,,,,,,,,,,,,,,,
null,,thebreak,1133720,break,,null,,,,,,,,,,,,,,,,,,
678.6999999880791,,realistic_rating,1134400,Folly Beach,,53,Folly Beach,US,5,,,,,,,,,,,,,,,
null,,confidence_buffer,1134504,confidence_buffer,,null,,,,,,,,,,,,,,,,,,
1684.5999999642372,,pt2_unique_rating,1136189,Folly Beach,,53,,,5,,,,,,,,,,,,,,,
null,,confidence_buffer,1136292,confidence_buffer,,null,,,,,,,,,,,,,,,,,,
904.1999999880791,,pt2_memorable_rating,1137198,Folly Beach,,51,,,3,,,,,,,,,,,,,,,
null,,confidence_buffer,1137301,confidence_buffer,,null,,,,,,,,,,,,,,,,,,
1072.199999988079,,recognition_phase,1138376,Folly Beach,,52,,,,,,new,1,0.7674418604651163,,,,,,,,,,
null,,confidence_buffer,1138478,confidence_buffer,,null,,,,,,,,,,,,,,,,,,
null,,thebreak,1138981,break,,null,,,,,,,,,,,,,,,,,,
929.6000000238419,,realistic_rating,1139912,Athens,,52,Athens,US,4,,,,,,,,,,,,,,,
null,,confidence_buffer,1140014,confidence_buffer,,null,,,,,,,,,,,,,,,,,,
702.6999999880791,,pt2_unique_rating,1140718,Athens,,52,,,4,,,,,,,,,,,,,,,
null,,confidence_buffer,1140819,confidence_buffer,,null,,,,,,,,,,,,,,,,,,
723.6000000238419,,pt2_memorable_rating,1141545,Athens,,51,,,3,,,,,,,,,,,,,,,
null,,confidence_buffer,1141648,confidence_buffer,,null,,,,,,,,,,,,,,,,,,
1007.3000000119209,,recognition_phase,1142656,Athens,,49,,,,,,old,1,0.7727272727272727,,,,,,,,,,
null,,confidence_buffer,1142759,confidence_buffer,,null,,,,,,,,,,,,,,,,,,
null,,thebreak,1143263,break,,null,,,,,,,,,,,,,,,,,,
749.8999999761581,,realistic_rating,1144014,Racine,,53,Racine,US,5,,,,,,,,,,,,,,,
null,,confidence_buffer,1144117,confidence_buffer,,null,,,,,,,,,,,,,,,,,,
652.8999999761581,,pt2_unique_rating,1144772,Racine,,52,,,4,,,,,,,,,,,,,,,
null,,confidence_buffer,1144875,confidence_buffer,,null,,,,,,,,,,,,,,,,,,
642.1000000238419,,pt2_memorable_rating,1145518,Racine,,51,,,3,,,,,,,,,,,,,,,
null,,confidence_buffer,1145620,confidence_buffer,,null,,,,,,,,,,,,,,,,,,
1261.5,,recognition_phase,1146884,Racine,,52,,,,,,new,1,0.7777777777777778,,,,,,,,,,
null,,confidence_buffer,1146987,confidence_buffer,,null,,,,,,,,,,,,,,,,,,
null,,thebreak,1147488,break,,null,,,,,,,,,,,,,,,,,,
1156.6000000238419,,realistic_rating,1148647,Falconridge,,53,Falconridge,Fictional,5,,,,,,,,,,,,,,,
null,,confidence_buffer,1148756,confidence_buffer,,null,,,,,,,,,,,,,,,,,,
786,,pt2_unique_rating,1149543,Falconridge,,52,,,4,,,,,,,,,,,,,,,
null,,confidence_buffer,1149646,confidence_buffer,,null,,,,,,,,,,,,,,,,,,
705,,pt2_memorable_rating,1150352,Falconridge,,51,,,3,,,,,,,,,,,,,,,
null,,confidence_buffer,1150455,confidence_buffer,,null,,,,,,,,,,,,,,,,,,
1043.6000000238419,,recognition_phase,1151500,Falconridge,,52,,,,,,new,1,0.782608695652174,,,,,,,,,,
null,,confidence_buffer,1151603,confidence_buffer,,null,,,,,,,,,,,,,,,,,,
null,,thebreak,1152107,break,,null,,,,,,,,,,,,,,,,,,
1510.9000000357628,,realistic_rating,1153620,Stonebrook,,52,Stonebrook,Fictional,4,,,,,,,,,,,,,,,
null,,confidence_buffer,1153722,confidence_buffer,,null,,,,,,,,,,,,,,,,,,
1230.1000000238419,,pt2_unique_rating,1154953,Stonebrook,,53,,,5,,,,,,,,,,,,,,,
null,,confidence_buffer,1155055,confidence_buffer,,null,,,,,,,,,,,,,,,,,,
1825.9000000357628,,pt2_memorable_rating,1156882,Stonebrook,,52,,,4,,,,,,,,,,,,,,,
null,,confidence_buffer,1156985,confidence_buffer,,null,,,,,,,,,,,,,,,,,,
969.5999999642372,,probe_rating,1157956,probe_rating,,50,,,,2,1,,,,,,,,,,,,,
null,,confidence_buffer,1158058,confidence_buffer,,null,,,,,,,,,,,,,,,,,,
2482.900000035763,,recognition_phase,1160543,Stonebrook,,52,,,,,,new,1,0.7872340425531915,,,,,,,,,,
null,,confidence_buffer,1160645,confidence_buffer,,null,,,,,,,,,,,,,,,,,,
null,,thebreak,1161147,break,,null,,,,,,,,,,,,,,,,,,
4489.300000011921,,realistic_rating,1165638,Crestwood,,52,Crestwood,Fictional,4,,,,,,,,,,,,,,,
null,,confidence_buffer,1165739,confidence_buffer,,null,,,,,,,,,,,,,,,,,,
805.3999999761581,,pt2_unique_rating,1166547,Crestwood,,51,,,3,,,,,,,,,,,,,,,
null,,confidence_buffer,1166649,confidence_buffer,,null,,,,,,,,,,,,,,,,,,
1022.7000000476837,,pt2_memorable_rating,1167673,Crestwood,,51,,,3,,,,,,,,,,,,,,,
null,,confidence_buffer,1167775,confidence_buffer,,null,,,,,,,,,,,,,,,,,,
1186.699999988079,,recognition_phase,1168964,Crestwood,,49,,,,,,old,0,0.7708333333333334,,,,,,,,,,
null,,confidence_buffer,1169066,confidence_buffer,,null,,,,,,,,,,,,,,,,,,
null,,thebreak,1169568,break,,null,,,,,,,,,,,,,,,,,,
2285.2999999523163,,realistic_rating,1171855,Willowford,,52,Willowford,Fictional,4,,,,,,,,,,,,,,,
null,,confidence_buffer,1171959,confidence_buffer,,null,,,,,,,,,,,,,,,,,,
943,,pt2_unique_rating,1172903,Willowford,,51,,,3,,,,,,,,,,,,,,,
null,,confidence_buffer,1173009,confidence_buffer,,null,,,,,,,,,,,,,,,,,,
856.4000000357628,,pt2_memorable_rating,1173866,Willowford,,50,,,2,,,,,,,,,,,,,,,
null,,confidence_buffer,1173969,confidence_buffer,,null,,,,,,,,,,,,,,,,,,
794.5999999642372,,recognition_phase,1174766,Willowford,,49,,,,,,old,1,0.7755102040816326,,,,,,,,,,
null,,confidence_buffer,1174868,confidence_buffer,,null,,,,,,,,,,,,,,,,,,
null,,thebreak,1175371,break,,null,,,,,,,,,,,,,,,,,,
1189,,realistic_rating,1176562,Highvale,,53,Highvale,Fictional,5,,,,,,,,,,,,,,,
null,,confidence_buffer,1176664,confidence_buffer,,null,,,,,,,,,,,,,,,,,,
500.69999998807907,,pt2_unique_rating,1177166,Highvale,,52,,,4,,,,,,,,,,,,,,,
null,,confidence_buffer,1177269,confidence_buffer,,null,,,,,,,,,,,,,,,,,,
696.5,,pt2_memorable_rating,1177968,Highvale,,51,,,3,,,,,,,,,,,,,,,
null,,confidence_buffer,1178071,confidence_buffer,,null,,,,,,,,,,,,,,,,,,
935.9000000357628,,recognition_phase,1179008,Highvale,,49,,,,,,old,1,0.78,,,,,,,,,,
null,,confidence_buffer,1179111,confidence_buffer,,null,,,,,,,,,,,,,,,,,,
null,,thebreak,1179613,break,,null,,,,,,,,,,,,,,,,,,
840,,realistic_rating,1180455,Yukon,,53,Yukon,US,5,,,,,,,,,,,,,,,
null,,confidence_buffer,1180558,confidence_buffer,,null,,,,,,,,,,,,,,,,,,
682.6999999880791,,pt2_unique_rating,1181242,Yukon,,52,,,4,,,,,,,,,,,,,,,
null,,confidence_buffer,1181345,confidence_buffer,,null,,,,,,,,,,,,,,,,,,
538.5,,pt2_memorable_rating,1181884,Yukon,,51,,,3,,,,,,,,,,,,,,,
null,,confidence_buffer,1181987,confidence_buffer,,null,,,,,,,,,,,,,,,,,,
1076.6000000238419,,recognition_phase,1183065,Yukon,,52,,,,,,new,1,0.7843137254901961,,,,,,,,,,
null,,confidence_buffer,1183177,confidence_buffer,,null,,,,,,,,,,,,,,,,,,
null,,thebreak,1183680,break,,null,,,,,,,,,,,,,,,,,,
543.6000000238419,,realistic_rating,1184226,Redgrove,,53,Redgrove,Fictional,5,,,,,,,,,,,,,,,
null,,confidence_buffer,1184329,confidence_buffer,,null,,,,,,,,,,,,,,,,,,
554.1999999880791,,pt2_unique_rating,1184886,Redgrove,,52,,,4,,,,,,,,,,,,,,,
null,,confidence_buffer,1184989,confidence_buffer,,null,,,,,,,,,,,,,,,,,,
1030.5,,pt2_memorable_rating,1186020,Redgrove,,51,,,3,,,,,,,,,,,,,,,
null,,confidence_buffer,1186123,confidence_buffer,,null,,,,,,,,,,,,,,,,,,
1092.9000000357628,,recognition_phase,1187217,Redgrove,,52,,,,,,new,1,0.7884615384615384,,,,,,,,,,
null,,confidence_buffer,1187319,confidence_buffer,,null,,,,,,,,,,,,,,,,,,
null,,thebreak,1187821,break,,null,,,,,,,,,,,,,,,,,,
443.80000001192093,,realistic_rating,1188266,Oakridge,,53,Oakridge,Fictional,5,,,,,,,,,,,,,,,
null,,confidence_buffer,1188377,confidence_buffer,,null,,,,,,,,,,,,,,,,,,
689.3000000119209,,pt2_unique_rating,1189068,Oakridge,,52,,,4,,,,,,,,,,,,,,,
null,,confidence_buffer,1189171,confidence_buffer,,null,,,,,,,,,,,,,,,,,,
473.30000001192093,,pt2_memorable_rating,1189646,Oakridge,,51,,,3,,,,,,,,,,,,,,,
null,,confidence_buffer,1189753,confidence_buffer,,null,,,,,,,,,,,,,,,,,,
1122.5999999642372,,probe_rating,1190877,probe_rating,,53,,,,5,1,,,,,,,,,,,,,
null,,confidence_buffer,1190981,confidence_buffer,,null,,,,,,,,,,,,,,,,,,
871.6999999880791,,recognition_phase,1191855,Oakridge,,49,,,,,,old,1,0.7924528301886793,,,,,,,,,,
null,,confidence_buffer,1191958,confidence_buffer,,null,,,,,,,,,,,,,,,,,,
null,,thebreak,1192460,break,,null,,,,,,,,,,,,,,,,,,
661.3000000119209,,realistic_rating,1193123,Elmsbury,,53,Elmsbury,Fictional,5,,,,,,,,,,,,,,,
null,,confidence_buffer,1193225,confidence_buffer,,null,,,,,,,,,,,,,,,,,,
1063.199999988079,,pt2_unique_rating,1194290,Elmsbury,,52,,,4,,,,,,,,,,,,,,,
null,,confidence_buffer,1194392,confidence_buffer,,null,,,,,,,,,,,,,,,,,,
695.3000000119209,,pt2_memorable_rating,1195089,Elmsbury,,53,,,5,,,,,,,,,,,,,,,
null,,confidence_buffer,1195191,confidence_buffer,,null,,,,,,,,,,,,,,,,,,
990.0999999642372,,recognition_phase,1196182,Elmsbury,,52,,,,,,new,1,0.7962962962962963,,,,,,,,,,
null,,confidence_buffer,1196286,confidence_buffer,,null,,,,,,,,,,,,,,,,,,
null,,thebreak,1196787,break,,null,,,,,,,,,,,,,,,,,,
1646.0999999642372,,realistic_rating,1198435,Maplehurst,,53,Maplehurst,Fictional,5,,,,,,,,,,,,,,,
null,,confidence_buffer,1198538,confidence_buffer,,null,,,,,,,,,,,,,,,,,,
627.3999999761581,,pt2_unique_rating,1199167,Maplehurst,,51,,,3,,,,,,,,,,,,,,,
null,,confidence_buffer,1199269,confidence_buffer,,null,,,,,,,,,,,,,,,,,,
481.19999998807907,,pt2_memorable_rating,1199752,Maplehurst,,52,,,4,,,,,,,,,,,,,,,
null,,confidence_buffer,1199856,confidence_buffer,,null,,,,,,,,,,,,,,,,,,
1048.800000011921,,recognition_phase,1200907,Maplehurst,,52,,,,,,new,1,0.8,,,,,,,,,,
null,,confidence_buffer,1201021,confidence_buffer,,null,,,,,,,,,,,,,,,,,,
null,,thebreak,1201531,break,,null,,,,,,,,,,,,,,,,,,
1432.199999988079,,realistic_rating,1202965,Ravenport,,53,Ravenport,Fictional,5,,,,,,,,,,,,,,,
null,,confidence_buffer,1203068,confidence_buffer,,null,,,,,,,,,,,,,,,,,,
589.1999999880791,,pt2_unique_rating,1203659,Ravenport,,52,,,4,,,,,,,,,,,,,,,
null,,confidence_buffer,1203762,confidence_buffer,,null,,,,,,,,,,,,,,,,,,
491.19999998807907,,pt2_memorable_rating,1204254,Ravenport,,53,,,5,,,,,,,,,,,,,,,
null,,confidence_buffer,1204356,confidence_buffer,,null,,,,,,,,,,,,,,,,,,
977.5,,recognition_phase,1205335,Ravenport,,49,,,,,,old,1,0.8035714285714286,,,,,,,,,,
null,,confidence_buffer,1205438,confidence_buffer,,null,,,,,,,,,,,,,,,,,,
null,,thebreak,1205940,break,,null,,,,,,,,,,,,,,,,,,
2089.5,,realistic_rating,1208031,Sierra Hollow,,53,Sierra Hollow,Fictional,5,,,,,,,,,,,,,,,
null,,confidence_buffer,1208134,confidence_buffer,,null,,,,,,,,,,,,,,,,,,
1266,,pt2_unique_rating,1209401,Sierra Hollow,,52,,,4,,,,,,,,,,,,,,,
null,,confidence_buffer,1209503,confidence_buffer,,null,,,,,,,,,,,,,,,,,,
628.3000000119209,,pt2_memorable_rating,1210133,Sierra Hollow,,51,,,3,,,,,,,,,,,,,,,
null,,confidence_buffer,1210236,confidence_buffer,,null,,,,,,,,,,,,,,,,,,
952.8000000119209,,recognition_phase,1211191,Sierra Hollow,,49,,,,,,old,1,0.8070175438596491,,,,,,,,,,
null,,confidence_buffer,1211294,confidence_buffer,,null,,,,,,,,,,,,,,,,,,
null,,thebreak,1211797,break,,null,,,,,,,,,,,,,,,,,,
885.3999999761581,,realistic_rating,1212684,Bar Harbor,,53,Bar Harbor,US,5,,,,,,,,,,,,,,,
null,,confidence_buffer,1212787,confidence_buffer,,null,,,,,,,,,,,,,,,,,,
625.8000000119209,,pt2_unique_rating,1213414,Bar Harbor,,52,,,4,,,,,,,,,,,,,,,
null,,confidence_buffer,1213517,confidence_buffer,,null,,,,,,,,,,,,,,,,,,
1375.3999999761581,,probe_rating,1214893,probe_rating,,53,,,,5,1,,,,,,,,,,,,,
null,,confidence_buffer,1214995,confidence_buffer,,null,,,,,,,,,,,,,,,,,,
713.8000000119209,,pt2_memorable_rating,1215710,Bar Harbor,,52,,,4,,,,,,,,,,,,,,,
null,,confidence_buffer,1215812,confidence_buffer,,null,,,,,,,,,,,,,,,,,,
1470.800000011921,,recognition_phase,1217286,Bar Harbor,,49,,,,,,old,1,0.8103448275862069,,,,,,,,,,
null,,confidence_buffer,1217392,confidence_buffer,,null,,,,,,,,,,,,,,,,,,
null,,thebreak,1217893,break,,null,,,,,,,,,,,,,,,,,,
794.5,,realistic_rating,1218689,Juniper Creek,,53,Juniper Creek,Fictional,5,,,,,,,,,,,,,,,
null,,confidence_buffer,1218791,confidence_buffer,,null,,,,,,,,,,,,,,,,,,
639.4000000357628,,pt2_unique_rating,1219432,Juniper Creek,,52,,,4,,,,,,,,,,,,,,,
null,,confidence_buffer,1219535,confidence_buffer,,null,,,,,,,,,,,,,,,,,,
670.8000000119209,,pt2_memorable_rating,1220207,Juniper Creek,,51,,,3,,,,,,,,,,,,,,,
null,,confidence_buffer,1220310,confidence_buffer,,null,,,,,,,,,,,,,,,,,,
2201.7000000476837,,recognition_phase,1222513,Juniper Creek,,52,,,,,,new,1,0.8135593220338984,,,,,,,,,,
null,,confidence_buffer,1222617,confidence_buffer,,null,,,,,,,,,,,,,,,,,,
null,,thebreak,1223120,break,,null,,,,,,,,,,,,,,,,,,
1988.8999999761581,,realistic_rating,1225110,San Antonio,,53,San Antonio,US,5,,,,,,,,,,,,,,,
null,,confidence_buffer,1225213,confidence_buffer,,null,,,,,,,,,,,,,,,,,,
592,,pt2_unique_rating,1225807,San Antonio,,52,,,4,,,,,,,,,,,,,,,
null,,confidence_buffer,1225911,confidence_buffer,,null,,,,,,,,,,,,,,,,,,
517.5,,pt2_memorable_rating,1226430,San Antonio,,52,,,4,,,,,,,,,,,,,,,
null,,confidence_buffer,1226532,confidence_buffer,,null,,,,,,,,,,,,,,,,,,
1070.4000000357628,,recognition_phase,1227604,San Antonio,,49,,,,,,old,1,0.8166666666666667,,,,,,,,,,
null,,confidence_buffer,1227707,confidence_buffer,,null,,,,,,,,,,,,,,,,,,
null,,thebreak,1228210,break,,null,,,,,,,,,,,,,,,,,,
,,survey,1482215,survey-questions,,,,,,,,,,,none,high,no,I tried to say the name of the places out loud, it helped me to remember them,rated based on how instantly recognizable,judged by how easily the image stuck in my mind,scored distinct if the city had distinct features,rated based on how true to life the name looked,no,
