rt,responses,trial_type,time_elapsed,stimulus,button_pressed,key_press,name_trial,city_type,rating,probe,probe_accuracy,response,correct,accuracy,problems,smooth,distraction,strategies,familiar,memorable,unique,realistic,similar,comments
5768.899999976158,{worker_id:663a56ad1cec763b896be3e8},id_enter,5771,,,,,,,,,,,,,,,,,,,,,
5339.5,,fullscreen,11115,fullscreen,0,,,,,,,,,,,,,,,,,,,
2739.600000023842,,intro_0,13860,instruct,,32,,,,,,,,,,,,,,,,,,
10183.600000023842,,intro_1,24046,instruct,,32,,,,,,,,,,,,,,,,,,
11034.300000011921,,intro_2,35082,instruct,,32,,,,,,,,,,,,,,,,,,
null,,instruct_dir_4,36593,instruct,,null,,,,,,,,,,,,,,,,,,
null,,thebreak,37103,break,,null,,,,,,,,,,,,,,,,,,
16388.5,,familiar_rating,53494,Ironwood Heights,,50,Ironwood Heights,Fictional,2,,,,,,,,,,,,,,,
null,,confidence_buffer,53602,confidence_buffer,,null,,,,,,,,,,,,,,,,,,
3223.2000000476837,,unique_rating,56827,Ironwood Heights,,51,,,3,,,,,,,,,,,,,,,
null,,confidence_buffer,56931,confidence_buffer,,null,,,,,,,,,,,,,,,,,,
3929.2999999523163,,probe_rating,60863,probe_rating,,50,,,,2,1,,,,,,,,,,,,,
null,,confidence_buffer,60972,confidence_buffer,,null,,,,,,,,,,,,,,,,,,
2950.199999988079,,memorable_rating,63924,Ironwood Heights,,51,,,3,,,,,,,,,,,,,,,
null,,confidence_buffer,64034,confidence_buffer,,null,,,,,,,,,,,,,,,,,,
null,,thebreak,64544,break,,null,,,,,,,,,,,,,,,,,,
4309.100000023842,,familiar_rating,68856,Carmel,,51,Carmel,US,3,,,,,,,,,,,,,,,
null,,confidence_buffer,68973,confidence_buffer,,null,,,,,,,,,,,,,,,,,,
1910.2999999523163,,unique_rating,70886,Carmel,,51,,,3,,,,,,,,,,,,,,,
null,,confidence_buffer,70992,confidence_buffer,,null,,,,,,,,,,,,,,,,,,
1792.4000000357628,,memorable_rating,72787,Carmel,,51,,,3,,,,,,,,,,,,,,,
null,,confidence_buffer,72897,confidence_buffer,,null,,,,,,,,,,,,,,,,,,
null,,thebreak,73406,break,,null,,,,,,,,,,,,,,,,,,
2304.5,,familiar_rating,75713,Bar Harbor,,50,Bar Harbor,US,2,,,,,,,,,,,,,,,
null,,confidence_buffer,75823,confidence_buffer,,null,,,,,,,,,,,,,,,,,,
928.3000000119209,,unique_rating,76753,Bar Harbor,,50,,,2,,,,,,,,,,,,,,,
null,,confidence_buffer,76863,confidence_buffer,,null,,,,,,,,,,,,,,,,,,
1110.4000000357628,,memorable_rating,77975,Bar Harbor,,51,,,3,,,,,,,,,,,,,,,
null,,confidence_buffer,78081,confidence_buffer,,null,,,,,,,,,,,,,,,,,,
null,,thebreak,78589,break,,null,,,,,,,,,,,,,,,,,,
1919.800000011921,,familiar_rating,80510,Maravilla Springs,,51,Maravilla Springs,Fictional,3,,,,,,,,,,,,,,,
null,,confidence_buffer,80620,confidence_buffer,,null,,,,,,,,,,,,,,,,,,
825.7000000476837,,unique_rating,81448,Maravilla Springs,,51,,,3,,,,,,,,,,,,,,,
null,,confidence_buffer,81552,confidence_buffer,,null,,,,,,,,,,,,,,,,,,
532.7000000476837,,memorable_rating,82085,Maravilla Springs,,51,,,3,,,,,,,,,,,,,,,
null,,confidence_buffer,82195,confidence_buffer,,null,,,,,,,,,,,,,,,,,,
null,,thebreak,82701,break,,null,,,,,,,,,,,,,,,,,,
2126.600000023842,,familiar_rating,84830,Redgrove,,51,Redgrove,Fictional,3,,,,,,,,,,,,,,,
null,,confidence_buffer,84936,confidence_buffer,,null,,,,,,,,,,,,,,,,,,
828.8999999761581,,unique_rating,85767,Redgrove,,51,,,3,,,,,,,,,,,,,,,
null,,confidence_buffer,85881,confidence_buffer,,null,,,,,,,,,,,,,,,,,,
565.2999999523163,,memorable_rating,86448,Redgrove,,50,,,2,,,,,,,,,,,,,,,
null,,confidence_buffer,86552,confidence_buffer,,null,,,,,,,,,,,,,,,,,,
null,,thebreak,87060,break,,null,,,,,,,,,,,,,,,,,,
1404.3999999761581,,familiar_rating,88466,Cody,,50,Cody,US,2,,,,,,,,,,,,,,,
null,,confidence_buffer,88572,confidence_buffer,,null,,,,,,,,,,,,,,,,,,
667,,unique_rating,89241,Cody,,50,,,2,,,,,,,,,,,,,,,
null,,confidence_buffer,89351,confidence_buffer,,null,,,,,,,,,,,,,,,,,,
1760.300000011921,,probe_rating,91112,probe_rating,,50,,,,2,1,,,,,,,,,,,,,
null,,confidence_buffer,91217,confidence_buffer,,null,,,,,,,,,,,,,,,,,,
1342.3999999761581,,memorable_rating,92561,Cody,,50,,,2,,,,,,,,,,,,,,,
null,,confidence_buffer,92677,confidence_buffer,,null,,,,,,,,,,,,,,,,,,
null,,thebreak,93180,break,,null,,,,,,,,,,,,,,,,,,
7880.699999988079,,familiar_rating,101062,Sisters,,49,Sisters,US,1,,,,,,,,,,,,,,,
null,,confidence_buffer,101172,confidence_buffer,,null,,,,,,,,,,,,,,,,,,
4214.400000035763,,unique_rating,105388,Sisters,,51,,,3,,,,,,,,,,,,,,,
null,,confidence_buffer,105505,confidence_buffer,,null,,,,,,,,,,,,,,,,,,
4410.699999988079,,memorable_rating,109918,Sisters,,53,,,5,,,,,,,,,,,,,,,
null,,confidence_buffer,110029,confidence_buffer,,null,,,,,,,,,,,,,,,,,,
null,,thebreak,110537,break,,null,,,,,,,,,,,,,,,,,,
5826.399999976158,,familiar_rating,116366,Yukon,,50,Yukon,US,2,,,,,,,,,,,,,,,
null,,confidence_buffer,116483,confidence_buffer,,null,,,,,,,,,,,,,,,,,,
2276,,unique_rating,118761,Yukon,,52,,,4,,,,,,,,,,,,,,,
null,,confidence_buffer,118863,confidence_buffer,,null,,,,,,,,,,,,,,,,,,
1181.199999988079,,memorable_rating,120045,Yukon,,52,,,4,,,,,,,,,,,,,,,
null,,confidence_buffer,120149,confidence_buffer,,null,,,,,,,,,,,,,,,,,,
null,,thebreak,120652,break,,null,,,,,,,,,,,,,,,,,,
4108.599999964237,,familiar_rating,124762,Stonebrook,,50,Stonebrook,Fictional,2,,,,,,,,,,,,,,,
null,,confidence_buffer,124873,confidence_buffer,,null,,,,,,,,,,,,,,,,,,
1998.6000000238419,,unique_rating,126874,Stonebrook,,52,,,4,,,,,,,,,,,,,,,
null,,confidence_buffer,126989,confidence_buffer,,null,,,,,,,,,,,,,,,,,,
1016.3999999761581,,memorable_rating,128008,Stonebrook,,52,,,4,,,,,,,,,,,,,,,
null,,confidence_buffer,128116,confidence_buffer,,null,,,,,,,,,,,,,,,,,,
null,,thebreak,128629,break,,null,,,,,,,,,,,,,,,,,,
2764.2000000476837,,familiar_rating,131396,Rosehollow,,50,Rosehollow,Fictional,2,,,,,,,,,,,,,,,
null,,confidence_buffer,131503,confidence_buffer,,null,,,,,,,,,,,,,,,,,,
1380.3999999761581,,unique_rating,132886,Rosehollow,,50,,,2,,,,,,,,,,,,,,,
null,,confidence_buffer,132996,confidence_buffer,,null,,,,,,,,,,,,,,,,,,
2231.2999999523163,,memorable_rating,135230,Rosehollow,,52,,,4,,,,,,,,,,,,,,,
null,,confidence_buffer,135336,confidence_buffer,,null,,,,,,,,,,,,,,,,,,
null,,thebreak,135851,break,,null,,,,,,,,,,,,,,,,,,
3772.300000011921,,familiar_rating,139625,Brookmere,,49,Brookmere,Fictional,1,,,,,,,,,,,,,,,
null,,confidence_buffer,139733,confidence_buffer,,null,,,,,,,,,,,,,,,,,,
944.5,,unique_rating,140680,Brookmere,,51,,,3,,,,,,,,,,,,,,,
null,,confidence_buffer,140783,confidence_buffer,,null,,,,,,,,,,,,,,,,,,
1354.300000011921,,memorable_rating,142139,Brookmere,,51,,,3,,,,,,,,,,,,,,,
null,,confidence_buffer,142250,confidence_buffer,,null,,,,,,,,,,,,,,,,,,
null,,thebreak,142756,break,,null,,,,,,,,,,,,,,,,,,
2257.2000000476837,,familiar_rating,145015,Crestwood,,50,Crestwood,Fictional,2,,,,,,,,,,,,,,,
null,,confidence_buffer,145123,confidence_buffer,,null,,,,,,,,,,,,,,,,,,
859.6000000238419,,unique_rating,145985,Crestwood,,51,,,3,,,,,,,,,,,,,,,
null,,confidence_buffer,146090,confidence_buffer,,null,,,,,,,,,,,,,,,,,,
540.8999999761581,,memorable_rating,146632,Crestwood,,51,,,3,,,,,,,,,,,,,,,
null,,confidence_buffer,146745,confidence_buffer,,null,,,,,,,,,,,,,,,,,,
null,,thebreak,147249,break,,null,,,,,,,,,,,,,,,,,,
2902.699999988079,,familiar_rating,150154,Orchard Bend,,50,Orchard Bend,Fictional,2,,,,,,,,,,,,,,,
null,,confidence_buffer,150272,confidence_buffer,,null,,,,,,,,,,,,,,,,,,
818.3000000119209,,unique_rating,151092,Orchard Bend,,51,,,3,,,,,,,,,,,,,,,
null,,confidence_buffer,151202,confidence_buffer,,null,,,,,,,,,,,,,,,,,,
633.5,,memorable_rating,151837,Orchard Bend,,51,,,3,,,,,,,,,,,,,,,
null,,confidence_buffer,151946,confidence_buffer,,null,,,,,,,,,,,,,,,,,,
null,,thebreak,152458,break,,null,,,,,,,,,,,,,,,,,,
2470,,familiar_rating,154929,Meadowspire,,50,Meadowspire,Fictional,2,,,,,,,,,,,,,,,
null,,confidence_buffer,155039,confidence_buffer,,null,,,,,,,,,,,,,,,,,,
980.6999999880791,,unique_rating,156021,Meadowspire,,51,,,3,,,,,,,,,,,,,,,
null,,confidence_buffer,156129,confidence_buffer,,null,,,,,,,,,,,,,,,,,,
946.3999999761581,,memorable_rating,157076,Meadowspire,,51,,,3,,,,,,,,,,,,,,,
null,,confidence_buffer,157193,confidence_buffer,,null,,,,,,,,,,,,,,,,,,
null,,thebreak,157702,break,,null,,,,,,,,,,,,,,,,,,
922.8999999761581,,familiar_rating,158627,Leesburg,,50,Leesburg,US,2,,,,,,,,,,,,,,,
null,,confidence_buffer,158742,confidence_buffer,,null,,,,,,,,,,,,,,,,,,
663.0999999642372,,unique_rating,159406,Leesburg,,51,,,3,,,,,,,,,,,,,,,
null,,confidence_buffer,159519,confidence_buffer,,null,,,,,,,,,,,,,,,,,,
676.2000000476837,,memorable_rating,160197,Leesburg,,51,,,3,,,,,,,,,,,,,,,
null,,confidence_buffer,160306,confidence_buffer,,null,,,,,,,,,,,,,,,,,,
null,,thebreak,160809,break,,null,,,,,,,,,,,,,,,,,,
1259.800000011921,,familiar_rating,162071,Sammamish,,49,Sammamish,US,1,,,,,,,,,,,,,,,
null,,confidence_buffer,162176,confidence_buffer,,null,,,,,,,,,,,,,,,,,,
2167.300000011921,,unique_rating,164345,Sammamish,,51,,,3,,,,,,,,,,,,,,,
null,,confidence_buffer,164450,confidence_buffer,,null,,,,,,,,,,,,,,,,,,
525.2999999523163,,memorable_rating,164977,Sammamish,,51,,,3,,,,,,,,,,,,,,,
null,,confidence_buffer,165085,confidence_buffer,,null,,,,,,,,,,,,,,,,,,
null,,thebreak,165593,break,,null,,,,,,,,,,,,,,,,,,
1369.800000011921,,familiar_rating,166964,Northbridge,,49,Northbridge,Fictional,1,,,,,,,,,,,,,,,
null,,confidence_buffer,167073,confidence_buffer,,null,,,,,,,,,,,,,,,,,,
1361,,unique_rating,168435,Northbridge,,50,,,2,,,,,,,,,,,,,,,
null,,confidence_buffer,168540,confidence_buffer,,null,,,,,,,,,,,,,,,,,,
806.6999999880791,,memorable_rating,169348,Northbridge,,51,,,3,,,,,,,,,,,,,,,
null,,confidence_buffer,169458,confidence_buffer,,null,,,,,,,,,,,,,,,,,,
null,,thebreak,169965,break,,null,,,,,,,,,,,,,,,,,,
2104,,familiar_rating,172071,Riverlyn,,50,Riverlyn,Fictional,2,,,,,,,,,,,,,,,
null,,confidence_buffer,172182,confidence_buffer,,null,,,,,,,,,,,,,,,,,,
1814.699999988079,,unique_rating,173998,Riverlyn,,52,,,4,,,,,,,,,,,,,,,
null,,confidence_buffer,174113,confidence_buffer,,null,,,,,,,,,,,,,,,,,,
710.2999999523163,,memorable_rating,174825,Riverlyn,,52,,,4,,,,,,,,,,,,,,,
null,,confidence_buffer,174936,confidence_buffer,,null,,,,,,,,,,,,,,,,,,
null,,thebreak,175439,break,,null,,,,,,,,,,,,,,,,,,
2493.5,,familiar_rating,177934,Delaro Park,,49,Delaro Park,Fictional,1,,,,,,,,,,,,,,,
null,,confidence_buffer,178041,confidence_buffer,,null,,,,,,,,,,,,,,,,,,
1049.2000000476837,,unique_rating,179092,Delaro Park,,52,,,4,,,,,,,,,,,,,,,
null,,confidence_buffer,179203,confidence_buffer,,null,,,,,,,,,,,,,,,,,,
552.6999999880791,,memorable_rating,179758,Delaro Park,,52,,,4,,,,,,,,,,,,,,,
null,,confidence_buffer,179869,confidence_buffer,,null,,,,,,,,,,,,,,,,,,
null,,thebreak,180377,break,,null,,,,,,,,,,,,,,,,,,
4975.099999964237,,familiar_rating,185354,Albuquerque,,51,Albuquerque,US,3,,,,,,,,,,,,,,,
null,,confidence_buffer,185461,confidence_buffer,,null,,,,,,,,,,,,,,,,,,
1783.699999988079,,unique_rating,187247,Albuquerque,,51,,,3,,,,,,,,,,,,,,,
null,,confidence_buffer,187352,confidence_buffer,,null,,,,,,,,,,,,,,,,,,
1056.5999999642372,,memorable_rating,188411,Albuquerque,,52,,,4,,,,,,,,,,,,,,,
null,,confidence_buffer,188520,confidence_buffer,,null,,,,,,,,,,,,,,,,,,
null,,thebreak,189026,break,,null,,,,,,,,,,,,,,,,,,
2095.5,,familiar_rating,191123,Alliance,,51,Alliance,US,3,,,,,,,,,,,,,,,
null,,confidence_buffer,191232,confidence_buffer,,null,,,,,,,,,,,,,,,,,,
496.0999999642372,,unique_rating,191730,Alliance,,51,,,3,,,,,,,,,,,,,,,
null,,confidence_buffer,191833,confidence_buffer,,null,,,,,,,,,,,,,,,,,,
637.5,,memorable_rating,192472,Alliance,,51,,,3,,,,,,,,,,,,,,,
null,,confidence_buffer,192581,confidence_buffer,,null,,,,,,,,,,,,,,,,,,
null,,thebreak,193090,break,,null,,,,,,,,,,,,,,,,,,
2645.100000023842,,familiar_rating,195737,Manistee,,50,Manistee,US,2,,,,,,,,,,,,,,,
null,,confidence_buffer,195848,confidence_buffer,,null,,,,,,,,,,,,,,,,,,
467.4000000357628,,unique_rating,196317,Manistee,,51,,,3,,,,,,,,,,,,,,,
null,,confidence_buffer,196419,confidence_buffer,,null,,,,,,,,,,,,,,,,,,
2721.199999988079,,probe_rating,199142,probe_rating,,49,,,,1,1,,,,,,,,,,,,,
null,,confidence_buffer,199257,confidence_buffer,,null,,,,,,,,,,,,,,,,,,
1204.199999988079,,memorable_rating,200464,Manistee,,52,,,4,,,,,,,,,,,,,,,
null,,confidence_buffer,200572,confidence_buffer,,null,,,,,,,,,,,,,,,,,,
null,,thebreak,201080,break,,null,,,,,,,,,,,,,,,,,,
1385.199999988079,,familiar_rating,202467,East Ladera,,50,East Ladera,Fictional,2,,,,,,,,,,,,,,,
null,,confidence_buffer,202580,confidence_buffer,,null,,,,,,,,,,,,,,,,,,
2027.1000000238419,,unique_rating,204609,East Ladera,,51,,,3,,,,,,,,,,,,,,,
null,,confidence_buffer,204712,confidence_buffer,,null,,,,,,,,,,,,,,,,,,
1263.5,,memorable_rating,205977,East Ladera,,52,,,4,,,,,,,,,,,,,,,
null,,confidence_buffer,206086,confidence_buffer,,null,,,,,,,,,,,,,,,,,,
null,,thebreak,206602,break,,null,,,,,,,,,,,,,,,,,,
2980,,familiar_rating,209585,Okoboji,,49,Okoboji,US,1,,,,,,,,,,,,,,,
null,,confidence_buffer,209695,confidence_buffer,,null,,,,,,,,,,,,,,,,,,
2431,,unique_rating,212127,Okoboji,,50,,,2,,,,,,,,,,,,,,,
null,,confidence_buffer,212242,confidence_buffer,,null,,,,,,,,,,,,,,,,,,
1711.7999999523163,,memorable_rating,213956,Okoboji,,50,,,2,,,,,,,,,,,,,,,
null,,confidence_buffer,214068,confidence_buffer,,null,,,,,,,,,,,,,,,,,,
2291.5,,probe_rating,216362,probe_rating,,51,,,,3,1,,,,,,,,,,,,,
null,,confidence_buffer,216476,confidence_buffer,,null,,,,,,,,,,,,,,,,,,
null,,thebreak,216981,break,,null,,,,,,,,,,,,,,,,,,
3032.5,,familiar_rating,220015,Hot Springs,,51,Hot Springs,US,3,,,,,,,,,,,,,,,
null,,confidence_buffer,220121,confidence_buffer,,null,,,,,,,,,,,,,,,,,,
1048.9000000357628,,unique_rating,221172,Hot Springs,,52,,,4,,,,,,,,,,,,,,,
null,,confidence_buffer,221278,confidence_buffer,,null,,,,,,,,,,,,,,,,,,
1565.9000000357628,,probe_rating,222845,probe_rating,,49,,,,1,1,,,,,,,,,,,,,
null,,confidence_buffer,222952,confidence_buffer,,null,,,,,,,,,,,,,,,,,,
910.5,,memorable_rating,223864,Hot Springs,,53,,,5,,,,,,,,,,,,,,,
null,,confidence_buffer,223972,confidence_buffer,,null,,,,,,,,,,,,,,,,,,
null,,thebreak,224479,break,,null,,,,,,,,,,,,,,,,,,
1601.300000011921,,familiar_rating,226082,Cornwall,,52,Cornwall,US,4,,,,,,,,,,,,,,,
null,,confidence_buffer,226189,confidence_buffer,,null,,,,,,,,,,,,,,,,,,
1490,,unique_rating,227681,Cornwall,,52,,,4,,,,,,,,,,,,,,,
null,,confidence_buffer,227794,confidence_buffer,,null,,,,,,,,,,,,,,,,,,
1124.7999999523163,,memorable_rating,228920,Cornwall,,52,,,4,,,,,,,,,,,,,,,
null,,confidence_buffer,229028,confidence_buffer,,null,,,,,,,,,,,,,,,,,,
null,,thebreak,229536,break,,null,,,,,,,,,,,,,,,,,,
2420.800000011921,,familiar_rating,231958,North Arroya,,51,North Arroya,Fictional,3,,,,,,,,,,,,,,,
null,,confidence_buffer,232073,confidence_buffer,,null,,,,,,,,,,,,,,,,,,
1437.800000011921,,unique_rating,233512,North Arroya,,51,,,3,,,,,,,,,,,,,,,
null,,confidence_buffer,233616,confidence_buffer,,null,,,,,,,,,,,,,,,,,,
9365.699999988079,,memorable_rating,242983,North Arroya,,51,,,3,,,,,,,,,,,,,,,
null,,confidence_buffer,243092,confidence_buffer,,null,,,,,,,,,,,,,,,,,,
1481.800000011921,,probe_rating,244576,probe_rating,,53,,,,5,1,,,,,,,,,,,,,
null,,confidence_buffer,244689,confidence_buffer,,null,,,,,,,,,,,,,,,,,,
null,,thebreak,245206,break,,null,,,,,,,,,,,,,,,,,,
1340.1000000238419,,familiar_rating,246548,Fairhaven,,51,Fairhaven,Fictional,3,,,,,,,,,,,,,,,
null,,confidence_buffer,246656,confidence_buffer,,null,,,,,,,,,,,,,,,,,,
1044.4000000357628,,unique_rating,247702,Fairhaven,,50,,,2,,,,,,,,,,,,,,,
null,,confidence_buffer,247813,confidence_buffer,,null,,,,,,,,,,,,,,,,,,
963.6000000238419,,memorable_rating,248778,Fairhaven,,50,,,2,,,,,,,,,,,,,,,
null,,confidence_buffer,248889,confidence_buffer,,null,,,,,,,,,,,,,,,,,,
null,,thebreak,249398,break,,null,,,,,,,,,,,,,,,,,,
5720.199999988079,,familiar_rating,255119,Medora,,50,Medora,US,2,,,,,,,,,,,,,,,
null,,confidence_buffer,255228,confidence_buffer,,null,,,,,,,,,,,,,,,,,,
845.3000000119209,,unique_rating,256075,Medora,,51,,,3,,,,,,,,,,,,,,,
null,,confidence_buffer,256180,confidence_buffer,,null,,,,,,,,,,,,,,,,,,
1261.699999988079,,memorable_rating,257443,Medora,,51,,,3,,,,,,,,,,,,,,,
null,,confidence_buffer,257555,confidence_buffer,,null,,,,,,,,,,,,,,,,,,
null,,thebreak,258062,break,,null,,,,,,,,,,,,,,,,,,
2530.699999988079,,familiar_rating,260594,Newport,,53,Newport,US,5,,,,,,,,,,,,,,,
null,,confidence_buffer,260701,confidence_buffer,,null,,,,,,,,,,,,,,,,,,
1156.5,,unique_rating,261859,Newport,,53,,,5,,,,,,,,,,,,,,,
null,,confidence_buffer,261968,confidence_buffer,,null,,,,,,,,,,,,,,,,,,
1884,,probe_rating,263854,probe_rating,,53,,,,5,1,,,,,,,,,,,,,
null,,confidence_buffer,263960,confidence_buffer,,null,,,,,,,,,,,,,,,,,,
2217.899999976158,,memorable_rating,266180,Newport,,53,,,5,,,,,,,,,,,,,,,
null,,confidence_buffer,266286,confidence_buffer,,null,,,,,,,,,,,,,,,,,,
null,,thebreak,266792,break,,null,,,,,,,,,,,,,,,,,,
13356,,intro_0,280150,instruct,,32,,,,,,,,,,,,,,,,,,
15043.700000047684,,intro_1,295195,instruct,,32,,,,,,,,,,,,,,,,,,
5024.300000011921,,intro_2,300221,instruct,,32,,,,,,,,,,,,,,,,,,
null,,instruct_dir_4,301728,instruct,,null,,,,,,,,,,,,,,,,,,
1935.7999999523163,,realistic_rating,303665,New Hope,,50,New Hope,US,2,,,,,,,,,,,,,,,
null,,confidence_buffer,303772,confidence_buffer,,null,,,,,,,,,,,,,,,,,,
3092.100000023842,,pt2_unique_rating,306866,New Hope,,52,,,4,,,,,,,,,,,,,,,
null,,confidence_buffer,306969,confidence_buffer,,null,,,,,,,,,,,,,,,,,,
1939,,pt2_memorable_rating,308910,New Hope,,52,,,4,,,,,,,,,,,,,,,
null,,confidence_buffer,309017,confidence_buffer,,null,,,,,,,,,,,,,,,,,,
5910.399999976158,,recognition_phase,314930,New Hope,,49,,,,,,old,0,0,,,,,,,,,,
null,,confidence_buffer,315034,confidence_buffer,,null,,,,,,,,,,,,,,,,,,
null,,thebreak,315550,break,,null,,,,,,,,,,,,,,,,,,
11057.100000023842,,realistic_rating,326609,Rosehollow,,52,Rosehollow,Fictional,4,,,,,,,,,,,,,,,
null,,confidence_buffer,326718,confidence_buffer,,null,,,,,,,,,,,,,,,,,,
2403.099999964237,,pt2_unique_rating,329123,Rosehollow,,52,,,4,,,,,,,,,,,,,,,
null,,confidence_buffer,329236,confidence_buffer,,null,,,,,,,,,,,,,,,,,,
1823,,pt2_memorable_rating,331060,Rosehollow,,52,,,4,,,,,,,,,,,,,,,
null,,confidence_buffer,331168,confidence_buffer,,null,,,,,,,,,,,,,,,,,,
2478.600000023842,,recognition_phase,333649,Rosehollow,,49,,,,,,old,1,0.5,,,,,,,,,,
null,,confidence_buffer,333759,confidence_buffer,,null,,,,,,,,,,,,,,,,,,
null,,thebreak,334269,break,,null,,,,,,,,,,,,,,,,,,
4282.399999976158,,realistic_rating,338552,Alliance,,52,Alliance,US,4,,,,,,,,,,,,,,,
null,,confidence_buffer,338657,confidence_buffer,,null,,,,,,,,,,,,,,,,,,
1506.3999999761581,,pt2_unique_rating,340165,Alliance,,52,,,4,,,,,,,,,,,,,,,
null,,confidence_buffer,340276,confidence_buffer,,null,,,,,,,,,,,,,,,,,,
1804.0999999642372,,probe_rating,342082,probe_rating,,51,,,,3,1,,,,,,,,,,,,,
null,,confidence_buffer,342200,confidence_buffer,,null,,,,,,,,,,,,,,,,,,
3073.399999976158,,pt2_memorable_rating,345275,Alliance,,52,,,4,,,,,,,,,,,,,,,
null,,confidence_buffer,345388,confidence_buffer,,null,,,,,,,,,,,,,,,,,,
1006.5999999642372,,recognition_phase,346396,Alliance,,49,,,,,,old,1,0.6666666666666666,,,,,,,,,,
null,,confidence_buffer,346515,confidence_buffer,,null,,,,,,,,,,,,,,,,,,
null,,thebreak,347032,break,,null,,,,,,,,,,,,,,,,,,
3337.400000035763,,realistic_rating,350371,Gloucester,,51,Gloucester,US,3,,,,,,,,,,,,,,,
null,,confidence_buffer,350474,confidence_buffer,,null,,,,,,,,,,,,,,,,,,
1463.800000011921,,pt2_unique_rating,351939,Gloucester,,50,,,2,,,,,,,,,,,,,,,
null,,confidence_buffer,352055,confidence_buffer,,null,,,,,,,,,,,,,,,,,,
1899.5,,pt2_memorable_rating,353956,Gloucester,,50,,,2,,,,,,,,,,,,,,,
null,,confidence_buffer,354060,confidence_buffer,,null,,,,,,,,,,,,,,,,,,
1550.8999999761581,,probe_rating,355613,probe_rating,,52,,,,4,1,,,,,,,,,,,,,
null,,confidence_buffer,355727,confidence_buffer,,null,,,,,,,,,,,,,,,,,,
3344.900000035763,,recognition_phase,359074,Gloucester,,52,,,,,,new,1,0.75,,,,,,,,,,
null,,confidence_buffer,359177,confidence_buffer,,null,,,,,,,,,,,,,,,,,,
null,,thebreak,359682,break,,null,,,,,,,,,,,,,,,,,,
3151.600000023842,,realistic_rating,362835,East Ladera,,51,East Ladera,Fictional,3,,,,,,,,,,,,,,,
null,,confidence_buffer,362943,confidence_buffer,,null,,,,,,,,,,,,,,,,,,
982.5999999642372,,pt2_unique_rating,363927,East Ladera,,51,,,3,,,,,,,,,,,,,,,
null,,confidence_buffer,364032,confidence_buffer,,null,,,,,,,,,,,,,,,,,,
1199.300000011921,,pt2_memorable_rating,365234,East Ladera,,51,,,3,,,,,,,,,,,,,,,
null,,confidence_buffer,365337,confidence_buffer,,null,,,,,,,,,,,,,,,,,,
1576.5,,probe_rating,366915,probe_rating,,49,,,,1,1,,,,,,,,,,,,,
null,,confidence_buffer,367023,confidence_buffer,,null,,,,,,,,,,,,,,,,,,
1542.5,,recognition_phase,368567,East Ladera,,52,,,,,,new,0,0.6,,,,,,,,,,
null,,confidence_buffer,368672,confidence_buffer,,null,,,,,,,,,,,,,,,,,,
null,,thebreak,369182,break,,null,,,,,,,,,,,,,,,,,,
3135.599999964237,,realistic_rating,372320,Riverlyn,,50,Riverlyn,Fictional,2,,,,,,,,,,,,,,,
null,,confidence_buffer,372434,confidence_buffer,,null,,,,,,,,,,,,,,,,,,
914,,pt2_unique_rating,373350,Riverlyn,,50,,,2,,,,,,,,,,,,,,,
null,,confidence_buffer,373457,confidence_buffer,,null,,,,,,,,,,,,,,,,,,
932.4000000357628,,pt2_memorable_rating,374390,Riverlyn,,50,,,2,,,,,,,,,,,,,,,
null,,confidence_buffer,374497,confidence_buffer,,null,,,,,,,,,,,,,,,,,,
1564.1000000238419,,recognition_phase,376063,Riverlyn,,52,,,,,,new,0,0.5,,,,,,,,,,
null,,confidence_buffer,376176,confidence_buffer,,null,,,,,,,,,,,,,,,,,,
null,,thebreak,376681,break,,null,,,,,,,,,,,,,,,,,,
1479.5,,realistic_rating,378162,Medora,,51,Medora,US,3,,,,,,,,,,,,,,,
null,,confidence_buffer,378269,confidence_buffer,,null,,,,,,,,,,,,,,,,,,
1004.1999999880791,,pt2_unique_rating,379276,Medora,,51,,,3,,,,,,,,,,,,,,,
null,,confidence_buffer,379385,confidence_buffer,,null,,,,,,,,,,,,,,,,,,
1033.7999999523163,,pt2_memorable_rating,380421,Medora,,50,,,2,,,,,,,,,,,,,,,
null,,confidence_buffer,380527,confidence_buffer,,null,,,,,,,,,,,,,,,,,,
813.5999999642372,,recognition_phase,381342,Medora,,49,,,,,,old,1,0.5714285714285714,,,,,,,,,,
null,,confidence_buffer,381451,confidence_buffer,,null,,,,,,,,,,,,,,,,,,
null,,thebreak,381960,break,,null,,,,,,,,,,,,,,,,,,
1337.1000000238419,,realistic_rating,383298,Summershade,,50,Summershade,Fictional,2,,,,,,,,,,,,,,,
null,,confidence_buffer,383402,confidence_buffer,,null,,,,,,,,,,,,,,,,,,
1807.9000000357628,,pt2_unique_rating,385212,Summershade,,50,,,2,,,,,,,,,,,,,,,
null,,confidence_buffer,385317,confidence_buffer,,null,,,,,,,,,,,,,,,,,,
1235.6000000238419,,pt2_memorable_rating,386554,Summershade,,50,,,2,,,,,,,,,,,,,,,
null,,confidence_buffer,386665,confidence_buffer,,null,,,,,,,,,,,,,,,,,,
1419.9000000357628,,recognition_phase,388086,Summershade,,52,,,,,,new,1,0.625,,,,,,,,,,
null,,confidence_buffer,388192,confidence_buffer,,null,,,,,,,,,,,,,,,,,,
null,,thebreak,388699,break,,null,,,,,,,,,,,,,,,,,,
5182.300000011921,,realistic_rating,393882,Yukon,,53,Yukon,US,5,,,,,,,,,,,,,,,
null,,confidence_buffer,393989,confidence_buffer,,null,,,,,,,,,,,,,,,,,,
3739.899999976158,,pt2_unique_rating,397730,Yukon,,53,,,5,,,,,,,,,,,,,,,
null,,confidence_buffer,397840,confidence_buffer,,null,,,,,,,,,,,,,,,,,,
1155.1000000238419,,pt2_memorable_rating,398996,Yukon,,53,,,5,,,,,,,,,,,,,,,
null,,confidence_buffer,399106,confidence_buffer,,null,,,,,,,,,,,,,,,,,,
1672,,recognition_phase,400779,Yukon,,49,,,,,,old,1,0.6666666666666666,,,,,,,,,,
null,,confidence_buffer,400891,confidence_buffer,,null,,,,,,,,,,,,,,,,,,
null,,thebreak,401395,break,,null,,,,,,,,,,,,,,,,,,
1515,,realistic_rating,402912,Huntsville,,52,Huntsville,US,4,,,,,,,,,,,,,,,
null,,confidence_buffer,403017,confidence_buffer,,null,,,,,,,,,,,,,,,,,,
1304.199999988079,,pt2_unique_rating,404323,Huntsville,,51,,,3,,,,,,,,,,,,,,,
null,,confidence_buffer,404427,confidence_buffer,,null,,,,,,,,,,,,,,,,,,
1487.8999999761581,,pt2_memorable_rating,405915,Huntsville,,51,,,3,,,,,,,,,,,,,,,
null,,confidence_buffer,406025,confidence_buffer,,null,,,,,,,,,,,,,,,,,,
1964,,recognition_phase,407990,Huntsville,,52,,,,,,new,1,0.7,,,,,,,,,,
null,,confidence_buffer,408101,confidence_buffer,,null,,,,,,,,,,,,,,,,,,
null,,thebreak,408608,break,,null,,,,,,,,,,,,,,,,,,
3323.699999988079,,realistic_rating,411933,Ravenport,,51,Ravenport,Fictional,3,,,,,,,,,,,,,,,
null,,confidence_buffer,412043,confidence_buffer,,null,,,,,,,,,,,,,,,,,,
1401.5,,probe_rating,413446,probe_rating,,50,,,,2,1,,,,,,,,,,,,,
null,,confidence_buffer,413548,confidence_buffer,,null,,,,,,,,,,,,,,,,,,
934.1999999880791,,pt2_unique_rating,414482,Ravenport,,51,,,3,,,,,,,,,,,,,,,
null,,confidence_buffer,414595,confidence_buffer,,null,,,,,,,,,,,,,,,,,,
1032.699999988079,,pt2_memorable_rating,415629,Ravenport,,51,,,3,,,,,,,,,,,,,,,
null,,confidence_buffer,415739,confidence_buffer,,null,,,,,,,,,,,,,,,,,,
2687.2999999523163,,recognition_phase,418428,Ravenport,,51,,,,,,new,1,0.7272727272727273,,,,,,,,,,
null,,confidence_buffer,418544,confidence_buffer,,null,,,,,,,,,,,,,,,,,,
null,,thebreak,419053,break,,null,,,,,,,,,,,,,,,,,,
2344.699999988079,,realistic_rating,421399,Bowling Green,,51,Bowling Green,US,3,,,,,,,,,,,,,,,
null,,confidence_buffer,421504,confidence_buffer,,null,,,,,,,,,,,,,,,,,,
1173.4000000357628,,pt2_unique_rating,422679,Bowling Green,,51,,,3,,,,,,,,,,,,,,,
null,,confidence_buffer,422786,confidence_buffer,,null,,,,,,,,,,,,,,,,,,
1030.300000011921,,pt2_memorable_rating,423818,Bowling Green,,51,,,3,,,,,,,,,,,,,,,
null,,confidence_buffer,423932,confidence_buffer,,null,,,,,,,,,,,,,,,,,,
2607.2999999523163,,recognition_phase,426540,Bowling Green,,52,,,,,,new,1,0.75,,,,,,,,,,
null,,confidence_buffer,426653,confidence_buffer,,null,,,,,,,,,,,,,,,,,,
null,,thebreak,427161,break,,null,,,,,,,,,,,,,,,,,,
1787.8999999761581,,realistic_rating,428950,Sitka,,51,Sitka,US,3,,,,,,,,,,,,,,,
null,,confidence_buffer,429068,confidence_buffer,,null,,,,,,,,,,,,,,,,,,
2053.199999988079,,pt2_unique_rating,431124,Sitka,,51,,,3,,,,,,,,,,,,,,,
null,,confidence_buffer,431231,confidence_buffer,,null,,,,,,,,,,,,,,,,,,
889.5,,pt2_memorable_rating,432123,Sitka,,51,,,3,,,,,,,,,,,,,,,
null,,confidence_buffer,432236,confidence_buffer,,null,,,,,,,,,,,,,,,,,,
1216.5,,recognition_phase,433454,Sitka,,52,,,,,,new,1,0.7692307692307693,,,,,,,,,,
null,,confidence_buffer,433559,confidence_buffer,,null,,,,,,,,,,,,,,,,,,
null,,thebreak,434061,break,,null,,,,,,,,,,,,,,,,,,
1692.9000000357628,,realistic_rating,435755,Sunmere,,51,Sunmere,Fictional,3,,,,,,,,,,,,,,,
null,,confidence_buffer,435859,confidence_buffer,,null,,,,,,,,,,,,,,,,,,
832.5,,pt2_unique_rating,436694,Sunmere,,51,,,3,,,,,,,,,,,,,,,
null,,confidence_buffer,436800,confidence_buffer,,null,,,,,,,,,,,,,,,,,,
2134.800000011921,,pt2_memorable_rating,438936,Sunmere,,51,,,3,,,,,,,,,,,,,,,
null,,confidence_buffer,439041,confidence_buffer,,null,,,,,,,,,,,,,,,,,,
1075.6000000238419,,recognition_phase,440118,Sunmere,,52,,,,,,new,1,0.7857142857142857,,,,,,,,,,
null,,confidence_buffer,440223,confidence_buffer,,null,,,,,,,,,,,,,,,,,,
null,,thebreak,440728,break,,null,,,,,,,,,,,,,,,,,,
3367,,realistic_rating,444097,Delaro Park,,50,Delaro Park,Fictional,2,,,,,,,,,,,,,,,
null,,confidence_buffer,444213,confidence_buffer,,null,,,,,,,,,,,,,,,,,,
1608.699999988079,,probe_rating,445824,probe_rating,,50,,,,2,1,,,,,,,,,,,,,
null,,confidence_buffer,445929,confidence_buffer,,null,,,,,,,,,,,,,,,,,,
880.1999999880791,,pt2_unique_rating,446811,Delaro Park,,51,,,3,,,,,,,,,,,,,,,
null,,confidence_buffer,446922,confidence_buffer,,null,,,,,,,,,,,,,,,,,,
1409.300000011921,,pt2_memorable_rating,448333,Delaro Park,,51,,,3,,,,,,,,,,,,,,,
null,,confidence_buffer,448439,confidence_buffer,,null,,,,,,,,,,,,,,,,,,
639.8000000119209,,recognition_phase,449080,Delaro Park,,49,,,,,,old,1,0.8,,,,,,,,,,
null,,confidence_buffer,449184,confidence_buffer,,null,,,,,,,,,,,,,,,,,,
null,,thebreak,449691,break,,null,,,,,,,,,,,,,,,,,,
1460,,realistic_rating,451153,Golden Trace,,51,Golden Trace,Fictional,3,,,,,,,,,,,,,,,
null,,confidence_buffer,451270,confidence_buffer,,null,,,,,,,,,,,,,,,,,,
1475.5,,pt2_unique_rating,452747,Golden Trace,,51,,,3,,,,,,,,,,,,,,,
null,,confidence_buffer,452852,confidence_buffer,,null,,,,,,,,,,,,,,,,,,
1195.800000011921,,pt2_memorable_rating,454049,Golden Trace,,51,,,3,,,,,,,,,,,,,,,
null,,confidence_buffer,454152,confidence_buffer,,null,,,,,,,,,,,,,,,,,,
1461,,recognition_phase,455615,Golden Trace,,52,,,,,,new,1,0.8125,,,,,,,,,,
null,,confidence_buffer,455718,confidence_buffer,,null,,,,,,,,,,,,,,,,,,
null,,thebreak,456225,break,,null,,,,,,,,,,,,,,,,,,
1652.199999988079,,realistic_rating,457879,New Verdan,,51,New Verdan,Fictional,3,,,,,,,,,,,,,,,
null,,confidence_buffer,457992,confidence_buffer,,null,,,,,,,,,,,,,,,,,,
580.8999999761581,,pt2_unique_rating,458575,New Verdan,,51,,,3,,,,,,,,,,,,,,,
null,,confidence_buffer,458693,confidence_buffer,,null,,,,,,,,,,,,,,,,,,
833.5999999642372,,pt2_memorable_rating,459528,New Verdan,,51,,,3,,,,,,,,,,,,,,,
null,,confidence_buffer,459640,confidence_buffer,,null,,,,,,,,,,,,,,,,,,
1242.0999999642372,,recognition_phase,460884,New Verdan,,52,,,,,,new,1,0.8235294117647058,,,,,,,,,,
null,,confidence_buffer,461001,confidence_buffer,,null,,,,,,,,,,,,,,,,,,
null,,thebreak,461512,break,,null,,,,,,,,,,,,,,,,,,
980.6999999880791,,realistic_rating,462495,Cape May,,50,Cape May,US,2,,,,,,,,,,,,,,,
null,,confidence_buffer,462601,confidence_buffer,,null,,,,,,,,,,,,,,,,,,
1254.699999988079,,pt2_unique_rating,463857,Cape May,,51,,,3,,,,,,,,,,,,,,,
null,,confidence_buffer,463963,confidence_buffer,,null,,,,,,,,,,,,,,,,,,
771.3999999761581,,pt2_memorable_rating,464735,Cape May,,51,,,3,,,,,,,,,,,,,,,
null,,confidence_buffer,464840,confidence_buffer,,null,,,,,,,,,,,,,,,,,,
1372.199999988079,,recognition_phase,466214,Cape May,,52,,,,,,new,1,0.8333333333333334,,,,,,,,,,
null,,confidence_buffer,466329,confidence_buffer,,null,,,,,,,,,,,,,,,,,,
null,,thebreak,466839,break,,null,,,,,,,,,,,,,,,,,,
1257.300000011921,,realistic_rating,468098,Park City,,51,Park City,US,3,,,,,,,,,,,,,,,
null,,confidence_buffer,468216,confidence_buffer,,null,,,,,,,,,,,,,,,,,,
1162.8999999761581,,pt2_unique_rating,469381,Park City,,51,,,3,,,,,,,,,,,,,,,
null,,confidence_buffer,469498,confidence_buffer,,null,,,,,,,,,,,,,,,,,,
713.8999999761581,,pt2_memorable_rating,470215,Park City,,51,,,3,,,,,,,,,,,,,,,
null,,confidence_buffer,470318,confidence_buffer,,null,,,,,,,,,,,,,,,,,,
949.1999999880791,,recognition_phase,471269,Park City,,49,,,,,,old,0,0.7894736842105263,,,,,,,,,,
null,,confidence_buffer,471375,confidence_buffer,,null,,,,,,,,,,,,,,,,,,
null,,thebreak,471892,break,,null,,,,,,,,,,,,,,,,,,
1048.0999999642372,,realistic_rating,472942,Silverpine,,51,Silverpine,Fictional,3,,,,,,,,,,,,,,,
null,,confidence_buffer,473053,confidence_buffer,,null,,,,,,,,,,,,,,,,,,
739.3000000119209,,pt2_unique_rating,473795,Silverpine,,51,,,3,,,,,,,,,,,,,,,
null,,confidence_buffer,473912,confidence_buffer,,null,,,,,,,,,,,,,,,,,,
735.3000000119209,,pt2_memorable_rating,474649,Silverpine,,51,,,3,,,,,,,,,,,,,,,
null,,confidence_buffer,474753,confidence_buffer,,null,,,,,,,,,,,,,,,,,,
2224.099999964237,,recognition_phase,476980,Silverpine,,51,,,,,,new,1,0.8,,,,,,,,,,
null,,confidence_buffer,477088,confidence_buffer,,null,,,,,,,,,,,,,,,,,,
null,,thebreak,477594,break,,null,,,,,,,,,,,,,,,,,,
1353.800000011921,,realistic_rating,478949,Natchez,,51,Natchez,US,3,,,,,,,,,,,,,,,
null,,confidence_buffer,479065,confidence_buffer,,null,,,,,,,,,,,,,,,,,,
1030.199999988079,,pt2_unique_rating,480096,Natchez,,50,,,2,,,,,,,,,,,,,,,
null,,confidence_buffer,480198,confidence_buffer,,null,,,,,,,,,,,,,,,,,,
851.6999999880791,,pt2_memorable_rating,481051,Natchez,,50,,,2,,,,,,,,,,,,,,,
null,,confidence_buffer,481161,confidence_buffer,,null,,,,,,,,,,,,,,,,,,
1517.6000000238419,,recognition_phase,482680,Natchez,,52,,,,,,new,1,0.8095238095238095,,,,,,,,,,
null,,confidence_buffer,482792,confidence_buffer,,null,,,,,,,,,,,,,,,,,,
null,,thebreak,483300,break,,null,,,,,,,,,,,,,,,,,,
1641.8999999761581,,realistic_rating,484943,Crestwood,,51,Crestwood,Fictional,3,,,,,,,,,,,,,,,
null,,confidence_buffer,485049,confidence_buffer,,null,,,,,,,,,,,,,,,,,,
1978.8999999761581,,probe_rating,487029,probe_rating,,51,,,,3,1,,,,,,,,,,,,,
null,,confidence_buffer,487133,confidence_buffer,,null,,,,,,,,,,,,,,,,,,
1769.199999988079,,pt2_unique_rating,488904,Crestwood,,51,,,3,,,,,,,,,,,,,,,
null,,confidence_buffer,489013,confidence_buffer,,null,,,,,,,,,,,,,,,,,,
1888.8999999761581,,pt2_memorable_rating,490903,Crestwood,,52,,,4,,,,,,,,,,,,,,,
null,,confidence_buffer,491013,confidence_buffer,,null,,,,,,,,,,,,,,,,,,
1444.800000011921,,recognition_phase,492460,Crestwood,,50,,,,,,old,1,0.8181818181818182,,,,,,,,,,
null,,confidence_buffer,492577,confidence_buffer,,null,,,,,,,,,,,,,,,,,,
null,,thebreak,493080,break,,null,,,,,,,,,,,,,,,,,,
2059.600000023842,,realistic_rating,495142,Berkeley Springs,,51,Berkeley Springs,US,3,,,,,,,,,,,,,,,
null,,confidence_buffer,495246,confidence_buffer,,null,,,,,,,,,,,,,,,,,,
1026.5,,pt2_unique_rating,496274,Berkeley Springs,,51,,,3,,,,,,,,,,,,,,,
null,,confidence_buffer,496385,confidence_buffer,,null,,,,,,,,,,,,,,,,,,
1440.199999988079,,pt2_memorable_rating,497827,Berkeley Springs,,52,,,4,,,,,,,,,,,,,,,
null,,confidence_buffer,497938,confidence_buffer,,null,,,,,,,,,,,,,,,,,,
1767.800000011921,,recognition_phase,499708,Berkeley Springs,,49,,,,,,old,0,0.782608695652174,,,,,,,,,,
null,,confidence_buffer,499817,confidence_buffer,,null,,,,,,,,,,,,,,,,,,
null,,thebreak,500321,break,,null,,,,,,,,,,,,,,,,,,
2034.800000011921,,realistic_rating,502358,Briarfield,,50,Briarfield,Fictional,2,,,,,,,,,,,,,,,
null,,confidence_buffer,502470,confidence_buffer,,null,,,,,,,,,,,,,,,,,,
650.3000000119209,,pt2_unique_rating,503123,Briarfield,,50,,,2,,,,,,,,,,,,,,,
null,,confidence_buffer,503233,confidence_buffer,,null,,,,,,,,,,,,,,,,,,
1280.5,,pt2_memorable_rating,504516,Briarfield,,50,,,2,,,,,,,,,,,,,,,
null,,confidence_buffer,504621,confidence_buffer,,null,,,,,,,,,,,,,,,,,,
1742.3999999761581,,recognition_phase,506365,Briarfield,,52,,,,,,new,1,0.7916666666666666,,,,,,,,,,
null,,confidence_buffer,506471,confidence_buffer,,null,,,,,,,,,,,,,,,,,,
null,,thebreak,506976,break,,null,,,,,,,,,,,,,,,,,,
1311.800000011921,,realistic_rating,508289,Fairhaven,,50,Fairhaven,Fictional,2,,,,,,,,,,,,,,,
null,,confidence_buffer,508398,confidence_buffer,,null,,,,,,,,,,,,,,,,,,
2149.699999988079,,pt2_unique_rating,510550,Fairhaven,,50,,,2,,,,,,,,,,,,,,,
null,,confidence_buffer,510668,confidence_buffer,,null,,,,,,,,,,,,,,,,,,
1586.199999988079,,pt2_memorable_rating,512256,Fairhaven,,51,,,3,,,,,,,,,,,,,,,
null,,confidence_buffer,512363,confidence_buffer,,null,,,,,,,,,,,,,,,,,,
966.3000000119209,,recognition_phase,513331,Fairhaven,,50,,,,,,old,1,0.8,,,,,,,,,,
null,,confidence_buffer,513440,confidence_buffer,,null,,,,,,,,,,,,,,,,,,
null,,thebreak,513952,break,,null,,,,,,,,,,,,,,,,,,
2215.5,,realistic_rating,516169,Albuquerque,,53,Albuquerque,US,5,,,,,,,,,,,,,,,
null,,confidence_buffer,516273,confidence_buffer,,null,,,,,,,,,,,,,,,,,,
2175.899999976158,,probe_rating,518451,probe_rating,,52,,,,4,1,,,,,,,,,,,,,
null,,confidence_buffer,518563,confidence_buffer,,null,,,,,,,,,,,,,,,,,,
959.5,,pt2_unique_rating,519525,Albuquerque,,53,,,5,,,,,,,,,,,,,,,
null,,confidence_buffer,519631,confidence_buffer,,null,,,,,,,,,,,,,,,,,,
1849.300000011921,,pt2_memorable_rating,521482,Albuquerque,,53,,,5,,,,,,,,,,,,,,,
null,,confidence_buffer,521585,confidence_buffer,,null,,,,,,,,,,,,,,,,,,
1559.800000011921,,recognition_phase,523147,Albuquerque,,49,,,,,,old,1,0.8076923076923077,,,,,,,,,,
null,,confidence_buffer,523258,confidence_buffer,,null,,,,,,,,,,,,,,,,,,
null,,thebreak,523770,break,,null,,,,,,,,,,,,,,,,,,
2503.100000023842,,realistic_rating,526275,Lake of the Ozarks,,51,Lake of the Ozarks,US,3,,,,,,,,,,,,,,,
null,,confidence_buffer,526378,confidence_buffer,,null,,,,,,,,,,,,,,,,,,
1392.300000011921,,probe_rating,527772,probe_rating,,49,,,,1,1,,,,,,,,,,,,,
null,,confidence_buffer,527886,confidence_buffer,,null,,,,,,,,,,,,,,,,,,
1462.0999999642372,,pt2_unique_rating,529350,Lake of the Ozarks,,51,,,3,,,,,,,,,,,,,,,
null,,confidence_buffer,529455,confidence_buffer,,null,,,,,,,,,,,,,,,,,,
2456.199999988079,,pt2_memorable_rating,531913,Lake of the Ozarks,,51,,,3,,,,,,,,,,,,,,,
null,,confidence_buffer,532018,confidence_buffer,,null,,,,,,,,,,,,,,,,,,
1582.3999999761581,,recognition_phase,533602,Lake of the Ozarks,,52,,,,,,new,1,0.8148148148148148,,,,,,,,,,
null,,confidence_buffer,533707,confidence_buffer,,null,,,,,,,,,,,,,,,,,,
null,,thebreak,534224,break,,null,,,,,,,,,,,,,,,,,,
3074.300000011921,,realistic_rating,537300,Delaware City,,51,Delaware City,US,3,,,,,,,,,,,,,,,
null,,confidence_buffer,537404,confidence_buffer,,null,,,,,,,,,,,,,,,,,,
1177.800000011921,,pt2_unique_rating,538582,Delaware City,,51,,,3,,,,,,,,,,,,,,,
null,,confidence_buffer,538691,confidence_buffer,,null,,,,,,,,,,,,,,,,,,
785.1999999880791,,pt2_memorable_rating,539478,Delaware City,,51,,,3,,,,,,,,,,,,,,,
null,,confidence_buffer,539592,confidence_buffer,,null,,,,,,,,,,,,,,,,,,
1356.2000000476837,,recognition_phase,540949,Delaware City,,52,,,,,,new,1,0.8214285714285714,,,,,,,,,,
null,,confidence_buffer,541052,confidence_buffer,,null,,,,,,,,,,,,,,,,,,
null,,thebreak,541565,break,,null,,,,,,,,,,,,,,,,,,
1878.199999988079,,realistic_rating,543445,Sisters,,51,Sisters,US,3,,,,,,,,,,,,,,,
null,,confidence_buffer,543555,confidence_buffer,,null,,,,,,,,,,,,,,,,,,
976.6999999880791,,pt2_unique_rating,544533,Sisters,,51,,,3,,,,,,,,,,,,,,,
null,,confidence_buffer,544642,confidence_buffer,,null,,,,,,,,,,,,,,,,,,
2251,,pt2_memorable_rating,546895,Sisters,,51,,,3,,,,,,,,,,,,,,,
null,,confidence_buffer,547013,confidence_buffer,,null,,,,,,,,,,,,,,,,,,
1702.800000011921,,probe_rating,548718,probe_rating,,52,,,,4,1,,,,,,,,,,,,,
null,,confidence_buffer,548830,confidence_buffer,,null,,,,,,,,,,,,,,,,,,
1075.199999988079,,recognition_phase,549907,Sisters,,49,,,,,,old,1,0.8275862068965517,,,,,,,,,,
null,,confidence_buffer,550013,confidence_buffer,,null,,,,,,,,,,,,,,,,,,
null,,thebreak,550519,break,,null,,,,,,,,,,,,,,,,,,
3903.900000035763,,realistic_rating,554425,Orchard Bend,,52,Orchard Bend,Fictional,4,,,,,,,,,,,,,,,
null,,confidence_buffer,554528,confidence_buffer,,null,,,,,,,,,,,,,,,,,,
1030.8999999761581,,pt2_unique_rating,555561,Orchard Bend,,52,,,4,,,,,,,,,,,,,,,
null,,confidence_buffer,555678,confidence_buffer,,null,,,,,,,,,,,,,,,,,,
816.6999999880791,,pt2_memorable_rating,556496,Orchard Bend,,52,,,4,,,,,,,,,,,,,,,
null,,confidence_buffer,556605,confidence_buffer,,null,,,,,,,,,,,,,,,,,,
883.7000000476837,,recognition_phase,557491,Orchard Bend,,49,,,,,,old,1,0.8333333333333334,,,,,,,,,,
null,,confidence_buffer,557608,confidence_buffer,,null,,,,,,,,,,,,,,,,,,
null,,thebreak,558117,break,,null,,,,,,,,,,,,,,,,,,
3144.199999988079,,realistic_rating,561264,Gardnerville,,51,Gardnerville,US,3,,,,,,,,,,,,,,,
null,,confidence_buffer,561373,confidence_buffer,,null,,,,,,,,,,,,,,,,,,
1349.8999999761581,,pt2_unique_rating,562725,Gardnerville,,51,,,3,,,,,,,,,,,,,,,
null,,confidence_buffer,562831,confidence_buffer,,null,,,,,,,,,,,,,,,,,,
1758.300000011921,,pt2_memorable_rating,564591,Gardnerville,,51,,,3,,,,,,,,,,,,,,,
null,,confidence_buffer,564706,confidence_buffer,,null,,,,,,,,,,,,,,,,,,
1517.4000000357628,,recognition_phase,566225,Gardnerville,,49,,,,,,old,0,0.8064516129032258,,,,,,,,,,
null,,confidence_buffer,566329,confidence_buffer,,null,,,,,,,,,,,,,,,,,,
null,,thebreak,566842,break,,null,,,,,,,,,,,,,,,,,,
2635.400000035763,,realistic_rating,569480,Hollendale,,51,Hollendale,Fictional,3,,,,,,,,,,,,,,,
null,,confidence_buffer,569590,confidence_buffer,,null,,,,,,,,,,,,,,,,,,
737.7000000476837,,pt2_unique_rating,570329,Hollendale,,51,,,3,,,,,,,,,,,,,,,
null,,confidence_buffer,570441,confidence_buffer,,null,,,,,,,,,,,,,,,,,,
1166.1000000238419,,pt2_memorable_rating,571609,Hollendale,,51,,,3,,,,,,,,,,,,,,,
null,,confidence_buffer,571713,confidence_buffer,,null,,,,,,,,,,,,,,,,,,
740.6999999880791,,recognition_phase,572456,Hollendale,,49,,,,,,old,0,0.78125,,,,,,,,,,
null,,confidence_buffer,572561,confidence_buffer,,null,,,,,,,,,,,,,,,,,,
null,,thebreak,573078,break,,null,,,,,,,,,,,,,,,,,,
4205.400000035763,,realistic_rating,577286,Pine Hollow,,51,Pine Hollow,Fictional,3,,,,,,,,,,,,,,,
null,,confidence_buffer,577394,confidence_buffer,,null,,,,,,,,,,,,,,,,,,
1183.800000011921,,pt2_unique_rating,578580,Pine Hollow,,51,,,3,,,,,,,,,,,,,,,
null,,confidence_buffer,578688,confidence_buffer,,null,,,,,,,,,,,,,,,,,,
1263.800000011921,,probe_rating,579954,probe_rating,,49,,,,1,1,,,,,,,,,,,,,
null,,confidence_buffer,580061,confidence_buffer,,null,,,,,,,,,,,,,,,,,,
868.9000000357628,,pt2_memorable_rating,580931,Pine Hollow,,50,,,2,,,,,,,,,,,,,,,
null,,confidence_buffer,581034,confidence_buffer,,null,,,,,,,,,,,,,,,,,,
450.89999997615814,,recognition_phase,581487,Pine Hollow,,49,,,,,,old,0,0.7575757575757576,,,,,,,,,,
null,,confidence_buffer,581592,confidence_buffer,,null,,,,,,,,,,,,,,,,,,
null,,thebreak,582100,break,,null,,,,,,,,,,,,,,,,,,
1612.800000011921,,realistic_rating,583714,Solara Glen,,51,Solara Glen,Fictional,3,,,,,,,,,,,,,,,
null,,confidence_buffer,583832,confidence_buffer,,null,,,,,,,,,,,,,,,,,,
929.4000000357628,,pt2_unique_rating,584763,Solara Glen,,52,,,4,,,,,,,,,,,,,,,
null,,confidence_buffer,584876,confidence_buffer,,null,,,,,,,,,,,,,,,,,,
850.5999999642372,,pt2_memorable_rating,585728,Solara Glen,,51,,,3,,,,,,,,,,,,,,,
null,,confidence_buffer,585834,confidence_buffer,,null,,,,,,,,,,,,,,,,,,
1549.5999999642372,,recognition_phase,587386,Solara Glen,,52,,,,,,new,1,0.7647058823529411,,,,,,,,,,
null,,confidence_buffer,587498,confidence_buffer,,null,,,,,,,,,,,,,,,,,,
null,,thebreak,588000,break,,null,,,,,,,,,,,,,,,,,,
1594.800000011921,,realistic_rating,589597,Meadowspire,,51,Meadowspire,Fictional,3,,,,,,,,,,,,,,,
null,,confidence_buffer,589704,confidence_buffer,,null,,,,,,,,,,,,,,,,,,
1121.300000011921,,pt2_unique_rating,590828,Meadowspire,,51,,,3,,,,,,,,,,,,,,,
null,,confidence_buffer,590939,confidence_buffer,,null,,,,,,,,,,,,,,,,,,
837.6999999880791,,pt2_memorable_rating,591778,Meadowspire,,50,,,2,,,,,,,,,,,,,,,
null,,confidence_buffer,591897,confidence_buffer,,null,,,,,,,,,,,,,,,,,,
822.3999999761581,,recognition_phase,592722,Meadowspire,,49,,,,,,old,1,0.7714285714285715,,,,,,,,,,
null,,confidence_buffer,592838,confidence_buffer,,null,,,,,,,,,,,,,,,,,,
null,,thebreak,593345,break,,null,,,,,,,,,,,,,,,,,,
2352.199999988079,,realistic_rating,595699,Westridge,,51,Westridge,Fictional,3,,,,,,,,,,,,,,,
null,,confidence_buffer,595812,confidence_buffer,,null,,,,,,,,,,,,,,,,,,
615.8000000119209,,pt2_unique_rating,596430,Westridge,,51,,,3,,,,,,,,,,,,,,,
null,,confidence_buffer,596538,confidence_buffer,,null,,,,,,,,,,,,,,,,,,
807.8000000119209,,pt2_memorable_rating,597347,Westridge,,51,,,3,,,,,,,,,,,,,,,
null,,confidence_buffer,597459,confidence_buffer,,null,,,,,,,,,,,,,,,,,,
798.2999999523163,,recognition_phase,598260,Westridge,,49,,,,,,old,0,0.75,,,,,,,,,,
null,,confidence_buffer,598370,confidence_buffer,,null,,,,,,,,,,,,,,,,,,
null,,thebreak,598879,break,,null,,,,,,,,,,,,,,,,,,
1698.6000000238419,,realistic_rating,600579,Stonebrook,,51,Stonebrook,Fictional,3,,,,,,,,,,,,,,,
null,,confidence_buffer,600697,confidence_buffer,,null,,,,,,,,,,,,,,,,,,
698.3000000119209,,pt2_unique_rating,601397,Stonebrook,,51,,,3,,,,,,,,,,,,,,,
null,,confidence_buffer,601513,confidence_buffer,,null,,,,,,,,,,,,,,,,,,
827,,pt2_memorable_rating,602342,Stonebrook,,50,,,2,,,,,,,,,,,,,,,
null,,confidence_buffer,602451,confidence_buffer,,null,,,,,,,,,,,,,,,,,,
695.5999999642372,,recognition_phase,603149,Stonebrook,,49,,,,,,old,1,0.7567567567567568,,,,,,,,,,
null,,confidence_buffer,603253,confidence_buffer,,null,,,,,,,,,,,,,,,,,,
null,,thebreak,603759,break,,null,,,,,,,,,,,,,,,,,,
1207.3999999761581,,realistic_rating,604968,Coeur d'Alene,,51,Coeur d'Alene,US,3,,,,,,,,,,,,,,,
null,,confidence_buffer,605076,confidence_buffer,,null,,,,,,,,,,,,,,,,,,
1044.800000011921,,pt2_unique_rating,606122,Coeur d'Alene,,51,,,3,,,,,,,,,,,,,,,
null,,confidence_buffer,606232,confidence_buffer,,null,,,,,,,,,,,,,,,,,,
866.2999999523163,,pt2_memorable_rating,607101,Coeur d'Alene,,51,,,3,,,,,,,,,,,,,,,
null,,confidence_buffer,607210,confidence_buffer,,null,,,,,,,,,,,,,,,,,,
1313.699999988079,,probe_rating,608525,probe_rating,,52,,,,4,1,,,,,,,,,,,,,
null,,confidence_buffer,608643,confidence_buffer,,null,,,,,,,,,,,,,,,,,,
1425.300000011921,,recognition_phase,610070,Coeur d'Alene,,52,,,,,,new,1,0.7631578947368421,,,,,,,,,,
null,,confidence_buffer,610184,confidence_buffer,,null,,,,,,,,,,,,,,,,,,
null,,thebreak,610700,break,,null,,,,,,,,,,,,,,,,,,
1016.3000000119209,,realistic_rating,611718,Redgrove,,51,Redgrove,Fictional,3,,,,,,,,,,,,,,,
null,,confidence_buffer,611826,confidence_buffer,,null,,,,,,,,,,,,,,,,,,
1134.5999999642372,,probe_rating,612962,probe_rating,,49,,,,1,1,,,,,,,,,,,,,
null,,confidence_buffer,613073,confidence_buffer,,null,,,,,,,,,,,,,,,,,,
821.8000000119209,,pt2_unique_rating,613897,Redgrove,,51,,,3,,,,,,,,,,,,,,,
null,,confidence_buffer,614012,confidence_buffer,,null,,,,,,,,,,,,,,,,,,
1008.8999999761581,,pt2_memorable_rating,615022,Redgrove,,51,,,3,,,,,,,,,,,,,,,
null,,confidence_buffer,615132,confidence_buffer,,null,,,,,,,,,,,,,,,,,,
473,,recognition_phase,615607,Redgrove,,49,,,,,,old,1,0.7692307692307693,,,,,,,,,,
null,,confidence_buffer,615710,confidence_buffer,,null,,,,,,,,,,,,,,,,,,
null,,thebreak,616213,break,,null,,,,,,,,,,,,,,,,,,
944.5,,realistic_rating,617159,Leesburg,,51,Leesburg,US,3,,,,,,,,,,,,,,,
null,,confidence_buffer,617272,confidence_buffer,,null,,,,,,,,,,,,,,,,,,
843.5,,pt2_unique_rating,618117,Leesburg,,51,,,3,,,,,,,,,,,,,,,
null,,confidence_buffer,618223,confidence_buffer,,null,,,,,,,,,,,,,,,,,,
755.3999999761581,,pt2_memorable_rating,618980,Leesburg,,51,,,3,,,,,,,,,,,,,,,
null,,confidence_buffer,619090,confidence_buffer,,null,,,,,,,,,,,,,,,,,,
1206.8999999761581,,recognition_phase,620299,Leesburg,,52,,,,,,new,0,0.75,,,,,,,,,,
null,,confidence_buffer,620403,confidence_buffer,,null,,,,,,,,,,,,,,,,,,
null,,thebreak,620914,break,,null,,,,,,,,,,,,,,,,,,
1260.4000000357628,,realistic_rating,622176,Bar Harbor,,51,Bar Harbor,US,3,,,,,,,,,,,,,,,
null,,confidence_buffer,622278,confidence_buffer,,null,,,,,,,,,,,,,,,,,,
1183.800000011921,,pt2_unique_rating,623464,Bar Harbor,,50,,,2,,,,,,,,,,,,,,,
null,,confidence_buffer,623573,confidence_buffer,,null,,,,,,,,,,,,,,,,,,
705,,pt2_memorable_rating,624279,Bar Harbor,,50,,,2,,,,,,,,,,,,,,,
null,,confidence_buffer,624393,confidence_buffer,,null,,,,,,,,,,,,,,,,,,
1136.800000011921,,recognition_phase,625532,Bar Harbor,,49,,,,,,old,1,0.7560975609756098,,,,,,,,,,
null,,confidence_buffer,625648,confidence_buffer,,null,,,,,,,,,,,,,,,,,,
null,,thebreak,626152,break,,null,,,,,,,,,,,,,,,,,,
1334.2000000476837,,realistic_rating,627488,Claywater,,51,Claywater,Fictional,3,,,,,,,,,,,,,,,
null,,confidence_buffer,627603,confidence_buffer,,null,,,,,,,,,,,,,,,,,,
989.6999999880791,,pt2_unique_rating,628595,Claywater,,51,,,3,,,,,,,,,,,,,,,
null,,confidence_buffer,628713,confidence_buffer,,null,,,,,,,,,,,,,,,,,,
1147.5,,pt2_memorable_rating,629862,Claywater,,51,,,3,,,,,,,,,,,,,,,
null,,confidence_buffer,629967,confidence_buffer,,null,,,,,,,,,,,,,,,,,,
2706.2999999523163,,recognition_phase,632676,Claywater,,52,,,,,,new,1,0.7619047619047619,,,,,,,,,,
null,,confidence_buffer,632783,confidence_buffer,,null,,,,,,,,,,,,,,,,,,
null,,thebreak,633291,break,,null,,,,,,,,,,,,,,,,,,
978.3000000119209,,realistic_rating,634271,Northbridge,,51,Northbridge,Fictional,3,,,,,,,,,,,,,,,
null,,confidence_buffer,634373,confidence_buffer,,null,,,,,,,,,,,,,,,,,,
825.7000000476837,,pt2_unique_rating,635200,Northbridge,,51,,,3,,,,,,,,,,,,,,,
null,,confidence_buffer,635307,confidence_buffer,,null,,,,,,,,,,,,,,,,,,
1222.5,,probe_rating,636532,probe_rating,,52,,,,4,1,,,,,,,,,,,,,
null,,confidence_buffer,636642,confidence_buffer,,null,,,,,,,,,,,,,,,,,,
1591.1000000238419,,pt2_memorable_rating,638235,Northbridge,,52,,,4,,,,,,,,,,,,,,,
null,,confidence_buffer,638341,confidence_buffer,,null,,,,,,,,,,,,,,,,,,
750.6999999880791,,recognition_phase,639094,Northbridge,,49,,,,,,old,1,0.7674418604651163,,,,,,,,,,
null,,confidence_buffer,639205,confidence_buffer,,null,,,,,,,,,,,,,,,,,,
null,,thebreak,639707,break,,null,,,,,,,,,,,,,,,,,,
1237.7999999523163,,realistic_rating,640947,Hot Springs,,51,Hot Springs,US,3,,,,,,,,,,,,,,,
null,,confidence_buffer,641053,confidence_buffer,,null,,,,,,,,,,,,,,,,,,
555.0999999642372,,pt2_unique_rating,641610,Hot Springs,,51,,,3,,,,,,,,,,,,,,,
null,,confidence_buffer,641728,confidence_buffer,,null,,,,,,,,,,,,,,,,,,
946.3000000119209,,pt2_memorable_rating,642676,Hot Springs,,51,,,3,,,,,,,,,,,,,,,
null,,confidence_buffer,642783,confidence_buffer,,null,,,,,,,,,,,,,,,,,,
1059.5,,recognition_phase,643845,Hot Springs,,49,,,,,,old,1,0.7727272727272727,,,,,,,,,,
null,,confidence_buffer,643951,confidence_buffer,,null,,,,,,,,,,,,,,,,,,
null,,thebreak,644463,break,,null,,,,,,,,,,,,,,,,,,
1124.6000000238419,,realistic_rating,645590,Clearbrook,,50,Clearbrook,Fictional,2,,,,,,,,,,,,,,,
null,,confidence_buffer,645704,confidence_buffer,,null,,,,,,,,,,,,,,,,,,
1185.1000000238419,,pt2_unique_rating,646891,Clearbrook,,51,,,3,,,,,,,,,,,,,,,
null,,confidence_buffer,647003,confidence_buffer,,null,,,,,,,,,,,,,,,,,,
762.1999999880791,,pt2_memorable_rating,647767,Clearbrook,,51,,,3,,,,,,,,,,,,,,,
null,,confidence_buffer,647877,confidence_buffer,,null,,,,,,,,,,,,,,,,,,
729.8000000119209,,recognition_phase,648608,Clearbrook,,49,,,,,,old,0,0.7555555555555555,,,,,,,,,,
null,,confidence_buffer,648713,confidence_buffer,,null,,,,,,,,,,,,,,,,,,
null,,thebreak,649221,break,,null,,,,,,,,,,,,,,,,,,
1238.5,,realistic_rating,650461,Okoboji,,51,Okoboji,US,3,,,,,,,,,,,,,,,
null,,confidence_buffer,650576,confidence_buffer,,null,,,,,,,,,,,,,,,,,,
1269.800000011921,,pt2_unique_rating,651848,Okoboji,,50,,,2,,,,,,,,,,,,,,,
null,,confidence_buffer,651963,confidence_buffer,,null,,,,,,,,,,,,,,,,,,
684.6999999880791,,pt2_memorable_rating,652650,Okoboji,,50,,,2,,,,,,,,,,,,,,,
null,,confidence_buffer,652760,confidence_buffer,,null,,,,,,,,,,,,,,,,,,
616.1999999880791,,recognition_phase,653378,Okoboji,,49,,,,,,old,1,0.7608695652173914,,,,,,,,,,
null,,confidence_buffer,653482,confidence_buffer,,null,,,,,,,,,,,,,,,,,,
null,,thebreak,653992,break,,null,,,,,,,,,,,,,,,,,,
1096.5,,realistic_rating,655091,Highvale,,51,Highvale,Fictional,3,,,,,,,,,,,,,,,
null,,confidence_buffer,655208,confidence_buffer,,null,,,,,,,,,,,,,,,,,,
759.5,,pt2_unique_rating,655970,Highvale,,51,,,3,,,,,,,,,,,,,,,
null,,confidence_buffer,656074,confidence_buffer,,null,,,,,,,,,,,,,,,,,,
1309.4000000357628,,pt2_memorable_rating,657384,Highvale,,51,,,3,,,,,,,,,,,,,,,
null,,confidence_buffer,657493,confidence_buffer,,null,,,,,,,,,,,,,,,,,,
1145.8999999761581,,recognition_phase,658641,Highvale,,52,,,,,,new,1,0.7659574468085106,,,,,,,,,,
null,,confidence_buffer,658745,confidence_buffer,,null,,,,,,,,,,,,,,,,,,
null,,thebreak,659249,break,,null,,,,,,,,,,,,,,,,,,
1200.1000000238419,,realistic_rating,660451,Shreveport,,51,Shreveport,US,3,,,,,,,,,,,,,,,
null,,confidence_buffer,660566,confidence_buffer,,null,,,,,,,,,,,,,,,,,,
1014.8000000119209,,probe_rating,661583,probe_rating,,49,,,,1,1,,,,,,,,,,,,,
null,,confidence_buffer,661693,confidence_buffer,,null,,,,,,,,,,,,,,,,,,
1131.199999988079,,pt2_unique_rating,662826,Shreveport,,51,,,3,,,,,,,,,,,,,,,
null,,confidence_buffer,662931,confidence_buffer,,null,,,,,,,,,,,,,,,,,,
939.4000000357628,,pt2_memorable_rating,663872,Shreveport,,51,,,3,,,,,,,,,,,,,,,
null,,confidence_buffer,663981,confidence_buffer,,null,,,,,,,,,,,,,,,,,,
577.3000000119209,,recognition_phase,664560,Shreveport,,49,,,,,,old,0,0.75,,,,,,,,,,
null,,confidence_buffer,664665,confidence_buffer,,null,,,,,,,,,,,,,,,,,,
null,,thebreak,665173,break,,null,,,,,,,,,,,,,,,,,,
1436.5,,realistic_rating,666611,Manistee,,51,Manistee,US,3,,,,,,,,,,,,,,,
null,,confidence_buffer,666720,confidence_buffer,,null,,,,,,,,,,,,,,,,,,
555.8000000119209,,pt2_unique_rating,667277,Manistee,,51,,,3,,,,,,,,,,,,,,,
null,,confidence_buffer,667389,confidence_buffer,,null,,,,,,,,,,,,,,,,,,
708.8999999761581,,pt2_memorable_rating,668100,Manistee,,51,,,3,,,,,,,,,,,,,,,
null,,confidence_buffer,668208,confidence_buffer,,null,,,,,,,,,,,,,,,,,,
724.3000000119209,,recognition_phase,668934,Manistee,,49,,,,,,old,1,0.7551020408163265,,,,,,,,,,
null,,confidence_buffer,669048,confidence_buffer,,null,,,,,,,,,,,,,,,,,,
null,,thebreak,669566,break,,null,,,,,,,,,,,,,,,,,,
997.6999999880791,,realistic_rating,670566,Newport,,51,Newport,US,3,,,,,,,,,,,,,,,
null,,confidence_buffer,670678,confidence_buffer,,null,,,,,,,,,,,,,,,,,,
676.1999999880791,,pt2_unique_rating,671356,Newport,,52,,,4,,,,,,,,,,,,,,,
null,,confidence_buffer,671470,confidence_buffer,,null,,,,,,,,,,,,,,,,,,
956.4000000357628,,pt2_memorable_rating,672428,Newport,,52,,,4,,,,,,,,,,,,,,,
null,,confidence_buffer,672536,confidence_buffer,,null,,,,,,,,,,,,,,,,,,
567.5999999642372,,recognition_phase,673106,Newport,,49,,,,,,old,1,0.76,,,,,,,,,,
null,,confidence_buffer,673220,confidence_buffer,,null,,,,,,,,,,,,,,,,,,
null,,thebreak,673728,break,,null,,,,,,,,,,,,,,,,,,
777.9000000357628,,realistic_rating,674508,Carmel,,51,Carmel,US,3,,,,,,,,,,,,,,,
null,,confidence_buffer,674620,confidence_buffer,,null,,,,,,,,,,,,,,,,,,
967.1999999880791,,pt2_unique_rating,675589,Carmel,,51,,,3,,,,,,,,,,,,,,,
null,,confidence_buffer,675695,confidence_buffer,,null,,,,,,,,,,,,,,,,,,
931.6000000238419,,pt2_memorable_rating,676629,Carmel,,51,,,3,,,,,,,,,,,,,,,
null,,confidence_buffer,676739,confidence_buffer,,null,,,,,,,,,,,,,,,,,,
652.3000000119209,,recognition_phase,677394,Carmel,,49,,,,,,old,1,0.7647058823529411,,,,,,,,,,
null,,confidence_buffer,677503,confidence_buffer,,null,,,,,,,,,,,,,,,,,,
null,,thebreak,678011,break,,null,,,,,,,,,,,,,,,,,,
899.9000000357628,,realistic_rating,678913,Cornwall,,52,Cornwall,US,4,,,,,,,,,,,,,,,
null,,confidence_buffer,679025,confidence_buffer,,null,,,,,,,,,,,,,,,,,,
896.6999999880791,,pt2_unique_rating,679924,Cornwall,,52,,,4,,,,,,,,,,,,,,,
null,,confidence_buffer,680034,confidence_buffer,,null,,,,,,,,,,,,,,,,,,
677.6999999880791,,pt2_memorable_rating,680714,Cornwall,,52,,,4,,,,,,,,,,,,,,,
null,,confidence_buffer,680823,confidence_buffer,,null,,,,,,,,,,,,,,,,,,
503.19999998807907,,recognition_phase,681328,Cornwall,,49,,,,,,old,1,0.7692307692307693,,,,,,,,,,
null,,confidence_buffer,681432,confidence_buffer,,null,,,,,,,,,,,,,,,,,,
null,,thebreak,681941,break,,null,,,,,,,,,,,,,,,,,,
787.3000000119209,,realistic_rating,682731,Sammamish,,51,Sammamish,US,3,,,,,,,,,,,,,,,
null,,confidence_buffer,682840,confidence_buffer,,null,,,,,,,,,,,,,,,,,,
780.4000000357628,,pt2_unique_rating,683622,Sammamish,,52,,,4,,,,,,,,,,,,,,,
null,,confidence_buffer,683731,confidence_buffer,,null,,,,,,,,,,,,,,,,,,
705.6999999880791,,pt2_memorable_rating,684439,Sammamish,,51,,,3,,,,,,,,,,,,,,,
null,,confidence_buffer,684548,confidence_buffer,,null,,,,,,,,,,,,,,,,,,
613.8999999761581,,recognition_phase,685163,Sammamish,,49,,,,,,old,1,0.7735849056603774,,,,,,,,,,
null,,confidence_buffer,685273,confidence_buffer,,null,,,,,,,,,,,,,,,,,,
null,,thebreak,685782,break,,null,,,,,,,,,,,,,,,,,,
1050.1000000238419,,realistic_rating,686834,Brookmere,,51,Brookmere,Fictional,3,,,,,,,,,,,,,,,
null,,confidence_buffer,686948,confidence_buffer,,null,,,,,,,,,,,,,,,,,,
1004.9000000357628,,pt2_unique_rating,687954,Brookmere,,51,,,3,,,,,,,,,,,,,,,
null,,confidence_buffer,688066,confidence_buffer,,null,,,,,,,,,,,,,,,,,,
1340.800000011921,,probe_rating,689409,probe_rating,,51,,,,3,1,,,,,,,,,,,,,
null,,confidence_buffer,689512,confidence_buffer,,null,,,,,,,,,,,,,,,,,,
1176,,pt2_memorable_rating,690690,Brookmere,,52,,,4,,,,,,,,,,,,,,,
null,,confidence_buffer,690798,confidence_buffer,,null,,,,,,,,,,,,,,,,,,
532,,recognition_phase,691332,Brookmere,,49,,,,,,old,1,0.7777777777777778,,,,,,,,,,
null,,confidence_buffer,691438,confidence_buffer,,null,,,,,,,,,,,,,,,,,,
null,,thebreak,691948,break,,null,,,,,,,,,,,,,,,,,,
790,,realistic_rating,692740,Racine,,51,Racine,US,3,,,,,,,,,,,,,,,
null,,confidence_buffer,692853,confidence_buffer,,null,,,,,,,,,,,,,,,,,,
692.3000000119209,,pt2_unique_rating,693547,Racine,,52,,,4,,,,,,,,,,,,,,,
null,,confidence_buffer,693653,confidence_buffer,,null,,,,,,,,,,,,,,,,,,
615.6999999880791,,pt2_memorable_rating,694271,Racine,,52,,,4,,,,,,,,,,,,,,,
null,,confidence_buffer,694385,confidence_buffer,,null,,,,,,,,,,,,,,,,,,
1285.2999999523163,,recognition_phase,695672,Racine,,52,,,,,,new,1,0.7818181818181819,,,,,,,,,,
null,,confidence_buffer,695779,confidence_buffer,,null,,,,,,,,,,,,,,,,,,
null,,thebreak,696296,break,,null,,,,,,,,,,,,,,,,,,
2714.699999988079,,realistic_rating,699012,North Arroya,,51,North Arroya,Fictional,3,,,,,,,,,,,,,,,
null,,confidence_buffer,699118,confidence_buffer,,null,,,,,,,,,,,,,,,,,,
1114.5,,pt2_unique_rating,700234,North Arroya,,51,,,3,,,,,,,,,,,,,,,
null,,confidence_buffer,700343,confidence_buffer,,null,,,,,,,,,,,,,,,,,,
913.5,,pt2_memorable_rating,701258,North Arroya,,51,,,3,,,,,,,,,,,,,,,
null,,confidence_buffer,701367,confidence_buffer,,null,,,,,,,,,,,,,,,,,,
742.5,,recognition_phase,702111,North Arroya,,52,,,,,,new,0,0.7678571428571429,,,,,,,,,,
null,,confidence_buffer,702225,confidence_buffer,,null,,,,,,,,,,,,,,,,,,
null,,thebreak,702742,break,,null,,,,,,,,,,,,,,,,,,
1264.699999988079,,realistic_rating,704008,Cody,,51,Cody,US,3,,,,,,,,,,,,,,,
null,,confidence_buffer,704117,confidence_buffer,,null,,,,,,,,,,,,,,,,,,
1031.699999988079,,pt2_unique_rating,705151,Cody,,50,,,2,,,,,,,,,,,,,,,
null,,confidence_buffer,705260,confidence_buffer,,null,,,,,,,,,,,,,,,,,,
816,,pt2_memorable_rating,706077,Cody,,50,,,2,,,,,,,,,,,,,,,
null,,confidence_buffer,706192,confidence_buffer,,null,,,,,,,,,,,,,,,,,,
1148.5,,recognition_phase,707343,Cody,,52,,,,,,new,0,0.7543859649122807,,,,,,,,,,
null,,confidence_buffer,707457,confidence_buffer,,null,,,,,,,,,,,,,,,,,,
null,,thebreak,707967,break,,null,,,,,,,,,,,,,,,,,,
2220.2999999523163,,realistic_rating,710190,Ironwood Heights,,51,Ironwood Heights,Fictional,3,,,,,,,,,,,,,,,
null,,confidence_buffer,710296,confidence_buffer,,null,,,,,,,,,,,,,,,,,,
615,,pt2_unique_rating,710914,Ironwood Heights,,51,,,3,,,,,,,,,,,,,,,
null,,confidence_buffer,711023,confidence_buffer,,null,,,,,,,,,,,,,,,,,,
910,,pt2_memorable_rating,711935,Ironwood Heights,,51,,,3,,,,,,,,,,,,,,,
null,,confidence_buffer,712048,confidence_buffer,,null,,,,,,,,,,,,,,,,,,
840,,recognition_phase,712891,Ironwood Heights,,49,,,,,,old,1,0.7586206896551724,,,,,,,,,,
null,,confidence_buffer,713008,confidence_buffer,,null,,,,,,,,,,,,,,,,,,
null,,thebreak,713515,break,,null,,,,,,,,,,,,,,,,,,
1541.199999988079,,realistic_rating,715057,Linden Trace,,51,Linden Trace,Fictional,3,,,,,,,,,,,,,,,
null,,confidence_buffer,715160,confidence_buffer,,null,,,,,,,,,,,,,,,,,,
679.6999999880791,,pt2_unique_rating,715841,Linden Trace,,51,,,3,,,,,,,,,,,,,,,
null,,confidence_buffer,715953,confidence_buffer,,null,,,,,,,,,,,,,,,,,,
840.3000000119209,,pt2_memorable_rating,716795,Linden Trace,,51,,,3,,,,,,,,,,,,,,,
null,,confidence_buffer,716905,confidence_buffer,,null,,,,,,,,,,,,,,,,,,
2461,,recognition_phase,719368,Linden Trace,,51,,,,,,new,1,0.7627118644067796,,,,,,,,,,
null,,confidence_buffer,719478,confidence_buffer,,null,,,,,,,,,,,,,,,,,,
null,,thebreak,719995,break,,null,,,,,,,,,,,,,,,,,,
1528.300000011921,,realistic_rating,721525,Maravilla Springs,,51,Maravilla Springs,Fictional,3,,,,,,,,,,,,,,,
null,,confidence_buffer,721636,confidence_buffer,,null,,,,,,,,,,,,,,,,,,
1101.4000000357628,,pt2_unique_rating,722739,Maravilla Springs,,50,,,2,,,,,,,,,,,,,,,
null,,confidence_buffer,722843,confidence_buffer,,null,,,,,,,,,,,,,,,,,,
664.1999999880791,,pt2_memorable_rating,723509,Maravilla Springs,,51,,,3,,,,,,,,,,,,,,,
null,,confidence_buffer,723612,confidence_buffer,,null,,,,,,,,,,,,,,,,,,
1108.5,,recognition_phase,724722,Maravilla Springs,,51,,,,,,new,0,0.75,,,,,,,,,,
null,,confidence_buffer,724833,confidence_buffer,,null,,,,,,,,,,,,,,,,,,
null,,thebreak,725344,break,,null,,,,,,,,,,,,,,,,,,
,,survey,919298,survey-questions,,,,,,,,,,,none,high,I gave my full attention,i followed the instructions carefully,Just follow the lead and read thoroughly ,Newport, sisters,Sisters,Newport,No,Not at all
