rt,responses,trial_type,time_elapsed,stimulus,button_pressed,key_press,name_trial,city_type,rating,probe,probe_accuracy,response,correct,accuracy,problems,smooth,distraction,strategies,familiar,memorable,unique,realistic,similar,comments
6354.30000000447,{worker_id:647003e9da103f564525356f},id_enter,6356,,,,,,,,,,,,,,,,,,,,,
32540.09999999404,,fullscreen,38899,fullscreen,0,,,,,,,,,,,,,,,,,,,
17120.29999999702,,intro_0,56021,instruct,,32,,,,,,,,,,,,,,,,,,
32355.70000000298,,intro_1,88379,instruct,,32,,,,,,,,,,,,,,,,,,
13661.89999999851,,intro_2,102042,instruct,,32,,,,,,,,,,,,,,,,,,
null,,instruct_dir_4,103543,instruct,,null,,,,,,,,,,,,,,,,,,
null,,thebreak,104045,break,,null,,,,,,,,,,,,,,,,,,
18822.29999999702,,familiar_rating,122869,Hollendale,,49,Hollendale,Fictional,1,,,,,,,,,,,,,,,
null,,confidence_buffer,122971,confidence_buffer,,null,,,,,,,,,,,,,,,,,,
10127.29999999702,,unique_rating,133100,Hollendale,,50,,,2,,,,,,,,,,,,,,,
null,,confidence_buffer,133203,confidence_buffer,,null,,,,,,,,,,,,,,,,,,
9944.80000000447,,memorable_rating,143149,Hollendale,,51,,,3,,,,,,,,,,,,,,,
null,,confidence_buffer,143251,confidence_buffer,,null,,,,,,,,,,,,,,,,,,
null,,thebreak,143752,break,,null,,,,,,,,,,,,,,,,,,
16660.5,,familiar_rating,160414,Albuquerque,,52,Albuquerque,US,4,,,,,,,,,,,,,,,
null,,confidence_buffer,160517,confidence_buffer,,null,,,,,,,,,,,,,,,,,,
14454,,unique_rating,174972,Albuquerque,,51,,,3,,,,,,,,,,,,,,,
null,,confidence_buffer,175073,confidence_buffer,,null,,,,,,,,,,,,,,,,,,
9530.20000000298,,memorable_rating,184604,Albuquerque,,52,,,4,,,,,,,,,,,,,,,
null,,confidence_buffer,184706,confidence_buffer,,null,,,,,,,,,,,,,,,,,,
null,,thebreak,185209,break,,null,,,,,,,,,,,,,,,,,,
6986.30000000447,,familiar_rating,192196,West Palm Beach,,52,West Palm Beach,US,4,,,,,,,,,,,,,,,
null,,confidence_buffer,192299,confidence_buffer,,null,,,,,,,,,,,,,,,,,,
4455.30000000447,,unique_rating,196756,West Palm Beach,,51,,,3,,,,,,,,,,,,,,,
null,,confidence_buffer,196859,confidence_buffer,,null,,,,,,,,,,,,,,,,,,
5552,,memorable_rating,202412,West Palm Beach,,52,,,4,,,,,,,,,,,,,,,
null,,confidence_buffer,202514,confidence_buffer,,null,,,,,,,,,,,,,,,,,,
null,,thebreak,203016,break,,null,,,,,,,,,,,,,,,,,,
5634.60000000149,,familiar_rating,208651,Falconridge,,49,Falconridge,Fictional,1,,,,,,,,,,,,,,,
null,,confidence_buffer,208754,confidence_buffer,,null,,,,,,,,,,,,,,,,,,
11336.30000000447,,unique_rating,220092,Falconridge,,51,,,3,,,,,,,,,,,,,,,
null,,confidence_buffer,220193,confidence_buffer,,null,,,,,,,,,,,,,,,,,,
3529.5999999940395,,memorable_rating,223724,Falconridge,,50,,,2,,,,,,,,,,,,,,,
null,,confidence_buffer,223826,confidence_buffer,,null,,,,,,,,,,,,,,,,,,
null,,thebreak,224327,break,,null,,,,,,,,,,,,,,,,,,
7499.79999999702,,familiar_rating,231829,Lakehaven,,50,Lakehaven,Fictional,2,,,,,,,,,,,,,,,
null,,confidence_buffer,231930,confidence_buffer,,null,,,,,,,,,,,,,,,,,,
4865.70000000298,,unique_rating,236797,Lakehaven,,50,,,2,,,,,,,,,,,,,,,
null,,confidence_buffer,236900,confidence_buffer,,null,,,,,,,,,,,,,,,,,,
5055.79999999702,,memorable_rating,241957,Lakehaven,,51,,,3,,,,,,,,,,,,,,,
null,,confidence_buffer,242059,confidence_buffer,,null,,,,,,,,,,,,,,,,,,
null,,thebreak,242561,break,,null,,,,,,,,,,,,,,,,,,
13537.29999999702,,familiar_rating,256099,Juniper Creek,,50,Juniper Creek,Fictional,2,,,,,,,,,,,,,,,
null,,confidence_buffer,256201,confidence_buffer,,null,,,,,,,,,,,,,,,,,,
3347.5,,unique_rating,259549,Juniper Creek,,50,,,2,,,,,,,,,,,,,,,
null,,confidence_buffer,259651,confidence_buffer,,null,,,,,,,,,,,,,,,,,,
2422.7999999970198,,memorable_rating,262074,Juniper Creek,,51,,,3,,,,,,,,,,,,,,,
null,,confidence_buffer,262176,confidence_buffer,,null,,,,,,,,,,,,,,,,,,
null,,thebreak,262678,break,,null,,,,,,,,,,,,,,,,,,
3725.5,,familiar_rating,266404,Sammamish,,49,Sammamish,US,1,,,,,,,,,,,,,,,
null,,confidence_buffer,266507,confidence_buffer,,null,,,,,,,,,,,,,,,,,,
11470.30000000447,,unique_rating,277979,Sammamish,,49,,,1,,,,,,,,,,,,,,,
null,,confidence_buffer,278080,confidence_buffer,,null,,,,,,,,,,,,,,,,,,
4985,,probe_rating,283066,probe_rating,,49,,,,1,1,,,,,,,,,,,,,
null,,confidence_buffer,283167,confidence_buffer,,null,,,,,,,,,,,,,,,,,,
6979,,memorable_rating,290147,Sammamish,,50,,,2,,,,,,,,,,,,,,,
null,,confidence_buffer,290248,confidence_buffer,,null,,,,,,,,,,,,,,,,,,
null,,thebreak,290749,break,,null,,,,,,,,,,,,,,,,,,
3302.6999999955297,,familiar_rating,294053,West Talora,,49,West Talora,Fictional,1,,,,,,,,,,,,,,,
null,,confidence_buffer,294155,confidence_buffer,,null,,,,,,,,,,,,,,,,,,
3670.5999999940395,,unique_rating,297828,West Talora,,50,,,2,,,,,,,,,,,,,,,
null,,confidence_buffer,297930,confidence_buffer,,null,,,,,,,,,,,,,,,,,,
10465.89999999851,,memorable_rating,308397,West Talora,,50,,,2,,,,,,,,,,,,,,,
null,,confidence_buffer,308499,confidence_buffer,,null,,,,,,,,,,,,,,,,,,
null,,thebreak,309001,break,,null,,,,,,,,,,,,,,,,,,
3913.7999999970198,,familiar_rating,312916,Westridge,,49,Westridge,Fictional,1,,,,,,,,,,,,,,,
null,,confidence_buffer,313019,confidence_buffer,,null,,,,,,,,,,,,,,,,,,
4904.5,,unique_rating,317925,Westridge,,50,,,2,,,,,,,,,,,,,,,
null,,confidence_buffer,318027,confidence_buffer,,null,,,,,,,,,,,,,,,,,,
1560.3999999985099,,memorable_rating,319589,Westridge,,50,,,2,,,,,,,,,,,,,,,
null,,confidence_buffer,319691,confidence_buffer,,null,,,,,,,,,,,,,,,,,,
null,,thebreak,320193,break,,null,,,,,,,,,,,,,,,,,,
9987.5,,familiar_rating,330182,Millstone,,49,Millstone,Fictional,1,,,,,,,,,,,,,,,
null,,confidence_buffer,330297,confidence_buffer,,null,,,,,,,,,,,,,,,,,,
2992.2000000029802,,unique_rating,333290,Millstone,,50,,,2,,,,,,,,,,,,,,,
null,,confidence_buffer,333391,confidence_buffer,,null,,,,,,,,,,,,,,,,,,
1266.6000000014901,,memorable_rating,334659,Millstone,,50,,,2,,,,,,,,,,,,,,,
null,,confidence_buffer,334760,confidence_buffer,,null,,,,,,,,,,,,,,,,,,
3450.5,,probe_rating,338211,probe_rating,,52,,,,4,1,,,,,,,,,,,,,
null,,confidence_buffer,338314,confidence_buffer,,null,,,,,,,,,,,,,,,,,,
null,,thebreak,338816,break,,null,,,,,,,,,,,,,,,,,,
4658.5,,familiar_rating,343476,Riverlyn,,49,Riverlyn,Fictional,1,,,,,,,,,,,,,,,
null,,confidence_buffer,343579,confidence_buffer,,null,,,,,,,,,,,,,,,,,,
3711.89999999851,,unique_rating,347291,Riverlyn,,50,,,2,,,,,,,,,,,,,,,
null,,confidence_buffer,347393,confidence_buffer,,null,,,,,,,,,,,,,,,,,,
7136.39999999851,,memorable_rating,354531,Riverlyn,,51,,,3,,,,,,,,,,,,,,,
null,,confidence_buffer,354632,confidence_buffer,,null,,,,,,,,,,,,,,,,,,
2954.7999999970198,,probe_rating,357588,probe_rating,,53,,,,5,1,,,,,,,,,,,,,
null,,confidence_buffer,357691,confidence_buffer,,null,,,,,,,,,,,,,,,,,,
null,,thebreak,358192,break,,null,,,,,,,,,,,,,,,,,,
6074.89999999851,,familiar_rating,364268,Sisters,,50,Sisters,US,2,,,,,,,,,,,,,,,
null,,confidence_buffer,364370,confidence_buffer,,null,,,,,,,,,,,,,,,,,,
3361.6999999955297,,unique_rating,367733,Sisters,,50,,,2,,,,,,,,,,,,,,,
null,,confidence_buffer,367835,confidence_buffer,,null,,,,,,,,,,,,,,,,,,
6159.89999999851,,memorable_rating,373996,Sisters,,52,,,4,,,,,,,,,,,,,,,
null,,confidence_buffer,374098,confidence_buffer,,null,,,,,,,,,,,,,,,,,,
null,,thebreak,374600,break,,null,,,,,,,,,,,,,,,,,,
7116,,familiar_rating,381717,Duck,,49,Duck,US,1,,,,,,,,,,,,,,,
null,,confidence_buffer,381819,confidence_buffer,,null,,,,,,,,,,,,,,,,,,
3848.2999999970198,,unique_rating,385668,Duck,,49,,,1,,,,,,,,,,,,,,,
null,,confidence_buffer,385770,confidence_buffer,,null,,,,,,,,,,,,,,,,,,
3383.89999999851,,probe_rating,389155,probe_rating,,53,,,,5,1,,,,,,,,,,,,,
null,,confidence_buffer,389258,confidence_buffer,,null,,,,,,,,,,,,,,,,,,
9219.20000000298,,memorable_rating,398478,Duck,,51,,,3,,,,,,,,,,,,,,,
null,,confidence_buffer,398579,confidence_buffer,,null,,,,,,,,,,,,,,,,,,
null,,thebreak,399081,break,,null,,,,,,,,,,,,,,,,,,
4713.9000000059605,,familiar_rating,403796,Solara Glen,,49,Solara Glen,Fictional,1,,,,,,,,,,,,,,,
null,,confidence_buffer,403898,confidence_buffer,,null,,,,,,,,,,,,,,,,,,
5914.29999999702,,unique_rating,409813,Solara Glen,,50,,,2,,,,,,,,,,,,,,,
null,,confidence_buffer,409915,confidence_buffer,,null,,,,,,,,,,,,,,,,,,
4495.60000000149,,memorable_rating,414412,Solara Glen,,51,,,3,,,,,,,,,,,,,,,
null,,confidence_buffer,414514,confidence_buffer,,null,,,,,,,,,,,,,,,,,,
null,,thebreak,415015,break,,null,,,,,,,,,,,,,,,,,,
4019.60000000149,,familiar_rating,419036,Sierra Hollow,,49,Sierra Hollow,Fictional,1,,,,,,,,,,,,,,,
null,,confidence_buffer,419137,confidence_buffer,,null,,,,,,,,,,,,,,,,,,
4666.19999999553,,unique_rating,423804,Sierra Hollow,,50,,,2,,,,,,,,,,,,,,,
null,,confidence_buffer,423907,confidence_buffer,,null,,,,,,,,,,,,,,,,,,
2255.5,,memorable_rating,426164,Sierra Hollow,,51,,,3,,,,,,,,,,,,,,,
null,,confidence_buffer,426267,confidence_buffer,,null,,,,,,,,,,,,,,,,,,
null,,thebreak,426768,break,,null,,,,,,,,,,,,,,,,,,
4546.60000000149,,familiar_rating,431316,Gloucester,,49,Gloucester,US,1,,,,,,,,,,,,,,,
null,,confidence_buffer,431425,confidence_buffer,,null,,,,,,,,,,,,,,,,,,
5024.19999999553,,unique_rating,436450,Gloucester,,50,,,2,,,,,,,,,,,,,,,
null,,confidence_buffer,436552,confidence_buffer,,null,,,,,,,,,,,,,,,,,,
1387.1000000014901,,memorable_rating,437940,Gloucester,,50,,,2,,,,,,,,,,,,,,,
null,,confidence_buffer,438041,confidence_buffer,,null,,,,,,,,,,,,,,,,,,
null,,thebreak,438544,break,,null,,,,,,,,,,,,,,,,,,
4427.29999999702,,familiar_rating,442972,Alliance,,49,Alliance,US,1,,,,,,,,,,,,,,,
null,,confidence_buffer,443074,confidence_buffer,,null,,,,,,,,,,,,,,,,,,
2280.89999999851,,unique_rating,445356,Alliance,,50,,,2,,,,,,,,,,,,,,,
null,,confidence_buffer,445458,confidence_buffer,,null,,,,,,,,,,,,,,,,,,
2304.60000000149,,memorable_rating,447764,Alliance,,51,,,3,,,,,,,,,,,,,,,
null,,confidence_buffer,447867,confidence_buffer,,null,,,,,,,,,,,,,,,,,,
null,,thebreak,448368,break,,null,,,,,,,,,,,,,,,,,,
13899.09999999404,,familiar_rating,462268,Boulder,,52,Boulder,US,4,,,,,,,,,,,,,,,
null,,confidence_buffer,462370,confidence_buffer,,null,,,,,,,,,,,,,,,,,,
5798.29999999702,,unique_rating,468170,Boulder,,51,,,3,,,,,,,,,,,,,,,
null,,confidence_buffer,468272,confidence_buffer,,null,,,,,,,,,,,,,,,,,,
3002.60000000149,,memorable_rating,471275,Boulder,,52,,,4,,,,,,,,,,,,,,,
null,,confidence_buffer,471378,confidence_buffer,,null,,,,,,,,,,,,,,,,,,
null,,thebreak,471879,break,,null,,,,,,,,,,,,,,,,,,
6195.79999999702,,familiar_rating,478076,Tamarisk Hills,,49,Tamarisk Hills,Fictional,1,,,,,,,,,,,,,,,
null,,confidence_buffer,478178,confidence_buffer,,null,,,,,,,,,,,,,,,,,,
5889.10000000149,,unique_rating,484069,Tamarisk Hills,,50,,,2,,,,,,,,,,,,,,,
null,,confidence_buffer,484170,confidence_buffer,,null,,,,,,,,,,,,,,,,,,
2488.60000000149,,memorable_rating,486660,Tamarisk Hills,,51,,,3,,,,,,,,,,,,,,,
null,,confidence_buffer,486762,confidence_buffer,,null,,,,,,,,,,,,,,,,,,
null,,thebreak,487263,break,,null,,,,,,,,,,,,,,,,,,
6197,,familiar_rating,493461,Berkeley Springs,,50,Berkeley Springs,US,2,,,,,,,,,,,,,,,
null,,confidence_buffer,493563,confidence_buffer,,null,,,,,,,,,,,,,,,,,,
5543.79999999702,,unique_rating,499108,Berkeley Springs,,50,,,2,,,,,,,,,,,,,,,
null,,confidence_buffer,499211,confidence_buffer,,null,,,,,,,,,,,,,,,,,,
1790,,memorable_rating,501002,Berkeley Springs,,51,,,3,,,,,,,,,,,,,,,
null,,confidence_buffer,501104,confidence_buffer,,null,,,,,,,,,,,,,,,,,,
null,,thebreak,501604,break,,null,,,,,,,,,,,,,,,,,,
3807.2999999970198,,familiar_rating,505413,Claywater,,49,Claywater,Fictional,1,,,,,,,,,,,,,,,
null,,confidence_buffer,505515,confidence_buffer,,null,,,,,,,,,,,,,,,,,,
2057.10000000149,,unique_rating,507573,Claywater,,50,,,2,,,,,,,,,,,,,,,
null,,confidence_buffer,507676,confidence_buffer,,null,,,,,,,,,,,,,,,,,,
2919,,memorable_rating,510596,Claywater,,51,,,3,,,,,,,,,,,,,,,
null,,confidence_buffer,510698,confidence_buffer,,null,,,,,,,,,,,,,,,,,,
null,,thebreak,511200,break,,null,,,,,,,,,,,,,,,,,,
5251.29999999702,,familiar_rating,516452,Leesburg,,52,Leesburg,US,4,,,,,,,,,,,,,,,
null,,confidence_buffer,516555,confidence_buffer,,null,,,,,,,,,,,,,,,,,,
3231.5,,unique_rating,519788,Leesburg,,51,,,3,,,,,,,,,,,,,,,
null,,confidence_buffer,519891,confidence_buffer,,null,,,,,,,,,,,,,,,,,,
2550.39999999851,,probe_rating,522442,probe_rating,,50,,,,2,1,,,,,,,,,,,,,
null,,confidence_buffer,522544,confidence_buffer,,null,,,,,,,,,,,,,,,,,,
3499,,memorable_rating,526044,Leesburg,,52,,,4,,,,,,,,,,,,,,,
null,,confidence_buffer,526146,confidence_buffer,,null,,,,,,,,,,,,,,,,,,
null,,thebreak,526648,break,,null,,,,,,,,,,,,,,,,,,
5347.39999999851,,familiar_rating,531997,Cornwall,,49,Cornwall,US,1,,,,,,,,,,,,,,,
null,,confidence_buffer,532099,confidence_buffer,,null,,,,,,,,,,,,,,,,,,
1543.8999999985099,,unique_rating,533644,Cornwall,,50,,,2,,,,,,,,,,,,,,,
null,,confidence_buffer,533746,confidence_buffer,,null,,,,,,,,,,,,,,,,,,
5505,,memorable_rating,539252,Cornwall,,51,,,3,,,,,,,,,,,,,,,
null,,confidence_buffer,539354,confidence_buffer,,null,,,,,,,,,,,,,,,,,,
null,,thebreak,539856,break,,null,,,,,,,,,,,,,,,,,,
4299.79999999702,,familiar_rating,544157,Folly Beach,,49,Folly Beach,US,1,,,,,,,,,,,,,,,
null,,confidence_buffer,544259,confidence_buffer,,null,,,,,,,,,,,,,,,,,,
4495.89999999851,,unique_rating,548755,Folly Beach,,50,,,2,,,,,,,,,,,,,,,
null,,confidence_buffer,548857,confidence_buffer,,null,,,,,,,,,,,,,,,,,,
1418.6000000014901,,memorable_rating,550277,Folly Beach,,51,,,3,,,,,,,,,,,,,,,
null,,confidence_buffer,550379,confidence_buffer,,null,,,,,,,,,,,,,,,,,,
null,,thebreak,550881,break,,null,,,,,,,,,,,,,,,,,,
6370.60000000149,,familiar_rating,557252,Yukon,,49,Yukon,US,1,,,,,,,,,,,,,,,
null,,confidence_buffer,557354,confidence_buffer,,null,,,,,,,,,,,,,,,,,,
1766.7999999970198,,unique_rating,559122,Yukon,,50,,,2,,,,,,,,,,,,,,,
null,,confidence_buffer,559223,confidence_buffer,,null,,,,,,,,,,,,,,,,,,
2156.39999999851,,memorable_rating,561380,Yukon,,51,,,3,,,,,,,,,,,,,,,
null,,confidence_buffer,561482,confidence_buffer,,null,,,,,,,,,,,,,,,,,,
null,,thebreak,561984,break,,null,,,,,,,,,,,,,,,,,,
4755.39999999851,,familiar_rating,566741,Athens,,52,Athens,US,4,,,,,,,,,,,,,,,
null,,confidence_buffer,566843,confidence_buffer,,null,,,,,,,,,,,,,,,,,,
7887,,unique_rating,574730,Athens,,50,,,2,,,,,,,,,,,,,,,
null,,confidence_buffer,574832,confidence_buffer,,null,,,,,,,,,,,,,,,,,,
3132.39999999851,,memorable_rating,577965,Athens,,52,,,4,,,,,,,,,,,,,,,
null,,confidence_buffer,578066,confidence_buffer,,null,,,,,,,,,,,,,,,,,,
null,,thebreak,578567,break,,null,,,,,,,,,,,,,,,,,,
3443.60000000149,,familiar_rating,582013,Meadowspire,,49,Meadowspire,Fictional,1,,,,,,,,,,,,,,,
null,,confidence_buffer,582115,confidence_buffer,,null,,,,,,,,,,,,,,,,,,
3097.5,,unique_rating,585214,Meadowspire,,50,,,2,,,,,,,,,,,,,,,
null,,confidence_buffer,585317,confidence_buffer,,null,,,,,,,,,,,,,,,,,,
2381.7000000029802,,probe_rating,587700,probe_rating,,53,,,,5,1,,,,,,,,,,,,,
null,,confidence_buffer,587802,confidence_buffer,,null,,,,,,,,,,,,,,,,,,
5960.39999999851,,memorable_rating,593764,Meadowspire,,51,,,3,,,,,,,,,,,,,,,
null,,confidence_buffer,593866,confidence_buffer,,null,,,,,,,,,,,,,,,,,,
null,,thebreak,594367,break,,null,,,,,,,,,,,,,,,,,,
10513.80000000447,,familiar_rating,604882,Natchez,,52,Natchez,US,4,,,,,,,,,,,,,,,
null,,confidence_buffer,604984,confidence_buffer,,null,,,,,,,,,,,,,,,,,,
4627.5,,unique_rating,609613,Natchez,,51,,,3,,,,,,,,,,,,,,,
null,,confidence_buffer,609715,confidence_buffer,,null,,,,,,,,,,,,,,,,,,
4486.10000000149,,memorable_rating,614202,Natchez,,53,,,5,,,,,,,,,,,,,,,
null,,confidence_buffer,614305,confidence_buffer,,null,,,,,,,,,,,,,,,,,,
null,,thebreak,614806,break,,null,,,,,,,,,,,,,,,,,,
3323.8000000044703,,familiar_rating,618131,New Verdan,,49,New Verdan,Fictional,1,,,,,,,,,,,,,,,
null,,confidence_buffer,618232,confidence_buffer,,null,,,,,,,,,,,,,,,,,,
1938,,unique_rating,620171,New Verdan,,50,,,2,,,,,,,,,,,,,,,
null,,confidence_buffer,620272,confidence_buffer,,null,,,,,,,,,,,,,,,,,,
3401.5,,memorable_rating,623674,New Verdan,,51,,,3,,,,,,,,,,,,,,,
null,,confidence_buffer,623776,confidence_buffer,,null,,,,,,,,,,,,,,,,,,
null,,thebreak,624277,break,,null,,,,,,,,,,,,,,,,,,
6229,,familiar_rating,630507,Montelake,,49,Montelake,Fictional,1,,,,,,,,,,,,,,,
null,,confidence_buffer,630609,confidence_buffer,,null,,,,,,,,,,,,,,,,,,
1753.5,,unique_rating,632364,Montelake,,50,,,2,,,,,,,,,,,,,,,
null,,confidence_buffer,632466,confidence_buffer,,null,,,,,,,,,,,,,,,,,,
2464.7000000029802,,memorable_rating,634932,Montelake,,50,,,2,,,,,,,,,,,,,,,
null,,confidence_buffer,635034,confidence_buffer,,null,,,,,,,,,,,,,,,,,,
null,,thebreak,635536,break,,null,,,,,,,,,,,,,,,,,,
13490.20000000298,,intro_0,649027,instruct,,32,,,,,,,,,,,,,,,,,,
25352.09999999404,,intro_1,674380,instruct,,32,,,,,,,,,,,,,,,,,,
67709.70000000298,,intro_2,742091,instruct,,32,,,,,,,,,,,,,,,,,,
null,,instruct_dir_4,743593,instruct,,null,,,,,,,,,,,,,,,,,,
15761.20000000298,,realistic_rating,759356,Linden Trace,,50,Linden Trace,Fictional,2,,,,,,,,,,,,,,,
null,,confidence_buffer,759459,confidence_buffer,,null,,,,,,,,,,,,,,,,,,
6704.0999999940395,,pt2_unique_rating,766164,Linden Trace,,51,,,3,,,,,,,,,,,,,,,
null,,confidence_buffer,766266,confidence_buffer,,null,,,,,,,,,,,,,,,,,,
8185,,pt2_memorable_rating,774452,Linden Trace,,51,,,3,,,,,,,,,,,,,,,
null,,confidence_buffer,774555,confidence_buffer,,null,,,,,,,,,,,,,,,,,,
9655.10000000149,,recognition_phase,784212,Linden Trace,,52,,,,,,new,1,1,,,,,,,,,,
null,,confidence_buffer,784314,confidence_buffer,,null,,,,,,,,,,,,,,,,,,
null,,thebreak,784816,break,,null,,,,,,,,,,,,,,,,,,
6361,,realistic_rating,791178,Coeur d'Alene,,53,Coeur d'Alene,US,5,,,,,,,,,,,,,,,
null,,confidence_buffer,791280,confidence_buffer,,null,,,,,,,,,,,,,,,,,,
3403.3000000044703,,probe_rating,794684,probe_rating,,49,,,,1,1,,,,,,,,,,,,,
null,,confidence_buffer,794786,confidence_buffer,,null,,,,,,,,,,,,,,,,,,
6895.80000000447,,pt2_unique_rating,801683,Coeur d'Alene,,52,,,4,,,,,,,,,,,,,,,
null,,confidence_buffer,801784,confidence_buffer,,null,,,,,,,,,,,,,,,,,,
4659,,pt2_memorable_rating,806444,Coeur d'Alene,,53,,,5,,,,,,,,,,,,,,,
null,,confidence_buffer,806546,confidence_buffer,,null,,,,,,,,,,,,,,,,,,
3672.8000000044703,,recognition_phase,810220,Coeur d'Alene,,52,,,,,,new,1,1,,,,,,,,,,
null,,confidence_buffer,810323,confidence_buffer,,null,,,,,,,,,,,,,,,,,,
null,,thebreak,810825,break,,null,,,,,,,,,,,,,,,,,,
16602.5,,realistic_rating,827429,Livingston,,53,Livingston,US,5,,,,,,,,,,,,,,,
null,,confidence_buffer,827531,confidence_buffer,,null,,,,,,,,,,,,,,,,,,
2118.2999999970198,,probe_rating,829650,probe_rating,,50,,,,2,1,,,,,,,,,,,,,
null,,confidence_buffer,829751,confidence_buffer,,null,,,,,,,,,,,,,,,,,,
3252.2999999970198,,pt2_unique_rating,833004,Livingston,,51,,,3,,,,,,,,,,,,,,,
null,,confidence_buffer,833106,confidence_buffer,,null,,,,,,,,,,,,,,,,,,
2639.5,,pt2_memorable_rating,835747,Livingston,,52,,,4,,,,,,,,,,,,,,,
null,,confidence_buffer,835848,confidence_buffer,,null,,,,,,,,,,,,,,,,,,
12515.19999999553,,recognition_phase,848365,Livingston,,50,,,,,,old,0,0.6666666666666666,,,,,,,,,,
null,,confidence_buffer,848468,confidence_buffer,,null,,,,,,,,,,,,,,,,,,
null,,thebreak,848969,break,,null,,,,,,,,,,,,,,,,,,
6441.20000000298,,realistic_rating,855411,Yukon,,53,Yukon,US,5,,,,,,,,,,,,,,,
null,,confidence_buffer,855512,confidence_buffer,,null,,,,,,,,,,,,,,,,,,
5042.79999999702,,pt2_unique_rating,860555,Yukon,,52,,,4,,,,,,,,,,,,,,,
null,,confidence_buffer,860657,confidence_buffer,,null,,,,,,,,,,,,,,,,,,
3762.10000000149,,pt2_memorable_rating,864420,Yukon,,53,,,5,,,,,,,,,,,,,,,
null,,confidence_buffer,864522,confidence_buffer,,null,,,,,,,,,,,,,,,,,,
6016.20000000298,,probe_rating,870540,probe_rating,,49,,,,1,1,,,,,,,,,,,,,
null,,confidence_buffer,870642,confidence_buffer,,null,,,,,,,,,,,,,,,,,,
5121.4000000059605,,recognition_phase,875764,Yukon,,52,,,,,,new,0,0.5,,,,,,,,,,
null,,confidence_buffer,875866,confidence_buffer,,null,,,,,,,,,,,,,,,,,,
null,,thebreak,876367,break,,null,,,,,,,,,,,,,,,,,,
27876.10000000149,,realistic_rating,904245,Granton Ridge,,51,Granton Ridge,Fictional,3,,,,,,,,,,,,,,,
null,,confidence_buffer,904348,confidence_buffer,,null,,,,,,,,,,,,,,,,,,
3262.39999999851,,pt2_unique_rating,907612,Granton Ridge,,50,,,2,,,,,,,,,,,,,,,
null,,confidence_buffer,907714,confidence_buffer,,null,,,,,,,,,,,,,,,,,,
1937.0999999940395,,pt2_memorable_rating,909652,Granton Ridge,,51,,,3,,,,,,,,,,,,,,,
null,,confidence_buffer,909754,confidence_buffer,,null,,,,,,,,,,,,,,,,,,
3688.5999999940395,,recognition_phase,913444,Granton Ridge,,52,,,,,,new,1,0.6,,,,,,,,,,
null,,confidence_buffer,913546,confidence_buffer,,null,,,,,,,,,,,,,,,,,,
null,,thebreak,914049,break,,null,,,,,,,,,,,,,,,,,,
6810.39999999851,,realistic_rating,920860,Leesburg,,53,Leesburg,US,5,,,,,,,,,,,,,,,
null,,confidence_buffer,920962,confidence_buffer,,null,,,,,,,,,,,,,,,,,,
1801.5,,probe_rating,922765,probe_rating,,49,,,,1,1,,,,,,,,,,,,,
null,,confidence_buffer,922867,confidence_buffer,,null,,,,,,,,,,,,,,,,,,
3112.8000000044703,,pt2_unique_rating,925981,Leesburg,,52,,,4,,,,,,,,,,,,,,,
null,,confidence_buffer,926083,confidence_buffer,,null,,,,,,,,,,,,,,,,,,
2079.0999999940395,,pt2_memorable_rating,928163,Leesburg,,52,,,4,,,,,,,,,,,,,,,
null,,confidence_buffer,928265,confidence_buffer,,null,,,,,,,,,,,,,,,,,,
3866,,recognition_phase,932132,Leesburg,,52,,,,,,new,0,0.5,,,,,,,,,,
null,,confidence_buffer,932234,confidence_buffer,,null,,,,,,,,,,,,,,,,,,
null,,thebreak,932735,break,,null,,,,,,,,,,,,,,,,,,
9011.20000000298,,realistic_rating,941748,Lakehaven,,52,Lakehaven,Fictional,4,,,,,,,,,,,,,,,
null,,confidence_buffer,941850,confidence_buffer,,null,,,,,,,,,,,,,,,,,,
2361.2000000029802,,pt2_unique_rating,944212,Lakehaven,,51,,,3,,,,,,,,,,,,,,,
null,,confidence_buffer,944314,confidence_buffer,,null,,,,,,,,,,,,,,,,,,
2816.7000000029802,,pt2_memorable_rating,947132,Lakehaven,,52,,,4,,,,,,,,,,,,,,,
null,,confidence_buffer,947234,confidence_buffer,,null,,,,,,,,,,,,,,,,,,
3568.1999999955297,,recognition_phase,950803,Lakehaven,,51,,,,,,new,0,0.42857142857142855,,,,,,,,,,
null,,confidence_buffer,950905,confidence_buffer,,null,,,,,,,,,,,,,,,,,,
null,,thebreak,951407,break,,null,,,,,,,,,,,,,,,,,,
9531.70000000298,,realistic_rating,960940,Ravenport,,50,Ravenport,Fictional,2,,,,,,,,,,,,,,,
null,,confidence_buffer,961042,confidence_buffer,,null,,,,,,,,,,,,,,,,,,
2297.5,,probe_rating,963341,probe_rating,,50,,,,2,1,,,,,,,,,,,,,
null,,confidence_buffer,963444,confidence_buffer,,null,,,,,,,,,,,,,,,,,,
5743.89999999851,,pt2_unique_rating,969189,Ravenport,,51,,,3,,,,,,,,,,,,,,,
null,,confidence_buffer,969291,confidence_buffer,,null,,,,,,,,,,,,,,,,,,
3246.7999999970198,,pt2_memorable_rating,972538,Ravenport,,51,,,3,,,,,,,,,,,,,,,
null,,confidence_buffer,972639,confidence_buffer,,null,,,,,,,,,,,,,,,,,,
2347.89999999851,,recognition_phase,974988,Ravenport,,52,,,,,,new,1,0.5,,,,,,,,,,
null,,confidence_buffer,975089,confidence_buffer,,null,,,,,,,,,,,,,,,,,,
null,,thebreak,975590,break,,null,,,,,,,,,,,,,,,,,,
8102,,realistic_rating,983693,Carmel,,53,Carmel,US,5,,,,,,,,,,,,,,,
null,,confidence_buffer,983795,confidence_buffer,,null,,,,,,,,,,,,,,,,,,
4038.5,,pt2_unique_rating,987835,Carmel,,52,,,4,,,,,,,,,,,,,,,
null,,confidence_buffer,987937,confidence_buffer,,null,,,,,,,,,,,,,,,,,,
1313,,pt2_memorable_rating,989250,Carmel,,52,,,4,,,,,,,,,,,,,,,
null,,confidence_buffer,989352,confidence_buffer,,null,,,,,,,,,,,,,,,,,,
3451.10000000149,,recognition_phase,992804,Carmel,,52,,,,,,new,1,0.5555555555555556,,,,,,,,,,
null,,confidence_buffer,992906,confidence_buffer,,null,,,,,,,,,,,,,,,,,,
null,,thebreak,993408,break,,null,,,,,,,,,,,,,,,,,,
8280.10000000149,,realistic_rating,1001690,Gloucester,,50,Gloucester,US,2,,,,,,,,,,,,,,,
null,,confidence_buffer,1001791,confidence_buffer,,null,,,,,,,,,,,,,,,,,,
2067.89999999851,,pt2_unique_rating,1003861,Gloucester,,50,,,2,,,,,,,,,,,,,,,
null,,confidence_buffer,1003962,confidence_buffer,,null,,,,,,,,,,,,,,,,,,
1600,,pt2_memorable_rating,1005564,Gloucester,,51,,,3,,,,,,,,,,,,,,,
null,,confidence_buffer,1005666,confidence_buffer,,null,,,,,,,,,,,,,,,,,,
2561.10000000149,,recognition_phase,1008229,Gloucester,,49,,,,,,old,1,0.6,,,,,,,,,,
null,,confidence_buffer,1008331,confidence_buffer,,null,,,,,,,,,,,,,,,,,,
null,,thebreak,1008831,break,,null,,,,,,,,,,,,,,,,,,
7498.79999999702,,realistic_rating,1016331,Sammamish,,50,Sammamish,US,2,,,,,,,,,,,,,,,
null,,confidence_buffer,1016432,confidence_buffer,,null,,,,,,,,,,,,,,,,,,
2931.60000000149,,pt2_unique_rating,1019365,Sammamish,,50,,,2,,,,,,,,,,,,,,,
null,,confidence_buffer,1019466,confidence_buffer,,null,,,,,,,,,,,,,,,,,,
2857.2000000029802,,pt2_memorable_rating,1022325,Sammamish,,51,,,3,,,,,,,,,,,,,,,
null,,confidence_buffer,1022426,confidence_buffer,,null,,,,,,,,,,,,,,,,,,
1569.6999999955297,,recognition_phase,1023997,Sammamish,,49,,,,,,old,1,0.6363636363636364,,,,,,,,,,
null,,confidence_buffer,1024098,confidence_buffer,,null,,,,,,,,,,,,,,,,,,
null,,thebreak,1024600,break,,null,,,,,,,,,,,,,,,,,,
7809.39999999851,,realistic_rating,1032410,Cape May,,51,Cape May,US,3,,,,,,,,,,,,,,,
null,,confidence_buffer,1032513,confidence_buffer,,null,,,,,,,,,,,,,,,,,,
3242.3000000044703,,pt2_unique_rating,1035756,Cape May,,50,,,2,,,,,,,,,,,,,,,
null,,confidence_buffer,1035858,confidence_buffer,,null,,,,,,,,,,,,,,,,,,
3216.60000000149,,pt2_memorable_rating,1039075,Cape May,,51,,,3,,,,,,,,,,,,,,,
null,,confidence_buffer,1039177,confidence_buffer,,null,,,,,,,,,,,,,,,,,,
2944.89999999851,,recognition_phase,1042123,Cape May,,52,,,,,,new,1,0.6666666666666666,,,,,,,,,,
null,,confidence_buffer,1042224,confidence_buffer,,null,,,,,,,,,,,,,,,,,,
null,,thebreak,1042726,break,,null,,,,,,,,,,,,,,,,,,
4676.89999999851,,realistic_rating,1047404,Summershade,,50,Summershade,Fictional,2,,,,,,,,,,,,,,,
null,,confidence_buffer,1047506,confidence_buffer,,null,,,,,,,,,,,,,,,,,,
1879.8999999985099,,pt2_unique_rating,1049386,Summershade,,51,,,3,,,,,,,,,,,,,,,
null,,confidence_buffer,1049487,confidence_buffer,,null,,,,,,,,,,,,,,,,,,
2267.3000000044703,,pt2_memorable_rating,1051756,Summershade,,51,,,3,,,,,,,,,,,,,,,
null,,confidence_buffer,1051857,confidence_buffer,,null,,,,,,,,,,,,,,,,,,
2577.5,,recognition_phase,1054436,Summershade,,52,,,,,,new,1,0.6923076923076923,,,,,,,,,,
null,,confidence_buffer,1054538,confidence_buffer,,null,,,,,,,,,,,,,,,,,,
null,,thebreak,1055039,break,,null,,,,,,,,,,,,,,,,,,
5932.60000000149,,realistic_rating,1060973,Tamarisk Hills,,50,Tamarisk Hills,Fictional,2,,,,,,,,,,,,,,,
null,,confidence_buffer,1061074,confidence_buffer,,null,,,,,,,,,,,,,,,,,,
2823,,pt2_unique_rating,1063898,Tamarisk Hills,,51,,,3,,,,,,,,,,,,,,,
null,,confidence_buffer,1063999,confidence_buffer,,null,,,,,,,,,,,,,,,,,,
2555.5999999940395,,pt2_memorable_rating,1066555,Tamarisk Hills,,51,,,3,,,,,,,,,,,,,,,
null,,confidence_buffer,1066656,confidence_buffer,,null,,,,,,,,,,,,,,,,,,
4820,,recognition_phase,1071478,Tamarisk Hills,,51,,,,,,new,0,0.6428571428571429,,,,,,,,,,
null,,confidence_buffer,1071580,confidence_buffer,,null,,,,,,,,,,,,,,,,,,
null,,thebreak,1072081,break,,null,,,,,,,,,,,,,,,,,,
5033.60000000149,,realistic_rating,1077115,Westridge,,50,Westridge,Fictional,2,,,,,,,,,,,,,,,
null,,confidence_buffer,1077217,confidence_buffer,,null,,,,,,,,,,,,,,,,,,
2888.60000000149,,pt2_unique_rating,1080107,Westridge,,50,,,2,,,,,,,,,,,,,,,
null,,confidence_buffer,1080209,confidence_buffer,,null,,,,,,,,,,,,,,,,,,
1417.6999999955297,,pt2_memorable_rating,1081627,Westridge,,51,,,3,,,,,,,,,,,,,,,
null,,confidence_buffer,1081729,confidence_buffer,,null,,,,,,,,,,,,,,,,,,
4969.70000000298,,recognition_phase,1086700,Westridge,,49,,,,,,old,1,0.6666666666666666,,,,,,,,,,
null,,confidence_buffer,1086802,confidence_buffer,,null,,,,,,,,,,,,,,,,,,
null,,thebreak,1087304,break,,null,,,,,,,,,,,,,,,,,,
5259.60000000149,,realistic_rating,1092564,Alliance,,51,Alliance,US,3,,,,,,,,,,,,,,,
null,,confidence_buffer,1092666,confidence_buffer,,null,,,,,,,,,,,,,,,,,,
2617.8000000044703,,pt2_unique_rating,1095285,Alliance,,50,,,2,,,,,,,,,,,,,,,
null,,confidence_buffer,1095393,confidence_buffer,,null,,,,,,,,,,,,,,,,,,
3594,,probe_rating,1098989,probe_rating,,53,,,,5,1,,,,,,,,,,,,,
null,,confidence_buffer,1099090,confidence_buffer,,null,,,,,,,,,,,,,,,,,,
5490.30000000447,,pt2_memorable_rating,1104581,Alliance,,51,,,3,,,,,,,,,,,,,,,
null,,confidence_buffer,1104683,confidence_buffer,,null,,,,,,,,,,,,,,,,,,
2327.7000000029802,,recognition_phase,1107011,Alliance,,49,,,,,,old,1,0.6875,,,,,,,,,,
null,,confidence_buffer,1107113,confidence_buffer,,null,,,,,,,,,,,,,,,,,,
null,,thebreak,1107616,break,,null,,,,,,,,,,,,,,,,,,
7315.80000000447,,realistic_rating,1114933,Hilo,,50,Hilo,US,2,,,,,,,,,,,,,,,
null,,confidence_buffer,1115036,confidence_buffer,,null,,,,,,,,,,,,,,,,,,
3031.0999999940395,,pt2_unique_rating,1118069,Hilo,,51,,,3,,,,,,,,,,,,,,,
null,,confidence_buffer,1118170,confidence_buffer,,null,,,,,,,,,,,,,,,,,,
2240.6999999955297,,pt2_memorable_rating,1120412,Hilo,,52,,,4,,,,,,,,,,,,,,,
null,,confidence_buffer,1120514,confidence_buffer,,null,,,,,,,,,,,,,,,,,,
4481.39999999851,,recognition_phase,1124996,Hilo,,52,,,,,,new,1,0.7058823529411765,,,,,,,,,,
null,,confidence_buffer,1125098,confidence_buffer,,null,,,,,,,,,,,,,,,,,,
null,,thebreak,1125599,break,,null,,,,,,,,,,,,,,,,,,
6372,,realistic_rating,1131972,Boulder,,53,Boulder,US,5,,,,,,,,,,,,,,,
null,,confidence_buffer,1132074,confidence_buffer,,null,,,,,,,,,,,,,,,,,,
2792.2000000029802,,pt2_unique_rating,1134866,Boulder,,52,,,4,,,,,,,,,,,,,,,
null,,confidence_buffer,1134968,confidence_buffer,,null,,,,,,,,,,,,,,,,,,
3914,,pt2_memorable_rating,1138883,Boulder,,52,,,4,,,,,,,,,,,,,,,
null,,confidence_buffer,1138985,confidence_buffer,,null,,,,,,,,,,,,,,,,,,
1850.1000000014901,,recognition_phase,1140836,Boulder,,49,,,,,,old,1,0.7222222222222222,,,,,,,,,,
null,,confidence_buffer,1140938,confidence_buffer,,null,,,,,,,,,,,,,,,,,,
null,,thebreak,1141440,break,,null,,,,,,,,,,,,,,,,,,
12411.29999999702,,realistic_rating,1153853,Delaware City,,52,Delaware City,US,4,,,,,,,,,,,,,,,
null,,confidence_buffer,1153954,confidence_buffer,,null,,,,,,,,,,,,,,,,,,
2792.4000000059605,,pt2_unique_rating,1156748,Delaware City,,51,,,3,,,,,,,,,,,,,,,
null,,confidence_buffer,1156850,confidence_buffer,,null,,,,,,,,,,,,,,,,,,
2360.7999999970198,,pt2_memorable_rating,1159212,Delaware City,,52,,,4,,,,,,,,,,,,,,,
null,,confidence_buffer,1159314,confidence_buffer,,null,,,,,,,,,,,,,,,,,,
2872.1999999955297,,recognition_phase,1162186,Delaware City,,52,,,,,,new,1,0.7368421052631579,,,,,,,,,,
null,,confidence_buffer,1162288,confidence_buffer,,null,,,,,,,,,,,,,,,,,,
null,,thebreak,1162790,break,,null,,,,,,,,,,,,,,,,,,
4830,,realistic_rating,1167621,Natchez,,53,Natchez,US,5,,,,,,,,,,,,,,,
null,,confidence_buffer,1167722,confidence_buffer,,null,,,,,,,,,,,,,,,,,,
5664,,pt2_unique_rating,1173387,Natchez,,52,,,4,,,,,,,,,,,,,,,
null,,confidence_buffer,1173489,confidence_buffer,,null,,,,,,,,,,,,,,,,,,
2339.2000000029802,,probe_rating,1175829,probe_rating,,49,,,,1,1,,,,,,,,,,,,,
null,,confidence_buffer,1175931,confidence_buffer,,null,,,,,,,,,,,,,,,,,,
2280.89999999851,,pt2_memorable_rating,1178213,Natchez,,52,,,4,,,,,,,,,,,,,,,
null,,confidence_buffer,1178315,confidence_buffer,,null,,,,,,,,,,,,,,,,,,
2743.7999999970198,,recognition_phase,1181061,Natchez,,49,,,,,,old,1,0.75,,,,,,,,,,
null,,confidence_buffer,1181162,confidence_buffer,,null,,,,,,,,,,,,,,,,,,
null,,thebreak,1181664,break,,null,,,,,,,,,,,,,,,,,,
12731.29999999702,,realistic_rating,1194396,Millstone,,51,Millstone,Fictional,3,,,,,,,,,,,,,,,
null,,confidence_buffer,1194498,confidence_buffer,,null,,,,,,,,,,,,,,,,,,
1969,,pt2_unique_rating,1196468,Millstone,,50,,,2,,,,,,,,,,,,,,,
null,,confidence_buffer,1196570,confidence_buffer,,null,,,,,,,,,,,,,,,,,,
3504.5,,pt2_memorable_rating,1200075,Millstone,,51,,,3,,,,,,,,,,,,,,,
null,,confidence_buffer,1200177,confidence_buffer,,null,,,,,,,,,,,,,,,,,,
2635.5,,recognition_phase,1202813,Millstone,,50,,,,,,old,1,0.7619047619047619,,,,,,,,,,
null,,confidence_buffer,1202915,confidence_buffer,,null,,,,,,,,,,,,,,,,,,
null,,thebreak,1203417,break,,null,,,,,,,,,,,,,,,,,,
7868.5,,realistic_rating,1211286,Claywater,,51,Claywater,Fictional,3,,,,,,,,,,,,,,,
null,,confidence_buffer,1211388,confidence_buffer,,null,,,,,,,,,,,,,,,,,,
1471.3000000044703,,pt2_unique_rating,1212860,Claywater,,50,,,2,,,,,,,,,,,,,,,
null,,confidence_buffer,1212962,confidence_buffer,,null,,,,,,,,,,,,,,,,,,
3656.10000000149,,pt2_memorable_rating,1216620,Claywater,,51,,,3,,,,,,,,,,,,,,,
null,,confidence_buffer,1216722,confidence_buffer,,null,,,,,,,,,,,,,,,,,,
2777.7000000029802,,recognition_phase,1219501,Claywater,,52,,,,,,new,0,0.7272727272727273,,,,,,,,,,
null,,confidence_buffer,1219603,confidence_buffer,,null,,,,,,,,,,,,,,,,,,
null,,thebreak,1220105,break,,null,,,,,,,,,,,,,,,,,,
4010.2999999970198,,realistic_rating,1224116,Hollendale,,50,Hollendale,Fictional,2,,,,,,,,,,,,,,,
null,,confidence_buffer,1224218,confidence_buffer,,null,,,,,,,,,,,,,,,,,,
3336.7999999970198,,pt2_unique_rating,1227557,Hollendale,,51,,,3,,,,,,,,,,,,,,,
null,,confidence_buffer,1227659,confidence_buffer,,null,,,,,,,,,,,,,,,,,,
2815.39999999851,,pt2_memorable_rating,1230476,Hollendale,,51,,,3,,,,,,,,,,,,,,,
null,,confidence_buffer,1230578,confidence_buffer,,null,,,,,,,,,,,,,,,,,,
1952.1000000014901,,recognition_phase,1232532,Hollendale,,49,,,,,,old,1,0.7391304347826086,,,,,,,,,,
null,,confidence_buffer,1232634,confidence_buffer,,null,,,,,,,,,,,,,,,,,,
null,,thebreak,1233137,break,,null,,,,,,,,,,,,,,,,,,
7555.29999999702,,realistic_rating,1240693,Abilene,,51,Abilene,US,3,,,,,,,,,,,,,,,
null,,confidence_buffer,1240797,confidence_buffer,,null,,,,,,,,,,,,,,,,,,
2998,,pt2_unique_rating,1243796,Abilene,,51,,,3,,,,,,,,,,,,,,,
null,,confidence_buffer,1243897,confidence_buffer,,null,,,,,,,,,,,,,,,,,,
2762.7999999970198,,pt2_memorable_rating,1246661,Abilene,,51,,,3,,,,,,,,,,,,,,,
null,,confidence_buffer,1246762,confidence_buffer,,null,,,,,,,,,,,,,,,,,,
2608.2000000029802,,recognition_phase,1249372,Abilene,,52,,,,,,new,1,0.75,,,,,,,,,,
null,,confidence_buffer,1249473,confidence_buffer,,null,,,,,,,,,,,,,,,,,,
null,,thebreak,1249974,break,,null,,,,,,,,,,,,,,,,,,
6036.89999999851,,realistic_rating,1256013,Maplehurst,,50,Maplehurst,Fictional,2,,,,,,,,,,,,,,,
null,,confidence_buffer,1256115,confidence_buffer,,null,,,,,,,,,,,,,,,,,,
2135.1999999955297,,pt2_unique_rating,1258251,Maplehurst,,50,,,2,,,,,,,,,,,,,,,
null,,confidence_buffer,1258354,confidence_buffer,,null,,,,,,,,,,,,,,,,,,
2593,,probe_rating,1260948,probe_rating,,52,,,,4,1,,,,,,,,,,,,,
null,,confidence_buffer,1261049,confidence_buffer,,null,,,,,,,,,,,,,,,,,,
2065.39999999851,,pt2_memorable_rating,1263116,Maplehurst,,51,,,3,,,,,,,,,,,,,,,
null,,confidence_buffer,1263219,confidence_buffer,,null,,,,,,,,,,,,,,,,,,
4215.80000000447,,recognition_phase,1267436,Maplehurst,,52,,,,,,new,1,0.76,,,,,,,,,,
null,,confidence_buffer,1267538,confidence_buffer,,null,,,,,,,,,,,,,,,,,,
null,,thebreak,1268039,break,,null,,,,,,,,,,,,,,,,,,
11085.30000000447,,realistic_rating,1279126,New Verdan,,51,New Verdan,Fictional,3,,,,,,,,,,,,,,,
null,,confidence_buffer,1279228,confidence_buffer,,null,,,,,,,,,,,,,,,,,,
1918.7999999970198,,pt2_unique_rating,1281148,New Verdan,,50,,,2,,,,,,,,,,,,,,,
null,,confidence_buffer,1281249,confidence_buffer,,null,,,,,,,,,,,,,,,,,,
2400.7999999970198,,pt2_memorable_rating,1283650,New Verdan,,51,,,3,,,,,,,,,,,,,,,
null,,confidence_buffer,1283752,confidence_buffer,,null,,,,,,,,,,,,,,,,,,
2571,,recognition_phase,1286324,New Verdan,,51,,,,,,new,0,0.7307692307692307,,,,,,,,,,
null,,confidence_buffer,1286425,confidence_buffer,,null,,,,,,,,,,,,,,,,,,
null,,thebreak,1286927,break,,null,,,,,,,,,,,,,,,,,,
9612.89999999851,,realistic_rating,1296541,Fairhaven,,52,Fairhaven,Fictional,4,,,,,,,,,,,,,,,
null,,confidence_buffer,1296643,confidence_buffer,,null,,,,,,,,,,,,,,,,,,
4032.39999999851,,pt2_unique_rating,1300677,Fairhaven,,51,,,3,,,,,,,,,,,,,,,
null,,confidence_buffer,1300794,confidence_buffer,,null,,,,,,,,,,,,,,,,,,
2224.39999999851,,pt2_memorable_rating,1303020,Fairhaven,,52,,,4,,,,,,,,,,,,,,,
null,,confidence_buffer,1303122,confidence_buffer,,null,,,,,,,,,,,,,,,,,,
6482.70000000298,,recognition_phase,1309606,Fairhaven,,50,,,,,,old,0,0.7037037037037037,,,,,,,,,,
null,,confidence_buffer,1309707,confidence_buffer,,null,,,,,,,,,,,,,,,,,,
null,,thebreak,1310210,break,,null,,,,,,,,,,,,,,,,,,
11247.5,,realistic_rating,1321459,Duck,,52,Duck,US,4,,,,,,,,,,,,,,,
null,,confidence_buffer,1321560,confidence_buffer,,null,,,,,,,,,,,,,,,,,,
3243.39999999851,,pt2_unique_rating,1324804,Duck,,51,,,3,,,,,,,,,,,,,,,
null,,confidence_buffer,1324907,confidence_buffer,,null,,,,,,,,,,,,,,,,,,
5137.69999999553,,pt2_memorable_rating,1330046,Duck,,51,,,3,,,,,,,,,,,,,,,
null,,confidence_buffer,1330148,confidence_buffer,,null,,,,,,,,,,,,,,,,,,
1711.8999999985099,,recognition_phase,1331861,Duck,,49,,,,,,old,1,0.7142857142857143,,,,,,,,,,
null,,confidence_buffer,1331963,confidence_buffer,,null,,,,,,,,,,,,,,,,,,
null,,thebreak,1332465,break,,null,,,,,,,,,,,,,,,,,,
5954.79999999702,,realistic_rating,1338421,Riverlyn,,50,Riverlyn,Fictional,2,,,,,,,,,,,,,,,
null,,confidence_buffer,1338523,confidence_buffer,,null,,,,,,,,,,,,,,,,,,
3624.4000000059605,,pt2_unique_rating,1342148,Riverlyn,,51,,,3,,,,,,,,,,,,,,,
null,,confidence_buffer,1342250,confidence_buffer,,null,,,,,,,,,,,,,,,,,,
2009.6999999955297,,pt2_memorable_rating,1344260,Riverlyn,,51,,,3,,,,,,,,,,,,,,,
null,,confidence_buffer,1344362,confidence_buffer,,null,,,,,,,,,,,,,,,,,,
1967.1000000014901,,recognition_phase,1346330,Riverlyn,,49,,,,,,old,1,0.7241379310344828,,,,,,,,,,
null,,confidence_buffer,1346433,confidence_buffer,,null,,,,,,,,,,,,,,,,,,
null,,thebreak,1346936,break,,null,,,,,,,,,,,,,,,,,,
8724,,realistic_rating,1355661,Newport,,53,Newport,US,5,,,,,,,,,,,,,,,
null,,confidence_buffer,1355763,confidence_buffer,,null,,,,,,,,,,,,,,,,,,
7438.89999999851,,pt2_unique_rating,1363204,Newport,,50,,,2,,,,,,,,,,,,,,,
null,,confidence_buffer,1363306,confidence_buffer,,null,,,,,,,,,,,,,,,,,,
2850.39999999851,,pt2_memorable_rating,1366157,Newport,,52,,,4,,,,,,,,,,,,,,,
null,,confidence_buffer,1366259,confidence_buffer,,null,,,,,,,,,,,,,,,,,,
2831.89999999851,,recognition_phase,1369092,Newport,,52,,,,,,new,1,0.7333333333333333,,,,,,,,,,
null,,confidence_buffer,1369194,confidence_buffer,,null,,,,,,,,,,,,,,,,,,
null,,thebreak,1369695,break,,null,,,,,,,,,,,,,,,,,,
6034.29999999702,,realistic_rating,1375731,Cornwall,,50,Cornwall,US,2,,,,,,,,,,,,,,,
null,,confidence_buffer,1375842,confidence_buffer,,null,,,,,,,,,,,,,,,,,,
3769.60000000149,,pt2_unique_rating,1379612,Cornwall,,50,,,2,,,,,,,,,,,,,,,
null,,confidence_buffer,1379714,confidence_buffer,,null,,,,,,,,,,,,,,,,,,
1184.3000000044703,,pt2_memorable_rating,1380898,Cornwall,,51,,,3,,,,,,,,,,,,,,,
null,,confidence_buffer,1381000,confidence_buffer,,null,,,,,,,,,,,,,,,,,,
4475.70000000298,,recognition_phase,1385476,Cornwall,,50,,,,,,old,1,0.7419354838709677,,,,,,,,,,
null,,confidence_buffer,1385578,confidence_buffer,,null,,,,,,,,,,,,,,,,,,
null,,thebreak,1386080,break,,null,,,,,,,,,,,,,,,,,,
6917.0999999940395,,realistic_rating,1392998,Berkeley Springs,,52,Berkeley Springs,US,4,,,,,,,,,,,,,,,
null,,confidence_buffer,1393100,confidence_buffer,,null,,,,,,,,,,,,,,,,,,
1247.3999999985099,,pt2_unique_rating,1394348,Berkeley Springs,,51,,,3,,,,,,,,,,,,,,,
null,,confidence_buffer,1394450,confidence_buffer,,null,,,,,,,,,,,,,,,,,,
2736.8000000044703,,pt2_memorable_rating,1397189,Berkeley Springs,,51,,,3,,,,,,,,,,,,,,,
null,,confidence_buffer,1397291,confidence_buffer,,null,,,,,,,,,,,,,,,,,,
2511.89999999851,,recognition_phase,1399804,Berkeley Springs,,49,,,,,,old,1,0.75,,,,,,,,,,
null,,confidence_buffer,1399907,confidence_buffer,,null,,,,,,,,,,,,,,,,,,
null,,thebreak,1400408,break,,null,,,,,,,,,,,,,,,,,,
8859.60000000149,,realistic_rating,1409269,Solara Glen,,52,Solara Glen,Fictional,4,,,,,,,,,,,,,,,
null,,confidence_buffer,1409374,confidence_buffer,,null,,,,,,,,,,,,,,,,,,
2677.7000000029802,,pt2_unique_rating,1412053,Solara Glen,,51,,,3,,,,,,,,,,,,,,,
null,,confidence_buffer,1412155,confidence_buffer,,null,,,,,,,,,,,,,,,,,,
2797.89999999851,,probe_rating,1414955,probe_rating,,53,,,,5,1,,,,,,,,,,,,,
null,,confidence_buffer,1415057,confidence_buffer,,null,,,,,,,,,,,,,,,,,,
4394.60000000149,,pt2_memorable_rating,1419453,Solara Glen,,51,,,3,,,,,,,,,,,,,,,
null,,confidence_buffer,1419555,confidence_buffer,,null,,,,,,,,,,,,,,,,,,
4103.29999999702,,recognition_phase,1423660,Solara Glen,,51,,,,,,new,0,0.7272727272727273,,,,,,,,,,
null,,confidence_buffer,1423763,confidence_buffer,,null,,,,,,,,,,,,,,,,,,
null,,thebreak,1424265,break,,null,,,,,,,,,,,,,,,,,,
8513.29999999702,,realistic_rating,1432779,Falconridge,,52,Falconridge,Fictional,4,,,,,,,,,,,,,,,
null,,confidence_buffer,1432880,confidence_buffer,,null,,,,,,,,,,,,,,,,,,
2435.2999999970198,,pt2_unique_rating,1435317,Falconridge,,51,,,3,,,,,,,,,,,,,,,
null,,confidence_buffer,1435418,confidence_buffer,,null,,,,,,,,,,,,,,,,,,
4464.20000000298,,pt2_memorable_rating,1439883,Falconridge,,51,,,3,,,,,,,,,,,,,,,
null,,confidence_buffer,1439986,confidence_buffer,,null,,,,,,,,,,,,,,,,,,
2273.2999999970198,,recognition_phase,1442260,Falconridge,,49,,,,,,old,1,0.7352941176470589,,,,,,,,,,
null,,confidence_buffer,1442363,confidence_buffer,,null,,,,,,,,,,,,,,,,,,
null,,thebreak,1442865,break,,null,,,,,,,,,,,,,,,,,,
8154.20000000298,,realistic_rating,1451020,Bayshore Haven,,52,Bayshore Haven,Fictional,4,,,,,,,,,,,,,,,
null,,confidence_buffer,1451124,confidence_buffer,,null,,,,,,,,,,,,,,,,,,
1622.1000000014901,,pt2_unique_rating,1452747,Bayshore Haven,,51,,,3,,,,,,,,,,,,,,,
null,,confidence_buffer,1452848,confidence_buffer,,null,,,,,,,,,,,,,,,,,,
4947.5,,pt2_memorable_rating,1457797,Bayshore Haven,,52,,,4,,,,,,,,,,,,,,,
null,,confidence_buffer,1457898,confidence_buffer,,null,,,,,,,,,,,,,,,,,,
8706.89999999851,,recognition_phase,1466607,Bayshore Haven,,51,,,,,,new,1,0.7428571428571429,,,,,,,,,,
null,,confidence_buffer,1466708,confidence_buffer,,null,,,,,,,,,,,,,,,,,,
null,,thebreak,1467209,break,,null,,,,,,,,,,,,,,,,,,
5360.89999999851,,realistic_rating,1472571,Sisters,,52,Sisters,US,4,,,,,,,,,,,,,,,
null,,confidence_buffer,1472673,confidence_buffer,,null,,,,,,,,,,,,,,,,,,
3097.7999999970198,,pt2_unique_rating,1475772,Sisters,,50,,,2,,,,,,,,,,,,,,,
null,,confidence_buffer,1475875,confidence_buffer,,null,,,,,,,,,,,,,,,,,,
2912.5,,pt2_memorable_rating,1478788,Sisters,,52,,,4,,,,,,,,,,,,,,,
null,,confidence_buffer,1478890,confidence_buffer,,null,,,,,,,,,,,,,,,,,,
2312.89999999851,,recognition_phase,1481204,Sisters,,49,,,,,,old,1,0.75,,,,,,,,,,
null,,confidence_buffer,1481306,confidence_buffer,,null,,,,,,,,,,,,,,,,,,
null,,thebreak,1481808,break,,null,,,,,,,,,,,,,,,,,,
10514.10000000149,,realistic_rating,1492323,Peoria,,53,Peoria,US,5,,,,,,,,,,,,,,,
null,,confidence_buffer,1492424,confidence_buffer,,null,,,,,,,,,,,,,,,,,,
2353.5999999940395,,pt2_unique_rating,1494779,Peoria,,51,,,3,,,,,,,,,,,,,,,
null,,confidence_buffer,1494881,confidence_buffer,,null,,,,,,,,,,,,,,,,,,
1904.8999999985099,,pt2_memorable_rating,1496787,Peoria,,52,,,4,,,,,,,,,,,,,,,
null,,confidence_buffer,1496888,confidence_buffer,,null,,,,,,,,,,,,,,,,,,
3771.2000000029802,,recognition_phase,1500660,Peoria,,52,,,,,,new,1,0.7567567567567568,,,,,,,,,,
null,,confidence_buffer,1500762,confidence_buffer,,null,,,,,,,,,,,,,,,,,,
null,,thebreak,1501263,break,,null,,,,,,,,,,,,,,,,,,
4331.70000000298,,realistic_rating,1505596,West Palm Beach,,53,West Palm Beach,US,5,,,,,,,,,,,,,,,
null,,confidence_buffer,1505698,confidence_buffer,,null,,,,,,,,,,,,,,,,,,
6480.39999999851,,pt2_unique_rating,1512180,West Palm Beach,,50,,,2,,,,,,,,,,,,,,,
null,,confidence_buffer,1512282,confidence_buffer,,null,,,,,,,,,,,,,,,,,,
2704.1999999955297,,pt2_memorable_rating,1514988,West Palm Beach,,52,,,4,,,,,,,,,,,,,,,
null,,confidence_buffer,1515090,confidence_buffer,,null,,,,,,,,,,,,,,,,,,
1410.5,,recognition_phase,1516502,West Palm Beach,,49,,,,,,old,1,0.7631578947368421,,,,,,,,,,
null,,confidence_buffer,1516604,confidence_buffer,,null,,,,,,,,,,,,,,,,,,
null,,thebreak,1517116,break,,null,,,,,,,,,,,,,,,,,,
10334.39999999851,,realistic_rating,1527452,Healdsburg,,52,Healdsburg,US,4,,,,,,,,,,,,,,,
null,,confidence_buffer,1527553,confidence_buffer,,null,,,,,,,,,,,,,,,,,,
3328,,pt2_unique_rating,1530882,Healdsburg,,50,,,2,,,,,,,,,,,,,,,
null,,confidence_buffer,1530984,confidence_buffer,,null,,,,,,,,,,,,,,,,,,
3610,,pt2_memorable_rating,1534595,Healdsburg,,51,,,3,,,,,,,,,,,,,,,
null,,confidence_buffer,1534697,confidence_buffer,,null,,,,,,,,,,,,,,,,,,
3802.10000000149,,recognition_phase,1538500,Healdsburg,,52,,,,,,new,1,0.7692307692307693,,,,,,,,,,
null,,confidence_buffer,1538602,confidence_buffer,,null,,,,,,,,,,,,,,,,,,
null,,thebreak,1539104,break,,null,,,,,,,,,,,,,,,,,,
11011.20000000298,,realistic_rating,1550116,Juniper Creek,,52,Juniper Creek,Fictional,4,,,,,,,,,,,,,,,
null,,confidence_buffer,1550218,confidence_buffer,,null,,,,,,,,,,,,,,,,,,
6322.39999999851,,pt2_unique_rating,1556541,Juniper Creek,,50,,,2,,,,,,,,,,,,,,,
null,,confidence_buffer,1556643,confidence_buffer,,null,,,,,,,,,,,,,,,,,,
3503,,pt2_memorable_rating,1560147,Juniper Creek,,52,,,4,,,,,,,,,,,,,,,
null,,confidence_buffer,1560248,confidence_buffer,,null,,,,,,,,,,,,,,,,,,
10595.60000000149,,recognition_phase,1570845,Juniper Creek,,50,,,,,,old,1,0.775,,,,,,,,,,
null,,confidence_buffer,1570947,confidence_buffer,,null,,,,,,,,,,,,,,,,,,
null,,thebreak,1571448,break,,null,,,,,,,,,,,,,,,,,,
8666.89999999851,,realistic_rating,1580116,North Arroya,,50,North Arroya,Fictional,2,,,,,,,,,,,,,,,
null,,confidence_buffer,1580217,confidence_buffer,,null,,,,,,,,,,,,,,,,,,
3953.7999999970198,,pt2_unique_rating,1584173,North Arroya,,51,,,3,,,,,,,,,,,,,,,
null,,confidence_buffer,1584275,confidence_buffer,,null,,,,,,,,,,,,,,,,,,
2503.60000000149,,pt2_memorable_rating,1586779,North Arroya,,51,,,3,,,,,,,,,,,,,,,
null,,confidence_buffer,1586881,confidence_buffer,,null,,,,,,,,,,,,,,,,,,
2937.5,,recognition_phase,1589820,North Arroya,,52,,,,,,new,1,0.7804878048780488,,,,,,,,,,
null,,confidence_buffer,1589922,confidence_buffer,,null,,,,,,,,,,,,,,,,,,
null,,thebreak,1590423,break,,null,,,,,,,,,,,,,,,,,,
6612.39999999851,,realistic_rating,1597037,Folly Beach,,50,Folly Beach,US,2,,,,,,,,,,,,,,,
null,,confidence_buffer,1597139,confidence_buffer,,null,,,,,,,,,,,,,,,,,,
2134.7999999970198,,pt2_unique_rating,1599275,Folly Beach,,50,,,2,,,,,,,,,,,,,,,
null,,confidence_buffer,1599377,confidence_buffer,,null,,,,,,,,,,,,,,,,,,
1633.5,,pt2_memorable_rating,1601012,Folly Beach,,51,,,3,,,,,,,,,,,,,,,
null,,confidence_buffer,1601114,confidence_buffer,,null,,,,,,,,,,,,,,,,,,
5529.5,,recognition_phase,1606644,Folly Beach,,52,,,,,,new,0,0.7619047619047619,,,,,,,,,,
null,,confidence_buffer,1606746,confidence_buffer,,null,,,,,,,,,,,,,,,,,,
null,,thebreak,1607248,break,,null,,,,,,,,,,,,,,,,,,
6075,,realistic_rating,1613324,Barnard,,52,Barnard,US,4,,,,,,,,,,,,,,,
null,,confidence_buffer,1613427,confidence_buffer,,null,,,,,,,,,,,,,,,,,,
2128.5,,pt2_unique_rating,1615557,Barnard,,50,,,2,,,,,,,,,,,,,,,
null,,confidence_buffer,1615658,confidence_buffer,,null,,,,,,,,,,,,,,,,,,
2537.10000000149,,pt2_memorable_rating,1618197,Barnard,,51,,,3,,,,,,,,,,,,,,,
null,,confidence_buffer,1618299,confidence_buffer,,null,,,,,,,,,,,,,,,,,,
2935.7000000029802,,probe_rating,1621236,probe_rating,,52,,,,4,1,,,,,,,,,,,,,
null,,confidence_buffer,1621338,confidence_buffer,,null,,,,,,,,,,,,,,,,,,
3425.3000000044703,,recognition_phase,1624764,Barnard,,52,,,,,,new,1,0.7674418604651163,,,,,,,,,,
null,,confidence_buffer,1624866,confidence_buffer,,null,,,,,,,,,,,,,,,,,,
null,,thebreak,1625368,break,,null,,,,,,,,,,,,,,,,,,
7947.79999999702,,realistic_rating,1633317,Clearbrook,,52,Clearbrook,Fictional,4,,,,,,,,,,,,,,,
null,,confidence_buffer,1633420,confidence_buffer,,null,,,,,,,,,,,,,,,,,,
5032,,pt2_unique_rating,1638453,Clearbrook,,50,,,2,,,,,,,,,,,,,,,
null,,confidence_buffer,1638555,confidence_buffer,,null,,,,,,,,,,,,,,,,,,
1512,,pt2_memorable_rating,1640068,Clearbrook,,51,,,3,,,,,,,,,,,,,,,
null,,confidence_buffer,1640169,confidence_buffer,,null,,,,,,,,,,,,,,,,,,
3232.6999999955297,,recognition_phase,1643403,Clearbrook,,52,,,,,,new,1,0.7727272727272727,,,,,,,,,,
null,,confidence_buffer,1643506,confidence_buffer,,null,,,,,,,,,,,,,,,,,,
null,,thebreak,1644007,break,,null,,,,,,,,,,,,,,,,,,
3898.39999999851,,realistic_rating,1647907,Hot Springs,,53,Hot Springs,US,5,,,,,,,,,,,,,,,
null,,confidence_buffer,1648009,confidence_buffer,,null,,,,,,,,,,,,,,,,,,
5514.79999999702,,pt2_unique_rating,1653525,Hot Springs,,51,,,3,,,,,,,,,,,,,,,
null,,confidence_buffer,1653627,confidence_buffer,,null,,,,,,,,,,,,,,,,,,
1727.7999999970198,,pt2_memorable_rating,1655356,Hot Springs,,52,,,4,,,,,,,,,,,,,,,
null,,confidence_buffer,1655458,confidence_buffer,,null,,,,,,,,,,,,,,,,,,
2857.2999999970198,,recognition_phase,1658316,Hot Springs,,52,,,,,,new,1,0.7777777777777778,,,,,,,,,,
null,,confidence_buffer,1658418,confidence_buffer,,null,,,,,,,,,,,,,,,,,,
null,,thebreak,1658931,break,,null,,,,,,,,,,,,,,,,,,
4327.20000000298,,realistic_rating,1663260,Albuquerque,,53,Albuquerque,US,5,,,,,,,,,,,,,,,
null,,confidence_buffer,1663363,confidence_buffer,,null,,,,,,,,,,,,,,,,,,
3232.2000000029802,,pt2_unique_rating,1666596,Albuquerque,,51,,,3,,,,,,,,,,,,,,,
null,,confidence_buffer,1666699,confidence_buffer,,null,,,,,,,,,,,,,,,,,,
1058,,pt2_memorable_rating,1667758,Albuquerque,,52,,,4,,,,,,,,,,,,,,,
null,,confidence_buffer,1667859,confidence_buffer,,null,,,,,,,,,,,,,,,,,,
2815.2000000029802,,probe_rating,1670676,probe_rating,,50,,,,2,1,,,,,,,,,,,,,
null,,confidence_buffer,1670777,confidence_buffer,,null,,,,,,,,,,,,,,,,,,
2191.60000000149,,recognition_phase,1672970,Albuquerque,,49,,,,,,old,1,0.782608695652174,,,,,,,,,,
null,,confidence_buffer,1673071,confidence_buffer,,null,,,,,,,,,,,,,,,,,,
null,,thebreak,1673573,break,,null,,,,,,,,,,,,,,,,,,
7532.19999999553,,realistic_rating,1681106,Orchard Bend,,52,Orchard Bend,Fictional,4,,,,,,,,,,,,,,,
null,,confidence_buffer,1681207,confidence_buffer,,null,,,,,,,,,,,,,,,,,,
3259.4000000059605,,pt2_unique_rating,1684468,Orchard Bend,,50,,,2,,,,,,,,,,,,,,,
null,,confidence_buffer,1684570,confidence_buffer,,null,,,,,,,,,,,,,,,,,,
1392.5,,pt2_memorable_rating,1685963,Orchard Bend,,51,,,3,,,,,,,,,,,,,,,
null,,confidence_buffer,1686066,confidence_buffer,,null,,,,,,,,,,,,,,,,,,
3242,,recognition_phase,1689309,Orchard Bend,,52,,,,,,new,1,0.7872340425531915,,,,,,,,,,
null,,confidence_buffer,1689411,confidence_buffer,,null,,,,,,,,,,,,,,,,,,
null,,thebreak,1689912,break,,null,,,,,,,,,,,,,,,,,,
5251.70000000298,,realistic_rating,1695165,Cleveland,,53,Cleveland,US,5,,,,,,,,,,,,,,,
null,,confidence_buffer,1695268,confidence_buffer,,null,,,,,,,,,,,,,,,,,,
3070,,pt2_unique_rating,1698339,Cleveland,,51,,,3,,,,,,,,,,,,,,,
null,,confidence_buffer,1698441,confidence_buffer,,null,,,,,,,,,,,,,,,,,,
4385.39999999851,,pt2_memorable_rating,1702828,Cleveland,,53,,,5,,,,,,,,,,,,,,,
null,,confidence_buffer,1702930,confidence_buffer,,null,,,,,,,,,,,,,,,,,,
4123.29999999702,,recognition_phase,1707054,Cleveland,,52,,,,,,new,1,0.7916666666666666,,,,,,,,,,
null,,confidence_buffer,1707156,confidence_buffer,,null,,,,,,,,,,,,,,,,,,
null,,thebreak,1707658,break,,null,,,,,,,,,,,,,,,,,,
8674.5,,realistic_rating,1716334,Silverpine,,51,Silverpine,Fictional,3,,,,,,,,,,,,,,,
null,,confidence_buffer,1716437,confidence_buffer,,null,,,,,,,,,,,,,,,,,,
2071.2000000029802,,probe_rating,1718509,probe_rating,,49,,,,1,1,,,,,,,,,,,,,
null,,confidence_buffer,1718611,confidence_buffer,,null,,,,,,,,,,,,,,,,,,
2848,,pt2_unique_rating,1721460,Silverpine,,51,,,3,,,,,,,,,,,,,,,
null,,confidence_buffer,1721562,confidence_buffer,,null,,,,,,,,,,,,,,,,,,
5648.89999999851,,pt2_memorable_rating,1727213,Silverpine,,51,,,3,,,,,,,,,,,,,,,
null,,confidence_buffer,1727314,confidence_buffer,,null,,,,,,,,,,,,,,,,,,
2793.2000000029802,,recognition_phase,1730109,Silverpine,,52,,,,,,new,1,0.7959183673469388,,,,,,,,,,
null,,confidence_buffer,1730211,confidence_buffer,,null,,,,,,,,,,,,,,,,,,
null,,thebreak,1730712,break,,null,,,,,,,,,,,,,,,,,,
7361.89999999851,,realistic_rating,1738075,Montelake,,50,Montelake,Fictional,2,,,,,,,,,,,,,,,
null,,confidence_buffer,1738177,confidence_buffer,,null,,,,,,,,,,,,,,,,,,
3002.5999999940395,,pt2_unique_rating,1741180,Montelake,,50,,,2,,,,,,,,,,,,,,,
null,,confidence_buffer,1741282,confidence_buffer,,null,,,,,,,,,,,,,,,,,,
1777,,pt2_memorable_rating,1743061,Montelake,,51,,,3,,,,,,,,,,,,,,,
null,,confidence_buffer,1743163,confidence_buffer,,null,,,,,,,,,,,,,,,,,,
2416,,recognition_phase,1745580,Montelake,,49,,,,,,old,1,0.8,,,,,,,,,,
null,,confidence_buffer,1745682,confidence_buffer,,null,,,,,,,,,,,,,,,,,,
null,,thebreak,1746184,break,,null,,,,,,,,,,,,,,,,,,
9179.60000000149,,realistic_rating,1755365,Sierra Hollow,,53,Sierra Hollow,Fictional,5,,,,,,,,,,,,,,,
null,,confidence_buffer,1755466,confidence_buffer,,null,,,,,,,,,,,,,,,,,,
2758.7000000029802,,pt2_unique_rating,1758226,Sierra Hollow,,51,,,3,,,,,,,,,,,,,,,
null,,confidence_buffer,1758327,confidence_buffer,,null,,,,,,,,,,,,,,,,,,
1667.7000000029802,,pt2_memorable_rating,1759996,Sierra Hollow,,52,,,4,,,,,,,,,,,,,,,
null,,confidence_buffer,1760099,confidence_buffer,,null,,,,,,,,,,,,,,,,,,
2879.7999999970198,,probe_rating,1762980,probe_rating,,51,,,,3,1,,,,,,,,,,,,,
null,,confidence_buffer,1763081,confidence_buffer,,null,,,,,,,,,,,,,,,,,,
5066.10000000149,,recognition_phase,1768149,Sierra Hollow,,51,,,,,,new,0,0.7843137254901961,,,,,,,,,,
null,,confidence_buffer,1768250,confidence_buffer,,null,,,,,,,,,,,,,,,,,,
null,,thebreak,1768753,break,,null,,,,,,,,,,,,,,,,,,
5690.29999999702,,realistic_rating,1774444,Shreveport,,53,Shreveport,US,5,,,,,,,,,,,,,,,
null,,confidence_buffer,1774547,confidence_buffer,,null,,,,,,,,,,,,,,,,,,
5520.89999999851,,pt2_unique_rating,1780069,Shreveport,,51,,,3,,,,,,,,,,,,,,,
null,,confidence_buffer,1780170,confidence_buffer,,null,,,,,,,,,,,,,,,,,,
2537,,pt2_memorable_rating,1782709,Shreveport,,52,,,4,,,,,,,,,,,,,,,
null,,confidence_buffer,1782810,confidence_buffer,,null,,,,,,,,,,,,,,,,,,
3246.89999999851,,recognition_phase,1786058,Shreveport,,52,,,,,,new,1,0.7884615384615384,,,,,,,,,,
null,,confidence_buffer,1786160,confidence_buffer,,null,,,,,,,,,,,,,,,,,,
null,,thebreak,1786662,break,,null,,,,,,,,,,,,,,,,,,
9677.39999999851,,realistic_rating,1796340,Highvale,,51,Highvale,Fictional,3,,,,,,,,,,,,,,,
null,,confidence_buffer,1796442,confidence_buffer,,null,,,,,,,,,,,,,,,,,,
1880.1999999955297,,pt2_unique_rating,1798324,Highvale,,50,,,2,,,,,,,,,,,,,,,
null,,confidence_buffer,1798426,confidence_buffer,,null,,,,,,,,,,,,,,,,,,
2592.3000000044703,,pt2_memorable_rating,1801020,Highvale,,51,,,3,,,,,,,,,,,,,,,
null,,confidence_buffer,1801121,confidence_buffer,,null,,,,,,,,,,,,,,,,,,
4034.7000000029802,,recognition_phase,1805157,Highvale,,52,,,,,,new,1,0.7924528301886793,,,,,,,,,,
null,,confidence_buffer,1805259,confidence_buffer,,null,,,,,,,,,,,,,,,,,,
null,,thebreak,1805762,break,,null,,,,,,,,,,,,,,,,,,
5633.20000000298,,realistic_rating,1811396,Briarfield,,52,Briarfield,Fictional,4,,,,,,,,,,,,,,,
null,,confidence_buffer,1811497,confidence_buffer,,null,,,,,,,,,,,,,,,,,,
2913.6999999955297,,pt2_unique_rating,1814412,Briarfield,,50,,,2,,,,,,,,,,,,,,,
null,,confidence_buffer,1814514,confidence_buffer,,null,,,,,,,,,,,,,,,,,,
1801.2000000029802,,pt2_memorable_rating,1816316,Briarfield,,51,,,3,,,,,,,,,,,,,,,
null,,confidence_buffer,1816418,confidence_buffer,,null,,,,,,,,,,,,,,,,,,
2016.9000000059605,,recognition_phase,1818436,Briarfield,,52,,,,,,new,1,0.7962962962962963,,,,,,,,,,
null,,confidence_buffer,1818539,confidence_buffer,,null,,,,,,,,,,,,,,,,,,
null,,thebreak,1819040,break,,null,,,,,,,,,,,,,,,,,,
6241.69999999553,,realistic_rating,1825283,Meadowspire,,51,Meadowspire,Fictional,3,,,,,,,,,,,,,,,
null,,confidence_buffer,1825385,confidence_buffer,,null,,,,,,,,,,,,,,,,,,
4544.89999999851,,pt2_unique_rating,1829931,Meadowspire,,50,,,2,,,,,,,,,,,,,,,
null,,confidence_buffer,1830032,confidence_buffer,,null,,,,,,,,,,,,,,,,,,
2594.89999999851,,pt2_memorable_rating,1832628,Meadowspire,,51,,,3,,,,,,,,,,,,,,,
null,,confidence_buffer,1832730,confidence_buffer,,null,,,,,,,,,,,,,,,,,,
1688.1000000014901,,recognition_phase,1834419,Meadowspire,,52,,,,,,new,0,0.7818181818181819,,,,,,,,,,
null,,confidence_buffer,1834520,confidence_buffer,,null,,,,,,,,,,,,,,,,,,
null,,thebreak,1835030,break,,null,,,,,,,,,,,,,,,,,,
12812.80000000447,,realistic_rating,1847844,Assateague Island,,50,Assateague Island,US,2,,,,,,,,,,,,,,,
null,,confidence_buffer,1847946,confidence_buffer,,null,,,,,,,,,,,,,,,,,,
4232,,pt2_unique_rating,1852180,Assateague Island,,51,,,3,,,,,,,,,,,,,,,
null,,confidence_buffer,1852281,confidence_buffer,,null,,,,,,,,,,,,,,,,,,
3930.10000000149,,pt2_memorable_rating,1856212,Assateague Island,,51,,,3,,,,,,,,,,,,,,,
null,,confidence_buffer,1856315,confidence_buffer,,null,,,,,,,,,,,,,,,,,,
7304.70000000298,,recognition_phase,1863621,Assateague Island,,51,,,,,,new,1,0.7857142857142857,,,,,,,,,,
null,,confidence_buffer,1863722,confidence_buffer,,null,,,,,,,,,,,,,,,,,,
null,,thebreak,1864224,break,,null,,,,,,,,,,,,,,,,,,
7028.70000000298,,realistic_rating,1871254,Coralridge,,53,Coralridge,Fictional,5,,,,,,,,,,,,,,,
null,,confidence_buffer,1871356,confidence_buffer,,null,,,,,,,,,,,,,,,,,,
2687.4000000059605,,pt2_unique_rating,1874045,Coralridge,,51,,,3,,,,,,,,,,,,,,,
null,,confidence_buffer,1874147,confidence_buffer,,null,,,,,,,,,,,,,,,,,,
1247.6999999955297,,pt2_memorable_rating,1875396,Coralridge,,52,,,4,,,,,,,,,,,,,,,
null,,confidence_buffer,1875498,confidence_buffer,,null,,,,,,,,,,,,,,,,,,
2216.9000000059605,,recognition_phase,1877716,Coralridge,,49,,,,,,old,0,0.7719298245614035,,,,,,,,,,
null,,confidence_buffer,1877818,confidence_buffer,,null,,,,,,,,,,,,,,,,,,
null,,thebreak,1878320,break,,null,,,,,,,,,,,,,,,,,,
5531.39999999851,,realistic_rating,1883852,Athens,,53,Athens,US,5,,,,,,,,,,,,,,,
null,,confidence_buffer,1883954,confidence_buffer,,null,,,,,,,,,,,,,,,,,,
6097.19999999553,,pt2_unique_rating,1890053,Athens,,51,,,3,,,,,,,,,,,,,,,
null,,confidence_buffer,1890155,confidence_buffer,,null,,,,,,,,,,,,,,,,,,
2143.60000000149,,pt2_memorable_rating,1892300,Athens,,52,,,4,,,,,,,,,,,,,,,
null,,confidence_buffer,1892402,confidence_buffer,,null,,,,,,,,,,,,,,,,,,
6800.5,,recognition_phase,1899203,Athens,,50,,,,,,old,1,0.7758620689655172,,,,,,,,,,
null,,confidence_buffer,1899306,confidence_buffer,,null,,,,,,,,,,,,,,,,,,
null,,thebreak,1899807,break,,null,,,,,,,,,,,,,,,,,,
5548.20000000298,,realistic_rating,1905356,West Talora,,50,West Talora,Fictional,2,,,,,,,,,,,,,,,
null,,confidence_buffer,1905459,confidence_buffer,,null,,,,,,,,,,,,,,,,,,
2599,,pt2_unique_rating,1908059,West Talora,,50,,,2,,,,,,,,,,,,,,,
null,,confidence_buffer,1908161,confidence_buffer,,null,,,,,,,,,,,,,,,,,,
1089.3000000044703,,pt2_memorable_rating,1909251,West Talora,,51,,,3,,,,,,,,,,,,,,,
null,,confidence_buffer,1909353,confidence_buffer,,null,,,,,,,,,,,,,,,,,,
4730.79999999702,,recognition_phase,1914085,West Talora,,50,,,,,,old,1,0.7796610169491526,,,,,,,,,,
null,,confidence_buffer,1914187,confidence_buffer,,null,,,,,,,,,,,,,,,,,,
null,,thebreak,1914689,break,,null,,,,,,,,,,,,,,,,,,
3850.7000000029802,,realistic_rating,1918541,Stonebrook,,52,Stonebrook,Fictional,4,,,,,,,,,,,,,,,
null,,confidence_buffer,1918642,confidence_buffer,,null,,,,,,,,,,,,,,,,,,
2928.5,,pt2_unique_rating,1921572,Stonebrook,,50,,,2,,,,,,,,,,,,,,,
null,,confidence_buffer,1921673,confidence_buffer,,null,,,,,,,,,,,,,,,,,,
1209.8999999985099,,pt2_memorable_rating,1922884,Stonebrook,,51,,,3,,,,,,,,,,,,,,,
null,,confidence_buffer,1922986,confidence_buffer,,null,,,,,,,,,,,,,,,,,,
5823.89999999851,,recognition_phase,1928811,Stonebrook,,51,,,,,,new,1,0.7833333333333333,,,,,,,,,,
null,,confidence_buffer,1928912,confidence_buffer,,null,,,,,,,,,,,,,,,,,,
null,,thebreak,1929414,break,,null,,,,,,,,,,,,,,,,,,
,,survey,2751307,survey-questions,,,,,,,,,,,none,high,No. I was concentrating on the task.,I didn't use any strategies. I just concentrated the best I could on each name.,My thought process was to figure out if any of the names were familiar to me.,My thought process was to decide if the names were easy to read.,My thought process was to decide if some thought went into coming up with the names that made them unique.,My thought process was to decide if the names sounded silly or not. ,No, this is the first time I have participated in this type of study.,To be honest. It was a little boring, but I stayed focused.
