rt,responses,trial_type,time_elapsed,stimulus,button_pressed,key_press,name_trial,city_type,rating,probe,probe_accuracy,response,correct,accuracy,problems,smooth,distraction,strategies,familiar,memorable,unique,realistic,similar,comments
33342.09999999404,{worker_id:67de9aff4862b651ff885f93},id_enter,33346,,,,,,,,,,,,,,,,,,,,,
63329.59999999404,,fullscreen,96681,fullscreen,0,,,,,,,,,,,,,,,,,,,
5694.199999988079,,intro_0,102379,instruct,,32,,,,,,,,,,,,,,,,,,
15331.90000000596,,intro_1,117714,instruct,,32,,,,,,,,,,,,,,,,,,
8388.09999999404,,intro_2,126105,instruct,,32,,,,,,,,,,,,,,,,,,
null,,instruct_dir_4,127610,instruct,,null,,,,,,,,,,,,,,,,,,
null,,thebreak,128120,break,,null,,,,,,,,,,,,,,,,,,
32778.20000000298,,familiar_rating,160901,West Talora,,49,West Talora,Fictional,1,,,,,,,,,,,,,,,
null,,confidence_buffer,161010,confidence_buffer,,null,,,,,,,,,,,,,,,,,,
8209.199999988079,,probe_rating,169222,probe_rating,,52,,,,4,1,,,,,,,,,,,,,
null,,confidence_buffer,169330,confidence_buffer,,null,,,,,,,,,,,,,,,,,,
9054.10000000894,,unique_rating,178387,West Talora,,53,,,5,,,,,,,,,,,,,,,
null,,confidence_buffer,178495,confidence_buffer,,null,,,,,,,,,,,,,,,,,,
4091,,memorable_rating,182590,West Talora,,52,,,4,,,,,,,,,,,,,,,
null,,confidence_buffer,182696,confidence_buffer,,null,,,,,,,,,,,,,,,,,,
null,,thebreak,183200,break,,null,,,,,,,,,,,,,,,,,,
8568.5,,familiar_rating,191771,Abilene,,49,Abilene,US,1,,,,,,,,,,,,,,,
null,,confidence_buffer,191875,confidence_buffer,,null,,,,,,,,,,,,,,,,,,
5939.199999988079,,unique_rating,197816,Abilene,,52,,,4,,,,,,,,,,,,,,,
null,,confidence_buffer,197923,confidence_buffer,,null,,,,,,,,,,,,,,,,,,
3026.0999999940395,,memorable_rating,200952,Abilene,,53,,,5,,,,,,,,,,,,,,,
null,,confidence_buffer,201054,confidence_buffer,,null,,,,,,,,,,,,,,,,,,
null,,thebreak,201560,break,,null,,,,,,,,,,,,,,,,,,
12099.70000000298,,familiar_rating,213662,New Verdan,,50,New Verdan,Fictional,2,,,,,,,,,,,,,,,
null,,confidence_buffer,213770,confidence_buffer,,null,,,,,,,,,,,,,,,,,,
2106.800000011921,,unique_rating,215879,New Verdan,,52,,,4,,,,,,,,,,,,,,,
null,,confidence_buffer,215986,confidence_buffer,,null,,,,,,,,,,,,,,,,,,
3017.2999999970198,,memorable_rating,219005,New Verdan,,53,,,5,,,,,,,,,,,,,,,
null,,confidence_buffer,219110,confidence_buffer,,null,,,,,,,,,,,,,,,,,,
null,,thebreak,219625,break,,null,,,,,,,,,,,,,,,,,,
5644.9000000059605,,familiar_rating,225263,Brookmere,,52,Brookmere,Fictional,4,,,,,,,,,,,,,,,
null,,confidence_buffer,225366,confidence_buffer,,null,,,,,,,,,,,,,,,,,,
2038.7000000029802,,unique_rating,227407,Brookmere,,52,,,4,,,,,,,,,,,,,,,
null,,confidence_buffer,227514,confidence_buffer,,null,,,,,,,,,,,,,,,,,,
1658.7000000029802,,memorable_rating,229175,Brookmere,,52,,,4,,,,,,,,,,,,,,,
null,,confidence_buffer,229281,confidence_buffer,,null,,,,,,,,,,,,,,,,,,
null,,thebreak,229783,break,,null,,,,,,,,,,,,,,,,,,
6983,,familiar_rating,236768,Baymarsh,,50,Baymarsh,Fictional,2,,,,,,,,,,,,,,,
null,,confidence_buffer,236871,confidence_buffer,,null,,,,,,,,,,,,,,,,,,
5489.5,,unique_rating,242363,Baymarsh,,52,,,4,,,,,,,,,,,,,,,
null,,confidence_buffer,242477,confidence_buffer,,null,,,,,,,,,,,,,,,,,,
2923.9000000059605,,memorable_rating,245404,Baymarsh,,52,,,4,,,,,,,,,,,,,,,
null,,confidence_buffer,245511,confidence_buffer,,null,,,,,,,,,,,,,,,,,,
null,,thebreak,246016,break,,null,,,,,,,,,,,,,,,,,,
4990.79999999702,,familiar_rating,251009,Bayshore Haven,,49,Bayshore Haven,Fictional,1,,,,,,,,,,,,,,,
null,,confidence_buffer,251111,confidence_buffer,,null,,,,,,,,,,,,,,,,,,
2699.2999999970198,,unique_rating,253812,Bayshore Haven,,52,,,4,,,,,,,,,,,,,,,
null,,confidence_buffer,253915,confidence_buffer,,null,,,,,,,,,,,,,,,,,,
3185.2000000029802,,probe_rating,257102,probe_rating,,50,,,,2,1,,,,,,,,,,,,,
null,,confidence_buffer,257206,confidence_buffer,,null,,,,,,,,,,,,,,,,,,
4304.399999991059,,memorable_rating,261512,Bayshore Haven,,52,,,4,,,,,,,,,,,,,,,
null,,confidence_buffer,261617,confidence_buffer,,null,,,,,,,,,,,,,,,,,,
null,,thebreak,262120,break,,null,,,,,,,,,,,,,,,,,,
37657,,familiar_rating,299758,Sammamish,,51,Sammamish,US,3,,,,,,,,,,,,,,,
null,,confidence_buffer,299860,confidence_buffer,,null,,,,,,,,,,,,,,,,,,
2070.1000000089407,,unique_rating,301931,Sammamish,,52,,,4,,,,,,,,,,,,,,,
null,,confidence_buffer,302040,confidence_buffer,,null,,,,,,,,,,,,,,,,,,
3442,,probe_rating,305484,probe_rating,,49,,,,1,1,,,,,,,,,,,,,
null,,confidence_buffer,305590,confidence_buffer,,null,,,,,,,,,,,,,,,,,,
1914.4000000059605,,memorable_rating,307507,Sammamish,,52,,,4,,,,,,,,,,,,,,,
null,,confidence_buffer,307621,confidence_buffer,,null,,,,,,,,,,,,,,,,,,
null,,thebreak,308126,break,,null,,,,,,,,,,,,,,,,,,
5126.9000000059605,,familiar_rating,313255,Silverpine,,51,Silverpine,Fictional,3,,,,,,,,,,,,,,,
null,,confidence_buffer,313361,confidence_buffer,,null,,,,,,,,,,,,,,,,,,
1740.8999999910593,,unique_rating,315103,Silverpine,,53,,,5,,,,,,,,,,,,,,,
null,,confidence_buffer,315210,confidence_buffer,,null,,,,,,,,,,,,,,,,,,
4304.300000011921,,memorable_rating,319516,Silverpine,,52,,,4,,,,,,,,,,,,,,,
null,,confidence_buffer,319624,confidence_buffer,,null,,,,,,,,,,,,,,,,,,
null,,thebreak,320140,break,,null,,,,,,,,,,,,,,,,,,
5512.899999991059,,familiar_rating,325655,Carmel,,52,Carmel,US,4,,,,,,,,,,,,,,,
null,,confidence_buffer,325760,confidence_buffer,,null,,,,,,,,,,,,,,,,,,
2429.2000000029802,,probe_rating,328191,probe_rating,,51,,,,3,1,,,,,,,,,,,,,
null,,confidence_buffer,328295,confidence_buffer,,null,,,,,,,,,,,,,,,,,,
3503.5,,unique_rating,331801,Carmel,,52,,,4,,,,,,,,,,,,,,,
null,,confidence_buffer,331906,confidence_buffer,,null,,,,,,,,,,,,,,,,,,
1590.0999999940395,,memorable_rating,333498,Carmel,,52,,,4,,,,,,,,,,,,,,,
null,,confidence_buffer,333604,confidence_buffer,,null,,,,,,,,,,,,,,,,,,
null,,thebreak,334117,break,,null,,,,,,,,,,,,,,,,,,
3410.7000000029802,,familiar_rating,337530,Lake of the Ozarks,,50,Lake of the Ozarks,US,2,,,,,,,,,,,,,,,
null,,confidence_buffer,337636,confidence_buffer,,null,,,,,,,,,,,,,,,,,,
2574.5,,unique_rating,340212,Lake of the Ozarks,,51,,,3,,,,,,,,,,,,,,,
null,,confidence_buffer,340320,confidence_buffer,,null,,,,,,,,,,,,,,,,,,
1262.5,,memorable_rating,341584,Lake of the Ozarks,,52,,,4,,,,,,,,,,,,,,,
null,,confidence_buffer,341700,confidence_buffer,,null,,,,,,,,,,,,,,,,,,
null,,thebreak,342205,break,,null,,,,,,,,,,,,,,,,,,
3354.5,,familiar_rating,345561,Racine,,50,Racine,US,2,,,,,,,,,,,,,,,
null,,confidence_buffer,345665,confidence_buffer,,null,,,,,,,,,,,,,,,,,,
1504.5,,unique_rating,347170,Racine,,51,,,3,,,,,,,,,,,,,,,
null,,confidence_buffer,347275,confidence_buffer,,null,,,,,,,,,,,,,,,,,,
1281.4000000059605,,memorable_rating,348559,Racine,,52,,,4,,,,,,,,,,,,,,,
null,,confidence_buffer,348662,confidence_buffer,,null,,,,,,,,,,,,,,,,,,
null,,thebreak,349174,break,,null,,,,,,,,,,,,,,,,,,
3347,,familiar_rating,352523,Hot Springs,,51,Hot Springs,US,3,,,,,,,,,,,,,,,
null,,confidence_buffer,352626,confidence_buffer,,null,,,,,,,,,,,,,,,,,,
4393.20000000298,,unique_rating,357021,Hot Springs,,52,,,4,,,,,,,,,,,,,,,
null,,confidence_buffer,357135,confidence_buffer,,null,,,,,,,,,,,,,,,,,,
2794.800000011921,,memorable_rating,359915,Hot Springs,,53,,,5,,,,,,,,,,,,,,,
null,,confidence_buffer,360029,confidence_buffer,,null,,,,,,,,,,,,,,,,,,
null,,thebreak,360534,break,,null,,,,,,,,,,,,,,,,,,
8489.29999999702,,familiar_rating,369025,San Antonio,,51,San Antonio,US,3,,,,,,,,,,,,,,,
null,,confidence_buffer,369129,confidence_buffer,,null,,,,,,,,,,,,,,,,,,
2184.7999999970198,,unique_rating,371315,San Antonio,,52,,,4,,,,,,,,,,,,,,,
null,,confidence_buffer,371418,confidence_buffer,,null,,,,,,,,,,,,,,,,,,
1280.6000000089407,,memorable_rating,372701,San Antonio,,52,,,4,,,,,,,,,,,,,,,
null,,confidence_buffer,372804,confidence_buffer,,null,,,,,,,,,,,,,,,,,,
null,,thebreak,373309,break,,null,,,,,,,,,,,,,,,,,,
4661.5999999940395,,familiar_rating,377972,Hanover,,51,Hanover,US,3,,,,,,,,,,,,,,,
null,,confidence_buffer,378075,confidence_buffer,,null,,,,,,,,,,,,,,,,,,
2462.2999999970198,,unique_rating,380539,Hanover,,51,,,3,,,,,,,,,,,,,,,
null,,confidence_buffer,380644,confidence_buffer,,null,,,,,,,,,,,,,,,,,,
3175,,memorable_rating,383821,Hanover,,52,,,4,,,,,,,,,,,,,,,
null,,confidence_buffer,383924,confidence_buffer,,null,,,,,,,,,,,,,,,,,,
null,,thebreak,384429,break,,null,,,,,,,,,,,,,,,,,,
5720.9000000059605,,familiar_rating,390152,Cornwall,,52,Cornwall,US,4,,,,,,,,,,,,,,,
null,,confidence_buffer,390259,confidence_buffer,,null,,,,,,,,,,,,,,,,,,
2794.5999999940395,,unique_rating,393056,Cornwall,,53,,,5,,,,,,,,,,,,,,,
null,,confidence_buffer,393164,confidence_buffer,,null,,,,,,,,,,,,,,,,,,
1367.9000000059605,,memorable_rating,394533,Cornwall,,53,,,5,,,,,,,,,,,,,,,
null,,confidence_buffer,394646,confidence_buffer,,null,,,,,,,,,,,,,,,,,,
null,,thebreak,395157,break,,null,,,,,,,,,,,,,,,,,,
5602.70000000298,,familiar_rating,400762,Bowling Green,,52,Bowling Green,US,4,,,,,,,,,,,,,,,
null,,confidence_buffer,400874,confidence_buffer,,null,,,,,,,,,,,,,,,,,,
1335.7999999970198,,unique_rating,402212,Bowling Green,,52,,,4,,,,,,,,,,,,,,,
null,,confidence_buffer,402327,confidence_buffer,,null,,,,,,,,,,,,,,,,,,
2341.2000000029802,,memorable_rating,404670,Bowling Green,,53,,,5,,,,,,,,,,,,,,,
null,,confidence_buffer,404774,confidence_buffer,,null,,,,,,,,,,,,,,,,,,
null,,thebreak,405275,break,,null,,,,,,,,,,,,,,,,,,
3170.2999999970198,,familiar_rating,408447,Healdsburg,,50,Healdsburg,US,2,,,,,,,,,,,,,,,
null,,confidence_buffer,408554,confidence_buffer,,null,,,,,,,,,,,,,,,,,,
3739.0999999940395,,unique_rating,412295,Healdsburg,,51,,,3,,,,,,,,,,,,,,,
null,,confidence_buffer,412399,confidence_buffer,,null,,,,,,,,,,,,,,,,,,
1843,,memorable_rating,414244,Healdsburg,,52,,,4,,,,,,,,,,,,,,,
null,,confidence_buffer,414345,confidence_buffer,,null,,,,,,,,,,,,,,,,,,
null,,thebreak,414854,break,,null,,,,,,,,,,,,,,,,,,
4366.4000000059605,,familiar_rating,419223,Okoboji,,50,Okoboji,US,2,,,,,,,,,,,,,,,
null,,confidence_buffer,419329,confidence_buffer,,null,,,,,,,,,,,,,,,,,,
2022.5999999940395,,unique_rating,421337,Okoboji,,50,,,2,,,,,,,,,,,,,,,
null,,confidence_buffer,421447,confidence_buffer,,null,,,,,,,,,,,,,,,,,,
2370.699999988079,,memorable_rating,423820,Okoboji,,50,,,2,,,,,,,,,,,,,,,
null,,confidence_buffer,423927,confidence_buffer,,null,,,,,,,,,,,,,,,,,,
null,,thebreak,424441,break,,null,,,,,,,,,,,,,,,,,,
3970.8999999910593,,familiar_rating,428414,Sunmere,,51,Sunmere,Fictional,3,,,,,,,,,,,,,,,
null,,confidence_buffer,428526,confidence_buffer,,null,,,,,,,,,,,,,,,,,,
2160.7000000029802,,unique_rating,430688,Sunmere,,50,,,2,,,,,,,,,,,,,,,
null,,confidence_buffer,430802,confidence_buffer,,null,,,,,,,,,,,,,,,,,,
2396,,memorable_rating,433200,Sunmere,,50,,,2,,,,,,,,,,,,,,,
null,,confidence_buffer,433307,confidence_buffer,,null,,,,,,,,,,,,,,,,,,
null,,thebreak,433809,break,,null,,,,,,,,,,,,,,,,,,
5262.20000000298,,familiar_rating,439073,Northbridge,,52,Northbridge,Fictional,4,,,,,,,,,,,,,,,
null,,confidence_buffer,439177,confidence_buffer,,null,,,,,,,,,,,,,,,,,,
2072.7999999970198,,unique_rating,441251,Northbridge,,52,,,4,,,,,,,,,,,,,,,
null,,confidence_buffer,441356,confidence_buffer,,null,,,,,,,,,,,,,,,,,,
1111.0999999940395,,memorable_rating,442469,Northbridge,,52,,,4,,,,,,,,,,,,,,,
null,,confidence_buffer,442582,confidence_buffer,,null,,,,,,,,,,,,,,,,,,
null,,thebreak,443092,break,,null,,,,,,,,,,,,,,,,,,
7435.0999999940395,,familiar_rating,450529,Livingston,,53,Livingston,US,5,,,,,,,,,,,,,,,
null,,confidence_buffer,450647,confidence_buffer,,null,,,,,,,,,,,,,,,,,,
1183.9000000059605,,unique_rating,451833,Livingston,,53,,,5,,,,,,,,,,,,,,,
null,,confidence_buffer,451937,confidence_buffer,,null,,,,,,,,,,,,,,,,,,
1012.6999999880791,,memorable_rating,452951,Livingston,,53,,,5,,,,,,,,,,,,,,,
null,,confidence_buffer,453057,confidence_buffer,,null,,,,,,,,,,,,,,,,,,
2005.1000000089407,,probe_rating,455064,probe_rating,,51,,,,3,1,,,,,,,,,,,,,
null,,confidence_buffer,455167,confidence_buffer,,null,,,,,,,,,,,,,,,,,,
null,,thebreak,455672,break,,null,,,,,,,,,,,,,,,,,,
2354.2000000029802,,familiar_rating,458029,Park City,,52,Park City,US,4,,,,,,,,,,,,,,,
null,,confidence_buffer,458142,confidence_buffer,,null,,,,,,,,,,,,,,,,,,
1590.8999999910593,,unique_rating,459735,Park City,,52,,,4,,,,,,,,,,,,,,,
null,,confidence_buffer,459837,confidence_buffer,,null,,,,,,,,,,,,,,,,,,
1500,,memorable_rating,461339,Park City,,53,,,5,,,,,,,,,,,,,,,
null,,confidence_buffer,461443,confidence_buffer,,null,,,,,,,,,,,,,,,,,,
null,,thebreak,461947,break,,null,,,,,,,,,,,,,,,,,,
4057.3999999910593,,familiar_rating,466007,Clearbrook,,52,Clearbrook,Fictional,4,,,,,,,,,,,,,,,
null,,confidence_buffer,466114,confidence_buffer,,null,,,,,,,,,,,,,,,,,,
1689.5999999940395,,unique_rating,467805,Clearbrook,,52,,,4,,,,,,,,,,,,,,,
null,,confidence_buffer,467922,confidence_buffer,,null,,,,,,,,,,,,,,,,,,
1903.0999999940395,,memorable_rating,469827,Clearbrook,,53,,,5,,,,,,,,,,,,,,,
null,,confidence_buffer,469939,confidence_buffer,,null,,,,,,,,,,,,,,,,,,
null,,thebreak,470441,break,,null,,,,,,,,,,,,,,,,,,
4483.20000000298,,familiar_rating,474926,Montelake,,52,Montelake,Fictional,4,,,,,,,,,,,,,,,
null,,confidence_buffer,475044,confidence_buffer,,null,,,,,,,,,,,,,,,,,,
960.0999999940395,,unique_rating,476006,Montelake,,52,,,4,,,,,,,,,,,,,,,
null,,confidence_buffer,476117,confidence_buffer,,null,,,,,,,,,,,,,,,,,,
1290.9000000059605,,memorable_rating,477410,Montelake,,52,,,4,,,,,,,,,,,,,,,
null,,confidence_buffer,477512,confidence_buffer,,null,,,,,,,,,,,,,,,,,,
null,,thebreak,478027,break,,null,,,,,,,,,,,,,,,,,,
2666,,familiar_rating,480695,Tamarisk Hills,,51,Tamarisk Hills,Fictional,3,,,,,,,,,,,,,,,
null,,confidence_buffer,480803,confidence_buffer,,null,,,,,,,,,,,,,,,,,,
1989.199999988079,,probe_rating,482777,probe_rating,,52,,,,4,1,,,,,,,,,,,,,
null,,confidence_buffer,482891,confidence_buffer,,null,,,,,,,,,,,,,,,,,,
3048.3999999910593,,unique_rating,485941,Tamarisk Hills,,51,,,3,,,,,,,,,,,,,,,
null,,confidence_buffer,486056,confidence_buffer,,null,,,,,,,,,,,,,,,,,,
1459.5,,memorable_rating,487517,Tamarisk Hills,,52,,,4,,,,,,,,,,,,,,,
null,,confidence_buffer,487631,confidence_buffer,,null,,,,,,,,,,,,,,,,,,
null,,thebreak,488140,break,,null,,,,,,,,,,,,,,,,,,
9472.29999999702,,familiar_rating,497614,Crestwood,,52,Crestwood,Fictional,4,,,,,,,,,,,,,,,
null,,confidence_buffer,497719,confidence_buffer,,null,,,,,,,,,,,,,,,,,,
1592.7999999970198,,unique_rating,499313,Crestwood,,52,,,4,,,,,,,,,,,,,,,
null,,confidence_buffer,499420,confidence_buffer,,null,,,,,,,,,,,,,,,,,,
4456.300000011921,,memorable_rating,503878,Crestwood,,52,,,4,,,,,,,,,,,,,,,
null,,confidence_buffer,503980,confidence_buffer,,null,,,,,,,,,,,,,,,,,,
null,,thebreak,504496,break,,null,,,,,,,,,,,,,,,,,,
2708.7000000029802,,familiar_rating,507207,Lakehaven,,52,Lakehaven,Fictional,4,,,,,,,,,,,,,,,
null,,confidence_buffer,507311,confidence_buffer,,null,,,,,,,,,,,,,,,,,,
1614.9000000059605,,unique_rating,508927,Lakehaven,,52,,,4,,,,,,,,,,,,,,,
null,,confidence_buffer,509034,confidence_buffer,,null,,,,,,,,,,,,,,,,,,
1212.4000000059605,,memorable_rating,510249,Lakehaven,,53,,,5,,,,,,,,,,,,,,,
null,,confidence_buffer,510360,confidence_buffer,,null,,,,,,,,,,,,,,,,,,
null,,thebreak,510865,break,,null,,,,,,,,,,,,,,,,,,
2686.7999999970198,,familiar_rating,513554,Sierra Hollow,,51,Sierra Hollow,Fictional,3,,,,,,,,,,,,,,,
null,,confidence_buffer,513661,confidence_buffer,,null,,,,,,,,,,,,,,,,,,
1855.4000000059605,,probe_rating,515518,probe_rating,,51,,,,3,1,,,,,,,,,,,,,
null,,confidence_buffer,515626,confidence_buffer,,null,,,,,,,,,,,,,,,,,,
1137,,unique_rating,516765,Sierra Hollow,,52,,,4,,,,,,,,,,,,,,,
null,,confidence_buffer,516880,confidence_buffer,,null,,,,,,,,,,,,,,,,,,
924.7000000029802,,memorable_rating,517807,Sierra Hollow,,52,,,4,,,,,,,,,,,,,,,
null,,confidence_buffer,517911,confidence_buffer,,null,,,,,,,,,,,,,,,,,,
null,,thebreak,518414,break,,null,,,,,,,,,,,,,,,,,,
1898.9000000059605,,familiar_rating,520315,Gatlinburg,,52,Gatlinburg,US,4,,,,,,,,,,,,,,,
null,,confidence_buffer,520426,confidence_buffer,,null,,,,,,,,,,,,,,,,,,
1241.2000000029802,,unique_rating,521669,Gatlinburg,,51,,,3,,,,,,,,,,,,,,,
null,,confidence_buffer,521772,confidence_buffer,,null,,,,,,,,,,,,,,,,,,
2184.6000000089407,,probe_rating,523959,probe_rating,,53,,,,5,1,,,,,,,,,,,,,
null,,confidence_buffer,524062,confidence_buffer,,null,,,,,,,,,,,,,,,,,,
2896.7000000029802,,memorable_rating,526961,Gatlinburg,,52,,,4,,,,,,,,,,,,,,,
null,,confidence_buffer,527070,confidence_buffer,,null,,,,,,,,,,,,,,,,,,
null,,thebreak,527575,break,,null,,,,,,,,,,,,,,,,,,
2273.7000000029802,,familiar_rating,529851,Hollendale,,51,Hollendale,Fictional,3,,,,,,,,,,,,,,,
null,,confidence_buffer,529960,confidence_buffer,,null,,,,,,,,,,,,,,,,,,
1292.2000000029802,,unique_rating,531254,Hollendale,,51,,,3,,,,,,,,,,,,,,,
null,,confidence_buffer,531361,confidence_buffer,,null,,,,,,,,,,,,,,,,,,
1020.3000000119209,,memorable_rating,532383,Hollendale,,52,,,4,,,,,,,,,,,,,,,
null,,confidence_buffer,532485,confidence_buffer,,null,,,,,,,,,,,,,,,,,,
null,,thebreak,532990,break,,null,,,,,,,,,,,,,,,,,,
85853.5,,intro_0,618809,instruct,,32,,,,,,,,,,,,,,,,,,
8403.40000000596,,intro_1,627214,instruct,,32,,,,,,,,,,,,,,,,,,
29865.19999998808,,intro_2,657081,instruct,,32,,,,,,,,,,,,,,,,,,
null,,instruct_dir_4,658588,instruct,,null,,,,,,,,,,,,,,,,,,
13233.5,,realistic_rating,671824,Livingston,,52,Livingston,US,4,,,,,,,,,,,,,,,
null,,confidence_buffer,671928,confidence_buffer,,null,,,,,,,,,,,,,,,,,,
3327.5999999940395,,pt2_unique_rating,675257,Livingston,,52,,,4,,,,,,,,,,,,,,,
null,,confidence_buffer,675363,confidence_buffer,,null,,,,,,,,,,,,,,,,,,
3220.5,,pt2_memorable_rating,678585,Livingston,,52,,,4,,,,,,,,,,,,,,,
null,,confidence_buffer,678693,confidence_buffer,,null,,,,,,,,,,,,,,,,,,
4065.199999988079,,recognition_phase,682743,Livingston,,49,,,,,,old,1,1,,,,,,,,,,
null,,confidence_buffer,682846,confidence_buffer,,null,,,,,,,,,,,,,,,,,,
null,,thebreak,683361,break,,null,,,,,,,,,,,,,,,,,,
3873.0999999940395,,realistic_rating,687236,Boulder,,51,Boulder,US,3,,,,,,,,,,,,,,,
null,,confidence_buffer,687341,confidence_buffer,,null,,,,,,,,,,,,,,,,,,
3760.7999999970198,,pt2_unique_rating,691103,Boulder,,52,,,4,,,,,,,,,,,,,,,
null,,confidence_buffer,691221,confidence_buffer,,null,,,,,,,,,,,,,,,,,,
1725,,pt2_memorable_rating,692948,Boulder,,51,,,3,,,,,,,,,,,,,,,
null,,confidence_buffer,693051,confidence_buffer,,null,,,,,,,,,,,,,,,,,,
3322,,recognition_phase,696375,Boulder,,52,,,,,,new,1,1,,,,,,,,,,
null,,confidence_buffer,696481,confidence_buffer,,null,,,,,,,,,,,,,,,,,,
null,,thebreak,696986,break,,null,,,,,,,,,,,,,,,,,,
3372.2000000029802,,realistic_rating,700360,Maplehurst,,51,Maplehurst,Fictional,3,,,,,,,,,,,,,,,
null,,confidence_buffer,700471,confidence_buffer,,null,,,,,,,,,,,,,,,,,,
3082.2000000029802,,pt2_unique_rating,703555,Maplehurst,,51,,,3,,,,,,,,,,,,,,,
null,,confidence_buffer,703662,confidence_buffer,,null,,,,,,,,,,,,,,,,,,
3550.7999999970198,,pt2_memorable_rating,707215,Maplehurst,,52,,,4,,,,,,,,,,,,,,,
null,,confidence_buffer,707320,confidence_buffer,,null,,,,,,,,,,,,,,,,,,
7357.600000008941,,recognition_phase,714680,Maplehurst,,52,,,,,,new,1,1,,,,,,,,,,
null,,confidence_buffer,714786,confidence_buffer,,null,,,,,,,,,,,,,,,,,,
null,,thebreak,715301,break,,null,,,,,,,,,,,,,,,,,,
4960.5,,realistic_rating,720263,Meadowspire,,51,Meadowspire,Fictional,3,,,,,,,,,,,,,,,
null,,confidence_buffer,720366,confidence_buffer,,null,,,,,,,,,,,,,,,,,,
1379.9000000059605,,pt2_unique_rating,721747,Meadowspire,,52,,,4,,,,,,,,,,,,,,,
null,,confidence_buffer,721850,confidence_buffer,,null,,,,,,,,,,,,,,,,,,
1168.7999999970198,,pt2_memorable_rating,723020,Meadowspire,,51,,,3,,,,,,,,,,,,,,,
null,,confidence_buffer,723126,confidence_buffer,,null,,,,,,,,,,,,,,,,,,
5000.0999999940395,,recognition_phase,728128,Meadowspire,,52,,,,,,new,1,1,,,,,,,,,,
null,,confidence_buffer,728231,confidence_buffer,,null,,,,,,,,,,,,,,,,,,
null,,thebreak,728740,break,,null,,,,,,,,,,,,,,,,,,
3066.7000000029802,,realistic_rating,731809,Sunmere,,51,Sunmere,Fictional,3,,,,,,,,,,,,,,,
null,,confidence_buffer,731914,confidence_buffer,,null,,,,,,,,,,,,,,,,,,
7002.699999988079,,pt2_unique_rating,738918,Sunmere,,52,,,4,,,,,,,,,,,,,,,
null,,confidence_buffer,739027,confidence_buffer,,null,,,,,,,,,,,,,,,,,,
2812.5,,pt2_memorable_rating,741841,Sunmere,,51,,,3,,,,,,,,,,,,,,,
null,,confidence_buffer,741947,confidence_buffer,,null,,,,,,,,,,,,,,,,,,
3387.5999999940395,,recognition_phase,745320,Sunmere,,49,,,,,,old,1,1,,,,,,,,,,
null,,confidence_buffer,745428,confidence_buffer,,null,,,,,,,,,,,,,,,,,,
null,,thebreak,745936,break,,null,,,,,,,,,,,,,,,,,,
2723,,realistic_rating,748664,Cornwall,,52,Cornwall,US,4,,,,,,,,,,,,,,,
null,,confidence_buffer,748772,confidence_buffer,,null,,,,,,,,,,,,,,,,,,
2771.9000000059605,,probe_rating,751546,probe_rating,,51,,,,3,1,,,,,,,,,,,,,
null,,confidence_buffer,751659,confidence_buffer,,null,,,,,,,,,,,,,,,,,,
4544.5,,pt2_unique_rating,756206,Cornwall,,52,,,4,,,,,,,,,,,,,,,
null,,confidence_buffer,756319,confidence_buffer,,null,,,,,,,,,,,,,,,,,,
1542.5,,pt2_memorable_rating,757863,Cornwall,,52,,,4,,,,,,,,,,,,,,,
null,,confidence_buffer,757979,confidence_buffer,,null,,,,,,,,,,,,,,,,,,
3521.2000000029802,,recognition_phase,761502,Cornwall,,49,,,,,,old,1,1,,,,,,,,,,
null,,confidence_buffer,761607,confidence_buffer,,null,,,,,,,,,,,,,,,,,,
null,,thebreak,762119,break,,null,,,,,,,,,,,,,,,,,,
2269.1000000089407,,realistic_rating,764390,Healdsburg,,51,Healdsburg,US,3,,,,,,,,,,,,,,,
null,,confidence_buffer,764499,confidence_buffer,,null,,,,,,,,,,,,,,,,,,
1851.1000000089407,,pt2_unique_rating,766352,Healdsburg,,52,,,4,,,,,,,,,,,,,,,
null,,confidence_buffer,766459,confidence_buffer,,null,,,,,,,,,,,,,,,,,,
2654.5,,pt2_memorable_rating,769116,Healdsburg,,51,,,3,,,,,,,,,,,,,,,
null,,confidence_buffer,769223,confidence_buffer,,null,,,,,,,,,,,,,,,,,,
3717.0999999940395,,recognition_phase,772942,Healdsburg,,49,,,,,,old,1,1,,,,,,,,,,
null,,confidence_buffer,773059,confidence_buffer,,null,,,,,,,,,,,,,,,,,,
null,,thebreak,773569,break,,null,,,,,,,,,,,,,,,,,,
5345.9000000059605,,realistic_rating,778918,Shreveport,,51,Shreveport,US,3,,,,,,,,,,,,,,,
null,,confidence_buffer,779024,confidence_buffer,,null,,,,,,,,,,,,,,,,,,
4266.600000008941,,pt2_unique_rating,783292,Shreveport,,51,,,3,,,,,,,,,,,,,,,
null,,confidence_buffer,783398,confidence_buffer,,null,,,,,,,,,,,,,,,,,,
4205,,pt2_memorable_rating,787606,Shreveport,,51,,,3,,,,,,,,,,,,,,,
null,,confidence_buffer,787718,confidence_buffer,,null,,,,,,,,,,,,,,,,,,
7338.0999999940395,,recognition_phase,795058,Shreveport,,50,,,,,,old,0,0.875,,,,,,,,,,
null,,confidence_buffer,795163,confidence_buffer,,null,,,,,,,,,,,,,,,,,,
null,,thebreak,795679,break,,null,,,,,,,,,,,,,,,,,,
2714.2000000029802,,realistic_rating,798395,Crestwood,,51,Crestwood,Fictional,3,,,,,,,,,,,,,,,
null,,confidence_buffer,798508,confidence_buffer,,null,,,,,,,,,,,,,,,,,,
5067.5,,pt2_unique_rating,803577,Crestwood,,51,,,3,,,,,,,,,,,,,,,
null,,confidence_buffer,803690,confidence_buffer,,null,,,,,,,,,,,,,,,,,,
1655,,pt2_memorable_rating,805330,Crestwood,,52,,,4,,,,,,,,,,,,,,,
null,,confidence_buffer,805437,confidence_buffer,,null,,,,,,,,,,,,,,,,,,
4377.0999999940395,,recognition_phase,809816,Crestwood,,49,,,,,,old,1,0.8888888888888888,,,,,,,,,,
null,,confidence_buffer,809918,confidence_buffer,,null,,,,,,,,,,,,,,,,,,
null,,thebreak,810423,break,,null,,,,,,,,,,,,,,,,,,
3048.5999999940395,,realistic_rating,813473,Custer,,51,Custer,US,3,,,,,,,,,,,,,,,
null,,confidence_buffer,813577,confidence_buffer,,null,,,,,,,,,,,,,,,,,,
1321.5,,pt2_unique_rating,814901,Custer,,51,,,3,,,,,,,,,,,,,,,
null,,confidence_buffer,815012,confidence_buffer,,null,,,,,,,,,,,,,,,,,,
1324.7000000029802,,pt2_memorable_rating,816338,Custer,,52,,,4,,,,,,,,,,,,,,,
null,,confidence_buffer,816443,confidence_buffer,,null,,,,,,,,,,,,,,,,,,
3228.2000000029802,,recognition_phase,819673,Custer,,52,,,,,,new,1,0.9,,,,,,,,,,
null,,confidence_buffer,819788,confidence_buffer,,null,,,,,,,,,,,,,,,,,,
null,,thebreak,820292,break,,null,,,,,,,,,,,,,,,,,,
2929.5,,realistic_rating,823223,Racine,,51,Racine,US,3,,,,,,,,,,,,,,,
null,,confidence_buffer,823338,confidence_buffer,,null,,,,,,,,,,,,,,,,,,
5222.70000000298,,pt2_unique_rating,828562,Racine,,52,,,4,,,,,,,,,,,,,,,
null,,confidence_buffer,828672,confidence_buffer,,null,,,,,,,,,,,,,,,,,,
2556.1000000089407,,pt2_memorable_rating,831230,Racine,,51,,,3,,,,,,,,,,,,,,,
null,,confidence_buffer,831336,confidence_buffer,,null,,,,,,,,,,,,,,,,,,
1924.2999999970198,,probe_rating,833262,probe_rating,,52,,,,4,1,,,,,,,,,,,,,
null,,confidence_buffer,833368,confidence_buffer,,null,,,,,,,,,,,,,,,,,,
3774.4000000059605,,recognition_phase,837144,Racine,,51,,,,,,new,0,0.8181818181818182,,,,,,,,,,
null,,confidence_buffer,837251,confidence_buffer,,null,,,,,,,,,,,,,,,,,,
null,,thebreak,837753,break,,null,,,,,,,,,,,,,,,,,,
6181.79999999702,,realistic_rating,843937,Delaro Park,,51,Delaro Park,Fictional,3,,,,,,,,,,,,,,,
null,,confidence_buffer,844043,confidence_buffer,,null,,,,,,,,,,,,,,,,,,
2006.5999999940395,,pt2_unique_rating,846052,Delaro Park,,51,,,3,,,,,,,,,,,,,,,
null,,confidence_buffer,846158,confidence_buffer,,null,,,,,,,,,,,,,,,,,,
1831.3999999910593,,pt2_memorable_rating,847991,Delaro Park,,52,,,4,,,,,,,,,,,,,,,
null,,confidence_buffer,848094,confidence_buffer,,null,,,,,,,,,,,,,,,,,,
4540.4000000059605,,probe_rating,852637,probe_rating,,52,,,,4,1,,,,,,,,,,,,,
null,,confidence_buffer,852743,confidence_buffer,,null,,,,,,,,,,,,,,,,,,
11753.29999999702,,recognition_phase,864498,Delaro Park,,49,,,,,,old,0,0.75,,,,,,,,,,
null,,confidence_buffer,864603,confidence_buffer,,null,,,,,,,,,,,,,,,,,,
null,,thebreak,865118,break,,null,,,,,,,,,,,,,,,,,,
5207.5,,realistic_rating,870310,Natchez,,51,Natchez,US,3,,,,,,,,,,,,,,,
null,,confidence_buffer,870415,confidence_buffer,,null,,,,,,,,,,,,,,,,,,
2303.7000000029802,,pt2_unique_rating,872721,Natchez,,51,,,3,,,,,,,,,,,,,,,
null,,confidence_buffer,872824,confidence_buffer,,null,,,,,,,,,,,,,,,,,,
1212.2000000029802,,pt2_memorable_rating,874038,Natchez,,51,,,3,,,,,,,,,,,,,,,
null,,confidence_buffer,874150,confidence_buffer,,null,,,,,,,,,,,,,,,,,,
3253.2000000029802,,recognition_phase,877405,Natchez,,52,,,,,,new,1,0.7692307692307693,,,,,,,,,,
null,,confidence_buffer,877509,confidence_buffer,,null,,,,,,,,,,,,,,,,,,
null,,thebreak,878014,break,,null,,,,,,,,,,,,,,,,,,
6300.100000008941,,realistic_rating,884316,Bayshore Haven,,50,Bayshore Haven,Fictional,2,,,,,,,,,,,,,,,
null,,confidence_buffer,884423,confidence_buffer,,null,,,,,,,,,,,,,,,,,,
1502.5,,pt2_unique_rating,885927,Bayshore Haven,,51,,,3,,,,,,,,,,,,,,,
null,,confidence_buffer,886029,confidence_buffer,,null,,,,,,,,,,,,,,,,,,
2450.7999999970198,,pt2_memorable_rating,888481,Bayshore Haven,,51,,,3,,,,,,,,,,,,,,,
null,,confidence_buffer,888589,confidence_buffer,,null,,,,,,,,,,,,,,,,,,
4923.9000000059605,,recognition_phase,893515,Bayshore Haven,,50,,,,,,old,1,0.7857142857142857,,,,,,,,,,
null,,confidence_buffer,893620,confidence_buffer,,null,,,,,,,,,,,,,,,,,,
null,,thebreak,894124,break,,null,,,,,,,,,,,,,,,,,,
2361.0999999940395,,realistic_rating,896488,Manistee,,51,Manistee,US,3,,,,,,,,,,,,,,,
null,,confidence_buffer,896596,confidence_buffer,,null,,,,,,,,,,,,,,,,,,
1250.2999999970198,,pt2_unique_rating,897854,Manistee,,51,,,3,,,,,,,,,,,,,,,
null,,confidence_buffer,897961,confidence_buffer,,null,,,,,,,,,,,,,,,,,,
1091.5999999940395,,pt2_memorable_rating,899059,Manistee,,51,,,3,,,,,,,,,,,,,,,
null,,confidence_buffer,899175,confidence_buffer,,null,,,,,,,,,,,,,,,,,,
2168,,recognition_phase,901346,Manistee,,52,,,,,,new,1,0.8,,,,,,,,,,
null,,confidence_buffer,901450,confidence_buffer,,null,,,,,,,,,,,,,,,,,,
null,,thebreak,901956,break,,null,,,,,,,,,,,,,,,,,,
5327.699999988079,,realistic_rating,907288,Sammamish,,51,Sammamish,US,3,,,,,,,,,,,,,,,
null,,confidence_buffer,907395,confidence_buffer,,null,,,,,,,,,,,,,,,,,,
1757,,pt2_unique_rating,909153,Sammamish,,51,,,3,,,,,,,,,,,,,,,
null,,confidence_buffer,909263,confidence_buffer,,null,,,,,,,,,,,,,,,,,,
3273.8999999910593,,probe_rating,912541,probe_rating,,51,,,,3,1,,,,,,,,,,,,,
null,,confidence_buffer,912656,confidence_buffer,,null,,,,,,,,,,,,,,,,,,
5627.5,,pt2_memorable_rating,918286,Sammamish,,52,,,4,,,,,,,,,,,,,,,
null,,confidence_buffer,918394,confidence_buffer,,null,,,,,,,,,,,,,,,,,,
2348.7999999970198,,recognition_phase,920745,Sammamish,,51,,,,,,new,0,0.75,,,,,,,,,,
null,,confidence_buffer,920856,confidence_buffer,,null,,,,,,,,,,,,,,,,,,
null,,thebreak,921361,break,,null,,,,,,,,,,,,,,,,,,
4907.70000000298,,realistic_rating,926271,Tamarisk Hills,,51,Tamarisk Hills,Fictional,3,,,,,,,,,,,,,,,
null,,confidence_buffer,926385,confidence_buffer,,null,,,,,,,,,,,,,,,,,,
2034.5,,pt2_unique_rating,928421,Tamarisk Hills,,51,,,3,,,,,,,,,,,,,,,
null,,confidence_buffer,928525,confidence_buffer,,null,,,,,,,,,,,,,,,,,,
11642.70000000298,,pt2_memorable_rating,940150,Tamarisk Hills,,51,,,3,,,,,,,,,,,,,,,
null,,confidence_buffer,940256,confidence_buffer,,null,,,,,,,,,,,,,,,,,,
8005.70000000298,,recognition_phase,948263,Tamarisk Hills,,50,,,,,,old,1,0.7647058823529411,,,,,,,,,,
null,,confidence_buffer,948371,confidence_buffer,,null,,,,,,,,,,,,,,,,,,
null,,thebreak,948876,break,,null,,,,,,,,,,,,,,,,,,
2844.3999999910593,,realistic_rating,951722,Medora,,51,Medora,US,3,,,,,,,,,,,,,,,
null,,confidence_buffer,951826,confidence_buffer,,null,,,,,,,,,,,,,,,,,,
2041.5999999940395,,pt2_unique_rating,953869,Medora,,51,,,3,,,,,,,,,,,,,,,
null,,confidence_buffer,953974,confidence_buffer,,null,,,,,,,,,,,,,,,,,,
1987.5999999940395,,pt2_memorable_rating,955963,Medora,,51,,,3,,,,,,,,,,,,,,,
null,,confidence_buffer,956066,confidence_buffer,,null,,,,,,,,,,,,,,,,,,
3935.199999988079,,recognition_phase,960003,Medora,,50,,,,,,old,0,0.7222222222222222,,,,,,,,,,
null,,confidence_buffer,960106,confidence_buffer,,null,,,,,,,,,,,,,,,,,,
null,,thebreak,960611,break,,null,,,,,,,,,,,,,,,,,,
4495.5,,realistic_rating,965108,Bar Harbor,,52,Bar Harbor,US,4,,,,,,,,,,,,,,,
null,,confidence_buffer,965226,confidence_buffer,,null,,,,,,,,,,,,,,,,,,
1209.9000000059605,,pt2_unique_rating,966437,Bar Harbor,,52,,,4,,,,,,,,,,,,,,,
null,,confidence_buffer,966547,confidence_buffer,,null,,,,,,,,,,,,,,,,,,
1347.5,,pt2_memorable_rating,967896,Bar Harbor,,52,,,4,,,,,,,,,,,,,,,
null,,confidence_buffer,968005,confidence_buffer,,null,,,,,,,,,,,,,,,,,,
2864.3999999910593,,recognition_phase,970871,Bar Harbor,,50,,,,,,old,0,0.6842105263157895,,,,,,,,,,
null,,confidence_buffer,970976,confidence_buffer,,null,,,,,,,,,,,,,,,,,,
null,,thebreak,971481,break,,null,,,,,,,,,,,,,,,,,,
3162.7999999970198,,realistic_rating,974645,Park City,,51,Park City,US,3,,,,,,,,,,,,,,,
null,,confidence_buffer,974757,confidence_buffer,,null,,,,,,,,,,,,,,,,,,
6159.699999988079,,pt2_unique_rating,980918,Park City,,52,,,4,,,,,,,,,,,,,,,
null,,confidence_buffer,981020,confidence_buffer,,null,,,,,,,,,,,,,,,,,,
1132.4000000059605,,pt2_memorable_rating,982154,Park City,,52,,,4,,,,,,,,,,,,,,,
null,,confidence_buffer,982267,confidence_buffer,,null,,,,,,,,,,,,,,,,,,
14583.40000000596,,recognition_phase,996852,Park City,,49,,,,,,old,1,0.7,,,,,,,,,,
null,,confidence_buffer,996956,confidence_buffer,,null,,,,,,,,,,,,,,,,,,
null,,thebreak,997465,break,,null,,,,,,,,,,,,,,,,,,
2501.8999999910593,,realistic_rating,999969,Brookmere,,51,Brookmere,Fictional,3,,,,,,,,,,,,,,,
null,,confidence_buffer,1000076,confidence_buffer,,null,,,,,,,,,,,,,,,,,,
1649.5999999940395,,pt2_unique_rating,1001710,Brookmere,,51,,,3,,,,,,,,,,,,,,,
null,,confidence_buffer,1001820,confidence_buffer,,null,,,,,,,,,,,,,,,,,,
2379.7000000029802,,pt2_memorable_rating,1004201,Brookmere,,52,,,4,,,,,,,,,,,,,,,
null,,confidence_buffer,1004304,confidence_buffer,,null,,,,,,,,,,,,,,,,,,
4181.4000000059605,,recognition_phase,1008487,Brookmere,,49,,,,,,old,1,0.7142857142857143,,,,,,,,,,
null,,confidence_buffer,1008595,confidence_buffer,,null,,,,,,,,,,,,,,,,,,
null,,thebreak,1009099,break,,null,,,,,,,,,,,,,,,,,,
2956.7000000029802,,realistic_rating,1012058,North Arroya,,51,North Arroya,Fictional,3,,,,,,,,,,,,,,,
null,,confidence_buffer,1012172,confidence_buffer,,null,,,,,,,,,,,,,,,,,,
2030,,pt2_unique_rating,1014204,North Arroya,,52,,,4,,,,,,,,,,,,,,,
null,,confidence_buffer,1014309,confidence_buffer,,null,,,,,,,,,,,,,,,,,,
2236.0999999940395,,pt2_memorable_rating,1016547,North Arroya,,51,,,3,,,,,,,,,,,,,,,
null,,confidence_buffer,1016659,confidence_buffer,,null,,,,,,,,,,,,,,,,,,
2429.5,,recognition_phase,1019091,North Arroya,,52,,,,,,new,1,0.7272727272727273,,,,,,,,,,
null,,confidence_buffer,1019196,confidence_buffer,,null,,,,,,,,,,,,,,,,,,
null,,thebreak,1019699,break,,null,,,,,,,,,,,,,,,,,,
4456.4000000059605,,realistic_rating,1024157,Clearbrook,,51,Clearbrook,Fictional,3,,,,,,,,,,,,,,,
null,,confidence_buffer,1024259,confidence_buffer,,null,,,,,,,,,,,,,,,,,,
2523.2000000029802,,pt2_unique_rating,1026784,Clearbrook,,51,,,3,,,,,,,,,,,,,,,
null,,confidence_buffer,1026889,confidence_buffer,,null,,,,,,,,,,,,,,,,,,
1437.9000000059605,,pt2_memorable_rating,1028328,Clearbrook,,52,,,4,,,,,,,,,,,,,,,
null,,confidence_buffer,1028434,confidence_buffer,,null,,,,,,,,,,,,,,,,,,
2970.8999999910593,,recognition_phase,1031407,Clearbrook,,49,,,,,,old,1,0.7391304347826086,,,,,,,,,,
null,,confidence_buffer,1031509,confidence_buffer,,null,,,,,,,,,,,,,,,,,,
null,,thebreak,1032024,break,,null,,,,,,,,,,,,,,,,,,
5276,,realistic_rating,1037303,Athens,,53,Athens,US,5,,,,,,,,,,,,,,,
null,,confidence_buffer,1037410,confidence_buffer,,null,,,,,,,,,,,,,,,,,,
1740.9000000059605,,pt2_unique_rating,1039153,Athens,,53,,,5,,,,,,,,,,,,,,,
null,,confidence_buffer,1039260,confidence_buffer,,null,,,,,,,,,,,,,,,,,,
1718.2000000029802,,pt2_memorable_rating,1040980,Athens,,53,,,5,,,,,,,,,,,,,,,
null,,confidence_buffer,1041094,confidence_buffer,,null,,,,,,,,,,,,,,,,,,
1579.7000000029802,,probe_rating,1042676,probe_rating,,50,,,,2,1,,,,,,,,,,,,,
null,,confidence_buffer,1042780,confidence_buffer,,null,,,,,,,,,,,,,,,,,,
4573.600000008941,,recognition_phase,1047355,Athens,,52,,,,,,new,1,0.75,,,,,,,,,,
null,,confidence_buffer,1047464,confidence_buffer,,null,,,,,,,,,,,,,,,,,,
null,,thebreak,1047969,break,,null,,,,,,,,,,,,,,,,,,
2361.699999988079,,realistic_rating,1050332,Silverpine,,51,Silverpine,Fictional,3,,,,,,,,,,,,,,,
null,,confidence_buffer,1050439,confidence_buffer,,null,,,,,,,,,,,,,,,,,,
1349.0999999940395,,pt2_unique_rating,1051790,Silverpine,,52,,,4,,,,,,,,,,,,,,,
null,,confidence_buffer,1051899,confidence_buffer,,null,,,,,,,,,,,,,,,,,,
2872,,pt2_memorable_rating,1054772,Silverpine,,52,,,4,,,,,,,,,,,,,,,
null,,confidence_buffer,1054879,confidence_buffer,,null,,,,,,,,,,,,,,,,,,
3613.9000000059605,,probe_rating,1058495,probe_rating,,53,,,,5,1,,,,,,,,,,,,,
null,,confidence_buffer,1058599,confidence_buffer,,null,,,,,,,,,,,,,,,,,,
4579.0999999940395,,recognition_phase,1063164,Silverpine,,49,,,,,,old,1,0.76,,,,,,,,,,
null,,confidence_buffer,1063266,confidence_buffer,,null,,,,,,,,,,,,,,,,,,
null,,thebreak,1063776,break,,null,,,,,,,,,,,,,,,,,,
4998,,realistic_rating,1068776,Westridge,,51,Westridge,Fictional,3,,,,,,,,,,,,,,,
null,,confidence_buffer,1068883,confidence_buffer,,null,,,,,,,,,,,,,,,,,,
1980.2999999970198,,pt2_unique_rating,1070865,Westridge,,52,,,4,,,,,,,,,,,,,,,
null,,confidence_buffer,1070973,confidence_buffer,,null,,,,,,,,,,,,,,,,,,
1264.2000000029802,,pt2_memorable_rating,1072239,Westridge,,52,,,4,,,,,,,,,,,,,,,
null,,confidence_buffer,1072343,confidence_buffer,,null,,,,,,,,,,,,,,,,,,
2065.9000000059605,,recognition_phase,1074411,Westridge,,52,,,,,,new,1,0.7692307692307693,,,,,,,,,,
null,,confidence_buffer,1074513,confidence_buffer,,null,,,,,,,,,,,,,,,,,,
null,,thebreak,1075027,break,,null,,,,,,,,,,,,,,,,,,
2636.199999988079,,realistic_rating,1077665,Okoboji,,51,Okoboji,US,3,,,,,,,,,,,,,,,
null,,confidence_buffer,1077773,confidence_buffer,,null,,,,,,,,,,,,,,,,,,
1845.8999999910593,,pt2_unique_rating,1079621,Okoboji,,51,,,3,,,,,,,,,,,,,,,
null,,confidence_buffer,1079727,confidence_buffer,,null,,,,,,,,,,,,,,,,,,
1859.800000011921,,probe_rating,1081589,probe_rating,,50,,,,2,1,,,,,,,,,,,,,
null,,confidence_buffer,1081698,confidence_buffer,,null,,,,,,,,,,,,,,,,,,
1740,,pt2_memorable_rating,1083439,Okoboji,,51,,,3,,,,,,,,,,,,,,,
null,,confidence_buffer,1083542,confidence_buffer,,null,,,,,,,,,,,,,,,,,,
3957.5999999940395,,recognition_phase,1087502,Okoboji,,49,,,,,,old,1,0.7777777777777778,,,,,,,,,,
null,,confidence_buffer,1087608,confidence_buffer,,null,,,,,,,,,,,,,,,,,,
null,,thebreak,1088112,break,,null,,,,,,,,,,,,,,,,,,
2340.7999999970198,,realistic_rating,1090455,New Verdan,,51,New Verdan,Fictional,3,,,,,,,,,,,,,,,
null,,confidence_buffer,1090563,confidence_buffer,,null,,,,,,,,,,,,,,,,,,
1845.5,,pt2_unique_rating,1092410,New Verdan,,51,,,3,,,,,,,,,,,,,,,
null,,confidence_buffer,1092517,confidence_buffer,,null,,,,,,,,,,,,,,,,,,
2415.2000000029802,,probe_rating,1094934,probe_rating,,53,,,,5,1,,,,,,,,,,,,,
null,,confidence_buffer,1095040,confidence_buffer,,null,,,,,,,,,,,,,,,,,,
1484.2999999970198,,pt2_memorable_rating,1096526,New Verdan,,52,,,4,,,,,,,,,,,,,,,
null,,confidence_buffer,1096633,confidence_buffer,,null,,,,,,,,,,,,,,,,,,
3520.2000000029802,,recognition_phase,1100155,New Verdan,,51,,,,,,new,0,0.75,,,,,,,,,,
null,,confidence_buffer,1100267,confidence_buffer,,null,,,,,,,,,,,,,,,,,,
null,,thebreak,1100772,break,,null,,,,,,,,,,,,,,,,,,
3496.2000000029802,,realistic_rating,1104270,San Antonio,,52,San Antonio,US,4,,,,,,,,,,,,,,,
null,,confidence_buffer,1104382,confidence_buffer,,null,,,,,,,,,,,,,,,,,,
3267.7000000029802,,pt2_unique_rating,1107652,San Antonio,,52,,,4,,,,,,,,,,,,,,,
null,,confidence_buffer,1107767,confidence_buffer,,null,,,,,,,,,,,,,,,,,,
4944.20000000298,,pt2_memorable_rating,1112713,San Antonio,,52,,,4,,,,,,,,,,,,,,,
null,,confidence_buffer,1112818,confidence_buffer,,null,,,,,,,,,,,,,,,,,,
2862.9000000059605,,recognition_phase,1115683,San Antonio,,49,,,,,,old,1,0.7586206896551724,,,,,,,,,,
null,,confidence_buffer,1115788,confidence_buffer,,null,,,,,,,,,,,,,,,,,,
null,,thebreak,1116302,break,,null,,,,,,,,,,,,,,,,,,
6076.0999999940395,,realistic_rating,1122379,Orchard Bend,,51,Orchard Bend,Fictional,3,,,,,,,,,,,,,,,
null,,confidence_buffer,1122493,confidence_buffer,,null,,,,,,,,,,,,,,,,,,
23194.60000000894,,pt2_unique_rating,1145668,Orchard Bend,,51,,,3,,,,,,,,,,,,,,,
null,,confidence_buffer,1145771,confidence_buffer,,null,,,,,,,,,,,,,,,,,,
1876.2000000029802,,pt2_memorable_rating,1147649,Orchard Bend,,51,,,3,,,,,,,,,,,,,,,
null,,confidence_buffer,1147753,confidence_buffer,,null,,,,,,,,,,,,,,,,,,
2041.2999999970198,,probe_rating,1149796,probe_rating,,50,,,,2,1,,,,,,,,,,,,,
null,,confidence_buffer,1149906,confidence_buffer,,null,,,,,,,,,,,,,,,,,,
4079.6000000089407,,recognition_phase,1153988,Orchard Bend,,51,,,,,,new,1,0.7666666666666667,,,,,,,,,,
null,,confidence_buffer,1154091,confidence_buffer,,null,,,,,,,,,,,,,,,,,,
null,,thebreak,1154592,break,,null,,,,,,,,,,,,,,,,,,
2405.0999999940395,,realistic_rating,1156999,Granton Ridge,,51,Granton Ridge,Fictional,3,,,,,,,,,,,,,,,
null,,confidence_buffer,1157115,confidence_buffer,,null,,,,,,,,,,,,,,,,,,
4527.20000000298,,pt2_unique_rating,1161644,Granton Ridge,,51,,,3,,,,,,,,,,,,,,,
null,,confidence_buffer,1161752,confidence_buffer,,null,,,,,,,,,,,,,,,,,,
3986.6000000089407,,pt2_memorable_rating,1165740,Granton Ridge,,52,,,4,,,,,,,,,,,,,,,
null,,confidence_buffer,1165851,confidence_buffer,,null,,,,,,,,,,,,,,,,,,
3954.1000000089407,,recognition_phase,1169807,Granton Ridge,,52,,,,,,new,1,0.7741935483870968,,,,,,,,,,
null,,confidence_buffer,1169911,confidence_buffer,,null,,,,,,,,,,,,,,,,,,
null,,thebreak,1170425,break,,null,,,,,,,,,,,,,,,,,,
4376.5,,realistic_rating,1174804,Sierra Hollow,,51,Sierra Hollow,Fictional,3,,,,,,,,,,,,,,,
null,,confidence_buffer,1174911,confidence_buffer,,null,,,,,,,,,,,,,,,,,,
1344.199999988079,,pt2_unique_rating,1176257,Sierra Hollow,,51,,,3,,,,,,,,,,,,,,,
null,,confidence_buffer,1176365,confidence_buffer,,null,,,,,,,,,,,,,,,,,,
2368.6000000089407,,pt2_memorable_rating,1178735,Sierra Hollow,,52,,,4,,,,,,,,,,,,,,,
null,,confidence_buffer,1178841,confidence_buffer,,null,,,,,,,,,,,,,,,,,,
7775.699999988079,,recognition_phase,1186619,Sierra Hollow,,50,,,,,,old,1,0.78125,,,,,,,,,,
null,,confidence_buffer,1186721,confidence_buffer,,null,,,,,,,,,,,,,,,,,,
null,,thebreak,1187226,break,,null,,,,,,,,,,,,,,,,,,
2743.0999999940395,,realistic_rating,1189974,Bowling Green,,51,Bowling Green,US,3,,,,,,,,,,,,,,,
null,,confidence_buffer,1190081,confidence_buffer,,null,,,,,,,,,,,,,,,,,,
2605,,pt2_unique_rating,1192688,Bowling Green,,52,,,4,,,,,,,,,,,,,,,
null,,confidence_buffer,1192796,confidence_buffer,,null,,,,,,,,,,,,,,,,,,
6443.0999999940395,,pt2_memorable_rating,1199241,Bowling Green,,51,,,3,,,,,,,,,,,,,,,
null,,confidence_buffer,1199346,confidence_buffer,,null,,,,,,,,,,,,,,,,,,
2904.4000000059605,,recognition_phase,1202236,Bowling Green,,50,,,,,,old,1,0.7878787878787878,,,,,,,,,,
null,,confidence_buffer,1202339,confidence_buffer,,null,,,,,,,,,,,,,,,,,,
null,,thebreak,1202843,break,,null,,,,,,,,,,,,,,,,,,
4745.399999991059,,realistic_rating,1207590,Stonebrook,,51,Stonebrook,Fictional,3,,,,,,,,,,,,,,,
null,,confidence_buffer,1207694,confidence_buffer,,null,,,,,,,,,,,,,,,,,,
3095.2999999970198,,pt2_unique_rating,1210791,Stonebrook,,51,,,3,,,,,,,,,,,,,,,
null,,confidence_buffer,1210898,confidence_buffer,,null,,,,,,,,,,,,,,,,,,
2546.5,,pt2_memorable_rating,1213447,Stonebrook,,51,,,3,,,,,,,,,,,,,,,
null,,confidence_buffer,1213555,confidence_buffer,,null,,,,,,,,,,,,,,,,,,
3144.5999999940395,,recognition_phase,1216701,Stonebrook,,50,,,,,,old,0,0.7647058823529411,,,,,,,,,,
null,,confidence_buffer,1216805,confidence_buffer,,null,,,,,,,,,,,,,,,,,,
null,,thebreak,1217315,break,,null,,,,,,,,,,,,,,,,,,
2977.2999999970198,,realistic_rating,1220294,Lake of the Ozarks,,51,Lake of the Ozarks,US,3,,,,,,,,,,,,,,,
null,,confidence_buffer,1220399,confidence_buffer,,null,,,,,,,,,,,,,,,,,,
1904.7999999970198,,pt2_unique_rating,1222306,Lake of the Ozarks,,51,,,3,,,,,,,,,,,,,,,
null,,confidence_buffer,1222409,confidence_buffer,,null,,,,,,,,,,,,,,,,,,
4740.5999999940395,,pt2_memorable_rating,1227151,Lake of the Ozarks,,51,,,3,,,,,,,,,,,,,,,
null,,confidence_buffer,1227254,confidence_buffer,,null,,,,,,,,,,,,,,,,,,
2612.7000000029802,,recognition_phase,1229868,Lake of the Ozarks,,51,,,,,,new,0,0.7428571428571429,,,,,,,,,,
null,,confidence_buffer,1229971,confidence_buffer,,null,,,,,,,,,,,,,,,,,,
null,,thebreak,1230484,break,,null,,,,,,,,,,,,,,,,,,
6091.100000008941,,realistic_rating,1236577,Hot Springs,,52,Hot Springs,US,4,,,,,,,,,,,,,,,
null,,confidence_buffer,1236685,confidence_buffer,,null,,,,,,,,,,,,,,,,,,
1329.1000000089407,,pt2_unique_rating,1238016,Hot Springs,,52,,,4,,,,,,,,,,,,,,,
null,,confidence_buffer,1238125,confidence_buffer,,null,,,,,,,,,,,,,,,,,,
1482.5999999940395,,pt2_memorable_rating,1239609,Hot Springs,,52,,,4,,,,,,,,,,,,,,,
null,,confidence_buffer,1239712,confidence_buffer,,null,,,,,,,,,,,,,,,,,,
3123.6000000089407,,recognition_phase,1242838,Hot Springs,,49,,,,,,old,1,0.75,,,,,,,,,,
null,,confidence_buffer,1242944,confidence_buffer,,null,,,,,,,,,,,,,,,,,,
null,,thebreak,1243449,break,,null,,,,,,,,,,,,,,,,,,
7102.29999999702,,realistic_rating,1250554,Maravilla Springs,,52,Maravilla Springs,Fictional,4,,,,,,,,,,,,,,,
null,,confidence_buffer,1250661,confidence_buffer,,null,,,,,,,,,,,,,,,,,,
1944.2999999970198,,pt2_unique_rating,1252608,Maravilla Springs,,52,,,4,,,,,,,,,,,,,,,
null,,confidence_buffer,1252710,confidence_buffer,,null,,,,,,,,,,,,,,,,,,
2198.5999999940395,,pt2_memorable_rating,1254910,Maravilla Springs,,51,,,3,,,,,,,,,,,,,,,
null,,confidence_buffer,1255015,confidence_buffer,,null,,,,,,,,,,,,,,,,,,
3419.5,,recognition_phase,1258436,Maravilla Springs,,51,,,,,,new,1,0.7567567567567568,,,,,,,,,,
null,,confidence_buffer,1258539,confidence_buffer,,null,,,,,,,,,,,,,,,,,,
null,,thebreak,1259045,break,,null,,,,,,,,,,,,,,,,,,
3991.5,,realistic_rating,1263026,Gloucester,,51,Gloucester,US,3,,,,,,,,,,,,,,,
null,,confidence_buffer,1263132,confidence_buffer,,null,,,,,,,,,,,,,,,,,,
2542.7000000029802,,pt2_unique_rating,1265678,Gloucester,,52,,,4,,,,,,,,,,,,,,,
null,,confidence_buffer,1265783,confidence_buffer,,null,,,,,,,,,,,,,,,,,,
1902.199999988079,,pt2_memorable_rating,1267687,Gloucester,,52,,,4,,,,,,,,,,,,,,,
null,,confidence_buffer,1267791,confidence_buffer,,null,,,,,,,,,,,,,,,,,,
6819.9000000059605,,recognition_phase,1274613,Gloucester,,52,,,,,,new,1,0.7631578947368421,,,,,,,,,,
null,,confidence_buffer,1274717,confidence_buffer,,null,,,,,,,,,,,,,,,,,,
null,,thebreak,1275222,break,,null,,,,,,,,,,,,,,,,,,
4442.20000000298,,realistic_rating,1279666,Fairhaven,,51,Fairhaven,Fictional,3,,,,,,,,,,,,,,,
null,,confidence_buffer,1279772,confidence_buffer,,null,,,,,,,,,,,,,,,,,,
1471.7999999970198,,pt2_unique_rating,1281247,Fairhaven,,52,,,4,,,,,,,,,,,,,,,
null,,confidence_buffer,1281352,confidence_buffer,,null,,,,,,,,,,,,,,,,,,
1279.800000011921,,pt2_memorable_rating,1282635,Fairhaven,,52,,,4,,,,,,,,,,,,,,,
null,,confidence_buffer,1282738,confidence_buffer,,null,,,,,,,,,,,,,,,,,,
3904.9000000059605,,recognition_phase,1286645,Fairhaven,,51,,,,,,new,1,0.7692307692307693,,,,,,,,,,
null,,confidence_buffer,1286751,confidence_buffer,,null,,,,,,,,,,,,,,,,,,
null,,thebreak,1287257,break,,null,,,,,,,,,,,,,,,,,,
2036.3999999910593,,realistic_rating,1289295,Baymarsh,,51,Baymarsh,Fictional,3,,,,,,,,,,,,,,,
null,,confidence_buffer,1289399,confidence_buffer,,null,,,,,,,,,,,,,,,,,,
1632.0999999940395,,pt2_unique_rating,1291034,Baymarsh,,52,,,4,,,,,,,,,,,,,,,
null,,confidence_buffer,1291147,confidence_buffer,,null,,,,,,,,,,,,,,,,,,
1410.2999999970198,,pt2_memorable_rating,1292560,Baymarsh,,51,,,3,,,,,,,,,,,,,,,
null,,confidence_buffer,1292667,confidence_buffer,,null,,,,,,,,,,,,,,,,,,
6703.4000000059605,,recognition_phase,1299372,Baymarsh,,50,,,,,,old,1,0.775,,,,,,,,,,
null,,confidence_buffer,1299476,confidence_buffer,,null,,,,,,,,,,,,,,,,,,
null,,thebreak,1299992,break,,null,,,,,,,,,,,,,,,,,,
4384.20000000298,,realistic_rating,1304378,Orr,,51,Orr,US,3,,,,,,,,,,,,,,,
null,,confidence_buffer,1304483,confidence_buffer,,null,,,,,,,,,,,,,,,,,,
2490.4000000059605,,pt2_unique_rating,1306975,Orr,,53,,,5,,,,,,,,,,,,,,,
null,,confidence_buffer,1307077,confidence_buffer,,null,,,,,,,,,,,,,,,,,,
2505.300000011921,,pt2_memorable_rating,1309586,Orr,,52,,,4,,,,,,,,,,,,,,,
null,,confidence_buffer,1309688,confidence_buffer,,null,,,,,,,,,,,,,,,,,,
2081.9000000059605,,recognition_phase,1311771,Orr,,52,,,,,,new,1,0.7804878048780488,,,,,,,,,,
null,,confidence_buffer,1311876,confidence_buffer,,null,,,,,,,,,,,,,,,,,,
null,,thebreak,1312377,break,,null,,,,,,,,,,,,,,,,,,
4102,,realistic_rating,1316481,Gardnerville,,51,Gardnerville,US,3,,,,,,,,,,,,,,,
null,,confidence_buffer,1316587,confidence_buffer,,null,,,,,,,,,,,,,,,,,,
1666.2999999970198,,pt2_unique_rating,1318255,Gardnerville,,52,,,4,,,,,,,,,,,,,,,
null,,confidence_buffer,1318357,confidence_buffer,,null,,,,,,,,,,,,,,,,,,
1463.9000000059605,,pt2_memorable_rating,1319822,Gardnerville,,52,,,4,,,,,,,,,,,,,,,
null,,confidence_buffer,1319937,confidence_buffer,,null,,,,,,,,,,,,,,,,,,
2555.5,,recognition_phase,1322494,Gardnerville,,52,,,,,,new,1,0.7857142857142857,,,,,,,,,,
null,,confidence_buffer,1322596,confidence_buffer,,null,,,,,,,,,,,,,,,,,,
null,,thebreak,1323090,break,,null,,,,,,,,,,,,,,,,,,
4497.70000000298,,realistic_rating,1327590,Delaware City,,51,Delaware City,US,3,,,,,,,,,,,,,,,
null,,confidence_buffer,1327692,confidence_buffer,,null,,,,,,,,,,,,,,,,,,
1356.2999999970198,,pt2_unique_rating,1329050,Delaware City,,52,,,4,,,,,,,,,,,,,,,
null,,confidence_buffer,1329157,confidence_buffer,,null,,,,,,,,,,,,,,,,,,
1891.7000000029802,,pt2_memorable_rating,1331050,Delaware City,,52,,,4,,,,,,,,,,,,,,,
null,,confidence_buffer,1331155,confidence_buffer,,null,,,,,,,,,,,,,,,,,,
1946.2000000029802,,recognition_phase,1333103,Delaware City,,52,,,,,,new,1,0.7906976744186046,,,,,,,,,,
null,,confidence_buffer,1333209,confidence_buffer,,null,,,,,,,,,,,,,,,,,,
null,,thebreak,1333712,break,,null,,,,,,,,,,,,,,,,,,
3019.2999999970198,,realistic_rating,1336733,Coralridge,,51,Coralridge,Fictional,3,,,,,,,,,,,,,,,
null,,confidence_buffer,1336850,confidence_buffer,,null,,,,,,,,,,,,,,,,,,
1627.4000000059605,,pt2_unique_rating,1338480,Coralridge,,52,,,4,,,,,,,,,,,,,,,
null,,confidence_buffer,1338585,confidence_buffer,,null,,,,,,,,,,,,,,,,,,
1556.699999988079,,pt2_memorable_rating,1340143,Coralridge,,52,,,4,,,,,,,,,,,,,,,
null,,confidence_buffer,1340245,confidence_buffer,,null,,,,,,,,,,,,,,,,,,
1723.6000000089407,,recognition_phase,1341970,Coralridge,,52,,,,,,new,1,0.7954545454545454,,,,,,,,,,
null,,confidence_buffer,1342073,confidence_buffer,,null,,,,,,,,,,,,,,,,,,
null,,thebreak,1342575,break,,null,,,,,,,,,,,,,,,,,,
6159.29999999702,,realistic_rating,1348736,Sitka,,52,Sitka,US,4,,,,,,,,,,,,,,,
null,,confidence_buffer,1348840,confidence_buffer,,null,,,,,,,,,,,,,,,,,,
1644.800000011921,,pt2_unique_rating,1350487,Sitka,,52,,,4,,,,,,,,,,,,,,,
null,,confidence_buffer,1350591,confidence_buffer,,null,,,,,,,,,,,,,,,,,,
1907.4000000059605,,probe_rating,1352500,probe_rating,,53,,,,5,1,,,,,,,,,,,,,
null,,confidence_buffer,1352606,confidence_buffer,,null,,,,,,,,,,,,,,,,,,
1849.7000000029802,,pt2_memorable_rating,1354458,Sitka,,52,,,4,,,,,,,,,,,,,,,
null,,confidence_buffer,1354561,confidence_buffer,,null,,,,,,,,,,,,,,,,,,
2179.7000000029802,,recognition_phase,1356743,Sitka,,52,,,,,,new,1,0.8,,,,,,,,,,
null,,confidence_buffer,1356845,confidence_buffer,,null,,,,,,,,,,,,,,,,,,
null,,thebreak,1357360,break,,null,,,,,,,,,,,,,,,,,,
5202.29999999702,,realistic_rating,1362564,West Talora,,52,West Talora,Fictional,4,,,,,,,,,,,,,,,
null,,confidence_buffer,1362671,confidence_buffer,,null,,,,,,,,,,,,,,,,,,
2208.5,,pt2_unique_rating,1364881,West Talora,,51,,,3,,,,,,,,,,,,,,,
null,,confidence_buffer,1364982,confidence_buffer,,null,,,,,,,,,,,,,,,,,,
1521.5,,probe_rating,1366505,probe_rating,,52,,,,4,1,,,,,,,,,,,,,
null,,confidence_buffer,1366611,confidence_buffer,,null,,,,,,,,,,,,,,,,,,
2273.7999999970198,,pt2_memorable_rating,1368886,West Talora,,52,,,4,,,,,,,,,,,,,,,
null,,confidence_buffer,1369000,confidence_buffer,,null,,,,,,,,,,,,,,,,,,
2923.7000000029802,,recognition_phase,1371926,West Talora,,49,,,,,,old,1,0.8043478260869565,,,,,,,,,,
null,,confidence_buffer,1372033,confidence_buffer,,null,,,,,,,,,,,,,,,,,,
null,,thebreak,1372534,break,,null,,,,,,,,,,,,,,,,,,
2006,,realistic_rating,1374543,Northbridge,,51,Northbridge,Fictional,3,,,,,,,,,,,,,,,
null,,confidence_buffer,1374647,confidence_buffer,,null,,,,,,,,,,,,,,,,,,
1958.4000000059605,,pt2_unique_rating,1376608,Northbridge,,52,,,4,,,,,,,,,,,,,,,
null,,confidence_buffer,1376716,confidence_buffer,,null,,,,,,,,,,,,,,,,,,
2312.2999999970198,,pt2_memorable_rating,1379030,Northbridge,,52,,,4,,,,,,,,,,,,,,,
null,,confidence_buffer,1379135,confidence_buffer,,null,,,,,,,,,,,,,,,,,,
4833.800000011921,,recognition_phase,1383959,Northbridge,,49,,,,,,old,1,0.8085106382978723,,,,,,,,,,
null,,confidence_buffer,1384069,confidence_buffer,,null,,,,,,,,,,,,,,,,,,
null,,thebreak,1384573,break,,null,,,,,,,,,,,,,,,,,,
3240.800000011921,,realistic_rating,1387816,Carmel,,52,Carmel,US,4,,,,,,,,,,,,,,,
null,,confidence_buffer,1387923,confidence_buffer,,null,,,,,,,,,,,,,,,,,,
1030.9000000059605,,pt2_unique_rating,1388956,Carmel,,52,,,4,,,,,,,,,,,,,,,
null,,confidence_buffer,1389059,confidence_buffer,,null,,,,,,,,,,,,,,,,,,
1280.2999999970198,,pt2_memorable_rating,1390341,Carmel,,52,,,4,,,,,,,,,,,,,,,
null,,confidence_buffer,1390448,confidence_buffer,,null,,,,,,,,,,,,,,,,,,
2048.7000000029802,,recognition_phase,1392498,Carmel,,49,,,,,,old,1,0.8125,,,,,,,,,,
null,,confidence_buffer,1392613,confidence_buffer,,null,,,,,,,,,,,,,,,,,,
null,,thebreak,1393128,break,,null,,,,,,,,,,,,,,,,,,
15036.10000000894,,realistic_rating,1408167,Gatlinburg,,52,Gatlinburg,US,4,,,,,,,,,,,,,,,
null,,confidence_buffer,1408273,confidence_buffer,,null,,,,,,,,,,,,,,,,,,
2337,,pt2_unique_rating,1410613,Gatlinburg,,52,,,4,,,,,,,,,,,,,,,
null,,confidence_buffer,1410718,confidence_buffer,,null,,,,,,,,,,,,,,,,,,
4239.600000008941,,pt2_memorable_rating,1414959,Gatlinburg,,52,,,4,,,,,,,,,,,,,,,
null,,confidence_buffer,1415073,confidence_buffer,,null,,,,,,,,,,,,,,,,,,
3072.5,,recognition_phase,1418147,Gatlinburg,,50,,,,,,old,1,0.8163265306122449,,,,,,,,,,
null,,confidence_buffer,1418258,confidence_buffer,,null,,,,,,,,,,,,,,,,,,
null,,thebreak,1418768,break,,null,,,,,,,,,,,,,,,,,,
3768.5999999940395,,realistic_rating,1422539,Cleveland,,52,Cleveland,US,4,,,,,,,,,,,,,,,
null,,confidence_buffer,1422645,confidence_buffer,,null,,,,,,,,,,,,,,,,,,
1111.6000000089407,,pt2_unique_rating,1423759,Cleveland,,52,,,4,,,,,,,,,,,,,,,
null,,confidence_buffer,1423868,confidence_buffer,,null,,,,,,,,,,,,,,,,,,
2086.0999999940395,,pt2_memorable_rating,1425956,Cleveland,,52,,,4,,,,,,,,,,,,,,,
null,,confidence_buffer,1426068,confidence_buffer,,null,,,,,,,,,,,,,,,,,,
1894.5,,recognition_phase,1427965,Cleveland,,51,,,,,,new,1,0.82,,,,,,,,,,
null,,confidence_buffer,1428068,confidence_buffer,,null,,,,,,,,,,,,,,,,,,
null,,thebreak,1428573,break,,null,,,,,,,,,,,,,,,,,,
3308.2999999970198,,realistic_rating,1431883,Hanover,,52,Hanover,US,4,,,,,,,,,,,,,,,
null,,confidence_buffer,1431988,confidence_buffer,,null,,,,,,,,,,,,,,,,,,
1056.9000000059605,,pt2_unique_rating,1433047,Hanover,,52,,,4,,,,,,,,,,,,,,,
null,,confidence_buffer,1433159,confidence_buffer,,null,,,,,,,,,,,,,,,,,,
3605.6000000089407,,pt2_memorable_rating,1436766,Hanover,,52,,,4,,,,,,,,,,,,,,,
null,,confidence_buffer,1436869,confidence_buffer,,null,,,,,,,,,,,,,,,,,,
5933.800000011921,,recognition_phase,1442805,Hanover,,50,,,,,,old,1,0.8235294117647058,,,,,,,,,,
null,,confidence_buffer,1442908,confidence_buffer,,null,,,,,,,,,,,,,,,,,,
null,,thebreak,1443423,break,,null,,,,,,,,,,,,,,,,,,
2104.7000000029802,,realistic_rating,1445518,Lakehaven,,51,Lakehaven,Fictional,3,,,,,,,,,,,,,,,
null,,confidence_buffer,1445620,confidence_buffer,,null,,,,,,,,,,,,,,,,,,
2329,,probe_rating,1447951,probe_rating,,51,,,,3,1,,,,,,,,,,,,,
null,,confidence_buffer,1448056,confidence_buffer,,null,,,,,,,,,,,,,,,,,,
35858.40000000596,,pt2_unique_rating,1483917,Lakehaven,,52,,,4,,,,,,,,,,,,,,,
null,,confidence_buffer,1484021,confidence_buffer,,null,,,,,,,,,,,,,,,,,,
2036,,pt2_memorable_rating,1486058,Lakehaven,,52,,,4,,,,,,,,,,,,,,,
null,,confidence_buffer,1486172,confidence_buffer,,null,,,,,,,,,,,,,,,,,,
5357.9000000059605,,recognition_phase,1491532,Lakehaven,,50,,,,,,old,1,0.8269230769230769,,,,,,,,,,
null,,confidence_buffer,1491635,confidence_buffer,,null,,,,,,,,,,,,,,,,,,
null,,thebreak,1492137,break,,null,,,,,,,,,,,,,,,,,,
3955.7000000029802,,realistic_rating,1496094,Juniper Creek,,51,Juniper Creek,Fictional,3,,,,,,,,,,,,,,,
null,,confidence_buffer,1496202,confidence_buffer,,null,,,,,,,,,,,,,,,,,,
2318.0999999940395,,pt2_unique_rating,1498521,Juniper Creek,,52,,,4,,,,,,,,,,,,,,,
null,,confidence_buffer,1498627,confidence_buffer,,null,,,,,,,,,,,,,,,,,,
2692.7000000029802,,pt2_memorable_rating,1501321,Juniper Creek,,52,,,4,,,,,,,,,,,,,,,
null,,confidence_buffer,1501427,confidence_buffer,,null,,,,,,,,,,,,,,,,,,
2256.300000011921,,recognition_phase,1503685,Juniper Creek,,52,,,,,,new,1,0.8301886792452831,,,,,,,,,,
null,,confidence_buffer,1503798,confidence_buffer,,null,,,,,,,,,,,,,,,,,,
null,,thebreak,1504311,break,,null,,,,,,,,,,,,,,,,,,
2575.9000000059605,,realistic_rating,1506878,Highvale,,51,Highvale,Fictional,3,,,,,,,,,,,,,,,
null,,confidence_buffer,1506981,confidence_buffer,,null,,,,,,,,,,,,,,,,,,
2133.5,,pt2_unique_rating,1509117,Highvale,,51,,,3,,,,,,,,,,,,,,,
null,,confidence_buffer,1509223,confidence_buffer,,null,,,,,,,,,,,,,,,,,,
1974.1000000089407,,pt2_memorable_rating,1511199,Highvale,,52,,,4,,,,,,,,,,,,,,,
null,,confidence_buffer,1511304,confidence_buffer,,null,,,,,,,,,,,,,,,,,,
2898.3999999910593,,recognition_phase,1514205,Highvale,,52,,,,,,new,1,0.8333333333333334,,,,,,,,,,
null,,confidence_buffer,1514309,confidence_buffer,,null,,,,,,,,,,,,,,,,,,
null,,thebreak,1514815,break,,null,,,,,,,,,,,,,,,,,,
3754.7000000029802,,realistic_rating,1518572,Montelake,,51,Montelake,Fictional,3,,,,,,,,,,,,,,,
null,,confidence_buffer,1518674,confidence_buffer,,null,,,,,,,,,,,,,,,,,,
1451.5999999940395,,pt2_unique_rating,1520128,Montelake,,52,,,4,,,,,,,,,,,,,,,
null,,confidence_buffer,1520232,confidence_buffer,,null,,,,,,,,,,,,,,,,,,
2613.9000000059605,,pt2_memorable_rating,1522849,Montelake,,52,,,4,,,,,,,,,,,,,,,
null,,confidence_buffer,1522954,confidence_buffer,,null,,,,,,,,,,,,,,,,,,
2874.9000000059605,,recognition_phase,1525831,Montelake,,51,,,,,,new,0,0.8181818181818182,,,,,,,,,,
null,,confidence_buffer,1525933,confidence_buffer,,null,,,,,,,,,,,,,,,,,,
null,,thebreak,1526435,break,,null,,,,,,,,,,,,,,,,,,
74575.19999998808,,realistic_rating,1600994,Driftwood Bay,,52,Driftwood Bay,Fictional,4,,,,,,,,,,,,,,,
null,,confidence_buffer,1601097,confidence_buffer,,null,,,,,,,,,,,,,,,,,,
1661.5999999940395,,probe_rating,1602760,probe_rating,,53,,,,5,1,,,,,,,,,,,,,
null,,confidence_buffer,1602866,confidence_buffer,,null,,,,,,,,,,,,,,,,,,
2075.7999999970198,,pt2_unique_rating,1604943,Driftwood Bay,,52,,,4,,,,,,,,,,,,,,,
null,,confidence_buffer,1605047,confidence_buffer,,null,,,,,,,,,,,,,,,,,,
2909.800000011921,,pt2_memorable_rating,1607959,Driftwood Bay,,52,,,4,,,,,,,,,,,,,,,
null,,confidence_buffer,1608076,confidence_buffer,,null,,,,,,,,,,,,,,,,,,
3756.2999999970198,,recognition_phase,1611835,Driftwood Bay,,52,,,,,,new,1,0.8214285714285714,,,,,,,,,,
null,,confidence_buffer,1611942,confidence_buffer,,null,,,,,,,,,,,,,,,,,,
null,,thebreak,1612450,break,,null,,,,,,,,,,,,,,,,,,
2853,,realistic_rating,1615305,Hollendale,,52,Hollendale,Fictional,4,,,,,,,,,,,,,,,
null,,confidence_buffer,1615408,confidence_buffer,,null,,,,,,,,,,,,,,,,,,
1533.7000000029802,,pt2_unique_rating,1616944,Hollendale,,52,,,4,,,,,,,,,,,,,,,
null,,confidence_buffer,1617047,confidence_buffer,,null,,,,,,,,,,,,,,,,,,
1487.5999999940395,,pt2_memorable_rating,1618536,Hollendale,,52,,,4,,,,,,,,,,,,,,,
null,,confidence_buffer,1618646,confidence_buffer,,null,,,,,,,,,,,,,,,,,,
4715.9000000059605,,recognition_phase,1623364,Hollendale,,51,,,,,,new,0,0.8070175438596491,,,,,,,,,,
null,,confidence_buffer,1623466,confidence_buffer,,null,,,,,,,,,,,,,,,,,,
null,,thebreak,1623976,break,,null,,,,,,,,,,,,,,,,,,
6366.79999999702,,realistic_rating,1630344,Abilene,,52,Abilene,US,4,,,,,,,,,,,,,,,
null,,confidence_buffer,1630450,confidence_buffer,,null,,,,,,,,,,,,,,,,,,
1797.5999999940395,,pt2_unique_rating,1632250,Abilene,,52,,,4,,,,,,,,,,,,,,,
null,,confidence_buffer,1632354,confidence_buffer,,null,,,,,,,,,,,,,,,,,,
1326.2000000029802,,probe_rating,1633682,probe_rating,,51,,,,3,1,,,,,,,,,,,,,
null,,confidence_buffer,1633784,confidence_buffer,,null,,,,,,,,,,,,,,,,,,
1562.2000000029802,,pt2_memorable_rating,1635348,Abilene,,52,,,4,,,,,,,,,,,,,,,
null,,confidence_buffer,1635455,confidence_buffer,,null,,,,,,,,,,,,,,,,,,
17969.40000000596,,recognition_phase,1653426,Abilene,,51,,,,,,new,0,0.7931034482758621,,,,,,,,,,
null,,confidence_buffer,1653530,confidence_buffer,,null,,,,,,,,,,,,,,,,,,
null,,thebreak,1654036,break,,null,,,,,,,,,,,,,,,,,,
3279.2999999970198,,realistic_rating,1657317,Sisters,,52,Sisters,US,4,,,,,,,,,,,,,,,
null,,confidence_buffer,1657420,confidence_buffer,,null,,,,,,,,,,,,,,,,,,
11956.70000000298,,pt2_unique_rating,1669365,Sisters,,52,,,4,,,,,,,,,,,,,,,
null,,confidence_buffer,1669478,confidence_buffer,,null,,,,,,,,,,,,,,,,,,
2960.2000000029802,,pt2_memorable_rating,1672440,Sisters,,52,,,4,,,,,,,,,,,,,,,
null,,confidence_buffer,1672543,confidence_buffer,,null,,,,,,,,,,,,,,,,,,
4399.600000008941,,recognition_phase,1676945,Sisters,,52,,,,,,new,1,0.7966101694915254,,,,,,,,,,
null,,confidence_buffer,1677057,confidence_buffer,,null,,,,,,,,,,,,,,,,,,
null,,thebreak,1677567,break,,null,,,,,,,,,,,,,,,,,,
2420.7000000029802,,realistic_rating,1679989,Claywater,,52,Claywater,Fictional,4,,,,,,,,,,,,,,,
null,,confidence_buffer,1680092,confidence_buffer,,null,,,,,,,,,,,,,,,,,,
946.3000000119209,,pt2_unique_rating,1681040,Claywater,,52,,,4,,,,,,,,,,,,,,,
null,,confidence_buffer,1681147,confidence_buffer,,null,,,,,,,,,,,,,,,,,,
1628.5999999940395,,pt2_memorable_rating,1682779,Claywater,,52,,,4,,,,,,,,,,,,,,,
null,,confidence_buffer,1682883,confidence_buffer,,null,,,,,,,,,,,,,,,,,,
2517.5999999940395,,probe_rating,1685402,probe_rating,,52,,,,4,1,,,,,,,,,,,,,
null,,confidence_buffer,1685508,confidence_buffer,,null,,,,,,,,,,,,,,,,,,
4752.4000000059605,,recognition_phase,1690263,Claywater,,51,,,,,,new,1,0.8,,,,,,,,,,
null,,confidence_buffer,1690369,confidence_buffer,,null,,,,,,,,,,,,,,,,,,
null,,thebreak,1690882,break,,null,,,,,,,,,,,,,,,,,,
,,survey,1944817,survey-questions,,,,,,,,,,,none,high,nothing,just memorizing some key word,if i have seen or heard about it before,if they are key words familiar words,how the word are constructed ,how they sound,No,Nothing
