rt,responses,trial_type,time_elapsed,stimulus,button_pressed,key_press,name_trial,city_type,rating,probe,probe_accuracy,response,correct,accuracy,problems,smooth,distraction,strategies,familiar,memorable,unique,realistic,similar,comments
16877,{worker_id:5ec195df3f2aec276ff0bf33},id_enter,16884,,,,,,,,,,,,,,,,,,,,,
35582.10000002384,,fullscreen,52478,fullscreen,0,,,,,,,,,,,,,,,,,,,
7681.899999976158,,intro_0,60164,instruct,,32,,,,,,,,,,,,,,,,,,
8091.199999928474,,intro_1,68257,instruct,,32,,,,,,,,,,,,,,,,,,
5697.200000047684,,intro_2,73956,instruct,,32,,,,,,,,,,,,,,,,,,
null,,instruct_dir_4,75459,instruct,,null,,,,,,,,,,,,,,,,,,
null,,thebreak,75962,break,,null,,,,,,,,,,,,,,,,,,
10304.700000047684,,familiar_rating,86269,Newport,,53,Newport,US,5,,,,,,,,,,,,,,,
null,,confidence_buffer,86372,confidence_buffer,,null,,,,,,,,,,,,,,,,,,
4672.599999904633,,unique_rating,91047,Newport,,49,,,1,,,,,,,,,,,,,,,
null,,confidence_buffer,91150,confidence_buffer,,null,,,,,,,,,,,,,,,,,,
4332.799999952316,,memorable_rating,95485,Newport,,53,,,5,,,,,,,,,,,,,,,
null,,confidence_buffer,95587,confidence_buffer,,null,,,,,,,,,,,,,,,,,,
null,,thebreak,96089,break,,null,,,,,,,,,,,,,,,,,,
3852.2999999523163,,familiar_rating,99944,Lakehaven,,49,Lakehaven,Fictional,1,,,,,,,,,,,,,,,
null,,confidence_buffer,100046,confidence_buffer,,null,,,,,,,,,,,,,,,,,,
7618.5,,unique_rating,107666,Lakehaven,,52,,,4,,,,,,,,,,,,,,,
null,,confidence_buffer,107768,confidence_buffer,,null,,,,,,,,,,,,,,,,,,
3286.5,,memorable_rating,111057,Lakehaven,,50,,,2,,,,,,,,,,,,,,,
null,,confidence_buffer,111159,confidence_buffer,,null,,,,,,,,,,,,,,,,,,
null,,thebreak,111660,break,,null,,,,,,,,,,,,,,,,,,
3355.8000000715256,,familiar_rating,115018,Albuquerque,,53,Albuquerque,US,5,,,,,,,,,,,,,,,
null,,confidence_buffer,115120,confidence_buffer,,null,,,,,,,,,,,,,,,,,,
3631.8000000715256,,unique_rating,118754,Albuquerque,,51,,,3,,,,,,,,,,,,,,,
null,,confidence_buffer,118857,confidence_buffer,,null,,,,,,,,,,,,,,,,,,
3478.2999999523163,,memorable_rating,122337,Albuquerque,,52,,,4,,,,,,,,,,,,,,,
null,,confidence_buffer,122439,confidence_buffer,,null,,,,,,,,,,,,,,,,,,
null,,thebreak,122941,break,,null,,,,,,,,,,,,,,,,,,
4046.0999999046326,,familiar_rating,126989,Crestwood,,51,Crestwood,Fictional,3,,,,,,,,,,,,,,,
null,,confidence_buffer,127092,confidence_buffer,,null,,,,,,,,,,,,,,,,,,
3231.0999999046326,,unique_rating,130326,Crestwood,,51,,,3,,,,,,,,,,,,,,,
null,,confidence_buffer,130428,confidence_buffer,,null,,,,,,,,,,,,,,,,,,
1980.3999999761581,,memorable_rating,132410,Crestwood,,51,,,3,,,,,,,,,,,,,,,
null,,confidence_buffer,132512,confidence_buffer,,null,,,,,,,,,,,,,,,,,,
null,,thebreak,133013,break,,null,,,,,,,,,,,,,,,,,,
3003,,familiar_rating,136018,New Hope,,51,New Hope,US,3,,,,,,,,,,,,,,,
null,,confidence_buffer,136121,confidence_buffer,,null,,,,,,,,,,,,,,,,,,
5213.200000047684,,unique_rating,141336,New Hope,,50,,,2,,,,,,,,,,,,,,,
null,,confidence_buffer,141438,confidence_buffer,,null,,,,,,,,,,,,,,,,,,
1721.3999999761581,,memorable_rating,143161,New Hope,,50,,,2,,,,,,,,,,,,,,,
null,,confidence_buffer,143263,confidence_buffer,,null,,,,,,,,,,,,,,,,,,
null,,thebreak,143765,break,,null,,,,,,,,,,,,,,,,,,
3410.7000000476837,,familiar_rating,147177,Stonebrook,,50,Stonebrook,Fictional,2,,,,,,,,,,,,,,,
null,,confidence_buffer,147280,confidence_buffer,,null,,,,,,,,,,,,,,,,,,
1575,,unique_rating,148856,Stonebrook,,50,,,2,,,,,,,,,,,,,,,
null,,confidence_buffer,148958,confidence_buffer,,null,,,,,,,,,,,,,,,,,,
1268.8999999761581,,memorable_rating,150229,Stonebrook,,50,,,2,,,,,,,,,,,,,,,
null,,confidence_buffer,150331,confidence_buffer,,null,,,,,,,,,,,,,,,,,,
null,,thebreak,150832,break,,null,,,,,,,,,,,,,,,,,,
1882.3000000715256,,familiar_rating,152717,Baymarsh,,49,Baymarsh,Fictional,1,,,,,,,,,,,,,,,
null,,confidence_buffer,152819,confidence_buffer,,null,,,,,,,,,,,,,,,,,,
5605.5,,unique_rating,158429,Baymarsh,,52,,,4,,,,,,,,,,,,,,,
null,,confidence_buffer,158531,confidence_buffer,,null,,,,,,,,,,,,,,,,,,
3749.899999976158,,memorable_rating,162284,Baymarsh,,49,,,1,,,,,,,,,,,,,,,
null,,confidence_buffer,162386,confidence_buffer,,null,,,,,,,,,,,,,,,,,,
null,,thebreak,162888,break,,null,,,,,,,,,,,,,,,,,,
2651.1999999284744,,familiar_rating,165541,Maplehurst,,49,Maplehurst,Fictional,1,,,,,,,,,,,,,,,
null,,confidence_buffer,165644,confidence_buffer,,null,,,,,,,,,,,,,,,,,,
3752.399999976158,,unique_rating,169398,Maplehurst,,51,,,3,,,,,,,,,,,,,,,
null,,confidence_buffer,169501,confidence_buffer,,null,,,,,,,,,,,,,,,,,,
2520.600000023842,,memorable_rating,172023,Maplehurst,,51,,,3,,,,,,,,,,,,,,,
null,,confidence_buffer,172126,confidence_buffer,,null,,,,,,,,,,,,,,,,,,
null,,thebreak,172628,break,,null,,,,,,,,,,,,,,,,,,
3342.3000000715256,,familiar_rating,175972,Cleveland,,53,Cleveland,US,5,,,,,,,,,,,,,,,
null,,confidence_buffer,176074,confidence_buffer,,null,,,,,,,,,,,,,,,,,,
4656.299999952316,,unique_rating,180732,Cleveland,,49,,,1,,,,,,,,,,,,,,,
null,,confidence_buffer,180834,confidence_buffer,,null,,,,,,,,,,,,,,,,,,
3185.100000023842,,memorable_rating,184021,Cleveland,,52,,,4,,,,,,,,,,,,,,,
null,,confidence_buffer,184122,confidence_buffer,,null,,,,,,,,,,,,,,,,,,
null,,thebreak,184624,break,,null,,,,,,,,,,,,,,,,,,
5125.799999952316,,familiar_rating,189752,Duck,,49,Duck,US,1,,,,,,,,,,,,,,,
null,,confidence_buffer,189854,confidence_buffer,,null,,,,,,,,,,,,,,,,,,
3882.7000000476837,,unique_rating,193739,Duck,,53,,,5,,,,,,,,,,,,,,,
null,,confidence_buffer,193841,confidence_buffer,,null,,,,,,,,,,,,,,,,,,
2454.5,,memorable_rating,196298,Duck,,53,,,5,,,,,,,,,,,,,,,
null,,confidence_buffer,196399,confidence_buffer,,null,,,,,,,,,,,,,,,,,,
null,,thebreak,196901,break,,null,,,,,,,,,,,,,,,,,,
2721,,familiar_rating,199624,Hawthorne Bluffs,,49,Hawthorne Bluffs,Fictional,1,,,,,,,,,,,,,,,
null,,confidence_buffer,199726,confidence_buffer,,null,,,,,,,,,,,,,,,,,,
3498.3000000715256,,unique_rating,203227,Hawthorne Bluffs,,53,,,5,,,,,,,,,,,,,,,
null,,confidence_buffer,203329,confidence_buffer,,null,,,,,,,,,,,,,,,,,,
1996,,memorable_rating,205327,Hawthorne Bluffs,,53,,,5,,,,,,,,,,,,,,,
null,,confidence_buffer,205429,confidence_buffer,,null,,,,,,,,,,,,,,,,,,
null,,thebreak,205931,break,,null,,,,,,,,,,,,,,,,,,
1860.7999999523163,,familiar_rating,207794,Juniper Creek,,49,Juniper Creek,Fictional,1,,,,,,,,,,,,,,,
null,,confidence_buffer,207897,confidence_buffer,,null,,,,,,,,,,,,,,,,,,
2312.5,,unique_rating,210211,Juniper Creek,,51,,,3,,,,,,,,,,,,,,,
null,,confidence_buffer,210314,confidence_buffer,,null,,,,,,,,,,,,,,,,,,
2079.100000023842,,memorable_rating,212394,Juniper Creek,,51,,,3,,,,,,,,,,,,,,,
null,,confidence_buffer,212496,confidence_buffer,,null,,,,,,,,,,,,,,,,,,
null,,thebreak,212998,break,,null,,,,,,,,,,,,,,,,,,
4706.399999976158,,familiar_rating,217706,Driftwood Bay,,49,Driftwood Bay,Fictional,1,,,,,,,,,,,,,,,
null,,confidence_buffer,217808,confidence_buffer,,null,,,,,,,,,,,,,,,,,,
2315.7999999523163,,unique_rating,220125,Driftwood Bay,,51,,,3,,,,,,,,,,,,,,,
null,,confidence_buffer,220227,confidence_buffer,,null,,,,,,,,,,,,,,,,,,
2300.8000000715256,,memorable_rating,222530,Driftwood Bay,,51,,,3,,,,,,,,,,,,,,,
null,,confidence_buffer,222632,confidence_buffer,,null,,,,,,,,,,,,,,,,,,
null,,thebreak,223134,break,,null,,,,,,,,,,,,,,,,,,
5310.5,,familiar_rating,228446,Alliance,,50,Alliance,US,2,,,,,,,,,,,,,,,
null,,confidence_buffer,228549,confidence_buffer,,null,,,,,,,,,,,,,,,,,,
2293.600000023842,,probe_rating,230845,probe_rating,,53,,,,5,1,,,,,,,,,,,,,
null,,confidence_buffer,230947,confidence_buffer,,null,,,,,,,,,,,,,,,,,,
3583.100000023842,,unique_rating,234533,Alliance,,50,,,2,,,,,,,,,,,,,,,
null,,confidence_buffer,234635,confidence_buffer,,null,,,,,,,,,,,,,,,,,,
3358.9000000953674,,memorable_rating,237996,Alliance,,50,,,2,,,,,,,,,,,,,,,
null,,confidence_buffer,238099,confidence_buffer,,null,,,,,,,,,,,,,,,,,,
null,,thebreak,238600,break,,null,,,,,,,,,,,,,,,,,,
3700.8000000715256,,familiar_rating,242303,Maravilla Springs,,49,Maravilla Springs,Fictional,1,,,,,,,,,,,,,,,
null,,confidence_buffer,242406,confidence_buffer,,null,,,,,,,,,,,,,,,,,,
3353.7999999523163,,unique_rating,245761,Maravilla Springs,,52,,,4,,,,,,,,,,,,,,,
null,,confidence_buffer,245863,confidence_buffer,,null,,,,,,,,,,,,,,,,,,
2498.100000023842,,memorable_rating,248366,Maravilla Springs,,51,,,3,,,,,,,,,,,,,,,
null,,confidence_buffer,248468,confidence_buffer,,null,,,,,,,,,,,,,,,,,,
null,,thebreak,248970,break,,null,,,,,,,,,,,,,,,,,,
4349,,familiar_rating,253320,Barnard,,49,Barnard,US,1,,,,,,,,,,,,,,,
null,,confidence_buffer,253422,confidence_buffer,,null,,,,,,,,,,,,,,,,,,
4862.5,,unique_rating,258286,Barnard,,51,,,3,,,,,,,,,,,,,,,
null,,confidence_buffer,258388,confidence_buffer,,null,,,,,,,,,,,,,,,,,,
2323.899999976158,,memorable_rating,260713,Barnard,,50,,,2,,,,,,,,,,,,,,,
null,,confidence_buffer,260815,confidence_buffer,,null,,,,,,,,,,,,,,,,,,
null,,thebreak,261316,break,,null,,,,,,,,,,,,,,,,,,
2925.7999999523163,,familiar_rating,264244,West Palm Beach,,53,West Palm Beach,US,5,,,,,,,,,,,,,,,
null,,confidence_buffer,264346,confidence_buffer,,null,,,,,,,,,,,,,,,,,,
2060.5,,probe_rating,266408,probe_rating,,53,,,,5,1,,,,,,,,,,,,,
null,,confidence_buffer,266510,confidence_buffer,,null,,,,,,,,,,,,,,,,,,
4454,,unique_rating,270966,West Palm Beach,,49,,,1,,,,,,,,,,,,,,,
null,,confidence_buffer,271068,confidence_buffer,,null,,,,,,,,,,,,,,,,,,
3876.6999999284744,,memorable_rating,274946,West Palm Beach,,52,,,4,,,,,,,,,,,,,,,
null,,confidence_buffer,275048,confidence_buffer,,null,,,,,,,,,,,,,,,,,,
null,,thebreak,275550,break,,null,,,,,,,,,,,,,,,,,,
2356.2000000476837,,familiar_rating,277908,Custer,,49,Custer,US,1,,,,,,,,,,,,,,,
null,,confidence_buffer,278010,confidence_buffer,,null,,,,,,,,,,,,,,,,,,
2398.9000000953674,,unique_rating,280412,Custer,,50,,,2,,,,,,,,,,,,,,,
null,,confidence_buffer,280514,confidence_buffer,,null,,,,,,,,,,,,,,,,,,
1892,,memorable_rating,282408,Custer,,50,,,2,,,,,,,,,,,,,,,
null,,confidence_buffer,282510,confidence_buffer,,null,,,,,,,,,,,,,,,,,,
null,,thebreak,283011,break,,null,,,,,,,,,,,,,,,,,,
5024.300000071526,,familiar_rating,288037,Assateague Island,,51,Assateague Island,US,3,,,,,,,,,,,,,,,
null,,confidence_buffer,288139,confidence_buffer,,null,,,,,,,,,,,,,,,,,,
3027.7999999523163,,unique_rating,291169,Assateague Island,,51,,,3,,,,,,,,,,,,,,,
null,,confidence_buffer,291271,confidence_buffer,,null,,,,,,,,,,,,,,,,,,
2031.2000000476837,,memorable_rating,293304,Assateague Island,,51,,,3,,,,,,,,,,,,,,,
null,,confidence_buffer,293406,confidence_buffer,,null,,,,,,,,,,,,,,,,,,
null,,thebreak,293907,break,,null,,,,,,,,,,,,,,,,,,
2403.600000023842,,familiar_rating,296313,Coralridge,,49,Coralridge,Fictional,1,,,,,,,,,,,,,,,
null,,confidence_buffer,296415,confidence_buffer,,null,,,,,,,,,,,,,,,,,,
3002.5,,unique_rating,299419,Coralridge,,52,,,4,,,,,,,,,,,,,,,
null,,confidence_buffer,299521,confidence_buffer,,null,,,,,,,,,,,,,,,,,,
2910.100000023842,,memorable_rating,302434,Coralridge,,50,,,2,,,,,,,,,,,,,,,
null,,confidence_buffer,302535,confidence_buffer,,null,,,,,,,,,,,,,,,,,,
null,,thebreak,303037,break,,null,,,,,,,,,,,,,,,,,,
1983.1000000238419,,familiar_rating,305022,Sunmere,,49,Sunmere,Fictional,1,,,,,,,,,,,,,,,
null,,confidence_buffer,305123,confidence_buffer,,null,,,,,,,,,,,,,,,,,,
3065.600000023842,,unique_rating,308191,Sunmere,,52,,,4,,,,,,,,,,,,,,,
null,,confidence_buffer,308293,confidence_buffer,,null,,,,,,,,,,,,,,,,,,
2064,,probe_rating,310359,probe_rating,,53,,,,5,1,,,,,,,,,,,,,
null,,confidence_buffer,310461,confidence_buffer,,null,,,,,,,,,,,,,,,,,,
3091.5,,memorable_rating,313554,Sunmere,,50,,,2,,,,,,,,,,,,,,,
null,,confidence_buffer,313656,confidence_buffer,,null,,,,,,,,,,,,,,,,,,
null,,thebreak,314158,break,,null,,,,,,,,,,,,,,,,,,
4822.300000071526,,familiar_rating,318982,Peoria,,53,Peoria,US,5,,,,,,,,,,,,,,,
null,,confidence_buffer,319085,confidence_buffer,,null,,,,,,,,,,,,,,,,,,
4103,,unique_rating,323189,Peoria,,53,,,5,,,,,,,,,,,,,,,
null,,confidence_buffer,323291,confidence_buffer,,null,,,,,,,,,,,,,,,,,,
1792.6000000238419,,memorable_rating,325086,Peoria,,53,,,5,,,,,,,,,,,,,,,
null,,confidence_buffer,325188,confidence_buffer,,null,,,,,,,,,,,,,,,,,,
2605.600000023842,,probe_rating,327795,probe_rating,,53,,,,5,1,,,,,,,,,,,,,
null,,confidence_buffer,327898,confidence_buffer,,null,,,,,,,,,,,,,,,,,,
null,,thebreak,328399,break,,null,,,,,,,,,,,,,,,,,,
2822.4000000953674,,familiar_rating,331225,Riverlyn,,49,Riverlyn,Fictional,1,,,,,,,,,,,,,,,
null,,confidence_buffer,331327,confidence_buffer,,null,,,,,,,,,,,,,,,,,,
3332.399999976158,,unique_rating,334661,Riverlyn,,52,,,4,,,,,,,,,,,,,,,
null,,confidence_buffer,334763,confidence_buffer,,null,,,,,,,,,,,,,,,,,,
2264.6999999284744,,memorable_rating,337030,Riverlyn,,50,,,2,,,,,,,,,,,,,,,
null,,confidence_buffer,337133,confidence_buffer,,null,,,,,,,,,,,,,,,,,,
null,,thebreak,337634,break,,null,,,,,,,,,,,,,,,,,,
2048.1999999284744,,familiar_rating,339684,Hollendale,,49,Hollendale,Fictional,1,,,,,,,,,,,,,,,
null,,confidence_buffer,339786,confidence_buffer,,null,,,,,,,,,,,,,,,,,,
2221,,unique_rating,342009,Hollendale,,50,,,2,,,,,,,,,,,,,,,
null,,confidence_buffer,342110,confidence_buffer,,null,,,,,,,,,,,,,,,,,,
1676,,memorable_rating,343788,Hollendale,,50,,,2,,,,,,,,,,,,,,,
null,,confidence_buffer,343890,confidence_buffer,,null,,,,,,,,,,,,,,,,,,
null,,thebreak,344391,break,,null,,,,,,,,,,,,,,,,,,
2901.100000023842,,familiar_rating,347294,Bar Harbor,,53,Bar Harbor,US,5,,,,,,,,,,,,,,,
null,,confidence_buffer,347396,confidence_buffer,,null,,,,,,,,,,,,,,,,,,
2328.7000000476837,,unique_rating,349727,Bar Harbor,,51,,,3,,,,,,,,,,,,,,,
null,,confidence_buffer,349829,confidence_buffer,,null,,,,,,,,,,,,,,,,,,
2384.100000023842,,memorable_rating,352216,Bar Harbor,,52,,,4,,,,,,,,,,,,,,,
null,,confidence_buffer,352317,confidence_buffer,,null,,,,,,,,,,,,,,,,,,
null,,thebreak,352819,break,,null,,,,,,,,,,,,,,,,,,
1646.2000000476837,,familiar_rating,354467,Ravenport,,49,Ravenport,Fictional,1,,,,,,,,,,,,,,,
null,,confidence_buffer,354570,confidence_buffer,,null,,,,,,,,,,,,,,,,,,
6603.399999976158,,unique_rating,361176,Ravenport,,51,,,3,,,,,,,,,,,,,,,
null,,confidence_buffer,361278,confidence_buffer,,null,,,,,,,,,,,,,,,,,,
1721.9000000953674,,memorable_rating,363002,Ravenport,,51,,,3,,,,,,,,,,,,,,,
null,,confidence_buffer,363104,confidence_buffer,,null,,,,,,,,,,,,,,,,,,
null,,thebreak,363606,break,,null,,,,,,,,,,,,,,,,,,
2448.100000023842,,familiar_rating,366056,Livingston,,49,Livingston,US,1,,,,,,,,,,,,,,,
null,,confidence_buffer,366158,confidence_buffer,,null,,,,,,,,,,,,,,,,,,
4031,,unique_rating,370191,Livingston,,50,,,2,,,,,,,,,,,,,,,
null,,confidence_buffer,370293,confidence_buffer,,null,,,,,,,,,,,,,,,,,,
1843.8000000715256,,memorable_rating,372138,Livingston,,50,,,2,,,,,,,,,,,,,,,
null,,confidence_buffer,372240,confidence_buffer,,null,,,,,,,,,,,,,,,,,,
null,,thebreak,372742,break,,null,,,,,,,,,,,,,,,,,,
2521.899999976158,,familiar_rating,375266,Boulder,,53,Boulder,US,5,,,,,,,,,,,,,,,
null,,confidence_buffer,375369,confidence_buffer,,null,,,,,,,,,,,,,,,,,,
1669.4000000953674,,probe_rating,377040,probe_rating,,52,,,,4,1,,,,,,,,,,,,,
null,,confidence_buffer,377142,confidence_buffer,,null,,,,,,,,,,,,,,,,,,
2881.2000000476837,,unique_rating,380024,Boulder,,50,,,2,,,,,,,,,,,,,,,
null,,confidence_buffer,380126,confidence_buffer,,null,,,,,,,,,,,,,,,,,,
4354.600000023842,,memorable_rating,384482,Boulder,,52,,,4,,,,,,,,,,,,,,,
null,,confidence_buffer,384584,confidence_buffer,,null,,,,,,,,,,,,,,,,,,
null,,thebreak,385085,break,,null,,,,,,,,,,,,,,,,,,
3699.3000000715256,,familiar_rating,388787,East Ladera,,52,East Ladera,Fictional,4,,,,,,,,,,,,,,,
null,,confidence_buffer,388889,confidence_buffer,,null,,,,,,,,,,,,,,,,,,
3203,,unique_rating,392094,East Ladera,,52,,,4,,,,,,,,,,,,,,,
null,,confidence_buffer,392195,confidence_buffer,,null,,,,,,,,,,,,,,,,,,
1834.5,,memorable_rating,394032,East Ladera,,52,,,4,,,,,,,,,,,,,,,
null,,confidence_buffer,394133,confidence_buffer,,null,,,,,,,,,,,,,,,,,,
null,,thebreak,394635,break,,null,,,,,,,,,,,,,,,,,,
2983.399999976158,,familiar_rating,397621,Berkeley Springs,,49,Berkeley Springs,US,1,,,,,,,,,,,,,,,
null,,confidence_buffer,397723,confidence_buffer,,null,,,,,,,,,,,,,,,,,,
3896.899999976158,,unique_rating,401623,Berkeley Springs,,52,,,4,,,,,,,,,,,,,,,
null,,confidence_buffer,401725,confidence_buffer,,null,,,,,,,,,,,,,,,,,,
2074.3000000715256,,probe_rating,403801,probe_rating,,49,,,,1,1,,,,,,,,,,,,,
null,,confidence_buffer,403903,confidence_buffer,,null,,,,,,,,,,,,,,,,,,
3779.2000000476837,,memorable_rating,407684,Berkeley Springs,,51,,,3,,,,,,,,,,,,,,,
null,,confidence_buffer,407785,confidence_buffer,,null,,,,,,,,,,,,,,,,,,
null,,thebreak,408287,break,,null,,,,,,,,,,,,,,,,,,
6766.299999952316,,intro_0,415055,instruct,,32,,,,,,,,,,,,,,,,,,
7619.300000071526,,intro_1,422676,instruct,,32,,,,,,,,,,,,,,,,,,
20427.400000095367,,intro_2,443104,instruct,,32,,,,,,,,,,,,,,,,,,
null,,instruct_dir_4,444606,instruct,,null,,,,,,,,,,,,,,,,,,
3853.2999999523163,,realistic_rating,448461,Hawthorne Bluffs,,49,Hawthorne Bluffs,Fictional,1,,,,,,,,,,,,,,,
null,,confidence_buffer,448564,confidence_buffer,,null,,,,,,,,,,,,,,,,,,
11866.799999952316,,pt2_unique_rating,460433,Hawthorne Bluffs,,53,,,5,,,,,,,,,,,,,,,
null,,confidence_buffer,460535,confidence_buffer,,null,,,,,,,,,,,,,,,,,,
2200,,probe_rating,462737,probe_rating,,49,,,,1,1,,,,,,,,,,,,,
null,,confidence_buffer,462840,confidence_buffer,,null,,,,,,,,,,,,,,,,,,
3865.2999999523163,,pt2_memorable_rating,466707,Hawthorne Bluffs,,51,,,3,,,,,,,,,,,,,,,
null,,confidence_buffer,466809,confidence_buffer,,null,,,,,,,,,,,,,,,,,,
3983.100000023842,,recognition_phase,470794,Hawthorne Bluffs,,49,,,,,,old,1,1,,,,,,,,,,
null,,confidence_buffer,470896,confidence_buffer,,null,,,,,,,,,,,,,,,,,,
null,,thebreak,471397,break,,null,,,,,,,,,,,,,,,,,,
7212.700000047684,,realistic_rating,478611,East Ladera,,53,East Ladera,Fictional,5,,,,,,,,,,,,,,,
null,,confidence_buffer,478714,confidence_buffer,,null,,,,,,,,,,,,,,,,,,
3213.3000000715256,,pt2_unique_rating,481928,East Ladera,,53,,,5,,,,,,,,,,,,,,,
null,,confidence_buffer,482030,confidence_buffer,,null,,,,,,,,,,,,,,,,,,
1401.1999999284744,,pt2_memorable_rating,483435,East Ladera,,53,,,5,,,,,,,,,,,,,,,
null,,confidence_buffer,483537,confidence_buffer,,null,,,,,,,,,,,,,,,,,,
1885.7999999523163,,recognition_phase,485426,East Ladera,,49,,,,,,old,1,1,,,,,,,,,,
null,,confidence_buffer,485528,confidence_buffer,,null,,,,,,,,,,,,,,,,,,
null,,thebreak,486029,break,,null,,,,,,,,,,,,,,,,,,
5139.599999904633,,realistic_rating,491171,Shreveport,,53,Shreveport,US,5,,,,,,,,,,,,,,,
null,,confidence_buffer,491273,confidence_buffer,,null,,,,,,,,,,,,,,,,,,
2440.2999999523163,,pt2_unique_rating,493715,Shreveport,,53,,,5,,,,,,,,,,,,,,,
null,,confidence_buffer,493817,confidence_buffer,,null,,,,,,,,,,,,,,,,,,
1254.5,,pt2_memorable_rating,495074,Shreveport,,53,,,5,,,,,,,,,,,,,,,
null,,confidence_buffer,495179,confidence_buffer,,null,,,,,,,,,,,,,,,,,,
2195.399999976158,,probe_rating,497376,probe_rating,,52,,,,4,1,,,,,,,,,,,,,
null,,confidence_buffer,497479,confidence_buffer,,null,,,,,,,,,,,,,,,,,,
3884.5,,recognition_phase,501365,Shreveport,,52,,,,,,new,1,1,,,,,,,,,,
null,,confidence_buffer,501467,confidence_buffer,,null,,,,,,,,,,,,,,,,,,
null,,thebreak,501968,break,,null,,,,,,,,,,,,,,,,,,
6051.5,,realistic_rating,508022,Ravenport,,53,Ravenport,Fictional,5,,,,,,,,,,,,,,,
null,,confidence_buffer,508125,confidence_buffer,,null,,,,,,,,,,,,,,,,,,
4084.5,,pt2_unique_rating,512211,Ravenport,,51,,,3,,,,,,,,,,,,,,,
null,,confidence_buffer,512313,confidence_buffer,,null,,,,,,,,,,,,,,,,,,
1997.3000000715256,,pt2_memorable_rating,514315,Ravenport,,51,,,3,,,,,,,,,,,,,,,
null,,confidence_buffer,514417,confidence_buffer,,null,,,,,,,,,,,,,,,,,,
4155.100000023842,,recognition_phase,518574,Ravenport,,49,,,,,,old,1,1,,,,,,,,,,
null,,confidence_buffer,518676,confidence_buffer,,null,,,,,,,,,,,,,,,,,,
null,,thebreak,519178,break,,null,,,,,,,,,,,,,,,,,,
4100.199999928474,,realistic_rating,523280,Crestwood,,53,Crestwood,Fictional,5,,,,,,,,,,,,,,,
null,,confidence_buffer,523381,confidence_buffer,,null,,,,,,,,,,,,,,,,,,
3256.8000000715256,,pt2_unique_rating,526639,Crestwood,,51,,,3,,,,,,,,,,,,,,,
null,,confidence_buffer,526741,confidence_buffer,,null,,,,,,,,,,,,,,,,,,
2362.9000000953674,,pt2_memorable_rating,529106,Crestwood,,51,,,3,,,,,,,,,,,,,,,
null,,confidence_buffer,529208,confidence_buffer,,null,,,,,,,,,,,,,,,,,,
2246,,recognition_phase,531457,Crestwood,,49,,,,,,old,1,1,,,,,,,,,,
null,,confidence_buffer,531559,confidence_buffer,,null,,,,,,,,,,,,,,,,,,
null,,thebreak,532061,break,,null,,,,,,,,,,,,,,,,,,
3269.8000000715256,,realistic_rating,535333,Sitka,,53,Sitka,US,5,,,,,,,,,,,,,,,
null,,confidence_buffer,535436,confidence_buffer,,null,,,,,,,,,,,,,,,,,,
3340.7999999523163,,pt2_unique_rating,538779,Sitka,,52,,,4,,,,,,,,,,,,,,,
null,,confidence_buffer,538880,confidence_buffer,,null,,,,,,,,,,,,,,,,,,
2450.4000000953674,,pt2_memorable_rating,541333,Sitka,,52,,,4,,,,,,,,,,,,,,,
null,,confidence_buffer,541435,confidence_buffer,,null,,,,,,,,,,,,,,,,,,
4184.100000023842,,recognition_phase,545620,Sitka,,52,,,,,,new,1,1,,,,,,,,,,
null,,confidence_buffer,545723,confidence_buffer,,null,,,,,,,,,,,,,,,,,,
null,,thebreak,546225,break,,null,,,,,,,,,,,,,,,,,,
4153.400000095367,,realistic_rating,550381,Clearbrook,,53,Clearbrook,Fictional,5,,,,,,,,,,,,,,,
null,,confidence_buffer,550483,confidence_buffer,,null,,,,,,,,,,,,,,,,,,
4711.199999928474,,pt2_unique_rating,555196,Clearbrook,,51,,,3,,,,,,,,,,,,,,,
null,,confidence_buffer,555298,confidence_buffer,,null,,,,,,,,,,,,,,,,,,
3242.600000023842,,pt2_memorable_rating,558543,Clearbrook,,51,,,3,,,,,,,,,,,,,,,
null,,confidence_buffer,558645,confidence_buffer,,null,,,,,,,,,,,,,,,,,,
4604.200000047684,,recognition_phase,563251,Clearbrook,,50,,,,,,old,0,0.8571428571428571,,,,,,,,,,
null,,confidence_buffer,563353,confidence_buffer,,null,,,,,,,,,,,,,,,,,,
null,,thebreak,563855,break,,null,,,,,,,,,,,,,,,,,,
5116.800000071526,,realistic_rating,568973,Tamarisk Hills,,52,Tamarisk Hills,Fictional,4,,,,,,,,,,,,,,,
null,,confidence_buffer,569076,confidence_buffer,,null,,,,,,,,,,,,,,,,,,
2000.2000000476837,,pt2_unique_rating,571078,Tamarisk Hills,,52,,,4,,,,,,,,,,,,,,,
null,,confidence_buffer,571180,confidence_buffer,,null,,,,,,,,,,,,,,,,,,
1843.1000000238419,,pt2_memorable_rating,573025,Tamarisk Hills,,52,,,4,,,,,,,,,,,,,,,
null,,confidence_buffer,573127,confidence_buffer,,null,,,,,,,,,,,,,,,,,,
3363.100000023842,,recognition_phase,576492,Tamarisk Hills,,51,,,,,,new,1,0.875,,,,,,,,,,
null,,confidence_buffer,576594,confidence_buffer,,null,,,,,,,,,,,,,,,,,,
null,,thebreak,577095,break,,null,,,,,,,,,,,,,,,,,,
3937.2999999523163,,realistic_rating,581035,Huntsville,,53,Huntsville,US,5,,,,,,,,,,,,,,,
null,,confidence_buffer,581138,confidence_buffer,,null,,,,,,,,,,,,,,,,,,
2286.899999976158,,pt2_unique_rating,583427,Huntsville,,52,,,4,,,,,,,,,,,,,,,
null,,confidence_buffer,583528,confidence_buffer,,null,,,,,,,,,,,,,,,,,,
3712.2000000476837,,pt2_memorable_rating,587242,Huntsville,,52,,,4,,,,,,,,,,,,,,,
null,,confidence_buffer,587344,confidence_buffer,,null,,,,,,,,,,,,,,,,,,
3288.600000023842,,recognition_phase,590635,Huntsville,,49,,,,,,old,0,0.7777777777777778,,,,,,,,,,
null,,confidence_buffer,590737,confidence_buffer,,null,,,,,,,,,,,,,,,,,,
null,,thebreak,591239,break,,null,,,,,,,,,,,,,,,,,,
4993.900000095367,,realistic_rating,596235,Riverlyn,,52,Riverlyn,Fictional,4,,,,,,,,,,,,,,,
null,,confidence_buffer,596338,confidence_buffer,,null,,,,,,,,,,,,,,,,,,
10610,,pt2_unique_rating,606949,Riverlyn,,50,,,2,,,,,,,,,,,,,,,
null,,confidence_buffer,607051,confidence_buffer,,null,,,,,,,,,,,,,,,,,,
1960.7999999523163,,pt2_memorable_rating,609015,Riverlyn,,50,,,2,,,,,,,,,,,,,,,
null,,confidence_buffer,609117,confidence_buffer,,null,,,,,,,,,,,,,,,,,,
3203,,recognition_phase,612322,Riverlyn,,49,,,,,,old,1,0.8,,,,,,,,,,
null,,confidence_buffer,612425,confidence_buffer,,null,,,,,,,,,,,,,,,,,,
null,,thebreak,612926,break,,null,,,,,,,,,,,,,,,,,,
3900.1999999284744,,realistic_rating,616829,Watkins Glen,,53,Watkins Glen,US,5,,,,,,,,,,,,,,,
null,,confidence_buffer,616931,confidence_buffer,,null,,,,,,,,,,,,,,,,,,
2846.6999999284744,,pt2_unique_rating,619779,Watkins Glen,,52,,,4,,,,,,,,,,,,,,,
null,,confidence_buffer,619882,confidence_buffer,,null,,,,,,,,,,,,,,,,,,
4971.399999976158,,pt2_memorable_rating,624855,Watkins Glen,,53,,,5,,,,,,,,,,,,,,,
null,,confidence_buffer,624957,confidence_buffer,,null,,,,,,,,,,,,,,,,,,
2750,,recognition_phase,627709,Watkins Glen,,50,,,,,,old,0,0.7272727272727273,,,,,,,,,,
null,,confidence_buffer,627811,confidence_buffer,,null,,,,,,,,,,,,,,,,,,
null,,thebreak,628313,break,,null,,,,,,,,,,,,,,,,,,
2914.3000000715256,,realistic_rating,631230,Hollendale,,53,Hollendale,Fictional,5,,,,,,,,,,,,,,,
null,,confidence_buffer,631332,confidence_buffer,,null,,,,,,,,,,,,,,,,,,
1863,,probe_rating,633197,probe_rating,,51,,,,3,1,,,,,,,,,,,,,
null,,confidence_buffer,633299,confidence_buffer,,null,,,,,,,,,,,,,,,,,,
3095.2000000476837,,pt2_unique_rating,636397,Hollendale,,52,,,4,,,,,,,,,,,,,,,
null,,confidence_buffer,636499,confidence_buffer,,null,,,,,,,,,,,,,,,,,,
1793.7000000476837,,pt2_memorable_rating,638294,Hollendale,,52,,,4,,,,,,,,,,,,,,,
null,,confidence_buffer,638397,confidence_buffer,,null,,,,,,,,,,,,,,,,,,
2118.5,,recognition_phase,640518,Hollendale,,49,,,,,,old,1,0.75,,,,,,,,,,
null,,confidence_buffer,640620,confidence_buffer,,null,,,,,,,,,,,,,,,,,,
null,,thebreak,641121,break,,null,,,,,,,,,,,,,,,,,,
5685.300000071526,,realistic_rating,646809,Coeur d'Alene,,53,Coeur d'Alene,US,5,,,,,,,,,,,,,,,
null,,confidence_buffer,646912,confidence_buffer,,null,,,,,,,,,,,,,,,,,,
1545.9000000953674,,pt2_unique_rating,648460,Coeur d'Alene,,53,,,5,,,,,,,,,,,,,,,
null,,confidence_buffer,648563,confidence_buffer,,null,,,,,,,,,,,,,,,,,,
1206.8999999761581,,pt2_memorable_rating,649772,Coeur d'Alene,,53,,,5,,,,,,,,,,,,,,,
null,,confidence_buffer,649874,confidence_buffer,,null,,,,,,,,,,,,,,,,,,
1593.1000000238419,,recognition_phase,651472,Coeur d'Alene,,49,,,,,,old,0,0.6923076923076923,,,,,,,,,,
null,,confidence_buffer,651575,confidence_buffer,,null,,,,,,,,,,,,,,,,,,
null,,thebreak,652076,break,,null,,,,,,,,,,,,,,,,,,
3112.5,,realistic_rating,655191,Athens,,53,Athens,US,5,,,,,,,,,,,,,,,
null,,confidence_buffer,655293,confidence_buffer,,null,,,,,,,,,,,,,,,,,,
4216.5,,pt2_unique_rating,659512,Athens,,49,,,1,,,,,,,,,,,,,,,
null,,confidence_buffer,659614,confidence_buffer,,null,,,,,,,,,,,,,,,,,,
2287,,pt2_memorable_rating,661903,Athens,,53,,,5,,,,,,,,,,,,,,,
null,,confidence_buffer,662005,confidence_buffer,,null,,,,,,,,,,,,,,,,,,
5567.199999928474,,recognition_phase,667574,Athens,,52,,,,,,new,1,0.7142857142857143,,,,,,,,,,
null,,confidence_buffer,667676,confidence_buffer,,null,,,,,,,,,,,,,,,,,,
null,,thebreak,668178,break,,null,,,,,,,,,,,,,,,,,,
3354.4000000953674,,realistic_rating,671539,Alliance,,51,Alliance,US,3,,,,,,,,,,,,,,,
null,,confidence_buffer,671641,confidence_buffer,,null,,,,,,,,,,,,,,,,,,
2736.3000000715256,,pt2_unique_rating,674379,Alliance,,52,,,4,,,,,,,,,,,,,,,
null,,confidence_buffer,674481,confidence_buffer,,null,,,,,,,,,,,,,,,,,,
1734.8999999761581,,probe_rating,676218,probe_rating,,51,,,,3,1,,,,,,,,,,,,,
null,,confidence_buffer,676320,confidence_buffer,,null,,,,,,,,,,,,,,,,,,
2370.100000023842,,pt2_memorable_rating,678692,Alliance,,51,,,3,,,,,,,,,,,,,,,
null,,confidence_buffer,678795,confidence_buffer,,null,,,,,,,,,,,,,,,,,,
1649.5,,recognition_phase,680446,Alliance,,49,,,,,,old,1,0.7333333333333333,,,,,,,,,,
null,,confidence_buffer,680548,confidence_buffer,,null,,,,,,,,,,,,,,,,,,
null,,thebreak,681050,break,,null,,,,,,,,,,,,,,,,,,
3806.4000000953674,,realistic_rating,684858,Northbridge,,53,Northbridge,Fictional,5,,,,,,,,,,,,,,,
null,,confidence_buffer,684964,confidence_buffer,,null,,,,,,,,,,,,,,,,,,
2026.5,,pt2_unique_rating,686994,Northbridge,,51,,,3,,,,,,,,,,,,,,,
null,,confidence_buffer,687096,confidence_buffer,,null,,,,,,,,,,,,,,,,,,
2732.100000023842,,pt2_memorable_rating,689830,Northbridge,,51,,,3,,,,,,,,,,,,,,,
null,,confidence_buffer,689932,confidence_buffer,,null,,,,,,,,,,,,,,,,,,
2841.1999999284744,,recognition_phase,692776,Northbridge,,49,,,,,,old,0,0.6875,,,,,,,,,,
null,,confidence_buffer,692878,confidence_buffer,,null,,,,,,,,,,,,,,,,,,
null,,thebreak,693379,break,,null,,,,,,,,,,,,,,,,,,
4912.700000047684,,realistic_rating,698294,Cape May,,52,Cape May,US,4,,,,,,,,,,,,,,,
null,,confidence_buffer,698396,confidence_buffer,,null,,,,,,,,,,,,,,,,,,
1662.7000000476837,,pt2_unique_rating,700060,Cape May,,52,,,4,,,,,,,,,,,,,,,
null,,confidence_buffer,700163,confidence_buffer,,null,,,,,,,,,,,,,,,,,,
1570,,pt2_memorable_rating,701734,Cape May,,52,,,4,,,,,,,,,,,,,,,
null,,confidence_buffer,701836,confidence_buffer,,null,,,,,,,,,,,,,,,,,,
1470.3999999761581,,recognition_phase,703309,Cape May,,49,,,,,,old,0,0.6470588235294118,,,,,,,,,,
null,,confidence_buffer,703411,confidence_buffer,,null,,,,,,,,,,,,,,,,,,
null,,thebreak,703912,break,,null,,,,,,,,,,,,,,,,,,
2973.4000000953674,,realistic_rating,706889,Highvale,,52,Highvale,Fictional,4,,,,,,,,,,,,,,,
null,,confidence_buffer,706991,confidence_buffer,,null,,,,,,,,,,,,,,,,,,
700.2000000476837,,pt2_unique_rating,707693,Highvale,,52,,,4,,,,,,,,,,,,,,,
null,,confidence_buffer,707795,confidence_buffer,,null,,,,,,,,,,,,,,,,,,
1827.0999999046326,,pt2_memorable_rating,709625,Highvale,,52,,,4,,,,,,,,,,,,,,,
null,,confidence_buffer,709726,confidence_buffer,,null,,,,,,,,,,,,,,,,,,
1436.6000000238419,,recognition_phase,711165,Highvale,,49,,,,,,old,0,0.6111111111111112,,,,,,,,,,
null,,confidence_buffer,711267,confidence_buffer,,null,,,,,,,,,,,,,,,,,,
null,,thebreak,711769,break,,null,,,,,,,,,,,,,,,,,,
3435.2999999523163,,realistic_rating,715208,Pine Hollow,,53,Pine Hollow,Fictional,5,,,,,,,,,,,,,,,
null,,confidence_buffer,715311,confidence_buffer,,null,,,,,,,,,,,,,,,,,,
1935,,pt2_unique_rating,717248,Pine Hollow,,53,,,5,,,,,,,,,,,,,,,
null,,confidence_buffer,717350,confidence_buffer,,null,,,,,,,,,,,,,,,,,,
1845.9000000953674,,pt2_memorable_rating,719198,Pine Hollow,,52,,,4,,,,,,,,,,,,,,,
null,,confidence_buffer,719300,confidence_buffer,,null,,,,,,,,,,,,,,,,,,
10457.900000095367,,recognition_phase,729760,Pine Hollow,,51,,,,,,new,1,0.631578947368421,,,,,,,,,,
null,,confidence_buffer,729863,confidence_buffer,,null,,,,,,,,,,,,,,,,,,
null,,thebreak,730365,break,,null,,,,,,,,,,,,,,,,,,
3970.5999999046326,,realistic_rating,734338,Cleveland,,53,Cleveland,US,5,,,,,,,,,,,,,,,
null,,confidence_buffer,734441,confidence_buffer,,null,,,,,,,,,,,,,,,,,,
2670.1999999284744,,pt2_unique_rating,737113,Cleveland,,51,,,3,,,,,,,,,,,,,,,
null,,confidence_buffer,737214,confidence_buffer,,null,,,,,,,,,,,,,,,,,,
1639,,pt2_memorable_rating,738855,Cleveland,,51,,,3,,,,,,,,,,,,,,,
null,,confidence_buffer,738958,confidence_buffer,,null,,,,,,,,,,,,,,,,,,
2543.4000000953674,,recognition_phase,741504,Cleveland,,49,,,,,,old,1,0.65,,,,,,,,,,
null,,confidence_buffer,741606,confidence_buffer,,null,,,,,,,,,,,,,,,,,,
null,,thebreak,742108,break,,null,,,,,,,,,,,,,,,,,,
7737.900000095367,,realistic_rating,749848,Folly Beach,,53,Folly Beach,US,5,,,,,,,,,,,,,,,
null,,confidence_buffer,749950,confidence_buffer,,null,,,,,,,,,,,,,,,,,,
1168.2000000476837,,pt2_unique_rating,751120,Folly Beach,,53,,,5,,,,,,,,,,,,,,,
null,,confidence_buffer,751222,confidence_buffer,,null,,,,,,,,,,,,,,,,,,
1147.3000000715256,,pt2_memorable_rating,752372,Folly Beach,,53,,,5,,,,,,,,,,,,,,,
null,,confidence_buffer,752474,confidence_buffer,,null,,,,,,,,,,,,,,,,,,
1880.7000000476837,,probe_rating,754357,probe_rating,,49,,,,1,1,,,,,,,,,,,,,
null,,confidence_buffer,754460,confidence_buffer,,null,,,,,,,,,,,,,,,,,,
2342,,recognition_phase,756804,Folly Beach,,49,,,,,,old,0,0.6190476190476191,,,,,,,,,,
null,,confidence_buffer,756906,confidence_buffer,,null,,,,,,,,,,,,,,,,,,
null,,thebreak,757408,break,,null,,,,,,,,,,,,,,,,,,
3439.600000023842,,realistic_rating,760849,Sierra Hollow,,53,Sierra Hollow,Fictional,5,,,,,,,,,,,,,,,
null,,confidence_buffer,760951,confidence_buffer,,null,,,,,,,,,,,,,,,,,,
1136.7999999523163,,pt2_unique_rating,762090,Sierra Hollow,,53,,,5,,,,,,,,,,,,,,,
null,,confidence_buffer,762192,confidence_buffer,,null,,,,,,,,,,,,,,,,,,
873.4000000953674,,pt2_memorable_rating,763067,Sierra Hollow,,53,,,5,,,,,,,,,,,,,,,
null,,confidence_buffer,763170,confidence_buffer,,null,,,,,,,,,,,,,,,,,,
2729.2000000476837,,recognition_phase,765901,Sierra Hollow,,50,,,,,,old,0,0.5909090909090909,,,,,,,,,,
null,,confidence_buffer,766002,confidence_buffer,,null,,,,,,,,,,,,,,,,,,
null,,thebreak,766504,break,,null,,,,,,,,,,,,,,,,,,
4061.399999976158,,realistic_rating,770567,New Hope,,53,New Hope,US,5,,,,,,,,,,,,,,,
null,,confidence_buffer,770671,confidence_buffer,,null,,,,,,,,,,,,,,,,,,
3498.2000000476837,,pt2_unique_rating,774171,New Hope,,51,,,3,,,,,,,,,,,,,,,
null,,confidence_buffer,774272,confidence_buffer,,null,,,,,,,,,,,,,,,,,,
2095.5,,pt2_memorable_rating,776370,New Hope,,53,,,5,,,,,,,,,,,,,,,
null,,confidence_buffer,776472,confidence_buffer,,null,,,,,,,,,,,,,,,,,,
2934.5,,recognition_phase,779408,New Hope,,49,,,,,,old,1,0.6086956521739131,,,,,,,,,,
null,,confidence_buffer,779510,confidence_buffer,,null,,,,,,,,,,,,,,,,,,
null,,thebreak,780012,break,,null,,,,,,,,,,,,,,,,,,
3072.600000023842,,realistic_rating,783086,Brookmere,,52,Brookmere,Fictional,4,,,,,,,,,,,,,,,
null,,confidence_buffer,783189,confidence_buffer,,null,,,,,,,,,,,,,,,,,,
3215.899999976158,,pt2_unique_rating,786407,Brookmere,,52,,,4,,,,,,,,,,,,,,,
null,,confidence_buffer,786509,confidence_buffer,,null,,,,,,,,,,,,,,,,,,
2390.5,,pt2_memorable_rating,788901,Brookmere,,51,,,3,,,,,,,,,,,,,,,
null,,confidence_buffer,789003,confidence_buffer,,null,,,,,,,,,,,,,,,,,,
1778.6999999284744,,probe_rating,790784,probe_rating,,51,,,,3,1,,,,,,,,,,,,,
null,,confidence_buffer,790886,confidence_buffer,,null,,,,,,,,,,,,,,,,,,
4698.299999952316,,recognition_phase,795587,Brookmere,,51,,,,,,new,1,0.625,,,,,,,,,,
null,,confidence_buffer,795689,confidence_buffer,,null,,,,,,,,,,,,,,,,,,
null,,thebreak,796191,break,,null,,,,,,,,,,,,,,,,,,
4216.900000095367,,realistic_rating,800410,Maplehurst,,53,Maplehurst,Fictional,5,,,,,,,,,,,,,,,
null,,confidence_buffer,800512,confidence_buffer,,null,,,,,,,,,,,,,,,,,,
1868.1000000238419,,pt2_unique_rating,802382,Maplehurst,,50,,,2,,,,,,,,,,,,,,,
null,,confidence_buffer,802486,confidence_buffer,,null,,,,,,,,,,,,,,,,,,
2143.5,,pt2_memorable_rating,804631,Maplehurst,,50,,,2,,,,,,,,,,,,,,,
null,,confidence_buffer,804733,confidence_buffer,,null,,,,,,,,,,,,,,,,,,
7658.800000071526,,recognition_phase,812393,Maplehurst,,50,,,,,,old,1,0.64,,,,,,,,,,
null,,confidence_buffer,812495,confidence_buffer,,null,,,,,,,,,,,,,,,,,,
null,,thebreak,812997,break,,null,,,,,,,,,,,,,,,,,,
4560.100000023842,,realistic_rating,817559,New Verdan,,52,New Verdan,Fictional,4,,,,,,,,,,,,,,,
null,,confidence_buffer,817662,confidence_buffer,,null,,,,,,,,,,,,,,,,,,
2015.2999999523163,,pt2_unique_rating,819679,New Verdan,,52,,,4,,,,,,,,,,,,,,,
null,,confidence_buffer,819781,confidence_buffer,,null,,,,,,,,,,,,,,,,,,
1105.1000000238419,,pt2_memorable_rating,820888,New Verdan,,52,,,4,,,,,,,,,,,,,,,
null,,confidence_buffer,820990,confidence_buffer,,null,,,,,,,,,,,,,,,,,,
2200.3000000715256,,recognition_phase,823193,New Verdan,,49,,,,,,old,0,0.6153846153846154,,,,,,,,,,
null,,confidence_buffer,823296,confidence_buffer,,null,,,,,,,,,,,,,,,,,,
null,,thebreak,823797,break,,null,,,,,,,,,,,,,,,,,,
4579.300000071526,,realistic_rating,828383,Coralridge,,52,Coralridge,Fictional,4,,,,,,,,,,,,,,,
null,,confidence_buffer,828486,confidence_buffer,,null,,,,,,,,,,,,,,,,,,
2432.7000000476837,,pt2_unique_rating,830921,Coralridge,,52,,,4,,,,,,,,,,,,,,,
null,,confidence_buffer,831023,confidence_buffer,,null,,,,,,,,,,,,,,,,,,
1290.5,,pt2_memorable_rating,832315,Coralridge,,51,,,3,,,,,,,,,,,,,,,
null,,confidence_buffer,832417,confidence_buffer,,null,,,,,,,,,,,,,,,,,,
1865.8000000715256,,recognition_phase,834285,Coralridge,,49,,,,,,old,1,0.6296296296296297,,,,,,,,,,
null,,confidence_buffer,834388,confidence_buffer,,null,,,,,,,,,,,,,,,,,,
null,,thebreak,834889,break,,null,,,,,,,,,,,,,,,,,,
4076,,realistic_rating,838967,Maravilla Springs,,53,Maravilla Springs,Fictional,5,,,,,,,,,,,,,,,
null,,confidence_buffer,839069,confidence_buffer,,null,,,,,,,,,,,,,,,,,,
2063.5,,pt2_unique_rating,841135,Maravilla Springs,,51,,,3,,,,,,,,,,,,,,,
null,,confidence_buffer,841237,confidence_buffer,,null,,,,,,,,,,,,,,,,,,
1231.3000000715256,,pt2_memorable_rating,842471,Maravilla Springs,,52,,,4,,,,,,,,,,,,,,,
null,,confidence_buffer,842573,confidence_buffer,,null,,,,,,,,,,,,,,,,,,
1657.9000000953674,,recognition_phase,844233,Maravilla Springs,,49,,,,,,old,1,0.6428571428571429,,,,,,,,,,
null,,confidence_buffer,844335,confidence_buffer,,null,,,,,,,,,,,,,,,,,,
null,,thebreak,844837,break,,null,,,,,,,,,,,,,,,,,,
3360.399999976158,,realistic_rating,848199,Barnard,,53,Barnard,US,5,,,,,,,,,,,,,,,
null,,confidence_buffer,848301,confidence_buffer,,null,,,,,,,,,,,,,,,,,,
1347.2000000476837,,probe_rating,849652,probe_rating,,50,,,,2,1,,,,,,,,,,,,,
null,,confidence_buffer,849755,confidence_buffer,,null,,,,,,,,,,,,,,,,,,
2342.0999999046326,,pt2_unique_rating,852099,Barnard,,50,,,2,,,,,,,,,,,,,,,
null,,confidence_buffer,852202,confidence_buffer,,null,,,,,,,,,,,,,,,,,,
1827.2000000476837,,pt2_memorable_rating,854031,Barnard,,50,,,2,,,,,,,,,,,,,,,
null,,confidence_buffer,854135,confidence_buffer,,null,,,,,,,,,,,,,,,,,,
1594.2999999523163,,recognition_phase,855732,Barnard,,49,,,,,,old,1,0.6551724137931034,,,,,,,,,,
null,,confidence_buffer,855834,confidence_buffer,,null,,,,,,,,,,,,,,,,,,
null,,thebreak,856336,break,,null,,,,,,,,,,,,,,,,,,
2486.5,,realistic_rating,858825,Sunmere,,53,Sunmere,Fictional,5,,,,,,,,,,,,,,,
null,,confidence_buffer,858927,confidence_buffer,,null,,,,,,,,,,,,,,,,,,
2032.7999999523163,,pt2_unique_rating,860962,Sunmere,,51,,,3,,,,,,,,,,,,,,,
null,,confidence_buffer,861064,confidence_buffer,,null,,,,,,,,,,,,,,,,,,
2014.3000000715256,,pt2_memorable_rating,863080,Sunmere,,50,,,2,,,,,,,,,,,,,,,
null,,confidence_buffer,863182,confidence_buffer,,null,,,,,,,,,,,,,,,,,,
1422.2000000476837,,probe_rating,864606,probe_rating,,49,,,,1,1,,,,,,,,,,,,,
null,,confidence_buffer,864709,confidence_buffer,,null,,,,,,,,,,,,,,,,,,
2416.899999976158,,recognition_phase,867128,Sunmere,,49,,,,,,old,1,0.6666666666666666,,,,,,,,,,
null,,confidence_buffer,867230,confidence_buffer,,null,,,,,,,,,,,,,,,,,,
null,,thebreak,867732,break,,null,,,,,,,,,,,,,,,,,,
1793.6999999284744,,realistic_rating,869527,Elmsbury,,53,Elmsbury,Fictional,5,,,,,,,,,,,,,,,
null,,confidence_buffer,869630,confidence_buffer,,null,,,,,,,,,,,,,,,,,,
2192.100000023842,,pt2_unique_rating,871824,Elmsbury,,51,,,3,,,,,,,,,,,,,,,
null,,confidence_buffer,871926,confidence_buffer,,null,,,,,,,,,,,,,,,,,,
2581.899999976158,,pt2_memorable_rating,874510,Elmsbury,,51,,,3,,,,,,,,,,,,,,,
null,,confidence_buffer,874612,confidence_buffer,,null,,,,,,,,,,,,,,,,,,
3529.8000000715256,,recognition_phase,878144,Elmsbury,,52,,,,,,new,1,0.6774193548387096,,,,,,,,,,
null,,confidence_buffer,878246,confidence_buffer,,null,,,,,,,,,,,,,,,,,,
null,,thebreak,878748,break,,null,,,,,,,,,,,,,,,,,,
4418,,realistic_rating,883168,Driftwood Bay,,53,Driftwood Bay,Fictional,5,,,,,,,,,,,,,,,
null,,confidence_buffer,883270,confidence_buffer,,null,,,,,,,,,,,,,,,,,,
2699.3000000715256,,pt2_unique_rating,885972,Driftwood Bay,,53,,,5,,,,,,,,,,,,,,,
null,,confidence_buffer,886074,confidence_buffer,,null,,,,,,,,,,,,,,,,,,
2050.2999999523163,,probe_rating,888126,probe_rating,,51,,,,3,1,,,,,,,,,,,,,
null,,confidence_buffer,888229,confidence_buffer,,null,,,,,,,,,,,,,,,,,,
3929.5,,pt2_memorable_rating,892161,Driftwood Bay,,51,,,3,,,,,,,,,,,,,,,
null,,confidence_buffer,892263,confidence_buffer,,null,,,,,,,,,,,,,,,,,,
4564.700000047684,,recognition_phase,896830,Driftwood Bay,,51,,,,,,new,0,0.65625,,,,,,,,,,
null,,confidence_buffer,896932,confidence_buffer,,null,,,,,,,,,,,,,,,,,,
null,,thebreak,897434,break,,null,,,,,,,,,,,,,,,,,,
2999.7000000476837,,realistic_rating,900435,Bar Harbor,,53,Bar Harbor,US,5,,,,,,,,,,,,,,,
null,,confidence_buffer,900536,confidence_buffer,,null,,,,,,,,,,,,,,,,,,
6424.599999904633,,pt2_unique_rating,906963,Bar Harbor,,50,,,2,,,,,,,,,,,,,,,
null,,confidence_buffer,907066,confidence_buffer,,null,,,,,,,,,,,,,,,,,,
3629.100000023842,,pt2_memorable_rating,910697,Bar Harbor,,53,,,5,,,,,,,,,,,,,,,
null,,confidence_buffer,910799,confidence_buffer,,null,,,,,,,,,,,,,,,,,,
2995.5,,recognition_phase,913796,Bar Harbor,,49,,,,,,old,1,0.6666666666666666,,,,,,,,,,
null,,confidence_buffer,913899,confidence_buffer,,null,,,,,,,,,,,,,,,,,,
null,,thebreak,914400,break,,null,,,,,,,,,,,,,,,,,,
5769,,realistic_rating,920172,Stonebrook,,53,Stonebrook,Fictional,5,,,,,,,,,,,,,,,
null,,confidence_buffer,920274,confidence_buffer,,null,,,,,,,,,,,,,,,,,,
3910.399999976158,,pt2_unique_rating,924187,Stonebrook,,49,,,1,,,,,,,,,,,,,,,
null,,confidence_buffer,924289,confidence_buffer,,null,,,,,,,,,,,,,,,,,,
3537.399999976158,,pt2_memorable_rating,927829,Stonebrook,,51,,,3,,,,,,,,,,,,,,,
null,,confidence_buffer,927931,confidence_buffer,,null,,,,,,,,,,,,,,,,,,
2056.2999999523163,,recognition_phase,929989,Stonebrook,,49,,,,,,old,1,0.6764705882352942,,,,,,,,,,
null,,confidence_buffer,930091,confidence_buffer,,null,,,,,,,,,,,,,,,,,,
null,,thebreak,930593,break,,null,,,,,,,,,,,,,,,,,,
4377.5,,realistic_rating,934972,Solara Glen,,53,Solara Glen,Fictional,5,,,,,,,,,,,,,,,
null,,confidence_buffer,935074,confidence_buffer,,null,,,,,,,,,,,,,,,,,,
2023.6000000238419,,pt2_unique_rating,937100,Solara Glen,,51,,,3,,,,,,,,,,,,,,,
null,,confidence_buffer,937202,confidence_buffer,,null,,,,,,,,,,,,,,,,,,
1629.1999999284744,,probe_rating,938832,probe_rating,,49,,,,1,1,,,,,,,,,,,,,
null,,confidence_buffer,938934,confidence_buffer,,null,,,,,,,,,,,,,,,,,,
2660.600000023842,,pt2_memorable_rating,941598,Solara Glen,,51,,,3,,,,,,,,,,,,,,,
null,,confidence_buffer,941700,confidence_buffer,,null,,,,,,,,,,,,,,,,,,
1995.9000000953674,,recognition_phase,943698,Solara Glen,,49,,,,,,old,0,0.6571428571428571,,,,,,,,,,
null,,confidence_buffer,943800,confidence_buffer,,null,,,,,,,,,,,,,,,,,,
null,,thebreak,944302,break,,null,,,,,,,,,,,,,,,,,,
1995,,realistic_rating,946299,Newport,,53,Newport,US,5,,,,,,,,,,,,,,,
null,,confidence_buffer,946401,confidence_buffer,,null,,,,,,,,,,,,,,,,,,
1841.4000000953674,,pt2_unique_rating,948244,Newport,,49,,,1,,,,,,,,,,,,,,,
null,,confidence_buffer,948346,confidence_buffer,,null,,,,,,,,,,,,,,,,,,
1957.8000000715256,,pt2_memorable_rating,950306,Newport,,49,,,1,,,,,,,,,,,,,,,
null,,confidence_buffer,950408,confidence_buffer,,null,,,,,,,,,,,,,,,,,,
1435.0999999046326,,probe_rating,951844,probe_rating,,49,,,,1,1,,,,,,,,,,,,,
null,,confidence_buffer,951946,confidence_buffer,,null,,,,,,,,,,,,,,,,,,
1624.6000000238419,,recognition_phase,953572,Newport,,49,,,,,,old,1,0.6666666666666666,,,,,,,,,,
null,,confidence_buffer,953674,confidence_buffer,,null,,,,,,,,,,,,,,,,,,
null,,thebreak,954176,break,,null,,,,,,,,,,,,,,,,,,
2562.399999976158,,realistic_rating,956740,Assateague Island,,53,Assateague Island,US,5,,,,,,,,,,,,,,,
null,,confidence_buffer,956842,confidence_buffer,,null,,,,,,,,,,,,,,,,,,
8728.100000023842,,pt2_unique_rating,965572,Assateague Island,,53,,,5,,,,,,,,,,,,,,,
null,,confidence_buffer,965674,confidence_buffer,,null,,,,,,,,,,,,,,,,,,
1704.5,,pt2_memorable_rating,967380,Assateague Island,,53,,,5,,,,,,,,,,,,,,,
null,,confidence_buffer,967481,confidence_buffer,,null,,,,,,,,,,,,,,,,,,
1414.8999999761581,,recognition_phase,968899,Assateague Island,,49,,,,,,old,1,0.6756756756756757,,,,,,,,,,
null,,confidence_buffer,969001,confidence_buffer,,null,,,,,,,,,,,,,,,,,,
null,,thebreak,969503,break,,null,,,,,,,,,,,,,,,,,,
2448.2000000476837,,realistic_rating,971953,North Arroya,,53,North Arroya,Fictional,5,,,,,,,,,,,,,,,
null,,confidence_buffer,972055,confidence_buffer,,null,,,,,,,,,,,,,,,,,,
2294.6999999284744,,pt2_unique_rating,974355,North Arroya,,53,,,5,,,,,,,,,,,,,,,
null,,confidence_buffer,974457,confidence_buffer,,null,,,,,,,,,,,,,,,,,,
1563.7000000476837,,pt2_memorable_rating,976023,North Arroya,,53,,,5,,,,,,,,,,,,,,,
null,,confidence_buffer,976125,confidence_buffer,,null,,,,,,,,,,,,,,,,,,
1896.7000000476837,,recognition_phase,978023,North Arroya,,49,,,,,,old,0,0.6578947368421053,,,,,,,,,,
null,,confidence_buffer,978125,confidence_buffer,,null,,,,,,,,,,,,,,,,,,
null,,thebreak,978627,break,,null,,,,,,,,,,,,,,,,,,
2008,,realistic_rating,980637,Juniper Creek,,53,Juniper Creek,Fictional,5,,,,,,,,,,,,,,,
null,,confidence_buffer,980739,confidence_buffer,,null,,,,,,,,,,,,,,,,,,
656.5,,pt2_unique_rating,981397,Juniper Creek,,53,,,5,,,,,,,,,,,,,,,
null,,confidence_buffer,981499,confidence_buffer,,null,,,,,,,,,,,,,,,,,,
664,,pt2_memorable_rating,982168,Juniper Creek,,53,,,5,,,,,,,,,,,,,,,
null,,confidence_buffer,982270,confidence_buffer,,null,,,,,,,,,,,,,,,,,,
1122.2000000476837,,recognition_phase,983394,Juniper Creek,,49,,,,,,old,1,0.6666666666666666,,,,,,,,,,
null,,confidence_buffer,983497,confidence_buffer,,null,,,,,,,,,,,,,,,,,,
null,,thebreak,983998,break,,null,,,,,,,,,,,,,,,,,,
2820.7000000476837,,realistic_rating,986821,Okoboji,,53,Okoboji,US,5,,,,,,,,,,,,,,,
null,,confidence_buffer,986923,confidence_buffer,,null,,,,,,,,,,,,,,,,,,
934.5999999046326,,pt2_unique_rating,987859,Okoboji,,53,,,5,,,,,,,,,,,,,,,
null,,confidence_buffer,987961,confidence_buffer,,null,,,,,,,,,,,,,,,,,,
1862.6999999284744,,probe_rating,989826,probe_rating,,53,,,,5,1,,,,,,,,,,,,,
null,,confidence_buffer,989930,confidence_buffer,,null,,,,,,,,,,,,,,,,,,
2278.0999999046326,,pt2_memorable_rating,992210,Okoboji,,53,,,5,,,,,,,,,,,,,,,
null,,confidence_buffer,992312,confidence_buffer,,null,,,,,,,,,,,,,,,,,,
1554.1000000238419,,recognition_phase,993869,Okoboji,,49,,,,,,old,0,0.65,,,,,,,,,,
null,,confidence_buffer,993971,confidence_buffer,,null,,,,,,,,,,,,,,,,,,
null,,thebreak,994473,break,,null,,,,,,,,,,,,,,,,,,
2391.399999976158,,realistic_rating,996867,Natchez,,53,Natchez,US,5,,,,,,,,,,,,,,,
null,,confidence_buffer,996968,confidence_buffer,,null,,,,,,,,,,,,,,,,,,
615.8000000715256,,pt2_unique_rating,997586,Natchez,,53,,,5,,,,,,,,,,,,,,,
null,,confidence_buffer,997687,confidence_buffer,,null,,,,,,,,,,,,,,,,,,
835.2999999523163,,pt2_memorable_rating,998524,Natchez,,53,,,5,,,,,,,,,,,,,,,
null,,confidence_buffer,998626,confidence_buffer,,null,,,,,,,,,,,,,,,,,,
2482.3000000715256,,recognition_phase,1001111,Natchez,,49,,,,,,old,0,0.6341463414634146,,,,,,,,,,
null,,confidence_buffer,1001212,confidence_buffer,,null,,,,,,,,,,,,,,,,,,
null,,thebreak,1001714,break,,null,,,,,,,,,,,,,,,,,,
3228.899999976158,,realistic_rating,1004945,Gatlinburg,,53,Gatlinburg,US,5,,,,,,,,,,,,,,,
null,,confidence_buffer,1005048,confidence_buffer,,null,,,,,,,,,,,,,,,,,,
926.5,,pt2_unique_rating,1005976,Gatlinburg,,53,,,5,,,,,,,,,,,,,,,
null,,confidence_buffer,1006078,confidence_buffer,,null,,,,,,,,,,,,,,,,,,
1028.6000000238419,,pt2_memorable_rating,1007108,Gatlinburg,,53,,,5,,,,,,,,,,,,,,,
null,,confidence_buffer,1007211,confidence_buffer,,null,,,,,,,,,,,,,,,,,,
1753.5,,recognition_phase,1008966,Gatlinburg,,49,,,,,,old,0,0.6190476190476191,,,,,,,,,,
null,,confidence_buffer,1009068,confidence_buffer,,null,,,,,,,,,,,,,,,,,,
null,,thebreak,1009570,break,,null,,,,,,,,,,,,,,,,,,
2771.399999976158,,realistic_rating,1012343,Bayshore Haven,,53,Bayshore Haven,Fictional,5,,,,,,,,,,,,,,,
null,,confidence_buffer,1012445,confidence_buffer,,null,,,,,,,,,,,,,,,,,,
1144.2999999523163,,pt2_unique_rating,1013591,Bayshore Haven,,53,,,5,,,,,,,,,,,,,,,
null,,confidence_buffer,1013692,confidence_buffer,,null,,,,,,,,,,,,,,,,,,
1444.1999999284744,,pt2_memorable_rating,1015138,Bayshore Haven,,53,,,5,,,,,,,,,,,,,,,
null,,confidence_buffer,1015240,confidence_buffer,,null,,,,,,,,,,,,,,,,,,
1404.5999999046326,,recognition_phase,1016646,Bayshore Haven,,49,,,,,,old,0,0.6046511627906976,,,,,,,,,,
null,,confidence_buffer,1016748,confidence_buffer,,null,,,,,,,,,,,,,,,,,,
null,,thebreak,1017250,break,,null,,,,,,,,,,,,,,,,,,
3080.100000023842,,realistic_rating,1020332,Fairhaven,,53,Fairhaven,Fictional,5,,,,,,,,,,,,,,,
null,,confidence_buffer,1020434,confidence_buffer,,null,,,,,,,,,,,,,,,,,,
1533.8999999761581,,pt2_unique_rating,1021970,Fairhaven,,53,,,5,,,,,,,,,,,,,,,
null,,confidence_buffer,1022072,confidence_buffer,,null,,,,,,,,,,,,,,,,,,
1358.8000000715256,,pt2_memorable_rating,1023433,Fairhaven,,53,,,5,,,,,,,,,,,,,,,
null,,confidence_buffer,1023535,confidence_buffer,,null,,,,,,,,,,,,,,,,,,
1337.5,,recognition_phase,1024875,Fairhaven,,49,,,,,,old,0,0.5909090909090909,,,,,,,,,,
null,,confidence_buffer,1024977,confidence_buffer,,null,,,,,,,,,,,,,,,,,,
null,,thebreak,1025479,break,,null,,,,,,,,,,,,,,,,,,
2014.5,,realistic_rating,1027495,Boulder,,53,Boulder,US,5,,,,,,,,,,,,,,,
null,,confidence_buffer,1027597,confidence_buffer,,null,,,,,,,,,,,,,,,,,,
1179.6000000238419,,pt2_unique_rating,1028778,Boulder,,53,,,5,,,,,,,,,,,,,,,
null,,confidence_buffer,1028880,confidence_buffer,,null,,,,,,,,,,,,,,,,,,
1469.6000000238419,,pt2_memorable_rating,1030355,Boulder,,53,,,5,,,,,,,,,,,,,,,
null,,confidence_buffer,1030457,confidence_buffer,,null,,,,,,,,,,,,,,,,,,
1357.7999999523163,,recognition_phase,1031816,Boulder,,49,,,,,,old,1,0.6,,,,,,,,,,
null,,confidence_buffer,1031919,confidence_buffer,,null,,,,,,,,,,,,,,,,,,
null,,thebreak,1032420,break,,null,,,,,,,,,,,,,,,,,,
2220.2000000476837,,realistic_rating,1034643,Yukon,,53,Yukon,US,5,,,,,,,,,,,,,,,
null,,confidence_buffer,1034745,confidence_buffer,,null,,,,,,,,,,,,,,,,,,
1108.6000000238419,,pt2_unique_rating,1035855,Yukon,,53,,,5,,,,,,,,,,,,,,,
null,,confidence_buffer,1035957,confidence_buffer,,null,,,,,,,,,,,,,,,,,,
1099.6000000238419,,pt2_memorable_rating,1037058,Yukon,,53,,,5,,,,,,,,,,,,,,,
null,,confidence_buffer,1037160,confidence_buffer,,null,,,,,,,,,,,,,,,,,,
1224.2999999523163,,recognition_phase,1038387,Yukon,,49,,,,,,old,0,0.5869565217391305,,,,,,,,,,
null,,confidence_buffer,1038489,confidence_buffer,,null,,,,,,,,,,,,,,,,,,
null,,thebreak,1038990,break,,null,,,,,,,,,,,,,,,,,,
2819.5,,realistic_rating,1041811,West Palm Beach,,53,West Palm Beach,US,5,,,,,,,,,,,,,,,
null,,confidence_buffer,1041913,confidence_buffer,,null,,,,,,,,,,,,,,,,,,
1490.1000000238419,,pt2_unique_rating,1043404,West Palm Beach,,53,,,5,,,,,,,,,,,,,,,
null,,confidence_buffer,1043507,confidence_buffer,,null,,,,,,,,,,,,,,,,,,
1185.7999999523163,,pt2_memorable_rating,1044694,West Palm Beach,,53,,,5,,,,,,,,,,,,,,,
null,,confidence_buffer,1044796,confidence_buffer,,null,,,,,,,,,,,,,,,,,,
2528.2999999523163,,probe_rating,1047328,probe_rating,,50,,,,2,1,,,,,,,,,,,,,
null,,confidence_buffer,1047430,confidence_buffer,,null,,,,,,,,,,,,,,,,,,
1349.8999999761581,,recognition_phase,1048782,West Palm Beach,,49,,,,,,old,1,0.5957446808510638,,,,,,,,,,
null,,confidence_buffer,1048883,confidence_buffer,,null,,,,,,,,,,,,,,,,,,
null,,thebreak,1049385,break,,null,,,,,,,,,,,,,,,,,,
1954,,realistic_rating,1051341,Custer,,53,Custer,US,5,,,,,,,,,,,,,,,
null,,confidence_buffer,1051443,confidence_buffer,,null,,,,,,,,,,,,,,,,,,
2576.100000023842,,pt2_unique_rating,1054021,Custer,,53,,,5,,,,,,,,,,,,,,,
null,,confidence_buffer,1054123,confidence_buffer,,null,,,,,,,,,,,,,,,,,,
968.5,,pt2_memorable_rating,1055094,Custer,,53,,,5,,,,,,,,,,,,,,,
null,,confidence_buffer,1055196,confidence_buffer,,null,,,,,,,,,,,,,,,,,,
2012.6000000238419,,recognition_phase,1057210,Custer,,49,,,,,,old,1,0.6041666666666666,,,,,,,,,,
null,,confidence_buffer,1057312,confidence_buffer,,null,,,,,,,,,,,,,,,,,,
null,,thebreak,1057814,break,,null,,,,,,,,,,,,,,,,,,
4036.100000023842,,realistic_rating,1061852,Livingston,,53,Livingston,US,5,,,,,,,,,,,,,,,
null,,confidence_buffer,1061955,confidence_buffer,,null,,,,,,,,,,,,,,,,,,
1946.3999999761581,,probe_rating,1063903,probe_rating,,52,,,,4,1,,,,,,,,,,,,,
null,,confidence_buffer,1064005,confidence_buffer,,null,,,,,,,,,,,,,,,,,,
2970.100000023842,,pt2_unique_rating,1066977,Livingston,,53,,,5,,,,,,,,,,,,,,,
null,,confidence_buffer,1067079,confidence_buffer,,null,,,,,,,,,,,,,,,,,,
1140.0999999046326,,pt2_memorable_rating,1068221,Livingston,,53,,,5,,,,,,,,,,,,,,,
null,,confidence_buffer,1068323,confidence_buffer,,null,,,,,,,,,,,,,,,,,,
1582.9000000953674,,recognition_phase,1069908,Livingston,,49,,,,,,old,1,0.6122448979591837,,,,,,,,,,
null,,confidence_buffer,1070010,confidence_buffer,,null,,,,,,,,,,,,,,,,,,
null,,thebreak,1070512,break,,null,,,,,,,,,,,,,,,,,,
5610,,realistic_rating,1076124,Montelake,,53,Montelake,Fictional,5,,,,,,,,,,,,,,,
null,,confidence_buffer,1076227,confidence_buffer,,null,,,,,,,,,,,,,,,,,,
1830.5,,pt2_unique_rating,1078059,Montelake,,53,,,5,,,,,,,,,,,,,,,
null,,confidence_buffer,1078162,confidence_buffer,,null,,,,,,,,,,,,,,,,,,
1046.1000000238419,,pt2_memorable_rating,1079211,Montelake,,53,,,5,,,,,,,,,,,,,,,
null,,confidence_buffer,1079314,confidence_buffer,,null,,,,,,,,,,,,,,,,,,
1644.1999999284744,,recognition_phase,1080960,Montelake,,49,,,,,,old,0,0.6,,,,,,,,,,
null,,confidence_buffer,1081063,confidence_buffer,,null,,,,,,,,,,,,,,,,,,
null,,thebreak,1081565,break,,null,,,,,,,,,,,,,,,,,,
5059.899999976158,,realistic_rating,1086626,Healdsburg,,53,Healdsburg,US,5,,,,,,,,,,,,,,,
null,,confidence_buffer,1086728,confidence_buffer,,null,,,,,,,,,,,,,,,,,,
3842.7999999523163,,pt2_unique_rating,1090573,Healdsburg,,53,,,5,,,,,,,,,,,,,,,
null,,confidence_buffer,1090675,confidence_buffer,,null,,,,,,,,,,,,,,,,,,
1440.3999999761581,,pt2_memorable_rating,1092120,Healdsburg,,53,,,5,,,,,,,,,,,,,,,
null,,confidence_buffer,1092222,confidence_buffer,,null,,,,,,,,,,,,,,,,,,
3241.2000000476837,,recognition_phase,1095464,Healdsburg,,52,,,,,,new,1,0.6078431372549019,,,,,,,,,,
null,,confidence_buffer,1095566,confidence_buffer,,null,,,,,,,,,,,,,,,,,,
null,,thebreak,1096068,break,,null,,,,,,,,,,,,,,,,,,
8509.299999952316,,realistic_rating,1104579,Hanover,,53,Hanover,US,5,,,,,,,,,,,,,,,
null,,confidence_buffer,1104680,confidence_buffer,,null,,,,,,,,,,,,,,,,,,
3681.399999976158,,pt2_unique_rating,1108363,Hanover,,49,,,1,,,,,,,,,,,,,,,
null,,confidence_buffer,1108465,confidence_buffer,,null,,,,,,,,,,,,,,,,,,
2675.899999976158,,pt2_memorable_rating,1111144,Hanover,,49,,,1,,,,,,,,,,,,,,,
null,,confidence_buffer,1111246,confidence_buffer,,null,,,,,,,,,,,,,,,,,,
3767.2999999523163,,recognition_phase,1115015,Hanover,,52,,,,,,new,1,0.6153846153846154,,,,,,,,,,
null,,confidence_buffer,1115117,confidence_buffer,,null,,,,,,,,,,,,,,,,,,
null,,thebreak,1115618,break,,null,,,,,,,,,,,,,,,,,,
3544.1999999284744,,realistic_rating,1119164,Peoria,,53,Peoria,US,5,,,,,,,,,,,,,,,
null,,confidence_buffer,1119267,confidence_buffer,,null,,,,,,,,,,,,,,,,,,
3777.2000000476837,,pt2_unique_rating,1123046,Peoria,,51,,,3,,,,,,,,,,,,,,,
null,,confidence_buffer,1123148,confidence_buffer,,null,,,,,,,,,,,,,,,,,,
3374.600000023842,,pt2_memorable_rating,1126525,Peoria,,53,,,5,,,,,,,,,,,,,,,
null,,confidence_buffer,1126628,confidence_buffer,,null,,,,,,,,,,,,,,,,,,
2991.100000023842,,recognition_phase,1129621,Peoria,,50,,,,,,old,1,0.6226415094339622,,,,,,,,,,
null,,confidence_buffer,1129723,confidence_buffer,,null,,,,,,,,,,,,,,,,,,
null,,thebreak,1130225,break,,null,,,,,,,,,,,,,,,,,,
5688.5,,realistic_rating,1135916,Berkeley Springs,,51,Berkeley Springs,US,3,,,,,,,,,,,,,,,
null,,confidence_buffer,1136018,confidence_buffer,,null,,,,,,,,,,,,,,,,,,
3348.5,,pt2_unique_rating,1139369,Berkeley Springs,,52,,,4,,,,,,,,,,,,,,,
null,,confidence_buffer,1139471,confidence_buffer,,null,,,,,,,,,,,,,,,,,,
1348.2999999523163,,pt2_memorable_rating,1140821,Berkeley Springs,,52,,,4,,,,,,,,,,,,,,,
null,,confidence_buffer,1140924,confidence_buffer,,null,,,,,,,,,,,,,,,,,,
3211.100000023842,,recognition_phase,1144137,Berkeley Springs,,51,,,,,,new,0,0.6111111111111112,,,,,,,,,,
null,,confidence_buffer,1144239,confidence_buffer,,null,,,,,,,,,,,,,,,,,,
null,,thebreak,1144741,break,,null,,,,,,,,,,,,,,,,,,
7919.300000071526,,realistic_rating,1152662,Duck,,49,Duck,US,1,,,,,,,,,,,,,,,
null,,confidence_buffer,1152764,confidence_buffer,,null,,,,,,,,,,,,,,,,,,
2129.2000000476837,,probe_rating,1154895,probe_rating,,51,,,,3,1,,,,,,,,,,,,,
null,,confidence_buffer,1154998,confidence_buffer,,null,,,,,,,,,,,,,,,,,,
5231.399999976158,,pt2_unique_rating,1160231,Duck,,53,,,5,,,,,,,,,,,,,,,
null,,confidence_buffer,1160333,confidence_buffer,,null,,,,,,,,,,,,,,,,,,
4053.2000000476837,,pt2_memorable_rating,1164388,Duck,,53,,,5,,,,,,,,,,,,,,,
null,,confidence_buffer,1164490,confidence_buffer,,null,,,,,,,,,,,,,,,,,,
3490.7999999523163,,recognition_phase,1167983,Duck,,52,,,,,,new,0,0.6,,,,,,,,,,
null,,confidence_buffer,1168085,confidence_buffer,,null,,,,,,,,,,,,,,,,,,
null,,thebreak,1168587,break,,null,,,,,,,,,,,,,,,,,,
3253.7999999523163,,realistic_rating,1171843,Albuquerque,,53,Albuquerque,US,5,,,,,,,,,,,,,,,
null,,confidence_buffer,1171945,confidence_buffer,,null,,,,,,,,,,,,,,,,,,
5635.299999952316,,pt2_unique_rating,1177583,Albuquerque,,52,,,4,,,,,,,,,,,,,,,
null,,confidence_buffer,1177685,confidence_buffer,,null,,,,,,,,,,,,,,,,,,
2110.600000023842,,pt2_memorable_rating,1179797,Albuquerque,,52,,,4,,,,,,,,,,,,,,,
null,,confidence_buffer,1179899,confidence_buffer,,null,,,,,,,,,,,,,,,,,,
4410.5,,recognition_phase,1184312,Albuquerque,,49,,,,,,old,1,0.6071428571428571,,,,,,,,,,
null,,confidence_buffer,1184414,confidence_buffer,,null,,,,,,,,,,,,,,,,,,
null,,thebreak,1184916,break,,null,,,,,,,,,,,,,,,,,,
2747.100000023842,,realistic_rating,1187665,Park City,,53,Park City,US,5,,,,,,,,,,,,,,,
null,,confidence_buffer,1187768,confidence_buffer,,null,,,,,,,,,,,,,,,,,,
3663.1999999284744,,pt2_unique_rating,1191433,Park City,,51,,,3,,,,,,,,,,,,,,,
null,,confidence_buffer,1191535,confidence_buffer,,null,,,,,,,,,,,,,,,,,,
3157.7999999523163,,pt2_memorable_rating,1194694,Park City,,50,,,2,,,,,,,,,,,,,,,
null,,confidence_buffer,1194796,confidence_buffer,,null,,,,,,,,,,,,,,,,,,
3015.6999999284744,,recognition_phase,1197814,Park City,,52,,,,,,new,1,0.6140350877192983,,,,,,,,,,
null,,confidence_buffer,1197917,confidence_buffer,,null,,,,,,,,,,,,,,,,,,
null,,thebreak,1198418,break,,null,,,,,,,,,,,,,,,,,,
4327.5,,realistic_rating,1202748,Millstone,,53,Millstone,Fictional,5,,,,,,,,,,,,,,,
null,,confidence_buffer,1202851,confidence_buffer,,null,,,,,,,,,,,,,,,,,,
4086,,pt2_unique_rating,1206938,Millstone,,50,,,2,,,,,,,,,,,,,,,
null,,confidence_buffer,1207040,confidence_buffer,,null,,,,,,,,,,,,,,,,,,
1929.6000000238419,,pt2_memorable_rating,1208971,Millstone,,50,,,2,,,,,,,,,,,,,,,
null,,confidence_buffer,1209072,confidence_buffer,,null,,,,,,,,,,,,,,,,,,
3419.4000000953674,,recognition_phase,1212494,Millstone,,52,,,,,,new,1,0.6206896551724138,,,,,,,,,,
null,,confidence_buffer,1212596,confidence_buffer,,null,,,,,,,,,,,,,,,,,,
null,,thebreak,1213098,break,,null,,,,,,,,,,,,,,,,,,
6468.399999976158,,realistic_rating,1219568,Baymarsh,,53,Baymarsh,Fictional,5,,,,,,,,,,,,,,,
null,,confidence_buffer,1219671,confidence_buffer,,null,,,,,,,,,,,,,,,,,,
2741.600000023842,,pt2_unique_rating,1222415,Baymarsh,,51,,,3,,,,,,,,,,,,,,,
null,,confidence_buffer,1222517,confidence_buffer,,null,,,,,,,,,,,,,,,,,,
1181.1000000238419,,pt2_memorable_rating,1223700,Baymarsh,,51,,,3,,,,,,,,,,,,,,,
null,,confidence_buffer,1223802,confidence_buffer,,null,,,,,,,,,,,,,,,,,,
2381.5,,recognition_phase,1226186,Baymarsh,,52,,,,,,new,0,0.6101694915254238,,,,,,,,,,
null,,confidence_buffer,1226288,confidence_buffer,,null,,,,,,,,,,,,,,,,,,
null,,thebreak,1226790,break,,null,,,,,,,,,,,,,,,,,,
2574.5,,realistic_rating,1229366,Lakehaven,,53,Lakehaven,Fictional,5,,,,,,,,,,,,,,,
null,,confidence_buffer,1229468,confidence_buffer,,null,,,,,,,,,,,,,,,,,,
3035.5,,pt2_unique_rating,1232505,Lakehaven,,50,,,2,,,,,,,,,,,,,,,
null,,confidence_buffer,1232607,confidence_buffer,,null,,,,,,,,,,,,,,,,,,
1032.2000000476837,,pt2_memorable_rating,1233642,Lakehaven,,50,,,2,,,,,,,,,,,,,,,
null,,confidence_buffer,1233744,confidence_buffer,,null,,,,,,,,,,,,,,,,,,
1668,,probe_rating,1235414,probe_rating,,51,,,,3,1,,,,,,,,,,,,,
null,,confidence_buffer,1235517,confidence_buffer,,null,,,,,,,,,,,,,,,,,,
2306.100000023842,,recognition_phase,1237825,Lakehaven,,52,,,,,,new,0,0.6,,,,,,,,,,
null,,confidence_buffer,1237927,confidence_buffer,,null,,,,,,,,,,,,,,,,,,
null,,thebreak,1238428,break,,null,,,,,,,,,,,,,,,,,,
,,survey,1401727,survey-questions,,,,,,,,,,,none,high,no,no strategies,have I heard of them,stands out,different,duck?,no,no
