rt,responses,trial_type,time_elapsed,stimulus,button_pressed,key_press,name_trial,city_type,rating,probe,probe_accuracy,response,correct,accuracy,problems,smooth,distraction,strategies,familiar,memorable,unique,realistic,similar,comments
8758.899999976158,{worker_id:671137bfe81fc6cf620ce313},id_enter,8764,,,,,,,,,,,,,,,,,,,,,
6250.800000011921,,fullscreen,15023,fullscreen,0,,,,,,,,,,,,,,,,,,,
7349.800000011921,,intro_0,22378,instruct,,32,,,,,,,,,,,,,,,,,,
6235.700000047684,,intro_1,28616,instruct,,32,,,,,,,,,,,,,,,,,,
6596,,intro_2,35214,instruct,,32,,,,,,,,,,,,,,,,,,
null,,instruct_dir_4,36717,instruct,,null,,,,,,,,,,,,,,,,,,
null,,thebreak,37219,break,,null,,,,,,,,,,,,,,,,,,
4340.899999976158,,familiar_rating,41562,Golden Trace,,49,Golden Trace,Fictional,1,,,,,,,,,,,,,,,
null,,confidence_buffer,41665,confidence_buffer,,null,,,,,,,,,,,,,,,,,,
8112.199999988079,,unique_rating,49779,Golden Trace,,51,,,3,,,,,,,,,,,,,,,
null,,confidence_buffer,49881,confidence_buffer,,null,,,,,,,,,,,,,,,,,,
3380.899999976158,,memorable_rating,53264,Golden Trace,,52,,,4,,,,,,,,,,,,,,,
null,,confidence_buffer,53367,confidence_buffer,,null,,,,,,,,,,,,,,,,,,
null,,thebreak,53869,break,,null,,,,,,,,,,,,,,,,,,
4678.199999988079,,familiar_rating,58549,Millstone,,50,Millstone,Fictional,2,,,,,,,,,,,,,,,
null,,confidence_buffer,58652,confidence_buffer,,null,,,,,,,,,,,,,,,,,,
2290.300000011921,,unique_rating,60944,Millstone,,50,,,2,,,,,,,,,,,,,,,
null,,confidence_buffer,61046,confidence_buffer,,null,,,,,,,,,,,,,,,,,,
2013,,memorable_rating,63061,Millstone,,50,,,2,,,,,,,,,,,,,,,
null,,confidence_buffer,63163,confidence_buffer,,null,,,,,,,,,,,,,,,,,,
null,,thebreak,63665,break,,null,,,,,,,,,,,,,,,,,,
4870.5,,familiar_rating,68537,Okoboji,,49,Okoboji,US,1,,,,,,,,,,,,,,,
null,,confidence_buffer,68640,confidence_buffer,,null,,,,,,,,,,,,,,,,,,
2302.600000023842,,unique_rating,70944,Okoboji,,53,,,5,,,,,,,,,,,,,,,
null,,confidence_buffer,71056,confidence_buffer,,null,,,,,,,,,,,,,,,,,,
2227.2000000476837,,memorable_rating,73285,Okoboji,,52,,,4,,,,,,,,,,,,,,,
null,,confidence_buffer,73390,confidence_buffer,,null,,,,,,,,,,,,,,,,,,
null,,thebreak,73892,break,,null,,,,,,,,,,,,,,,,,,
3202.199999988079,,familiar_rating,77096,New Verdan,,50,New Verdan,Fictional,2,,,,,,,,,,,,,,,
null,,confidence_buffer,77199,confidence_buffer,,null,,,,,,,,,,,,,,,,,,
1615.800000011921,,unique_rating,78816,New Verdan,,50,,,2,,,,,,,,,,,,,,,
null,,confidence_buffer,78920,confidence_buffer,,null,,,,,,,,,,,,,,,,,,
3166.600000023842,,probe_rating,82089,probe_rating,,51,,,,3,1,,,,,,,,,,,,,
null,,confidence_buffer,82193,confidence_buffer,,null,,,,,,,,,,,,,,,,,,
1416.0999999642372,,memorable_rating,83611,New Verdan,,50,,,2,,,,,,,,,,,,,,,
null,,confidence_buffer,83713,confidence_buffer,,null,,,,,,,,,,,,,,,,,,
null,,thebreak,84216,break,,null,,,,,,,,,,,,,,,,,,
5229.100000023842,,familiar_rating,89446,Gardnerville,,51,Gardnerville,US,3,,,,,,,,,,,,,,,
null,,confidence_buffer,89549,confidence_buffer,,null,,,,,,,,,,,,,,,,,,
3637.699999988079,,unique_rating,93188,Gardnerville,,50,,,2,,,,,,,,,,,,,,,
null,,confidence_buffer,93291,confidence_buffer,,null,,,,,,,,,,,,,,,,,,
3092.5,,memorable_rating,96385,Gardnerville,,50,,,2,,,,,,,,,,,,,,,
null,,confidence_buffer,96488,confidence_buffer,,null,,,,,,,,,,,,,,,,,,
null,,thebreak,96990,break,,null,,,,,,,,,,,,,,,,,,
3735.7999999523163,,familiar_rating,100728,Sisters,,52,Sisters,US,4,,,,,,,,,,,,,,,
null,,confidence_buffer,100831,confidence_buffer,,null,,,,,,,,,,,,,,,,,,
2266.599999964237,,unique_rating,103099,Sisters,,50,,,2,,,,,,,,,,,,,,,
null,,confidence_buffer,103202,confidence_buffer,,null,,,,,,,,,,,,,,,,,,
2621,,memorable_rating,105824,Sisters,,53,,,5,,,,,,,,,,,,,,,
null,,confidence_buffer,105934,confidence_buffer,,null,,,,,,,,,,,,,,,,,,
null,,thebreak,106436,break,,null,,,,,,,,,,,,,,,,,,
2869.699999988079,,familiar_rating,109309,Stonebrook,,53,Stonebrook,Fictional,5,,,,,,,,,,,,,,,
null,,confidence_buffer,109411,confidence_buffer,,null,,,,,,,,,,,,,,,,,,
1726.800000011921,,unique_rating,111140,Stonebrook,,49,,,1,,,,,,,,,,,,,,,
null,,confidence_buffer,111242,confidence_buffer,,null,,,,,,,,,,,,,,,,,,
1452.300000011921,,memorable_rating,112696,Stonebrook,,49,,,1,,,,,,,,,,,,,,,
null,,confidence_buffer,112798,confidence_buffer,,null,,,,,,,,,,,,,,,,,,
null,,thebreak,113300,break,,null,,,,,,,,,,,,,,,,,,
11380,,familiar_rating,124682,Folly Beach,,50,Folly Beach,US,2,,,,,,,,,,,,,,,
null,,confidence_buffer,124784,confidence_buffer,,null,,,,,,,,,,,,,,,,,,
1000.9000000357628,,unique_rating,125786,Folly Beach,,51,,,3,,,,,,,,,,,,,,,
null,,confidence_buffer,125890,confidence_buffer,,null,,,,,,,,,,,,,,,,,,
963.3999999761581,,memorable_rating,126855,Folly Beach,,51,,,3,,,,,,,,,,,,,,,
null,,confidence_buffer,126958,confidence_buffer,,null,,,,,,,,,,,,,,,,,,
null,,thebreak,127461,break,,null,,,,,,,,,,,,,,,,,,
3508.800000011921,,familiar_rating,130971,Sunmere,,51,Sunmere,Fictional,3,,,,,,,,,,,,,,,
null,,confidence_buffer,131075,confidence_buffer,,null,,,,,,,,,,,,,,,,,,
1986.2999999523163,,unique_rating,133062,Sunmere,,50,,,2,,,,,,,,,,,,,,,
null,,confidence_buffer,133165,confidence_buffer,,null,,,,,,,,,,,,,,,,,,
1435.3999999761581,,memorable_rating,134602,Sunmere,,49,,,1,,,,,,,,,,,,,,,
null,,confidence_buffer,134705,confidence_buffer,,null,,,,,,,,,,,,,,,,,,
null,,thebreak,135208,break,,null,,,,,,,,,,,,,,,,,,
2480.199999988079,,familiar_rating,137690,Claywater,,50,Claywater,Fictional,2,,,,,,,,,,,,,,,
null,,confidence_buffer,137793,confidence_buffer,,null,,,,,,,,,,,,,,,,,,
3616.600000023842,,unique_rating,141412,Claywater,,50,,,2,,,,,,,,,,,,,,,
null,,confidence_buffer,141514,confidence_buffer,,null,,,,,,,,,,,,,,,,,,
2166.5,,memorable_rating,143682,Claywater,,51,,,3,,,,,,,,,,,,,,,
null,,confidence_buffer,143785,confidence_buffer,,null,,,,,,,,,,,,,,,,,,
null,,thebreak,144287,break,,null,,,,,,,,,,,,,,,,,,
2857.5,,familiar_rating,147147,Hot Springs,,53,Hot Springs,US,5,,,,,,,,,,,,,,,
null,,confidence_buffer,147250,confidence_buffer,,null,,,,,,,,,,,,,,,,,,
1834.8999999761581,,unique_rating,149087,Hot Springs,,49,,,1,,,,,,,,,,,,,,,
null,,confidence_buffer,149190,confidence_buffer,,null,,,,,,,,,,,,,,,,,,
1384.1000000238419,,memorable_rating,150575,Hot Springs,,49,,,1,,,,,,,,,,,,,,,
null,,confidence_buffer,150678,confidence_buffer,,null,,,,,,,,,,,,,,,,,,
null,,thebreak,151180,break,,null,,,,,,,,,,,,,,,,,,
2332.099999964237,,familiar_rating,153514,Medora,,51,Medora,US,3,,,,,,,,,,,,,,,
null,,confidence_buffer,153617,confidence_buffer,,null,,,,,,,,,,,,,,,,,,
1938.699999988079,,unique_rating,155557,Medora,,50,,,2,,,,,,,,,,,,,,,
null,,confidence_buffer,155667,confidence_buffer,,null,,,,,,,,,,,,,,,,,,
1378.2000000476837,,memorable_rating,157047,Medora,,50,,,2,,,,,,,,,,,,,,,
null,,confidence_buffer,157150,confidence_buffer,,null,,,,,,,,,,,,,,,,,,
1664.3999999761581,,probe_rating,158815,probe_rating,,49,,,,1,1,,,,,,,,,,,,,
null,,confidence_buffer,158919,confidence_buffer,,null,,,,,,,,,,,,,,,,,,
null,,thebreak,159421,break,,null,,,,,,,,,,,,,,,,,,
7755.699999988079,,familiar_rating,167179,Meadowspire,,51,Meadowspire,Fictional,3,,,,,,,,,,,,,,,
null,,confidence_buffer,167282,confidence_buffer,,null,,,,,,,,,,,,,,,,,,
1352.800000011921,,unique_rating,168636,Meadowspire,,51,,,3,,,,,,,,,,,,,,,
null,,confidence_buffer,168739,confidence_buffer,,null,,,,,,,,,,,,,,,,,,
2098.199999988079,,probe_rating,170839,probe_rating,,49,,,,1,1,,,,,,,,,,,,,
null,,confidence_buffer,170943,confidence_buffer,,null,,,,,,,,,,,,,,,,,,
4788.599999964237,,memorable_rating,175733,Meadowspire,,50,,,2,,,,,,,,,,,,,,,
null,,confidence_buffer,175843,confidence_buffer,,null,,,,,,,,,,,,,,,,,,
null,,thebreak,176346,break,,null,,,,,,,,,,,,,,,,,,
3053,,familiar_rating,179400,Highvale,,51,Highvale,Fictional,3,,,,,,,,,,,,,,,
null,,confidence_buffer,179503,confidence_buffer,,null,,,,,,,,,,,,,,,,,,
963.7000000476837,,unique_rating,180469,Highvale,,50,,,2,,,,,,,,,,,,,,,
null,,confidence_buffer,180571,confidence_buffer,,null,,,,,,,,,,,,,,,,,,
1573.699999988079,,memorable_rating,182146,Highvale,,50,,,2,,,,,,,,,,,,,,,
null,,confidence_buffer,182249,confidence_buffer,,null,,,,,,,,,,,,,,,,,,
null,,thebreak,182751,break,,null,,,,,,,,,,,,,,,,,,
1770.800000011921,,familiar_rating,184523,Albuquerque,,53,Albuquerque,US,5,,,,,,,,,,,,,,,
null,,confidence_buffer,184626,confidence_buffer,,null,,,,,,,,,,,,,,,,,,
1936.9000000357628,,unique_rating,186564,Albuquerque,,50,,,2,,,,,,,,,,,,,,,
null,,confidence_buffer,186667,confidence_buffer,,null,,,,,,,,,,,,,,,,,,
77.19999998807907,,memorable_rating,186746,Albuquerque,,50,,,2,,,,,,,,,,,,,,,
null,,confidence_buffer,186848,confidence_buffer,,null,,,,,,,,,,,,,,,,,,
null,,thebreak,187351,break,,null,,,,,,,,,,,,,,,,,,
4757.199999988079,,familiar_rating,192109,Hawthorne Bluffs,,51,Hawthorne Bluffs,Fictional,3,,,,,,,,,,,,,,,
null,,confidence_buffer,192212,confidence_buffer,,null,,,,,,,,,,,,,,,,,,
741.4000000357628,,unique_rating,192955,Hawthorne Bluffs,,50,,,2,,,,,,,,,,,,,,,
null,,confidence_buffer,193057,confidence_buffer,,null,,,,,,,,,,,,,,,,,,
1222.0999999642372,,memorable_rating,194281,Hawthorne Bluffs,,50,,,2,,,,,,,,,,,,,,,
null,,confidence_buffer,194387,confidence_buffer,,null,,,,,,,,,,,,,,,,,,
null,,thebreak,194890,break,,null,,,,,,,,,,,,,,,,,,
2452.2999999523163,,familiar_rating,197344,Natchez,,53,Natchez,US,5,,,,,,,,,,,,,,,
null,,confidence_buffer,197447,confidence_buffer,,null,,,,,,,,,,,,,,,,,,
2509.600000023842,,unique_rating,199958,Natchez,,49,,,1,,,,,,,,,,,,,,,
null,,confidence_buffer,200061,confidence_buffer,,null,,,,,,,,,,,,,,,,,,
1406.9000000357628,,memorable_rating,201469,Natchez,,49,,,1,,,,,,,,,,,,,,,
null,,confidence_buffer,201572,confidence_buffer,,null,,,,,,,,,,,,,,,,,,
null,,thebreak,202083,break,,null,,,,,,,,,,,,,,,,,,
2901.199999988079,,familiar_rating,204986,Crestwood,,52,Crestwood,Fictional,4,,,,,,,,,,,,,,,
null,,confidence_buffer,205089,confidence_buffer,,null,,,,,,,,,,,,,,,,,,
1279.3999999761581,,unique_rating,206370,Crestwood,,49,,,1,,,,,,,,,,,,,,,
null,,confidence_buffer,206473,confidence_buffer,,null,,,,,,,,,,,,,,,,,,
913.2000000476837,,memorable_rating,207387,Crestwood,,49,,,1,,,,,,,,,,,,,,,
null,,confidence_buffer,207491,confidence_buffer,,null,,,,,,,,,,,,,,,,,,
null,,thebreak,207993,break,,null,,,,,,,,,,,,,,,,,,
2450.399999976158,,familiar_rating,210445,Custer,,51,Custer,US,3,,,,,,,,,,,,,,,
null,,confidence_buffer,210548,confidence_buffer,,null,,,,,,,,,,,,,,,,,,
2847,,unique_rating,213396,Custer,,49,,,1,,,,,,,,,,,,,,,
null,,confidence_buffer,213499,confidence_buffer,,null,,,,,,,,,,,,,,,,,,
1033.9000000357628,,memorable_rating,214534,Custer,,49,,,1,,,,,,,,,,,,,,,
null,,confidence_buffer,214636,confidence_buffer,,null,,,,,,,,,,,,,,,,,,
null,,thebreak,215139,break,,null,,,,,,,,,,,,,,,,,,
3245.199999988079,,familiar_rating,218385,Delaware City,,50,Delaware City,US,2,,,,,,,,,,,,,,,
null,,confidence_buffer,218488,confidence_buffer,,null,,,,,,,,,,,,,,,,,,
1458.699999988079,,unique_rating,219948,Delaware City,,49,,,1,,,,,,,,,,,,,,,
null,,confidence_buffer,220051,confidence_buffer,,null,,,,,,,,,,,,,,,,,,
907.0999999642372,,memorable_rating,220959,Delaware City,,49,,,1,,,,,,,,,,,,,,,
null,,confidence_buffer,221061,confidence_buffer,,null,,,,,,,,,,,,,,,,,,
null,,thebreak,221564,break,,null,,,,,,,,,,,,,,,,,,
3405.5,,familiar_rating,224971,Redgrove,,52,Redgrove,Fictional,4,,,,,,,,,,,,,,,
null,,confidence_buffer,225074,confidence_buffer,,null,,,,,,,,,,,,,,,,,,
12814.799999952316,,unique_rating,237891,Redgrove,,49,,,1,,,,,,,,,,,,,,,
null,,confidence_buffer,237993,confidence_buffer,,null,,,,,,,,,,,,,,,,,,
1029.300000011921,,memorable_rating,239024,Redgrove,,49,,,1,,,,,,,,,,,,,,,
null,,confidence_buffer,239126,confidence_buffer,,null,,,,,,,,,,,,,,,,,,
2210.900000035763,,probe_rating,241338,probe_rating,,53,,,,5,1,,,,,,,,,,,,,
null,,confidence_buffer,241442,confidence_buffer,,null,,,,,,,,,,,,,,,,,,
null,,thebreak,241944,break,,null,,,,,,,,,,,,,,,,,,
5491.100000023842,,familiar_rating,247437,Ravenport,,52,Ravenport,Fictional,4,,,,,,,,,,,,,,,
null,,confidence_buffer,247540,confidence_buffer,,null,,,,,,,,,,,,,,,,,,
1660.199999988079,,unique_rating,249202,Ravenport,,49,,,1,,,,,,,,,,,,,,,
null,,confidence_buffer,249304,confidence_buffer,,null,,,,,,,,,,,,,,,,,,
824.5,,memorable_rating,250130,Ravenport,,49,,,1,,,,,,,,,,,,,,,
null,,confidence_buffer,250233,confidence_buffer,,null,,,,,,,,,,,,,,,,,,
null,,thebreak,250739,break,,null,,,,,,,,,,,,,,,,,,
2376.2999999523163,,familiar_rating,253117,Yukon,,53,Yukon,US,5,,,,,,,,,,,,,,,
null,,confidence_buffer,253219,confidence_buffer,,null,,,,,,,,,,,,,,,,,,
2354.5,,unique_rating,255575,Yukon,,50,,,2,,,,,,,,,,,,,,,
null,,confidence_buffer,255678,confidence_buffer,,null,,,,,,,,,,,,,,,,,,
684.9000000357628,,memorable_rating,256364,Yukon,,49,,,1,,,,,,,,,,,,,,,
null,,confidence_buffer,256467,confidence_buffer,,null,,,,,,,,,,,,,,,,,,
null,,thebreak,256969,break,,null,,,,,,,,,,,,,,,,,,
2093.199999988079,,familiar_rating,259064,Livingston,,53,Livingston,US,5,,,,,,,,,,,,,,,
null,,confidence_buffer,259167,confidence_buffer,,null,,,,,,,,,,,,,,,,,,
1156.300000011921,,unique_rating,260325,Livingston,,49,,,1,,,,,,,,,,,,,,,
null,,confidence_buffer,260427,confidence_buffer,,null,,,,,,,,,,,,,,,,,,
977,,memorable_rating,261405,Livingston,,49,,,1,,,,,,,,,,,,,,,
null,,confidence_buffer,261507,confidence_buffer,,null,,,,,,,,,,,,,,,,,,
null,,thebreak,262009,break,,null,,,,,,,,,,,,,,,,,,
4838.399999976158,,familiar_rating,266849,Bisbee,,51,Bisbee,US,3,,,,,,,,,,,,,,,
null,,confidence_buffer,266952,confidence_buffer,,null,,,,,,,,,,,,,,,,,,
2698,,unique_rating,269652,Bisbee,,50,,,2,,,,,,,,,,,,,,,
null,,confidence_buffer,269755,confidence_buffer,,null,,,,,,,,,,,,,,,,,,
904.8000000119209,,memorable_rating,270661,Bisbee,,50,,,2,,,,,,,,,,,,,,,
null,,confidence_buffer,270763,confidence_buffer,,null,,,,,,,,,,,,,,,,,,
null,,thebreak,271265,break,,null,,,,,,,,,,,,,,,,,,
3424.100000023842,,familiar_rating,274691,Briarfield,,51,Briarfield,Fictional,3,,,,,,,,,,,,,,,
null,,confidence_buffer,274795,confidence_buffer,,null,,,,,,,,,,,,,,,,,,
1971,,unique_rating,276767,Briarfield,,49,,,1,,,,,,,,,,,,,,,
null,,confidence_buffer,276870,confidence_buffer,,null,,,,,,,,,,,,,,,,,,
1540.300000011921,,probe_rating,278412,probe_rating,,53,,,,5,1,,,,,,,,,,,,,
null,,confidence_buffer,278514,confidence_buffer,,null,,,,,,,,,,,,,,,,,,
2601.600000023842,,memorable_rating,281117,Briarfield,,49,,,1,,,,,,,,,,,,,,,
null,,confidence_buffer,281222,confidence_buffer,,null,,,,,,,,,,,,,,,,,,
null,,thebreak,281724,break,,null,,,,,,,,,,,,,,,,,,
3347.199999988079,,familiar_rating,285074,Orchard Bend,,50,Orchard Bend,Fictional,2,,,,,,,,,,,,,,,
null,,confidence_buffer,285177,confidence_buffer,,null,,,,,,,,,,,,,,,,,,
1837.5999999642372,,unique_rating,287016,Orchard Bend,,52,,,4,,,,,,,,,,,,,,,
null,,confidence_buffer,287119,confidence_buffer,,null,,,,,,,,,,,,,,,,,,
1438.6000000238419,,memorable_rating,288559,Orchard Bend,,52,,,4,,,,,,,,,,,,,,,
null,,confidence_buffer,288661,confidence_buffer,,null,,,,,,,,,,,,,,,,,,
null,,thebreak,289163,break,,null,,,,,,,,,,,,,,,,,,
2126.600000023842,,familiar_rating,291291,West Palm Beach,,53,West Palm Beach,US,5,,,,,,,,,,,,,,,
null,,confidence_buffer,291395,confidence_buffer,,null,,,,,,,,,,,,,,,,,,
1299.199999988079,,unique_rating,292696,West Palm Beach,,49,,,1,,,,,,,,,,,,,,,
null,,confidence_buffer,292798,confidence_buffer,,null,,,,,,,,,,,,,,,,,,
1361.0999999642372,,memorable_rating,294161,West Palm Beach,,49,,,1,,,,,,,,,,,,,,,
null,,confidence_buffer,294263,confidence_buffer,,null,,,,,,,,,,,,,,,,,,
null,,thebreak,294765,break,,null,,,,,,,,,,,,,,,,,,
2006.5,,familiar_rating,296773,Baymarsh,,50,Baymarsh,Fictional,2,,,,,,,,,,,,,,,
null,,confidence_buffer,296876,confidence_buffer,,null,,,,,,,,,,,,,,,,,,
1345.300000011921,,unique_rating,298223,Baymarsh,,49,,,1,,,,,,,,,,,,,,,
null,,confidence_buffer,298325,confidence_buffer,,null,,,,,,,,,,,,,,,,,,
1243.6000000238419,,memorable_rating,299570,Baymarsh,,50,,,2,,,,,,,,,,,,,,,
null,,confidence_buffer,299686,confidence_buffer,,null,,,,,,,,,,,,,,,,,,
null,,thebreak,300188,break,,null,,,,,,,,,,,,,,,,,,
2156.100000023842,,familiar_rating,302346,Cape May,,50,Cape May,US,2,,,,,,,,,,,,,,,
null,,confidence_buffer,302450,confidence_buffer,,null,,,,,,,,,,,,,,,,,,
22049.100000023842,,unique_rating,324500,Cape May,,49,,,1,,,,,,,,,,,,,,,
null,,confidence_buffer,324603,confidence_buffer,,null,,,,,,,,,,,,,,,,,,
825.4000000357628,,memorable_rating,325429,Cape May,,49,,,1,,,,,,,,,,,,,,,
null,,confidence_buffer,325533,confidence_buffer,,null,,,,,,,,,,,,,,,,,,
1358,,probe_rating,326893,probe_rating,,51,,,,3,1,,,,,,,,,,,,,
null,,confidence_buffer,326997,confidence_buffer,,null,,,,,,,,,,,,,,,,,,
null,,thebreak,327499,break,,null,,,,,,,,,,,,,,,,,,
7424,,intro_0,334924,instruct,,32,,,,,,,,,,,,,,,,,,
6852.200000047684,,intro_1,341778,instruct,,32,,,,,,,,,,,,,,,,,,
3914.600000023842,,intro_2,345693,instruct,,32,,,,,,,,,,,,,,,,,,
null,,instruct_dir_4,347196,instruct,,null,,,,,,,,,,,,,,,,,,
5188.600000023842,,realistic_rating,352386,Millstone,,52,Millstone,Fictional,4,,,,,,,,,,,,,,,
null,,confidence_buffer,352489,confidence_buffer,,null,,,,,,,,,,,,,,,,,,
3128.699999988079,,pt2_unique_rating,355620,Millstone,,50,,,2,,,,,,,,,,,,,,,
null,,confidence_buffer,355723,confidence_buffer,,null,,,,,,,,,,,,,,,,,,
1464.6000000238419,,pt2_memorable_rating,357189,Millstone,,50,,,2,,,,,,,,,,,,,,,
null,,confidence_buffer,357292,confidence_buffer,,null,,,,,,,,,,,,,,,,,,
3530.199999988079,,recognition_phase,360824,Millstone,,49,,,,,,old,1,1,,,,,,,,,,
null,,confidence_buffer,360927,confidence_buffer,,null,,,,,,,,,,,,,,,,,,
null,,thebreak,361429,break,,null,,,,,,,,,,,,,,,,,,
2808.7999999523163,,realistic_rating,364239,Abilene,,53,Abilene,US,5,,,,,,,,,,,,,,,
null,,confidence_buffer,364342,confidence_buffer,,null,,,,,,,,,,,,,,,,,,
4138.899999976158,,pt2_unique_rating,368482,Abilene,,49,,,1,,,,,,,,,,,,,,,
null,,confidence_buffer,368584,confidence_buffer,,null,,,,,,,,,,,,,,,,,,
10185.199999988079,,pt2_memorable_rating,378771,Abilene,,52,,,4,,,,,,,,,,,,,,,
null,,confidence_buffer,378874,confidence_buffer,,null,,,,,,,,,,,,,,,,,,
1957.2000000476837,,recognition_phase,380833,Abilene,,52,,,,,,new,1,1,,,,,,,,,,
null,,confidence_buffer,380935,confidence_buffer,,null,,,,,,,,,,,,,,,,,,
null,,thebreak,381437,break,,null,,,,,,,,,,,,,,,,,,
2336.099999964237,,realistic_rating,383776,Duck,,49,Duck,US,1,,,,,,,,,,,,,,,
null,,confidence_buffer,383879,confidence_buffer,,null,,,,,,,,,,,,,,,,,,
1999.5,,pt2_unique_rating,385880,Duck,,52,,,4,,,,,,,,,,,,,,,
null,,confidence_buffer,385984,confidence_buffer,,null,,,,,,,,,,,,,,,,,,
1273.800000011921,,pt2_memorable_rating,387259,Duck,,52,,,4,,,,,,,,,,,,,,,
null,,confidence_buffer,387362,confidence_buffer,,null,,,,,,,,,,,,,,,,,,
2276.400000035763,,recognition_phase,389640,Duck,,52,,,,,,new,1,1,,,,,,,,,,
null,,confidence_buffer,389742,confidence_buffer,,null,,,,,,,,,,,,,,,,,,
null,,thebreak,390244,break,,null,,,,,,,,,,,,,,,,,,
3880.600000023842,,realistic_rating,394125,Delaro Park,,52,Delaro Park,Fictional,4,,,,,,,,,,,,,,,
null,,confidence_buffer,394227,confidence_buffer,,null,,,,,,,,,,,,,,,,,,
1831.199999988079,,pt2_unique_rating,396060,Delaro Park,,51,,,3,,,,,,,,,,,,,,,
null,,confidence_buffer,396162,confidence_buffer,,null,,,,,,,,,,,,,,,,,,
2212.5,,pt2_memorable_rating,398376,Delaro Park,,50,,,2,,,,,,,,,,,,,,,
null,,confidence_buffer,398479,confidence_buffer,,null,,,,,,,,,,,,,,,,,,
2266.5,,recognition_phase,400747,Delaro Park,,52,,,,,,new,1,1,,,,,,,,,,
null,,confidence_buffer,400856,confidence_buffer,,null,,,,,,,,,,,,,,,,,,
null,,thebreak,401358,break,,null,,,,,,,,,,,,,,,,,,
9829.5,,realistic_rating,411189,Cape May,,52,Cape May,US,4,,,,,,,,,,,,,,,
null,,confidence_buffer,411292,confidence_buffer,,null,,,,,,,,,,,,,,,,,,
3185.5,,pt2_unique_rating,414479,Cape May,,50,,,2,,,,,,,,,,,,,,,
null,,confidence_buffer,414581,confidence_buffer,,null,,,,,,,,,,,,,,,,,,
1625.800000011921,,pt2_memorable_rating,416209,Cape May,,49,,,1,,,,,,,,,,,,,,,
null,,confidence_buffer,416312,confidence_buffer,,null,,,,,,,,,,,,,,,,,,
12889.699999988079,,recognition_phase,429203,Cape May,,49,,,,,,old,1,1,,,,,,,,,,
null,,confidence_buffer,429306,confidence_buffer,,null,,,,,,,,,,,,,,,,,,
null,,thebreak,429808,break,,null,,,,,,,,,,,,,,,,,,
2764.2999999523163,,realistic_rating,432574,Maplehurst,,51,Maplehurst,Fictional,3,,,,,,,,,,,,,,,
null,,confidence_buffer,432677,confidence_buffer,,null,,,,,,,,,,,,,,,,,,
1473.9000000357628,,pt2_unique_rating,434152,Maplehurst,,51,,,3,,,,,,,,,,,,,,,
null,,confidence_buffer,434254,confidence_buffer,,null,,,,,,,,,,,,,,,,,,
1537.4000000357628,,pt2_memorable_rating,435794,Maplehurst,,51,,,3,,,,,,,,,,,,,,,
null,,confidence_buffer,435897,confidence_buffer,,null,,,,,,,,,,,,,,,,,,
1372.8999999761581,,recognition_phase,437271,Maplehurst,,52,,,,,,new,1,1,,,,,,,,,,
null,,confidence_buffer,437375,confidence_buffer,,null,,,,,,,,,,,,,,,,,,
null,,thebreak,437877,break,,null,,,,,,,,,,,,,,,,,,
2271.099999964237,,realistic_rating,440149,Hot Springs,,53,Hot Springs,US,5,,,,,,,,,,,,,,,
null,,confidence_buffer,440253,confidence_buffer,,null,,,,,,,,,,,,,,,,,,
2836.800000011921,,pt2_unique_rating,443091,Hot Springs,,50,,,2,,,,,,,,,,,,,,,
null,,confidence_buffer,443194,confidence_buffer,,null,,,,,,,,,,,,,,,,,,
1831.8999999761581,,pt2_memorable_rating,445028,Hot Springs,,49,,,1,,,,,,,,,,,,,,,
null,,confidence_buffer,445131,confidence_buffer,,null,,,,,,,,,,,,,,,,,,
1396.4000000357628,,recognition_phase,446529,Hot Springs,,49,,,,,,old,1,1,,,,,,,,,,
null,,confidence_buffer,446632,confidence_buffer,,null,,,,,,,,,,,,,,,,,,
null,,thebreak,447134,break,,null,,,,,,,,,,,,,,,,,,
2283,,realistic_rating,449419,Baymarsh,,51,Baymarsh,Fictional,3,,,,,,,,,,,,,,,
null,,confidence_buffer,449522,confidence_buffer,,null,,,,,,,,,,,,,,,,,,
1543.699999988079,,pt2_unique_rating,451067,Baymarsh,,50,,,2,,,,,,,,,,,,,,,
null,,confidence_buffer,451170,confidence_buffer,,null,,,,,,,,,,,,,,,,,,
953.0999999642372,,pt2_memorable_rating,452124,Baymarsh,,50,,,2,,,,,,,,,,,,,,,
null,,confidence_buffer,452226,confidence_buffer,,null,,,,,,,,,,,,,,,,,,
1361.1000000238419,,recognition_phase,453589,Baymarsh,,49,,,,,,old,1,1,,,,,,,,,,
null,,confidence_buffer,453692,confidence_buffer,,null,,,,,,,,,,,,,,,,,,
null,,thebreak,454194,break,,null,,,,,,,,,,,,,,,,,,
2586.5,,realistic_rating,456782,Redgrove,,51,Redgrove,Fictional,3,,,,,,,,,,,,,,,
null,,confidence_buffer,456886,confidence_buffer,,null,,,,,,,,,,,,,,,,,,
1894.300000011921,,probe_rating,458781,probe_rating,,52,,,,4,1,,,,,,,,,,,,,
null,,confidence_buffer,458885,confidence_buffer,,null,,,,,,,,,,,,,,,,,,
1715,,pt2_unique_rating,460602,Redgrove,,50,,,2,,,,,,,,,,,,,,,
null,,confidence_buffer,460704,confidence_buffer,,null,,,,,,,,,,,,,,,,,,
1106.0999999642372,,pt2_memorable_rating,461813,Redgrove,,50,,,2,,,,,,,,,,,,,,,
null,,confidence_buffer,461915,confidence_buffer,,null,,,,,,,,,,,,,,,,,,
1495.5,,recognition_phase,463412,Redgrove,,51,,,,,,new,0,0.8888888888888888,,,,,,,,,,
null,,confidence_buffer,463515,confidence_buffer,,null,,,,,,,,,,,,,,,,,,
null,,thebreak,464017,break,,null,,,,,,,,,,,,,,,,,,
2556.5,,realistic_rating,466575,Orchard Bend,,52,Orchard Bend,Fictional,4,,,,,,,,,,,,,,,
null,,confidence_buffer,466681,confidence_buffer,,null,,,,,,,,,,,,,,,,,,
3644.899999976158,,pt2_unique_rating,470327,Orchard Bend,,51,,,3,,,,,,,,,,,,,,,
null,,confidence_buffer,470431,confidence_buffer,,null,,,,,,,,,,,,,,,,,,
1380.3999999761581,,pt2_memorable_rating,471813,Orchard Bend,,52,,,4,,,,,,,,,,,,,,,
null,,confidence_buffer,471915,confidence_buffer,,null,,,,,,,,,,,,,,,,,,
1880.699999988079,,recognition_phase,473798,Orchard Bend,,49,,,,,,old,1,0.9,,,,,,,,,,
null,,confidence_buffer,473900,confidence_buffer,,null,,,,,,,,,,,,,,,,,,
null,,thebreak,474402,break,,null,,,,,,,,,,,,,,,,,,
3671.800000011921,,realistic_rating,478075,Custer,,51,Custer,US,3,,,,,,,,,,,,,,,
null,,confidence_buffer,478179,confidence_buffer,,null,,,,,,,,,,,,,,,,,,
1486,,probe_rating,479666,probe_rating,,51,,,,3,1,,,,,,,,,,,,,
null,,confidence_buffer,479770,confidence_buffer,,null,,,,,,,,,,,,,,,,,,
2320.100000023842,,pt2_unique_rating,482093,Custer,,50,,,2,,,,,,,,,,,,,,,
null,,confidence_buffer,482196,confidence_buffer,,null,,,,,,,,,,,,,,,,,,
1154.2000000476837,,pt2_memorable_rating,483352,Custer,,50,,,2,,,,,,,,,,,,,,,
null,,confidence_buffer,483455,confidence_buffer,,null,,,,,,,,,,,,,,,,,,
1712.4000000357628,,recognition_phase,485169,Custer,,51,,,,,,new,0,0.8181818181818182,,,,,,,,,,
null,,confidence_buffer,485272,confidence_buffer,,null,,,,,,,,,,,,,,,,,,
null,,thebreak,485774,break,,null,,,,,,,,,,,,,,,,,,
2951,,realistic_rating,488726,Leesburg,,53,Leesburg,US,5,,,,,,,,,,,,,,,
null,,confidence_buffer,488829,confidence_buffer,,null,,,,,,,,,,,,,,,,,,
3574,,pt2_unique_rating,492404,Leesburg,,49,,,1,,,,,,,,,,,,,,,
null,,confidence_buffer,492517,confidence_buffer,,null,,,,,,,,,,,,,,,,,,
910.1000000238419,,pt2_memorable_rating,493429,Leesburg,,49,,,1,,,,,,,,,,,,,,,
null,,confidence_buffer,493531,confidence_buffer,,null,,,,,,,,,,,,,,,,,,
2076.800000011921,,recognition_phase,495610,Leesburg,,52,,,,,,new,1,0.8333333333333334,,,,,,,,,,
null,,confidence_buffer,495712,confidence_buffer,,null,,,,,,,,,,,,,,,,,,
null,,thebreak,496214,break,,null,,,,,,,,,,,,,,,,,,
2667.300000011921,,realistic_rating,498883,Claywater,,51,Claywater,Fictional,3,,,,,,,,,,,,,,,
null,,confidence_buffer,498986,confidence_buffer,,null,,,,,,,,,,,,,,,,,,
916.0999999642372,,pt2_unique_rating,499904,Claywater,,50,,,2,,,,,,,,,,,,,,,
null,,confidence_buffer,500006,confidence_buffer,,null,,,,,,,,,,,,,,,,,,
1366.800000011921,,pt2_memorable_rating,501374,Claywater,,50,,,2,,,,,,,,,,,,,,,
null,,confidence_buffer,501477,confidence_buffer,,null,,,,,,,,,,,,,,,,,,
1892.8999999761581,,recognition_phase,503372,Claywater,,50,,,,,,old,1,0.8461538461538461,,,,,,,,,,
null,,confidence_buffer,503475,confidence_buffer,,null,,,,,,,,,,,,,,,,,,
null,,thebreak,503977,break,,null,,,,,,,,,,,,,,,,,,
3940.399999976158,,realistic_rating,507920,Racine,,52,Racine,US,4,,,,,,,,,,,,,,,
null,,confidence_buffer,508023,confidence_buffer,,null,,,,,,,,,,,,,,,,,,
1632.5,,pt2_unique_rating,509657,Racine,,50,,,2,,,,,,,,,,,,,,,
null,,confidence_buffer,509760,confidence_buffer,,null,,,,,,,,,,,,,,,,,,
668.4000000357628,,pt2_memorable_rating,510430,Racine,,50,,,2,,,,,,,,,,,,,,,
null,,confidence_buffer,510532,confidence_buffer,,null,,,,,,,,,,,,,,,,,,
1626.0999999642372,,recognition_phase,512159,Racine,,52,,,,,,new,1,0.8571428571428571,,,,,,,,,,
null,,confidence_buffer,512262,confidence_buffer,,null,,,,,,,,,,,,,,,,,,
null,,thebreak,512763,break,,null,,,,,,,,,,,,,,,,,,
2856.600000023842,,realistic_rating,515622,Delaware City,,53,Delaware City,US,5,,,,,,,,,,,,,,,
null,,confidence_buffer,515725,confidence_buffer,,null,,,,,,,,,,,,,,,,,,
1262,,probe_rating,516988,probe_rating,,52,,,,4,1,,,,,,,,,,,,,
null,,confidence_buffer,517092,confidence_buffer,,null,,,,,,,,,,,,,,,,,,
2604.800000011921,,pt2_unique_rating,519699,Delaware City,,50,,,2,,,,,,,,,,,,,,,
null,,confidence_buffer,519812,confidence_buffer,,null,,,,,,,,,,,,,,,,,,
1462.300000011921,,pt2_memorable_rating,521276,Delaware City,,49,,,1,,,,,,,,,,,,,,,
null,,confidence_buffer,521379,confidence_buffer,,null,,,,,,,,,,,,,,,,,,
1809.2000000476837,,recognition_phase,523190,Delaware City,,49,,,,,,old,1,0.8666666666666667,,,,,,,,,,
null,,confidence_buffer,523293,confidence_buffer,,null,,,,,,,,,,,,,,,,,,
null,,thebreak,523795,break,,null,,,,,,,,,,,,,,,,,,
2127.7000000476837,,realistic_rating,525924,Orr,,50,Orr,US,2,,,,,,,,,,,,,,,
null,,confidence_buffer,526028,confidence_buffer,,null,,,,,,,,,,,,,,,,,,
2350.099999964237,,pt2_unique_rating,528380,Orr,,52,,,4,,,,,,,,,,,,,,,
null,,confidence_buffer,528484,confidence_buffer,,null,,,,,,,,,,,,,,,,,,
1450.699999988079,,pt2_memorable_rating,529936,Orr,,52,,,4,,,,,,,,,,,,,,,
null,,confidence_buffer,530038,confidence_buffer,,null,,,,,,,,,,,,,,,,,,
1747.8999999761581,,recognition_phase,531788,Orr,,52,,,,,,new,1,0.875,,,,,,,,,,
null,,confidence_buffer,531892,confidence_buffer,,null,,,,,,,,,,,,,,,,,,
null,,thebreak,532394,break,,null,,,,,,,,,,,,,,,,,,
2381,,realistic_rating,534776,Ravenport,,52,Ravenport,Fictional,4,,,,,,,,,,,,,,,
null,,confidence_buffer,534879,confidence_buffer,,null,,,,,,,,,,,,,,,,,,
1285.5,,pt2_unique_rating,536166,Ravenport,,50,,,2,,,,,,,,,,,,,,,
null,,confidence_buffer,536269,confidence_buffer,,null,,,,,,,,,,,,,,,,,,
814.6000000238419,,pt2_memorable_rating,537085,Ravenport,,50,,,2,,,,,,,,,,,,,,,
null,,confidence_buffer,537188,confidence_buffer,,null,,,,,,,,,,,,,,,,,,
3248.399999976158,,recognition_phase,540438,Ravenport,,49,,,,,,old,1,0.8823529411764706,,,,,,,,,,
null,,confidence_buffer,540540,confidence_buffer,,null,,,,,,,,,,,,,,,,,,
null,,thebreak,541042,break,,null,,,,,,,,,,,,,,,,,,
25419.30000001192,,realistic_rating,566463,Granton Ridge,,52,Granton Ridge,Fictional,4,,,,,,,,,,,,,,,
null,,confidence_buffer,566567,confidence_buffer,,null,,,,,,,,,,,,,,,,,,
1753.3999999761581,,pt2_unique_rating,568322,Granton Ridge,,49,,,1,,,,,,,,,,,,,,,
null,,confidence_buffer,568424,confidence_buffer,,null,,,,,,,,,,,,,,,,,,
560.1000000238419,,pt2_memorable_rating,568986,Granton Ridge,,49,,,1,,,,,,,,,,,,,,,
null,,confidence_buffer,569088,confidence_buffer,,null,,,,,,,,,,,,,,,,,,
1630.300000011921,,recognition_phase,570720,Granton Ridge,,52,,,,,,new,1,0.8888888888888888,,,,,,,,,,
null,,confidence_buffer,570823,confidence_buffer,,null,,,,,,,,,,,,,,,,,,
null,,thebreak,571326,break,,null,,,,,,,,,,,,,,,,,,
2303.2000000476837,,realistic_rating,573631,Meadowspire,,52,Meadowspire,Fictional,4,,,,,,,,,,,,,,,
null,,confidence_buffer,573736,confidence_buffer,,null,,,,,,,,,,,,,,,,,,
5423.700000047684,,pt2_unique_rating,579161,Meadowspire,,51,,,3,,,,,,,,,,,,,,,
null,,confidence_buffer,579263,confidence_buffer,,null,,,,,,,,,,,,,,,,,,
1110.699999988079,,pt2_memorable_rating,580375,Meadowspire,,51,,,3,,,,,,,,,,,,,,,
null,,confidence_buffer,580477,confidence_buffer,,null,,,,,,,,,,,,,,,,,,
2082.699999988079,,recognition_phase,582561,Meadowspire,,50,,,,,,old,1,0.8947368421052632,,,,,,,,,,
null,,confidence_buffer,582663,confidence_buffer,,null,,,,,,,,,,,,,,,,,,
null,,thebreak,583165,break,,null,,,,,,,,,,,,,,,,,,
3054.7000000476837,,realistic_rating,586222,Sisters,,52,Sisters,US,4,,,,,,,,,,,,,,,
null,,confidence_buffer,586325,confidence_buffer,,null,,,,,,,,,,,,,,,,,,
1246.5999999642372,,pt2_unique_rating,587573,Sisters,,51,,,3,,,,,,,,,,,,,,,
null,,confidence_buffer,587676,confidence_buffer,,null,,,,,,,,,,,,,,,,,,
1097.699999988079,,pt2_memorable_rating,588776,Sisters,,51,,,3,,,,,,,,,,,,,,,
null,,confidence_buffer,588878,confidence_buffer,,null,,,,,,,,,,,,,,,,,,
1488.3999999761581,,recognition_phase,590368,Sisters,,49,,,,,,old,1,0.9,,,,,,,,,,
null,,confidence_buffer,590470,confidence_buffer,,null,,,,,,,,,,,,,,,,,,
null,,thebreak,590973,break,,null,,,,,,,,,,,,,,,,,,
1940.5,,realistic_rating,592915,Gloucester,,52,Gloucester,US,4,,,,,,,,,,,,,,,
null,,confidence_buffer,593018,confidence_buffer,,null,,,,,,,,,,,,,,,,,,
1667,,pt2_unique_rating,594686,Gloucester,,50,,,2,,,,,,,,,,,,,,,
null,,confidence_buffer,594789,confidence_buffer,,null,,,,,,,,,,,,,,,,,,
973.1999999880791,,pt2_memorable_rating,595764,Gloucester,,49,,,1,,,,,,,,,,,,,,,
null,,confidence_buffer,595866,confidence_buffer,,null,,,,,,,,,,,,,,,,,,
1868.300000011921,,recognition_phase,597736,Gloucester,,52,,,,,,new,1,0.9047619047619048,,,,,,,,,,
null,,confidence_buffer,597839,confidence_buffer,,null,,,,,,,,,,,,,,,,,,
null,,thebreak,598342,break,,null,,,,,,,,,,,,,,,,,,
2281.5,,realistic_rating,600625,Bisbee,,53,Bisbee,US,5,,,,,,,,,,,,,,,
null,,confidence_buffer,600728,confidence_buffer,,null,,,,,,,,,,,,,,,,,,
2729.400000035763,,pt2_unique_rating,603459,Bisbee,,51,,,3,,,,,,,,,,,,,,,
null,,confidence_buffer,603562,confidence_buffer,,null,,,,,,,,,,,,,,,,,,
1931.9000000357628,,pt2_memorable_rating,605495,Bisbee,,52,,,4,,,,,,,,,,,,,,,
null,,confidence_buffer,605599,confidence_buffer,,null,,,,,,,,,,,,,,,,,,
1777.3999999761581,,recognition_phase,607378,Bisbee,,49,,,,,,old,1,0.9090909090909091,,,,,,,,,,
null,,confidence_buffer,607481,confidence_buffer,,null,,,,,,,,,,,,,,,,,,
null,,thebreak,607983,break,,null,,,,,,,,,,,,,,,,,,
1994.199999988079,,realistic_rating,609979,West Palm Beach,,53,West Palm Beach,US,5,,,,,,,,,,,,,,,
null,,confidence_buffer,610082,confidence_buffer,,null,,,,,,,,,,,,,,,,,,
1326.8999999761581,,pt2_unique_rating,611410,West Palm Beach,,49,,,1,,,,,,,,,,,,,,,
null,,confidence_buffer,611513,confidence_buffer,,null,,,,,,,,,,,,,,,,,,
1772.300000011921,,probe_rating,613287,probe_rating,,50,,,,2,1,,,,,,,,,,,,,
null,,confidence_buffer,613390,confidence_buffer,,null,,,,,,,,,,,,,,,,,,
1286,,pt2_memorable_rating,614677,West Palm Beach,,49,,,1,,,,,,,,,,,,,,,
null,,confidence_buffer,614780,confidence_buffer,,null,,,,,,,,,,,,,,,,,,
1042.5,,recognition_phase,615824,West Palm Beach,,49,,,,,,old,1,0.9130434782608695,,,,,,,,,,
null,,confidence_buffer,615927,confidence_buffer,,null,,,,,,,,,,,,,,,,,,
null,,thebreak,616428,break,,null,,,,,,,,,,,,,,,,,,
2146.399999976158,,realistic_rating,618576,Crestwood,,53,Crestwood,Fictional,5,,,,,,,,,,,,,,,
null,,confidence_buffer,618679,confidence_buffer,,null,,,,,,,,,,,,,,,,,,
1740.3999999761581,,pt2_unique_rating,620421,Crestwood,,49,,,1,,,,,,,,,,,,,,,
null,,confidence_buffer,620524,confidence_buffer,,null,,,,,,,,,,,,,,,,,,
724.6999999880791,,pt2_memorable_rating,621251,Crestwood,,49,,,1,,,,,,,,,,,,,,,
null,,confidence_buffer,621354,confidence_buffer,,null,,,,,,,,,,,,,,,,,,
1225.1000000238419,,recognition_phase,622581,Crestwood,,50,,,,,,old,1,0.9166666666666666,,,,,,,,,,
null,,confidence_buffer,622683,confidence_buffer,,null,,,,,,,,,,,,,,,,,,
null,,thebreak,623185,break,,null,,,,,,,,,,,,,,,,,,
1898.300000011921,,realistic_rating,625085,Linden Trace,,52,Linden Trace,Fictional,4,,,,,,,,,,,,,,,
null,,confidence_buffer,625201,confidence_buffer,,null,,,,,,,,,,,,,,,,,,
2792.900000035763,,pt2_unique_rating,627996,Linden Trace,,50,,,2,,,,,,,,,,,,,,,
null,,confidence_buffer,628099,confidence_buffer,,null,,,,,,,,,,,,,,,,,,
504.10000002384186,,pt2_memorable_rating,628605,Linden Trace,,50,,,2,,,,,,,,,,,,,,,
null,,confidence_buffer,628708,confidence_buffer,,null,,,,,,,,,,,,,,,,,,
1340.800000011921,,recognition_phase,630050,Linden Trace,,51,,,,,,new,1,0.92,,,,,,,,,,
null,,confidence_buffer,630153,confidence_buffer,,null,,,,,,,,,,,,,,,,,,
null,,thebreak,630656,break,,null,,,,,,,,,,,,,,,,,,
2134,,realistic_rating,632792,Bayshore Haven,,52,Bayshore Haven,Fictional,4,,,,,,,,,,,,,,,
null,,confidence_buffer,632895,confidence_buffer,,null,,,,,,,,,,,,,,,,,,
1836.3999999761581,,pt2_unique_rating,634733,Bayshore Haven,,50,,,2,,,,,,,,,,,,,,,
null,,confidence_buffer,634835,confidence_buffer,,null,,,,,,,,,,,,,,,,,,
2017.8999999761581,,pt2_memorable_rating,636855,Bayshore Haven,,50,,,2,,,,,,,,,,,,,,,
null,,confidence_buffer,636958,confidence_buffer,,null,,,,,,,,,,,,,,,,,,
2007.699999988079,,recognition_phase,638967,Bayshore Haven,,52,,,,,,new,1,0.9230769230769231,,,,,,,,,,
null,,confidence_buffer,639070,confidence_buffer,,null,,,,,,,,,,,,,,,,,,
null,,thebreak,639572,break,,null,,,,,,,,,,,,,,,,,,
2479.600000023842,,realistic_rating,642053,Golden Trace,,51,Golden Trace,Fictional,3,,,,,,,,,,,,,,,
null,,confidence_buffer,642155,confidence_buffer,,null,,,,,,,,,,,,,,,,,,
2039.699999988079,,pt2_unique_rating,644196,Golden Trace,,50,,,2,,,,,,,,,,,,,,,
null,,confidence_buffer,644298,confidence_buffer,,null,,,,,,,,,,,,,,,,,,
1088,,pt2_memorable_rating,645387,Golden Trace,,50,,,2,,,,,,,,,,,,,,,
null,,confidence_buffer,645490,confidence_buffer,,null,,,,,,,,,,,,,,,,,,
1047.5,,recognition_phase,646539,Golden Trace,,49,,,,,,old,1,0.9259259259259259,,,,,,,,,,
null,,confidence_buffer,646641,confidence_buffer,,null,,,,,,,,,,,,,,,,,,
null,,thebreak,647142,break,,null,,,,,,,,,,,,,,,,,,
1677.4000000357628,,realistic_rating,648821,Cleveland,,53,Cleveland,US,5,,,,,,,,,,,,,,,
null,,confidence_buffer,648925,confidence_buffer,,null,,,,,,,,,,,,,,,,,,
4716.300000011921,,pt2_unique_rating,653643,Cleveland,,49,,,1,,,,,,,,,,,,,,,
null,,confidence_buffer,653745,confidence_buffer,,null,,,,,,,,,,,,,,,,,,
1541.1000000238419,,pt2_memorable_rating,655288,Cleveland,,49,,,1,,,,,,,,,,,,,,,
null,,confidence_buffer,655391,confidence_buffer,,null,,,,,,,,,,,,,,,,,,
2060.699999988079,,recognition_phase,657454,Cleveland,,52,,,,,,new,1,0.9285714285714286,,,,,,,,,,
null,,confidence_buffer,657556,confidence_buffer,,null,,,,,,,,,,,,,,,,,,
null,,thebreak,658059,break,,null,,,,,,,,,,,,,,,,,,
2908,,realistic_rating,660968,New Verdan,,52,New Verdan,Fictional,4,,,,,,,,,,,,,,,
null,,confidence_buffer,661072,confidence_buffer,,null,,,,,,,,,,,,,,,,,,
1497.800000011921,,pt2_unique_rating,662572,New Verdan,,49,,,1,,,,,,,,,,,,,,,
null,,confidence_buffer,662675,confidence_buffer,,null,,,,,,,,,,,,,,,,,,
1037.3999999761581,,pt2_memorable_rating,663714,New Verdan,,49,,,1,,,,,,,,,,,,,,,
null,,confidence_buffer,663817,confidence_buffer,,null,,,,,,,,,,,,,,,,,,
1273.5,,recognition_phase,665092,New Verdan,,50,,,,,,old,1,0.9310344827586207,,,,,,,,,,
null,,confidence_buffer,665195,confidence_buffer,,null,,,,,,,,,,,,,,,,,,
null,,thebreak,665696,break,,null,,,,,,,,,,,,,,,,,,
2100.300000011921,,realistic_rating,667798,Peoria,,51,Peoria,US,3,,,,,,,,,,,,,,,
null,,confidence_buffer,667901,confidence_buffer,,null,,,,,,,,,,,,,,,,,,
1771.199999988079,,pt2_unique_rating,669674,Peoria,,52,,,4,,,,,,,,,,,,,,,
null,,confidence_buffer,669777,confidence_buffer,,null,,,,,,,,,,,,,,,,,,
996,,pt2_memorable_rating,670775,Peoria,,51,,,3,,,,,,,,,,,,,,,
null,,confidence_buffer,670878,confidence_buffer,,null,,,,,,,,,,,,,,,,,,
1120.2000000476837,,probe_rating,672000,probe_rating,,50,,,,2,1,,,,,,,,,,,,,
null,,confidence_buffer,672103,confidence_buffer,,null,,,,,,,,,,,,,,,,,,
1803.5,,recognition_phase,673909,Peoria,,52,,,,,,new,1,0.9333333333333333,,,,,,,,,,
null,,confidence_buffer,674012,confidence_buffer,,null,,,,,,,,,,,,,,,,,,
null,,thebreak,674514,break,,null,,,,,,,,,,,,,,,,,,
1631,,realistic_rating,676147,Bowling Green,,53,Bowling Green,US,5,,,,,,,,,,,,,,,
null,,confidence_buffer,676250,confidence_buffer,,null,,,,,,,,,,,,,,,,,,
1859.5,,pt2_unique_rating,678111,Bowling Green,,50,,,2,,,,,,,,,,,,,,,
null,,confidence_buffer,678213,confidence_buffer,,null,,,,,,,,,,,,,,,,,,
849.2000000476837,,pt2_memorable_rating,679064,Bowling Green,,50,,,2,,,,,,,,,,,,,,,
null,,confidence_buffer,679173,confidence_buffer,,null,,,,,,,,,,,,,,,,,,
1410.199999988079,,recognition_phase,680585,Bowling Green,,52,,,,,,new,1,0.9354838709677419,,,,,,,,,,
null,,confidence_buffer,680688,confidence_buffer,,null,,,,,,,,,,,,,,,,,,
null,,thebreak,681189,break,,null,,,,,,,,,,,,,,,,,,
1984,,realistic_rating,683174,Elmsbury,,53,Elmsbury,Fictional,5,,,,,,,,,,,,,,,
null,,confidence_buffer,683277,confidence_buffer,,null,,,,,,,,,,,,,,,,,,
1653.699999988079,,pt2_unique_rating,684932,Elmsbury,,50,,,2,,,,,,,,,,,,,,,
null,,confidence_buffer,685034,confidence_buffer,,null,,,,,,,,,,,,,,,,,,
2647.699999988079,,pt2_memorable_rating,687683,Elmsbury,,50,,,2,,,,,,,,,,,,,,,
null,,confidence_buffer,687786,confidence_buffer,,null,,,,,,,,,,,,,,,,,,
1876.4000000357628,,recognition_phase,689664,Elmsbury,,52,,,,,,new,1,0.9375,,,,,,,,,,
null,,confidence_buffer,689766,confidence_buffer,,null,,,,,,,,,,,,,,,,,,
null,,thebreak,690269,break,,null,,,,,,,,,,,,,,,,,,
1692.1000000238419,,realistic_rating,691962,Natchez,,53,Natchez,US,5,,,,,,,,,,,,,,,
null,,confidence_buffer,692066,confidence_buffer,,null,,,,,,,,,,,,,,,,,,
1305.6000000238419,,pt2_unique_rating,693373,Natchez,,50,,,2,,,,,,,,,,,,,,,
null,,confidence_buffer,693476,confidence_buffer,,null,,,,,,,,,,,,,,,,,,
3163.199999988079,,pt2_memorable_rating,696641,Natchez,,51,,,3,,,,,,,,,,,,,,,
null,,confidence_buffer,696743,confidence_buffer,,null,,,,,,,,,,,,,,,,,,
1496.8999999761581,,recognition_phase,698241,Natchez,,49,,,,,,old,1,0.9393939393939394,,,,,,,,,,
null,,confidence_buffer,698344,confidence_buffer,,null,,,,,,,,,,,,,,,,,,
null,,thebreak,698846,break,,null,,,,,,,,,,,,,,,,,,
2081.800000011921,,realistic_rating,700929,Lake of the Ozarks,,53,Lake of the Ozarks,US,5,,,,,,,,,,,,,,,
null,,confidence_buffer,701032,confidence_buffer,,null,,,,,,,,,,,,,,,,,,
1284,,probe_rating,702318,probe_rating,,52,,,,4,1,,,,,,,,,,,,,
null,,confidence_buffer,702422,confidence_buffer,,null,,,,,,,,,,,,,,,,,,
4053.699999988079,,pt2_unique_rating,706477,Lake of the Ozarks,,51,,,3,,,,,,,,,,,,,,,
null,,confidence_buffer,706579,confidence_buffer,,null,,,,,,,,,,,,,,,,,,
1821.800000011921,,pt2_memorable_rating,708403,Lake of the Ozarks,,51,,,3,,,,,,,,,,,,,,,
null,,confidence_buffer,708505,confidence_buffer,,null,,,,,,,,,,,,,,,,,,
1397.5999999642372,,recognition_phase,709904,Lake of the Ozarks,,52,,,,,,new,1,0.9411764705882353,,,,,,,,,,
null,,confidence_buffer,710007,confidence_buffer,,null,,,,,,,,,,,,,,,,,,
null,,thebreak,710510,break,,null,,,,,,,,,,,,,,,,,,
1767.300000011921,,realistic_rating,712278,Hawthorne Bluffs,,53,Hawthorne Bluffs,Fictional,5,,,,,,,,,,,,,,,
null,,confidence_buffer,712386,confidence_buffer,,null,,,,,,,,,,,,,,,,,,
2329.699999988079,,pt2_unique_rating,714717,Hawthorne Bluffs,,51,,,3,,,,,,,,,,,,,,,
null,,confidence_buffer,714820,confidence_buffer,,null,,,,,,,,,,,,,,,,,,
980.5999999642372,,pt2_memorable_rating,715802,Hawthorne Bluffs,,51,,,3,,,,,,,,,,,,,,,
null,,confidence_buffer,715904,confidence_buffer,,null,,,,,,,,,,,,,,,,,,
1443.699999988079,,recognition_phase,717350,Hawthorne Bluffs,,49,,,,,,old,1,0.9428571428571428,,,,,,,,,,
null,,confidence_buffer,717452,confidence_buffer,,null,,,,,,,,,,,,,,,,,,
null,,thebreak,717954,break,,null,,,,,,,,,,,,,,,,,,
1739.0999999642372,,realistic_rating,719695,Barnard,,53,Barnard,US,5,,,,,,,,,,,,,,,
null,,confidence_buffer,719798,confidence_buffer,,null,,,,,,,,,,,,,,,,,,
1148.7999999523163,,pt2_unique_rating,720948,Barnard,,49,,,1,,,,,,,,,,,,,,,
null,,confidence_buffer,721056,confidence_buffer,,null,,,,,,,,,,,,,,,,,,
786.9000000357628,,pt2_memorable_rating,721844,Barnard,,49,,,1,,,,,,,,,,,,,,,
null,,confidence_buffer,721947,confidence_buffer,,null,,,,,,,,,,,,,,,,,,
1445.199999988079,,recognition_phase,723394,Barnard,,52,,,,,,new,1,0.9444444444444444,,,,,,,,,,
null,,confidence_buffer,723497,confidence_buffer,,null,,,,,,,,,,,,,,,,,,
null,,thebreak,723999,break,,null,,,,,,,,,,,,,,,,,,
1091.9000000357628,,realistic_rating,725093,Gardnerville,,53,Gardnerville,US,5,,,,,,,,,,,,,,,
null,,confidence_buffer,725195,confidence_buffer,,null,,,,,,,,,,,,,,,,,,
2051.100000023842,,pt2_unique_rating,727248,Gardnerville,,50,,,2,,,,,,,,,,,,,,,
null,,confidence_buffer,727351,confidence_buffer,,null,,,,,,,,,,,,,,,,,,
491.30000001192093,,pt2_memorable_rating,727844,Gardnerville,,50,,,2,,,,,,,,,,,,,,,
null,,confidence_buffer,727947,confidence_buffer,,null,,,,,,,,,,,,,,,,,,
1134.5,,recognition_phase,729083,Gardnerville,,50,,,,,,old,1,0.9459459459459459,,,,,,,,,,
null,,confidence_buffer,729187,confidence_buffer,,null,,,,,,,,,,,,,,,,,,
null,,thebreak,729689,break,,null,,,,,,,,,,,,,,,,,,
1660.300000011921,,realistic_rating,731352,Highvale,,53,Highvale,Fictional,5,,,,,,,,,,,,,,,
null,,confidence_buffer,731454,confidence_buffer,,null,,,,,,,,,,,,,,,,,,
1727.1000000238419,,pt2_unique_rating,733183,Highvale,,49,,,1,,,,,,,,,,,,,,,
null,,confidence_buffer,733298,confidence_buffer,,null,,,,,,,,,,,,,,,,,,
1885.5,,probe_rating,735185,probe_rating,,52,,,,4,1,,,,,,,,,,,,,
null,,confidence_buffer,735289,confidence_buffer,,null,,,,,,,,,,,,,,,,,,
1327.699999988079,,pt2_memorable_rating,736618,Highvale,,49,,,1,,,,,,,,,,,,,,,
null,,confidence_buffer,736720,confidence_buffer,,null,,,,,,,,,,,,,,,,,,
1225.2999999523163,,recognition_phase,737947,Highvale,,52,,,,,,new,0,0.9210526315789473,,,,,,,,,,
null,,confidence_buffer,738050,confidence_buffer,,null,,,,,,,,,,,,,,,,,,
null,,thebreak,738552,break,,null,,,,,,,,,,,,,,,,,,
1295.199999988079,,realistic_rating,739849,Driftwood Bay,,53,Driftwood Bay,Fictional,5,,,,,,,,,,,,,,,
null,,confidence_buffer,739953,confidence_buffer,,null,,,,,,,,,,,,,,,,,,
1345.8999999761581,,pt2_unique_rating,741300,Driftwood Bay,,50,,,2,,,,,,,,,,,,,,,
null,,confidence_buffer,741403,confidence_buffer,,null,,,,,,,,,,,,,,,,,,
760.3999999761581,,pt2_memorable_rating,742165,Driftwood Bay,,50,,,2,,,,,,,,,,,,,,,
null,,confidence_buffer,742267,confidence_buffer,,null,,,,,,,,,,,,,,,,,,
2014.6000000238419,,recognition_phase,744284,Driftwood Bay,,52,,,,,,new,1,0.9230769230769231,,,,,,,,,,
null,,confidence_buffer,744386,confidence_buffer,,null,,,,,,,,,,,,,,,,,,
null,,thebreak,744888,break,,null,,,,,,,,,,,,,,,,,,
1114.5,,realistic_rating,746004,Albuquerque,,53,Albuquerque,US,5,,,,,,,,,,,,,,,
null,,confidence_buffer,746107,confidence_buffer,,null,,,,,,,,,,,,,,,,,,
7205.899999976158,,pt2_unique_rating,753314,Albuquerque,,51,,,3,,,,,,,,,,,,,,,
null,,confidence_buffer,753417,confidence_buffer,,null,,,,,,,,,,,,,,,,,,
1074.2000000476837,,pt2_memorable_rating,754493,Albuquerque,,51,,,3,,,,,,,,,,,,,,,
null,,confidence_buffer,754595,confidence_buffer,,null,,,,,,,,,,,,,,,,,,
1106.199999988079,,recognition_phase,755703,Albuquerque,,49,,,,,,old,1,0.925,,,,,,,,,,
null,,confidence_buffer,755806,confidence_buffer,,null,,,,,,,,,,,,,,,,,,
null,,thebreak,756309,break,,null,,,,,,,,,,,,,,,,,,
1383.800000011921,,realistic_rating,757694,East Ladera,,52,East Ladera,Fictional,4,,,,,,,,,,,,,,,
null,,confidence_buffer,757798,confidence_buffer,,null,,,,,,,,,,,,,,,,,,
1242.699999988079,,pt2_unique_rating,759043,East Ladera,,50,,,2,,,,,,,,,,,,,,,
null,,confidence_buffer,759145,confidence_buffer,,null,,,,,,,,,,,,,,,,,,
1363.800000011921,,pt2_memorable_rating,760511,East Ladera,,50,,,2,,,,,,,,,,,,,,,
null,,confidence_buffer,760613,confidence_buffer,,null,,,,,,,,,,,,,,,,,,
1429.300000011921,,recognition_phase,762044,East Ladera,,52,,,,,,new,1,0.926829268292683,,,,,,,,,,
null,,confidence_buffer,762147,confidence_buffer,,null,,,,,,,,,,,,,,,,,,
null,,thebreak,762650,break,,null,,,,,,,,,,,,,,,,,,
1687.199999988079,,realistic_rating,764339,Sunmere,,53,Sunmere,Fictional,5,,,,,,,,,,,,,,,
null,,confidence_buffer,764443,confidence_buffer,,null,,,,,,,,,,,,,,,,,,
3850.600000023842,,pt2_unique_rating,768295,Sunmere,,49,,,1,,,,,,,,,,,,,,,
null,,confidence_buffer,768397,confidence_buffer,,null,,,,,,,,,,,,,,,,,,
619.6999999880791,,pt2_memorable_rating,769019,Sunmere,,49,,,1,,,,,,,,,,,,,,,
null,,confidence_buffer,769121,confidence_buffer,,null,,,,,,,,,,,,,,,,,,
1496.8999999761581,,recognition_phase,770619,Sunmere,,52,,,,,,new,0,0.9047619047619048,,,,,,,,,,
null,,confidence_buffer,770722,confidence_buffer,,null,,,,,,,,,,,,,,,,,,
null,,thebreak,771224,break,,null,,,,,,,,,,,,,,,,,,
1179.300000011921,,realistic_rating,772405,Medora,,52,Medora,US,4,,,,,,,,,,,,,,,
null,,confidence_buffer,772508,confidence_buffer,,null,,,,,,,,,,,,,,,,,,
2106.599999964237,,pt2_unique_rating,774616,Medora,,50,,,2,,,,,,,,,,,,,,,
null,,confidence_buffer,774718,confidence_buffer,,null,,,,,,,,,,,,,,,,,,
1270.699999988079,,pt2_memorable_rating,775991,Medora,,50,,,2,,,,,,,,,,,,,,,
null,,confidence_buffer,776093,confidence_buffer,,null,,,,,,,,,,,,,,,,,,
1637.9000000357628,,recognition_phase,777733,Medora,,51,,,,,,new,0,0.8837209302325582,,,,,,,,,,
null,,confidence_buffer,777836,confidence_buffer,,null,,,,,,,,,,,,,,,,,,
null,,thebreak,778338,break,,null,,,,,,,,,,,,,,,,,,
1603.3999999761581,,realistic_rating,779943,Stonebrook,,53,Stonebrook,Fictional,5,,,,,,,,,,,,,,,
null,,confidence_buffer,780047,confidence_buffer,,null,,,,,,,,,,,,,,,,,,
983.5,,pt2_unique_rating,781032,Stonebrook,,49,,,1,,,,,,,,,,,,,,,
null,,confidence_buffer,781134,confidence_buffer,,null,,,,,,,,,,,,,,,,,,
797.3000000119209,,probe_rating,781933,probe_rating,,49,,,,1,1,,,,,,,,,,,,,
null,,confidence_buffer,782036,confidence_buffer,,null,,,,,,,,,,,,,,,,,,
939.0999999642372,,pt2_memorable_rating,782977,Stonebrook,,49,,,1,,,,,,,,,,,,,,,
null,,confidence_buffer,783080,confidence_buffer,,null,,,,,,,,,,,,,,,,,,
2404.699999988079,,recognition_phase,785487,Stonebrook,,51,,,,,,new,0,0.8636363636363636,,,,,,,,,,
null,,confidence_buffer,785589,confidence_buffer,,null,,,,,,,,,,,,,,,,,,
null,,thebreak,786092,break,,null,,,,,,,,,,,,,,,,,,
2030.3999999761581,,realistic_rating,788124,Berkeley Springs,,53,Berkeley Springs,US,5,,,,,,,,,,,,,,,
null,,confidence_buffer,788235,confidence_buffer,,null,,,,,,,,,,,,,,,,,,
1759.699999988079,,probe_rating,789997,probe_rating,,52,,,,4,1,,,,,,,,,,,,,
null,,confidence_buffer,790099,confidence_buffer,,null,,,,,,,,,,,,,,,,,,
1782.699999988079,,pt2_unique_rating,791884,Berkeley Springs,,50,,,2,,,,,,,,,,,,,,,
null,,confidence_buffer,791999,confidence_buffer,,null,,,,,,,,,,,,,,,,,,
712.5,,pt2_memorable_rating,792713,Berkeley Springs,,50,,,2,,,,,,,,,,,,,,,
null,,confidence_buffer,792817,confidence_buffer,,null,,,,,,,,,,,,,,,,,,
1467,,recognition_phase,794285,Berkeley Springs,,52,,,,,,new,1,0.8666666666666667,,,,,,,,,,
null,,confidence_buffer,794388,confidence_buffer,,null,,,,,,,,,,,,,,,,,,
null,,thebreak,794890,break,,null,,,,,,,,,,,,,,,,,,
2049.199999988079,,realistic_rating,796941,Maravilla Springs,,53,Maravilla Springs,Fictional,5,,,,,,,,,,,,,,,
null,,confidence_buffer,797043,confidence_buffer,,null,,,,,,,,,,,,,,,,,,
1666.699999988079,,pt2_unique_rating,798711,Maravilla Springs,,51,,,3,,,,,,,,,,,,,,,
null,,confidence_buffer,798814,confidence_buffer,,null,,,,,,,,,,,,,,,,,,
2085.199999988079,,pt2_memorable_rating,800901,Maravilla Springs,,51,,,3,,,,,,,,,,,,,,,
null,,confidence_buffer,801003,confidence_buffer,,null,,,,,,,,,,,,,,,,,,
1750.6000000238419,,recognition_phase,802755,Maravilla Springs,,52,,,,,,new,1,0.8695652173913043,,,,,,,,,,
null,,confidence_buffer,802863,confidence_buffer,,null,,,,,,,,,,,,,,,,,,
null,,thebreak,803366,break,,null,,,,,,,,,,,,,,,,,,
827.6000000238419,,realistic_rating,804195,Westridge,,53,Westridge,Fictional,5,,,,,,,,,,,,,,,
null,,confidence_buffer,804307,confidence_buffer,,null,,,,,,,,,,,,,,,,,,
1470,,pt2_unique_rating,805778,Westridge,,49,,,1,,,,,,,,,,,,,,,
null,,confidence_buffer,805880,confidence_buffer,,null,,,,,,,,,,,,,,,,,,
602.8000000119209,,pt2_memorable_rating,806485,Westridge,,49,,,1,,,,,,,,,,,,,,,
null,,confidence_buffer,806588,confidence_buffer,,null,,,,,,,,,,,,,,,,,,
2186.199999988079,,recognition_phase,808776,Westridge,,52,,,,,,new,1,0.8723404255319149,,,,,,,,,,
null,,confidence_buffer,808878,confidence_buffer,,null,,,,,,,,,,,,,,,,,,
null,,thebreak,809379,break,,null,,,,,,,,,,,,,,,,,,
1355.699999988079,,realistic_rating,810737,Park City,,53,Park City,US,5,,,,,,,,,,,,,,,
null,,confidence_buffer,810840,confidence_buffer,,null,,,,,,,,,,,,,,,,,,
3491.399999976158,,pt2_unique_rating,814333,Park City,,50,,,2,,,,,,,,,,,,,,,
null,,confidence_buffer,814436,confidence_buffer,,null,,,,,,,,,,,,,,,,,,
1556.699999988079,,pt2_memorable_rating,815995,Park City,,51,,,3,,,,,,,,,,,,,,,
null,,confidence_buffer,816097,confidence_buffer,,null,,,,,,,,,,,,,,,,,,
2125.300000011921,,recognition_phase,818224,Park City,,52,,,,,,new,1,0.875,,,,,,,,,,
null,,confidence_buffer,818327,confidence_buffer,,null,,,,,,,,,,,,,,,,,,
null,,thebreak,818830,break,,null,,,,,,,,,,,,,,,,,,
1798.8999999761581,,realistic_rating,820630,Montelake,,52,Montelake,Fictional,4,,,,,,,,,,,,,,,
null,,confidence_buffer,820735,confidence_buffer,,null,,,,,,,,,,,,,,,,,,
1835.3999999761581,,pt2_unique_rating,822572,Montelake,,50,,,2,,,,,,,,,,,,,,,
null,,confidence_buffer,822676,confidence_buffer,,null,,,,,,,,,,,,,,,,,,
796,,pt2_memorable_rating,823473,Montelake,,50,,,2,,,,,,,,,,,,,,,
null,,confidence_buffer,823576,confidence_buffer,,null,,,,,,,,,,,,,,,,,,
4494.800000011921,,recognition_phase,828072,Montelake,,52,,,,,,new,1,0.8775510204081632,,,,,,,,,,
null,,confidence_buffer,828176,confidence_buffer,,null,,,,,,,,,,,,,,,,,,
null,,thebreak,828678,break,,null,,,,,,,,,,,,,,,,,,
1544.800000011921,,realistic_rating,830224,Willowford,,53,Willowford,Fictional,5,,,,,,,,,,,,,,,
null,,confidence_buffer,830327,confidence_buffer,,null,,,,,,,,,,,,,,,,,,
15699.399999976158,,pt2_unique_rating,846028,Willowford,,49,,,1,,,,,,,,,,,,,,,
null,,confidence_buffer,846130,confidence_buffer,,null,,,,,,,,,,,,,,,,,,
637.4000000357628,,pt2_memorable_rating,846769,Willowford,,49,,,1,,,,,,,,,,,,,,,
null,,confidence_buffer,846872,confidence_buffer,,null,,,,,,,,,,,,,,,,,,
1531.8999999761581,,recognition_phase,848406,Willowford,,52,,,,,,new,1,0.88,,,,,,,,,,
null,,confidence_buffer,848508,confidence_buffer,,null,,,,,,,,,,,,,,,,,,
null,,thebreak,849010,break,,null,,,,,,,,,,,,,,,,,,
1670.3999999761581,,realistic_rating,850682,Briarfield,,53,Briarfield,Fictional,5,,,,,,,,,,,,,,,
null,,confidence_buffer,850784,confidence_buffer,,null,,,,,,,,,,,,,,,,,,
1610.699999988079,,pt2_unique_rating,852395,Briarfield,,50,,,2,,,,,,,,,,,,,,,
null,,confidence_buffer,852497,confidence_buffer,,null,,,,,,,,,,,,,,,,,,
760.5,,pt2_memorable_rating,853259,Briarfield,,50,,,2,,,,,,,,,,,,,,,
null,,confidence_buffer,853361,confidence_buffer,,null,,,,,,,,,,,,,,,,,,
1155.9000000357628,,recognition_phase,854519,Briarfield,,49,,,,,,old,1,0.8823529411764706,,,,,,,,,,
null,,confidence_buffer,854622,confidence_buffer,,null,,,,,,,,,,,,,,,,,,
null,,thebreak,855123,break,,null,,,,,,,,,,,,,,,,,,
1492.300000011921,,realistic_rating,856617,Tamarisk Hills,,52,Tamarisk Hills,Fictional,4,,,,,,,,,,,,,,,
null,,confidence_buffer,856720,confidence_buffer,,null,,,,,,,,,,,,,,,,,,
2818.800000011921,,pt2_unique_rating,859540,Tamarisk Hills,,51,,,3,,,,,,,,,,,,,,,
null,,confidence_buffer,859643,confidence_buffer,,null,,,,,,,,,,,,,,,,,,
730.6999999880791,,pt2_memorable_rating,860375,Tamarisk Hills,,51,,,3,,,,,,,,,,,,,,,
null,,confidence_buffer,860478,confidence_buffer,,null,,,,,,,,,,,,,,,,,,
1557.199999988079,,recognition_phase,862037,Tamarisk Hills,,52,,,,,,new,1,0.8846153846153846,,,,,,,,,,
null,,confidence_buffer,862138,confidence_buffer,,null,,,,,,,,,,,,,,,,,,
null,,thebreak,862640,break,,null,,,,,,,,,,,,,,,,,,
1754,,realistic_rating,864396,Yukon,,53,Yukon,US,5,,,,,,,,,,,,,,,
null,,confidence_buffer,864498,confidence_buffer,,null,,,,,,,,,,,,,,,,,,
1636.3999999761581,,pt2_unique_rating,866136,Yukon,,50,,,2,,,,,,,,,,,,,,,
null,,confidence_buffer,866239,confidence_buffer,,null,,,,,,,,,,,,,,,,,,
482.7000000476837,,pt2_memorable_rating,866723,Yukon,,50,,,2,,,,,,,,,,,,,,,
null,,confidence_buffer,866825,confidence_buffer,,null,,,,,,,,,,,,,,,,,,
1618.4000000357628,,recognition_phase,868445,Yukon,,51,,,,,,new,0,0.8679245283018868,,,,,,,,,,
null,,confidence_buffer,868557,confidence_buffer,,null,,,,,,,,,,,,,,,,,,
null,,thebreak,869060,break,,null,,,,,,,,,,,,,,,,,,
1610.7999999523163,,realistic_rating,870672,Pine Hollow,,53,Pine Hollow,Fictional,5,,,,,,,,,,,,,,,
null,,confidence_buffer,870776,confidence_buffer,,null,,,,,,,,,,,,,,,,,,
867.2000000476837,,pt2_unique_rating,871644,Pine Hollow,,49,,,1,,,,,,,,,,,,,,,
null,,confidence_buffer,871747,confidence_buffer,,null,,,,,,,,,,,,,,,,,,
672.4000000357628,,pt2_memorable_rating,872421,Pine Hollow,,49,,,1,,,,,,,,,,,,,,,
null,,confidence_buffer,872524,confidence_buffer,,null,,,,,,,,,,,,,,,,,,
2224,,recognition_phase,874750,Pine Hollow,,52,,,,,,new,1,0.8703703703703703,,,,,,,,,,
null,,confidence_buffer,874853,confidence_buffer,,null,,,,,,,,,,,,,,,,,,
null,,thebreak,875354,break,,null,,,,,,,,,,,,,,,,,,
1992.7999999523163,,realistic_rating,877348,Huntsville,,53,Huntsville,US,5,,,,,,,,,,,,,,,
null,,confidence_buffer,877451,confidence_buffer,,null,,,,,,,,,,,,,,,,,,
3286.599999964237,,pt2_unique_rating,880739,Huntsville,,50,,,2,,,,,,,,,,,,,,,
null,,confidence_buffer,880842,confidence_buffer,,null,,,,,,,,,,,,,,,,,,
1371.1000000238419,,pt2_memorable_rating,882215,Huntsville,,51,,,3,,,,,,,,,,,,,,,
null,,confidence_buffer,882317,confidence_buffer,,null,,,,,,,,,,,,,,,,,,
1431.300000011921,,recognition_phase,883750,Huntsville,,52,,,,,,new,1,0.8727272727272727,,,,,,,,,,
null,,confidence_buffer,883852,confidence_buffer,,null,,,,,,,,,,,,,,,,,,
null,,thebreak,884354,break,,null,,,,,,,,,,,,,,,,,,
1327.9000000357628,,realistic_rating,885683,Livingston,,53,Livingston,US,5,,,,,,,,,,,,,,,
null,,confidence_buffer,885786,confidence_buffer,,null,,,,,,,,,,,,,,,,,,
1689.800000011921,,pt2_unique_rating,887478,Livingston,,49,,,1,,,,,,,,,,,,,,,
null,,confidence_buffer,887580,confidence_buffer,,null,,,,,,,,,,,,,,,,,,
676.2000000476837,,pt2_memorable_rating,888258,Livingston,,49,,,1,,,,,,,,,,,,,,,
null,,confidence_buffer,888360,confidence_buffer,,null,,,,,,,,,,,,,,,,,,
1571.300000011921,,recognition_phase,889933,Livingston,,52,,,,,,new,0,0.8571428571428571,,,,,,,,,,
null,,confidence_buffer,890035,confidence_buffer,,null,,,,,,,,,,,,,,,,,,
null,,thebreak,890537,break,,null,,,,,,,,,,,,,,,,,,
2071.699999988079,,realistic_rating,892610,Okoboji,,53,Okoboji,US,5,,,,,,,,,,,,,,,
null,,confidence_buffer,892713,confidence_buffer,,null,,,,,,,,,,,,,,,,,,
2109.800000011921,,pt2_unique_rating,894825,Okoboji,,53,,,5,,,,,,,,,,,,,,,
null,,confidence_buffer,894928,confidence_buffer,,null,,,,,,,,,,,,,,,,,,
1143.8999999761581,,pt2_memorable_rating,896073,Okoboji,,53,,,5,,,,,,,,,,,,,,,
null,,confidence_buffer,896176,confidence_buffer,,null,,,,,,,,,,,,,,,,,,
1965.1000000238419,,recognition_phase,898143,Okoboji,,49,,,,,,old,1,0.8596491228070176,,,,,,,,,,
null,,confidence_buffer,898247,confidence_buffer,,null,,,,,,,,,,,,,,,,,,
null,,thebreak,898749,break,,null,,,,,,,,,,,,,,,,,,
3441.099999964237,,realistic_rating,902191,Alliance,,53,Alliance,US,5,,,,,,,,,,,,,,,
null,,confidence_buffer,902296,confidence_buffer,,null,,,,,,,,,,,,,,,,,,
2040.7999999523163,,pt2_unique_rating,904339,Alliance,,51,,,3,,,,,,,,,,,,,,,
null,,confidence_buffer,904446,confidence_buffer,,null,,,,,,,,,,,,,,,,,,
722.3000000119209,,pt2_memorable_rating,905170,Alliance,,51,,,3,,,,,,,,,,,,,,,
null,,confidence_buffer,905273,confidence_buffer,,null,,,,,,,,,,,,,,,,,,
1705.6000000238419,,recognition_phase,906980,Alliance,,52,,,,,,new,1,0.8620689655172413,,,,,,,,,,
null,,confidence_buffer,907085,confidence_buffer,,null,,,,,,,,,,,,,,,,,,
null,,thebreak,907587,break,,null,,,,,,,,,,,,,,,,,,
2208.199999988079,,realistic_rating,909797,Folly Beach,,52,Folly Beach,US,4,,,,,,,,,,,,,,,
null,,confidence_buffer,909901,confidence_buffer,,null,,,,,,,,,,,,,,,,,,
2145.300000011921,,probe_rating,912048,probe_rating,,52,,,,4,1,,,,,,,,,,,,,
null,,confidence_buffer,912150,confidence_buffer,,null,,,,,,,,,,,,,,,,,,
1153.300000011921,,pt2_unique_rating,913305,Folly Beach,,51,,,3,,,,,,,,,,,,,,,
null,,confidence_buffer,913407,confidence_buffer,,null,,,,,,,,,,,,,,,,,,
604.5,,pt2_memorable_rating,914013,Folly Beach,,51,,,3,,,,,,,,,,,,,,,
null,,confidence_buffer,914116,confidence_buffer,,null,,,,,,,,,,,,,,,,,,
971.3999999761581,,recognition_phase,915089,Folly Beach,,49,,,,,,old,1,0.864406779661017,,,,,,,,,,
null,,confidence_buffer,915193,confidence_buffer,,null,,,,,,,,,,,,,,,,,,
null,,thebreak,915695,break,,null,,,,,,,,,,,,,,,,,,
1411.699999988079,,realistic_rating,917108,Oakridge,,53,Oakridge,Fictional,5,,,,,,,,,,,,,,,
null,,confidence_buffer,917211,confidence_buffer,,null,,,,,,,,,,,,,,,,,,
2280.699999988079,,pt2_unique_rating,919494,Oakridge,,49,,,1,,,,,,,,,,,,,,,
null,,confidence_buffer,919597,confidence_buffer,,null,,,,,,,,,,,,,,,,,,
244.30000001192093,,pt2_memorable_rating,919842,Oakridge,,49,,,1,,,,,,,,,,,,,,,
null,,confidence_buffer,919945,confidence_buffer,,null,,,,,,,,,,,,,,,,,,
1681.1000000238419,,recognition_phase,921627,Oakridge,,49,,,,,,old,0,0.85,,,,,,,,,,
null,,confidence_buffer,921730,confidence_buffer,,null,,,,,,,,,,,,,,,,,,
null,,thebreak,922233,break,,null,,,,,,,,,,,,,,,,,,
,,survey,1207980,survey-questions,,,,,,,,,,,none,high,No, it had my full attention. ,I would try to think of little rhymes or something personal with the name on the first set of towns I saw to remember them. ,If I had heard of the town in real life or in a book or movie.,If it was something that stood out or if it sounded like a generic town name.,If it a town name that I had never heard of or definitely knew it was the only town named that.,Most seemed realistic to me since there are so many town names so that one was a little tougher to judge. ,It seems like a familiar study but not with town names. ,It was interesting and went smoothly. 
