rt,responses,trial_type,time_elapsed,stimulus,button_pressed,key_press,name_trial,city_type,rating,probe,probe_accuracy,response,correct,accuracy,problems,smooth,distraction,strategies,familiar,memorable,unique,realistic,similar,comments
26993.5,{worker_id:67e1b5d6ac40666483762edd},id_enter,26996,,,,,,,,,,,,,,,,,,,,,
4411.700000047684,,fullscreen,31410,fullscreen,0,,,,,,,,,,,,,,,,,,,
4337.5,,intro_0,35750,instruct,,32,,,,,,,,,,,,,,,,,,
5051.700000047684,,intro_1,40803,instruct,,32,,,,,,,,,,,,,,,,,,
2324.4000000953674,,intro_2,43129,instruct,,32,,,,,,,,,,,,,,,,,,
null,,instruct_dir_4,44630,instruct,,null,,,,,,,,,,,,,,,,,,
null,,thebreak,45132,break,,null,,,,,,,,,,,,,,,,,,
5882.200000047684,,familiar_rating,51015,Driftwood Bay,,53,Driftwood Bay,Fictional,5,,,,,,,,,,,,,,,
null,,confidence_buffer,51118,confidence_buffer,,null,,,,,,,,,,,,,,,,,,
3550.0999999046326,,unique_rating,54670,Driftwood Bay,,52,,,4,,,,,,,,,,,,,,,
null,,confidence_buffer,54772,confidence_buffer,,null,,,,,,,,,,,,,,,,,,
2433.600000143051,,memorable_rating,57207,Driftwood Bay,,53,,,5,,,,,,,,,,,,,,,
null,,confidence_buffer,57310,confidence_buffer,,null,,,,,,,,,,,,,,,,,,
null,,thebreak,57811,break,,null,,,,,,,,,,,,,,,,,,
1362.3999998569489,,familiar_rating,59175,Livingston,,52,Livingston,US,4,,,,,,,,,,,,,,,
null,,confidence_buffer,59276,confidence_buffer,,null,,,,,,,,,,,,,,,,,,
1001,,unique_rating,60279,Livingston,,51,,,3,,,,,,,,,,,,,,,
null,,confidence_buffer,60381,confidence_buffer,,null,,,,,,,,,,,,,,,,,,
4407.599999904633,,memorable_rating,64790,Livingston,,53,,,5,,,,,,,,,,,,,,,
null,,confidence_buffer,64892,confidence_buffer,,null,,,,,,,,,,,,,,,,,,
null,,thebreak,65393,break,,null,,,,,,,,,,,,,,,,,,
9606.299999952316,,familiar_rating,75001,Boulder,,51,Boulder,US,3,,,,,,,,,,,,,,,
null,,confidence_buffer,75104,confidence_buffer,,null,,,,,,,,,,,,,,,,,,
1629.0999999046326,,unique_rating,76735,Boulder,,52,,,4,,,,,,,,,,,,,,,
null,,confidence_buffer,76837,confidence_buffer,,null,,,,,,,,,,,,,,,,,,
1057.8000001907349,,probe_rating,77896,probe_rating,,49,,,,1,1,,,,,,,,,,,,,
null,,confidence_buffer,77999,confidence_buffer,,null,,,,,,,,,,,,,,,,,,
1003.6000001430511,,memorable_rating,79004,Boulder,,52,,,4,,,,,,,,,,,,,,,
null,,confidence_buffer,79105,confidence_buffer,,null,,,,,,,,,,,,,,,,,,
null,,thebreak,79607,break,,null,,,,,,,,,,,,,,,,,,
1704.0999999046326,,familiar_rating,81313,Hot Springs,,51,Hot Springs,US,3,,,,,,,,,,,,,,,
null,,confidence_buffer,81415,confidence_buffer,,null,,,,,,,,,,,,,,,,,,
3295.2999999523163,,unique_rating,84712,Hot Springs,,52,,,4,,,,,,,,,,,,,,,
null,,confidence_buffer,84815,confidence_buffer,,null,,,,,,,,,,,,,,,,,,
1874.0999999046326,,memorable_rating,86690,Hot Springs,,53,,,5,,,,,,,,,,,,,,,
null,,confidence_buffer,86792,confidence_buffer,,null,,,,,,,,,,,,,,,,,,
null,,thebreak,87294,break,,null,,,,,,,,,,,,,,,,,,
3118.5999999046326,,familiar_rating,90414,Sunmere,,52,Sunmere,Fictional,4,,,,,,,,,,,,,,,
null,,confidence_buffer,90517,confidence_buffer,,null,,,,,,,,,,,,,,,,,,
1691.9000000953674,,unique_rating,92210,Sunmere,,51,,,3,,,,,,,,,,,,,,,
null,,confidence_buffer,92312,confidence_buffer,,null,,,,,,,,,,,,,,,,,,
1718.5,,memorable_rating,94032,Sunmere,,53,,,5,,,,,,,,,,,,,,,
null,,confidence_buffer,94133,confidence_buffer,,null,,,,,,,,,,,,,,,,,,
null,,thebreak,94635,break,,null,,,,,,,,,,,,,,,,,,
2043.5,,familiar_rating,96679,Alliance,,50,Alliance,US,2,,,,,,,,,,,,,,,
null,,confidence_buffer,96782,confidence_buffer,,null,,,,,,,,,,,,,,,,,,
2846.5,,unique_rating,99630,Alliance,,51,,,3,,,,,,,,,,,,,,,
null,,confidence_buffer,99732,confidence_buffer,,null,,,,,,,,,,,,,,,,,,
1556.1999998092651,,memorable_rating,101290,Alliance,,53,,,5,,,,,,,,,,,,,,,
null,,confidence_buffer,101392,confidence_buffer,,null,,,,,,,,,,,,,,,,,,
null,,thebreak,101894,break,,null,,,,,,,,,,,,,,,,,,
3161.5,,familiar_rating,105057,Lake of the Ozarks,,52,Lake of the Ozarks,US,4,,,,,,,,,,,,,,,
null,,confidence_buffer,105160,confidence_buffer,,null,,,,,,,,,,,,,,,,,,
1544.9000000953674,,unique_rating,106706,Lake of the Ozarks,,50,,,2,,,,,,,,,,,,,,,
null,,confidence_buffer,106808,confidence_buffer,,null,,,,,,,,,,,,,,,,,,
433.7000000476837,,memorable_rating,107244,Lake of the Ozarks,,51,,,3,,,,,,,,,,,,,,,
null,,confidence_buffer,107345,confidence_buffer,,null,,,,,,,,,,,,,,,,,,
null,,thebreak,107847,break,,null,,,,,,,,,,,,,,,,,,
4412.200000047684,,familiar_rating,112261,Juniper Creek,,52,Juniper Creek,Fictional,4,,,,,,,,,,,,,,,
null,,confidence_buffer,112361,confidence_buffer,,null,,,,,,,,,,,,,,,,,,
3047.9000000953674,,unique_rating,115410,Juniper Creek,,53,,,5,,,,,,,,,,,,,,,
null,,confidence_buffer,115512,confidence_buffer,,null,,,,,,,,,,,,,,,,,,
995.8999998569489,,memorable_rating,116510,Juniper Creek,,52,,,4,,,,,,,,,,,,,,,
null,,confidence_buffer,116612,confidence_buffer,,null,,,,,,,,,,,,,,,,,,
null,,thebreak,117113,break,,null,,,,,,,,,,,,,,,,,,
4223.700000047684,,familiar_rating,121339,Cedarwyn,,51,Cedarwyn,Fictional,3,,,,,,,,,,,,,,,
null,,confidence_buffer,121441,confidence_buffer,,null,,,,,,,,,,,,,,,,,,
1317.7000000476837,,unique_rating,122760,Cedarwyn,,50,,,2,,,,,,,,,,,,,,,
null,,confidence_buffer,122862,confidence_buffer,,null,,,,,,,,,,,,,,,,,,
1583.6000001430511,,memorable_rating,124447,Cedarwyn,,52,,,4,,,,,,,,,,,,,,,
null,,confidence_buffer,124547,confidence_buffer,,null,,,,,,,,,,,,,,,,,,
null,,thebreak,125049,break,,null,,,,,,,,,,,,,,,,,,
1578.4000000953674,,familiar_rating,126629,Custer,,51,Custer,US,3,,,,,,,,,,,,,,,
null,,confidence_buffer,126731,confidence_buffer,,null,,,,,,,,,,,,,,,,,,
735,,unique_rating,127468,Custer,,52,,,4,,,,,,,,,,,,,,,
null,,confidence_buffer,127570,confidence_buffer,,null,,,,,,,,,,,,,,,,,,
1016,,memorable_rating,128587,Custer,,53,,,5,,,,,,,,,,,,,,,
null,,confidence_buffer,128689,confidence_buffer,,null,,,,,,,,,,,,,,,,,,
null,,thebreak,129191,break,,null,,,,,,,,,,,,,,,,,,
1815.7999999523163,,familiar_rating,131008,Shreveport,,51,Shreveport,US,3,,,,,,,,,,,,,,,
null,,confidence_buffer,131110,confidence_buffer,,null,,,,,,,,,,,,,,,,,,
1236.5999999046326,,unique_rating,132348,Shreveport,,52,,,4,,,,,,,,,,,,,,,
null,,confidence_buffer,132450,confidence_buffer,,null,,,,,,,,,,,,,,,,,,
1528.5,,memorable_rating,133980,Shreveport,,50,,,2,,,,,,,,,,,,,,,
null,,confidence_buffer,134082,confidence_buffer,,null,,,,,,,,,,,,,,,,,,
null,,thebreak,134583,break,,null,,,,,,,,,,,,,,,,,,
2034.2000000476837,,familiar_rating,136618,Bayshore Haven,,50,Bayshore Haven,Fictional,2,,,,,,,,,,,,,,,
null,,confidence_buffer,136720,confidence_buffer,,null,,,,,,,,,,,,,,,,,,
640.1000001430511,,unique_rating,137362,Bayshore Haven,,51,,,3,,,,,,,,,,,,,,,
null,,confidence_buffer,137464,confidence_buffer,,null,,,,,,,,,,,,,,,,,,
1155.2999999523163,,memorable_rating,138621,Bayshore Haven,,52,,,4,,,,,,,,,,,,,,,
null,,confidence_buffer,138724,confidence_buffer,,null,,,,,,,,,,,,,,,,,,
null,,thebreak,139225,break,,null,,,,,,,,,,,,,,,,,,
4439.300000190735,,familiar_rating,143666,Orr,,51,Orr,US,3,,,,,,,,,,,,,,,
null,,confidence_buffer,143769,confidence_buffer,,null,,,,,,,,,,,,,,,,,,
925.5999999046326,,unique_rating,144696,Orr,,53,,,5,,,,,,,,,,,,,,,
null,,confidence_buffer,144797,confidence_buffer,,null,,,,,,,,,,,,,,,,,,
843.2000000476837,,memorable_rating,145641,Orr,,52,,,4,,,,,,,,,,,,,,,
null,,confidence_buffer,145743,confidence_buffer,,null,,,,,,,,,,,,,,,,,,
null,,thebreak,146244,break,,null,,,,,,,,,,,,,,,,,,
2169.699999809265,,familiar_rating,148416,Elmsbury,,51,Elmsbury,Fictional,3,,,,,,,,,,,,,,,
null,,confidence_buffer,148518,confidence_buffer,,null,,,,,,,,,,,,,,,,,,
1519.2000000476837,,unique_rating,150038,Elmsbury,,53,,,5,,,,,,,,,,,,,,,
null,,confidence_buffer,150140,confidence_buffer,,null,,,,,,,,,,,,,,,,,,
807.1000001430511,,memorable_rating,150947,Elmsbury,,52,,,4,,,,,,,,,,,,,,,
null,,confidence_buffer,151050,confidence_buffer,,null,,,,,,,,,,,,,,,,,,
null,,thebreak,151551,break,,null,,,,,,,,,,,,,,,,,,
1312.5,,familiar_rating,152866,Coralridge,,51,Coralridge,Fictional,3,,,,,,,,,,,,,,,
null,,confidence_buffer,152967,confidence_buffer,,null,,,,,,,,,,,,,,,,,,
1228,,unique_rating,154197,Coralridge,,50,,,2,,,,,,,,,,,,,,,
null,,confidence_buffer,154299,confidence_buffer,,null,,,,,,,,,,,,,,,,,,
961.2000000476837,,memorable_rating,155262,Coralridge,,52,,,4,,,,,,,,,,,,,,,
null,,confidence_buffer,155363,confidence_buffer,,null,,,,,,,,,,,,,,,,,,
null,,thebreak,155865,break,,null,,,,,,,,,,,,,,,,,,
2515.7999999523163,,familiar_rating,158383,Northbridge,,52,Northbridge,Fictional,4,,,,,,,,,,,,,,,
null,,confidence_buffer,158485,confidence_buffer,,null,,,,,,,,,,,,,,,,,,
793.7000000476837,,unique_rating,159280,Northbridge,,53,,,5,,,,,,,,,,,,,,,
null,,confidence_buffer,159382,confidence_buffer,,null,,,,,,,,,,,,,,,,,,
677.7999999523163,,memorable_rating,160061,Northbridge,,52,,,4,,,,,,,,,,,,,,,
null,,confidence_buffer,160163,confidence_buffer,,null,,,,,,,,,,,,,,,,,,
1579.1000001430511,,probe_rating,161743,probe_rating,,51,,,,3,1,,,,,,,,,,,,,
null,,confidence_buffer,161846,confidence_buffer,,null,,,,,,,,,,,,,,,,,,
null,,thebreak,162348,break,,null,,,,,,,,,,,,,,,,,,
3348,,familiar_rating,165697,Ashford Hills,,50,Ashford Hills,Fictional,2,,,,,,,,,,,,,,,
null,,confidence_buffer,165799,confidence_buffer,,null,,,,,,,,,,,,,,,,,,
906.5,,unique_rating,166707,Ashford Hills,,51,,,3,,,,,,,,,,,,,,,
null,,confidence_buffer,166809,confidence_buffer,,null,,,,,,,,,,,,,,,,,,
1114,,memorable_rating,167925,Ashford Hills,,52,,,4,,,,,,,,,,,,,,,
null,,confidence_buffer,168027,confidence_buffer,,null,,,,,,,,,,,,,,,,,,
null,,thebreak,168530,break,,null,,,,,,,,,,,,,,,,,,
3103.100000143051,,familiar_rating,171634,Gardnerville,,52,Gardnerville,US,4,,,,,,,,,,,,,,,
null,,confidence_buffer,171736,confidence_buffer,,null,,,,,,,,,,,,,,,,,,
891.5999999046326,,unique_rating,172628,Gardnerville,,51,,,3,,,,,,,,,,,,,,,
null,,confidence_buffer,172730,confidence_buffer,,null,,,,,,,,,,,,,,,,,,
2676.199999809265,,memorable_rating,175408,Gardnerville,,50,,,2,,,,,,,,,,,,,,,
null,,confidence_buffer,175510,confidence_buffer,,null,,,,,,,,,,,,,,,,,,
null,,thebreak,176025,break,,null,,,,,,,,,,,,,,,,,,
2400.0999999046326,,familiar_rating,178427,Barnard,,52,Barnard,US,4,,,,,,,,,,,,,,,
null,,confidence_buffer,178529,confidence_buffer,,null,,,,,,,,,,,,,,,,,,
1056.4000000953674,,unique_rating,179587,Barnard,,51,,,3,,,,,,,,,,,,,,,
null,,confidence_buffer,179689,confidence_buffer,,null,,,,,,,,,,,,,,,,,,
796.0999999046326,,memorable_rating,180486,Barnard,,53,,,5,,,,,,,,,,,,,,,
null,,confidence_buffer,180588,confidence_buffer,,null,,,,,,,,,,,,,,,,,,
1393.0999999046326,,probe_rating,181983,probe_rating,,51,,,,3,1,,,,,,,,,,,,,
null,,confidence_buffer,182085,confidence_buffer,,null,,,,,,,,,,,,,,,,,,
null,,thebreak,182587,break,,null,,,,,,,,,,,,,,,,,,
1552.5,,familiar_rating,184140,Maplehurst,,52,Maplehurst,Fictional,4,,,,,,,,,,,,,,,
null,,confidence_buffer,184242,confidence_buffer,,null,,,,,,,,,,,,,,,,,,
1664.7000000476837,,unique_rating,185908,Maplehurst,,51,,,3,,,,,,,,,,,,,,,
null,,confidence_buffer,186011,confidence_buffer,,null,,,,,,,,,,,,,,,,,,
44684.300000190735,,memorable_rating,230697,Maplehurst,,53,,,5,,,,,,,,,,,,,,,
null,,confidence_buffer,230799,confidence_buffer,,null,,,,,,,,,,,,,,,,,,
null,,thebreak,231300,break,,null,,,,,,,,,,,,,,,,,,
37327.89999985695,,familiar_rating,268629,Delaro Park,,51,Delaro Park,Fictional,3,,,,,,,,,,,,,,,
null,,confidence_buffer,268731,confidence_buffer,,null,,,,,,,,,,,,,,,,,,
2058.7000000476837,,unique_rating,270792,Delaro Park,,52,,,4,,,,,,,,,,,,,,,
null,,confidence_buffer,270893,confidence_buffer,,null,,,,,,,,,,,,,,,,,,
1703.0999999046326,,memorable_rating,272598,Delaro Park,,51,,,3,,,,,,,,,,,,,,,
null,,confidence_buffer,272700,confidence_buffer,,null,,,,,,,,,,,,,,,,,,
null,,thebreak,273201,break,,null,,,,,,,,,,,,,,,,,,
1503,,familiar_rating,274704,Manistee,,53,Manistee,US,5,,,,,,,,,,,,,,,
null,,confidence_buffer,274806,confidence_buffer,,null,,,,,,,,,,,,,,,,,,
1984,,unique_rating,276791,Manistee,,52,,,4,,,,,,,,,,,,,,,
null,,confidence_buffer,276893,confidence_buffer,,null,,,,,,,,,,,,,,,,,,
2565.4000000953674,,memorable_rating,279460,Manistee,,50,,,2,,,,,,,,,,,,,,,
null,,confidence_buffer,279562,confidence_buffer,,null,,,,,,,,,,,,,,,,,,
null,,thebreak,280064,break,,null,,,,,,,,,,,,,,,,,,
1609.2000000476837,,familiar_rating,281674,Cleveland,,51,Cleveland,US,3,,,,,,,,,,,,,,,
null,,confidence_buffer,281777,confidence_buffer,,null,,,,,,,,,,,,,,,,,,
1005.2000000476837,,unique_rating,282784,Cleveland,,52,,,4,,,,,,,,,,,,,,,
null,,confidence_buffer,282887,confidence_buffer,,null,,,,,,,,,,,,,,,,,,
1756.1000001430511,,memorable_rating,284644,Cleveland,,53,,,5,,,,,,,,,,,,,,,
null,,confidence_buffer,284745,confidence_buffer,,null,,,,,,,,,,,,,,,,,,
null,,thebreak,285247,break,,null,,,,,,,,,,,,,,,,,,
1825.5999999046326,,familiar_rating,287074,New Verdan,,52,New Verdan,Fictional,4,,,,,,,,,,,,,,,
null,,confidence_buffer,287177,confidence_buffer,,null,,,,,,,,,,,,,,,,,,
1021.9000000953674,,unique_rating,288200,New Verdan,,51,,,3,,,,,,,,,,,,,,,
null,,confidence_buffer,288302,confidence_buffer,,null,,,,,,,,,,,,,,,,,,
1019.8000001907349,,probe_rating,289323,probe_rating,,49,,,,1,1,,,,,,,,,,,,,
null,,confidence_buffer,289425,confidence_buffer,,null,,,,,,,,,,,,,,,,,,
1410.6999998092651,,memorable_rating,290837,New Verdan,,51,,,3,,,,,,,,,,,,,,,
null,,confidence_buffer,290939,confidence_buffer,,null,,,,,,,,,,,,,,,,,,
null,,thebreak,291441,break,,null,,,,,,,,,,,,,,,,,,
2460.4000000953674,,familiar_rating,293903,Tamarisk Hills,,52,Tamarisk Hills,Fictional,4,,,,,,,,,,,,,,,
null,,confidence_buffer,294005,confidence_buffer,,null,,,,,,,,,,,,,,,,,,
913.9000000953674,,unique_rating,294920,Tamarisk Hills,,53,,,5,,,,,,,,,,,,,,,
null,,confidence_buffer,295024,confidence_buffer,,null,,,,,,,,,,,,,,,,,,
1369.0999999046326,,probe_rating,296395,probe_rating,,51,,,,3,1,,,,,,,,,,,,,
null,,confidence_buffer,296497,confidence_buffer,,null,,,,,,,,,,,,,,,,,,
1523.9000000953674,,memorable_rating,298023,Tamarisk Hills,,52,,,4,,,,,,,,,,,,,,,
null,,confidence_buffer,298125,confidence_buffer,,null,,,,,,,,,,,,,,,,,,
null,,thebreak,298626,break,,null,,,,,,,,,,,,,,,,,,
2715,,familiar_rating,301342,Hawthorne Bluffs,,51,Hawthorne Bluffs,Fictional,3,,,,,,,,,,,,,,,
null,,confidence_buffer,301444,confidence_buffer,,null,,,,,,,,,,,,,,,,,,
1704.2000000476837,,unique_rating,303149,Hawthorne Bluffs,,50,,,2,,,,,,,,,,,,,,,
null,,confidence_buffer,303251,confidence_buffer,,null,,,,,,,,,,,,,,,,,,
2061.7000000476837,,memorable_rating,305314,Hawthorne Bluffs,,52,,,4,,,,,,,,,,,,,,,
null,,confidence_buffer,305416,confidence_buffer,,null,,,,,,,,,,,,,,,,,,
null,,thebreak,305918,break,,null,,,,,,,,,,,,,,,,,,
3267.7000000476837,,familiar_rating,309187,Athens,,52,Athens,US,4,,,,,,,,,,,,,,,
null,,confidence_buffer,309290,confidence_buffer,,null,,,,,,,,,,,,,,,,,,
2255.7000000476837,,unique_rating,311546,Athens,,51,,,3,,,,,,,,,,,,,,,
null,,confidence_buffer,311648,confidence_buffer,,null,,,,,,,,,,,,,,,,,,
2334.699999809265,,memorable_rating,313984,Athens,,53,,,5,,,,,,,,,,,,,,,
null,,confidence_buffer,314087,confidence_buffer,,null,,,,,,,,,,,,,,,,,,
null,,thebreak,314589,break,,null,,,,,,,,,,,,,,,,,,
2319.2000000476837,,familiar_rating,316910,Watkins Glen,,51,Watkins Glen,US,3,,,,,,,,,,,,,,,
null,,confidence_buffer,317011,confidence_buffer,,null,,,,,,,,,,,,,,,,,,
921.5,,unique_rating,317935,Watkins Glen,,50,,,2,,,,,,,,,,,,,,,
null,,confidence_buffer,318036,confidence_buffer,,null,,,,,,,,,,,,,,,,,,
848.7999999523163,,memorable_rating,318887,Watkins Glen,,51,,,3,,,,,,,,,,,,,,,
null,,confidence_buffer,318989,confidence_buffer,,null,,,,,,,,,,,,,,,,,,
2678.0999999046326,,probe_rating,321668,probe_rating,,52,,,,4,1,,,,,,,,,,,,,
null,,confidence_buffer,321770,confidence_buffer,,null,,,,,,,,,,,,,,,,,,
null,,thebreak,322272,break,,null,,,,,,,,,,,,,,,,,,
2548.899999856949,,familiar_rating,324822,Sitka,,51,Sitka,US,3,,,,,,,,,,,,,,,
null,,confidence_buffer,324923,confidence_buffer,,null,,,,,,,,,,,,,,,,,,
4799.799999952316,,unique_rating,329724,Sitka,,50,,,2,,,,,,,,,,,,,,,
null,,confidence_buffer,329827,confidence_buffer,,null,,,,,,,,,,,,,,,,,,
3055,,memorable_rating,332883,Sitka,,52,,,4,,,,,,,,,,,,,,,
null,,confidence_buffer,332984,confidence_buffer,,null,,,,,,,,,,,,,,,,,,
null,,thebreak,333487,break,,null,,,,,,,,,,,,,,,,,,
29612.799999952316,,familiar_rating,363101,Meadowspire,,50,Meadowspire,Fictional,2,,,,,,,,,,,,,,,
null,,confidence_buffer,363203,confidence_buffer,,null,,,,,,,,,,,,,,,,,,
2451,,probe_rating,365655,probe_rating,,52,,,,4,1,,,,,,,,,,,,,
null,,confidence_buffer,365758,confidence_buffer,,null,,,,,,,,,,,,,,,,,,
5401.599999904633,,unique_rating,371161,Meadowspire,,49,,,1,,,,,,,,,,,,,,,
null,,confidence_buffer,371263,confidence_buffer,,null,,,,,,,,,,,,,,,,,,
2968.9000000953674,,memorable_rating,374233,Meadowspire,,50,,,2,,,,,,,,,,,,,,,
null,,confidence_buffer,374335,confidence_buffer,,null,,,,,,,,,,,,,,,,,,
null,,thebreak,374837,break,,null,,,,,,,,,,,,,,,,,,
2314.2000000476837,,intro_0,377152,instruct,,32,,,,,,,,,,,,,,,,,,
1802.4000000953674,,intro_1,378955,instruct,,32,,,,,,,,,,,,,,,,,,
8644.200000047684,,intro_2,387601,instruct,,32,,,,,,,,,,,,,,,,,,
null,,instruct_dir_4,389103,instruct,,null,,,,,,,,,,,,,,,,,,
2602.7000000476837,,realistic_rating,391708,Leesburg,,53,Leesburg,US,5,,,,,,,,,,,,,,,
null,,confidence_buffer,391810,confidence_buffer,,null,,,,,,,,,,,,,,,,,,
3246,,pt2_unique_rating,395057,Leesburg,,53,,,5,,,,,,,,,,,,,,,
null,,confidence_buffer,395159,confidence_buffer,,null,,,,,,,,,,,,,,,,,,
1484.7000000476837,,pt2_memorable_rating,396645,Leesburg,,52,,,4,,,,,,,,,,,,,,,
null,,confidence_buffer,396747,confidence_buffer,,null,,,,,,,,,,,,,,,,,,
2028.9000000953674,,recognition_phase,398777,Leesburg,,52,,,,,,new,1,1,,,,,,,,,,
null,,confidence_buffer,398880,confidence_buffer,,null,,,,,,,,,,,,,,,,,,
null,,thebreak,399382,break,,null,,,,,,,,,,,,,,,,,,
1753.2999999523163,,realistic_rating,401137,San Antonio,,51,San Antonio,US,3,,,,,,,,,,,,,,,
null,,confidence_buffer,401240,confidence_buffer,,null,,,,,,,,,,,,,,,,,,
579.6999998092651,,pt2_unique_rating,401822,San Antonio,,50,,,2,,,,,,,,,,,,,,,
null,,confidence_buffer,401929,confidence_buffer,,null,,,,,,,,,,,,,,,,,,
1298.4000000953674,,probe_rating,403228,probe_rating,,50,,,,2,1,,,,,,,,,,,,,
null,,confidence_buffer,403331,confidence_buffer,,null,,,,,,,,,,,,,,,,,,
2884,,pt2_memorable_rating,406216,San Antonio,,51,,,3,,,,,,,,,,,,,,,
null,,confidence_buffer,406318,confidence_buffer,,null,,,,,,,,,,,,,,,,,,
1584.9000000953674,,recognition_phase,407905,San Antonio,,52,,,,,,new,1,1,,,,,,,,,,
null,,confidence_buffer,408007,confidence_buffer,,null,,,,,,,,,,,,,,,,,,
null,,thebreak,408509,break,,null,,,,,,,,,,,,,,,,,,
1434.2999999523163,,realistic_rating,409945,Bayshore Haven,,51,Bayshore Haven,Fictional,3,,,,,,,,,,,,,,,
null,,confidence_buffer,410047,confidence_buffer,,null,,,,,,,,,,,,,,,,,,
653.8000001907349,,pt2_unique_rating,410703,Bayshore Haven,,52,,,4,,,,,,,,,,,,,,,
null,,confidence_buffer,410805,confidence_buffer,,null,,,,,,,,,,,,,,,,,,
1349.7999999523163,,pt2_memorable_rating,412156,Bayshore Haven,,51,,,3,,,,,,,,,,,,,,,
null,,confidence_buffer,412259,confidence_buffer,,null,,,,,,,,,,,,,,,,,,
1267.5999999046326,,recognition_phase,413528,Bayshore Haven,,49,,,,,,old,1,1,,,,,,,,,,
null,,confidence_buffer,413630,confidence_buffer,,null,,,,,,,,,,,,,,,,,,
null,,thebreak,414132,break,,null,,,,,,,,,,,,,,,,,,
829.5999999046326,,realistic_rating,414963,West Talora,,51,West Talora,Fictional,3,,,,,,,,,,,,,,,
null,,confidence_buffer,415066,confidence_buffer,,null,,,,,,,,,,,,,,,,,,
927.2000000476837,,pt2_unique_rating,415994,West Talora,,50,,,2,,,,,,,,,,,,,,,
null,,confidence_buffer,416099,confidence_buffer,,null,,,,,,,,,,,,,,,,,,
966.3999998569489,,probe_rating,417067,probe_rating,,49,,,,1,1,,,,,,,,,,,,,
null,,confidence_buffer,417170,confidence_buffer,,null,,,,,,,,,,,,,,,,,,
787.2000000476837,,pt2_memorable_rating,417959,West Talora,,51,,,3,,,,,,,,,,,,,,,
null,,confidence_buffer,418062,confidence_buffer,,null,,,,,,,,,,,,,,,,,,
867.5999999046326,,recognition_phase,418930,West Talora,,49,,,,,,old,0,0.75,,,,,,,,,,
null,,confidence_buffer,419032,confidence_buffer,,null,,,,,,,,,,,,,,,,,,
null,,thebreak,419534,break,,null,,,,,,,,,,,,,,,,,,
1566.2000000476837,,realistic_rating,421102,Falconridge,,51,Falconridge,Fictional,3,,,,,,,,,,,,,,,
null,,confidence_buffer,421205,confidence_buffer,,null,,,,,,,,,,,,,,,,,,
2816.899999856949,,pt2_unique_rating,424023,Falconridge,,51,,,3,,,,,,,,,,,,,,,
null,,confidence_buffer,424126,confidence_buffer,,null,,,,,,,,,,,,,,,,,,
699.2999999523163,,pt2_memorable_rating,424827,Falconridge,,50,,,2,,,,,,,,,,,,,,,
null,,confidence_buffer,424928,confidence_buffer,,null,,,,,,,,,,,,,,,,,,
1186.8999998569489,,recognition_phase,426117,Falconridge,,52,,,,,,new,1,0.8,,,,,,,,,,
null,,confidence_buffer,426219,confidence_buffer,,null,,,,,,,,,,,,,,,,,,
null,,thebreak,426720,break,,null,,,,,,,,,,,,,,,,,,
1553.7000000476837,,realistic_rating,428276,Bowling Green,,51,Bowling Green,US,3,,,,,,,,,,,,,,,
null,,confidence_buffer,428378,confidence_buffer,,null,,,,,,,,,,,,,,,,,,
603.7999999523163,,pt2_unique_rating,428984,Bowling Green,,50,,,2,,,,,,,,,,,,,,,
null,,confidence_buffer,429086,confidence_buffer,,null,,,,,,,,,,,,,,,,,,
1517.5999999046326,,pt2_memorable_rating,430605,Bowling Green,,52,,,4,,,,,,,,,,,,,,,
null,,confidence_buffer,430707,confidence_buffer,,null,,,,,,,,,,,,,,,,,,
1690.2000000476837,,recognition_phase,432399,Bowling Green,,52,,,,,,new,1,0.8333333333333334,,,,,,,,,,
null,,confidence_buffer,432501,confidence_buffer,,null,,,,,,,,,,,,,,,,,,
null,,thebreak,433003,break,,null,,,,,,,,,,,,,,,,,,
693.2000000476837,,realistic_rating,433698,Alliance,,51,Alliance,US,3,,,,,,,,,,,,,,,
null,,confidence_buffer,433801,confidence_buffer,,null,,,,,,,,,,,,,,,,,,
550.7000000476837,,pt2_unique_rating,434353,Alliance,,50,,,2,,,,,,,,,,,,,,,
null,,confidence_buffer,434456,confidence_buffer,,null,,,,,,,,,,,,,,,,,,
1449.2000000476837,,pt2_memorable_rating,435906,Alliance,,52,,,4,,,,,,,,,,,,,,,
null,,confidence_buffer,436009,confidence_buffer,,null,,,,,,,,,,,,,,,,,,
1046.7000000476837,,recognition_phase,437057,Alliance,,49,,,,,,old,1,0.8571428571428571,,,,,,,,,,
null,,confidence_buffer,437160,confidence_buffer,,null,,,,,,,,,,,,,,,,,,
null,,thebreak,437661,break,,null,,,,,,,,,,,,,,,,,,
2375.899999856949,,realistic_rating,440039,Rosehollow,,50,Rosehollow,Fictional,2,,,,,,,,,,,,,,,
null,,confidence_buffer,440141,confidence_buffer,,null,,,,,,,,,,,,,,,,,,
551.3999998569489,,pt2_unique_rating,440694,Rosehollow,,51,,,3,,,,,,,,,,,,,,,
null,,confidence_buffer,440797,confidence_buffer,,null,,,,,,,,,,,,,,,,,,
801.7999999523163,,pt2_memorable_rating,441600,Rosehollow,,50,,,2,,,,,,,,,,,,,,,
null,,confidence_buffer,441702,confidence_buffer,,null,,,,,,,,,,,,,,,,,,
3182.5,,probe_rating,444885,probe_rating,,50,,,,2,1,,,,,,,,,,,,,
null,,confidence_buffer,444987,confidence_buffer,,null,,,,,,,,,,,,,,,,,,
4153.400000095367,,recognition_phase,449142,Rosehollow,,52,,,,,,new,1,0.875,,,,,,,,,,
null,,confidence_buffer,449244,confidence_buffer,,null,,,,,,,,,,,,,,,,,,
null,,thebreak,449746,break,,null,,,,,,,,,,,,,,,,,,
1515.2999999523163,,realistic_rating,451263,Newport,,51,Newport,US,3,,,,,,,,,,,,,,,
null,,confidence_buffer,451365,confidence_buffer,,null,,,,,,,,,,,,,,,,,,
465.59999990463257,,pt2_unique_rating,451833,Newport,,50,,,2,,,,,,,,,,,,,,,
null,,confidence_buffer,451935,confidence_buffer,,null,,,,,,,,,,,,,,,,,,
812,,pt2_memorable_rating,452748,Newport,,51,,,3,,,,,,,,,,,,,,,
null,,confidence_buffer,452851,confidence_buffer,,null,,,,,,,,,,,,,,,,,,
1529.6000001430511,,recognition_phase,454382,Newport,,52,,,,,,new,1,0.8888888888888888,,,,,,,,,,
null,,confidence_buffer,454485,confidence_buffer,,null,,,,,,,,,,,,,,,,,,
null,,thebreak,454987,break,,null,,,,,,,,,,,,,,,,,,
696.1000001430511,,realistic_rating,455684,Okoboji,,51,Okoboji,US,3,,,,,,,,,,,,,,,
null,,confidence_buffer,455787,confidence_buffer,,null,,,,,,,,,,,,,,,,,,
551.2000000476837,,pt2_unique_rating,456341,Okoboji,,50,,,2,,,,,,,,,,,,,,,
null,,confidence_buffer,456447,confidence_buffer,,null,,,,,,,,,,,,,,,,,,
1141.8999998569489,,probe_rating,457590,probe_rating,,50,,,,2,1,,,,,,,,,,,,,
null,,confidence_buffer,457693,confidence_buffer,,null,,,,,,,,,,,,,,,,,,
686.7000000476837,,pt2_memorable_rating,458381,Okoboji,,51,,,3,,,,,,,,,,,,,,,
null,,confidence_buffer,458484,confidence_buffer,,null,,,,,,,,,,,,,,,,,,
859.7999999523163,,recognition_phase,459345,Okoboji,,52,,,,,,new,1,0.9,,,,,,,,,,
null,,confidence_buffer,459448,confidence_buffer,,null,,,,,,,,,,,,,,,,,,
null,,thebreak,459950,break,,null,,,,,,,,,,,,,,,,,,
1181.9000000953674,,realistic_rating,461133,Summershade,,51,Summershade,Fictional,3,,,,,,,,,,,,,,,
null,,confidence_buffer,461237,confidence_buffer,,null,,,,,,,,,,,,,,,,,,
1069.8999998569489,,probe_rating,462309,probe_rating,,49,,,,1,1,,,,,,,,,,,,,
null,,confidence_buffer,462411,confidence_buffer,,null,,,,,,,,,,,,,,,,,,
712.6999998092651,,pt2_unique_rating,463125,Summershade,,51,,,3,,,,,,,,,,,,,,,
null,,confidence_buffer,463227,confidence_buffer,,null,,,,,,,,,,,,,,,,,,
2032.6999998092651,,pt2_memorable_rating,465262,Summershade,,52,,,4,,,,,,,,,,,,,,,
null,,confidence_buffer,465376,confidence_buffer,,null,,,,,,,,,,,,,,,,,,
1262.2999999523163,,recognition_phase,466640,Summershade,,52,,,,,,new,1,0.9090909090909091,,,,,,,,,,
null,,confidence_buffer,466742,confidence_buffer,,null,,,,,,,,,,,,,,,,,,
null,,thebreak,467243,break,,null,,,,,,,,,,,,,,,,,,
2631.7000000476837,,realistic_rating,469877,Meadowspire,,50,Meadowspire,Fictional,2,,,,,,,,,,,,,,,
null,,confidence_buffer,469978,confidence_buffer,,null,,,,,,,,,,,,,,,,,,
751.9000000953674,,pt2_unique_rating,470731,Meadowspire,,51,,,3,,,,,,,,,,,,,,,
null,,confidence_buffer,470834,confidence_buffer,,null,,,,,,,,,,,,,,,,,,
2257.100000143051,,pt2_memorable_rating,473092,Meadowspire,,51,,,3,,,,,,,,,,,,,,,
null,,confidence_buffer,473195,confidence_buffer,,null,,,,,,,,,,,,,,,,,,
2574.5999999046326,,recognition_phase,475771,Meadowspire,,49,,,,,,old,1,0.9166666666666666,,,,,,,,,,
null,,confidence_buffer,475873,confidence_buffer,,null,,,,,,,,,,,,,,,,,,
null,,thebreak,476375,break,,null,,,,,,,,,,,,,,,,,,
1262.7000000476837,,realistic_rating,477639,Delaro Park,,51,Delaro Park,Fictional,3,,,,,,,,,,,,,,,
null,,confidence_buffer,477741,confidence_buffer,,null,,,,,,,,,,,,,,,,,,
1063.5,,pt2_unique_rating,478806,Delaro Park,,50,,,2,,,,,,,,,,,,,,,
null,,confidence_buffer,478909,confidence_buffer,,null,,,,,,,,,,,,,,,,,,
458.5,,pt2_memorable_rating,479369,Delaro Park,,51,,,3,,,,,,,,,,,,,,,
null,,confidence_buffer,479471,confidence_buffer,,null,,,,,,,,,,,,,,,,,,
2638.7000000476837,,recognition_phase,482111,Delaro Park,,51,,,,,,new,0,0.8461538461538461,,,,,,,,,,
null,,confidence_buffer,482214,confidence_buffer,,null,,,,,,,,,,,,,,,,,,
null,,thebreak,482716,break,,null,,,,,,,,,,,,,,,,,,
936.4000000953674,,realistic_rating,483654,Lake of the Ozarks,,50,Lake of the Ozarks,US,2,,,,,,,,,,,,,,,
null,,confidence_buffer,483756,confidence_buffer,,null,,,,,,,,,,,,,,,,,,
619.8999998569489,,pt2_unique_rating,484378,Lake of the Ozarks,,51,,,3,,,,,,,,,,,,,,,
null,,confidence_buffer,484480,confidence_buffer,,null,,,,,,,,,,,,,,,,,,
1435.2000000476837,,pt2_memorable_rating,485916,Lake of the Ozarks,,52,,,4,,,,,,,,,,,,,,,
null,,confidence_buffer,486018,confidence_buffer,,null,,,,,,,,,,,,,,,,,,
1390.5999999046326,,recognition_phase,487410,Lake of the Ozarks,,49,,,,,,old,1,0.8571428571428571,,,,,,,,,,
null,,confidence_buffer,487520,confidence_buffer,,null,,,,,,,,,,,,,,,,,,
null,,thebreak,488021,break,,null,,,,,,,,,,,,,,,,,,
3044.5,,realistic_rating,491067,Healdsburg,,51,Healdsburg,US,3,,,,,,,,,,,,,,,
null,,confidence_buffer,491169,confidence_buffer,,null,,,,,,,,,,,,,,,,,,
1024.7999999523163,,pt2_unique_rating,492195,Healdsburg,,50,,,2,,,,,,,,,,,,,,,
null,,confidence_buffer,492301,confidence_buffer,,null,,,,,,,,,,,,,,,,,,
590.9000000953674,,pt2_memorable_rating,492893,Healdsburg,,52,,,4,,,,,,,,,,,,,,,
null,,confidence_buffer,492995,confidence_buffer,,null,,,,,,,,,,,,,,,,,,
1563.5999999046326,,recognition_phase,494561,Healdsburg,,52,,,,,,new,1,0.8666666666666667,,,,,,,,,,
null,,confidence_buffer,494663,confidence_buffer,,null,,,,,,,,,,,,,,,,,,
null,,thebreak,495165,break,,null,,,,,,,,,,,,,,,,,,
950.7000000476837,,realistic_rating,496117,West Palm Beach,,51,West Palm Beach,US,3,,,,,,,,,,,,,,,
null,,confidence_buffer,496220,confidence_buffer,,null,,,,,,,,,,,,,,,,,,
390.60000014305115,,pt2_unique_rating,496613,West Palm Beach,,50,,,2,,,,,,,,,,,,,,,
null,,confidence_buffer,496721,confidence_buffer,,null,,,,,,,,,,,,,,,,,,
845.5,,pt2_memorable_rating,497567,West Palm Beach,,51,,,3,,,,,,,,,,,,,,,
null,,confidence_buffer,497670,confidence_buffer,,null,,,,,,,,,,,,,,,,,,
2359,,recognition_phase,500030,West Palm Beach,,52,,,,,,new,1,0.875,,,,,,,,,,
null,,confidence_buffer,500132,confidence_buffer,,null,,,,,,,,,,,,,,,,,,
null,,thebreak,500634,break,,null,,,,,,,,,,,,,,,,,,
1166.5,,realistic_rating,501802,Lakehaven,,51,Lakehaven,Fictional,3,,,,,,,,,,,,,,,
null,,confidence_buffer,501908,confidence_buffer,,null,,,,,,,,,,,,,,,,,,
538.8000001907349,,pt2_unique_rating,502449,Lakehaven,,50,,,2,,,,,,,,,,,,,,,
null,,confidence_buffer,502551,confidence_buffer,,null,,,,,,,,,,,,,,,,,,
2056.399999856949,,pt2_memorable_rating,504609,Lakehaven,,51,,,3,,,,,,,,,,,,,,,
null,,confidence_buffer,504712,confidence_buffer,,null,,,,,,,,,,,,,,,,,,
1754.1000001430511,,recognition_phase,506467,Lakehaven,,52,,,,,,new,1,0.8823529411764706,,,,,,,,,,
null,,confidence_buffer,506570,confidence_buffer,,null,,,,,,,,,,,,,,,,,,
null,,thebreak,507072,break,,null,,,,,,,,,,,,,,,,,,
685.2999999523163,,realistic_rating,507758,Northbridge,,51,Northbridge,Fictional,3,,,,,,,,,,,,,,,
null,,confidence_buffer,507860,confidence_buffer,,null,,,,,,,,,,,,,,,,,,
1080.7999999523163,,pt2_unique_rating,508942,Northbridge,,50,,,2,,,,,,,,,,,,,,,
null,,confidence_buffer,509048,confidence_buffer,,null,,,,,,,,,,,,,,,,,,
2899.9000000953674,,probe_rating,511949,probe_rating,,53,,,,5,1,,,,,,,,,,,,,
null,,confidence_buffer,512051,confidence_buffer,,null,,,,,,,,,,,,,,,,,,
1191.0999999046326,,pt2_memorable_rating,513243,Northbridge,,52,,,4,,,,,,,,,,,,,,,
null,,confidence_buffer,513344,confidence_buffer,,null,,,,,,,,,,,,,,,,,,
1045.9000000953674,,recognition_phase,514392,Northbridge,,49,,,,,,old,1,0.8888888888888888,,,,,,,,,,
null,,confidence_buffer,514494,confidence_buffer,,null,,,,,,,,,,,,,,,,,,
null,,thebreak,514996,break,,null,,,,,,,,,,,,,,,,,,
677.5999999046326,,realistic_rating,515675,Yukon,,51,Yukon,US,3,,,,,,,,,,,,,,,
null,,confidence_buffer,515792,confidence_buffer,,null,,,,,,,,,,,,,,,,,,
877,,pt2_unique_rating,516671,Yukon,,50,,,2,,,,,,,,,,,,,,,
null,,confidence_buffer,516773,confidence_buffer,,null,,,,,,,,,,,,,,,,,,
810.1000001430511,,pt2_memorable_rating,517585,Yukon,,52,,,4,,,,,,,,,,,,,,,
null,,confidence_buffer,517688,confidence_buffer,,null,,,,,,,,,,,,,,,,,,
2018.0999999046326,,recognition_phase,519708,Yukon,,52,,,,,,new,1,0.8947368421052632,,,,,,,,,,
null,,confidence_buffer,519810,confidence_buffer,,null,,,,,,,,,,,,,,,,,,
null,,thebreak,520312,break,,null,,,,,,,,,,,,,,,,,,
2888.5999999046326,,realistic_rating,523202,Sunmere,,51,Sunmere,Fictional,3,,,,,,,,,,,,,,,
null,,confidence_buffer,523304,confidence_buffer,,null,,,,,,,,,,,,,,,,,,
405.5,,pt2_unique_rating,523711,Sunmere,,52,,,4,,,,,,,,,,,,,,,
null,,confidence_buffer,523813,confidence_buffer,,null,,,,,,,,,,,,,,,,,,
786.2999999523163,,pt2_memorable_rating,524601,Sunmere,,51,,,3,,,,,,,,,,,,,,,
null,,confidence_buffer,524703,confidence_buffer,,null,,,,,,,,,,,,,,,,,,
1141,,recognition_phase,525846,Sunmere,,49,,,,,,old,1,0.9,,,,,,,,,,
null,,confidence_buffer,525947,confidence_buffer,,null,,,,,,,,,,,,,,,,,,
null,,thebreak,526449,break,,null,,,,,,,,,,,,,,,,,,
1108.0999999046326,,realistic_rating,527558,Claywater,,50,Claywater,Fictional,2,,,,,,,,,,,,,,,
null,,confidence_buffer,527660,confidence_buffer,,null,,,,,,,,,,,,,,,,,,
448.19999980926514,,pt2_unique_rating,528110,Claywater,,51,,,3,,,,,,,,,,,,,,,
null,,confidence_buffer,528211,confidence_buffer,,null,,,,,,,,,,,,,,,,,,
501.5,,pt2_memorable_rating,528714,Claywater,,52,,,4,,,,,,,,,,,,,,,
null,,confidence_buffer,528815,confidence_buffer,,null,,,,,,,,,,,,,,,,,,
1074,,recognition_phase,529891,Claywater,,52,,,,,,new,1,0.9047619047619048,,,,,,,,,,
null,,confidence_buffer,529998,confidence_buffer,,null,,,,,,,,,,,,,,,,,,
null,,thebreak,530499,break,,null,,,,,,,,,,,,,,,,,,
3621.5999999046326,,realistic_rating,534122,Ashford Hills,,51,Ashford Hills,Fictional,3,,,,,,,,,,,,,,,
null,,confidence_buffer,534225,confidence_buffer,,null,,,,,,,,,,,,,,,,,,
717.7000000476837,,pt2_unique_rating,534944,Ashford Hills,,50,,,2,,,,,,,,,,,,,,,
null,,confidence_buffer,535046,confidence_buffer,,null,,,,,,,,,,,,,,,,,,
714.2000000476837,,pt2_memorable_rating,535761,Ashford Hills,,51,,,3,,,,,,,,,,,,,,,
null,,confidence_buffer,535863,confidence_buffer,,null,,,,,,,,,,,,,,,,,,
1637.2999999523163,,probe_rating,537502,probe_rating,,52,,,,4,1,,,,,,,,,,,,,
null,,confidence_buffer,537603,confidence_buffer,,null,,,,,,,,,,,,,,,,,,
1525.0999999046326,,recognition_phase,539130,Ashford Hills,,50,,,,,,old,1,0.9090909090909091,,,,,,,,,,
null,,confidence_buffer,539232,confidence_buffer,,null,,,,,,,,,,,,,,,,,,
null,,thebreak,539734,break,,null,,,,,,,,,,,,,,,,,,
827.2999999523163,,realistic_rating,540563,Custer,,51,Custer,US,3,,,,,,,,,,,,,,,
null,,confidence_buffer,540666,confidence_buffer,,null,,,,,,,,,,,,,,,,,,
1961.7999999523163,,probe_rating,542629,probe_rating,,53,,,,5,1,,,,,,,,,,,,,
null,,confidence_buffer,542732,confidence_buffer,,null,,,,,,,,,,,,,,,,,,
1164,,pt2_unique_rating,543897,Custer,,51,,,3,,,,,,,,,,,,,,,
null,,confidence_buffer,543999,confidence_buffer,,null,,,,,,,,,,,,,,,,,,
435.7000000476837,,pt2_memorable_rating,544436,Custer,,52,,,4,,,,,,,,,,,,,,,
null,,confidence_buffer,544539,confidence_buffer,,null,,,,,,,,,,,,,,,,,,
1651.2999999523163,,recognition_phase,546192,Custer,,50,,,,,,old,1,0.9130434782608695,,,,,,,,,,
null,,confidence_buffer,546294,confidence_buffer,,null,,,,,,,,,,,,,,,,,,
null,,thebreak,546795,break,,null,,,,,,,,,,,,,,,,,,
1068.6000001430511,,realistic_rating,547866,Orchard Bend,,52,Orchard Bend,Fictional,4,,,,,,,,,,,,,,,
null,,confidence_buffer,547968,confidence_buffer,,null,,,,,,,,,,,,,,,,,,
730.5999999046326,,pt2_unique_rating,548700,Orchard Bend,,50,,,2,,,,,,,,,,,,,,,
null,,confidence_buffer,548803,confidence_buffer,,null,,,,,,,,,,,,,,,,,,
966.9000000953674,,pt2_memorable_rating,549771,Orchard Bend,,51,,,3,,,,,,,,,,,,,,,
null,,confidence_buffer,549873,confidence_buffer,,null,,,,,,,,,,,,,,,,,,
2880.5,,recognition_phase,552756,Orchard Bend,,52,,,,,,new,1,0.9166666666666666,,,,,,,,,,
null,,confidence_buffer,552858,confidence_buffer,,null,,,,,,,,,,,,,,,,,,
null,,thebreak,553360,break,,null,,,,,,,,,,,,,,,,,,
1441.7999999523163,,realistic_rating,554803,Racine,,52,Racine,US,4,,,,,,,,,,,,,,,
null,,confidence_buffer,554906,confidence_buffer,,null,,,,,,,,,,,,,,,,,,
536.4000000953674,,pt2_unique_rating,555443,Racine,,50,,,2,,,,,,,,,,,,,,,
null,,confidence_buffer,555545,confidence_buffer,,null,,,,,,,,,,,,,,,,,,
465.2999999523163,,pt2_memorable_rating,556012,Racine,,51,,,3,,,,,,,,,,,,,,,
null,,confidence_buffer,556114,confidence_buffer,,null,,,,,,,,,,,,,,,,,,
3011.100000143051,,recognition_phase,559127,Racine,,52,,,,,,new,1,0.92,,,,,,,,,,
null,,confidence_buffer,559227,confidence_buffer,,null,,,,,,,,,,,,,,,,,,
null,,thebreak,559729,break,,null,,,,,,,,,,,,,,,,,,
1056.1999998092651,,realistic_rating,560787,Watkins Glen,,51,Watkins Glen,US,3,,,,,,,,,,,,,,,
null,,confidence_buffer,560890,confidence_buffer,,null,,,,,,,,,,,,,,,,,,
623.3999998569489,,pt2_unique_rating,561515,Watkins Glen,,50,,,2,,,,,,,,,,,,,,,
null,,confidence_buffer,561618,confidence_buffer,,null,,,,,,,,,,,,,,,,,,
1404.5,,probe_rating,563024,probe_rating,,52,,,,4,1,,,,,,,,,,,,,
null,,confidence_buffer,563127,confidence_buffer,,null,,,,,,,,,,,,,,,,,,
1234.4000000953674,,pt2_memorable_rating,564363,Watkins Glen,,51,,,3,,,,,,,,,,,,,,,
null,,confidence_buffer,564475,confidence_buffer,,null,,,,,,,,,,,,,,,,,,
2340.5999999046326,,recognition_phase,566817,Watkins Glen,,49,,,,,,old,1,0.9230769230769231,,,,,,,,,,
null,,confidence_buffer,566919,confidence_buffer,,null,,,,,,,,,,,,,,,,,,
null,,thebreak,567421,break,,null,,,,,,,,,,,,,,,,,,
1026.1000001430511,,realistic_rating,568448,Driftwood Bay,,50,Driftwood Bay,Fictional,2,,,,,,,,,,,,,,,
null,,confidence_buffer,568550,confidence_buffer,,null,,,,,,,,,,,,,,,,,,
943.7999999523163,,pt2_unique_rating,569495,Driftwood Bay,,52,,,4,,,,,,,,,,,,,,,
null,,confidence_buffer,569598,confidence_buffer,,null,,,,,,,,,,,,,,,,,,
441.2999999523163,,pt2_memorable_rating,570041,Driftwood Bay,,50,,,2,,,,,,,,,,,,,,,
null,,confidence_buffer,570142,confidence_buffer,,null,,,,,,,,,,,,,,,,,,
1814.0999999046326,,recognition_phase,571957,Driftwood Bay,,52,,,,,,new,0,0.8888888888888888,,,,,,,,,,
null,,confidence_buffer,572059,confidence_buffer,,null,,,,,,,,,,,,,,,,,,
null,,thebreak,572561,break,,null,,,,,,,,,,,,,,,,,,
1967.5999999046326,,realistic_rating,574531,Westridge,,51,Westridge,Fictional,3,,,,,,,,,,,,,,,
null,,confidence_buffer,574633,confidence_buffer,,null,,,,,,,,,,,,,,,,,,
477.59999990463257,,pt2_unique_rating,575112,Westridge,,50,,,2,,,,,,,,,,,,,,,
null,,confidence_buffer,575228,confidence_buffer,,null,,,,,,,,,,,,,,,,,,
1861.5,,pt2_memorable_rating,577091,Westridge,,52,,,4,,,,,,,,,,,,,,,
null,,confidence_buffer,577193,confidence_buffer,,null,,,,,,,,,,,,,,,,,,
1696.2000000476837,,probe_rating,578890,probe_rating,,53,,,,5,1,,,,,,,,,,,,,
null,,confidence_buffer,578992,confidence_buffer,,null,,,,,,,,,,,,,,,,,,
2685.7999999523163,,recognition_phase,581679,Westridge,,51,,,,,,new,1,0.8928571428571429,,,,,,,,,,
null,,confidence_buffer,581781,confidence_buffer,,null,,,,,,,,,,,,,,,,,,
null,,thebreak,582283,break,,null,,,,,,,,,,,,,,,,,,
1681.2999999523163,,realistic_rating,583967,Tamarisk Hills,,51,Tamarisk Hills,Fictional,3,,,,,,,,,,,,,,,
null,,confidence_buffer,584070,confidence_buffer,,null,,,,,,,,,,,,,,,,,,
457.7000000476837,,pt2_unique_rating,584529,Tamarisk Hills,,52,,,4,,,,,,,,,,,,,,,
null,,confidence_buffer,584631,confidence_buffer,,null,,,,,,,,,,,,,,,,,,
930,,pt2_memorable_rating,585563,Tamarisk Hills,,51,,,3,,,,,,,,,,,,,,,
null,,confidence_buffer,585666,confidence_buffer,,null,,,,,,,,,,,,,,,,,,
1086.5999999046326,,recognition_phase,586754,Tamarisk Hills,,49,,,,,,old,1,0.896551724137931,,,,,,,,,,
null,,confidence_buffer,586855,confidence_buffer,,null,,,,,,,,,,,,,,,,,,
null,,thebreak,587357,break,,null,,,,,,,,,,,,,,,,,,
1414.0999999046326,,realistic_rating,588773,Coeur d'Alene,,50,Coeur d'Alene,US,2,,,,,,,,,,,,,,,
null,,confidence_buffer,588876,confidence_buffer,,null,,,,,,,,,,,,,,,,,,
755.2999999523163,,pt2_unique_rating,589633,Coeur d'Alene,,51,,,3,,,,,,,,,,,,,,,
null,,confidence_buffer,589735,confidence_buffer,,null,,,,,,,,,,,,,,,,,,
983.5999999046326,,pt2_memorable_rating,590720,Coeur d'Alene,,51,,,3,,,,,,,,,,,,,,,
null,,confidence_buffer,590822,confidence_buffer,,null,,,,,,,,,,,,,,,,,,
5934.599999904633,,recognition_phase,596759,Coeur d'Alene,,52,,,,,,new,1,0.9,,,,,,,,,,
null,,confidence_buffer,596861,confidence_buffer,,null,,,,,,,,,,,,,,,,,,
null,,thebreak,597363,break,,null,,,,,,,,,,,,,,,,,,
5338.900000095367,,realistic_rating,602703,Barnard,,52,Barnard,US,4,,,,,,,,,,,,,,,
null,,confidence_buffer,602805,confidence_buffer,,null,,,,,,,,,,,,,,,,,,
1058.9000000953674,,pt2_unique_rating,603866,Barnard,,51,,,3,,,,,,,,,,,,,,,
null,,confidence_buffer,603969,confidence_buffer,,null,,,,,,,,,,,,,,,,,,
474.7999999523163,,pt2_memorable_rating,604445,Barnard,,50,,,2,,,,,,,,,,,,,,,
null,,confidence_buffer,604547,confidence_buffer,,null,,,,,,,,,,,,,,,,,,
1052.5999999046326,,recognition_phase,605601,Barnard,,49,,,,,,old,1,0.9032258064516129,,,,,,,,,,
null,,confidence_buffer,605703,confidence_buffer,,null,,,,,,,,,,,,,,,,,,
null,,thebreak,606205,break,,null,,,,,,,,,,,,,,,,,,
734.5999999046326,,realistic_rating,606942,Cleveland,,52,Cleveland,US,4,,,,,,,,,,,,,,,
null,,confidence_buffer,607056,confidence_buffer,,null,,,,,,,,,,,,,,,,,,
449.10000014305115,,pt2_unique_rating,607506,Cleveland,,51,,,3,,,,,,,,,,,,,,,
null,,confidence_buffer,607608,confidence_buffer,,null,,,,,,,,,,,,,,,,,,
1785.8000001907349,,pt2_memorable_rating,609396,Cleveland,,53,,,5,,,,,,,,,,,,,,,
null,,confidence_buffer,609498,confidence_buffer,,null,,,,,,,,,,,,,,,,,,
984,,recognition_phase,610483,Cleveland,,49,,,,,,old,1,0.90625,,,,,,,,,,
null,,confidence_buffer,610585,confidence_buffer,,null,,,,,,,,,,,,,,,,,,
null,,thebreak,611087,break,,null,,,,,,,,,,,,,,,,,,
1425.4000000953674,,realistic_rating,612513,Carmel,,53,Carmel,US,5,,,,,,,,,,,,,,,
null,,confidence_buffer,612626,confidence_buffer,,null,,,,,,,,,,,,,,,,,,
1193.1000001430511,,probe_rating,613820,probe_rating,,51,,,,3,1,,,,,,,,,,,,,
null,,confidence_buffer,613923,confidence_buffer,,null,,,,,,,,,,,,,,,,,,
591.5999999046326,,pt2_unique_rating,614516,Carmel,,52,,,4,,,,,,,,,,,,,,,
null,,confidence_buffer,614618,confidence_buffer,,null,,,,,,,,,,,,,,,,,,
1499.4000000953674,,pt2_memorable_rating,616119,Carmel,,51,,,3,,,,,,,,,,,,,,,
null,,confidence_buffer,616222,confidence_buffer,,null,,,,,,,,,,,,,,,,,,
941.3000001907349,,recognition_phase,617165,Carmel,,49,,,,,,old,0,0.8787878787878788,,,,,,,,,,
null,,confidence_buffer,617268,confidence_buffer,,null,,,,,,,,,,,,,,,,,,
null,,thebreak,617770,break,,null,,,,,,,,,,,,,,,,,,
1358.0999999046326,,realistic_rating,619130,Sierra Hollow,,51,Sierra Hollow,Fictional,3,,,,,,,,,,,,,,,
null,,confidence_buffer,619232,confidence_buffer,,null,,,,,,,,,,,,,,,,,,
1038.6000001430511,,pt2_unique_rating,620273,Sierra Hollow,,52,,,4,,,,,,,,,,,,,,,
null,,confidence_buffer,620378,confidence_buffer,,null,,,,,,,,,,,,,,,,,,
988.6000001430511,,pt2_memorable_rating,621368,Sierra Hollow,,53,,,5,,,,,,,,,,,,,,,
null,,confidence_buffer,621470,confidence_buffer,,null,,,,,,,,,,,,,,,,,,
1655.5999999046326,,recognition_phase,623128,Sierra Hollow,,52,,,,,,new,1,0.8823529411764706,,,,,,,,,,
null,,confidence_buffer,623231,confidence_buffer,,null,,,,,,,,,,,,,,,,,,
null,,thebreak,623734,break,,null,,,,,,,,,,,,,,,,,,
2037,,realistic_rating,625772,Huntsville,,51,Huntsville,US,3,,,,,,,,,,,,,,,
null,,confidence_buffer,625875,confidence_buffer,,null,,,,,,,,,,,,,,,,,,
291,,pt2_unique_rating,626167,Huntsville,,50,,,2,,,,,,,,,,,,,,,
null,,confidence_buffer,626269,confidence_buffer,,null,,,,,,,,,,,,,,,,,,
1495.5,,probe_rating,627766,probe_rating,,49,,,,1,1,,,,,,,,,,,,,
null,,confidence_buffer,627869,confidence_buffer,,null,,,,,,,,,,,,,,,,,,
2962.9000000953674,,pt2_memorable_rating,630833,Huntsville,,52,,,4,,,,,,,,,,,,,,,
null,,confidence_buffer,630936,confidence_buffer,,null,,,,,,,,,,,,,,,,,,
1331.4000000953674,,recognition_phase,632269,Huntsville,,52,,,,,,new,1,0.8857142857142857,,,,,,,,,,
null,,confidence_buffer,632371,confidence_buffer,,null,,,,,,,,,,,,,,,,,,
null,,thebreak,632872,break,,null,,,,,,,,,,,,,,,,,,
1412.2999999523163,,realistic_rating,634287,Shreveport,,51,Shreveport,US,3,,,,,,,,,,,,,,,
null,,confidence_buffer,634390,confidence_buffer,,null,,,,,,,,,,,,,,,,,,
474.59999990463257,,probe_rating,634866,probe_rating,,52,,,,4,0,,,,,,,,,,,,,
null,,confidence_buffer,634969,confidence_buffer,,null,,,,,,,,,,,,,,,,,,
13143.799999952316,,pt2_unique_rating,648114,Shreveport,,51,,,3,,,,,,,,,,,,,,,
null,,confidence_buffer,648216,confidence_buffer,,null,,,,,,,,,,,,,,,,,,
2465.2999999523163,,pt2_memorable_rating,650682,Shreveport,,52,,,4,,,,,,,,,,,,,,,
null,,confidence_buffer,650784,confidence_buffer,,null,,,,,,,,,,,,,,,,,,
1662.2000000476837,,recognition_phase,652447,Shreveport,,49,,,,,,old,1,0.8888888888888888,,,,,,,,,,
null,,confidence_buffer,652549,confidence_buffer,,null,,,,,,,,,,,,,,,,,,
null,,thebreak,653051,break,,null,,,,,,,,,,,,,,,,,,
6403.900000095367,,realistic_rating,659457,New Verdan,,52,New Verdan,Fictional,4,,,,,,,,,,,,,,,
null,,confidence_buffer,659560,confidence_buffer,,null,,,,,,,,,,,,,,,,,,
452.40000009536743,,pt2_unique_rating,660014,New Verdan,,51,,,3,,,,,,,,,,,,,,,
null,,confidence_buffer,660116,confidence_buffer,,null,,,,,,,,,,,,,,,,,,
523.5,,pt2_memorable_rating,660641,New Verdan,,53,,,5,,,,,,,,,,,,,,,
null,,confidence_buffer,660744,confidence_buffer,,null,,,,,,,,,,,,,,,,,,
1051.9000000953674,,recognition_phase,661797,New Verdan,,49,,,,,,old,1,0.8918918918918919,,,,,,,,,,
null,,confidence_buffer,661900,confidence_buffer,,null,,,,,,,,,,,,,,,,,,
null,,thebreak,662402,break,,null,,,,,,,,,,,,,,,,,,
1608.2999999523163,,realistic_rating,664011,Orr,,52,Orr,US,4,,,,,,,,,,,,,,,
null,,confidence_buffer,664113,confidence_buffer,,null,,,,,,,,,,,,,,,,,,
936.4000000953674,,pt2_unique_rating,665051,Orr,,53,,,5,,,,,,,,,,,,,,,
null,,confidence_buffer,665153,confidence_buffer,,null,,,,,,,,,,,,,,,,,,
451,,pt2_memorable_rating,665605,Orr,,51,,,3,,,,,,,,,,,,,,,
null,,confidence_buffer,665707,confidence_buffer,,null,,,,,,,,,,,,,,,,,,
1420,,recognition_phase,667129,Orr,,49,,,,,,old,1,0.8947368421052632,,,,,,,,,,
null,,confidence_buffer,667231,confidence_buffer,,null,,,,,,,,,,,,,,,,,,
null,,thebreak,667733,break,,null,,,,,,,,,,,,,,,,,,
1539.2999999523163,,realistic_rating,669274,Gardnerville,,52,Gardnerville,US,4,,,,,,,,,,,,,,,
null,,confidence_buffer,669375,confidence_buffer,,null,,,,,,,,,,,,,,,,,,
1135.2999999523163,,probe_rating,670512,probe_rating,,51,,,,3,1,,,,,,,,,,,,,
null,,confidence_buffer,670614,confidence_buffer,,null,,,,,,,,,,,,,,,,,,
1104.6000001430511,,pt2_unique_rating,671720,Gardnerville,,53,,,5,,,,,,,,,,,,,,,
null,,confidence_buffer,671822,confidence_buffer,,null,,,,,,,,,,,,,,,,,,
1002.2000000476837,,pt2_memorable_rating,672826,Gardnerville,,52,,,4,,,,,,,,,,,,,,,
null,,confidence_buffer,672939,confidence_buffer,,null,,,,,,,,,,,,,,,,,,
2170.5,,recognition_phase,675110,Gardnerville,,49,,,,,,old,1,0.8974358974358975,,,,,,,,,,
null,,confidence_buffer,675211,confidence_buffer,,null,,,,,,,,,,,,,,,,,,
null,,thebreak,675713,break,,null,,,,,,,,,,,,,,,,,,
1368.2999999523163,,realistic_rating,677083,Cape May,,51,Cape May,US,3,,,,,,,,,,,,,,,
null,,confidence_buffer,677194,confidence_buffer,,null,,,,,,,,,,,,,,,,,,
743.0999999046326,,pt2_unique_rating,677939,Cape May,,50,,,2,,,,,,,,,,,,,,,
null,,confidence_buffer,678041,confidence_buffer,,null,,,,,,,,,,,,,,,,,,
802.7000000476837,,pt2_memorable_rating,678845,Cape May,,52,,,4,,,,,,,,,,,,,,,
null,,confidence_buffer,678947,confidence_buffer,,null,,,,,,,,,,,,,,,,,,
1409.7000000476837,,recognition_phase,680359,Cape May,,52,,,,,,new,1,0.9,,,,,,,,,,
null,,confidence_buffer,680461,confidence_buffer,,null,,,,,,,,,,,,,,,,,,
null,,thebreak,680964,break,,null,,,,,,,,,,,,,,,,,,
1557.0999999046326,,realistic_rating,682522,Manistee,,51,Manistee,US,3,,,,,,,,,,,,,,,
null,,confidence_buffer,682630,confidence_buffer,,null,,,,,,,,,,,,,,,,,,
450.10000014305115,,pt2_unique_rating,683082,Manistee,,50,,,2,,,,,,,,,,,,,,,
null,,confidence_buffer,683185,confidence_buffer,,null,,,,,,,,,,,,,,,,,,
992.1000001430511,,pt2_memorable_rating,684178,Manistee,,52,,,4,,,,,,,,,,,,,,,
null,,confidence_buffer,684281,confidence_buffer,,null,,,,,,,,,,,,,,,,,,
1172,,recognition_phase,685455,Manistee,,49,,,,,,old,1,0.9024390243902439,,,,,,,,,,
null,,confidence_buffer,685560,confidence_buffer,,null,,,,,,,,,,,,,,,,,,
null,,thebreak,686061,break,,null,,,,,,,,,,,,,,,,,,
1204.2000000476837,,realistic_rating,687266,Peoria,,51,Peoria,US,3,,,,,,,,,,,,,,,
null,,confidence_buffer,687369,confidence_buffer,,null,,,,,,,,,,,,,,,,,,
586.5,,pt2_unique_rating,687957,Peoria,,50,,,2,,,,,,,,,,,,,,,
null,,confidence_buffer,688060,confidence_buffer,,null,,,,,,,,,,,,,,,,,,
635.7999999523163,,pt2_memorable_rating,688697,Peoria,,52,,,4,,,,,,,,,,,,,,,
null,,confidence_buffer,688800,confidence_buffer,,null,,,,,,,,,,,,,,,,,,
1925.5,,recognition_phase,690727,Peoria,,52,,,,,,new,1,0.9047619047619048,,,,,,,,,,
null,,confidence_buffer,690829,confidence_buffer,,null,,,,,,,,,,,,,,,,,,
null,,thebreak,691331,break,,null,,,,,,,,,,,,,,,,,,
755.4000000953674,,realistic_rating,692088,Hot Springs,,51,Hot Springs,US,3,,,,,,,,,,,,,,,
null,,confidence_buffer,692191,confidence_buffer,,null,,,,,,,,,,,,,,,,,,
550.4000000953674,,pt2_unique_rating,692742,Hot Springs,,50,,,2,,,,,,,,,,,,,,,
null,,confidence_buffer,692844,confidence_buffer,,null,,,,,,,,,,,,,,,,,,
1313.7999999523163,,pt2_memorable_rating,694160,Hot Springs,,52,,,4,,,,,,,,,,,,,,,
null,,confidence_buffer,694262,confidence_buffer,,null,,,,,,,,,,,,,,,,,,
1006.4000000953674,,recognition_phase,695270,Hot Springs,,51,,,,,,new,0,0.8837209302325582,,,,,,,,,,
null,,confidence_buffer,695372,confidence_buffer,,null,,,,,,,,,,,,,,,,,,
null,,thebreak,695874,break,,null,,,,,,,,,,,,,,,,,,
6555,,realistic_rating,702431,Redgrove,,51,Redgrove,Fictional,3,,,,,,,,,,,,,,,
null,,confidence_buffer,702533,confidence_buffer,,null,,,,,,,,,,,,,,,,,,
1106,,pt2_unique_rating,703641,Redgrove,,52,,,4,,,,,,,,,,,,,,,
null,,confidence_buffer,703744,confidence_buffer,,null,,,,,,,,,,,,,,,,,,
405.39999985694885,,pt2_memorable_rating,704150,Redgrove,,50,,,2,,,,,,,,,,,,,,,
null,,confidence_buffer,704252,confidence_buffer,,null,,,,,,,,,,,,,,,,,,
1907.8999998569489,,recognition_phase,706161,Redgrove,,51,,,,,,new,1,0.8863636363636364,,,,,,,,,,
null,,confidence_buffer,706263,confidence_buffer,,null,,,,,,,,,,,,,,,,,,
null,,thebreak,706765,break,,null,,,,,,,,,,,,,,,,,,
2018.6000001430511,,realistic_rating,708784,Hawthorne Bluffs,,51,Hawthorne Bluffs,Fictional,3,,,,,,,,,,,,,,,
null,,confidence_buffer,708888,confidence_buffer,,null,,,,,,,,,,,,,,,,,,
15175.200000047684,,pt2_unique_rating,724064,Hawthorne Bluffs,,51,,,3,,,,,,,,,,,,,,,
null,,confidence_buffer,724167,confidence_buffer,,null,,,,,,,,,,,,,,,,,,
981.2999999523163,,pt2_memorable_rating,725149,Hawthorne Bluffs,,52,,,4,,,,,,,,,,,,,,,
null,,confidence_buffer,725250,confidence_buffer,,null,,,,,,,,,,,,,,,,,,
2149.7000000476837,,recognition_phase,727402,Hawthorne Bluffs,,49,,,,,,old,1,0.8888888888888888,,,,,,,,,,
null,,confidence_buffer,727517,confidence_buffer,,null,,,,,,,,,,,,,,,,,,
null,,thebreak,728019,break,,null,,,,,,,,,,,,,,,,,,
3636.199999809265,,realistic_rating,731657,Hollendale,,51,Hollendale,Fictional,3,,,,,,,,,,,,,,,
null,,confidence_buffer,731759,confidence_buffer,,null,,,,,,,,,,,,,,,,,,
659.7000000476837,,pt2_unique_rating,732420,Hollendale,,52,,,4,,,,,,,,,,,,,,,
null,,confidence_buffer,732522,confidence_buffer,,null,,,,,,,,,,,,,,,,,,
863.0999999046326,,pt2_memorable_rating,733386,Hollendale,,53,,,5,,,,,,,,,,,,,,,
null,,confidence_buffer,733490,confidence_buffer,,null,,,,,,,,,,,,,,,,,,
2496,,recognition_phase,735987,Hollendale,,52,,,,,,new,1,0.8913043478260869,,,,,,,,,,
null,,confidence_buffer,736089,confidence_buffer,,null,,,,,,,,,,,,,,,,,,
null,,thebreak,736589,break,,null,,,,,,,,,,,,,,,,,,
1037.7000000476837,,realistic_rating,737628,Riverlyn,,51,Riverlyn,Fictional,3,,,,,,,,,,,,,,,
null,,confidence_buffer,737730,confidence_buffer,,null,,,,,,,,,,,,,,,,,,
1424.8999998569489,,pt2_unique_rating,739157,Riverlyn,,50,,,2,,,,,,,,,,,,,,,
null,,confidence_buffer,739259,confidence_buffer,,null,,,,,,,,,,,,,,,,,,
619,,pt2_memorable_rating,739880,Riverlyn,,52,,,4,,,,,,,,,,,,,,,
null,,confidence_buffer,739982,confidence_buffer,,null,,,,,,,,,,,,,,,,,,
4110.299999952316,,recognition_phase,744094,Riverlyn,,50,,,,,,old,0,0.8723404255319149,,,,,,,,,,
null,,confidence_buffer,744197,confidence_buffer,,null,,,,,,,,,,,,,,,,,,
null,,thebreak,744699,break,,null,,,,,,,,,,,,,,,,,,
1942.3000001907349,,realistic_rating,746643,Athens,,52,Athens,US,4,,,,,,,,,,,,,,,
null,,confidence_buffer,746758,confidence_buffer,,null,,,,,,,,,,,,,,,,,,
2196.4000000953674,,pt2_unique_rating,748956,Athens,,51,,,3,,,,,,,,,,,,,,,
null,,confidence_buffer,749058,confidence_buffer,,null,,,,,,,,,,,,,,,,,,
1813,,pt2_memorable_rating,750873,Athens,,53,,,5,,,,,,,,,,,,,,,
null,,confidence_buffer,750974,confidence_buffer,,null,,,,,,,,,,,,,,,,,,
2797.9000000953674,,recognition_phase,753774,Athens,,49,,,,,,old,1,0.875,,,,,,,,,,
null,,confidence_buffer,753877,confidence_buffer,,null,,,,,,,,,,,,,,,,,,
null,,thebreak,754379,break,,null,,,,,,,,,,,,,,,,,,
1377.2999999523163,,realistic_rating,755758,Elmsbury,,50,Elmsbury,Fictional,2,,,,,,,,,,,,,,,
null,,confidence_buffer,755861,confidence_buffer,,null,,,,,,,,,,,,,,,,,,
396.40000009536743,,pt2_unique_rating,756259,Elmsbury,,52,,,4,,,,,,,,,,,,,,,
null,,confidence_buffer,756361,confidence_buffer,,null,,,,,,,,,,,,,,,,,,
395.59999990463257,,pt2_memorable_rating,756758,Elmsbury,,51,,,3,,,,,,,,,,,,,,,
null,,confidence_buffer,756861,confidence_buffer,,null,,,,,,,,,,,,,,,,,,
1038.5999999046326,,recognition_phase,757901,Elmsbury,,49,,,,,,old,1,0.8775510204081632,,,,,,,,,,
null,,confidence_buffer,758005,confidence_buffer,,null,,,,,,,,,,,,,,,,,,
null,,thebreak,758508,break,,null,,,,,,,,,,,,,,,,,,
857.3999998569489,,realistic_rating,759367,Livingston,,51,Livingston,US,3,,,,,,,,,,,,,,,
null,,confidence_buffer,759470,confidence_buffer,,null,,,,,,,,,,,,,,,,,,
458.40000009536743,,pt2_unique_rating,759930,Livingston,,52,,,4,,,,,,,,,,,,,,,
null,,confidence_buffer,760032,confidence_buffer,,null,,,,,,,,,,,,,,,,,,
1910.2000000476837,,pt2_memorable_rating,761943,Livingston,,51,,,3,,,,,,,,,,,,,,,
null,,confidence_buffer,762044,confidence_buffer,,null,,,,,,,,,,,,,,,,,,
1259.7000000476837,,recognition_phase,763305,Livingston,,49,,,,,,old,1,0.88,,,,,,,,,,
null,,confidence_buffer,763407,confidence_buffer,,null,,,,,,,,,,,,,,,,,,
null,,thebreak,763909,break,,null,,,,,,,,,,,,,,,,,,
1373.6000001430511,,realistic_rating,765284,Sitka,,51,Sitka,US,3,,,,,,,,,,,,,,,
null,,confidence_buffer,765386,confidence_buffer,,null,,,,,,,,,,,,,,,,,,
963.1000001430511,,pt2_unique_rating,766351,Sitka,,50,,,2,,,,,,,,,,,,,,,
null,,confidence_buffer,766454,confidence_buffer,,null,,,,,,,,,,,,,,,,,,
428.59999990463257,,pt2_memorable_rating,766884,Sitka,,52,,,4,,,,,,,,,,,,,,,
null,,confidence_buffer,766984,confidence_buffer,,null,,,,,,,,,,,,,,,,,,
1411.7000000476837,,recognition_phase,768397,Sitka,,49,,,,,,old,1,0.8823529411764706,,,,,,,,,,
null,,confidence_buffer,768499,confidence_buffer,,null,,,,,,,,,,,,,,,,,,
null,,thebreak,769000,break,,null,,,,,,,,,,,,,,,,,,
1074.0999999046326,,realistic_rating,770075,Maravilla Springs,,51,Maravilla Springs,Fictional,3,,,,,,,,,,,,,,,
null,,confidence_buffer,770178,confidence_buffer,,null,,,,,,,,,,,,,,,,,,
873.0999999046326,,pt2_unique_rating,771053,Maravilla Springs,,52,,,4,,,,,,,,,,,,,,,
null,,confidence_buffer,771156,confidence_buffer,,null,,,,,,,,,,,,,,,,,,
504.7999999523163,,pt2_memorable_rating,771662,Maravilla Springs,,50,,,2,,,,,,,,,,,,,,,
null,,confidence_buffer,771764,confidence_buffer,,null,,,,,,,,,,,,,,,,,,
1985.0999999046326,,recognition_phase,773750,Maravilla Springs,,52,,,,,,new,1,0.8846153846153846,,,,,,,,,,
null,,confidence_buffer,773852,confidence_buffer,,null,,,,,,,,,,,,,,,,,,
null,,thebreak,774354,break,,null,,,,,,,,,,,,,,,,,,
1160,,realistic_rating,775516,Juniper Creek,,51,Juniper Creek,Fictional,3,,,,,,,,,,,,,,,
null,,confidence_buffer,775619,confidence_buffer,,null,,,,,,,,,,,,,,,,,,
399.5,,pt2_unique_rating,776020,Juniper Creek,,50,,,2,,,,,,,,,,,,,,,
null,,confidence_buffer,776122,confidence_buffer,,null,,,,,,,,,,,,,,,,,,
504.89999985694885,,pt2_memorable_rating,776629,Juniper Creek,,52,,,4,,,,,,,,,,,,,,,
null,,confidence_buffer,776731,confidence_buffer,,null,,,,,,,,,,,,,,,,,,
1003.7000000476837,,recognition_phase,777735,Juniper Creek,,49,,,,,,old,1,0.8867924528301887,,,,,,,,,,
null,,confidence_buffer,777838,confidence_buffer,,null,,,,,,,,,,,,,,,,,,
null,,thebreak,778339,break,,null,,,,,,,,,,,,,,,,,,
1193.9000000953674,,realistic_rating,779535,Boulder,,51,Boulder,US,3,,,,,,,,,,,,,,,
null,,confidence_buffer,779637,confidence_buffer,,null,,,,,,,,,,,,,,,,,,
519.2000000476837,,pt2_unique_rating,780159,Boulder,,50,,,2,,,,,,,,,,,,,,,
null,,confidence_buffer,780261,confidence_buffer,,null,,,,,,,,,,,,,,,,,,
1447,,pt2_memorable_rating,781710,Boulder,,52,,,4,,,,,,,,,,,,,,,
null,,confidence_buffer,781811,confidence_buffer,,null,,,,,,,,,,,,,,,,,,
1370.7999999523163,,recognition_phase,783183,Boulder,,49,,,,,,old,1,0.8888888888888888,,,,,,,,,,
null,,confidence_buffer,783300,confidence_buffer,,null,,,,,,,,,,,,,,,,,,
null,,thebreak,783801,break,,null,,,,,,,,,,,,,,,,,,
2025.0999999046326,,realistic_rating,785827,Maplehurst,,51,Maplehurst,Fictional,3,,,,,,,,,,,,,,,
null,,confidence_buffer,785930,confidence_buffer,,null,,,,,,,,,,,,,,,,,,
626.3000001907349,,pt2_unique_rating,786557,Maplehurst,,50,,,2,,,,,,,,,,,,,,,
null,,confidence_buffer,786660,confidence_buffer,,null,,,,,,,,,,,,,,,,,,
788.6000001430511,,pt2_memorable_rating,787450,Maplehurst,,52,,,4,,,,,,,,,,,,,,,
null,,confidence_buffer,787551,confidence_buffer,,null,,,,,,,,,,,,,,,,,,
1261,,recognition_phase,788814,Maplehurst,,49,,,,,,old,1,0.8909090909090909,,,,,,,,,,
null,,confidence_buffer,788917,confidence_buffer,,null,,,,,,,,,,,,,,,,,,
null,,thebreak,789418,break,,null,,,,,,,,,,,,,,,,,,
1415.8999998569489,,realistic_rating,790836,Coralridge,,50,Coralridge,Fictional,2,,,,,,,,,,,,,,,
null,,confidence_buffer,790938,confidence_buffer,,null,,,,,,,,,,,,,,,,,,
652.7999999523163,,pt2_unique_rating,791592,Coralridge,,52,,,4,,,,,,,,,,,,,,,
null,,confidence_buffer,791693,confidence_buffer,,null,,,,,,,,,,,,,,,,,,
835.2999999523163,,pt2_memorable_rating,792530,Coralridge,,51,,,3,,,,,,,,,,,,,,,
null,,confidence_buffer,792633,confidence_buffer,,null,,,,,,,,,,,,,,,,,,
919.8999998569489,,recognition_phase,793553,Coralridge,,49,,,,,,old,1,0.8928571428571429,,,,,,,,,,
null,,confidence_buffer,793655,confidence_buffer,,null,,,,,,,,,,,,,,,,,,
null,,thebreak,794158,break,,null,,,,,,,,,,,,,,,,,,
1180.1000001430511,,realistic_rating,795340,Millstone,,51,Millstone,Fictional,3,,,,,,,,,,,,,,,
null,,confidence_buffer,795442,confidence_buffer,,null,,,,,,,,,,,,,,,,,,
691.5999999046326,,pt2_unique_rating,796136,Millstone,,50,,,2,,,,,,,,,,,,,,,
null,,confidence_buffer,796239,confidence_buffer,,null,,,,,,,,,,,,,,,,,,
1510.7999999523163,,pt2_memorable_rating,797751,Millstone,,52,,,4,,,,,,,,,,,,,,,
null,,confidence_buffer,797854,confidence_buffer,,null,,,,,,,,,,,,,,,,,,
929.3000001907349,,recognition_phase,798784,Millstone,,52,,,,,,new,1,0.8947368421052632,,,,,,,,,,
null,,confidence_buffer,798886,confidence_buffer,,null,,,,,,,,,,,,,,,,,,
null,,thebreak,799386,break,,null,,,,,,,,,,,,,,,,,,
1033.7999999523163,,realistic_rating,800421,Cedarwyn,,51,Cedarwyn,Fictional,3,,,,,,,,,,,,,,,
null,,confidence_buffer,800524,confidence_buffer,,null,,,,,,,,,,,,,,,,,,
631.0999999046326,,pt2_unique_rating,801156,Cedarwyn,,50,,,2,,,,,,,,,,,,,,,
null,,confidence_buffer,801259,confidence_buffer,,null,,,,,,,,,,,,,,,,,,
643.3000001907349,,pt2_memorable_rating,801904,Cedarwyn,,52,,,4,,,,,,,,,,,,,,,
null,,confidence_buffer,802006,confidence_buffer,,null,,,,,,,,,,,,,,,,,,
1592.2000000476837,,recognition_phase,803600,Cedarwyn,,49,,,,,,old,1,0.896551724137931,,,,,,,,,,
null,,confidence_buffer,803702,confidence_buffer,,null,,,,,,,,,,,,,,,,,,
null,,thebreak,804204,break,,null,,,,,,,,,,,,,,,,,,
1152.0999999046326,,realistic_rating,805358,Briarfield,,51,Briarfield,Fictional,3,,,,,,,,,,,,,,,
null,,confidence_buffer,805460,confidence_buffer,,null,,,,,,,,,,,,,,,,,,
583,,pt2_unique_rating,806044,Briarfield,,50,,,2,,,,,,,,,,,,,,,
null,,confidence_buffer,806157,confidence_buffer,,null,,,,,,,,,,,,,,,,,,
712.7999999523163,,pt2_memorable_rating,806870,Briarfield,,52,,,4,,,,,,,,,,,,,,,
null,,confidence_buffer,806972,confidence_buffer,,null,,,,,,,,,,,,,,,,,,
1737.5999999046326,,recognition_phase,808711,Briarfield,,52,,,,,,new,1,0.8983050847457628,,,,,,,,,,
null,,confidence_buffer,808812,confidence_buffer,,null,,,,,,,,,,,,,,,,,,
null,,thebreak,809314,break,,null,,,,,,,,,,,,,,,,,,
759.2999999523163,,realistic_rating,810075,Abilene,,51,Abilene,US,3,,,,,,,,,,,,,,,
null,,confidence_buffer,810177,confidence_buffer,,null,,,,,,,,,,,,,,,,,,
612.4000000953674,,pt2_unique_rating,810790,Abilene,,50,,,2,,,,,,,,,,,,,,,
null,,confidence_buffer,810891,confidence_buffer,,null,,,,,,,,,,,,,,,,,,
871.6000001430511,,pt2_memorable_rating,811764,Abilene,,51,,,3,,,,,,,,,,,,,,,
null,,confidence_buffer,811865,confidence_buffer,,null,,,,,,,,,,,,,,,,,,
858.5999999046326,,recognition_phase,812726,Abilene,,52,,,,,,new,1,0.9,,,,,,,,,,
null,,confidence_buffer,812827,confidence_buffer,,null,,,,,,,,,,,,,,,,,,
null,,thebreak,813330,break,,null,,,,,,,,,,,,,,,,,,
,,survey,1065267,survey-questions,,,,,,,,,,,none,high,No,I relied on my best memory,whether i have seen the name before,I judge if the name had appeared in the first section,How novice the name felt to me,The measurement of the probability of the name being an actual city.,No,None
