rt,responses,trial_type,time_elapsed,stimulus,button_pressed,key_press,name_trial,city_type,rating,probe,probe_accuracy,response,correct,accuracy,problems,smooth,distraction,strategies,familiar,memorable,unique,realistic,similar,comments
26656.399999976158,{worker_id:67593335dee749db683beb3c},id_enter,26665,,,,,,,,,,,,,,,,,,,,,
23242.600000023842,,fullscreen,49912,fullscreen,0,,,,,,,,,,,,,,,,,,,
9219,,intro_0,59138,instruct,,32,,,,,,,,,,,,,,,,,,
16964.100000023842,,intro_1,76107,instruct,,32,,,,,,,,,,,,,,,,,,
12722.199999988079,,intro_2,88831,instruct,,32,,,,,,,,,,,,,,,,,,
null,,instruct_dir_4,90343,instruct,,null,,,,,,,,,,,,,,,,,,
null,,thebreak,90852,break,,null,,,,,,,,,,,,,,,,,,
10576.699999988079,,familiar_rating,101431,Alliance,,50,Alliance,US,2,,,,,,,,,,,,,,,
null,,confidence_buffer,101536,confidence_buffer,,null,,,,,,,,,,,,,,,,,,
3377.7000000476837,,unique_rating,104916,Alliance,,49,,,1,,,,,,,,,,,,,,,
null,,confidence_buffer,105022,confidence_buffer,,null,,,,,,,,,,,,,,,,,,
4793,,memorable_rating,109817,Alliance,,51,,,3,,,,,,,,,,,,,,,
null,,confidence_buffer,109926,confidence_buffer,,null,,,,,,,,,,,,,,,,,,
null,,thebreak,110428,break,,null,,,,,,,,,,,,,,,,,,
7609.300000011921,,familiar_rating,118038,Bar Harbor,,49,Bar Harbor,US,1,,,,,,,,,,,,,,,
null,,confidence_buffer,118146,confidence_buffer,,null,,,,,,,,,,,,,,,,,,
3288.399999976158,,unique_rating,121436,Bar Harbor,,50,,,2,,,,,,,,,,,,,,,
null,,confidence_buffer,121547,confidence_buffer,,null,,,,,,,,,,,,,,,,,,
4680,,memorable_rating,126228,Bar Harbor,,53,,,5,,,,,,,,,,,,,,,
null,,confidence_buffer,126338,confidence_buffer,,null,,,,,,,,,,,,,,,,,,
null,,thebreak,126842,break,,null,,,,,,,,,,,,,,,,,,
6293.800000011921,,familiar_rating,133137,Crestwood,,49,Crestwood,Fictional,1,,,,,,,,,,,,,,,
null,,confidence_buffer,133244,confidence_buffer,,null,,,,,,,,,,,,,,,,,,
3292.699999988079,,unique_rating,136538,Crestwood,,50,,,2,,,,,,,,,,,,,,,
null,,confidence_buffer,136641,confidence_buffer,,null,,,,,,,,,,,,,,,,,,
3539.099999964237,,memorable_rating,140182,Crestwood,,53,,,5,,,,,,,,,,,,,,,
null,,confidence_buffer,140288,confidence_buffer,,null,,,,,,,,,,,,,,,,,,
null,,thebreak,140801,break,,null,,,,,,,,,,,,,,,,,,
6270.799999952316,,familiar_rating,147074,Rosehollow,,53,Rosehollow,Fictional,5,,,,,,,,,,,,,,,
null,,confidence_buffer,147191,confidence_buffer,,null,,,,,,,,,,,,,,,,,,
2924.5,,unique_rating,150117,Rosehollow,,52,,,4,,,,,,,,,,,,,,,
null,,confidence_buffer,150223,confidence_buffer,,null,,,,,,,,,,,,,,,,,,
2323.900000035763,,memorable_rating,152548,Rosehollow,,51,,,3,,,,,,,,,,,,,,,
null,,confidence_buffer,152651,confidence_buffer,,null,,,,,,,,,,,,,,,,,,
null,,thebreak,153162,break,,null,,,,,,,,,,,,,,,,,,
2676.800000011921,,familiar_rating,155840,Sitka,,51,Sitka,US,3,,,,,,,,,,,,,,,
null,,confidence_buffer,155942,confidence_buffer,,null,,,,,,,,,,,,,,,,,,
2639.199999988079,,unique_rating,158583,Sitka,,50,,,2,,,,,,,,,,,,,,,
null,,confidence_buffer,158693,confidence_buffer,,null,,,,,,,,,,,,,,,,,,
2533.800000011921,,memorable_rating,161229,Sitka,,50,,,2,,,,,,,,,,,,,,,
null,,confidence_buffer,161331,confidence_buffer,,null,,,,,,,,,,,,,,,,,,
null,,thebreak,161842,break,,null,,,,,,,,,,,,,,,,,,
3252.400000035763,,familiar_rating,165096,Leesburg,,49,Leesburg,US,1,,,,,,,,,,,,,,,
null,,confidence_buffer,165201,confidence_buffer,,null,,,,,,,,,,,,,,,,,,
3454.7999999523163,,unique_rating,168658,Leesburg,,50,,,2,,,,,,,,,,,,,,,
null,,confidence_buffer,168770,confidence_buffer,,null,,,,,,,,,,,,,,,,,,
2348.399999976158,,memorable_rating,171120,Leesburg,,51,,,3,,,,,,,,,,,,,,,
null,,confidence_buffer,171227,confidence_buffer,,null,,,,,,,,,,,,,,,,,,
null,,thebreak,171732,break,,null,,,,,,,,,,,,,,,,,,
2702.599999964237,,familiar_rating,174436,Elmsbury,,52,Elmsbury,Fictional,4,,,,,,,,,,,,,,,
null,,confidence_buffer,174544,confidence_buffer,,null,,,,,,,,,,,,,,,,,,
2389.199999988079,,unique_rating,176936,Elmsbury,,53,,,5,,,,,,,,,,,,,,,
null,,confidence_buffer,177044,confidence_buffer,,null,,,,,,,,,,,,,,,,,,
2354.199999988079,,memorable_rating,179400,Elmsbury,,52,,,4,,,,,,,,,,,,,,,
null,,confidence_buffer,179510,confidence_buffer,,null,,,,,,,,,,,,,,,,,,
null,,thebreak,180015,break,,null,,,,,,,,,,,,,,,,,,
3009.100000023842,,familiar_rating,183026,Orchard Bend,,51,Orchard Bend,Fictional,3,,,,,,,,,,,,,,,
null,,confidence_buffer,183130,confidence_buffer,,null,,,,,,,,,,,,,,,,,,
2851.199999988079,,unique_rating,185983,Orchard Bend,,50,,,2,,,,,,,,,,,,,,,
null,,confidence_buffer,186092,confidence_buffer,,null,,,,,,,,,,,,,,,,,,
2773.2999999523163,,memorable_rating,188867,Orchard Bend,,49,,,1,,,,,,,,,,,,,,,
null,,confidence_buffer,188969,confidence_buffer,,null,,,,,,,,,,,,,,,,,,
null,,thebreak,189473,break,,null,,,,,,,,,,,,,,,,,,
2446.100000023842,,familiar_rating,191921,Bowling Green,,50,Bowling Green,US,2,,,,,,,,,,,,,,,
null,,confidence_buffer,192029,confidence_buffer,,null,,,,,,,,,,,,,,,,,,
2571.099999964237,,unique_rating,194602,Bowling Green,,51,,,3,,,,,,,,,,,,,,,
null,,confidence_buffer,194711,confidence_buffer,,null,,,,,,,,,,,,,,,,,,
2712.199999988079,,memorable_rating,197426,Bowling Green,,52,,,4,,,,,,,,,,,,,,,
null,,confidence_buffer,197536,confidence_buffer,,null,,,,,,,,,,,,,,,,,,
null,,thebreak,198042,break,,null,,,,,,,,,,,,,,,,,,
2606,,familiar_rating,200650,Delaro Park,,53,Delaro Park,Fictional,5,,,,,,,,,,,,,,,
null,,confidence_buffer,200758,confidence_buffer,,null,,,,,,,,,,,,,,,,,,
2505.600000023842,,unique_rating,203264,Delaro Park,,52,,,4,,,,,,,,,,,,,,,
null,,confidence_buffer,203372,confidence_buffer,,null,,,,,,,,,,,,,,,,,,
2740.800000011921,,memorable_rating,206114,Delaro Park,,51,,,3,,,,,,,,,,,,,,,
null,,confidence_buffer,206219,confidence_buffer,,null,,,,,,,,,,,,,,,,,,
null,,thebreak,206732,break,,null,,,,,,,,,,,,,,,,,,
2598.199999988079,,familiar_rating,209332,East Ladera,,50,East Ladera,Fictional,2,,,,,,,,,,,,,,,
null,,confidence_buffer,209443,confidence_buffer,,null,,,,,,,,,,,,,,,,,,
5831.899999976158,,probe_rating,215276,probe_rating,,53,,,,5,1,,,,,,,,,,,,,
null,,confidence_buffer,215381,confidence_buffer,,null,,,,,,,,,,,,,,,,,,
3482.2999999523163,,unique_rating,218865,East Ladera,,52,,,4,,,,,,,,,,,,,,,
null,,confidence_buffer,218980,confidence_buffer,,null,,,,,,,,,,,,,,,,,,
2337.2000000476837,,memorable_rating,221319,East Ladera,,51,,,3,,,,,,,,,,,,,,,
null,,confidence_buffer,221430,confidence_buffer,,null,,,,,,,,,,,,,,,,,,
null,,thebreak,221937,break,,null,,,,,,,,,,,,,,,,,,
2728.900000035763,,familiar_rating,224667,Duck,,50,Duck,US,2,,,,,,,,,,,,,,,
null,,confidence_buffer,224771,confidence_buffer,,null,,,,,,,,,,,,,,,,,,
3501.5,,probe_rating,228275,probe_rating,,52,,,,4,1,,,,,,,,,,,,,
null,,confidence_buffer,228383,confidence_buffer,,null,,,,,,,,,,,,,,,,,,
2131.699999988079,,unique_rating,230516,Duck,,49,,,1,,,,,,,,,,,,,,,
null,,confidence_buffer,230622,confidence_buffer,,null,,,,,,,,,,,,,,,,,,
2821.899999976158,,memorable_rating,233446,Duck,,50,,,2,,,,,,,,,,,,,,,
null,,confidence_buffer,233553,confidence_buffer,,null,,,,,,,,,,,,,,,,,,
null,,thebreak,234070,break,,null,,,,,,,,,,,,,,,,,,
2145.199999988079,,familiar_rating,236217,Livingston,,51,Livingston,US,3,,,,,,,,,,,,,,,
null,,confidence_buffer,236327,confidence_buffer,,null,,,,,,,,,,,,,,,,,,
3030.7000000476837,,unique_rating,239359,Livingston,,52,,,4,,,,,,,,,,,,,,,
null,,confidence_buffer,239469,confidence_buffer,,null,,,,,,,,,,,,,,,,,,
2250.5,,memorable_rating,241721,Livingston,,53,,,5,,,,,,,,,,,,,,,
null,,confidence_buffer,241824,confidence_buffer,,null,,,,,,,,,,,,,,,,,,
null,,thebreak,242329,break,,null,,,,,,,,,,,,,,,,,,
2898.699999988079,,familiar_rating,245229,Abilene,,52,Abilene,US,4,,,,,,,,,,,,,,,
null,,confidence_buffer,245336,confidence_buffer,,null,,,,,,,,,,,,,,,,,,
2324,,unique_rating,247661,Abilene,,51,,,3,,,,,,,,,,,,,,,
null,,confidence_buffer,247766,confidence_buffer,,null,,,,,,,,,,,,,,,,,,
2508.400000035763,,memorable_rating,250275,Abilene,,50,,,2,,,,,,,,,,,,,,,
null,,confidence_buffer,250388,confidence_buffer,,null,,,,,,,,,,,,,,,,,,
null,,thebreak,250903,break,,null,,,,,,,,,,,,,,,,,,
1832.6000000238419,,familiar_rating,252737,Oakridge,,49,Oakridge,Fictional,1,,,,,,,,,,,,,,,
null,,confidence_buffer,252846,confidence_buffer,,null,,,,,,,,,,,,,,,,,,
2350.800000011921,,unique_rating,255198,Oakridge,,50,,,2,,,,,,,,,,,,,,,
null,,confidence_buffer,255304,confidence_buffer,,null,,,,,,,,,,,,,,,,,,
2401,,memorable_rating,257706,Oakridge,,51,,,3,,,,,,,,,,,,,,,
null,,confidence_buffer,257814,confidence_buffer,,null,,,,,,,,,,,,,,,,,,
null,,thebreak,258322,break,,null,,,,,,,,,,,,,,,,,,
2271.699999988079,,familiar_rating,260595,Albuquerque,,52,Albuquerque,US,4,,,,,,,,,,,,,,,
null,,confidence_buffer,260703,confidence_buffer,,null,,,,,,,,,,,,,,,,,,
2496.800000011921,,unique_rating,263200,Albuquerque,,53,,,5,,,,,,,,,,,,,,,
null,,confidence_buffer,263308,confidence_buffer,,null,,,,,,,,,,,,,,,,,,
2922,,memorable_rating,266232,Albuquerque,,52,,,4,,,,,,,,,,,,,,,
null,,confidence_buffer,266339,confidence_buffer,,null,,,,,,,,,,,,,,,,,,
null,,thebreak,266849,break,,null,,,,,,,,,,,,,,,,,,
2114.900000035763,,familiar_rating,268965,Meadowspire,,51,Meadowspire,Fictional,3,,,,,,,,,,,,,,,
null,,confidence_buffer,269071,confidence_buffer,,null,,,,,,,,,,,,,,,,,,
2739.800000011921,,unique_rating,271812,Meadowspire,,50,,,2,,,,,,,,,,,,,,,
null,,confidence_buffer,271921,confidence_buffer,,null,,,,,,,,,,,,,,,,,,
2989.399999976158,,memorable_rating,274912,Meadowspire,,49,,,1,,,,,,,,,,,,,,,
null,,confidence_buffer,275018,confidence_buffer,,null,,,,,,,,,,,,,,,,,,
null,,thebreak,275526,break,,null,,,,,,,,,,,,,,,,,,
2285.900000035763,,familiar_rating,277813,Millstone,,50,Millstone,Fictional,2,,,,,,,,,,,,,,,
null,,confidence_buffer,277920,confidence_buffer,,null,,,,,,,,,,,,,,,,,,
2325,,unique_rating,280247,Millstone,,51,,,3,,,,,,,,,,,,,,,
null,,confidence_buffer,280355,confidence_buffer,,null,,,,,,,,,,,,,,,,,,
2351.5,,memorable_rating,282708,Millstone,,52,,,4,,,,,,,,,,,,,,,
null,,confidence_buffer,282812,confidence_buffer,,null,,,,,,,,,,,,,,,,,,
null,,thebreak,283322,break,,null,,,,,,,,,,,,,,,,,,
2420.600000023842,,familiar_rating,285744,Sierra Hollow,,53,Sierra Hollow,Fictional,5,,,,,,,,,,,,,,,
null,,confidence_buffer,285852,confidence_buffer,,null,,,,,,,,,,,,,,,,,,
2590.300000011921,,unique_rating,288444,Sierra Hollow,,52,,,4,,,,,,,,,,,,,,,
null,,confidence_buffer,288547,confidence_buffer,,null,,,,,,,,,,,,,,,,,,
2233.300000011921,,memorable_rating,290781,Sierra Hollow,,51,,,3,,,,,,,,,,,,,,,
null,,confidence_buffer,290892,confidence_buffer,,null,,,,,,,,,,,,,,,,,,
null,,thebreak,291397,break,,null,,,,,,,,,,,,,,,,,,
2356.800000011921,,familiar_rating,293755,Delaware City,,50,Delaware City,US,2,,,,,,,,,,,,,,,
null,,confidence_buffer,293864,confidence_buffer,,null,,,,,,,,,,,,,,,,,,
3371.399999976158,,unique_rating,297237,Delaware City,,49,,,1,,,,,,,,,,,,,,,
null,,confidence_buffer,297348,confidence_buffer,,null,,,,,,,,,,,,,,,,,,
2901.699999988079,,memorable_rating,300252,Delaware City,,50,,,2,,,,,,,,,,,,,,,
null,,confidence_buffer,300363,confidence_buffer,,null,,,,,,,,,,,,,,,,,,
null,,thebreak,300871,break,,null,,,,,,,,,,,,,,,,,,
2629.699999988079,,familiar_rating,303501,Medora,,51,Medora,US,3,,,,,,,,,,,,,,,
null,,confidence_buffer,303612,confidence_buffer,,null,,,,,,,,,,,,,,,,,,
3054.199999988079,,unique_rating,306667,Medora,,52,,,4,,,,,,,,,,,,,,,
null,,confidence_buffer,306772,confidence_buffer,,null,,,,,,,,,,,,,,,,,,
2846.099999964237,,memorable_rating,309620,Medora,,53,,,5,,,,,,,,,,,,,,,
null,,confidence_buffer,309732,confidence_buffer,,null,,,,,,,,,,,,,,,,,,
null,,thebreak,310238,break,,null,,,,,,,,,,,,,,,,,,
2762.7000000476837,,familiar_rating,313002,Huntsville,,52,Huntsville,US,4,,,,,,,,,,,,,,,
null,,confidence_buffer,313113,confidence_buffer,,null,,,,,,,,,,,,,,,,,,
2829,,unique_rating,315944,Huntsville,,51,,,3,,,,,,,,,,,,,,,
null,,confidence_buffer,316046,confidence_buffer,,null,,,,,,,,,,,,,,,,,,
2866.400000035763,,memorable_rating,318914,Huntsville,,50,,,2,,,,,,,,,,,,,,,
null,,confidence_buffer,319023,confidence_buffer,,null,,,,,,,,,,,,,,,,,,
null,,thebreak,319535,break,,null,,,,,,,,,,,,,,,,,,
2452.100000023842,,familiar_rating,321988,Brookmere,,49,Brookmere,Fictional,1,,,,,,,,,,,,,,,
null,,confidence_buffer,322094,confidence_buffer,,null,,,,,,,,,,,,,,,,,,
2754.100000023842,,unique_rating,324849,Brookmere,,50,,,2,,,,,,,,,,,,,,,
null,,confidence_buffer,324956,confidence_buffer,,null,,,,,,,,,,,,,,,,,,
2310.199999988079,,memorable_rating,327268,Brookmere,,51,,,3,,,,,,,,,,,,,,,
null,,confidence_buffer,327379,confidence_buffer,,null,,,,,,,,,,,,,,,,,,
null,,thebreak,327889,break,,null,,,,,,,,,,,,,,,,,,
2232.900000035763,,familiar_rating,330123,Hanover,,52,Hanover,US,4,,,,,,,,,,,,,,,
null,,confidence_buffer,330235,confidence_buffer,,null,,,,,,,,,,,,,,,,,,
2385.599999964237,,unique_rating,332622,Hanover,,53,,,5,,,,,,,,,,,,,,,
null,,confidence_buffer,332730,confidence_buffer,,null,,,,,,,,,,,,,,,,,,
2873.300000011921,,memorable_rating,335605,Hanover,,52,,,4,,,,,,,,,,,,,,,
null,,confidence_buffer,335711,confidence_buffer,,null,,,,,,,,,,,,,,,,,,
null,,thebreak,336222,break,,null,,,,,,,,,,,,,,,,,,
2089.699999988079,,familiar_rating,338313,Sammamish,,51,Sammamish,US,3,,,,,,,,,,,,,,,
null,,confidence_buffer,338416,confidence_buffer,,null,,,,,,,,,,,,,,,,,,
2478.100000023842,,unique_rating,340895,Sammamish,,50,,,2,,,,,,,,,,,,,,,
null,,confidence_buffer,341007,confidence_buffer,,null,,,,,,,,,,,,,,,,,,
2902.699999988079,,memorable_rating,343911,Sammamish,,49,,,1,,,,,,,,,,,,,,,
null,,confidence_buffer,344026,confidence_buffer,,null,,,,,,,,,,,,,,,,,,
null,,thebreak,344532,break,,null,,,,,,,,,,,,,,,,,,
2786.199999988079,,familiar_rating,347320,Linden Trace,,50,Linden Trace,Fictional,2,,,,,,,,,,,,,,,
null,,confidence_buffer,347424,confidence_buffer,,null,,,,,,,,,,,,,,,,,,
2625.399999976158,,unique_rating,350051,Linden Trace,,51,,,3,,,,,,,,,,,,,,,
null,,confidence_buffer,350163,confidence_buffer,,null,,,,,,,,,,,,,,,,,,
2253.2999999523163,,memorable_rating,352417,Linden Trace,,52,,,4,,,,,,,,,,,,,,,
null,,confidence_buffer,352522,confidence_buffer,,null,,,,,,,,,,,,,,,,,,
null,,thebreak,353031,break,,null,,,,,,,,,,,,,,,,,,
2022.300000011921,,familiar_rating,355055,Gloucester,,53,Gloucester,US,5,,,,,,,,,,,,,,,
null,,confidence_buffer,355163,confidence_buffer,,null,,,,,,,,,,,,,,,,,,
2666,,unique_rating,357831,Gloucester,,52,,,4,,,,,,,,,,,,,,,
null,,confidence_buffer,357938,confidence_buffer,,null,,,,,,,,,,,,,,,,,,
2331.900000035763,,memorable_rating,360272,Gloucester,,51,,,3,,,,,,,,,,,,,,,
null,,confidence_buffer,360382,confidence_buffer,,null,,,,,,,,,,,,,,,,,,
null,,thebreak,360883,break,,null,,,,,,,,,,,,,,,,,,
2194,,familiar_rating,363078,Sunmere,,50,Sunmere,Fictional,2,,,,,,,,,,,,,,,
null,,confidence_buffer,363189,confidence_buffer,,null,,,,,,,,,,,,,,,,,,
2231.7999999523163,,unique_rating,365422,Sunmere,,49,,,1,,,,,,,,,,,,,,,
null,,confidence_buffer,365532,confidence_buffer,,null,,,,,,,,,,,,,,,,,,
2466.300000011921,,memorable_rating,367999,Sunmere,,50,,,2,,,,,,,,,,,,,,,
null,,confidence_buffer,368101,confidence_buffer,,null,,,,,,,,,,,,,,,,,,
null,,thebreak,368608,break,,null,,,,,,,,,,,,,,,,,,
2187.699999988079,,familiar_rating,370797,Solara Glen,,51,Solara Glen,Fictional,3,,,,,,,,,,,,,,,
null,,confidence_buffer,370907,confidence_buffer,,null,,,,,,,,,,,,,,,,,,
1886.8999999761581,,unique_rating,372795,Solara Glen,,52,,,4,,,,,,,,,,,,,,,
null,,confidence_buffer,372902,confidence_buffer,,null,,,,,,,,,,,,,,,,,,
2068.199999988079,,memorable_rating,374972,Solara Glen,,53,,,5,,,,,,,,,,,,,,,
null,,confidence_buffer,375084,confidence_buffer,,null,,,,,,,,,,,,,,,,,,
3885.5,,probe_rating,378971,probe_rating,,50,,,,2,1,,,,,,,,,,,,,
null,,confidence_buffer,379081,confidence_buffer,,null,,,,,,,,,,,,,,,,,,
null,,thebreak,379598,break,,null,,,,,,,,,,,,,,,,,,
2040.800000011921,,familiar_rating,381640,Golden Trace,,49,Golden Trace,Fictional,1,,,,,,,,,,,,,,,
null,,confidence_buffer,381746,confidence_buffer,,null,,,,,,,,,,,,,,,,,,
3197.5,,unique_rating,384945,Golden Trace,,50,,,2,,,,,,,,,,,,,,,
null,,confidence_buffer,385058,confidence_buffer,,null,,,,,,,,,,,,,,,,,,
1908.3999999761581,,memorable_rating,386969,Golden Trace,,51,,,3,,,,,,,,,,,,,,,
null,,confidence_buffer,387072,confidence_buffer,,null,,,,,,,,,,,,,,,,,,
2683.599999964237,,probe_rating,389757,probe_rating,,50,,,,2,1,,,,,,,,,,,,,
null,,confidence_buffer,389863,confidence_buffer,,null,,,,,,,,,,,,,,,,,,
null,,thebreak,390369,break,,null,,,,,,,,,,,,,,,,,,
6306.599999964237,,intro_0,396677,instruct,,32,,,,,,,,,,,,,,,,,,
18382.599999964237,,intro_1,415061,instruct,,32,,,,,,,,,,,,,,,,,,
21063.600000023842,,intro_2,436126,instruct,,32,,,,,,,,,,,,,,,,,,
null,,instruct_dir_4,437629,instruct,,null,,,,,,,,,,,,,,,,,,
11099.900000035763,,realistic_rating,448731,Assateague Island,,51,Assateague Island,US,3,,,,,,,,,,,,,,,
null,,confidence_buffer,448836,confidence_buffer,,null,,,,,,,,,,,,,,,,,,
3552.100000023842,,pt2_unique_rating,452390,Assateague Island,,51,,,3,,,,,,,,,,,,,,,
null,,confidence_buffer,452497,confidence_buffer,,null,,,,,,,,,,,,,,,,,,
3870.100000023842,,pt2_memorable_rating,456369,Assateague Island,,51,,,3,,,,,,,,,,,,,,,
null,,confidence_buffer,456472,confidence_buffer,,null,,,,,,,,,,,,,,,,,,
4067.100000023842,,recognition_phase,460541,Assateague Island,,49,,,,,,old,0,0,,,,,,,,,,
null,,confidence_buffer,460650,confidence_buffer,,null,,,,,,,,,,,,,,,,,,
null,,thebreak,461161,break,,null,,,,,,,,,,,,,,,,,,
3018.5,,realistic_rating,464181,Gloucester,,51,Gloucester,US,3,,,,,,,,,,,,,,,
null,,confidence_buffer,464286,confidence_buffer,,null,,,,,,,,,,,,,,,,,,
1890.1000000238419,,pt2_unique_rating,466178,Gloucester,,51,,,3,,,,,,,,,,,,,,,
null,,confidence_buffer,466283,confidence_buffer,,null,,,,,,,,,,,,,,,,,,
1904.199999988079,,pt2_memorable_rating,468189,Gloucester,,51,,,3,,,,,,,,,,,,,,,
null,,confidence_buffer,468297,confidence_buffer,,null,,,,,,,,,,,,,,,,,,
2492.699999988079,,recognition_phase,470792,Gloucester,,52,,,,,,new,0,0,,,,,,,,,,
null,,confidence_buffer,470899,confidence_buffer,,null,,,,,,,,,,,,,,,,,,
null,,thebreak,471406,break,,null,,,,,,,,,,,,,,,,,,
3524.399999976158,,realistic_rating,474932,Medora,,51,Medora,US,3,,,,,,,,,,,,,,,
null,,confidence_buffer,475053,confidence_buffer,,null,,,,,,,,,,,,,,,,,,
1930.2000000476837,,pt2_unique_rating,476985,Medora,,51,,,3,,,,,,,,,,,,,,,
null,,confidence_buffer,477094,confidence_buffer,,null,,,,,,,,,,,,,,,,,,
3818.099999964237,,probe_rating,480914,probe_rating,,53,,,,5,1,,,,,,,,,,,,,
null,,confidence_buffer,481016,confidence_buffer,,null,,,,,,,,,,,,,,,,,,
1434.5999999642372,,pt2_memorable_rating,482451,Medora,,51,,,3,,,,,,,,,,,,,,,
null,,confidence_buffer,482560,confidence_buffer,,null,,,,,,,,,,,,,,,,,,
2717.099999964237,,recognition_phase,485278,Medora,,52,,,,,,new,0,0,,,,,,,,,,
null,,confidence_buffer,485381,confidence_buffer,,null,,,,,,,,,,,,,,,,,,
null,,thebreak,485886,break,,null,,,,,,,,,,,,,,,,,,
3462.199999988079,,realistic_rating,489350,Cedarwyn,,52,Cedarwyn,Fictional,4,,,,,,,,,,,,,,,
null,,confidence_buffer,489455,confidence_buffer,,null,,,,,,,,,,,,,,,,,,
1580.3999999761581,,pt2_unique_rating,491037,Cedarwyn,,52,,,4,,,,,,,,,,,,,,,
null,,confidence_buffer,491145,confidence_buffer,,null,,,,,,,,,,,,,,,,,,
2413.600000023842,,probe_rating,493560,probe_rating,,53,,,,5,1,,,,,,,,,,,,,
null,,confidence_buffer,493667,confidence_buffer,,null,,,,,,,,,,,,,,,,,,
1757.5,,pt2_memorable_rating,495427,Cedarwyn,,51,,,3,,,,,,,,,,,,,,,
null,,confidence_buffer,495530,confidence_buffer,,null,,,,,,,,,,,,,,,,,,
2501.199999988079,,recognition_phase,498033,Cedarwyn,,50,,,,,,old,0,0,,,,,,,,,,
null,,confidence_buffer,498145,confidence_buffer,,null,,,,,,,,,,,,,,,,,,
null,,thebreak,498656,break,,null,,,,,,,,,,,,,,,,,,
2871.800000011921,,realistic_rating,501529,Riverlyn,,51,Riverlyn,Fictional,3,,,,,,,,,,,,,,,
null,,confidence_buffer,501639,confidence_buffer,,null,,,,,,,,,,,,,,,,,,
1913.5,,pt2_unique_rating,503554,Riverlyn,,51,,,3,,,,,,,,,,,,,,,
null,,confidence_buffer,503660,confidence_buffer,,null,,,,,,,,,,,,,,,,,,
1502.699999988079,,pt2_memorable_rating,505164,Riverlyn,,51,,,3,,,,,,,,,,,,,,,
null,,confidence_buffer,505271,confidence_buffer,,null,,,,,,,,,,,,,,,,,,
3585.399999976158,,recognition_phase,508858,Riverlyn,,51,,,,,,new,1,0.2,,,,,,,,,,
null,,confidence_buffer,508961,confidence_buffer,,null,,,,,,,,,,,,,,,,,,
null,,thebreak,509474,break,,null,,,,,,,,,,,,,,,,,,
3205.199999988079,,realistic_rating,512681,Park City,,51,Park City,US,3,,,,,,,,,,,,,,,
null,,confidence_buffer,512792,confidence_buffer,,null,,,,,,,,,,,,,,,,,,
1605.8999999761581,,pt2_unique_rating,514400,Park City,,51,,,3,,,,,,,,,,,,,,,
null,,confidence_buffer,514514,confidence_buffer,,null,,,,,,,,,,,,,,,,,,
1484.199999988079,,pt2_memorable_rating,516000,Park City,,51,,,3,,,,,,,,,,,,,,,
null,,confidence_buffer,516106,confidence_buffer,,null,,,,,,,,,,,,,,,,,,
2217.300000011921,,recognition_phase,518325,Park City,,51,,,,,,new,1,0.3333333333333333,,,,,,,,,,
null,,confidence_buffer,518430,confidence_buffer,,null,,,,,,,,,,,,,,,,,,
null,,thebreak,518932,break,,null,,,,,,,,,,,,,,,,,,
2618.5,,realistic_rating,521552,Willowford,,51,Willowford,Fictional,3,,,,,,,,,,,,,,,
null,,confidence_buffer,521662,confidence_buffer,,null,,,,,,,,,,,,,,,,,,
1750.0999999642372,,pt2_unique_rating,523414,Willowford,,51,,,3,,,,,,,,,,,,,,,
null,,confidence_buffer,523519,confidence_buffer,,null,,,,,,,,,,,,,,,,,,
1781,,pt2_memorable_rating,525302,Willowford,,51,,,3,,,,,,,,,,,,,,,
null,,confidence_buffer,525408,confidence_buffer,,null,,,,,,,,,,,,,,,,,,
2414.400000035763,,probe_rating,527824,probe_rating,,52,,,,4,1,,,,,,,,,,,,,
null,,confidence_buffer,527928,confidence_buffer,,null,,,,,,,,,,,,,,,,,,
2446.399999976158,,recognition_phase,530376,Willowford,,51,,,,,,new,1,0.42857142857142855,,,,,,,,,,
null,,confidence_buffer,530482,confidence_buffer,,null,,,,,,,,,,,,,,,,,,
null,,thebreak,530988,break,,null,,,,,,,,,,,,,,,,,,
2409.300000011921,,realistic_rating,533398,Alliance,,51,Alliance,US,3,,,,,,,,,,,,,,,
null,,confidence_buffer,533501,confidence_buffer,,null,,,,,,,,,,,,,,,,,,
2321.100000023842,,pt2_unique_rating,535825,Alliance,,51,,,3,,,,,,,,,,,,,,,
null,,confidence_buffer,535935,confidence_buffer,,null,,,,,,,,,,,,,,,,,,
1809.7000000476837,,pt2_memorable_rating,537747,Alliance,,51,,,3,,,,,,,,,,,,,,,
null,,confidence_buffer,537852,confidence_buffer,,null,,,,,,,,,,,,,,,,,,
3979.699999988079,,recognition_phase,541834,Alliance,,51,,,,,,new,0,0.375,,,,,,,,,,
null,,confidence_buffer,541937,confidence_buffer,,null,,,,,,,,,,,,,,,,,,
null,,thebreak,542448,break,,null,,,,,,,,,,,,,,,,,,
3421.400000035763,,realistic_rating,545871,Baymarsh,,51,Baymarsh,Fictional,3,,,,,,,,,,,,,,,
null,,confidence_buffer,545975,confidence_buffer,,null,,,,,,,,,,,,,,,,,,
1761.1000000238419,,pt2_unique_rating,547737,Baymarsh,,51,,,3,,,,,,,,,,,,,,,
null,,confidence_buffer,547846,confidence_buffer,,null,,,,,,,,,,,,,,,,,,
1869.3999999761581,,pt2_memorable_rating,549717,Baymarsh,,51,,,3,,,,,,,,,,,,,,,
null,,confidence_buffer,549829,confidence_buffer,,null,,,,,,,,,,,,,,,,,,
3595,,probe_rating,553426,probe_rating,,50,,,,2,1,,,,,,,,,,,,,
null,,confidence_buffer,553536,confidence_buffer,,null,,,,,,,,,,,,,,,,,,
2629,,recognition_phase,556166,Baymarsh,,51,,,,,,new,1,0.4444444444444444,,,,,,,,,,
null,,confidence_buffer,556283,confidence_buffer,,null,,,,,,,,,,,,,,,,,,
null,,thebreak,556790,break,,null,,,,,,,,,,,,,,,,,,
2320.699999988079,,realistic_rating,559112,New Hope,,51,New Hope,US,3,,,,,,,,,,,,,,,
null,,confidence_buffer,559219,confidence_buffer,,null,,,,,,,,,,,,,,,,,,
2030.300000011921,,pt2_unique_rating,561251,New Hope,,51,,,3,,,,,,,,,,,,,,,
null,,confidence_buffer,561357,confidence_buffer,,null,,,,,,,,,,,,,,,,,,
2567.7999999523163,,pt2_memorable_rating,563926,New Hope,,51,,,3,,,,,,,,,,,,,,,
null,,confidence_buffer,564030,confidence_buffer,,null,,,,,,,,,,,,,,,,,,
2321.600000023842,,recognition_phase,566354,New Hope,,51,,,,,,new,1,0.5,,,,,,,,,,
null,,confidence_buffer,566462,confidence_buffer,,null,,,,,,,,,,,,,,,,,,
null,,thebreak,566966,break,,null,,,,,,,,,,,,,,,,,,
3563.399999976158,,realistic_rating,570531,Juniper Creek,,51,Juniper Creek,Fictional,3,,,,,,,,,,,,,,,
null,,confidence_buffer,570640,confidence_buffer,,null,,,,,,,,,,,,,,,,,,
2242.699999988079,,pt2_unique_rating,572884,Juniper Creek,,51,,,3,,,,,,,,,,,,,,,
null,,confidence_buffer,572993,confidence_buffer,,null,,,,,,,,,,,,,,,,,,
2068.5,,pt2_memorable_rating,575063,Juniper Creek,,51,,,3,,,,,,,,,,,,,,,
null,,confidence_buffer,575171,confidence_buffer,,null,,,,,,,,,,,,,,,,,,
2216.2000000476837,,recognition_phase,577389,Juniper Creek,,51,,,,,,new,1,0.5454545454545454,,,,,,,,,,
null,,confidence_buffer,577491,confidence_buffer,,null,,,,,,,,,,,,,,,,,,
null,,thebreak,577999,break,,null,,,,,,,,,,,,,,,,,,
3132.399999976158,,realistic_rating,581133,Duck,,51,Duck,US,3,,,,,,,,,,,,,,,
null,,confidence_buffer,581237,confidence_buffer,,null,,,,,,,,,,,,,,,,,,
1306.3999999761581,,pt2_unique_rating,582546,Duck,,51,,,3,,,,,,,,,,,,,,,
null,,confidence_buffer,582656,confidence_buffer,,null,,,,,,,,,,,,,,,,,,
1198.800000011921,,pt2_memorable_rating,583857,Duck,,51,,,3,,,,,,,,,,,,,,,
null,,confidence_buffer,583960,confidence_buffer,,null,,,,,,,,,,,,,,,,,,
2071.099999964237,,recognition_phase,586033,Duck,,51,,,,,,new,0,0.5,,,,,,,,,,
null,,confidence_buffer,586141,confidence_buffer,,null,,,,,,,,,,,,,,,,,,
null,,thebreak,586651,break,,null,,,,,,,,,,,,,,,,,,
2855.100000023842,,realistic_rating,589508,Abilene,,51,Abilene,US,3,,,,,,,,,,,,,,,
null,,confidence_buffer,589614,confidence_buffer,,null,,,,,,,,,,,,,,,,,,
1575.300000011921,,pt2_unique_rating,591191,Abilene,,51,,,3,,,,,,,,,,,,,,,
null,,confidence_buffer,591293,confidence_buffer,,null,,,,,,,,,,,,,,,,,,
1664.199999988079,,pt2_memorable_rating,592958,Abilene,,51,,,3,,,,,,,,,,,,,,,
null,,confidence_buffer,593068,confidence_buffer,,null,,,,,,,,,,,,,,,,,,
1848.199999988079,,recognition_phase,594918,Abilene,,51,,,,,,new,0,0.46153846153846156,,,,,,,,,,
null,,confidence_buffer,595029,confidence_buffer,,null,,,,,,,,,,,,,,,,,,
null,,thebreak,595534,break,,null,,,,,,,,,,,,,,,,,,
6591.100000023842,,realistic_rating,602126,Falconridge,,51,Falconridge,Fictional,3,,,,,,,,,,,,,,,
null,,confidence_buffer,602235,confidence_buffer,,null,,,,,,,,,,,,,,,,,,
2476.399999976158,,pt2_unique_rating,604713,Falconridge,,51,,,3,,,,,,,,,,,,,,,
null,,confidence_buffer,604824,confidence_buffer,,null,,,,,,,,,,,,,,,,,,
2556.199999988079,,pt2_memorable_rating,607382,Falconridge,,51,,,3,,,,,,,,,,,,,,,
null,,confidence_buffer,607492,confidence_buffer,,null,,,,,,,,,,,,,,,,,,
2588.800000011921,,recognition_phase,610082,Falconridge,,51,,,,,,new,1,0.5,,,,,,,,,,
null,,confidence_buffer,610202,confidence_buffer,,null,,,,,,,,,,,,,,,,,,
null,,thebreak,610714,break,,null,,,,,,,,,,,,,,,,,,
55893.40000003576,,realistic_rating,666608,Ashford Hills,,51,Ashford Hills,Fictional,3,,,,,,,,,,,,,,,
null,,confidence_buffer,666711,confidence_buffer,,null,,,,,,,,,,,,,,,,,,
1307.800000011921,,pt2_unique_rating,668019,Ashford Hills,,51,,,3,,,,,,,,,,,,,,,
null,,confidence_buffer,668123,confidence_buffer,,null,,,,,,,,,,,,,,,,,,
2532.699999988079,,pt2_memorable_rating,670658,Ashford Hills,,51,,,3,,,,,,,,,,,,,,,
null,,confidence_buffer,670762,confidence_buffer,,null,,,,,,,,,,,,,,,,,,
1440.4000000357628,,recognition_phase,672205,Ashford Hills,,49,,,,,,old,0,0.4666666666666667,,,,,,,,,,
null,,confidence_buffer,672317,confidence_buffer,,null,,,,,,,,,,,,,,,,,,
null,,thebreak,672825,break,,null,,,,,,,,,,,,,,,,,,
1121.6000000238419,,realistic_rating,673948,Hot Springs,,51,Hot Springs,US,3,,,,,,,,,,,,,,,
null,,confidence_buffer,674057,confidence_buffer,,null,,,,,,,,,,,,,,,,,,
1202.8999999761581,,pt2_unique_rating,675262,Hot Springs,,51,,,3,,,,,,,,,,,,,,,
null,,confidence_buffer,675367,confidence_buffer,,null,,,,,,,,,,,,,,,,,,
1267.9000000357628,,pt2_memorable_rating,676637,Hot Springs,,51,,,3,,,,,,,,,,,,,,,
null,,confidence_buffer,676751,confidence_buffer,,null,,,,,,,,,,,,,,,,,,
1312.7999999523163,,recognition_phase,678066,Hot Springs,,49,,,,,,old,0,0.4375,,,,,,,,,,
null,,confidence_buffer,678173,confidence_buffer,,null,,,,,,,,,,,,,,,,,,
null,,thebreak,678689,break,,null,,,,,,,,,,,,,,,,,,
1856.800000011921,,realistic_rating,680547,Crestwood,,51,Crestwood,Fictional,3,,,,,,,,,,,,,,,
null,,confidence_buffer,680654,confidence_buffer,,null,,,,,,,,,,,,,,,,,,
1500.3999999761581,,pt2_unique_rating,682156,Crestwood,,51,,,3,,,,,,,,,,,,,,,
null,,confidence_buffer,682262,confidence_buffer,,null,,,,,,,,,,,,,,,,,,
1149.300000011921,,pt2_memorable_rating,683413,Crestwood,,51,,,3,,,,,,,,,,,,,,,
null,,confidence_buffer,683518,confidence_buffer,,null,,,,,,,,,,,,,,,,,,
896.5,,recognition_phase,684416,Crestwood,,49,,,,,,old,1,0.47058823529411764,,,,,,,,,,
null,,confidence_buffer,684528,confidence_buffer,,null,,,,,,,,,,,,,,,,,,
null,,thebreak,685046,break,,null,,,,,,,,,,,,,,,,,,
887.3000000119209,,realistic_rating,685935,Highvale,,51,Highvale,Fictional,3,,,,,,,,,,,,,,,
null,,confidence_buffer,686041,confidence_buffer,,null,,,,,,,,,,,,,,,,,,
1099.8999999761581,,pt2_unique_rating,687142,Highvale,,51,,,3,,,,,,,,,,,,,,,
null,,confidence_buffer,687248,confidence_buffer,,null,,,,,,,,,,,,,,,,,,
1086.300000011921,,pt2_memorable_rating,688336,Highvale,,51,,,3,,,,,,,,,,,,,,,
null,,confidence_buffer,688442,confidence_buffer,,null,,,,,,,,,,,,,,,,,,
1672.7999999523163,,recognition_phase,690117,Highvale,,49,,,,,,old,0,0.4444444444444444,,,,,,,,,,
null,,confidence_buffer,690224,confidence_buffer,,null,,,,,,,,,,,,,,,,,,
null,,thebreak,690731,break,,null,,,,,,,,,,,,,,,,,,
3023.7999999523163,,realistic_rating,693757,Meadowspire,,51,Meadowspire,Fictional,3,,,,,,,,,,,,,,,
null,,confidence_buffer,693861,confidence_buffer,,null,,,,,,,,,,,,,,,,,,
1162.699999988079,,pt2_unique_rating,695025,Meadowspire,,51,,,3,,,,,,,,,,,,,,,
null,,confidence_buffer,695131,confidence_buffer,,null,,,,,,,,,,,,,,,,,,
1333.8999999761581,,pt2_memorable_rating,696466,Meadowspire,,51,,,3,,,,,,,,,,,,,,,
null,,confidence_buffer,696577,confidence_buffer,,null,,,,,,,,,,,,,,,,,,
1098,,recognition_phase,697676,Meadowspire,,49,,,,,,old,1,0.47368421052631576,,,,,,,,,,
null,,confidence_buffer,697779,confidence_buffer,,null,,,,,,,,,,,,,,,,,,
null,,thebreak,698293,break,,null,,,,,,,,,,,,,,,,,,
1895.8999999761581,,realistic_rating,700190,Orchard Bend,,51,Orchard Bend,Fictional,3,,,,,,,,,,,,,,,
null,,confidence_buffer,700297,confidence_buffer,,null,,,,,,,,,,,,,,,,,,
1335.3999999761581,,pt2_unique_rating,701635,Orchard Bend,,51,,,3,,,,,,,,,,,,,,,
null,,confidence_buffer,701741,confidence_buffer,,null,,,,,,,,,,,,,,,,,,
1172.5,,pt2_memorable_rating,702916,Orchard Bend,,51,,,3,,,,,,,,,,,,,,,
null,,confidence_buffer,703026,confidence_buffer,,null,,,,,,,,,,,,,,,,,,
1098,,recognition_phase,704125,Orchard Bend,,49,,,,,,old,1,0.5,,,,,,,,,,
null,,confidence_buffer,704233,confidence_buffer,,null,,,,,,,,,,,,,,,,,,
null,,thebreak,704743,break,,null,,,,,,,,,,,,,,,,,,
1272.8999999761581,,realistic_rating,706018,Oakridge,,51,Oakridge,Fictional,3,,,,,,,,,,,,,,,
null,,confidence_buffer,706127,confidence_buffer,,null,,,,,,,,,,,,,,,,,,
1177.1000000238419,,pt2_unique_rating,707306,Oakridge,,51,,,3,,,,,,,,,,,,,,,
null,,confidence_buffer,707417,confidence_buffer,,null,,,,,,,,,,,,,,,,,,
2371.399999976158,,pt2_memorable_rating,709791,Oakridge,,51,,,3,,,,,,,,,,,,,,,
null,,confidence_buffer,709903,confidence_buffer,,null,,,,,,,,,,,,,,,,,,
746.9000000357628,,recognition_phase,710651,Oakridge,,51,,,,,,new,0,0.47619047619047616,,,,,,,,,,
null,,confidence_buffer,710768,confidence_buffer,,null,,,,,,,,,,,,,,,,,,
null,,thebreak,711270,break,,null,,,,,,,,,,,,,,,,,,
1907.4000000357628,,realistic_rating,713178,Sierra Hollow,,51,Sierra Hollow,Fictional,3,,,,,,,,,,,,,,,
null,,confidence_buffer,713288,confidence_buffer,,null,,,,,,,,,,,,,,,,,,
1089,,pt2_unique_rating,714378,Sierra Hollow,,51,,,3,,,,,,,,,,,,,,,
null,,confidence_buffer,714481,confidence_buffer,,null,,,,,,,,,,,,,,,,,,
1271.699999988079,,pt2_memorable_rating,715754,Sierra Hollow,,51,,,3,,,,,,,,,,,,,,,
null,,confidence_buffer,715857,confidence_buffer,,null,,,,,,,,,,,,,,,,,,
1131.199999988079,,recognition_phase,716990,Sierra Hollow,,51,,,,,,new,0,0.45454545454545453,,,,,,,,,,
null,,confidence_buffer,717100,confidence_buffer,,null,,,,,,,,,,,,,,,,,,
null,,thebreak,717607,break,,null,,,,,,,,,,,,,,,,,,
1617.9000000357628,,realistic_rating,719227,Huntsville,,51,Huntsville,US,3,,,,,,,,,,,,,,,
null,,confidence_buffer,719335,confidence_buffer,,null,,,,,,,,,,,,,,,,,,
810.7000000476837,,pt2_unique_rating,720147,Huntsville,,51,,,3,,,,,,,,,,,,,,,
null,,confidence_buffer,720266,confidence_buffer,,null,,,,,,,,,,,,,,,,,,
1115.0999999642372,,pt2_memorable_rating,721382,Huntsville,,51,,,3,,,,,,,,,,,,,,,
null,,confidence_buffer,721488,confidence_buffer,,null,,,,,,,,,,,,,,,,,,
5890.199999988079,,recognition_phase,727379,Huntsville,,51,,,,,,new,0,0.43478260869565216,,,,,,,,,,
null,,confidence_buffer,727488,confidence_buffer,,null,,,,,,,,,,,,,,,,,,
null,,thebreak,727996,break,,null,,,,,,,,,,,,,,,,,,
2310.800000011921,,realistic_rating,730308,Delaro Park,,51,Delaro Park,Fictional,3,,,,,,,,,,,,,,,
null,,confidence_buffer,730413,confidence_buffer,,null,,,,,,,,,,,,,,,,,,
1282.300000011921,,pt2_unique_rating,731697,Delaro Park,,51,,,3,,,,,,,,,,,,,,,
null,,confidence_buffer,731807,confidence_buffer,,null,,,,,,,,,,,,,,,,,,
1100.199999988079,,pt2_memorable_rating,732909,Delaro Park,,51,,,3,,,,,,,,,,,,,,,
null,,confidence_buffer,733016,confidence_buffer,,null,,,,,,,,,,,,,,,,,,
891.6000000238419,,recognition_phase,733910,Delaro Park,,51,,,,,,new,0,0.4166666666666667,,,,,,,,,,
null,,confidence_buffer,734013,confidence_buffer,,null,,,,,,,,,,,,,,,,,,
null,,thebreak,734527,break,,null,,,,,,,,,,,,,,,,,,
3086.199999988079,,realistic_rating,737614,Sammamish,,51,Sammamish,US,3,,,,,,,,,,,,,,,
null,,confidence_buffer,737723,confidence_buffer,,null,,,,,,,,,,,,,,,,,,
2094.300000011921,,pt2_unique_rating,739819,Sammamish,,51,,,3,,,,,,,,,,,,,,,
null,,confidence_buffer,739925,confidence_buffer,,null,,,,,,,,,,,,,,,,,,
1627.6000000238419,,pt2_memorable_rating,741554,Sammamish,,51,,,3,,,,,,,,,,,,,,,
null,,confidence_buffer,741655,confidence_buffer,,null,,,,,,,,,,,,,,,,,,
2612.300000011921,,recognition_phase,744269,Sammamish,,51,,,,,,new,0,0.4,,,,,,,,,,
null,,confidence_buffer,744373,confidence_buffer,,null,,,,,,,,,,,,,,,,,,
null,,thebreak,744881,break,,null,,,,,,,,,,,,,,,,,,
2336.400000035763,,realistic_rating,747219,Folly Beach,,51,Folly Beach,US,3,,,,,,,,,,,,,,,
null,,confidence_buffer,747325,confidence_buffer,,null,,,,,,,,,,,,,,,,,,
1448,,pt2_unique_rating,748775,Folly Beach,,51,,,3,,,,,,,,,,,,,,,
null,,confidence_buffer,748887,confidence_buffer,,null,,,,,,,,,,,,,,,,,,
1405.300000011921,,pt2_memorable_rating,750294,Folly Beach,,51,,,3,,,,,,,,,,,,,,,
null,,confidence_buffer,750398,confidence_buffer,,null,,,,,,,,,,,,,,,,,,
2192.2000000476837,,recognition_phase,752592,Folly Beach,,51,,,,,,new,1,0.4230769230769231,,,,,,,,,,
null,,confidence_buffer,752698,confidence_buffer,,null,,,,,,,,,,,,,,,,,,
null,,thebreak,753201,break,,null,,,,,,,,,,,,,,,,,,
2404.800000011921,,realistic_rating,755608,Golden Trace,,51,Golden Trace,Fictional,3,,,,,,,,,,,,,,,
null,,confidence_buffer,755714,confidence_buffer,,null,,,,,,,,,,,,,,,,,,
1568.4000000357628,,pt2_unique_rating,757283,Golden Trace,,51,,,3,,,,,,,,,,,,,,,
null,,confidence_buffer,757390,confidence_buffer,,null,,,,,,,,,,,,,,,,,,
1581.6000000238419,,pt2_memorable_rating,758973,Golden Trace,,51,,,3,,,,,,,,,,,,,,,
null,,confidence_buffer,759076,confidence_buffer,,null,,,,,,,,,,,,,,,,,,
2013.7999999523163,,recognition_phase,761092,Golden Trace,,51,,,,,,new,0,0.4074074074074074,,,,,,,,,,
null,,confidence_buffer,761209,confidence_buffer,,null,,,,,,,,,,,,,,,,,,
null,,thebreak,761721,break,,null,,,,,,,,,,,,,,,,,,
3696.5,,realistic_rating,765420,Fairhaven,,51,Fairhaven,Fictional,3,,,,,,,,,,,,,,,
null,,confidence_buffer,765529,confidence_buffer,,null,,,,,,,,,,,,,,,,,,
3027.900000035763,,pt2_unique_rating,768559,Fairhaven,,51,,,3,,,,,,,,,,,,,,,
null,,confidence_buffer,768665,confidence_buffer,,null,,,,,,,,,,,,,,,,,,
1304.699999988079,,pt2_memorable_rating,769972,Fairhaven,,51,,,3,,,,,,,,,,,,,,,
null,,confidence_buffer,770078,confidence_buffer,,null,,,,,,,,,,,,,,,,,,
2061,,recognition_phase,772140,Fairhaven,,49,,,,,,old,0,0.39285714285714285,,,,,,,,,,
null,,confidence_buffer,772244,confidence_buffer,,null,,,,,,,,,,,,,,,,,,
null,,thebreak,772751,break,,null,,,,,,,,,,,,,,,,,,
1507.699999988079,,realistic_rating,774261,Racine,,51,Racine,US,3,,,,,,,,,,,,,,,
null,,confidence_buffer,774367,confidence_buffer,,null,,,,,,,,,,,,,,,,,,
1242,,pt2_unique_rating,775611,Racine,,51,,,3,,,,,,,,,,,,,,,
null,,confidence_buffer,775720,confidence_buffer,,null,,,,,,,,,,,,,,,,,,
1406.1000000238419,,pt2_memorable_rating,777128,Racine,,51,,,3,,,,,,,,,,,,,,,
null,,confidence_buffer,777239,confidence_buffer,,null,,,,,,,,,,,,,,,,,,
1665.3999999761581,,recognition_phase,778906,Racine,,49,,,,,,old,0,0.3793103448275862,,,,,,,,,,
null,,confidence_buffer,779010,confidence_buffer,,null,,,,,,,,,,,,,,,,,,
null,,thebreak,779522,break,,null,,,,,,,,,,,,,,,,,,
1536.7000000476837,,realistic_rating,781060,Northbridge,,51,Northbridge,Fictional,3,,,,,,,,,,,,,,,
null,,confidence_buffer,781169,confidence_buffer,,null,,,,,,,,,,,,,,,,,,
3217.5,,probe_rating,784388,probe_rating,,51,,,,3,1,,,,,,,,,,,,,
null,,confidence_buffer,784493,confidence_buffer,,null,,,,,,,,,,,,,,,,,,
864.5,,pt2_unique_rating,785359,Northbridge,,51,,,3,,,,,,,,,,,,,,,
null,,confidence_buffer,785469,confidence_buffer,,null,,,,,,,,,,,,,,,,,,
733.1000000238419,,pt2_memorable_rating,786203,Northbridge,,51,,,3,,,,,,,,,,,,,,,
null,,confidence_buffer,786308,confidence_buffer,,null,,,,,,,,,,,,,,,,,,
1207.300000011921,,recognition_phase,787516,Northbridge,,51,,,,,,new,1,0.4,,,,,,,,,,
null,,confidence_buffer,787622,confidence_buffer,,null,,,,,,,,,,,,,,,,,,
null,,thebreak,788132,break,,null,,,,,,,,,,,,,,,,,,
1426.6000000238419,,realistic_rating,789560,Custer,,51,Custer,US,3,,,,,,,,,,,,,,,
null,,confidence_buffer,789664,confidence_buffer,,null,,,,,,,,,,,,,,,,,,
845.1000000238419,,pt2_unique_rating,790512,Custer,,51,,,3,,,,,,,,,,,,,,,
null,,confidence_buffer,790615,confidence_buffer,,null,,,,,,,,,,,,,,,,,,
1386.7999999523163,,probe_rating,792004,probe_rating,,49,,,,1,1,,,,,,,,,,,,,
null,,confidence_buffer,792110,confidence_buffer,,null,,,,,,,,,,,,,,,,,,
1153.199999988079,,pt2_memorable_rating,793265,Custer,,51,,,3,,,,,,,,,,,,,,,
null,,confidence_buffer,793370,confidence_buffer,,null,,,,,,,,,,,,,,,,,,
1251.300000011921,,recognition_phase,794623,Custer,,51,,,,,,new,1,0.41935483870967744,,,,,,,,,,
null,,confidence_buffer,794728,confidence_buffer,,null,,,,,,,,,,,,,,,,,,
null,,thebreak,795239,break,,null,,,,,,,,,,,,,,,,,,
1948.7000000476837,,realistic_rating,797190,Peoria,,51,Peoria,US,3,,,,,,,,,,,,,,,
null,,confidence_buffer,797296,confidence_buffer,,null,,,,,,,,,,,,,,,,,,
845.6999999880791,,pt2_unique_rating,798143,Peoria,,51,,,3,,,,,,,,,,,,,,,
null,,confidence_buffer,798248,confidence_buffer,,null,,,,,,,,,,,,,,,,,,
1153.6000000238419,,pt2_memorable_rating,799404,Peoria,,51,,,3,,,,,,,,,,,,,,,
null,,confidence_buffer,799509,confidence_buffer,,null,,,,,,,,,,,,,,,,,,
2054.300000011921,,recognition_phase,801565,Peoria,,51,,,,,,new,1,0.4375,,,,,,,,,,
null,,confidence_buffer,801674,confidence_buffer,,null,,,,,,,,,,,,,,,,,,
null,,thebreak,802185,break,,null,,,,,,,,,,,,,,,,,,
2271,,realistic_rating,804457,Stonebrook,,51,Stonebrook,Fictional,3,,,,,,,,,,,,,,,
null,,confidence_buffer,804560,confidence_buffer,,null,,,,,,,,,,,,,,,,,,
1531.5999999642372,,pt2_unique_rating,806094,Stonebrook,,51,,,3,,,,,,,,,,,,,,,
null,,confidence_buffer,806198,confidence_buffer,,null,,,,,,,,,,,,,,,,,,
925.1999999880791,,pt2_memorable_rating,807125,Stonebrook,,51,,,3,,,,,,,,,,,,,,,
null,,confidence_buffer,807237,confidence_buffer,,null,,,,,,,,,,,,,,,,,,
1231.8999999761581,,recognition_phase,808471,Stonebrook,,51,,,,,,new,1,0.45454545454545453,,,,,,,,,,
null,,confidence_buffer,808573,confidence_buffer,,null,,,,,,,,,,,,,,,,,,
null,,thebreak,809076,break,,null,,,,,,,,,,,,,,,,,,
3460.599999964237,,realistic_rating,812539,Sunmere,,51,Sunmere,Fictional,3,,,,,,,,,,,,,,,
null,,confidence_buffer,812648,confidence_buffer,,null,,,,,,,,,,,,,,,,,,
1058.8999999761581,,pt2_unique_rating,813709,Sunmere,,51,,,3,,,,,,,,,,,,,,,
null,,confidence_buffer,813814,confidence_buffer,,null,,,,,,,,,,,,,,,,,,
784.1999999880791,,pt2_memorable_rating,814600,Sunmere,,51,,,3,,,,,,,,,,,,,,,
null,,confidence_buffer,814704,confidence_buffer,,null,,,,,,,,,,,,,,,,,,
1166.7999999523163,,recognition_phase,815873,Sunmere,,51,,,,,,new,0,0.4411764705882353,,,,,,,,,,
null,,confidence_buffer,815974,confidence_buffer,,null,,,,,,,,,,,,,,,,,,
null,,thebreak,816489,break,,null,,,,,,,,,,,,,,,,,,
2460.2000000476837,,realistic_rating,818951,Hollendale,,51,Hollendale,Fictional,3,,,,,,,,,,,,,,,
null,,confidence_buffer,819054,confidence_buffer,,null,,,,,,,,,,,,,,,,,,
1073,,pt2_unique_rating,820129,Hollendale,,51,,,3,,,,,,,,,,,,,,,
null,,confidence_buffer,820234,confidence_buffer,,null,,,,,,,,,,,,,,,,,,
1021.5999999642372,,pt2_memorable_rating,821257,Hollendale,,51,,,3,,,,,,,,,,,,,,,
null,,confidence_buffer,821364,confidence_buffer,,null,,,,,,,,,,,,,,,,,,
1027.3999999761581,,recognition_phase,822393,Hollendale,,51,,,,,,new,1,0.45714285714285713,,,,,,,,,,
null,,confidence_buffer,822500,confidence_buffer,,null,,,,,,,,,,,,,,,,,,
null,,thebreak,823017,break,,null,,,,,,,,,,,,,,,,,,
3191.600000023842,,realistic_rating,826210,Hanover,,51,Hanover,US,3,,,,,,,,,,,,,,,
null,,confidence_buffer,826314,confidence_buffer,,null,,,,,,,,,,,,,,,,,,
2907.599999964237,,pt2_unique_rating,829223,Hanover,,51,,,3,,,,,,,,,,,,,,,
null,,confidence_buffer,829327,confidence_buffer,,null,,,,,,,,,,,,,,,,,,
915.3000000119209,,pt2_memorable_rating,830244,Hanover,,51,,,3,,,,,,,,,,,,,,,
null,,confidence_buffer,830354,confidence_buffer,,null,,,,,,,,,,,,,,,,,,
1204.5,,recognition_phase,831560,Hanover,,51,,,,,,new,0,0.4444444444444444,,,,,,,,,,
null,,confidence_buffer,831663,confidence_buffer,,null,,,,,,,,,,,,,,,,,,
null,,thebreak,832173,break,,null,,,,,,,,,,,,,,,,,,
1980.4000000357628,,realistic_rating,834154,San Antonio,,51,San Antonio,US,3,,,,,,,,,,,,,,,
null,,confidence_buffer,834271,confidence_buffer,,null,,,,,,,,,,,,,,,,,,
1182.9000000357628,,pt2_unique_rating,835456,San Antonio,,51,,,3,,,,,,,,,,,,,,,
null,,confidence_buffer,835561,confidence_buffer,,null,,,,,,,,,,,,,,,,,,
1572,,pt2_memorable_rating,837134,San Antonio,,51,,,3,,,,,,,,,,,,,,,
null,,confidence_buffer,837245,confidence_buffer,,null,,,,,,,,,,,,,,,,,,
944.9000000357628,,recognition_phase,838192,San Antonio,,51,,,,,,new,1,0.4594594594594595,,,,,,,,,,
null,,confidence_buffer,838295,confidence_buffer,,null,,,,,,,,,,,,,,,,,,
null,,thebreak,838807,break,,null,,,,,,,,,,,,,,,,,,
1550,,realistic_rating,840359,Gardnerville,,51,Gardnerville,US,3,,,,,,,,,,,,,,,
null,,confidence_buffer,840477,confidence_buffer,,null,,,,,,,,,,,,,,,,,,
988.1999999880791,,pt2_unique_rating,841467,Gardnerville,,51,,,3,,,,,,,,,,,,,,,
null,,confidence_buffer,841573,confidence_buffer,,null,,,,,,,,,,,,,,,,,,
1477.699999988079,,pt2_memorable_rating,843051,Gardnerville,,51,,,3,,,,,,,,,,,,,,,
null,,confidence_buffer,843161,confidence_buffer,,null,,,,,,,,,,,,,,,,,,
991.6000000238419,,recognition_phase,844154,Gardnerville,,51,,,,,,new,1,0.47368421052631576,,,,,,,,,,
null,,confidence_buffer,844261,confidence_buffer,,null,,,,,,,,,,,,,,,,,,
null,,thebreak,844772,break,,null,,,,,,,,,,,,,,,,,,
2517.600000023842,,realistic_rating,847291,Millstone,,51,Millstone,Fictional,3,,,,,,,,,,,,,,,
null,,confidence_buffer,847400,confidence_buffer,,null,,,,,,,,,,,,,,,,,,
1378.300000011921,,pt2_unique_rating,848779,Millstone,,51,,,3,,,,,,,,,,,,,,,
null,,confidence_buffer,848886,confidence_buffer,,null,,,,,,,,,,,,,,,,,,
1308.300000011921,,pt2_memorable_rating,850196,Millstone,,51,,,3,,,,,,,,,,,,,,,
null,,confidence_buffer,850302,confidence_buffer,,null,,,,,,,,,,,,,,,,,,
1067.0999999642372,,recognition_phase,851370,Millstone,,51,,,,,,new,0,0.46153846153846156,,,,,,,,,,
null,,confidence_buffer,851480,confidence_buffer,,null,,,,,,,,,,,,,,,,,,
null,,thebreak,851991,break,,null,,,,,,,,,,,,,,,,,,
2120.100000023842,,realistic_rating,854113,Leesburg,,51,Leesburg,US,3,,,,,,,,,,,,,,,
null,,confidence_buffer,854218,confidence_buffer,,null,,,,,,,,,,,,,,,,,,
1410.199999988079,,pt2_unique_rating,855630,Leesburg,,51,,,3,,,,,,,,,,,,,,,
null,,confidence_buffer,855736,confidence_buffer,,null,,,,,,,,,,,,,,,,,,
1922.699999988079,,pt2_memorable_rating,857660,Leesburg,,51,,,3,,,,,,,,,,,,,,,
null,,confidence_buffer,857777,confidence_buffer,,null,,,,,,,,,,,,,,,,,,
1738,,recognition_phase,859518,Leesburg,,51,,,,,,new,0,0.45,,,,,,,,,,
null,,confidence_buffer,859621,confidence_buffer,,null,,,,,,,,,,,,,,,,,,
null,,thebreak,860138,break,,null,,,,,,,,,,,,,,,,,,
2193.400000035763,,realistic_rating,862333,Cleveland,,51,Cleveland,US,3,,,,,,,,,,,,,,,
null,,confidence_buffer,862438,confidence_buffer,,null,,,,,,,,,,,,,,,,,,
1826.4000000357628,,pt2_unique_rating,864265,Cleveland,,51,,,3,,,,,,,,,,,,,,,
null,,confidence_buffer,864372,confidence_buffer,,null,,,,,,,,,,,,,,,,,,
1706.5,,pt2_memorable_rating,866081,Cleveland,,51,,,3,,,,,,,,,,,,,,,
null,,confidence_buffer,866185,confidence_buffer,,null,,,,,,,,,,,,,,,,,,
1378.9000000357628,,recognition_phase,867566,Cleveland,,51,,,,,,new,1,0.4634146341463415,,,,,,,,,,
null,,confidence_buffer,867675,confidence_buffer,,null,,,,,,,,,,,,,,,,,,
null,,thebreak,868183,break,,null,,,,,,,,,,,,,,,,,,
2364.5,,realistic_rating,870549,Sitka,,51,Sitka,US,3,,,,,,,,,,,,,,,
null,,confidence_buffer,870662,confidence_buffer,,null,,,,,,,,,,,,,,,,,,
2151.7000000476837,,pt2_unique_rating,872815,Sitka,,51,,,3,,,,,,,,,,,,,,,
null,,confidence_buffer,872921,confidence_buffer,,null,,,,,,,,,,,,,,,,,,
2916.5,,probe_rating,875839,probe_rating,,49,,,,1,1,,,,,,,,,,,,,
null,,confidence_buffer,875948,confidence_buffer,,null,,,,,,,,,,,,,,,,,,
1394.9000000357628,,pt2_memorable_rating,877344,Sitka,,51,,,3,,,,,,,,,,,,,,,
null,,confidence_buffer,877460,confidence_buffer,,null,,,,,,,,,,,,,,,,,,
1019.4000000357628,,recognition_phase,878481,Sitka,,51,,,,,,new,0,0.4523809523809524,,,,,,,,,,
null,,confidence_buffer,878584,confidence_buffer,,null,,,,,,,,,,,,,,,,,,
null,,thebreak,879100,break,,null,,,,,,,,,,,,,,,,,,
2197.300000011921,,realistic_rating,881299,Watkins Glen,,51,Watkins Glen,US,3,,,,,,,,,,,,,,,
null,,confidence_buffer,881402,confidence_buffer,,null,,,,,,,,,,,,,,,,,,
1441.7999999523163,,pt2_unique_rating,882846,Watkins Glen,,51,,,3,,,,,,,,,,,,,,,
null,,confidence_buffer,882956,confidence_buffer,,null,,,,,,,,,,,,,,,,,,
1474.699999988079,,pt2_memorable_rating,884432,Watkins Glen,,51,,,3,,,,,,,,,,,,,,,
null,,confidence_buffer,884542,confidence_buffer,,null,,,,,,,,,,,,,,,,,,
841.1000000238419,,recognition_phase,885385,Watkins Glen,,51,,,,,,new,1,0.46511627906976744,,,,,,,,,,
null,,confidence_buffer,885496,confidence_buffer,,null,,,,,,,,,,,,,,,,,,
null,,thebreak,886012,break,,null,,,,,,,,,,,,,,,,,,
7406.100000023842,,realistic_rating,893420,Bar Harbor,,51,Bar Harbor,US,3,,,,,,,,,,,,,,,
null,,confidence_buffer,893523,confidence_buffer,,null,,,,,,,,,,,,,,,,,,
1065.2000000476837,,pt2_unique_rating,894590,Bar Harbor,,51,,,3,,,,,,,,,,,,,,,
null,,confidence_buffer,894699,confidence_buffer,,null,,,,,,,,,,,,,,,,,,
1315.699999988079,,pt2_memorable_rating,896017,Bar Harbor,,51,,,3,,,,,,,,,,,,,,,
null,,confidence_buffer,896119,confidence_buffer,,null,,,,,,,,,,,,,,,,,,
1404.3999999761581,,recognition_phase,897526,Bar Harbor,,51,,,,,,new,0,0.45454545454545453,,,,,,,,,,
null,,confidence_buffer,897635,confidence_buffer,,null,,,,,,,,,,,,,,,,,,
null,,thebreak,898141,break,,null,,,,,,,,,,,,,,,,,,
5748.900000035763,,realistic_rating,903892,Linden Trace,,51,Linden Trace,Fictional,3,,,,,,,,,,,,,,,
null,,confidence_buffer,903996,confidence_buffer,,null,,,,,,,,,,,,,,,,,,
5853.800000011921,,pt2_unique_rating,909852,Linden Trace,,51,,,3,,,,,,,,,,,,,,,
null,,confidence_buffer,909955,confidence_buffer,,null,,,,,,,,,,,,,,,,,,
10708.600000023842,,pt2_memorable_rating,920665,Linden Trace,,51,,,3,,,,,,,,,,,,,,,
null,,confidence_buffer,920768,confidence_buffer,,null,,,,,,,,,,,,,,,,,,
1069.300000011921,,recognition_phase,921839,Linden Trace,,51,,,,,,new,0,0.4444444444444444,,,,,,,,,,
null,,confidence_buffer,921949,confidence_buffer,,null,,,,,,,,,,,,,,,,,,
null,,thebreak,922460,break,,null,,,,,,,,,,,,,,,,,,
1668.699999988079,,realistic_rating,924130,Hilo,,51,Hilo,US,3,,,,,,,,,,,,,,,
null,,confidence_buffer,924234,confidence_buffer,,null,,,,,,,,,,,,,,,,,,
1393.7999999523163,,pt2_unique_rating,925629,Hilo,,51,,,3,,,,,,,,,,,,,,,
null,,confidence_buffer,925739,confidence_buffer,,null,,,,,,,,,,,,,,,,,,
1614,,pt2_memorable_rating,927355,Hilo,,51,,,3,,,,,,,,,,,,,,,
null,,confidence_buffer,927458,confidence_buffer,,null,,,,,,,,,,,,,,,,,,
1599.0999999642372,,recognition_phase,929060,Hilo,,51,,,,,,new,1,0.45652173913043476,,,,,,,,,,
null,,confidence_buffer,929166,confidence_buffer,,null,,,,,,,,,,,,,,,,,,
null,,thebreak,929679,break,,null,,,,,,,,,,,,,,,,,,
1659.6000000238419,,realistic_rating,931341,Maravilla Springs,,51,Maravilla Springs,Fictional,3,,,,,,,,,,,,,,,
null,,confidence_buffer,931449,confidence_buffer,,null,,,,,,,,,,,,,,,,,,
1077.800000011921,,pt2_unique_rating,932529,Maravilla Springs,,51,,,3,,,,,,,,,,,,,,,
null,,confidence_buffer,932641,confidence_buffer,,null,,,,,,,,,,,,,,,,,,
1530.199999988079,,pt2_memorable_rating,934173,Maravilla Springs,,51,,,3,,,,,,,,,,,,,,,
null,,confidence_buffer,934276,confidence_buffer,,null,,,,,,,,,,,,,,,,,,
955.6999999880791,,recognition_phase,935234,Maravilla Springs,,51,,,,,,new,1,0.46808510638297873,,,,,,,,,,
null,,confidence_buffer,935345,confidence_buffer,,null,,,,,,,,,,,,,,,,,,
null,,thebreak,935848,break,,null,,,,,,,,,,,,,,,,,,
1647.5,,realistic_rating,937497,Elmsbury,,51,Elmsbury,Fictional,3,,,,,,,,,,,,,,,
null,,confidence_buffer,937612,confidence_buffer,,null,,,,,,,,,,,,,,,,,,
1078.9000000357628,,pt2_unique_rating,938692,Elmsbury,,51,,,3,,,,,,,,,,,,,,,
null,,confidence_buffer,938797,confidence_buffer,,null,,,,,,,,,,,,,,,,,,
1002.7000000476837,,pt2_memorable_rating,939801,Elmsbury,,51,,,3,,,,,,,,,,,,,,,
null,,confidence_buffer,939908,confidence_buffer,,null,,,,,,,,,,,,,,,,,,
1469.5,,recognition_phase,941380,Elmsbury,,51,,,,,,new,0,0.4583333333333333,,,,,,,,,,
null,,confidence_buffer,941491,confidence_buffer,,null,,,,,,,,,,,,,,,,,,
null,,thebreak,941993,break,,null,,,,,,,,,,,,,,,,,,
2857.900000035763,,realistic_rating,944853,Brookmere,,51,Brookmere,Fictional,3,,,,,,,,,,,,,,,
null,,confidence_buffer,944959,confidence_buffer,,null,,,,,,,,,,,,,,,,,,
1007.5,,pt2_unique_rating,945969,Brookmere,,51,,,3,,,,,,,,,,,,,,,
null,,confidence_buffer,946075,confidence_buffer,,null,,,,,,,,,,,,,,,,,,
919.8000000119209,,pt2_memorable_rating,946996,Brookmere,,51,,,3,,,,,,,,,,,,,,,
null,,confidence_buffer,947107,confidence_buffer,,null,,,,,,,,,,,,,,,,,,
1458.699999988079,,recognition_phase,948568,Brookmere,,49,,,,,,old,1,0.46938775510204084,,,,,,,,,,
null,,confidence_buffer,948674,confidence_buffer,,null,,,,,,,,,,,,,,,,,,
null,,thebreak,949181,break,,null,,,,,,,,,,,,,,,,,,
1804.5,,realistic_rating,950987,Livingston,,51,Livingston,US,3,,,,,,,,,,,,,,,
null,,confidence_buffer,951093,confidence_buffer,,null,,,,,,,,,,,,,,,,,,
1258.9000000357628,,pt2_unique_rating,952353,Livingston,,51,,,3,,,,,,,,,,,,,,,
null,,confidence_buffer,952461,confidence_buffer,,null,,,,,,,,,,,,,,,,,,
1176.199999988079,,pt2_memorable_rating,953639,Livingston,,51,,,3,,,,,,,,,,,,,,,
null,,confidence_buffer,953748,confidence_buffer,,null,,,,,,,,,,,,,,,,,,
1009.8000000119209,,recognition_phase,954760,Livingston,,51,,,,,,new,0,0.46,,,,,,,,,,
null,,confidence_buffer,954863,confidence_buffer,,null,,,,,,,,,,,,,,,,,,
null,,thebreak,955368,break,,null,,,,,,,,,,,,,,,,,,
1911.1000000238419,,realistic_rating,957281,Delaware City,,51,Delaware City,US,3,,,,,,,,,,,,,,,
null,,confidence_buffer,957388,confidence_buffer,,null,,,,,,,,,,,,,,,,,,
1280.300000011921,,pt2_unique_rating,958671,Delaware City,,51,,,3,,,,,,,,,,,,,,,
null,,confidence_buffer,958781,confidence_buffer,,null,,,,,,,,,,,,,,,,,,
1365.199999988079,,pt2_memorable_rating,960148,Delaware City,,51,,,3,,,,,,,,,,,,,,,
null,,confidence_buffer,960257,confidence_buffer,,null,,,,,,,,,,,,,,,,,,
2671.400000035763,,recognition_phase,962930,Delaware City,,49,,,,,,old,1,0.47058823529411764,,,,,,,,,,
null,,confidence_buffer,963034,confidence_buffer,,null,,,,,,,,,,,,,,,,,,
null,,thebreak,963543,break,,null,,,,,,,,,,,,,,,,,,
2800.7000000476837,,realistic_rating,966345,Carmel,,51,Carmel,US,3,,,,,,,,,,,,,,,
null,,confidence_buffer,966450,confidence_buffer,,null,,,,,,,,,,,,,,,,,,
1111.6000000238419,,pt2_unique_rating,967563,Carmel,,51,,,3,,,,,,,,,,,,,,,
null,,confidence_buffer,967674,confidence_buffer,,null,,,,,,,,,,,,,,,,,,
1018.1999999880791,,pt2_memorable_rating,968694,Carmel,,51,,,3,,,,,,,,,,,,,,,
null,,confidence_buffer,968801,confidence_buffer,,null,,,,,,,,,,,,,,,,,,
1033.3999999761581,,recognition_phase,969837,Carmel,,49,,,,,,old,0,0.46153846153846156,,,,,,,,,,
null,,confidence_buffer,969940,confidence_buffer,,null,,,,,,,,,,,,,,,,,,
null,,thebreak,970454,break,,null,,,,,,,,,,,,,,,,,,
1867.800000011921,,realistic_rating,972324,Albuquerque,,51,Albuquerque,US,3,,,,,,,,,,,,,,,
null,,confidence_buffer,972432,confidence_buffer,,null,,,,,,,,,,,,,,,,,,
1104.2000000476837,,pt2_unique_rating,973538,Albuquerque,,51,,,3,,,,,,,,,,,,,,,
null,,confidence_buffer,973650,confidence_buffer,,null,,,,,,,,,,,,,,,,,,
1079.9000000357628,,pt2_memorable_rating,974731,Albuquerque,,51,,,3,,,,,,,,,,,,,,,
null,,confidence_buffer,974843,confidence_buffer,,null,,,,,,,,,,,,,,,,,,
633.8999999761581,,recognition_phase,975479,Albuquerque,,49,,,,,,old,1,0.4716981132075472,,,,,,,,,,
null,,confidence_buffer,975589,confidence_buffer,,null,,,,,,,,,,,,,,,,,,
null,,thebreak,976094,break,,null,,,,,,,,,,,,,,,,,,
856.5,,realistic_rating,976952,Boulder,,51,Boulder,US,3,,,,,,,,,,,,,,,
null,,confidence_buffer,977063,confidence_buffer,,null,,,,,,,,,,,,,,,,,,
2333,,probe_rating,979398,probe_rating,,53,,,,5,1,,,,,,,,,,,,,
null,,confidence_buffer,979507,confidence_buffer,,null,,,,,,,,,,,,,,,,,,
1922.199999988079,,pt2_unique_rating,981431,Boulder,,51,,,3,,,,,,,,,,,,,,,
null,,confidence_buffer,981537,confidence_buffer,,null,,,,,,,,,,,,,,,,,,
1092.5,,pt2_memorable_rating,982630,Boulder,,51,,,3,,,,,,,,,,,,,,,
null,,confidence_buffer,982741,confidence_buffer,,null,,,,,,,,,,,,,,,,,,
3070.100000023842,,recognition_phase,985812,Boulder,,52,,,,,,new,1,0.48148148148148145,,,,,,,,,,
null,,confidence_buffer,985923,confidence_buffer,,null,,,,,,,,,,,,,,,,,,
null,,thebreak,986431,break,,null,,,,,,,,,,,,,,,,,,
1309.3999999761581,,realistic_rating,987742,Solara Glen,,51,Solara Glen,Fictional,3,,,,,,,,,,,,,,,
null,,confidence_buffer,987853,confidence_buffer,,null,,,,,,,,,,,,,,,,,,
881.3000000119209,,pt2_unique_rating,988736,Solara Glen,,51,,,3,,,,,,,,,,,,,,,
null,,confidence_buffer,988839,confidence_buffer,,null,,,,,,,,,,,,,,,,,,
712.5999999642372,,pt2_memorable_rating,989553,Solara Glen,,51,,,3,,,,,,,,,,,,,,,
null,,confidence_buffer,989657,confidence_buffer,,null,,,,,,,,,,,,,,,,,,
1758.800000011921,,recognition_phase,991418,Solara Glen,,51,,,,,,new,0,0.4727272727272727,,,,,,,,,,
null,,confidence_buffer,991523,confidence_buffer,,null,,,,,,,,,,,,,,,,,,
null,,thebreak,992029,break,,null,,,,,,,,,,,,,,,,,,
2030.7000000476837,,realistic_rating,994061,Bowling Green,,51,Bowling Green,US,3,,,,,,,,,,,,,,,
null,,confidence_buffer,994166,confidence_buffer,,null,,,,,,,,,,,,,,,,,,
1257.3999999761581,,pt2_unique_rating,995425,Bowling Green,,51,,,3,,,,,,,,,,,,,,,
null,,confidence_buffer,995531,confidence_buffer,,null,,,,,,,,,,,,,,,,,,
1137,,pt2_memorable_rating,996669,Bowling Green,,51,,,3,,,,,,,,,,,,,,,
null,,confidence_buffer,996778,confidence_buffer,,null,,,,,,,,,,,,,,,,,,
1652.199999988079,,recognition_phase,998432,Bowling Green,,51,,,,,,new,0,0.4642857142857143,,,,,,,,,,
null,,confidence_buffer,998539,confidence_buffer,,null,,,,,,,,,,,,,,,,,,
null,,thebreak,999048,break,,null,,,,,,,,,,,,,,,,,,
1168.2000000476837,,realistic_rating,1000218,East Ladera,,51,East Ladera,Fictional,3,,,,,,,,,,,,,,,
null,,confidence_buffer,1000322,confidence_buffer,,null,,,,,,,,,,,,,,,,,,
2386.300000011921,,probe_rating,1002710,probe_rating,,50,,,,2,1,,,,,,,,,,,,,
null,,confidence_buffer,1002822,confidence_buffer,,null,,,,,,,,,,,,,,,,,,
1591.800000011921,,pt2_unique_rating,1004416,East Ladera,,51,,,3,,,,,,,,,,,,,,,
null,,confidence_buffer,1004528,confidence_buffer,,null,,,,,,,,,,,,,,,,,,
1129.6000000238419,,pt2_memorable_rating,1005659,East Ladera,,51,,,3,,,,,,,,,,,,,,,
null,,confidence_buffer,1005777,confidence_buffer,,null,,,,,,,,,,,,,,,,,,
1586.8999999761581,,recognition_phase,1007366,East Ladera,,49,,,,,,old,1,0.47368421052631576,,,,,,,,,,
null,,confidence_buffer,1007478,confidence_buffer,,null,,,,,,,,,,,,,,,,,,
null,,thebreak,1007982,break,,null,,,,,,,,,,,,,,,,,,
1350.1000000238419,,realistic_rating,1009335,Montelake,,51,Montelake,Fictional,3,,,,,,,,,,,,,,,
null,,confidence_buffer,1009440,confidence_buffer,,null,,,,,,,,,,,,,,,,,,
878.7999999523163,,pt2_unique_rating,1010321,Montelake,,51,,,3,,,,,,,,,,,,,,,
null,,confidence_buffer,1010431,confidence_buffer,,null,,,,,,,,,,,,,,,,,,
1141.5999999642372,,pt2_memorable_rating,1011574,Montelake,,51,,,3,,,,,,,,,,,,,,,
null,,confidence_buffer,1011684,confidence_buffer,,null,,,,,,,,,,,,,,,,,,
1584,,recognition_phase,1013270,Montelake,,51,,,,,,new,1,0.4827586206896552,,,,,,,,,,
null,,confidence_buffer,1013381,confidence_buffer,,null,,,,,,,,,,,,,,,,,,
null,,thebreak,1013888,break,,null,,,,,,,,,,,,,,,,,,
2366.800000011921,,realistic_rating,1016257,Westridge,,51,Westridge,Fictional,3,,,,,,,,,,,,,,,
null,,confidence_buffer,1016366,confidence_buffer,,null,,,,,,,,,,,,,,,,,,
1536.3999999761581,,pt2_unique_rating,1017905,Westridge,,51,,,3,,,,,,,,,,,,,,,
null,,confidence_buffer,1018016,confidence_buffer,,null,,,,,,,,,,,,,,,,,,
1354.300000011921,,pt2_memorable_rating,1019372,Westridge,,51,,,3,,,,,,,,,,,,,,,
null,,confidence_buffer,1019480,confidence_buffer,,null,,,,,,,,,,,,,,,,,,
1668.1000000238419,,recognition_phase,1021150,Westridge,,51,,,,,,new,1,0.4915254237288136,,,,,,,,,,
null,,confidence_buffer,1021259,confidence_buffer,,null,,,,,,,,,,,,,,,,,,
null,,thebreak,1021769,break,,null,,,,,,,,,,,,,,,,,,
1961.300000011921,,realistic_rating,1023732,Rosehollow,,51,Rosehollow,Fictional,3,,,,,,,,,,,,,,,
null,,confidence_buffer,1023835,confidence_buffer,,null,,,,,,,,,,,,,,,,,,
839,,pt2_unique_rating,1024676,Rosehollow,,51,,,3,,,,,,,,,,,,,,,
null,,confidence_buffer,1024787,confidence_buffer,,null,,,,,,,,,,,,,,,,,,
710.9000000357628,,pt2_memorable_rating,1025499,Rosehollow,,51,,,3,,,,,,,,,,,,,,,
null,,confidence_buffer,1025609,confidence_buffer,,null,,,,,,,,,,,,,,,,,,
898.0999999642372,,recognition_phase,1026508,Rosehollow,,51,,,,,,new,0,0.48333333333333334,,,,,,,,,,
null,,confidence_buffer,1026611,confidence_buffer,,null,,,,,,,,,,,,,,,,,,
null,,thebreak,1027116,break,,null,,,,,,,,,,,,,,,,,,
,,survey,1138531,survey-questions,,,,,,,,,,,none,high,no,i was attentive ,nothing,nothing,nothing,nothing,no,
