rt,responses,trial_type,time_elapsed,stimulus,button_pressed,key_press,name_trial,city_type,rating,probe,probe_accuracy,response,correct,accuracy,problems,smooth,distraction,strategies,familiar,memorable,unique,realistic,similar,comments
22705.19999998808,{worker_id:67e905407fd199fa1b6d442d},id_enter,22714,,,,,,,,,,,,,,,,,,,,,
17953.100000023842,,fullscreen,40680,fullscreen,0,,,,,,,,,,,,,,,,,,,
10976.399999976158,,intro_0,51664,instruct,,32,,,,,,,,,,,,,,,,,,
6601.5999999940395,,intro_1,58268,instruct,,32,,,,,,,,,,,,,,,,,,
8634.799999982119,,intro_2,66905,instruct,,32,,,,,,,,,,,,,,,,,,
null,,instruct_dir_4,68408,instruct,,null,,,,,,,,,,,,,,,,,,
null,,thebreak,68910,break,,null,,,,,,,,,,,,,,,,,,
10141.90000000596,,familiar_rating,79055,Gloucester,,49,Gloucester,US,1,,,,,,,,,,,,,,,
null,,confidence_buffer,79160,confidence_buffer,,null,,,,,,,,,,,,,,,,,,
4936.4000000059605,,unique_rating,84099,Gloucester,,49,,,1,,,,,,,,,,,,,,,
null,,confidence_buffer,84203,confidence_buffer,,null,,,,,,,,,,,,,,,,,,
7169.9000000059605,,memorable_rating,91375,Gloucester,,49,,,1,,,,,,,,,,,,,,,
null,,confidence_buffer,91478,confidence_buffer,,null,,,,,,,,,,,,,,,,,,
null,,thebreak,91980,break,,null,,,,,,,,,,,,,,,,,,
7739.800000011921,,familiar_rating,99722,Briarfield,,50,Briarfield,Fictional,2,,,,,,,,,,,,,,,
null,,confidence_buffer,99825,confidence_buffer,,null,,,,,,,,,,,,,,,,,,
6821.100000023842,,unique_rating,106649,Briarfield,,52,,,4,,,,,,,,,,,,,,,
null,,confidence_buffer,106751,confidence_buffer,,null,,,,,,,,,,,,,,,,,,
4681.5,,probe_rating,111434,probe_rating,,50,,,,2,1,,,,,,,,,,,,,
null,,confidence_buffer,111538,confidence_buffer,,null,,,,,,,,,,,,,,,,,,
5656.600000023842,,memorable_rating,117197,Briarfield,,51,,,3,,,,,,,,,,,,,,,
null,,confidence_buffer,117301,confidence_buffer,,null,,,,,,,,,,,,,,,,,,
null,,thebreak,117804,break,,null,,,,,,,,,,,,,,,,,,
6195,,familiar_rating,124001,Falconridge,,49,Falconridge,Fictional,1,,,,,,,,,,,,,,,
null,,confidence_buffer,124104,confidence_buffer,,null,,,,,,,,,,,,,,,,,,
3029.2000000178814,,unique_rating,127136,Falconridge,,51,,,3,,,,,,,,,,,,,,,
null,,confidence_buffer,127239,confidence_buffer,,null,,,,,,,,,,,,,,,,,,
3308.7000000178814,,memorable_rating,130550,Falconridge,,53,,,5,,,,,,,,,,,,,,,
null,,confidence_buffer,130652,confidence_buffer,,null,,,,,,,,,,,,,,,,,,
null,,thebreak,131155,break,,null,,,,,,,,,,,,,,,,,,
7035.100000023842,,familiar_rating,138192,Barnard,,50,Barnard,US,2,,,,,,,,,,,,,,,
null,,confidence_buffer,138296,confidence_buffer,,null,,,,,,,,,,,,,,,,,,
2251.2999999821186,,unique_rating,140549,Barnard,,51,,,3,,,,,,,,,,,,,,,
null,,confidence_buffer,140652,confidence_buffer,,null,,,,,,,,,,,,,,,,,,
3400.699999988079,,memorable_rating,144054,Barnard,,52,,,4,,,,,,,,,,,,,,,
null,,confidence_buffer,144157,confidence_buffer,,null,,,,,,,,,,,,,,,,,,
null,,thebreak,144659,break,,null,,,,,,,,,,,,,,,,,,
3960,,familiar_rating,148622,Maplehurst,,51,Maplehurst,Fictional,3,,,,,,,,,,,,,,,
null,,confidence_buffer,148725,confidence_buffer,,null,,,,,,,,,,,,,,,,,,
2233.0999999940395,,unique_rating,150961,Maplehurst,,50,,,2,,,,,,,,,,,,,,,
null,,confidence_buffer,151063,confidence_buffer,,null,,,,,,,,,,,,,,,,,,
3599.5,,memorable_rating,154665,Maplehurst,,52,,,4,,,,,,,,,,,,,,,
null,,confidence_buffer,154768,confidence_buffer,,null,,,,,,,,,,,,,,,,,,
2938.0999999940395,,probe_rating,157708,probe_rating,,53,,,,5,1,,,,,,,,,,,,,
null,,confidence_buffer,157812,confidence_buffer,,null,,,,,,,,,,,,,,,,,,
null,,thebreak,158314,break,,null,,,,,,,,,,,,,,,,,,
4955.300000011921,,familiar_rating,163272,West Talora,,50,West Talora,Fictional,2,,,,,,,,,,,,,,,
null,,confidence_buffer,163376,confidence_buffer,,null,,,,,,,,,,,,,,,,,,
3805.399999976158,,unique_rating,167183,West Talora,,52,,,4,,,,,,,,,,,,,,,
null,,confidence_buffer,167286,confidence_buffer,,null,,,,,,,,,,,,,,,,,,
8774,,memorable_rating,176063,West Talora,,52,,,4,,,,,,,,,,,,,,,
null,,confidence_buffer,176166,confidence_buffer,,null,,,,,,,,,,,,,,,,,,
null,,thebreak,176668,break,,null,,,,,,,,,,,,,,,,,,
2100.4000000059605,,familiar_rating,178771,Shreveport,,50,Shreveport,US,2,,,,,,,,,,,,,,,
null,,confidence_buffer,178874,confidence_buffer,,null,,,,,,,,,,,,,,,,,,
3957.9000000059605,,unique_rating,182834,Shreveport,,51,,,3,,,,,,,,,,,,,,,
null,,confidence_buffer,182937,confidence_buffer,,null,,,,,,,,,,,,,,,,,,
3596.100000023842,,memorable_rating,186535,Shreveport,,52,,,4,,,,,,,,,,,,,,,
null,,confidence_buffer,186638,confidence_buffer,,null,,,,,,,,,,,,,,,,,,
null,,thebreak,187139,break,,null,,,,,,,,,,,,,,,,,,
2828.2000000178814,,familiar_rating,189970,Clearbrook,,50,Clearbrook,Fictional,2,,,,,,,,,,,,,,,
null,,confidence_buffer,190074,confidence_buffer,,null,,,,,,,,,,,,,,,,,,
3476.5999999940395,,unique_rating,193553,Clearbrook,,51,,,3,,,,,,,,,,,,,,,
null,,confidence_buffer,193656,confidence_buffer,,null,,,,,,,,,,,,,,,,,,
2213.800000011921,,probe_rating,195872,probe_rating,,52,,,,4,1,,,,,,,,,,,,,
null,,confidence_buffer,195976,confidence_buffer,,null,,,,,,,,,,,,,,,,,,
2223,,memorable_rating,198201,Clearbrook,,53,,,5,,,,,,,,,,,,,,,
null,,confidence_buffer,198304,confidence_buffer,,null,,,,,,,,,,,,,,,,,,
null,,thebreak,198806,break,,null,,,,,,,,,,,,,,,,,,
2888.5999999940395,,familiar_rating,201697,Sitka,,50,Sitka,US,2,,,,,,,,,,,,,,,
null,,confidence_buffer,201801,confidence_buffer,,null,,,,,,,,,,,,,,,,,,
2459.300000011921,,unique_rating,204263,Sitka,,51,,,3,,,,,,,,,,,,,,,
null,,confidence_buffer,204366,confidence_buffer,,null,,,,,,,,,,,,,,,,,,
2005.0999999940395,,memorable_rating,206374,Sitka,,52,,,4,,,,,,,,,,,,,,,
null,,confidence_buffer,206478,confidence_buffer,,null,,,,,,,,,,,,,,,,,,
null,,thebreak,206980,break,,null,,,,,,,,,,,,,,,,,,
2238.5,,familiar_rating,209221,Alliance,,49,Alliance,US,1,,,,,,,,,,,,,,,
null,,confidence_buffer,209324,confidence_buffer,,null,,,,,,,,,,,,,,,,,,
1774.4000000059605,,probe_rating,211101,probe_rating,,50,,,,2,1,,,,,,,,,,,,,
null,,confidence_buffer,211204,confidence_buffer,,null,,,,,,,,,,,,,,,,,,
2563.300000011921,,unique_rating,213770,Alliance,,49,,,1,,,,,,,,,,,,,,,
null,,confidence_buffer,213872,confidence_buffer,,null,,,,,,,,,,,,,,,,,,
3000.399999976158,,memorable_rating,216875,Alliance,,51,,,3,,,,,,,,,,,,,,,
null,,confidence_buffer,216977,confidence_buffer,,null,,,,,,,,,,,,,,,,,,
null,,thebreak,217479,break,,null,,,,,,,,,,,,,,,,,,
3215.100000023842,,familiar_rating,220696,Hot Springs,,52,Hot Springs,US,4,,,,,,,,,,,,,,,
null,,confidence_buffer,220800,confidence_buffer,,null,,,,,,,,,,,,,,,,,,
1945.800000011921,,unique_rating,222748,Hot Springs,,50,,,2,,,,,,,,,,,,,,,
null,,confidence_buffer,222850,confidence_buffer,,null,,,,,,,,,,,,,,,,,,
2066.5999999940395,,memorable_rating,224919,Hot Springs,,51,,,3,,,,,,,,,,,,,,,
null,,confidence_buffer,225022,confidence_buffer,,null,,,,,,,,,,,,,,,,,,
null,,thebreak,225524,break,,null,,,,,,,,,,,,,,,,,,
4020,,familiar_rating,229546,Cody,,50,Cody,US,2,,,,,,,,,,,,,,,
null,,confidence_buffer,229649,confidence_buffer,,null,,,,,,,,,,,,,,,,,,
2373.4000000059605,,unique_rating,232025,Cody,,51,,,3,,,,,,,,,,,,,,,
null,,confidence_buffer,232128,confidence_buffer,,null,,,,,,,,,,,,,,,,,,
2602.5999999940395,,memorable_rating,234732,Cody,,53,,,5,,,,,,,,,,,,,,,
null,,confidence_buffer,234835,confidence_buffer,,null,,,,,,,,,,,,,,,,,,
1557.199999988079,,probe_rating,236394,probe_rating,,52,,,,4,1,,,,,,,,,,,,,
null,,confidence_buffer,236498,confidence_buffer,,null,,,,,,,,,,,,,,,,,,
null,,thebreak,237000,break,,null,,,,,,,,,,,,,,,,,,
3980.2000000178814,,familiar_rating,240983,Driftwood Bay,,49,Driftwood Bay,Fictional,1,,,,,,,,,,,,,,,
null,,confidence_buffer,241085,confidence_buffer,,null,,,,,,,,,,,,,,,,,,
2164.899999976158,,probe_rating,243252,probe_rating,,53,,,,5,1,,,,,,,,,,,,,
null,,confidence_buffer,243355,confidence_buffer,,null,,,,,,,,,,,,,,,,,,
2612.9000000059605,,unique_rating,245970,Driftwood Bay,,51,,,3,,,,,,,,,,,,,,,
null,,confidence_buffer,246073,confidence_buffer,,null,,,,,,,,,,,,,,,,,,
3937.9000000059605,,memorable_rating,250013,Driftwood Bay,,50,,,2,,,,,,,,,,,,,,,
null,,confidence_buffer,250116,confidence_buffer,,null,,,,,,,,,,,,,,,,,,
null,,thebreak,250618,break,,null,,,,,,,,,,,,,,,,,,
2301.2000000178814,,familiar_rating,252921,Silverpine,,51,Silverpine,Fictional,3,,,,,,,,,,,,,,,
null,,confidence_buffer,253025,confidence_buffer,,null,,,,,,,,,,,,,,,,,,
1115.4000000059605,,unique_rating,254142,Silverpine,,50,,,2,,,,,,,,,,,,,,,
null,,confidence_buffer,254245,confidence_buffer,,null,,,,,,,,,,,,,,,,,,
1050.7999999821186,,memorable_rating,255298,Silverpine,,51,,,3,,,,,,,,,,,,,,,
null,,confidence_buffer,255401,confidence_buffer,,null,,,,,,,,,,,,,,,,,,
null,,thebreak,255903,break,,null,,,,,,,,,,,,,,,,,,
945.4000000059605,,familiar_rating,256850,Baymarsh,,50,Baymarsh,Fictional,2,,,,,,,,,,,,,,,
null,,confidence_buffer,256954,confidence_buffer,,null,,,,,,,,,,,,,,,,,,
1567.5,,unique_rating,258523,Baymarsh,,52,,,4,,,,,,,,,,,,,,,
null,,confidence_buffer,258626,confidence_buffer,,null,,,,,,,,,,,,,,,,,,
1528.0999999940395,,memorable_rating,260156,Baymarsh,,51,,,3,,,,,,,,,,,,,,,
null,,confidence_buffer,260260,confidence_buffer,,null,,,,,,,,,,,,,,,,,,
null,,thebreak,260763,break,,null,,,,,,,,,,,,,,,,,,
1540.9000000059605,,familiar_rating,262306,Rosehollow,,50,Rosehollow,Fictional,2,,,,,,,,,,,,,,,
null,,confidence_buffer,262409,confidence_buffer,,null,,,,,,,,,,,,,,,,,,
1049.0999999940395,,unique_rating,263461,Rosehollow,,52,,,4,,,,,,,,,,,,,,,
null,,confidence_buffer,263563,confidence_buffer,,null,,,,,,,,,,,,,,,,,,
1130.4000000059605,,memorable_rating,264695,Rosehollow,,51,,,3,,,,,,,,,,,,,,,
null,,confidence_buffer,264798,confidence_buffer,,null,,,,,,,,,,,,,,,,,,
null,,thebreak,265300,break,,null,,,,,,,,,,,,,,,,,,
676.5,,familiar_rating,265979,Coralridge,,50,Coralridge,Fictional,2,,,,,,,,,,,,,,,
null,,confidence_buffer,266083,confidence_buffer,,null,,,,,,,,,,,,,,,,,,
909.1999999880791,,unique_rating,266995,Coralridge,,51,,,3,,,,,,,,,,,,,,,
null,,confidence_buffer,267097,confidence_buffer,,null,,,,,,,,,,,,,,,,,,
919.8000000119209,,memorable_rating,268019,Coralridge,,52,,,4,,,,,,,,,,,,,,,
null,,confidence_buffer,268122,confidence_buffer,,null,,,,,,,,,,,,,,,,,,
null,,thebreak,268625,break,,null,,,,,,,,,,,,,,,,,,
1283.300000011921,,familiar_rating,269911,Athens,,53,Athens,US,5,,,,,,,,,,,,,,,
null,,confidence_buffer,270014,confidence_buffer,,null,,,,,,,,,,,,,,,,,,
1199.5,,unique_rating,271216,Athens,,51,,,3,,,,,,,,,,,,,,,
null,,confidence_buffer,271318,confidence_buffer,,null,,,,,,,,,,,,,,,,,,
979.8000000119209,,memorable_rating,272300,Athens,,52,,,4,,,,,,,,,,,,,,,
null,,confidence_buffer,272403,confidence_buffer,,null,,,,,,,,,,,,,,,,,,
null,,thebreak,272905,break,,null,,,,,,,,,,,,,,,,,,
976.5,,familiar_rating,273884,Juniper Creek,,50,Juniper Creek,Fictional,2,,,,,,,,,,,,,,,
null,,confidence_buffer,273987,confidence_buffer,,null,,,,,,,,,,,,,,,,,,
1078.5,,unique_rating,275068,Juniper Creek,,51,,,3,,,,,,,,,,,,,,,
null,,confidence_buffer,275172,confidence_buffer,,null,,,,,,,,,,,,,,,,,,
829.3000000119209,,memorable_rating,276004,Juniper Creek,,53,,,5,,,,,,,,,,,,,,,
null,,confidence_buffer,276106,confidence_buffer,,null,,,,,,,,,,,,,,,,,,
null,,thebreak,276608,break,,null,,,,,,,,,,,,,,,,,,
707.2999999821186,,familiar_rating,277318,Delaware City,,50,Delaware City,US,2,,,,,,,,,,,,,,,
null,,confidence_buffer,277421,confidence_buffer,,null,,,,,,,,,,,,,,,,,,
909.5,,unique_rating,278332,Delaware City,,52,,,4,,,,,,,,,,,,,,,
null,,confidence_buffer,278436,confidence_buffer,,null,,,,,,,,,,,,,,,,,,
1238.7999999821186,,memorable_rating,279677,Delaware City,,50,,,2,,,,,,,,,,,,,,,
null,,confidence_buffer,279779,confidence_buffer,,null,,,,,,,,,,,,,,,,,,
null,,thebreak,280282,break,,null,,,,,,,,,,,,,,,,,,
618.0999999940395,,familiar_rating,280902,Manistee,,51,Manistee,US,3,,,,,,,,,,,,,,,
null,,confidence_buffer,281004,confidence_buffer,,null,,,,,,,,,,,,,,,,,,
771.7999999821186,,unique_rating,281778,Manistee,,52,,,4,,,,,,,,,,,,,,,
null,,confidence_buffer,281882,confidence_buffer,,null,,,,,,,,,,,,,,,,,,
1764.699999988079,,probe_rating,283649,probe_rating,,53,,,,5,1,,,,,,,,,,,,,
null,,confidence_buffer,283752,confidence_buffer,,null,,,,,,,,,,,,,,,,,,
790.8999999761581,,memorable_rating,284545,Manistee,,50,,,2,,,,,,,,,,,,,,,
null,,confidence_buffer,284648,confidence_buffer,,null,,,,,,,,,,,,,,,,,,
null,,thebreak,285150,break,,null,,,,,,,,,,,,,,,,,,
567.8000000119209,,familiar_rating,285720,Redgrove,,51,Redgrove,Fictional,3,,,,,,,,,,,,,,,
null,,confidence_buffer,285823,confidence_buffer,,null,,,,,,,,,,,,,,,,,,
701.8000000119209,,unique_rating,286527,Redgrove,,50,,,2,,,,,,,,,,,,,,,
null,,confidence_buffer,286630,confidence_buffer,,null,,,,,,,,,,,,,,,,,,
660.7000000178814,,memorable_rating,287293,Redgrove,,52,,,4,,,,,,,,,,,,,,,
null,,confidence_buffer,287395,confidence_buffer,,null,,,,,,,,,,,,,,,,,,
null,,thebreak,287897,break,,null,,,,,,,,,,,,,,,,,,
578.2000000178814,,familiar_rating,288478,Natchez,,50,Natchez,US,2,,,,,,,,,,,,,,,
null,,confidence_buffer,288581,confidence_buffer,,null,,,,,,,,,,,,,,,,,,
642,,unique_rating,289225,Natchez,,51,,,3,,,,,,,,,,,,,,,
null,,confidence_buffer,289327,confidence_buffer,,null,,,,,,,,,,,,,,,,,,
1379.199999988079,,probe_rating,290709,probe_rating,,52,,,,4,1,,,,,,,,,,,,,
null,,confidence_buffer,290811,confidence_buffer,,null,,,,,,,,,,,,,,,,,,
1039.4000000059605,,memorable_rating,291853,Natchez,,50,,,2,,,,,,,,,,,,,,,
null,,confidence_buffer,291956,confidence_buffer,,null,,,,,,,,,,,,,,,,,,
null,,thebreak,292458,break,,null,,,,,,,,,,,,,,,,,,
756.3000000119209,,familiar_rating,293217,Bowling Green,,51,Bowling Green,US,3,,,,,,,,,,,,,,,
null,,confidence_buffer,293320,confidence_buffer,,null,,,,,,,,,,,,,,,,,,
740.6000000238419,,unique_rating,294063,Bowling Green,,53,,,5,,,,,,,,,,,,,,,
null,,confidence_buffer,294167,confidence_buffer,,null,,,,,,,,,,,,,,,,,,
810.4000000059605,,memorable_rating,294979,Bowling Green,,52,,,4,,,,,,,,,,,,,,,
null,,confidence_buffer,295081,confidence_buffer,,null,,,,,,,,,,,,,,,,,,
null,,thebreak,295585,break,,null,,,,,,,,,,,,,,,,,,
706.1999999880791,,familiar_rating,296293,Bayshore Haven,,50,Bayshore Haven,Fictional,2,,,,,,,,,,,,,,,
null,,confidence_buffer,296396,confidence_buffer,,null,,,,,,,,,,,,,,,,,,
601.0999999940395,,unique_rating,297000,Bayshore Haven,,51,,,3,,,,,,,,,,,,,,,
null,,confidence_buffer,297103,confidence_buffer,,null,,,,,,,,,,,,,,,,,,
710.6999999880791,,memorable_rating,297816,Bayshore Haven,,52,,,4,,,,,,,,,,,,,,,
null,,confidence_buffer,297918,confidence_buffer,,null,,,,,,,,,,,,,,,,,,
1369.199999988079,,probe_rating,299290,probe_rating,,53,,,,5,1,,,,,,,,,,,,,
null,,confidence_buffer,299393,confidence_buffer,,null,,,,,,,,,,,,,,,,,,
null,,thebreak,299896,break,,null,,,,,,,,,,,,,,,,,,
2626.9000000059605,,familiar_rating,302525,Linden Trace,,49,Linden Trace,Fictional,1,,,,,,,,,,,,,,,
null,,confidence_buffer,302628,confidence_buffer,,null,,,,,,,,,,,,,,,,,,
710.5,,unique_rating,303341,Linden Trace,,50,,,2,,,,,,,,,,,,,,,
null,,confidence_buffer,303444,confidence_buffer,,null,,,,,,,,,,,,,,,,,,
800,,memorable_rating,304246,Linden Trace,,51,,,3,,,,,,,,,,,,,,,
null,,confidence_buffer,304351,confidence_buffer,,null,,,,,,,,,,,,,,,,,,
null,,thebreak,304852,break,,null,,,,,,,,,,,,,,,,,,
1144.7999999821186,,familiar_rating,305999,Livingston,,50,Livingston,US,2,,,,,,,,,,,,,,,
null,,confidence_buffer,306103,confidence_buffer,,null,,,,,,,,,,,,,,,,,,
900.8000000119209,,unique_rating,307006,Livingston,,52,,,4,,,,,,,,,,,,,,,
null,,confidence_buffer,307108,confidence_buffer,,null,,,,,,,,,,,,,,,,,,
1029.4000000059605,,memorable_rating,308140,Livingston,,51,,,3,,,,,,,,,,,,,,,
null,,confidence_buffer,308243,confidence_buffer,,null,,,,,,,,,,,,,,,,,,
null,,thebreak,308744,break,,null,,,,,,,,,,,,,,,,,,
1255,,familiar_rating,310002,Pine Hollow,,50,Pine Hollow,Fictional,2,,,,,,,,,,,,,,,
null,,confidence_buffer,310105,confidence_buffer,,null,,,,,,,,,,,,,,,,,,
979.9000000059605,,unique_rating,311087,Pine Hollow,,51,,,3,,,,,,,,,,,,,,,
null,,confidence_buffer,311190,confidence_buffer,,null,,,,,,,,,,,,,,,,,,
1049,,memorable_rating,312241,Pine Hollow,,52,,,4,,,,,,,,,,,,,,,
null,,confidence_buffer,312344,confidence_buffer,,null,,,,,,,,,,,,,,,,,,
null,,thebreak,312846,break,,null,,,,,,,,,,,,,,,,,,
539.1999999880791,,familiar_rating,313388,Folly Beach,,50,Folly Beach,US,2,,,,,,,,,,,,,,,
null,,confidence_buffer,313490,confidence_buffer,,null,,,,,,,,,,,,,,,,,,
600.9000000059605,,unique_rating,314093,Folly Beach,,51,,,3,,,,,,,,,,,,,,,
null,,confidence_buffer,314196,confidence_buffer,,null,,,,,,,,,,,,,,,,,,
1509.199999988079,,memorable_rating,315707,Folly Beach,,49,,,1,,,,,,,,,,,,,,,
null,,confidence_buffer,315810,confidence_buffer,,null,,,,,,,,,,,,,,,,,,
null,,thebreak,316312,break,,null,,,,,,,,,,,,,,,,,,
2876.0999999940395,,familiar_rating,319190,Cornwall,,50,Cornwall,US,2,,,,,,,,,,,,,,,
null,,confidence_buffer,319293,confidence_buffer,,null,,,,,,,,,,,,,,,,,,
791.5,,unique_rating,320087,Cornwall,,52,,,4,,,,,,,,,,,,,,,
null,,confidence_buffer,320189,confidence_buffer,,null,,,,,,,,,,,,,,,,,,
1020.2999999821186,,memorable_rating,321211,Cornwall,,49,,,1,,,,,,,,,,,,,,,
null,,confidence_buffer,321314,confidence_buffer,,null,,,,,,,,,,,,,,,,,,
null,,thebreak,321816,break,,null,,,,,,,,,,,,,,,,,,
7408.399999976158,,intro_0,329227,instruct,,32,,,,,,,,,,,,,,,,,,
8759.199999988079,,intro_1,337988,instruct,,32,,,,,,,,,,,,,,,,,,
19052.80000001192,,intro_2,357043,instruct,,32,,,,,,,,,,,,,,,,,,
null,,instruct_dir_4,358547,instruct,,null,,,,,,,,,,,,,,,,,,
9048.09999999404,,realistic_rating,367597,New Hope,,52,New Hope,US,4,,,,,,,,,,,,,,,
null,,confidence_buffer,367701,confidence_buffer,,null,,,,,,,,,,,,,,,,,,
6715.4000000059605,,pt2_unique_rating,374418,New Hope,,50,,,2,,,,,,,,,,,,,,,
null,,confidence_buffer,374521,confidence_buffer,,null,,,,,,,,,,,,,,,,,,
1059.9000000059605,,pt2_memorable_rating,375583,New Hope,,51,,,3,,,,,,,,,,,,,,,
null,,confidence_buffer,375685,confidence_buffer,,null,,,,,,,,,,,,,,,,,,
3529.4000000059605,,recognition_phase,379217,New Hope,,52,,,,,,new,1,1,,,,,,,,,,
null,,confidence_buffer,379321,confidence_buffer,,null,,,,,,,,,,,,,,,,,,
null,,thebreak,379823,break,,null,,,,,,,,,,,,,,,,,,
1900.2000000178814,,realistic_rating,381726,Coralridge,,50,Coralridge,Fictional,2,,,,,,,,,,,,,,,
null,,confidence_buffer,381829,confidence_buffer,,null,,,,,,,,,,,,,,,,,,
1907.7000000178814,,pt2_unique_rating,383739,Coralridge,,52,,,4,,,,,,,,,,,,,,,
null,,confidence_buffer,383841,confidence_buffer,,null,,,,,,,,,,,,,,,,,,
730.6000000238419,,pt2_memorable_rating,384574,Coralridge,,50,,,2,,,,,,,,,,,,,,,
null,,confidence_buffer,384677,confidence_buffer,,null,,,,,,,,,,,,,,,,,,
1976.7000000178814,,recognition_phase,386656,Coralridge,,50,,,,,,old,1,1,,,,,,,,,,
null,,confidence_buffer,386758,confidence_buffer,,null,,,,,,,,,,,,,,,,,,
null,,thebreak,387261,break,,null,,,,,,,,,,,,,,,,,,
1414.300000011921,,realistic_rating,388678,Manistee,,50,Manistee,US,2,,,,,,,,,,,,,,,
null,,confidence_buffer,388780,confidence_buffer,,null,,,,,,,,,,,,,,,,,,
882.1999999880791,,pt2_unique_rating,389664,Manistee,,51,,,3,,,,,,,,,,,,,,,
null,,confidence_buffer,389768,confidence_buffer,,null,,,,,,,,,,,,,,,,,,
551,,pt2_memorable_rating,390321,Manistee,,52,,,4,,,,,,,,,,,,,,,
null,,confidence_buffer,390424,confidence_buffer,,null,,,,,,,,,,,,,,,,,,
4017.9000000059605,,recognition_phase,394444,Manistee,,52,,,,,,new,0,0.6666666666666666,,,,,,,,,,
null,,confidence_buffer,394547,confidence_buffer,,null,,,,,,,,,,,,,,,,,,
null,,thebreak,395049,break,,null,,,,,,,,,,,,,,,,,,
1813.3999999761581,,realistic_rating,396865,Cornwall,,50,Cornwall,US,2,,,,,,,,,,,,,,,
null,,confidence_buffer,396969,confidence_buffer,,null,,,,,,,,,,,,,,,,,,
1059.3999999761581,,pt2_unique_rating,398031,Cornwall,,52,,,4,,,,,,,,,,,,,,,
null,,confidence_buffer,398134,confidence_buffer,,null,,,,,,,,,,,,,,,,,,
3489.300000011921,,probe_rating,401626,probe_rating,,50,,,,2,1,,,,,,,,,,,,,
null,,confidence_buffer,401729,confidence_buffer,,null,,,,,,,,,,,,,,,,,,
1070.8999999761581,,pt2_memorable_rating,402802,Cornwall,,50,,,2,,,,,,,,,,,,,,,
null,,confidence_buffer,402906,confidence_buffer,,null,,,,,,,,,,,,,,,,,,
1637,,recognition_phase,404545,Cornwall,,52,,,,,,new,0,0.5,,,,,,,,,,
null,,confidence_buffer,404648,confidence_buffer,,null,,,,,,,,,,,,,,,,,,
null,,thebreak,405149,break,,null,,,,,,,,,,,,,,,,,,
916.5999999940395,,realistic_rating,406068,Abilene,,50,Abilene,US,2,,,,,,,,,,,,,,,
null,,confidence_buffer,406171,confidence_buffer,,null,,,,,,,,,,,,,,,,,,
542.5,,pt2_unique_rating,406716,Abilene,,52,,,4,,,,,,,,,,,,,,,
null,,confidence_buffer,406818,confidence_buffer,,null,,,,,,,,,,,,,,,,,,
682,,pt2_memorable_rating,407502,Abilene,,49,,,1,,,,,,,,,,,,,,,
null,,confidence_buffer,407604,confidence_buffer,,null,,,,,,,,,,,,,,,,,,
1360.0999999940395,,recognition_phase,408966,Abilene,,51,,,,,,new,1,0.6,,,,,,,,,,
null,,confidence_buffer,409070,confidence_buffer,,null,,,,,,,,,,,,,,,,,,
null,,thebreak,409572,break,,null,,,,,,,,,,,,,,,,,,
669.1999999880791,,realistic_rating,410244,Redgrove,,49,Redgrove,Fictional,1,,,,,,,,,,,,,,,
null,,confidence_buffer,410347,confidence_buffer,,null,,,,,,,,,,,,,,,,,,
839.3000000119209,,pt2_unique_rating,411188,Redgrove,,52,,,4,,,,,,,,,,,,,,,
null,,confidence_buffer,411290,confidence_buffer,,null,,,,,,,,,,,,,,,,,,
1699.5,,pt2_memorable_rating,412992,Redgrove,,53,,,5,,,,,,,,,,,,,,,
null,,confidence_buffer,413096,confidence_buffer,,null,,,,,,,,,,,,,,,,,,
1756.7000000178814,,probe_rating,414855,probe_rating,,50,,,,2,1,,,,,,,,,,,,,
null,,confidence_buffer,414958,confidence_buffer,,null,,,,,,,,,,,,,,,,,,
1407,,recognition_phase,416368,Redgrove,,52,,,,,,new,0,0.5,,,,,,,,,,
null,,confidence_buffer,416471,confidence_buffer,,null,,,,,,,,,,,,,,,,,,
null,,thebreak,416973,break,,null,,,,,,,,,,,,,,,,,,
2171.7000000178814,,realistic_rating,419147,Hot Springs,,53,Hot Springs,US,5,,,,,,,,,,,,,,,
null,,confidence_buffer,419250,confidence_buffer,,null,,,,,,,,,,,,,,,,,,
1230.7999999821186,,pt2_unique_rating,420483,Hot Springs,,50,,,2,,,,,,,,,,,,,,,
null,,confidence_buffer,420586,confidence_buffer,,null,,,,,,,,,,,,,,,,,,
1129.0999999940395,,pt2_memorable_rating,421718,Hot Springs,,52,,,4,,,,,,,,,,,,,,,
null,,confidence_buffer,421820,confidence_buffer,,null,,,,,,,,,,,,,,,,,,
3452.800000011921,,recognition_phase,425275,Hot Springs,,49,,,,,,old,1,0.5714285714285714,,,,,,,,,,
null,,confidence_buffer,425378,confidence_buffer,,null,,,,,,,,,,,,,,,,,,
null,,thebreak,425881,break,,null,,,,,,,,,,,,,,,,,,
984.0999999940395,,realistic_rating,426867,Orchard Bend,,50,Orchard Bend,Fictional,2,,,,,,,,,,,,,,,
null,,confidence_buffer,426970,confidence_buffer,,null,,,,,,,,,,,,,,,,,,
911.5,,pt2_unique_rating,427884,Orchard Bend,,51,,,3,,,,,,,,,,,,,,,
null,,confidence_buffer,427987,confidence_buffer,,null,,,,,,,,,,,,,,,,,,
749.4000000059605,,pt2_memorable_rating,428739,Orchard Bend,,52,,,4,,,,,,,,,,,,,,,
null,,confidence_buffer,428841,confidence_buffer,,null,,,,,,,,,,,,,,,,,,
4975.9000000059605,,recognition_phase,433819,Orchard Bend,,51,,,,,,new,1,0.625,,,,,,,,,,
null,,confidence_buffer,433922,confidence_buffer,,null,,,,,,,,,,,,,,,,,,
null,,thebreak,434425,break,,null,,,,,,,,,,,,,,,,,,
1006.5999999940395,,realistic_rating,435434,Berkeley Springs,,50,Berkeley Springs,US,2,,,,,,,,,,,,,,,
null,,confidence_buffer,435538,confidence_buffer,,null,,,,,,,,,,,,,,,,,,
1606.4000000059605,,probe_rating,437147,probe_rating,,49,,,,1,1,,,,,,,,,,,,,
null,,confidence_buffer,437250,confidence_buffer,,null,,,,,,,,,,,,,,,,,,
5840.5,,pt2_unique_rating,443093,Berkeley Springs,,53,,,5,,,,,,,,,,,,,,,
null,,confidence_buffer,443197,confidence_buffer,,null,,,,,,,,,,,,,,,,,,
790.6999999880791,,pt2_memorable_rating,443990,Berkeley Springs,,50,,,2,,,,,,,,,,,,,,,
null,,confidence_buffer,444093,confidence_buffer,,null,,,,,,,,,,,,,,,,,,
531.5,,recognition_phase,444626,Berkeley Springs,,52,,,,,,new,1,0.6666666666666666,,,,,,,,,,
null,,confidence_buffer,444730,confidence_buffer,,null,,,,,,,,,,,,,,,,,,
null,,thebreak,445231,break,,null,,,,,,,,,,,,,,,,,,
967.0999999940395,,realistic_rating,446201,Pine Hollow,,51,Pine Hollow,Fictional,3,,,,,,,,,,,,,,,
null,,confidence_buffer,446304,confidence_buffer,,null,,,,,,,,,,,,,,,,,,
1178.4000000059605,,pt2_unique_rating,447485,Pine Hollow,,50,,,2,,,,,,,,,,,,,,,
null,,confidence_buffer,447588,confidence_buffer,,null,,,,,,,,,,,,,,,,,,
352.69999998807907,,pt2_memorable_rating,447943,Pine Hollow,,53,,,5,,,,,,,,,,,,,,,
null,,confidence_buffer,448045,confidence_buffer,,null,,,,,,,,,,,,,,,,,,
1130.0999999940395,,recognition_phase,449178,Pine Hollow,,51,,,,,,new,0,0.6,,,,,,,,,,
null,,confidence_buffer,449282,confidence_buffer,,null,,,,,,,,,,,,,,,,,,
null,,thebreak,449784,break,,null,,,,,,,,,,,,,,,,,,
905.8000000119209,,realistic_rating,450693,Livingston,,49,Livingston,US,1,,,,,,,,,,,,,,,
null,,confidence_buffer,450795,confidence_buffer,,null,,,,,,,,,,,,,,,,,,
482.40000000596046,,pt2_unique_rating,451280,Livingston,,52,,,4,,,,,,,,,,,,,,,
null,,confidence_buffer,451383,confidence_buffer,,null,,,,,,,,,,,,,,,,,,
930.6999999880791,,pt2_memorable_rating,452316,Livingston,,50,,,2,,,,,,,,,,,,,,,
null,,confidence_buffer,452418,confidence_buffer,,null,,,,,,,,,,,,,,,,,,
1149.6000000238419,,recognition_phase,453570,Livingston,,51,,,,,,new,0,0.5454545454545454,,,,,,,,,,
null,,confidence_buffer,453673,confidence_buffer,,null,,,,,,,,,,,,,,,,,,
null,,thebreak,454176,break,,null,,,,,,,,,,,,,,,,,,
467.60000002384186,,realistic_rating,454646,Gloucester,,50,Gloucester,US,2,,,,,,,,,,,,,,,
null,,confidence_buffer,454749,confidence_buffer,,null,,,,,,,,,,,,,,,,,,
672.4000000059605,,pt2_unique_rating,455424,Gloucester,,49,,,1,,,,,,,,,,,,,,,
null,,confidence_buffer,455527,confidence_buffer,,null,,,,,,,,,,,,,,,,,,
381.7000000178814,,pt2_memorable_rating,455911,Gloucester,,53,,,5,,,,,,,,,,,,,,,
null,,confidence_buffer,456013,confidence_buffer,,null,,,,,,,,,,,,,,,,,,
1131.1000000238419,,recognition_phase,457147,Gloucester,,49,,,,,,old,1,0.5833333333333334,,,,,,,,,,
null,,confidence_buffer,457250,confidence_buffer,,null,,,,,,,,,,,,,,,,,,
null,,thebreak,457752,break,,null,,,,,,,,,,,,,,,,,,
1822.199999988079,,realistic_rating,459577,Shreveport,,50,Shreveport,US,2,,,,,,,,,,,,,,,
null,,confidence_buffer,459680,confidence_buffer,,null,,,,,,,,,,,,,,,,,,
402.39999997615814,,pt2_unique_rating,460084,Shreveport,,52,,,4,,,,,,,,,,,,,,,
null,,confidence_buffer,460187,confidence_buffer,,null,,,,,,,,,,,,,,,,,,
844.9000000059605,,pt2_memorable_rating,461034,Shreveport,,51,,,3,,,,,,,,,,,,,,,
null,,confidence_buffer,461137,confidence_buffer,,null,,,,,,,,,,,,,,,,,,
907.4000000059605,,recognition_phase,462046,Shreveport,,49,,,,,,old,1,0.6153846153846154,,,,,,,,,,
null,,confidence_buffer,462148,confidence_buffer,,null,,,,,,,,,,,,,,,,,,
null,,thebreak,462651,break,,null,,,,,,,,,,,,,,,,,,
550.2999999821186,,realistic_rating,463203,Rosehollow,,52,Rosehollow,Fictional,4,,,,,,,,,,,,,,,
null,,confidence_buffer,463307,confidence_buffer,,null,,,,,,,,,,,,,,,,,,
839.1000000238419,,pt2_unique_rating,464148,Rosehollow,,50,,,2,,,,,,,,,,,,,,,
null,,confidence_buffer,464251,confidence_buffer,,null,,,,,,,,,,,,,,,,,,
562.8000000119209,,pt2_memorable_rating,464816,Rosehollow,,53,,,5,,,,,,,,,,,,,,,
null,,confidence_buffer,464919,confidence_buffer,,null,,,,,,,,,,,,,,,,,,
1429,,recognition_phase,466350,Rosehollow,,49,,,,,,old,1,0.6428571428571429,,,,,,,,,,
null,,confidence_buffer,466454,confidence_buffer,,null,,,,,,,,,,,,,,,,,,
null,,thebreak,466956,break,,null,,,,,,,,,,,,,,,,,,
1355.9000000059605,,realistic_rating,468314,Bar Harbor,,50,Bar Harbor,US,2,,,,,,,,,,,,,,,
null,,confidence_buffer,468417,confidence_buffer,,null,,,,,,,,,,,,,,,,,,
501.90000000596046,,pt2_unique_rating,468921,Bar Harbor,,52,,,4,,,,,,,,,,,,,,,
null,,confidence_buffer,469024,confidence_buffer,,null,,,,,,,,,,,,,,,,,,
562.4000000059605,,pt2_memorable_rating,469588,Bar Harbor,,51,,,3,,,,,,,,,,,,,,,
null,,confidence_buffer,469693,confidence_buffer,,null,,,,,,,,,,,,,,,,,,
1907.2999999821186,,recognition_phase,471603,Bar Harbor,,52,,,,,,new,1,0.6666666666666666,,,,,,,,,,
null,,confidence_buffer,471706,confidence_buffer,,null,,,,,,,,,,,,,,,,,,
null,,thebreak,472208,break,,null,,,,,,,,,,,,,,,,,,
2419.0999999940395,,realistic_rating,474629,Briarfield,,50,Briarfield,Fictional,2,,,,,,,,,,,,,,,
null,,confidence_buffer,474732,confidence_buffer,,null,,,,,,,,,,,,,,,,,,
711.8999999761581,,pt2_unique_rating,475446,Briarfield,,52,,,4,,,,,,,,,,,,,,,
null,,confidence_buffer,475549,confidence_buffer,,null,,,,,,,,,,,,,,,,,,
562.4000000059605,,pt2_memorable_rating,476114,Briarfield,,49,,,1,,,,,,,,,,,,,,,
null,,confidence_buffer,476217,confidence_buffer,,null,,,,,,,,,,,,,,,,,,
1558.4000000059605,,recognition_phase,477778,Briarfield,,49,,,,,,old,1,0.6875,,,,,,,,,,
null,,confidence_buffer,477880,confidence_buffer,,null,,,,,,,,,,,,,,,,,,
null,,thebreak,478382,break,,null,,,,,,,,,,,,,,,,,,
1625.4000000059605,,realistic_rating,480010,Hawthorne Bluffs,,50,Hawthorne Bluffs,Fictional,2,,,,,,,,,,,,,,,
null,,confidence_buffer,480113,confidence_buffer,,null,,,,,,,,,,,,,,,,,,
651.9000000059605,,pt2_unique_rating,480768,Hawthorne Bluffs,,52,,,4,,,,,,,,,,,,,,,
null,,confidence_buffer,480870,confidence_buffer,,null,,,,,,,,,,,,,,,,,,
1128.9000000059605,,pt2_memorable_rating,482002,Hawthorne Bluffs,,50,,,2,,,,,,,,,,,,,,,
null,,confidence_buffer,482104,confidence_buffer,,null,,,,,,,,,,,,,,,,,,
2078.899999976158,,recognition_phase,484186,Hawthorne Bluffs,,52,,,,,,new,1,0.7058823529411765,,,,,,,,,,
null,,confidence_buffer,484289,confidence_buffer,,null,,,,,,,,,,,,,,,,,,
null,,thebreak,484791,break,,null,,,,,,,,,,,,,,,,,,
778,,realistic_rating,485571,Sunmere,,50,Sunmere,Fictional,2,,,,,,,,,,,,,,,
null,,confidence_buffer,485674,confidence_buffer,,null,,,,,,,,,,,,,,,,,,
431,,pt2_unique_rating,486107,Sunmere,,51,,,3,,,,,,,,,,,,,,,
null,,confidence_buffer,486209,confidence_buffer,,null,,,,,,,,,,,,,,,,,,
473.2000000178814,,pt2_memorable_rating,486685,Sunmere,,50,,,2,,,,,,,,,,,,,,,
null,,confidence_buffer,486788,confidence_buffer,,null,,,,,,,,,,,,,,,,,,
2284.5999999940395,,recognition_phase,489075,Sunmere,,51,,,,,,new,1,0.7222222222222222,,,,,,,,,,
null,,confidence_buffer,489178,confidence_buffer,,null,,,,,,,,,,,,,,,,,,
null,,thebreak,489680,break,,null,,,,,,,,,,,,,,,,,,
1366.800000011921,,realistic_rating,491049,Bowling Green,,49,Bowling Green,US,1,,,,,,,,,,,,,,,
null,,confidence_buffer,491153,confidence_buffer,,null,,,,,,,,,,,,,,,,,,
561,,pt2_unique_rating,491716,Bowling Green,,51,,,3,,,,,,,,,,,,,,,
null,,confidence_buffer,491819,confidence_buffer,,null,,,,,,,,,,,,,,,,,,
613,,pt2_memorable_rating,492435,Bowling Green,,50,,,2,,,,,,,,,,,,,,,
null,,confidence_buffer,492538,confidence_buffer,,null,,,,,,,,,,,,,,,,,,
950.3000000119209,,recognition_phase,493490,Bowling Green,,52,,,,,,new,0,0.6842105263157895,,,,,,,,,,
null,,confidence_buffer,493593,confidence_buffer,,null,,,,,,,,,,,,,,,,,,
null,,thebreak,494096,break,,null,,,,,,,,,,,,,,,,,,
517.5,,realistic_rating,494616,Falconridge,,50,Falconridge,Fictional,2,,,,,,,,,,,,,,,
null,,confidence_buffer,494719,confidence_buffer,,null,,,,,,,,,,,,,,,,,,
790.5,,pt2_unique_rating,495512,Falconridge,,49,,,1,,,,,,,,,,,,,,,
null,,confidence_buffer,495614,confidence_buffer,,null,,,,,,,,,,,,,,,,,,
810.8999999761581,,pt2_memorable_rating,496427,Falconridge,,51,,,3,,,,,,,,,,,,,,,
null,,confidence_buffer,496531,confidence_buffer,,null,,,,,,,,,,,,,,,,,,
1000.8999999761581,,recognition_phase,497534,Falconridge,,50,,,,,,old,1,0.7,,,,,,,,,,
null,,confidence_buffer,497637,confidence_buffer,,null,,,,,,,,,,,,,,,,,,
null,,thebreak,498139,break,,null,,,,,,,,,,,,,,,,,,
750.9000000059605,,realistic_rating,498892,Ashford Hills,,49,Ashford Hills,Fictional,1,,,,,,,,,,,,,,,
null,,confidence_buffer,498995,confidence_buffer,,null,,,,,,,,,,,,,,,,,,
628.6999999880791,,pt2_unique_rating,499625,Ashford Hills,,51,,,3,,,,,,,,,,,,,,,
null,,confidence_buffer,499728,confidence_buffer,,null,,,,,,,,,,,,,,,,,,
743.5999999940395,,pt2_memorable_rating,500473,Ashford Hills,,49,,,1,,,,,,,,,,,,,,,
null,,confidence_buffer,500576,confidence_buffer,,null,,,,,,,,,,,,,,,,,,
552.5999999940395,,recognition_phase,501131,Ashford Hills,,51,,,,,,new,1,0.7142857142857143,,,,,,,,,,
null,,confidence_buffer,501235,confidence_buffer,,null,,,,,,,,,,,,,,,,,,
null,,thebreak,501737,break,,null,,,,,,,,,,,,,,,,,,
636.3000000119209,,realistic_rating,502376,Hilo,,49,Hilo,US,1,,,,,,,,,,,,,,,
null,,confidence_buffer,502479,confidence_buffer,,null,,,,,,,,,,,,,,,,,,
841,,pt2_unique_rating,503322,Hilo,,51,,,3,,,,,,,,,,,,,,,
null,,confidence_buffer,503425,confidence_buffer,,null,,,,,,,,,,,,,,,,,,
880.8000000119209,,pt2_memorable_rating,504309,Hilo,,52,,,4,,,,,,,,,,,,,,,
null,,confidence_buffer,504411,confidence_buffer,,null,,,,,,,,,,,,,,,,,,
1947.7999999821186,,recognition_phase,506361,Hilo,,52,,,,,,new,1,0.7272727272727273,,,,,,,,,,
null,,confidence_buffer,506464,confidence_buffer,,null,,,,,,,,,,,,,,,,,,
null,,thebreak,506967,break,,null,,,,,,,,,,,,,,,,,,
916.3000000119209,,realistic_rating,507886,Hanover,,49,Hanover,US,1,,,,,,,,,,,,,,,
null,,confidence_buffer,507990,confidence_buffer,,null,,,,,,,,,,,,,,,,,,
828.7000000178814,,pt2_unique_rating,508821,Hanover,,50,,,2,,,,,,,,,,,,,,,
null,,confidence_buffer,508924,confidence_buffer,,null,,,,,,,,,,,,,,,,,,
413.09999999403954,,pt2_memorable_rating,509339,Hanover,,51,,,3,,,,,,,,,,,,,,,
null,,confidence_buffer,509442,confidence_buffer,,null,,,,,,,,,,,,,,,,,,
901,,recognition_phase,510346,Hanover,,49,,,,,,old,0,0.6956521739130435,,,,,,,,,,
null,,confidence_buffer,510448,confidence_buffer,,null,,,,,,,,,,,,,,,,,,
null,,thebreak,510951,break,,null,,,,,,,,,,,,,,,,,,
538.4000000059605,,realistic_rating,511492,Ironwood Heights,,50,Ironwood Heights,Fictional,2,,,,,,,,,,,,,,,
null,,confidence_buffer,511595,confidence_buffer,,null,,,,,,,,,,,,,,,,,,
552.0999999940395,,pt2_unique_rating,512149,Ironwood Heights,,51,,,3,,,,,,,,,,,,,,,
null,,confidence_buffer,512253,confidence_buffer,,null,,,,,,,,,,,,,,,,,,
572.3000000119209,,pt2_memorable_rating,512827,Ironwood Heights,,49,,,1,,,,,,,,,,,,,,,
null,,confidence_buffer,512930,confidence_buffer,,null,,,,,,,,,,,,,,,,,,
2296.199999988079,,recognition_phase,515228,Ironwood Heights,,49,,,,,,old,0,0.6666666666666666,,,,,,,,,,
null,,confidence_buffer,515331,confidence_buffer,,null,,,,,,,,,,,,,,,,,,
null,,thebreak,515833,break,,null,,,,,,,,,,,,,,,,,,
488.80000001192093,,realistic_rating,516324,Athens,,51,Athens,US,3,,,,,,,,,,,,,,,
null,,confidence_buffer,516427,confidence_buffer,,null,,,,,,,,,,,,,,,,,,
861.6000000238419,,pt2_unique_rating,517290,Athens,,50,,,2,,,,,,,,,,,,,,,
null,,confidence_buffer,517394,confidence_buffer,,null,,,,,,,,,,,,,,,,,,
1887,,probe_rating,519283,probe_rating,,53,,,,5,1,,,,,,,,,,,,,
null,,confidence_buffer,519386,confidence_buffer,,null,,,,,,,,,,,,,,,,,,
1090.800000011921,,pt2_memorable_rating,520479,Athens,,50,,,2,,,,,,,,,,,,,,,
null,,confidence_buffer,520582,confidence_buffer,,null,,,,,,,,,,,,,,,,,,
532.6000000238419,,recognition_phase,521117,Athens,,51,,,,,,new,0,0.64,,,,,,,,,,
null,,confidence_buffer,521221,confidence_buffer,,null,,,,,,,,,,,,,,,,,,
null,,thebreak,521723,break,,null,,,,,,,,,,,,,,,,,,
3427.9000000059605,,realistic_rating,525153,Natchez,,50,Natchez,US,2,,,,,,,,,,,,,,,
null,,confidence_buffer,525256,confidence_buffer,,null,,,,,,,,,,,,,,,,,,
631.1999999880791,,pt2_unique_rating,525890,Natchez,,51,,,3,,,,,,,,,,,,,,,
null,,confidence_buffer,525993,confidence_buffer,,null,,,,,,,,,,,,,,,,,,
490.80000001192093,,pt2_memorable_rating,526486,Natchez,,52,,,4,,,,,,,,,,,,,,,
null,,confidence_buffer,526589,confidence_buffer,,null,,,,,,,,,,,,,,,,,,
2894.699999988079,,recognition_phase,529486,Natchez,,52,,,,,,new,0,0.6153846153846154,,,,,,,,,,
null,,confidence_buffer,529589,confidence_buffer,,null,,,,,,,,,,,,,,,,,,
null,,thebreak,530092,break,,null,,,,,,,,,,,,,,,,,,
786.5999999940395,,realistic_rating,530881,Brookmere,,50,Brookmere,Fictional,2,,,,,,,,,,,,,,,
null,,confidence_buffer,530985,confidence_buffer,,null,,,,,,,,,,,,,,,,,,
1408.2999999821186,,probe_rating,532396,probe_rating,,49,,,,1,1,,,,,,,,,,,,,
null,,confidence_buffer,532499,confidence_buffer,,null,,,,,,,,,,,,,,,,,,
1218.7999999821186,,pt2_unique_rating,533720,Brookmere,,50,,,2,,,,,,,,,,,,,,,
null,,confidence_buffer,533822,confidence_buffer,,null,,,,,,,,,,,,,,,,,,
423.40000000596046,,pt2_memorable_rating,534248,Brookmere,,51,,,3,,,,,,,,,,,,,,,
null,,confidence_buffer,534350,confidence_buffer,,null,,,,,,,,,,,,,,,,,,
732.5999999940395,,recognition_phase,535085,Brookmere,,49,,,,,,old,0,0.5925925925925926,,,,,,,,,,
null,,confidence_buffer,535188,confidence_buffer,,null,,,,,,,,,,,,,,,,,,
null,,thebreak,535690,break,,null,,,,,,,,,,,,,,,,,,
697.8000000119209,,realistic_rating,536391,Fairhaven,,50,Fairhaven,Fictional,2,,,,,,,,,,,,,,,
null,,confidence_buffer,536494,confidence_buffer,,null,,,,,,,,,,,,,,,,,,
222.2999999821186,,pt2_unique_rating,536719,Fairhaven,,51,,,3,,,,,,,,,,,,,,,
null,,confidence_buffer,536822,confidence_buffer,,null,,,,,,,,,,,,,,,,,,
431.7999999821186,,pt2_memorable_rating,537257,Fairhaven,,49,,,1,,,,,,,,,,,,,,,
null,,confidence_buffer,537360,confidence_buffer,,null,,,,,,,,,,,,,,,,,,
532.5999999940395,,recognition_phase,537895,Fairhaven,,51,,,,,,new,1,0.6071428571428571,,,,,,,,,,
null,,confidence_buffer,537998,confidence_buffer,,null,,,,,,,,,,,,,,,,,,
null,,thebreak,538500,break,,null,,,,,,,,,,,,,,,,,,
308.40000000596046,,realistic_rating,538811,Cody,,49,Cody,US,1,,,,,,,,,,,,,,,
null,,confidence_buffer,538914,confidence_buffer,,null,,,,,,,,,,,,,,,,,,
402.90000000596046,,pt2_unique_rating,539320,Cody,,51,,,3,,,,,,,,,,,,,,,
null,,confidence_buffer,539423,confidence_buffer,,null,,,,,,,,,,,,,,,,,,
412.7000000178814,,pt2_memorable_rating,539838,Cody,,49,,,1,,,,,,,,,,,,,,,
null,,confidence_buffer,539942,confidence_buffer,,null,,,,,,,,,,,,,,,,,,
551.9000000059605,,recognition_phase,540496,Cody,,51,,,,,,new,0,0.5862068965517241,,,,,,,,,,
null,,confidence_buffer,540599,confidence_buffer,,null,,,,,,,,,,,,,,,,,,
null,,thebreak,541102,break,,null,,,,,,,,,,,,,,,,,,
447.19999998807907,,realistic_rating,541551,Newport,,49,Newport,US,1,,,,,,,,,,,,,,,
null,,confidence_buffer,541655,confidence_buffer,,null,,,,,,,,,,,,,,,,,,
581.7999999821186,,pt2_unique_rating,542239,Newport,,52,,,4,,,,,,,,,,,,,,,
null,,confidence_buffer,542342,confidence_buffer,,null,,,,,,,,,,,,,,,,,,
843.1999999880791,,pt2_memorable_rating,543187,Newport,,50,,,2,,,,,,,,,,,,,,,
null,,confidence_buffer,543290,confidence_buffer,,null,,,,,,,,,,,,,,,,,,
551.9000000059605,,recognition_phase,543844,Newport,,51,,,,,,new,1,0.6,,,,,,,,,,
null,,confidence_buffer,543946,confidence_buffer,,null,,,,,,,,,,,,,,,,,,
null,,thebreak,544448,break,,null,,,,,,,,,,,,,,,,,,
339.09999999403954,,realistic_rating,544790,Westridge,,49,Westridge,Fictional,1,,,,,,,,,,,,,,,
null,,confidence_buffer,544893,confidence_buffer,,null,,,,,,,,,,,,,,,,,,
552.5999999940395,,pt2_unique_rating,545448,Westridge,,52,,,4,,,,,,,,,,,,,,,
null,,confidence_buffer,545551,confidence_buffer,,null,,,,,,,,,,,,,,,,,,
651.1999999880791,,pt2_memorable_rating,546205,Westridge,,49,,,1,,,,,,,,,,,,,,,
null,,confidence_buffer,546308,confidence_buffer,,null,,,,,,,,,,,,,,,,,,
653.7999999821186,,recognition_phase,546964,Westridge,,51,,,,,,new,1,0.6129032258064516,,,,,,,,,,
null,,confidence_buffer,547066,confidence_buffer,,null,,,,,,,,,,,,,,,,,,
null,,thebreak,547569,break,,null,,,,,,,,,,,,,,,,,,
647.5999999940395,,realistic_rating,548218,Racine,,49,Racine,US,1,,,,,,,,,,,,,,,
null,,confidence_buffer,548322,confidence_buffer,,null,,,,,,,,,,,,,,,,,,
590.3000000119209,,pt2_unique_rating,548916,Racine,,52,,,4,,,,,,,,,,,,,,,
null,,confidence_buffer,549018,confidence_buffer,,null,,,,,,,,,,,,,,,,,,
711.9000000059605,,pt2_memorable_rating,549732,Racine,,50,,,2,,,,,,,,,,,,,,,
null,,confidence_buffer,549835,confidence_buffer,,null,,,,,,,,,,,,,,,,,,
592.8999999761581,,recognition_phase,550430,Racine,,51,,,,,,new,1,0.625,,,,,,,,,,
null,,confidence_buffer,550532,confidence_buffer,,null,,,,,,,,,,,,,,,,,,
null,,thebreak,551034,break,,null,,,,,,,,,,,,,,,,,,
579.1999999880791,,realistic_rating,551616,Driftwood Bay,,49,Driftwood Bay,Fictional,1,,,,,,,,,,,,,,,
null,,confidence_buffer,551719,confidence_buffer,,null,,,,,,,,,,,,,,,,,,
831,,pt2_unique_rating,552552,Driftwood Bay,,50,,,2,,,,,,,,,,,,,,,
null,,confidence_buffer,552655,confidence_buffer,,null,,,,,,,,,,,,,,,,,,
442.90000000596046,,pt2_memorable_rating,553101,Driftwood Bay,,51,,,3,,,,,,,,,,,,,,,
null,,confidence_buffer,553204,confidence_buffer,,null,,,,,,,,,,,,,,,,,,
660.8000000119209,,recognition_phase,553868,Driftwood Bay,,52,,,,,,new,0,0.6060606060606061,,,,,,,,,,
null,,confidence_buffer,553970,confidence_buffer,,null,,,,,,,,,,,,,,,,,,
null,,thebreak,554472,break,,null,,,,,,,,,,,,,,,,,,
499.69999998807907,,realistic_rating,554974,Healdsburg,,49,Healdsburg,US,1,,,,,,,,,,,,,,,
null,,confidence_buffer,555078,confidence_buffer,,null,,,,,,,,,,,,,,,,,,
890,,pt2_unique_rating,555971,Healdsburg,,50,,,2,,,,,,,,,,,,,,,
null,,confidence_buffer,556074,confidence_buffer,,null,,,,,,,,,,,,,,,,,,
741.0999999940395,,pt2_memorable_rating,556817,Healdsburg,,51,,,3,,,,,,,,,,,,,,,
null,,confidence_buffer,556920,confidence_buffer,,null,,,,,,,,,,,,,,,,,,
522.3000000119209,,recognition_phase,557446,Healdsburg,,52,,,,,,new,1,0.6176470588235294,,,,,,,,,,
null,,confidence_buffer,557549,confidence_buffer,,null,,,,,,,,,,,,,,,,,,
null,,thebreak,558051,break,,null,,,,,,,,,,,,,,,,,,
407.19999998807907,,realistic_rating,558461,Baymarsh,,49,Baymarsh,Fictional,1,,,,,,,,,,,,,,,
null,,confidence_buffer,558565,confidence_buffer,,null,,,,,,,,,,,,,,,,,,
631.5999999940395,,pt2_unique_rating,559199,Baymarsh,,50,,,2,,,,,,,,,,,,,,,
null,,confidence_buffer,559302,confidence_buffer,,null,,,,,,,,,,,,,,,,,,
442.2999999821186,,pt2_memorable_rating,559746,Baymarsh,,51,,,3,,,,,,,,,,,,,,,
null,,confidence_buffer,559851,confidence_buffer,,null,,,,,,,,,,,,,,,,,,
571.1999999880791,,recognition_phase,560425,Baymarsh,,52,,,,,,new,0,0.6,,,,,,,,,,
null,,confidence_buffer,560527,confidence_buffer,,null,,,,,,,,,,,,,,,,,,
null,,thebreak,561030,break,,null,,,,,,,,,,,,,,,,,,
388.5,,realistic_rating,561421,Sitka,,49,Sitka,US,1,,,,,,,,,,,,,,,
null,,confidence_buffer,561524,confidence_buffer,,null,,,,,,,,,,,,,,,,,,
572.4000000059605,,pt2_unique_rating,562099,Sitka,,50,,,2,,,,,,,,,,,,,,,
null,,confidence_buffer,562202,confidence_buffer,,null,,,,,,,,,,,,,,,,,,
602.8000000119209,,pt2_memorable_rating,562807,Sitka,,51,,,3,,,,,,,,,,,,,,,
null,,confidence_buffer,562909,confidence_buffer,,null,,,,,,,,,,,,,,,,,,
970.3000000119209,,recognition_phase,563883,Sitka,,49,,,,,,old,1,0.6111111111111112,,,,,,,,,,
null,,confidence_buffer,563985,confidence_buffer,,null,,,,,,,,,,,,,,,,,,
null,,thebreak,564487,break,,null,,,,,,,,,,,,,,,,,,
668.3000000119209,,realistic_rating,565158,Bayshore Haven,,49,Bayshore Haven,Fictional,1,,,,,,,,,,,,,,,
null,,confidence_buffer,565261,confidence_buffer,,null,,,,,,,,,,,,,,,,,,
462.40000000596046,,pt2_unique_rating,565726,Bayshore Haven,,50,,,2,,,,,,,,,,,,,,,
null,,confidence_buffer,565830,confidence_buffer,,null,,,,,,,,,,,,,,,,,,
1488.5,,probe_rating,567321,probe_rating,,49,,,,1,1,,,,,,,,,,,,,
null,,confidence_buffer,567425,confidence_buffer,,null,,,,,,,,,,,,,,,,,,
2743.399999976158,,pt2_memorable_rating,570171,Bayshore Haven,,52,,,4,,,,,,,,,,,,,,,
null,,confidence_buffer,570274,confidence_buffer,,null,,,,,,,,,,,,,,,,,,
2046.4000000059605,,recognition_phase,572323,Bayshore Haven,,52,,,,,,new,0,0.5945945945945946,,,,,,,,,,
null,,confidence_buffer,572427,confidence_buffer,,null,,,,,,,,,,,,,,,,,,
null,,thebreak,572929,break,,null,,,,,,,,,,,,,,,,,,
1633,,realistic_rating,574564,Carmel,,53,Carmel,US,5,,,,,,,,,,,,,,,
null,,confidence_buffer,574668,confidence_buffer,,null,,,,,,,,,,,,,,,,,,
701.1999999880791,,pt2_unique_rating,575371,Carmel,,50,,,2,,,,,,,,,,,,,,,
null,,confidence_buffer,575473,confidence_buffer,,null,,,,,,,,,,,,,,,,,,
384,,pt2_memorable_rating,575860,Carmel,,51,,,3,,,,,,,,,,,,,,,
null,,confidence_buffer,575962,confidence_buffer,,null,,,,,,,,,,,,,,,,,,
902.2999999821186,,recognition_phase,576866,Carmel,,49,,,,,,old,0,0.5789473684210527,,,,,,,,,,
null,,confidence_buffer,576968,confidence_buffer,,null,,,,,,,,,,,,,,,,,,
null,,thebreak,577471,break,,null,,,,,,,,,,,,,,,,,,
1295.5,,realistic_rating,578769,Barnard,,51,Barnard,US,3,,,,,,,,,,,,,,,
null,,confidence_buffer,578872,confidence_buffer,,null,,,,,,,,,,,,,,,,,,
622.4000000059605,,pt2_unique_rating,579497,Barnard,,52,,,4,,,,,,,,,,,,,,,
null,,confidence_buffer,579600,confidence_buffer,,null,,,,,,,,,,,,,,,,,,
534.4000000059605,,pt2_memorable_rating,580136,Barnard,,49,,,1,,,,,,,,,,,,,,,
null,,confidence_buffer,580239,confidence_buffer,,null,,,,,,,,,,,,,,,,,,
730,,recognition_phase,580971,Barnard,,49,,,,,,old,1,0.5897435897435898,,,,,,,,,,
null,,confidence_buffer,581075,confidence_buffer,,null,,,,,,,,,,,,,,,,,,
null,,thebreak,581577,break,,null,,,,,,,,,,,,,,,,,,
1115.5,,realistic_rating,582695,Elmsbury,,51,Elmsbury,Fictional,3,,,,,,,,,,,,,,,
null,,confidence_buffer,582798,confidence_buffer,,null,,,,,,,,,,,,,,,,,,
372.7999999821186,,pt2_unique_rating,583173,Elmsbury,,50,,,2,,,,,,,,,,,,,,,
null,,confidence_buffer,583276,confidence_buffer,,null,,,,,,,,,,,,,,,,,,
1259.8999999761581,,pt2_memorable_rating,584538,Elmsbury,,52,,,4,,,,,,,,,,,,,,,
null,,confidence_buffer,584642,confidence_buffer,,null,,,,,,,,,,,,,,,,,,
1328.5,,recognition_phase,585973,Elmsbury,,52,,,,,,new,1,0.6,,,,,,,,,,
null,,confidence_buffer,586076,confidence_buffer,,null,,,,,,,,,,,,,,,,,,
null,,thebreak,586578,break,,null,,,,,,,,,,,,,,,,,,
997.1999999880791,,realistic_rating,587577,Linden Trace,,49,Linden Trace,Fictional,1,,,,,,,,,,,,,,,
null,,confidence_buffer,587680,confidence_buffer,,null,,,,,,,,,,,,,,,,,,
553.2000000178814,,pt2_unique_rating,588235,Linden Trace,,50,,,2,,,,,,,,,,,,,,,
null,,confidence_buffer,588337,confidence_buffer,,null,,,,,,,,,,,,,,,,,,
524.5,,pt2_memorable_rating,588864,Linden Trace,,51,,,3,,,,,,,,,,,,,,,
null,,confidence_buffer,588967,confidence_buffer,,null,,,,,,,,,,,,,,,,,,
2575.7000000178814,,recognition_phase,591545,Linden Trace,,52,,,,,,new,0,0.5853658536585366,,,,,,,,,,
null,,confidence_buffer,591648,confidence_buffer,,null,,,,,,,,,,,,,,,,,,
null,,thebreak,592151,break,,null,,,,,,,,,,,,,,,,,,
646.2999999821186,,realistic_rating,592800,Clearbrook,,50,Clearbrook,Fictional,2,,,,,,,,,,,,,,,
null,,confidence_buffer,592903,confidence_buffer,,null,,,,,,,,,,,,,,,,,,
532,,pt2_unique_rating,593437,Clearbrook,,51,,,3,,,,,,,,,,,,,,,
null,,confidence_buffer,593540,confidence_buffer,,null,,,,,,,,,,,,,,,,,,
473.09999999403954,,pt2_memorable_rating,594015,Clearbrook,,49,,,1,,,,,,,,,,,,,,,
null,,confidence_buffer,594117,confidence_buffer,,null,,,,,,,,,,,,,,,,,,
1429.7000000178814,,recognition_phase,595550,Clearbrook,,52,,,,,,new,0,0.5714285714285714,,,,,,,,,,
null,,confidence_buffer,595652,confidence_buffer,,null,,,,,,,,,,,,,,,,,,
null,,thebreak,596155,break,,null,,,,,,,,,,,,,,,,,,
1166.300000011921,,realistic_rating,597323,Alliance,,49,Alliance,US,1,,,,,,,,,,,,,,,
null,,confidence_buffer,597426,confidence_buffer,,null,,,,,,,,,,,,,,,,,,
582.5999999940395,,pt2_unique_rating,598011,Alliance,,50,,,2,,,,,,,,,,,,,,,
null,,confidence_buffer,598114,confidence_buffer,,null,,,,,,,,,,,,,,,,,,
572,,pt2_memorable_rating,598688,Alliance,,51,,,3,,,,,,,,,,,,,,,
null,,confidence_buffer,598790,confidence_buffer,,null,,,,,,,,,,,,,,,,,,
663.6000000238419,,recognition_phase,599456,Alliance,,52,,,,,,new,0,0.5581395348837209,,,,,,,,,,
null,,confidence_buffer,599559,confidence_buffer,,null,,,,,,,,,,,,,,,,,,
null,,thebreak,600061,break,,null,,,,,,,,,,,,,,,,,,
1046,,realistic_rating,601110,West Talora,,50,West Talora,Fictional,2,,,,,,,,,,,,,,,
null,,confidence_buffer,601213,confidence_buffer,,null,,,,,,,,,,,,,,,,,,
3531.9000000059605,,pt2_unique_rating,604747,West Talora,,53,,,5,,,,,,,,,,,,,,,
null,,confidence_buffer,604851,confidence_buffer,,null,,,,,,,,,,,,,,,,,,
1119.300000011921,,pt2_memorable_rating,605972,West Talora,,50,,,2,,,,,,,,,,,,,,,
null,,confidence_buffer,606075,confidence_buffer,,null,,,,,,,,,,,,,,,,,,
1170.5,,recognition_phase,607248,West Talora,,52,,,,,,new,0,0.5454545454545454,,,,,,,,,,
null,,confidence_buffer,607352,confidence_buffer,,null,,,,,,,,,,,,,,,,,,
null,,thebreak,607855,break,,null,,,,,,,,,,,,,,,,,,
2290.199999988079,,realistic_rating,610147,Delaware City,,49,Delaware City,US,1,,,,,,,,,,,,,,,
null,,confidence_buffer,610250,confidence_buffer,,null,,,,,,,,,,,,,,,,,,
1171.199999988079,,pt2_unique_rating,611423,Delaware City,,52,,,4,,,,,,,,,,,,,,,
null,,confidence_buffer,611526,confidence_buffer,,null,,,,,,,,,,,,,,,,,,
602.1999999880791,,pt2_memorable_rating,612130,Delaware City,,51,,,3,,,,,,,,,,,,,,,
null,,confidence_buffer,612233,confidence_buffer,,null,,,,,,,,,,,,,,,,,,
2616.5,,recognition_phase,614851,Delaware City,,49,,,,,,old,1,0.5555555555555556,,,,,,,,,,
null,,confidence_buffer,614954,confidence_buffer,,null,,,,,,,,,,,,,,,,,,
null,,thebreak,615457,break,,null,,,,,,,,,,,,,,,,,,
4394.5999999940395,,realistic_rating,619854,Summershade,,50,Summershade,Fictional,2,,,,,,,,,,,,,,,
null,,confidence_buffer,619958,confidence_buffer,,null,,,,,,,,,,,,,,,,,,
431.60000002384186,,pt2_unique_rating,620392,Summershade,,51,,,3,,,,,,,,,,,,,,,
null,,confidence_buffer,620494,confidence_buffer,,null,,,,,,,,,,,,,,,,,,
403.19999998807907,,pt2_memorable_rating,620900,Summershade,,52,,,4,,,,,,,,,,,,,,,
null,,confidence_buffer,621002,confidence_buffer,,null,,,,,,,,,,,,,,,,,,
2257.199999988079,,recognition_phase,623262,Summershade,,52,,,,,,new,1,0.5652173913043478,,,,,,,,,,
null,,confidence_buffer,623366,confidence_buffer,,null,,,,,,,,,,,,,,,,,,
null,,thebreak,623869,break,,null,,,,,,,,,,,,,,,,,,
496.7999999821186,,realistic_rating,624368,Orr,,50,Orr,US,2,,,,,,,,,,,,,,,
null,,confidence_buffer,624471,confidence_buffer,,null,,,,,,,,,,,,,,,,,,
1161.2000000178814,,pt2_unique_rating,625634,Orr,,52,,,4,,,,,,,,,,,,,,,
null,,confidence_buffer,625737,confidence_buffer,,null,,,,,,,,,,,,,,,,,,
422.5,,pt2_memorable_rating,626162,Orr,,49,,,1,,,,,,,,,,,,,,,
null,,confidence_buffer,626264,confidence_buffer,,null,,,,,,,,,,,,,,,,,,
602.5,,recognition_phase,626869,Orr,,51,,,,,,new,1,0.574468085106383,,,,,,,,,,
null,,confidence_buffer,626972,confidence_buffer,,null,,,,,,,,,,,,,,,,,,
null,,thebreak,627474,break,,null,,,,,,,,,,,,,,,,,,
988.0999999940395,,realistic_rating,628464,Bisbee,,49,Bisbee,US,1,,,,,,,,,,,,,,,
null,,confidence_buffer,628569,confidence_buffer,,null,,,,,,,,,,,,,,,,,,
1297.699999988079,,pt2_unique_rating,629869,Bisbee,,51,,,3,,,,,,,,,,,,,,,
null,,confidence_buffer,629972,confidence_buffer,,null,,,,,,,,,,,,,,,,,,
1289.800000011921,,pt2_memorable_rating,631264,Bisbee,,52,,,4,,,,,,,,,,,,,,,
null,,confidence_buffer,631367,confidence_buffer,,null,,,,,,,,,,,,,,,,,,
3332.2000000178814,,recognition_phase,634702,Bisbee,,49,,,,,,old,0,0.5625,,,,,,,,,,
null,,confidence_buffer,634807,confidence_buffer,,null,,,,,,,,,,,,,,,,,,
null,,thebreak,635309,break,,null,,,,,,,,,,,,,,,,,,
936.3000000119209,,realistic_rating,636248,Gardnerville,,51,Gardnerville,US,3,,,,,,,,,,,,,,,
null,,confidence_buffer,636352,confidence_buffer,,null,,,,,,,,,,,,,,,,,,
1696.0999999940395,,pt2_unique_rating,638050,Gardnerville,,49,,,1,,,,,,,,,,,,,,,
null,,confidence_buffer,638153,confidence_buffer,,null,,,,,,,,,,,,,,,,,,
1051.4000000059605,,pt2_memorable_rating,639207,Gardnerville,,53,,,5,,,,,,,,,,,,,,,
null,,confidence_buffer,639310,confidence_buffer,,null,,,,,,,,,,,,,,,,,,
1788.5,,recognition_phase,641101,Gardnerville,,49,,,,,,old,0,0.5510204081632653,,,,,,,,,,
null,,confidence_buffer,641204,confidence_buffer,,null,,,,,,,,,,,,,,,,,,
null,,thebreak,641706,break,,null,,,,,,,,,,,,,,,,,,
1925,,realistic_rating,643634,Okoboji,,52,Okoboji,US,4,,,,,,,,,,,,,,,
null,,confidence_buffer,643737,confidence_buffer,,null,,,,,,,,,,,,,,,,,,
869.5999999940395,,pt2_unique_rating,644609,Okoboji,,50,,,2,,,,,,,,,,,,,,,
null,,confidence_buffer,644711,confidence_buffer,,null,,,,,,,,,,,,,,,,,,
900.8999999761581,,pt2_memorable_rating,645614,Okoboji,,52,,,4,,,,,,,,,,,,,,,
null,,confidence_buffer,645717,confidence_buffer,,null,,,,,,,,,,,,,,,,,,
1829.2000000178814,,recognition_phase,647550,Okoboji,,52,,,,,,new,1,0.56,,,,,,,,,,
null,,confidence_buffer,647654,confidence_buffer,,null,,,,,,,,,,,,,,,,,,
null,,thebreak,648156,break,,null,,,,,,,,,,,,,,,,,,
1611.300000011921,,realistic_rating,649771,Golden Trace,,53,Golden Trace,Fictional,5,,,,,,,,,,,,,,,
null,,confidence_buffer,649875,confidence_buffer,,null,,,,,,,,,,,,,,,,,,
1208.4000000059605,,pt2_unique_rating,651086,Golden Trace,,53,,,5,,,,,,,,,,,,,,,
null,,confidence_buffer,651190,confidence_buffer,,null,,,,,,,,,,,,,,,,,,
691.5,,pt2_memorable_rating,651883,Golden Trace,,50,,,2,,,,,,,,,,,,,,,
null,,confidence_buffer,651986,confidence_buffer,,null,,,,,,,,,,,,,,,,,,
1569.5999999940395,,recognition_phase,653558,Golden Trace,,52,,,,,,new,1,0.5686274509803921,,,,,,,,,,
null,,confidence_buffer,653661,confidence_buffer,,null,,,,,,,,,,,,,,,,,,
null,,thebreak,654163,break,,null,,,,,,,,,,,,,,,,,,
1335.0999999940395,,realistic_rating,655501,New Verdan,,50,New Verdan,Fictional,2,,,,,,,,,,,,,,,
null,,confidence_buffer,655604,confidence_buffer,,null,,,,,,,,,,,,,,,,,,
682.4000000059605,,pt2_unique_rating,656289,New Verdan,,52,,,4,,,,,,,,,,,,,,,
null,,confidence_buffer,656392,confidence_buffer,,null,,,,,,,,,,,,,,,,,,
933.5,,pt2_memorable_rating,657328,New Verdan,,49,,,1,,,,,,,,,,,,,,,
null,,confidence_buffer,657431,confidence_buffer,,null,,,,,,,,,,,,,,,,,,
3111.4000000059605,,recognition_phase,660544,New Verdan,,49,,,,,,old,0,0.5576923076923077,,,,,,,,,,
null,,confidence_buffer,660646,confidence_buffer,,null,,,,,,,,,,,,,,,,,,
null,,thebreak,661149,break,,null,,,,,,,,,,,,,,,,,,
738,,realistic_rating,661889,San Antonio,,51,San Antonio,US,3,,,,,,,,,,,,,,,
null,,confidence_buffer,661992,confidence_buffer,,null,,,,,,,,,,,,,,,,,,
601.5999999940395,,pt2_unique_rating,662596,San Antonio,,49,,,1,,,,,,,,,,,,,,,
null,,confidence_buffer,662700,confidence_buffer,,null,,,,,,,,,,,,,,,,,,
481.5,,pt2_memorable_rating,663184,San Antonio,,52,,,4,,,,,,,,,,,,,,,
null,,confidence_buffer,663288,confidence_buffer,,null,,,,,,,,,,,,,,,,,,
3142.800000011921,,probe_rating,666433,probe_rating,,52,,,,4,1,,,,,,,,,,,,,
null,,confidence_buffer,666537,confidence_buffer,,null,,,,,,,,,,,,,,,,,,
2294.800000011921,,recognition_phase,668834,San Antonio,,49,,,,,,old,0,0.5471698113207547,,,,,,,,,,
null,,confidence_buffer,668939,confidence_buffer,,null,,,,,,,,,,,,,,,,,,
null,,thebreak,669441,break,,null,,,,,,,,,,,,,,,,,,
1754.4000000059605,,realistic_rating,671198,Folly Beach,,52,Folly Beach,US,4,,,,,,,,,,,,,,,
null,,confidence_buffer,671301,confidence_buffer,,null,,,,,,,,,,,,,,,,,,
480.69999998807907,,pt2_unique_rating,671784,Folly Beach,,50,,,2,,,,,,,,,,,,,,,
null,,confidence_buffer,671887,confidence_buffer,,null,,,,,,,,,,,,,,,,,,
443.10000002384186,,pt2_memorable_rating,672333,Folly Beach,,51,,,3,,,,,,,,,,,,,,,
null,,confidence_buffer,672435,confidence_buffer,,null,,,,,,,,,,,,,,,,,,
2586.4000000059605,,recognition_phase,675025,Folly Beach,,49,,,,,,old,1,0.5555555555555556,,,,,,,,,,
null,,confidence_buffer,675127,confidence_buffer,,null,,,,,,,,,,,,,,,,,,
null,,thebreak,675630,break,,null,,,,,,,,,,,,,,,,,,
1045.5999999940395,,realistic_rating,676679,Juniper Creek,,51,Juniper Creek,Fictional,3,,,,,,,,,,,,,,,
null,,confidence_buffer,676782,confidence_buffer,,null,,,,,,,,,,,,,,,,,,
672.3000000119209,,pt2_unique_rating,677457,Juniper Creek,,52,,,4,,,,,,,,,,,,,,,
null,,confidence_buffer,677560,confidence_buffer,,null,,,,,,,,,,,,,,,,,,
470.59999999403954,,pt2_memorable_rating,678033,Juniper Creek,,49,,,1,,,,,,,,,,,,,,,
null,,confidence_buffer,678138,confidence_buffer,,null,,,,,,,,,,,,,,,,,,
1339.199999988079,,recognition_phase,679479,Juniper Creek,,52,,,,,,new,0,0.5454545454545454,,,,,,,,,,
null,,confidence_buffer,679582,confidence_buffer,,null,,,,,,,,,,,,,,,,,,
null,,thebreak,680084,break,,null,,,,,,,,,,,,,,,,,,
729,,realistic_rating,680816,Silverpine,,50,Silverpine,Fictional,2,,,,,,,,,,,,,,,
null,,confidence_buffer,680919,confidence_buffer,,null,,,,,,,,,,,,,,,,,,
480.90000000596046,,pt2_unique_rating,681402,Silverpine,,51,,,3,,,,,,,,,,,,,,,
null,,confidence_buffer,681505,confidence_buffer,,null,,,,,,,,,,,,,,,,,,
641.8000000119209,,pt2_memorable_rating,682149,Silverpine,,52,,,4,,,,,,,,,,,,,,,
null,,confidence_buffer,682252,confidence_buffer,,null,,,,,,,,,,,,,,,,,,
1789.1000000238419,,recognition_phase,684043,Silverpine,,49,,,,,,old,1,0.5535714285714286,,,,,,,,,,
null,,confidence_buffer,684146,confidence_buffer,,null,,,,,,,,,,,,,,,,,,
null,,thebreak,684648,break,,null,,,,,,,,,,,,,,,,,,
817.3999999761581,,realistic_rating,685469,Northbridge,,51,Northbridge,Fictional,3,,,,,,,,,,,,,,,
null,,confidence_buffer,685573,confidence_buffer,,null,,,,,,,,,,,,,,,,,,
1378.300000011921,,probe_rating,686953,probe_rating,,51,,,,3,1,,,,,,,,,,,,,
null,,confidence_buffer,687056,confidence_buffer,,null,,,,,,,,,,,,,,,,,,
861.9000000059605,,pt2_unique_rating,687921,Northbridge,,49,,,1,,,,,,,,,,,,,,,
null,,confidence_buffer,688023,confidence_buffer,,null,,,,,,,,,,,,,,,,,,
672.1000000238419,,pt2_memorable_rating,688697,Northbridge,,52,,,4,,,,,,,,,,,,,,,
null,,confidence_buffer,688800,confidence_buffer,,null,,,,,,,,,,,,,,,,,,
912.0999999940395,,recognition_phase,689714,Northbridge,,49,,,,,,old,0,0.543859649122807,,,,,,,,,,
null,,confidence_buffer,689818,confidence_buffer,,null,,,,,,,,,,,,,,,,,,
null,,thebreak,690320,break,,null,,,,,,,,,,,,,,,,,,
1654.199999988079,,realistic_rating,691977,Delaro Park,,51,Delaro Park,Fictional,3,,,,,,,,,,,,,,,
null,,confidence_buffer,692080,confidence_buffer,,null,,,,,,,,,,,,,,,,,,
1090.5999999940395,,pt2_unique_rating,693173,Delaro Park,,49,,,1,,,,,,,,,,,,,,,
null,,confidence_buffer,693275,confidence_buffer,,null,,,,,,,,,,,,,,,,,,
633.8000000119209,,pt2_memorable_rating,693911,Delaro Park,,50,,,2,,,,,,,,,,,,,,,
null,,confidence_buffer,694015,confidence_buffer,,null,,,,,,,,,,,,,,,,,,
928.7000000178814,,recognition_phase,694947,Delaro Park,,52,,,,,,new,1,0.5517241379310345,,,,,,,,,,
null,,confidence_buffer,695050,confidence_buffer,,null,,,,,,,,,,,,,,,,,,
null,,thebreak,695553,break,,null,,,,,,,,,,,,,,,,,,
1454.9000000059605,,realistic_rating,697010,Solara Glen,,49,Solara Glen,Fictional,1,,,,,,,,,,,,,,,
null,,confidence_buffer,697112,confidence_buffer,,null,,,,,,,,,,,,,,,,,,
652.8000000119209,,pt2_unique_rating,697767,Solara Glen,,50,,,2,,,,,,,,,,,,,,,
null,,confidence_buffer,697870,confidence_buffer,,null,,,,,,,,,,,,,,,,,,
523.4000000059605,,pt2_memorable_rating,698395,Solara Glen,,51,,,3,,,,,,,,,,,,,,,
null,,confidence_buffer,698498,confidence_buffer,,null,,,,,,,,,,,,,,,,,,
1229.5999999940395,,recognition_phase,699731,Solara Glen,,52,,,,,,new,1,0.559322033898305,,,,,,,,,,
null,,confidence_buffer,699834,confidence_buffer,,null,,,,,,,,,,,,,,,,,,
null,,thebreak,700336,break,,null,,,,,,,,,,,,,,,,,,
2343.0999999940395,,realistic_rating,702681,Maplehurst,,49,Maplehurst,Fictional,1,,,,,,,,,,,,,,,
null,,confidence_buffer,702786,confidence_buffer,,null,,,,,,,,,,,,,,,,,,
838.5,,pt2_unique_rating,703627,Maplehurst,,50,,,2,,,,,,,,,,,,,,,
null,,confidence_buffer,703730,confidence_buffer,,null,,,,,,,,,,,,,,,,,,
593.2000000178814,,pt2_memorable_rating,704326,Maplehurst,,51,,,3,,,,,,,,,,,,,,,
null,,confidence_buffer,704429,confidence_buffer,,null,,,,,,,,,,,,,,,,,,
1318.7999999821186,,probe_rating,705750,probe_rating,,50,,,,2,1,,,,,,,,,,,,,
null,,confidence_buffer,705855,confidence_buffer,,null,,,,,,,,,,,,,,,,,,
2016.5999999940395,,recognition_phase,707874,Maplehurst,,52,,,,,,new,0,0.55,,,,,,,,,,
null,,confidence_buffer,707976,confidence_buffer,,null,,,,,,,,,,,,,,,,,,
null,,thebreak,708479,break,,null,,,,,,,,,,,,,,,,,,
,,survey,990341,survey-questions,,,,,,,,,,,none,high,I was very focused and i paid attention to the attention checks,i tried remembering the first three letters of each word,same first three letter words as seen before,i've been here before or if i know the place,has a nice or unique spelling,sounds like a place i've heard before,no i've not,no comment
