rt,responses,trial_type,time_elapsed,stimulus,button_pressed,key_press,name_trial,rating,probe,probe_accuracy,response,correct,accuracy,confidence
5462.899999976158,{worker_id:6063737f1039adcbf6428ac2},id_enter,5465,,,,,,,,,,,
2528.7999999523163,,fullscreen,7996,fullscreen,0,,,,,,,,,
4708,,intro_0,12706,instruct,,32,,,,,,,,
66132.89999997616,,intro_1,78840,instruct,,32,,,,,,,,
2033.6000000238419,,intro_2,80875,instruct,,32,,,,,,,,
null,,instruct_dir_4,82377,instruct,,null,,,,,,,,
null,,thebreak,82879,break,,null,,,,,,,,
3635.3000000715256,,familiar_rating,86515,familiar_rating,,49,Sierra Hollow,1,,,,,,
null,,confidence_buffer,86618,confidence_buffer,,null,,,,,,,,
3095.100000023842,,unique_rating,89714,unique_rating,,49,,1,,,,,,
null,,confidence_buffer,89815,confidence_buffer,,null,,,,,,,,
5292.799999952316,,memorable_rating,95109,memorable_rating,,52,,4,,,,,,
null,,confidence_buffer,95212,confidence_buffer,,null,,,,,,,,
null,,thebreak,95714,break,,null,,,,,,,,
4303.399999976158,,familiar_rating,100018,familiar_rating,,49,Millstone,1,,,,,,
null,,confidence_buffer,100120,confidence_buffer,,null,,,,,,,,
2046.6000000238419,,probe_rating,102168,probe_rating,,52,,,4,1,,,,
null,,confidence_buffer,102270,confidence_buffer,,null,,,,,,,,
2188.3000000715256,,unique_rating,104459,unique_rating,,51,,3,,,,,,
null,,confidence_buffer,104564,confidence_buffer,,null,,,,,,,,
1722.2000000476837,,memorable_rating,106288,memorable_rating,,51,,3,,,,,,
null,,confidence_buffer,106389,confidence_buffer,,null,,,,,,,,
null,,thebreak,106890,break,,null,,,,,,,,
2531.5999999046326,,familiar_rating,109423,familiar_rating,,49,Elmsbury,1,,,,,,
null,,confidence_buffer,109526,confidence_buffer,,null,,,,,,,,
2288.7000000476837,,unique_rating,111815,unique_rating,,51,,3,,,,,,
null,,confidence_buffer,111916,confidence_buffer,,null,,,,,,,,
13973.100000023842,,memorable_rating,125889,memorable_rating,,50,,2,,,,,,
null,,confidence_buffer,125991,confidence_buffer,,null,,,,,,,,
null,,thebreak,126493,break,,null,,,,,,,,
3405,,familiar_rating,129899,familiar_rating,,49,Westridge,1,,,,,,
null,,confidence_buffer,130001,confidence_buffer,,null,,,,,,,,
1753.1000000238419,,unique_rating,131755,unique_rating,,50,,2,,,,,,
null,,confidence_buffer,131857,confidence_buffer,,null,,,,,,,,
1113.5,,memorable_rating,132972,memorable_rating,,50,,2,,,,,,
null,,confidence_buffer,133074,confidence_buffer,,null,,,,,,,,
null,,thebreak,133575,break,,null,,,,,,,,
1866.3999999761581,,familiar_rating,135442,familiar_rating,,49,East Ladera,1,,,,,,
null,,confidence_buffer,135546,confidence_buffer,,null,,,,,,,,
1278.6999999284744,,unique_rating,136825,unique_rating,,53,,5,,,,,,
null,,confidence_buffer,136926,confidence_buffer,,null,,,,,,,,
2357.5,,memorable_rating,139284,memorable_rating,,51,,3,,,,,,
null,,confidence_buffer,139386,confidence_buffer,,null,,,,,,,,
null,,thebreak,139888,break,,null,,,,,,,,
1783.8999999761581,,familiar_rating,141672,familiar_rating,,49,Okoboji,1,,,,,,
null,,confidence_buffer,141773,confidence_buffer,,null,,,,,,,,
1681.8999999761581,,unique_rating,143456,unique_rating,,53,,5,,,,,,
null,,confidence_buffer,143558,confidence_buffer,,null,,,,,,,,
1541.2999999523163,,memorable_rating,145100,memorable_rating,,51,,3,,,,,,
null,,confidence_buffer,145202,confidence_buffer,,null,,,,,,,,
null,,thebreak,145703,break,,null,,,,,,,,
2936.399999976158,,familiar_rating,148641,familiar_rating,,53,Athens,5,,,,,,
null,,confidence_buffer,148742,confidence_buffer,,null,,,,,,,,
1557.5,,unique_rating,150301,unique_rating,,51,,3,,,,,,
null,,confidence_buffer,150404,confidence_buffer,,null,,,,,,,,
1351.8999999761581,,memorable_rating,151757,memorable_rating,,52,,4,,,,,,
null,,confidence_buffer,151859,confidence_buffer,,null,,,,,,,,
null,,thebreak,152360,break,,null,,,,,,,,
1577.2000000476837,,familiar_rating,153938,familiar_rating,,49,Hawthorne Bluffs,1,,,,,,
null,,confidence_buffer,154041,confidence_buffer,,null,,,,,,,,
1045.1999999284744,,unique_rating,155087,unique_rating,,53,,5,,,,,,
null,,confidence_buffer,155188,confidence_buffer,,null,,,,,,,,
830.5,,memorable_rating,156020,memorable_rating,,51,,3,,,,,,
null,,confidence_buffer,156122,confidence_buffer,,null,,,,,,,,
null,,thebreak,156623,break,,null,,,,,,,,
22236.299999952316,,familiar_rating,178861,familiar_rating,,49,Gardnerville,1,,,,,,
null,,confidence_buffer,178962,confidence_buffer,,null,,,,,,,,
1327.7000000476837,,unique_rating,180291,unique_rating,,52,,4,,,,,,
null,,confidence_buffer,180393,confidence_buffer,,null,,,,,,,,
863.7999999523163,,memorable_rating,181258,memorable_rating,,50,,2,,,,,,
null,,confidence_buffer,181359,confidence_buffer,,null,,,,,,,,
null,,thebreak,181861,break,,null,,,,,,,,
3002.5,,familiar_rating,184865,familiar_rating,,51,Bisbee,3,,,,,,
null,,confidence_buffer,184967,confidence_buffer,,null,,,,,,,,
868,,unique_rating,185836,unique_rating,,51,,3,,,,,,
null,,confidence_buffer,185937,confidence_buffer,,null,,,,,,,,
808.1000000238419,,memorable_rating,186747,memorable_rating,,51,,3,,,,,,
null,,confidence_buffer,186848,confidence_buffer,,null,,,,,,,,
null,,thebreak,187350,break,,null,,,,,,,,
1684.3999999761581,,familiar_rating,189035,familiar_rating,,49,Cornwall,1,,,,,,
null,,confidence_buffer,189136,confidence_buffer,,null,,,,,,,,
875.2000000476837,,unique_rating,190012,unique_rating,,50,,2,,,,,,
null,,confidence_buffer,190114,confidence_buffer,,null,,,,,,,,
1281.2000000476837,,memorable_rating,191396,memorable_rating,,50,,2,,,,,,
null,,confidence_buffer,191498,confidence_buffer,,null,,,,,,,,
null,,thebreak,191999,break,,null,,,,,,,,
1331,,familiar_rating,193332,familiar_rating,,49,Rosehollow,1,,,,,,
null,,confidence_buffer,193434,confidence_buffer,,null,,,,,,,,
836.2999999523163,,unique_rating,194271,unique_rating,,52,,4,,,,,,
null,,confidence_buffer,194373,confidence_buffer,,null,,,,,,,,
790.1000000238419,,memorable_rating,195164,memorable_rating,,51,,3,,,,,,
null,,confidence_buffer,195280,confidence_buffer,,null,,,,,,,,
null,,thebreak,195781,break,,null,,,,,,,,
2490.4000000953674,,familiar_rating,198273,familiar_rating,,53,Gloucester,5,,,,,,
null,,confidence_buffer,198374,confidence_buffer,,null,,,,,,,,
729.9000000953674,,unique_rating,199106,unique_rating,,53,,5,,,,,,
null,,confidence_buffer,199208,confidence_buffer,,null,,,,,,,,
360.40000009536743,,memorable_rating,199569,memorable_rating,,53,,5,,,,,,
null,,confidence_buffer,199672,confidence_buffer,,null,,,,,,,,
null,,thebreak,200173,break,,null,,,,,,,,
1434.7000000476837,,familiar_rating,201609,familiar_rating,,49,North Arroya,1,,,,,,
null,,confidence_buffer,201710,confidence_buffer,,null,,,,,,,,
1955,,probe_rating,203666,probe_rating,,53,,,5,1,,,,
null,,confidence_buffer,203767,confidence_buffer,,null,,,,,,,,
2899.899999976158,,unique_rating,206668,unique_rating,,53,,5,,,,,,
null,,confidence_buffer,206770,confidence_buffer,,null,,,,,,,,
983.8999999761581,,memorable_rating,207754,memorable_rating,,51,,3,,,,,,
null,,confidence_buffer,207856,confidence_buffer,,null,,,,,,,,
null,,thebreak,208357,break,,null,,,,,,,,
1819.8000000715256,,familiar_rating,210178,familiar_rating,,49,Barnard,1,,,,,,
null,,confidence_buffer,210285,confidence_buffer,,null,,,,,,,,
576.7999999523163,,unique_rating,210863,unique_rating,,49,,1,,,,,,
null,,confidence_buffer,210965,confidence_buffer,,null,,,,,,,,
551.3000000715256,,memorable_rating,211517,memorable_rating,,49,,1,,,,,,
null,,confidence_buffer,211619,confidence_buffer,,null,,,,,,,,
null,,thebreak,212121,break,,null,,,,,,,,
2046.3999999761581,,familiar_rating,214169,familiar_rating,,49,Berkeley Springs,1,,,,,,
null,,confidence_buffer,214271,confidence_buffer,,null,,,,,,,,
1012.8999999761581,,unique_rating,215285,unique_rating,,53,,5,,,,,,
null,,confidence_buffer,215386,confidence_buffer,,null,,,,,,,,
475.2999999523163,,memorable_rating,215862,memorable_rating,,52,,4,,,,,,
null,,confidence_buffer,215963,confidence_buffer,,null,,,,,,,,
null,,thebreak,216465,break,,null,,,,,,,,
1854.4000000953674,,familiar_rating,218320,familiar_rating,,53,San Antonio,5,,,,,,
null,,confidence_buffer,218422,confidence_buffer,,null,,,,,,,,
1456.7000000476837,,unique_rating,219880,unique_rating,,52,,4,,,,,,
null,,confidence_buffer,219982,confidence_buffer,,null,,,,,,,,
1037.2000000476837,,memorable_rating,221020,memorable_rating,,53,,5,,,,,,
null,,confidence_buffer,221122,confidence_buffer,,null,,,,,,,,
null,,thebreak,221623,break,,null,,,,,,,,
1265.7999999523163,,familiar_rating,222890,familiar_rating,,49,Baymarsh,1,,,,,,
null,,confidence_buffer,222992,confidence_buffer,,null,,,,,,,,
888.7999999523163,,unique_rating,223882,unique_rating,,53,,5,,,,,,
null,,confidence_buffer,223983,confidence_buffer,,null,,,,,,,,
632.2999999523163,,memorable_rating,224617,memorable_rating,,52,,4,,,,,,
null,,confidence_buffer,224718,confidence_buffer,,null,,,,,,,,
null,,thebreak,225220,break,,null,,,,,,,,
1399.7999999523163,,familiar_rating,226620,familiar_rating,,49,Duck,1,,,,,,
null,,confidence_buffer,226722,confidence_buffer,,null,,,,,,,,
1233.6000000238419,,unique_rating,227957,unique_rating,,49,,1,,,,,,
null,,confidence_buffer,228058,confidence_buffer,,null,,,,,,,,
1318.1999999284744,,memorable_rating,229377,memorable_rating,,50,,2,,,,,,
null,,confidence_buffer,229478,confidence_buffer,,null,,,,,,,,
null,,thebreak,229980,break,,null,,,,,,,,
1858.1999999284744,,familiar_rating,231840,familiar_rating,,53,Bowling Green,5,,,,,,
null,,confidence_buffer,231942,confidence_buffer,,null,,,,,,,,
1722.5,,unique_rating,233666,unique_rating,,51,,3,,,,,,
null,,confidence_buffer,233767,confidence_buffer,,null,,,,,,,,
412.89999997615814,,memorable_rating,234181,memorable_rating,,51,,3,,,,,,
null,,confidence_buffer,234282,confidence_buffer,,null,,,,,,,,
null,,thebreak,234783,break,,null,,,,,,,,
1557.2999999523163,,familiar_rating,236341,familiar_rating,,49,Montelake,1,,,,,,
null,,confidence_buffer,236452,confidence_buffer,,null,,,,,,,,
547.2999999523163,,unique_rating,237001,unique_rating,,53,,5,,,,,,
null,,confidence_buffer,237102,confidence_buffer,,null,,,,,,,,
905.6000000238419,,memorable_rating,238008,memorable_rating,,51,,3,,,,,,
null,,confidence_buffer,238110,confidence_buffer,,null,,,,,,,,
null,,thebreak,238612,break,,null,,,,,,,,
1537.3000000715256,,familiar_rating,240150,familiar_rating,,49,Hollendale,1,,,,,,
null,,confidence_buffer,240251,confidence_buffer,,null,,,,,,,,
687.6999999284744,,unique_rating,240940,unique_rating,,53,,5,,,,,,
null,,confidence_buffer,241041,confidence_buffer,,null,,,,,,,,
269.60000002384186,,memorable_rating,241312,memorable_rating,,53,,5,,,,,,
null,,confidence_buffer,241413,confidence_buffer,,null,,,,,,,,
null,,thebreak,241914,break,,null,,,,,,,,
1981.3000000715256,,familiar_rating,243896,familiar_rating,,49,Maplehurst,1,,,,,,
null,,confidence_buffer,243998,confidence_buffer,,null,,,,,,,,
412.89999997615814,,unique_rating,244412,unique_rating,,51,,3,,,,,,
null,,confidence_buffer,244513,confidence_buffer,,null,,,,,,,,
177.10000002384186,,memorable_rating,244692,memorable_rating,,51,,3,,,,,,
null,,confidence_buffer,244794,confidence_buffer,,null,,,,,,,,
null,,thebreak,245296,break,,null,,,,,,,,
1495.5,,familiar_rating,246792,familiar_rating,,49,Granton Ridge,1,,,,,,
null,,confidence_buffer,246893,confidence_buffer,,null,,,,,,,,
1218.8999999761581,,unique_rating,248113,unique_rating,,53,,5,,,,,,
null,,confidence_buffer,248214,confidence_buffer,,null,,,,,,,,
1572.6999999284744,,memorable_rating,249788,memorable_rating,,52,,4,,,,,,
null,,confidence_buffer,249890,confidence_buffer,,null,,,,,,,,
null,,thebreak,250392,break,,null,,,,,,,,
1565,,familiar_rating,251958,familiar_rating,,49,Medora,1,,,,,,
null,,confidence_buffer,252059,confidence_buffer,,null,,,,,,,,
512.5,,unique_rating,252573,unique_rating,,52,,4,,,,,,
null,,confidence_buffer,252674,confidence_buffer,,null,,,,,,,,
716,,memorable_rating,253391,memorable_rating,,51,,3,,,,,,
null,,confidence_buffer,253493,confidence_buffer,,null,,,,,,,,
null,,thebreak,253993,break,,null,,,,,,,,
1656.3999999761581,,familiar_rating,255651,familiar_rating,,49,Northbridge,1,,,,,,
null,,confidence_buffer,255753,confidence_buffer,,null,,,,,,,,
887.7999999523163,,unique_rating,256643,unique_rating,,49,,1,,,,,,
null,,confidence_buffer,256744,confidence_buffer,,null,,,,,,,,
899.2000000476837,,memorable_rating,257644,memorable_rating,,50,,2,,,,,,
null,,confidence_buffer,257745,confidence_buffer,,null,,,,,,,,
1186.7999999523163,,probe_rating,258932,probe_rating,,49,,,1,1,,,,
null,,confidence_buffer,259033,confidence_buffer,,null,,,,,,,,
null,,thebreak,259535,break,,null,,,,,,,,
8947.299999952316,,familiar_rating,268484,familiar_rating,,49,Sammamish,1,,,,,,
null,,confidence_buffer,268585,confidence_buffer,,null,,,,,,,,
1093,,unique_rating,269679,unique_rating,,53,,5,,,,,,
null,,confidence_buffer,269782,confidence_buffer,,null,,,,,,,,
397,,memorable_rating,270180,memorable_rating,,51,,3,,,,,,
null,,confidence_buffer,270282,confidence_buffer,,null,,,,,,,,
null,,thebreak,270783,break,,null,,,,,,,,
3011.100000023842,,familiar_rating,273795,familiar_rating,,51,Yukon,3,,,,,,
null,,confidence_buffer,273897,confidence_buffer,,null,,,,,,,,
1315.7999999523163,,unique_rating,275214,unique_rating,,51,,3,,,,,,
null,,confidence_buffer,275315,confidence_buffer,,null,,,,,,,,
445.2000000476837,,memorable_rating,275761,memorable_rating,,51,,3,,,,,,
null,,confidence_buffer,275863,confidence_buffer,,null,,,,,,,,
null,,thebreak,276364,break,,null,,,,,,,,
1018,,familiar_rating,277383,familiar_rating,,49,Manistee,1,,,,,,
null,,confidence_buffer,277484,confidence_buffer,,null,,,,,,,,
477.5,,unique_rating,277963,unique_rating,,53,,5,,,,,,
null,,confidence_buffer,278064,confidence_buffer,,null,,,,,,,,
751.2000000476837,,memorable_rating,278816,memorable_rating,,51,,3,,,,,,
null,,confidence_buffer,278918,confidence_buffer,,null,,,,,,,,
null,,thebreak,279419,break,,null,,,,,,,,
1336.2000000476837,,familiar_rating,280757,familiar_rating,,49,Delaro Park,1,,,,,,
null,,confidence_buffer,280858,confidence_buffer,,null,,,,,,,,
552.7999999523163,,unique_rating,281412,unique_rating,,53,,5,,,,,,
null,,confidence_buffer,281513,confidence_buffer,,null,,,,,,,,
1464.6000000238419,,memorable_rating,282979,memorable_rating,,52,,4,,,,,,
null,,confidence_buffer,283081,confidence_buffer,,null,,,,,,,,
null,,thebreak,283582,break,,null,,,,,,,,
3107,,intro_0,286690,instruct,,32,,,,,,,,
5237.199999928474,,intro_1,291928,instruct,,32,,,,,,,,
5066.300000071526,,intro_2,296995,instruct,,32,,,,,,,,
null,,instruct_dir_4,298496,instruct,,null,,,,,,,,
6122.799999952316,,realistic_rating,304620,realistic_rating,,50,Bar Harbor,2,,,,,,
null,,confidence_buffer,304722,confidence_buffer,,null,,,,,,,,
2800.1999999284744,,pt2_unique_rating,307524,pt2_unique_rating,,51,,3,,,,,,
null,,confidence_buffer,307625,confidence_buffer,,null,,,,,,,,
1146.7000000476837,,pt2_memorable_rating,308773,pt2_memorable_rating,,51,,3,,,,,,
null,,confidence_buffer,308875,confidence_buffer,,null,,,,,,,,
3506.600000023842,,recognition_phase,312383,recognition_phase,,49,,,,,old,0,0,
null,,confidence_buffer,312485,confidence_buffer,,null,,,,,,,,
1610.5,,confidence,314096,confidence,,50,,,,,,,,2
null,,confidence_buffer,314197,confidence_buffer,,null,,,,,,,,
null,,thebreak,314698,break,,null,,,,,,,,
3209.600000023842,,realistic_rating,317909,realistic_rating,,50,Duck,2,,,,,,
null,,confidence_buffer,318010,confidence_buffer,,null,,,,,,,,
1873.4000000953674,,pt2_unique_rating,319884,pt2_unique_rating,,51,,3,,,,,,
null,,confidence_buffer,319986,confidence_buffer,,null,,,,,,,,
1359.3999999761581,,pt2_memorable_rating,321347,pt2_memorable_rating,,51,,3,,,,,,
null,,confidence_buffer,321448,confidence_buffer,,null,,,,,,,,
1979.2999999523163,,recognition_phase,323429,recognition_phase,,49,,,,,old,1,0.5,
null,,confidence_buffer,323531,confidence_buffer,,null,,,,,,,,
2261.899999976158,,confidence,325794,confidence,,52,,,,,,,,4
null,,confidence_buffer,325894,confidence_buffer,,null,,,,,,,,
null,,thebreak,326396,break,,null,,,,,,,,
3376.100000023842,,realistic_rating,329773,realistic_rating,,53,Sierra Hollow,5,,,,,,
null,,confidence_buffer,329874,confidence_buffer,,null,,,,,,,,
1401.6000000238419,,pt2_unique_rating,331277,pt2_unique_rating,,53,,5,,,,,,
null,,confidence_buffer,331393,confidence_buffer,,null,,,,,,,,
1693.3999999761581,,pt2_memorable_rating,333088,pt2_memorable_rating,,51,,3,,,,,,
null,,confidence_buffer,333189,confidence_buffer,,null,,,,,,,,
1825.7999999523163,,recognition_phase,335016,recognition_phase,,49,,,,,old,1,0.6666666666666666,
null,,confidence_buffer,335119,confidence_buffer,,null,,,,,,,,
1630.5,,confidence,336750,confidence,,52,,,,,,,,4
null,,confidence_buffer,336852,confidence_buffer,,null,,,,,,,,
null,,thebreak,337353,break,,null,,,,,,,,
1988.9000000953674,,realistic_rating,339343,realistic_rating,,52,Ironwood Heights,4,,,,,,
null,,confidence_buffer,339445,confidence_buffer,,null,,,,,,,,
1460.2000000476837,,pt2_unique_rating,340907,pt2_unique_rating,,52,,4,,,,,,
null,,confidence_buffer,341010,confidence_buffer,,null,,,,,,,,
697,,pt2_memorable_rating,341708,pt2_memorable_rating,,51,,3,,,,,,
null,,confidence_buffer,341809,confidence_buffer,,null,,,,,,,,
2256.399999976158,,recognition_phase,344066,recognition_phase,,50,,,,,new,1,0.75,
null,,confidence_buffer,344168,confidence_buffer,,null,,,,,,,,
1489.8999999761581,,confidence,345659,confidence,,52,,,,,,,,4
null,,confidence_buffer,345760,confidence_buffer,,null,,,,,,,,
null,,thebreak,346262,break,,null,,,,,,,,
2453,,realistic_rating,348717,realistic_rating,,53,Westridge,5,,,,,,
null,,confidence_buffer,348819,confidence_buffer,,null,,,,,,,,
1299.3999999761581,,pt2_unique_rating,350119,pt2_unique_rating,,51,,3,,,,,,
null,,confidence_buffer,350221,confidence_buffer,,null,,,,,,,,
1068.8000000715256,,pt2_memorable_rating,351290,pt2_memorable_rating,,51,,3,,,,,,
null,,confidence_buffer,351392,confidence_buffer,,null,,,,,,,,
1627.8999999761581,,recognition_phase,353021,recognition_phase,,49,,,,,old,1,0.8,
null,,confidence_buffer,353123,confidence_buffer,,null,,,,,,,,
1842.8000000715256,,confidence,354966,confidence,,52,,,,,,,,4
null,,confidence_buffer,355068,confidence_buffer,,null,,,,,,,,
null,,thebreak,355569,break,,null,,,,,,,,
4399.700000047684,,realistic_rating,359970,realistic_rating,,52,Solara Glen,4,,,,,,
null,,confidence_buffer,360072,confidence_buffer,,null,,,,,,,,
1113.6000000238419,,pt2_unique_rating,361187,pt2_unique_rating,,52,,4,,,,,,
null,,confidence_buffer,361288,confidence_buffer,,null,,,,,,,,
1482.5,,pt2_memorable_rating,362772,pt2_memorable_rating,,52,,4,,,,,,
null,,confidence_buffer,362874,confidence_buffer,,null,,,,,,,,
2727.7999999523163,,recognition_phase,365603,recognition_phase,,50,,,,,new,1,0.8333333333333334,
null,,confidence_buffer,365705,confidence_buffer,,null,,,,,,,,
1221.8999999761581,,confidence,366928,confidence,,49,,,,,,,,1
null,,confidence_buffer,367029,confidence_buffer,,null,,,,,,,,
null,,thebreak,367531,break,,null,,,,,,,,
3051,,realistic_rating,370583,realistic_rating,,53,Gardnerville,5,,,,,,
null,,confidence_buffer,370686,confidence_buffer,,null,,,,,,,,
2035.1000000238419,,pt2_unique_rating,372722,pt2_unique_rating,,51,,3,,,,,,
null,,confidence_buffer,372823,confidence_buffer,,null,,,,,,,,
2285.2000000476837,,pt2_memorable_rating,375110,pt2_memorable_rating,,51,,3,,,,,,
null,,confidence_buffer,375212,confidence_buffer,,null,,,,,,,,
1469.7000000476837,,recognition_phase,376683,recognition_phase,,49,,,,,old,1,0.8571428571428571,
null,,confidence_buffer,376785,confidence_buffer,,null,,,,,,,,
557.3999999761581,,confidence,377343,confidence,,49,,,,,,,,1
null,,confidence_buffer,377445,confidence_buffer,,null,,,,,,,,
null,,thebreak,377947,break,,null,,,,,,,,
2297.600000023842,,realistic_rating,380245,realistic_rating,,53,Gloucester,5,,,,,,
null,,confidence_buffer,380347,confidence_buffer,,null,,,,,,,,
717.6000000238419,,pt2_unique_rating,381065,pt2_unique_rating,,53,,5,,,,,,
null,,confidence_buffer,381167,confidence_buffer,,null,,,,,,,,
729.3000000715256,,pt2_memorable_rating,381897,pt2_memorable_rating,,53,,5,,,,,,
null,,confidence_buffer,381999,confidence_buffer,,null,,,,,,,,
1686.6000000238419,,recognition_phase,383686,recognition_phase,,49,,,,,old,1,0.875,
null,,confidence_buffer,383787,confidence_buffer,,null,,,,,,,,
1427.3000000715256,,confidence,385216,confidence,,52,,,,,,,,4
null,,confidence_buffer,385317,confidence_buffer,,null,,,,,,,,
null,,thebreak,385819,break,,null,,,,,,,,
2299.600000023842,,realistic_rating,388119,realistic_rating,,49,Alliance,1,,,,,,
null,,confidence_buffer,388221,confidence_buffer,,null,,,,,,,,
1519.3999999761581,,pt2_unique_rating,389742,pt2_unique_rating,,50,,2,,,,,,
null,,confidence_buffer,389844,confidence_buffer,,null,,,,,,,,
1515.1999999284744,,pt2_memorable_rating,391360,pt2_memorable_rating,,50,,2,,,,,,
null,,confidence_buffer,391462,confidence_buffer,,null,,,,,,,,
1826.6000000238419,,recognition_phase,393290,recognition_phase,,50,,,,,new,1,0.8888888888888888,
null,,confidence_buffer,393391,confidence_buffer,,null,,,,,,,,
1231.3000000715256,,confidence,394623,confidence,,52,,,,,,,,4
null,,confidence_buffer,394725,confidence_buffer,,null,,,,,,,,
null,,thebreak,395226,break,,null,,,,,,,,
2764.7999999523163,,realistic_rating,397993,realistic_rating,,53,Cape May,5,,,,,,
null,,confidence_buffer,398094,confidence_buffer,,null,,,,,,,,
1398.5,,pt2_unique_rating,399493,pt2_unique_rating,,52,,4,,,,,,
null,,confidence_buffer,399595,confidence_buffer,,null,,,,,,,,
1077.8999999761581,,pt2_memorable_rating,400674,pt2_memorable_rating,,52,,4,,,,,,
null,,confidence_buffer,400776,confidence_buffer,,null,,,,,,,,
1843.6999999284744,,recognition_phase,402621,recognition_phase,,50,,,,,new,1,0.9,
null,,confidence_buffer,402723,confidence_buffer,,null,,,,,,,,
1066.6000000238419,,confidence,403790,confidence,,52,,,,,,,,4
null,,confidence_buffer,403892,confidence_buffer,,null,,,,,,,,
null,,thebreak,404402,break,,null,,,,,,,,
2577.6999999284744,,realistic_rating,406981,realistic_rating,,53,Hawthorne Bluffs,5,,,,,,
null,,confidence_buffer,407088,confidence_buffer,,null,,,,,,,,
461.60000002384186,,pt2_unique_rating,407551,pt2_unique_rating,,53,,5,,,,,,
null,,confidence_buffer,407653,confidence_buffer,,null,,,,,,,,
903.5,,pt2_memorable_rating,408558,pt2_memorable_rating,,52,,4,,,,,,
null,,confidence_buffer,408667,confidence_buffer,,null,,,,,,,,
1683.3999999761581,,recognition_phase,410351,recognition_phase,,49,,,,,old,1,0.9090909090909091,
null,,confidence_buffer,410452,confidence_buffer,,null,,,,,,,,
903,,confidence,411357,confidence,,52,,,,,,,,4
null,,confidence_buffer,411457,confidence_buffer,,null,,,,,,,,
null,,thebreak,411959,break,,null,,,,,,,,
2172.3000000715256,,realistic_rating,414133,realistic_rating,,52,Riverlyn,4,,,,,,
null,,confidence_buffer,414235,confidence_buffer,,null,,,,,,,,
2421.899999976158,,probe_rating,416658,probe_rating,,51,,,3,1,,,,
null,,confidence_buffer,416760,confidence_buffer,,null,,,,,,,,
3175,,pt2_unique_rating,419936,pt2_unique_rating,,52,,4,,,,,,
null,,confidence_buffer,420037,confidence_buffer,,null,,,,,,,,
1388.9000000953674,,pt2_memorable_rating,421427,pt2_memorable_rating,,52,,4,,,,,,
null,,confidence_buffer,421529,confidence_buffer,,null,,,,,,,,
1929.2999999523163,,recognition_phase,423459,recognition_phase,,50,,,,,new,1,0.9166666666666666,
null,,confidence_buffer,423560,confidence_buffer,,null,,,,,,,,
1221,,confidence,424782,confidence,,52,,,,,,,,4
null,,confidence_buffer,424883,confidence_buffer,,null,,,,,,,,
null,,thebreak,425384,break,,null,,,,,,,,
3316.1999999284744,,realistic_rating,428701,realistic_rating,,52,Hanover,4,,,,,,
null,,confidence_buffer,428804,confidence_buffer,,null,,,,,,,,
1993.7999999523163,,pt2_unique_rating,430799,pt2_unique_rating,,50,,2,,,,,,
null,,confidence_buffer,430900,confidence_buffer,,null,,,,,,,,
1203.2000000476837,,pt2_memorable_rating,432104,pt2_memorable_rating,,50,,2,,,,,,
null,,confidence_buffer,432205,confidence_buffer,,null,,,,,,,,
3097,,recognition_phase,435303,recognition_phase,,50,,,,,new,1,0.9230769230769231,
null,,confidence_buffer,435405,confidence_buffer,,null,,,,,,,,
781.6999999284744,,confidence,436187,confidence,,50,,,,,,,,2
null,,confidence_buffer,436289,confidence_buffer,,null,,,,,,,,
null,,thebreak,436790,break,,null,,,,,,,,
1841.5,,realistic_rating,438633,realistic_rating,,52,Assateague Island,4,,,,,,
null,,confidence_buffer,438735,confidence_buffer,,null,,,,,,,,
872.3000000715256,,pt2_unique_rating,439608,pt2_unique_rating,,52,,4,,,,,,
null,,confidence_buffer,439710,confidence_buffer,,null,,,,,,,,
1000.6000000238419,,pt2_memorable_rating,440712,pt2_memorable_rating,,52,,4,,,,,,
null,,confidence_buffer,440813,confidence_buffer,,null,,,,,,,,
2914.100000023842,,recognition_phase,443728,recognition_phase,,50,,,,,new,1,0.9285714285714286,
null,,confidence_buffer,443830,confidence_buffer,,null,,,,,,,,
1616.6000000238419,,confidence,445447,confidence,,52,,,,,,,,4
null,,confidence_buffer,445548,confidence_buffer,,null,,,,,,,,
null,,thebreak,446050,break,,null,,,,,,,,
2225.7999999523163,,realistic_rating,448277,realistic_rating,,50,Sammamish,2,,,,,,
null,,confidence_buffer,448378,confidence_buffer,,null,,,,,,,,
1313.8000000715256,,pt2_unique_rating,449693,pt2_unique_rating,,52,,4,,,,,,
null,,confidence_buffer,449795,confidence_buffer,,null,,,,,,,,
1372.5,,probe_rating,451169,probe_rating,,49,,,1,1,,,,
null,,confidence_buffer,451270,confidence_buffer,,null,,,,,,,,
1937.6000000238419,,pt2_memorable_rating,453208,pt2_memorable_rating,,49,,1,,,,,,
null,,confidence_buffer,453309,confidence_buffer,,null,,,,,,,,
1851.7999999523163,,recognition_phase,455162,recognition_phase,,50,,,,,new,0,0.8666666666666667,
null,,confidence_buffer,455263,confidence_buffer,,null,,,,,,,,
1056.8999999761581,,confidence,456321,confidence,,51,,,,,,,,3
null,,confidence_buffer,456422,confidence_buffer,,null,,,,,,,,
null,,thebreak,456923,break,,null,,,,,,,,
4302.5,,realistic_rating,461226,realistic_rating,,52,Medora,4,,,,,,
null,,confidence_buffer,461328,confidence_buffer,,null,,,,,,,,
2040.9000000953674,,pt2_unique_rating,463370,pt2_unique_rating,,52,,4,,,,,,
null,,confidence_buffer,463472,confidence_buffer,,null,,,,,,,,
2065.2000000476837,,pt2_memorable_rating,465538,pt2_memorable_rating,,50,,2,,,,,,
null,,confidence_buffer,465640,confidence_buffer,,null,,,,,,,,
1781.2000000476837,,recognition_phase,467422,recognition_phase,,49,,,,,old,1,0.875,
null,,confidence_buffer,467524,confidence_buffer,,null,,,,,,,,
926.6000000238419,,confidence,468452,confidence,,50,,,,,,,,2
null,,confidence_buffer,468553,confidence_buffer,,null,,,,,,,,
null,,thebreak,469055,break,,null,,,,,,,,
1952.1000000238419,,realistic_rating,471008,realistic_rating,,52,Fairhaven,4,,,,,,
null,,confidence_buffer,471110,confidence_buffer,,null,,,,,,,,
1167.7999999523163,,pt2_unique_rating,472279,pt2_unique_rating,,51,,3,,,,,,
null,,confidence_buffer,472381,confidence_buffer,,null,,,,,,,,
1273.7999999523163,,pt2_memorable_rating,473657,pt2_memorable_rating,,50,,2,,,,,,
null,,confidence_buffer,473758,confidence_buffer,,null,,,,,,,,
1216.6000000238419,,probe_rating,474977,probe_rating,,53,,,5,1,,,,
null,,confidence_buffer,475078,confidence_buffer,,null,,,,,,,,
5157.800000071526,,recognition_phase,480237,recognition_phase,,49,,,,,old,0,0.8235294117647058,
null,,confidence_buffer,480339,confidence_buffer,,null,,,,,,,,
1632.5,,confidence,481972,confidence,,52,,,,,,,,4
null,,confidence_buffer,482074,confidence_buffer,,null,,,,,,,,
null,,thebreak,482576,break,,null,,,,,,,,
2100.600000023842,,realistic_rating,484677,realistic_rating,,53,Driftwood Bay,5,,,,,,
null,,confidence_buffer,484779,confidence_buffer,,null,,,,,,,,
1183.5,,pt2_unique_rating,485964,pt2_unique_rating,,53,,5,,,,,,
null,,confidence_buffer,486065,confidence_buffer,,null,,,,,,,,
1266.2000000476837,,pt2_memorable_rating,487332,pt2_memorable_rating,,52,,4,,,,,,
null,,confidence_buffer,487435,confidence_buffer,,null,,,,,,,,
1871.5,,recognition_phase,489308,recognition_phase,,50,,,,,new,1,0.8333333333333334,
null,,confidence_buffer,489408,confidence_buffer,,null,,,,,,,,
1153.2999999523163,,confidence,490563,confidence,,52,,,,,,,,4
null,,confidence_buffer,490664,confidence_buffer,,null,,,,,,,,
null,,thebreak,491166,break,,null,,,,,,,,
2117.899999976158,,realistic_rating,493284,realistic_rating,,53,San Antonio,5,,,,,,
null,,confidence_buffer,493386,confidence_buffer,,null,,,,,,,,
3207.5,,pt2_unique_rating,496595,pt2_unique_rating,,52,,4,,,,,,
null,,confidence_buffer,496696,confidence_buffer,,null,,,,,,,,
991.7000000476837,,pt2_memorable_rating,497689,pt2_memorable_rating,,52,,4,,,,,,
null,,confidence_buffer,497791,confidence_buffer,,null,,,,,,,,
1376.2000000476837,,recognition_phase,499169,recognition_phase,,49,,,,,old,1,0.8421052631578947,
null,,confidence_buffer,499271,confidence_buffer,,null,,,,,,,,
1564.2000000476837,,confidence,500836,confidence,,52,,,,,,,,4
null,,confidence_buffer,500937,confidence_buffer,,null,,,,,,,,
null,,thebreak,501439,break,,null,,,,,,,,
2875.899999976158,,realistic_rating,504316,realistic_rating,,53,Park City,5,,,,,,
null,,confidence_buffer,504418,confidence_buffer,,null,,,,,,,,
992.9000000953674,,probe_rating,505412,probe_rating,,53,,,5,1,,,,
null,,confidence_buffer,505514,confidence_buffer,,null,,,,,,,,
1764.8999999761581,,pt2_unique_rating,507281,pt2_unique_rating,,52,,4,,,,,,
null,,confidence_buffer,507382,confidence_buffer,,null,,,,,,,,
1228,,pt2_memorable_rating,508611,pt2_memorable_rating,,52,,4,,,,,,
null,,confidence_buffer,508713,confidence_buffer,,null,,,,,,,,
1817.6000000238419,,recognition_phase,510532,recognition_phase,,50,,,,,new,1,0.85,
null,,confidence_buffer,510633,confidence_buffer,,null,,,,,,,,
960.3000000715256,,confidence,511594,confidence,,52,,,,,,,,4
null,,confidence_buffer,511696,confidence_buffer,,null,,,,,,,,
null,,thebreak,512197,break,,null,,,,,,,,
3687.2000000476837,,realistic_rating,515885,realistic_rating,,50,Baymarsh,2,,,,,,
null,,confidence_buffer,515988,confidence_buffer,,null,,,,,,,,
3167.2000000476837,,pt2_unique_rating,519156,pt2_unique_rating,,52,,4,,,,,,
null,,confidence_buffer,519259,confidence_buffer,,null,,,,,,,,
1048,,pt2_memorable_rating,520308,pt2_memorable_rating,,52,,4,,,,,,
null,,confidence_buffer,520409,confidence_buffer,,null,,,,,,,,
1722.8999999761581,,recognition_phase,522133,recognition_phase,,49,,,,,old,1,0.8571428571428571,
null,,confidence_buffer,522234,confidence_buffer,,null,,,,,,,,
950,,confidence,523185,confidence,,50,,,,,,,,2
null,,confidence_buffer,523294,confidence_buffer,,null,,,,,,,,
null,,thebreak,523796,break,,null,,,,,,,,
3015.2999999523163,,realistic_rating,526813,realistic_rating,,52,Ravenport,4,,,,,,
null,,confidence_buffer,526915,confidence_buffer,,null,,,,,,,,
1095.1999999284744,,pt2_unique_rating,528011,pt2_unique_rating,,51,,3,,,,,,
null,,confidence_buffer,528113,confidence_buffer,,null,,,,,,,,
819.2999999523163,,pt2_memorable_rating,528933,pt2_memorable_rating,,51,,3,,,,,,
null,,confidence_buffer,529035,confidence_buffer,,null,,,,,,,,
2286,,recognition_phase,531322,recognition_phase,,50,,,,,new,1,0.8636363636363636,
null,,confidence_buffer,531424,confidence_buffer,,null,,,,,,,,
1483.7999999523163,,confidence,532909,confidence,,50,,,,,,,,2
null,,confidence_buffer,533011,confidence_buffer,,null,,,,,,,,
null,,thebreak,533512,break,,null,,,,,,,,
2195.1999999284744,,realistic_rating,535708,realistic_rating,,51,Healdsburg,3,,,,,,
null,,confidence_buffer,535809,confidence_buffer,,null,,,,,,,,
1821.8999999761581,,pt2_unique_rating,537632,pt2_unique_rating,,53,,5,,,,,,
null,,confidence_buffer,537734,confidence_buffer,,null,,,,,,,,
1299.2999999523163,,pt2_memorable_rating,539034,pt2_memorable_rating,,51,,3,,,,,,
null,,confidence_buffer,539135,confidence_buffer,,null,,,,,,,,
1823,,recognition_phase,540960,recognition_phase,,50,,,,,new,1,0.8695652173913043,
null,,confidence_buffer,541061,confidence_buffer,,null,,,,,,,,
1064.7999999523163,,confidence,542128,confidence,,52,,,,,,,,4
null,,confidence_buffer,542229,confidence_buffer,,null,,,,,,,,
null,,thebreak,542731,break,,null,,,,,,,,
3433.8000000715256,,realistic_rating,546166,realistic_rating,,53,Cleveland,5,,,,,,
null,,confidence_buffer,546269,confidence_buffer,,null,,,,,,,,
1569.4000000953674,,pt2_unique_rating,547839,pt2_unique_rating,,52,,4,,,,,,
null,,confidence_buffer,547940,confidence_buffer,,null,,,,,,,,
1272.1000000238419,,pt2_memorable_rating,549213,pt2_memorable_rating,,53,,5,,,,,,
null,,confidence_buffer,549315,confidence_buffer,,null,,,,,,,,
1241.7999999523163,,probe_rating,550558,probe_rating,,51,,,3,1,,,,
null,,confidence_buffer,550660,confidence_buffer,,null,,,,,,,,
1815.8999999761581,,recognition_phase,552477,recognition_phase,,50,,,,,new,1,0.875,
null,,confidence_buffer,552579,confidence_buffer,,null,,,,,,,,
937.3999999761581,,confidence,553518,confidence,,52,,,,,,,,4
null,,confidence_buffer,553618,confidence_buffer,,null,,,,,,,,
null,,thebreak,554121,break,,null,,,,,,,,
1640,,realistic_rating,555762,realistic_rating,,53,Clearbrook,5,,,,,,
null,,confidence_buffer,555863,confidence_buffer,,null,,,,,,,,
1980.3000000715256,,pt2_unique_rating,557844,pt2_unique_rating,,52,,4,,,,,,
null,,confidence_buffer,557945,confidence_buffer,,null,,,,,,,,
977.1999999284744,,pt2_memorable_rating,558923,pt2_memorable_rating,,52,,4,,,,,,
null,,confidence_buffer,559025,confidence_buffer,,null,,,,,,,,
1800.1000000238419,,recognition_phase,560825,recognition_phase,,50,,,,,new,1,0.88,
null,,confidence_buffer,560926,confidence_buffer,,null,,,,,,,,
1415,,confidence,562342,confidence,,52,,,,,,,,4
null,,confidence_buffer,562444,confidence_buffer,,null,,,,,,,,
null,,thebreak,562946,break,,null,,,,,,,,
3785.6999999284744,,realistic_rating,566733,realistic_rating,,51,Barnard,3,,,,,,
null,,confidence_buffer,566834,confidence_buffer,,null,,,,,,,,
941.4000000953674,,probe_rating,567776,probe_rating,,51,,,3,1,,,,
null,,confidence_buffer,567877,confidence_buffer,,null,,,,,,,,
1219.6000000238419,,pt2_unique_rating,569098,pt2_unique_rating,,51,,3,,,,,,
null,,confidence_buffer,569199,confidence_buffer,,null,,,,,,,,
1261.2999999523163,,pt2_memorable_rating,570462,pt2_memorable_rating,,50,,2,,,,,,
null,,confidence_buffer,570563,confidence_buffer,,null,,,,,,,,
2233.399999976158,,recognition_phase,572797,recognition_phase,,49,,,,,old,1,0.8846153846153846,
null,,confidence_buffer,572898,confidence_buffer,,null,,,,,,,,
1024.4000000953674,,confidence,573923,confidence,,52,,,,,,,,4
null,,confidence_buffer,574024,confidence_buffer,,null,,,,,,,,
null,,thebreak,574527,break,,null,,,,,,,,
2654.0999999046326,,realistic_rating,577182,realistic_rating,,53,Okoboji,5,,,,,,
null,,confidence_buffer,577283,confidence_buffer,,null,,,,,,,,
1075.8000000715256,,pt2_unique_rating,578360,pt2_unique_rating,,53,,5,,,,,,
null,,confidence_buffer,578462,confidence_buffer,,null,,,,,,,,
1107.3999999761581,,pt2_memorable_rating,579570,pt2_memorable_rating,,53,,5,,,,,,
null,,confidence_buffer,579672,confidence_buffer,,null,,,,,,,,
1906,,recognition_phase,581579,recognition_phase,,50,,,,,new,0,0.8518518518518519,
null,,confidence_buffer,581681,confidence_buffer,,null,,,,,,,,
1042.8999999761581,,confidence,582725,confidence,,51,,,,,,,,3
null,,confidence_buffer,582826,confidence_buffer,,null,,,,,,,,
null,,thebreak,583328,break,,null,,,,,,,,
2228.9000000953674,,realistic_rating,585559,realistic_rating,,52,Manistee,4,,,,,,
null,,confidence_buffer,585661,confidence_buffer,,null,,,,,,,,
1381.6000000238419,,pt2_unique_rating,587043,pt2_unique_rating,,52,,4,,,,,,
null,,confidence_buffer,587145,confidence_buffer,,null,,,,,,,,
526.8000000715256,,pt2_memorable_rating,587673,pt2_memorable_rating,,51,,3,,,,,,
null,,confidence_buffer,587774,confidence_buffer,,null,,,,,,,,
2200,,recognition_phase,589975,recognition_phase,,49,,,,,old,1,0.8571428571428571,
null,,confidence_buffer,590077,confidence_buffer,,null,,,,,,,,
1003.6000000238419,,confidence,591082,confidence,,50,,,,,,,,2
null,,confidence_buffer,591183,confidence_buffer,,null,,,,,,,,
null,,thebreak,591684,break,,null,,,,,,,,
1381.8999999761581,,realistic_rating,593067,realistic_rating,,52,Natchez,4,,,,,,
null,,confidence_buffer,593168,confidence_buffer,,null,,,,,,,,
1709.2999999523163,,pt2_unique_rating,594879,pt2_unique_rating,,52,,4,,,,,,
null,,confidence_buffer,594981,confidence_buffer,,null,,,,,,,,
1046.1000000238419,,pt2_memorable_rating,596028,pt2_memorable_rating,,51,,3,,,,,,
null,,confidence_buffer,596139,confidence_buffer,,null,,,,,,,,
1461.5999999046326,,recognition_phase,597602,recognition_phase,,50,,,,,new,1,0.8620689655172413,
null,,confidence_buffer,597704,confidence_buffer,,null,,,,,,,,
1070,,confidence,598775,confidence,,50,,,,,,,,2
null,,confidence_buffer,598877,confidence_buffer,,null,,,,,,,,
null,,thebreak,599378,break,,null,,,,,,,,
1835.7000000476837,,realistic_rating,601215,realistic_rating,,51,Linden Trace,3,,,,,,
null,,confidence_buffer,601316,confidence_buffer,,null,,,,,,,,
915.2000000476837,,pt2_unique_rating,602232,pt2_unique_rating,,51,,3,,,,,,
null,,confidence_buffer,602334,confidence_buffer,,null,,,,,,,,
1151.6000000238419,,pt2_memorable_rating,603487,pt2_memorable_rating,,50,,2,,,,,,
null,,confidence_buffer,603588,confidence_buffer,,null,,,,,,,,
1671.5,,recognition_phase,605261,recognition_phase,,50,,,,,new,1,0.8666666666666667,
null,,confidence_buffer,605362,confidence_buffer,,null,,,,,,,,
846.3000000715256,,confidence,606210,confidence,,52,,,,,,,,4
null,,confidence_buffer,606312,confidence_buffer,,null,,,,,,,,
null,,thebreak,606814,break,,null,,,,,,,,
1961.7999999523163,,realistic_rating,608776,realistic_rating,,52,Hilo,4,,,,,,
null,,confidence_buffer,608878,confidence_buffer,,null,,,,,,,,
409.2999999523163,,pt2_unique_rating,609289,pt2_unique_rating,,52,,4,,,,,,
null,,confidence_buffer,609391,confidence_buffer,,null,,,,,,,,
1207.5,,pt2_memorable_rating,610599,pt2_memorable_rating,,52,,4,,,,,,
null,,confidence_buffer,610701,confidence_buffer,,null,,,,,,,,
1312.5999999046326,,recognition_phase,612014,recognition_phase,,50,,,,,new,1,0.8709677419354839,
null,,confidence_buffer,612115,confidence_buffer,,null,,,,,,,,
542.5,,confidence,612659,confidence,,52,,,,,,,,4
null,,confidence_buffer,612760,confidence_buffer,,null,,,,,,,,
null,,thebreak,613262,break,,null,,,,,,,,
2367.899999976158,,realistic_rating,615631,realistic_rating,,53,Peoria,5,,,,,,
null,,confidence_buffer,615741,confidence_buffer,,null,,,,,,,,
923.7999999523163,,pt2_unique_rating,616666,pt2_unique_rating,,53,,5,,,,,,
null,,confidence_buffer,616767,confidence_buffer,,null,,,,,,,,
1864.7000000476837,,pt2_memorable_rating,618633,pt2_memorable_rating,,53,,5,,,,,,
null,,confidence_buffer,618735,confidence_buffer,,null,,,,,,,,
1172.5,,probe_rating,619909,probe_rating,,51,,,3,1,,,,
null,,confidence_buffer,620010,confidence_buffer,,null,,,,,,,,
2662.399999976158,,recognition_phase,622673,recognition_phase,,50,,,,,new,1,0.875,
null,,confidence_buffer,622774,confidence_buffer,,null,,,,,,,,
1544.8999999761581,,confidence,624320,confidence,,51,,,,,,,,3
null,,confidence_buffer,624422,confidence_buffer,,null,,,,,,,,
null,,thebreak,624923,break,,null,,,,,,,,
2533.6999999284744,,realistic_rating,627457,realistic_rating,,53,Yukon,5,,,,,,
null,,confidence_buffer,627559,confidence_buffer,,null,,,,,,,,
1937.1999999284744,,pt2_unique_rating,629496,pt2_unique_rating,,52,,4,,,,,,
null,,confidence_buffer,629598,confidence_buffer,,null,,,,,,,,
958.7000000476837,,pt2_memorable_rating,630558,pt2_memorable_rating,,51,,3,,,,,,
null,,confidence_buffer,630660,confidence_buffer,,null,,,,,,,,
2183.399999976158,,recognition_phase,632844,recognition_phase,,49,,,,,old,1,0.8787878787878788,
null,,confidence_buffer,632945,confidence_buffer,,null,,,,,,,,
1060.5,,confidence,634006,confidence,,52,,,,,,,,4
null,,confidence_buffer,634107,confidence_buffer,,null,,,,,,,,
null,,thebreak,634609,break,,null,,,,,,,,
2584.5,,realistic_rating,637195,realistic_rating,,53,Berkeley Springs,5,,,,,,
null,,confidence_buffer,637297,confidence_buffer,,null,,,,,,,,
1021.1000000238419,,pt2_unique_rating,638320,pt2_unique_rating,,52,,4,,,,,,
null,,confidence_buffer,638422,confidence_buffer,,null,,,,,,,,
914.6000000238419,,pt2_memorable_rating,639337,pt2_memorable_rating,,52,,4,,,,,,
null,,confidence_buffer,639439,confidence_buffer,,null,,,,,,,,
1579.2999999523163,,recognition_phase,641019,recognition_phase,,49,,,,,old,1,0.8823529411764706,
null,,confidence_buffer,641120,confidence_buffer,,null,,,,,,,,
780.5,,confidence,641902,confidence,,52,,,,,,,,4
null,,confidence_buffer,642003,confidence_buffer,,null,,,,,,,,
null,,thebreak,642504,break,,null,,,,,,,,
3151.3000000715256,,realistic_rating,645657,realistic_rating,,53,Montelake,5,,,,,,
null,,confidence_buffer,645760,confidence_buffer,,null,,,,,,,,
1269.6000000238419,,pt2_unique_rating,647031,pt2_unique_rating,,52,,4,,,,,,
null,,confidence_buffer,647132,confidence_buffer,,null,,,,,,,,
497,,pt2_memorable_rating,647631,pt2_memorable_rating,,52,,4,,,,,,
null,,confidence_buffer,647731,confidence_buffer,,null,,,,,,,,
1410.8999999761581,,recognition_phase,649143,recognition_phase,,49,,,,,old,1,0.8857142857142857,
null,,confidence_buffer,649244,confidence_buffer,,null,,,,,,,,
1731.6999999284744,,confidence,650977,confidence,,51,,,,,,,,3
null,,confidence_buffer,651078,confidence_buffer,,null,,,,,,,,
null,,thebreak,651579,break,,null,,,,,,,,
2268.2000000476837,,realistic_rating,653849,realistic_rating,,53,Crestwood,5,,,,,,
null,,confidence_buffer,653950,confidence_buffer,,null,,,,,,,,
901.2999999523163,,probe_rating,654854,probe_rating,,52,,,4,1,,,,
null,,confidence_buffer,654956,confidence_buffer,,null,,,,,,,,
941,,pt2_unique_rating,655898,pt2_unique_rating,,52,,4,,,,,,
null,,confidence_buffer,655999,confidence_buffer,,null,,,,,,,,
1098.5,,pt2_memorable_rating,657099,pt2_memorable_rating,,51,,3,,,,,,
null,,confidence_buffer,657200,confidence_buffer,,null,,,,,,,,
996.2000000476837,,recognition_phase,658198,recognition_phase,,49,,,,,old,0,0.8611111111111112,
null,,confidence_buffer,658299,confidence_buffer,,null,,,,,,,,
1816.8999999761581,,confidence,660117,confidence,,52,,,,,,,,4
null,,confidence_buffer,660219,confidence_buffer,,null,,,,,,,,
null,,thebreak,660722,break,,null,,,,,,,,
2044.8999999761581,,realistic_rating,662768,realistic_rating,,53,West Palm Beach,5,,,,,,
null,,confidence_buffer,662870,confidence_buffer,,null,,,,,,,,
790.2999999523163,,pt2_unique_rating,663662,pt2_unique_rating,,52,,4,,,,,,
null,,confidence_buffer,663763,confidence_buffer,,null,,,,,,,,
881.2000000476837,,pt2_memorable_rating,664646,pt2_memorable_rating,,52,,4,,,,,,
null,,confidence_buffer,664748,confidence_buffer,,null,,,,,,,,
1541.3999999761581,,recognition_phase,666290,recognition_phase,,50,,,,,new,1,0.8648648648648649,
null,,confidence_buffer,666391,confidence_buffer,,null,,,,,,,,
1045.6999999284744,,confidence,667437,confidence,,52,,,,,,,,4
null,,confidence_buffer,667540,confidence_buffer,,null,,,,,,,,
null,,thebreak,668042,break,,null,,,,,,,,
2162.600000023842,,realistic_rating,670205,realistic_rating,,53,Brookmere,5,,,,,,
null,,confidence_buffer,670308,confidence_buffer,,null,,,,,,,,
1162.6000000238419,,pt2_unique_rating,671472,pt2_unique_rating,,52,,4,,,,,,
null,,confidence_buffer,671573,confidence_buffer,,null,,,,,,,,
1718.6000000238419,,pt2_memorable_rating,673293,pt2_memorable_rating,,51,,3,,,,,,
null,,confidence_buffer,673394,confidence_buffer,,null,,,,,,,,
2083.0999999046326,,recognition_phase,675477,recognition_phase,,49,,,,,old,0,0.8421052631578947,
null,,confidence_buffer,675579,confidence_buffer,,null,,,,,,,,
441.1999999284744,,confidence,676021,confidence,,50,,,,,,,,2
null,,confidence_buffer,676123,confidence_buffer,,null,,,,,,,,
null,,thebreak,676625,break,,null,,,,,,,,
2586.8000000715256,,realistic_rating,679213,realistic_rating,,52,Millstone,4,,,,,,
null,,confidence_buffer,679315,confidence_buffer,,null,,,,,,,,
1826.7000000476837,,pt2_unique_rating,681142,pt2_unique_rating,,51,,3,,,,,,
null,,confidence_buffer,681244,confidence_buffer,,null,,,,,,,,
432,,pt2_memorable_rating,681677,pt2_memorable_rating,,51,,3,,,,,,
null,,confidence_buffer,681778,confidence_buffer,,null,,,,,,,,
1113.2999999523163,,recognition_phase,682892,recognition_phase,,49,,,,,old,1,0.8461538461538461,
null,,confidence_buffer,682994,confidence_buffer,,null,,,,,,,,
471.39999997615814,,confidence,683466,confidence,,51,,,,,,,,3
null,,confidence_buffer,683568,confidence_buffer,,null,,,,,,,,
null,,thebreak,684069,break,,null,,,,,,,,
2376.3000000715256,,realistic_rating,686447,realistic_rating,,53,Delaro Park,5,,,,,,
null,,confidence_buffer,686548,confidence_buffer,,null,,,,,,,,
1070.6999999284744,,pt2_unique_rating,687620,pt2_unique_rating,,53,,5,,,,,,
null,,confidence_buffer,687722,confidence_buffer,,null,,,,,,,,
764.2000000476837,,pt2_memorable_rating,688487,pt2_memorable_rating,,51,,3,,,,,,
null,,confidence_buffer,688593,confidence_buffer,,null,,,,,,,,
1287.5,,recognition_phase,689882,recognition_phase,,49,,,,,old,1,0.85,
null,,confidence_buffer,689984,confidence_buffer,,null,,,,,,,,
609,,confidence,690593,confidence,,50,,,,,,,,2
null,,confidence_buffer,690695,confidence_buffer,,null,,,,,,,,
null,,thebreak,691196,break,,null,,,,,,,,
2522.2999999523163,,realistic_rating,693720,realistic_rating,,53,Northbridge,5,,,,,,
null,,confidence_buffer,693822,confidence_buffer,,null,,,,,,,,
663.9000000953674,,pt2_unique_rating,694487,pt2_unique_rating,,52,,4,,,,,,
null,,confidence_buffer,694590,confidence_buffer,,null,,,,,,,,
1046.9000000953674,,pt2_memorable_rating,695638,pt2_memorable_rating,,51,,3,,,,,,
null,,confidence_buffer,695740,confidence_buffer,,null,,,,,,,,
1420.1000000238419,,recognition_phase,697161,recognition_phase,,49,,,,,old,1,0.8536585365853658,
null,,confidence_buffer,697262,confidence_buffer,,null,,,,,,,,
1109.4000000953674,,confidence,698372,confidence,,49,,,,,,,,1
null,,confidence_buffer,698474,confidence_buffer,,null,,,,,,,,
null,,thebreak,698976,break,,null,,,,,,,,
1556,,realistic_rating,700532,realistic_rating,,53,Athens,5,,,,,,
null,,confidence_buffer,700635,confidence_buffer,,null,,,,,,,,
1059.2999999523163,,pt2_unique_rating,701695,pt2_unique_rating,,52,,4,,,,,,
null,,confidence_buffer,701798,confidence_buffer,,null,,,,,,,,
973.6000000238419,,probe_rating,702772,probe_rating,,52,,,4,1,,,,
null,,confidence_buffer,702874,confidence_buffer,,null,,,,,,,,
1575.7000000476837,,pt2_memorable_rating,704451,pt2_memorable_rating,,53,,5,,,,,,
null,,confidence_buffer,704552,confidence_buffer,,null,,,,,,,,
1367.3999999761581,,recognition_phase,705920,recognition_phase,,49,,,,,old,1,0.8571428571428571,
null,,confidence_buffer,706021,confidence_buffer,,null,,,,,,,,
440.6999999284744,,confidence,706463,confidence,,52,,,,,,,,4
null,,confidence_buffer,706565,confidence_buffer,,null,,,,,,,,
null,,thebreak,707065,break,,null,,,,,,,,
2594.2999999523163,,realistic_rating,709661,realistic_rating,,52,North Arroya,4,,,,,,
null,,confidence_buffer,709763,confidence_buffer,,null,,,,,,,,
975.8999999761581,,pt2_unique_rating,710739,pt2_unique_rating,,52,,4,,,,,,
null,,confidence_buffer,710841,confidence_buffer,,null,,,,,,,,
1454.6000000238419,,pt2_memorable_rating,712296,pt2_memorable_rating,,51,,3,,,,,,
null,,confidence_buffer,712398,confidence_buffer,,null,,,,,,,,
802.5,,recognition_phase,713202,recognition_phase,,49,,,,,old,1,0.8604651162790697,
null,,confidence_buffer,713304,confidence_buffer,,null,,,,,,,,
926.5,,confidence,714232,confidence,,50,,,,,,,,2
null,,confidence_buffer,714333,confidence_buffer,,null,,,,,,,,
null,,thebreak,714835,break,,null,,,,,,,,
2181.7000000476837,,realistic_rating,717017,realistic_rating,,51,Elmsbury,3,,,,,,
null,,confidence_buffer,717119,confidence_buffer,,null,,,,,,,,
402.39999997615814,,pt2_unique_rating,717522,pt2_unique_rating,,51,,3,,,,,,
null,,confidence_buffer,717624,confidence_buffer,,null,,,,,,,,
774,,pt2_memorable_rating,718399,pt2_memorable_rating,,51,,3,,,,,,
null,,confidence_buffer,718500,confidence_buffer,,null,,,,,,,,
1068.6000000238419,,recognition_phase,719570,recognition_phase,,49,,,,,old,1,0.8636363636363636,
null,,confidence_buffer,719672,confidence_buffer,,null,,,,,,,,
979.1999999284744,,confidence,720652,confidence,,49,,,,,,,,1
null,,confidence_buffer,720754,confidence_buffer,,null,,,,,,,,
null,,thebreak,721255,break,,null,,,,,,,,
1655.5,,realistic_rating,722911,realistic_rating,,50,Summershade,2,,,,,,
null,,confidence_buffer,723013,confidence_buffer,,null,,,,,,,,
1283.7000000476837,,pt2_unique_rating,724298,pt2_unique_rating,,52,,4,,,,,,
null,,confidence_buffer,724400,confidence_buffer,,null,,,,,,,,
898.0999999046326,,pt2_memorable_rating,725300,pt2_memorable_rating,,50,,2,,,,,,
null,,confidence_buffer,725402,confidence_buffer,,null,,,,,,,,
1176.4000000953674,,probe_rating,726579,probe_rating,,50,,,2,1,,,,
null,,confidence_buffer,726681,confidence_buffer,,null,,,,,,,,
2449.600000023842,,recognition_phase,729131,recognition_phase,,50,,,,,new,1,0.8666666666666667,
null,,confidence_buffer,729233,confidence_buffer,,null,,,,,,,,
964.5,,confidence,730199,confidence,,50,,,,,,,,2
null,,confidence_buffer,730301,confidence_buffer,,null,,,,,,,,
null,,thebreak,730802,break,,null,,,,,,,,
2116.4000000953674,,realistic_rating,732919,realistic_rating,,52,Bowling Green,4,,,,,,
null,,confidence_buffer,733020,confidence_buffer,,null,,,,,,,,
1266,,pt2_unique_rating,734287,pt2_unique_rating,,51,,3,,,,,,
null,,confidence_buffer,734388,confidence_buffer,,null,,,,,,,,
950.1999999284744,,pt2_memorable_rating,735339,pt2_memorable_rating,,51,,3,,,,,,
null,,confidence_buffer,735441,confidence_buffer,,null,,,,,,,,
2485.7999999523163,,recognition_phase,737928,recognition_phase,,49,,,,,old,1,0.8695652173913043,
null,,confidence_buffer,738030,confidence_buffer,,null,,,,,,,,
330.7000000476837,,confidence,738361,confidence,,49,,,,,,,,1
null,,confidence_buffer,738463,confidence_buffer,,null,,,,,,,,
null,,thebreak,738964,break,,null,,,,,,,,
2905.2999999523163,,realistic_rating,741871,realistic_rating,,53,Maplehurst,5,,,,,,
null,,confidence_buffer,741973,confidence_buffer,,null,,,,,,,,
891.5,,probe_rating,742866,probe_rating,,52,,,4,1,,,,
null,,confidence_buffer,742967,confidence_buffer,,null,,,,,,,,
1673.3999999761581,,pt2_unique_rating,744641,pt2_unique_rating,,51,,3,,,,,,
null,,confidence_buffer,744743,confidence_buffer,,null,,,,,,,,
1029.1000000238419,,pt2_memorable_rating,745772,pt2_memorable_rating,,51,,3,,,,,,
null,,confidence_buffer,745875,confidence_buffer,,null,,,,,,,,
2364.2999999523163,,recognition_phase,748240,recognition_phase,,49,,,,,old,1,0.8723404255319149,
null,,confidence_buffer,748345,confidence_buffer,,null,,,,,,,,
276.10000002384186,,confidence,748622,confidence,,49,,,,,,,,1
null,,confidence_buffer,748724,confidence_buffer,,null,,,,,,,,
null,,thebreak,749225,break,,null,,,,,,,,
1935.5999999046326,,realistic_rating,751162,realistic_rating,,53,Hollendale,5,,,,,,
null,,confidence_buffer,751264,confidence_buffer,,null,,,,,,,,
768.9000000953674,,pt2_unique_rating,752034,pt2_unique_rating,,52,,4,,,,,,
null,,confidence_buffer,752136,confidence_buffer,,null,,,,,,,,
796.4000000953674,,pt2_memorable_rating,752934,pt2_memorable_rating,,51,,3,,,,,,
null,,confidence_buffer,753035,confidence_buffer,,null,,,,,,,,
998.2000000476837,,recognition_phase,754035,recognition_phase,,49,,,,,old,1,0.875,
null,,confidence_buffer,754136,confidence_buffer,,null,,,,,,,,
1079.6000000238419,,confidence,755217,confidence,,52,,,,,,,,4
null,,confidence_buffer,755318,confidence_buffer,,null,,,,,,,,
null,,thebreak,755820,break,,null,,,,,,,,
2080.7999999523163,,realistic_rating,757901,realistic_rating,,51,Cornwall,3,,,,,,
null,,confidence_buffer,758010,confidence_buffer,,null,,,,,,,,
1098.7000000476837,,pt2_unique_rating,759110,pt2_unique_rating,,51,,3,,,,,,
null,,confidence_buffer,759211,confidence_buffer,,null,,,,,,,,
790,,pt2_memorable_rating,760002,pt2_memorable_rating,,50,,2,,,,,,
null,,confidence_buffer,760105,confidence_buffer,,null,,,,,,,,
1079.2000000476837,,recognition_phase,761185,recognition_phase,,49,,,,,old,1,0.8775510204081632,
null,,confidence_buffer,761286,confidence_buffer,,null,,,,,,,,
2725.399999976158,,confidence,764013,confidence,,52,,,,,,,,4
null,,confidence_buffer,764115,confidence_buffer,,null,,,,,,,,
null,,thebreak,764617,break,,null,,,,,,,,
1592.7000000476837,,realistic_rating,766210,realistic_rating,,52,Rosehollow,4,,,,,,
null,,confidence_buffer,766312,confidence_buffer,,null,,,,,,,,
600.8999999761581,,pt2_unique_rating,766915,pt2_unique_rating,,52,,4,,,,,,
null,,confidence_buffer,767016,confidence_buffer,,null,,,,,,,,
693.4000000953674,,pt2_memorable_rating,767711,pt2_memorable_rating,,51,,3,,,,,,
null,,confidence_buffer,767812,confidence_buffer,,null,,,,,,,,
948.6000000238419,,recognition_phase,768762,recognition_phase,,49,,,,,old,1,0.88,
null,,confidence_buffer,768864,confidence_buffer,,null,,,,,,,,
1213,,confidence,770078,confidence,,52,,,,,,,,4
null,,confidence_buffer,770180,confidence_buffer,,null,,,,,,,,
null,,thebreak,770682,break,,null,,,,,,,,
2325.6999999284744,,realistic_rating,773008,realistic_rating,,52,Willowford,4,,,,,,
null,,confidence_buffer,773109,confidence_buffer,,null,,,,,,,,
804,,pt2_unique_rating,773914,pt2_unique_rating,,52,,4,,,,,,
null,,confidence_buffer,774016,confidence_buffer,,null,,,,,,,,
1425.6000000238419,,pt2_memorable_rating,775442,pt2_memorable_rating,,51,,3,,,,,,
null,,confidence_buffer,775544,confidence_buffer,,null,,,,,,,,
2436.600000023842,,probe_rating,777981,probe_rating,,49,,,1,1,,,,
null,,confidence_buffer,778083,confidence_buffer,,null,,,,,,,,
3300.399999976158,,recognition_phase,781384,recognition_phase,,50,,,,,new,1,0.8823529411764706,
null,,confidence_buffer,781492,confidence_buffer,,null,,,,,,,,
569.3999999761581,,confidence,782062,confidence,,49,,,,,,,,1
null,,confidence_buffer,782164,confidence_buffer,,null,,,,,,,,
null,,thebreak,782666,break,,null,,,,,,,,
2681.2000000476837,,realistic_rating,785348,realistic_rating,,52,Tamarisk Hills,4,,,,,,
null,,confidence_buffer,785450,confidence_buffer,,null,,,,,,,,
802.2000000476837,,pt2_unique_rating,786253,pt2_unique_rating,,52,,4,,,,,,
null,,confidence_buffer,786363,confidence_buffer,,null,,,,,,,,
453.7999999523163,,pt2_memorable_rating,786818,pt2_memorable_rating,,51,,3,,,,,,
null,,confidence_buffer,786920,confidence_buffer,,null,,,,,,,,
1657.9000000953674,,recognition_phase,788579,recognition_phase,,50,,,,,new,1,0.8846153846153846,
null,,confidence_buffer,788681,confidence_buffer,,null,,,,,,,,
354.39999997615814,,confidence,789036,confidence,,52,,,,,,,,4
null,,confidence_buffer,789137,confidence_buffer,,null,,,,,,,,
null,,thebreak,789639,break,,null,,,,,,,,
2746.600000023842,,realistic_rating,792386,realistic_rating,,53,Livingston,5,,,,,,
null,,confidence_buffer,792488,confidence_buffer,,null,,,,,,,,
1090,,pt2_unique_rating,793579,pt2_unique_rating,,50,,2,,,,,,
null,,confidence_buffer,793680,confidence_buffer,,null,,,,,,,,
581.0999999046326,,pt2_memorable_rating,794262,pt2_memorable_rating,,50,,2,,,,,,
null,,confidence_buffer,794364,confidence_buffer,,null,,,,,,,,
1542,,recognition_phase,795906,recognition_phase,,50,,,,,new,1,0.8867924528301887,
null,,confidence_buffer,796007,confidence_buffer,,null,,,,,,,,
904.5,,confidence,796913,confidence,,52,,,,,,,,4
null,,confidence_buffer,797014,confidence_buffer,,null,,,,,,,,
null,,thebreak,797515,break,,null,,,,,,,,
1879,,realistic_rating,799395,realistic_rating,,53,Gatlinburg,5,,,,,,
null,,confidence_buffer,799496,confidence_buffer,,null,,,,,,,,
1212,,pt2_unique_rating,800709,pt2_unique_rating,,53,,5,,,,,,
null,,confidence_buffer,800810,confidence_buffer,,null,,,,,,,,
1697.3999999761581,,pt2_memorable_rating,802509,pt2_memorable_rating,,53,,5,,,,,,
null,,confidence_buffer,802611,confidence_buffer,,null,,,,,,,,
1624.8000000715256,,recognition_phase,804236,recognition_phase,,50,,,,,new,1,0.8888888888888888,
null,,confidence_buffer,804337,confidence_buffer,,null,,,,,,,,
1054.7999999523163,,confidence,805393,confidence,,52,,,,,,,,4
null,,confidence_buffer,805496,confidence_buffer,,null,,,,,,,,
null,,thebreak,805999,break,,null,,,,,,,,
2709.899999976158,,realistic_rating,808710,realistic_rating,,53,Briarfield,5,,,,,,
null,,confidence_buffer,808811,confidence_buffer,,null,,,,,,,,
1533.8000000715256,,pt2_unique_rating,810346,pt2_unique_rating,,52,,4,,,,,,
null,,confidence_buffer,810448,confidence_buffer,,null,,,,,,,,
790.6999999284744,,pt2_memorable_rating,811239,pt2_memorable_rating,,51,,3,,,,,,
null,,confidence_buffer,811342,confidence_buffer,,null,,,,,,,,
1414.1000000238419,,recognition_phase,812756,recognition_phase,,50,,,,,new,1,0.8909090909090909,
null,,confidence_buffer,812857,confidence_buffer,,null,,,,,,,,
1425.8999999761581,,confidence,814284,confidence,,52,,,,,,,,4
null,,confidence_buffer,814386,confidence_buffer,,null,,,,,,,,
null,,thebreak,814888,break,,null,,,,,,,,
3154.5,,realistic_rating,818043,realistic_rating,,53,Granton Ridge,5,,,,,,
null,,confidence_buffer,818145,confidence_buffer,,null,,,,,,,,
599.1000000238419,,pt2_unique_rating,818745,pt2_unique_rating,,52,,4,,,,,,
null,,confidence_buffer,818846,confidence_buffer,,null,,,,,,,,
875.9000000953674,,pt2_memorable_rating,819723,pt2_memorable_rating,,52,,4,,,,,,
null,,confidence_buffer,819825,confidence_buffer,,null,,,,,,,,
1256.7999999523163,,recognition_phase,821083,recognition_phase,,50,,,,,new,0,0.875,
null,,confidence_buffer,821184,confidence_buffer,,null,,,,,,,,
494.5,,confidence,821679,confidence,,52,,,,,,,,4
null,,confidence_buffer,821780,confidence_buffer,,null,,,,,,,,
null,,thebreak,822281,break,,null,,,,,,,,
2326.2999999523163,,realistic_rating,824608,realistic_rating,,53,Bisbee,5,,,,,,
null,,confidence_buffer,824725,confidence_buffer,,null,,,,,,,,
2125.7999999523163,,probe_rating,826851,probe_rating,,52,,,4,1,,,,
null,,confidence_buffer,826954,confidence_buffer,,null,,,,,,,,
1636.6999999284744,,pt2_unique_rating,828591,pt2_unique_rating,,53,,5,,,,,,
null,,confidence_buffer,828694,confidence_buffer,,null,,,,,,,,
704.3000000715256,,pt2_memorable_rating,829399,pt2_memorable_rating,,53,,5,,,,,,
null,,confidence_buffer,829501,confidence_buffer,,null,,,,,,,,
1426.8999999761581,,recognition_phase,830930,recognition_phase,,49,,,,,old,1,0.8771929824561403,
null,,confidence_buffer,831031,confidence_buffer,,null,,,,,,,,
302,,confidence,831334,confidence,,52,,,,,,,,4
null,,confidence_buffer,831435,confidence_buffer,,null,,,,,,,,
null,,thebreak,831947,break,,null,,,,,,,,
2424.7999999523163,,realistic_rating,834373,realistic_rating,,49,Custer,1,,,,,,
null,,confidence_buffer,834474,confidence_buffer,,null,,,,,,,,
1595.8999999761581,,pt2_unique_rating,836071,pt2_unique_rating,,51,,3,,,,,,
null,,confidence_buffer,836173,confidence_buffer,,null,,,,,,,,
1194.5,,pt2_memorable_rating,837369,pt2_memorable_rating,,50,,2,,,,,,
null,,confidence_buffer,837470,confidence_buffer,,null,,,,,,,,
1782.2999999523163,,recognition_phase,839253,recognition_phase,,50,,,,,new,1,0.8793103448275862,
null,,confidence_buffer,839354,confidence_buffer,,null,,,,,,,,
532.5,,confidence,839887,confidence,,52,,,,,,,,4
null,,confidence_buffer,839989,confidence_buffer,,null,,,,,,,,
null,,thebreak,840491,break,,null,,,,,,,,
2060.899999976158,,realistic_rating,842552,realistic_rating,,53,Orchard Bend,5,,,,,,
null,,confidence_buffer,842654,confidence_buffer,,null,,,,,,,,
2194.5,,pt2_unique_rating,844850,pt2_unique_rating,,53,,5,,,,,,
null,,confidence_buffer,844952,confidence_buffer,,null,,,,,,,,
1305.9000000953674,,pt2_memorable_rating,846259,pt2_memorable_rating,,52,,4,,,,,,
null,,confidence_buffer,846360,confidence_buffer,,null,,,,,,,,
2214.7000000476837,,recognition_phase,848576,recognition_phase,,50,,,,,new,1,0.8813559322033898,
null,,confidence_buffer,848677,confidence_buffer,,null,,,,,,,,
315.2999999523163,,confidence,848993,confidence,,52,,,,,,,,4
null,,confidence_buffer,849096,confidence_buffer,,null,,,,,,,,
null,,thebreak,849597,break,,null,,,,,,,,
2739,,realistic_rating,852337,realistic_rating,,53,East Ladera,5,,,,,,
null,,confidence_buffer,852438,confidence_buffer,,null,,,,,,,,
820.3999999761581,,pt2_unique_rating,853260,pt2_unique_rating,,52,,4,,,,,,
null,,confidence_buffer,853362,confidence_buffer,,null,,,,,,,,
706.8999999761581,,pt2_memorable_rating,854070,pt2_memorable_rating,,51,,3,,,,,,
null,,confidence_buffer,854173,confidence_buffer,,null,,,,,,,,
1264.6000000238419,,recognition_phase,855438,recognition_phase,,50,,,,,new,0,0.8666666666666667,
null,,confidence_buffer,855539,confidence_buffer,,null,,,,,,,,
441.60000002384186,,confidence,855982,confidence,,52,,,,,,,,4
null,,confidence_buffer,856085,confidence_buffer,,null,,,,,,,,
null,,thebreak,856587,break,,null,,,,,,,,
