rt,responses,trial_type,time_elapsed,stimulus,button_pressed,key_press,name_trial,rating,probe,probe_accuracy,response,correct,accuracy,confidence
6148.60000000149,{worker_id:63fcfd81a075a45d1a821308},id_enter,6155,,,,,,,,,,,
5842.5999999940395,,fullscreen,12007,fullscreen,0,,,,,,,,,
6199.80000000447,,intro_0,18216,instruct,,32,,,,,,,,
13324.60000000149,,intro_1,31558,instruct,,32,,,,,,,,
6491.69999999553,,intro_2,38056,instruct,,32,,,,,,,,
null,,instruct_dir_4,39563,instruct,,null,,,,,,,,
null,,thebreak,40067,break,,null,,,,,,,,
7734,,familiar_rating,47803,familiar_rating,,51,Hanover,3,,,,,,
null,,confidence_buffer,47911,confidence_buffer,,null,,,,,,,,
3959.10000000149,,unique_rating,51871,unique_rating,,51,,3,,,,,,
null,,confidence_buffer,51973,confidence_buffer,,null,,,,,,,,
4264,,memorable_rating,56239,memorable_rating,,51,,3,,,,,,
null,,confidence_buffer,56341,confidence_buffer,,null,,,,,,,,
null,,thebreak,56843,break,,null,,,,,,,,
5555.29999999702,,familiar_rating,62399,familiar_rating,,49,Summershade,1,,,,,,
null,,confidence_buffer,62501,confidence_buffer,,null,,,,,,,,
6436.60000000149,,unique_rating,68939,unique_rating,,51,,3,,,,,,
null,,confidence_buffer,69041,confidence_buffer,,null,,,,,,,,
7104.20000000298,,memorable_rating,76146,memorable_rating,,52,,4,,,,,,
null,,confidence_buffer,76248,confidence_buffer,,null,,,,,,,,
null,,thebreak,76748,break,,null,,,,,,,,
3613,,familiar_rating,80363,familiar_rating,,49,Willowford,1,,,,,,
null,,confidence_buffer,80473,confidence_buffer,,null,,,,,,,,
2144.2000000029802,,unique_rating,82618,unique_rating,,50,,2,,,,,,
null,,confidence_buffer,82720,confidence_buffer,,null,,,,,,,,
2323.60000000149,,memorable_rating,85044,memorable_rating,,50,,2,,,,,,
null,,confidence_buffer,85146,confidence_buffer,,null,,,,,,,,
null,,thebreak,85647,break,,null,,,,,,,,
3310,,familiar_rating,88958,familiar_rating,,49,Ashford Hills,1,,,,,,
null,,confidence_buffer,89061,confidence_buffer,,null,,,,,,,,
3062.89999999851,,unique_rating,92125,unique_rating,,49,,1,,,,,,
null,,confidence_buffer,92226,confidence_buffer,,null,,,,,,,,
4058.7000000029802,,memorable_rating,96286,memorable_rating,,49,,1,,,,,,
null,,confidence_buffer,96387,confidence_buffer,,null,,,,,,,,
null,,thebreak,96889,break,,null,,,,,,,,
3809.2000000029802,,familiar_rating,100699,familiar_rating,,50,Bayshore Haven,2,,,,,,
null,,confidence_buffer,100800,confidence_buffer,,null,,,,,,,,
1927,,unique_rating,102729,unique_rating,,50,,2,,,,,,
null,,confidence_buffer,102831,confidence_buffer,,null,,,,,,,,
2239.89999999851,,memorable_rating,105072,memorable_rating,,49,,1,,,,,,
null,,confidence_buffer,105174,confidence_buffer,,null,,,,,,,,
null,,thebreak,105676,break,,null,,,,,,,,
3682.39999999851,,familiar_rating,109360,familiar_rating,,51,Bisbee,3,,,,,,
null,,confidence_buffer,109462,confidence_buffer,,null,,,,,,,,
2171.1999999955297,,unique_rating,111634,unique_rating,,52,,4,,,,,,
null,,confidence_buffer,111736,confidence_buffer,,null,,,,,,,,
1811.9000000059605,,memorable_rating,113549,memorable_rating,,52,,4,,,,,,
null,,confidence_buffer,113651,confidence_buffer,,null,,,,,,,,
null,,thebreak,114152,break,,null,,,,,,,,
3812.6999999955297,,familiar_rating,117966,familiar_rating,,50,Silverpine,2,,,,,,
null,,confidence_buffer,118068,confidence_buffer,,null,,,,,,,,
2823.8000000044703,,probe_rating,120894,probe_rating,,49,,,1,1,,,,
null,,confidence_buffer,120999,confidence_buffer,,null,,,,,,,,
3844,,unique_rating,124844,unique_rating,,49,,1,,,,,,
null,,confidence_buffer,124946,confidence_buffer,,null,,,,,,,,
1270.6000000014901,,memorable_rating,126218,memorable_rating,,49,,1,,,,,,
null,,confidence_buffer,126319,confidence_buffer,,null,,,,,,,,
null,,thebreak,126820,break,,null,,,,,,,,
3700.3000000044703,,familiar_rating,130522,familiar_rating,,53,Newport,5,,,,,,
null,,confidence_buffer,130624,confidence_buffer,,null,,,,,,,,
2953.7000000029802,,unique_rating,133578,unique_rating,,53,,5,,,,,,
null,,confidence_buffer,133680,confidence_buffer,,null,,,,,,,,
2341.3000000044703,,memorable_rating,136022,memorable_rating,,53,,5,,,,,,
null,,confidence_buffer,136125,confidence_buffer,,null,,,,,,,,
null,,thebreak,136626,break,,null,,,,,,,,
2272.39999999851,,familiar_rating,138900,familiar_rating,,49,Brookmere,1,,,,,,
null,,confidence_buffer,139002,confidence_buffer,,null,,,,,,,,
2050.7999999970198,,unique_rating,141053,unique_rating,,49,,1,,,,,,
null,,confidence_buffer,141156,confidence_buffer,,null,,,,,,,,
3814.7999999970198,,memorable_rating,144973,memorable_rating,,50,,2,,,,,,
null,,confidence_buffer,145075,confidence_buffer,,null,,,,,,,,
null,,thebreak,145576,break,,null,,,,,,,,
3666.2000000029802,,familiar_rating,149243,familiar_rating,,52,Abilene,4,,,,,,
null,,confidence_buffer,149390,confidence_buffer,,null,,,,,,,,
2970.5,,unique_rating,152362,unique_rating,,52,,4,,,,,,
null,,confidence_buffer,152463,confidence_buffer,,null,,,,,,,,
3265.39999999851,,memorable_rating,155730,memorable_rating,,53,,5,,,,,,
null,,confidence_buffer,155831,confidence_buffer,,null,,,,,,,,
null,,thebreak,156345,break,,null,,,,,,,,
2722.2000000029802,,familiar_rating,159068,familiar_rating,,49,Tamarisk Hills,1,,,,,,
null,,confidence_buffer,159170,confidence_buffer,,null,,,,,,,,
3454.39999999851,,unique_rating,162625,unique_rating,,50,,2,,,,,,
null,,confidence_buffer,162730,confidence_buffer,,null,,,,,,,,
3451.39999999851,,memorable_rating,166182,memorable_rating,,50,,2,,,,,,
null,,confidence_buffer,166284,confidence_buffer,,null,,,,,,,,
null,,thebreak,166786,break,,null,,,,,,,,
2558.2999999970198,,familiar_rating,169346,familiar_rating,,49,Sitka,1,,,,,,
null,,confidence_buffer,169448,confidence_buffer,,null,,,,,,,,
2794.7000000029802,,unique_rating,172243,unique_rating,,51,,3,,,,,,
null,,confidence_buffer,172344,confidence_buffer,,null,,,,,,,,
3785.60000000149,,memorable_rating,176131,memorable_rating,,49,,1,,,,,,
null,,confidence_buffer,176233,confidence_buffer,,null,,,,,,,,
null,,thebreak,176734,break,,null,,,,,,,,
1419.2999999970198,,familiar_rating,178155,familiar_rating,,49,Rosehollow,1,,,,,,
null,,confidence_buffer,178258,confidence_buffer,,null,,,,,,,,
4035.89999999851,,unique_rating,182295,unique_rating,,51,,3,,,,,,
null,,confidence_buffer,182405,confidence_buffer,,null,,,,,,,,
1494.6000000014901,,memorable_rating,183901,memorable_rating,,50,,2,,,,,,
null,,confidence_buffer,184003,confidence_buffer,,null,,,,,,,,
null,,thebreak,184505,break,,null,,,,,,,,
2193.10000000149,,familiar_rating,186699,familiar_rating,,49,Cody,1,,,,,,
null,,confidence_buffer,186801,confidence_buffer,,null,,,,,,,,
1560,,unique_rating,188362,unique_rating,,49,,1,,,,,,
null,,confidence_buffer,188464,confidence_buffer,,null,,,,,,,,
2320.60000000149,,probe_rating,190786,probe_rating,,51,,,3,1,,,,
null,,confidence_buffer,190888,confidence_buffer,,null,,,,,,,,
2969.60000000149,,memorable_rating,193858,memorable_rating,,49,,1,,,,,,
null,,confidence_buffer,193960,confidence_buffer,,null,,,,,,,,
null,,thebreak,194462,break,,null,,,,,,,,
2528.10000000149,,familiar_rating,196991,familiar_rating,,49,Park City,1,,,,,,
null,,confidence_buffer,197093,confidence_buffer,,null,,,,,,,,
1561.7999999970198,,unique_rating,198655,unique_rating,,50,,2,,,,,,
null,,confidence_buffer,198757,confidence_buffer,,null,,,,,,,,
1748.5,,memorable_rating,200507,memorable_rating,,50,,2,,,,,,
null,,confidence_buffer,200609,confidence_buffer,,null,,,,,,,,
null,,thebreak,201110,break,,null,,,,,,,,
2851.60000000149,,familiar_rating,203964,familiar_rating,,49,Claywater,1,,,,,,
null,,confidence_buffer,204071,confidence_buffer,,null,,,,,,,,
3188.5999999940395,,unique_rating,207261,unique_rating,,50,,2,,,,,,
null,,confidence_buffer,207363,confidence_buffer,,null,,,,,,,,
1665.1000000014901,,memorable_rating,209029,memorable_rating,,50,,2,,,,,,
null,,confidence_buffer,209131,confidence_buffer,,null,,,,,,,,
null,,thebreak,209633,break,,null,,,,,,,,
1561.1000000014901,,familiar_rating,211195,familiar_rating,,49,Stonebrook,1,,,,,,
null,,confidence_buffer,211298,confidence_buffer,,null,,,,,,,,
3007,,unique_rating,214306,unique_rating,,50,,2,,,,,,
null,,confidence_buffer,214409,confidence_buffer,,null,,,,,,,,
2718.5,,memorable_rating,217129,memorable_rating,,51,,3,,,,,,
null,,confidence_buffer,217231,confidence_buffer,,null,,,,,,,,
null,,thebreak,217733,break,,null,,,,,,,,
2351.60000000149,,familiar_rating,220086,familiar_rating,,49,Barnard,1,,,,,,
null,,confidence_buffer,220187,confidence_buffer,,null,,,,,,,,
3898.6999999955297,,probe_rating,224087,probe_rating,,53,,,5,1,,,,
null,,confidence_buffer,224189,confidence_buffer,,null,,,,,,,,
3763.89999999851,,unique_rating,227954,unique_rating,,49,,1,,,,,,
null,,confidence_buffer,228056,confidence_buffer,,null,,,,,,,,
1655.3000000044703,,memorable_rating,229712,memorable_rating,,49,,1,,,,,,
null,,confidence_buffer,229819,confidence_buffer,,null,,,,,,,,
null,,thebreak,230320,break,,null,,,,,,,,
2704.5,,familiar_rating,233026,familiar_rating,,49,Clearbrook,1,,,,,,
null,,confidence_buffer,233129,confidence_buffer,,null,,,,,,,,
1619.5,,unique_rating,234750,unique_rating,,50,,2,,,,,,
null,,confidence_buffer,234851,confidence_buffer,,null,,,,,,,,
1671,,memorable_rating,236523,memorable_rating,,50,,2,,,,,,
null,,confidence_buffer,236625,confidence_buffer,,null,,,,,,,,
null,,thebreak,237126,break,,null,,,,,,,,
2912.60000000149,,familiar_rating,240040,familiar_rating,,53,Albuquerque,5,,,,,,
null,,confidence_buffer,240142,confidence_buffer,,null,,,,,,,,
2575.2000000029802,,unique_rating,242718,unique_rating,,53,,5,,,,,,
null,,confidence_buffer,242820,confidence_buffer,,null,,,,,,,,
1801.1000000014901,,memorable_rating,244622,memorable_rating,,53,,5,,,,,,
null,,confidence_buffer,244723,confidence_buffer,,null,,,,,,,,
null,,thebreak,245225,break,,null,,,,,,,,
1704.1000000014901,,familiar_rating,246930,familiar_rating,,49,Meadowspire,1,,,,,,
null,,confidence_buffer,247031,confidence_buffer,,null,,,,,,,,
1261.5,,unique_rating,248294,unique_rating,,50,,2,,,,,,
null,,confidence_buffer,248396,confidence_buffer,,null,,,,,,,,
841,,memorable_rating,249238,memorable_rating,,50,,2,,,,,,
null,,confidence_buffer,249339,confidence_buffer,,null,,,,,,,,
null,,thebreak,249841,break,,null,,,,,,,,
1865.3999999985099,,familiar_rating,251707,familiar_rating,,49,Sierra Hollow,1,,,,,,
null,,confidence_buffer,251809,confidence_buffer,,null,,,,,,,,
1895,,unique_rating,253705,unique_rating,,50,,2,,,,,,
null,,confidence_buffer,253807,confidence_buffer,,null,,,,,,,,
1166.2000000029802,,memorable_rating,254974,memorable_rating,,51,,3,,,,,,
null,,confidence_buffer,255076,confidence_buffer,,null,,,,,,,,
null,,thebreak,255577,break,,null,,,,,,,,
3596.5,,familiar_rating,259175,familiar_rating,,52,Carmel,4,,,,,,
null,,confidence_buffer,259276,confidence_buffer,,null,,,,,,,,
2701.5,,probe_rating,261979,probe_rating,,50,,,2,1,,,,
null,,confidence_buffer,262081,confidence_buffer,,null,,,,,,,,
3305.6999999955297,,unique_rating,265388,unique_rating,,52,,4,,,,,,
null,,confidence_buffer,265490,confidence_buffer,,null,,,,,,,,
2802.8000000044703,,memorable_rating,268294,memorable_rating,,52,,4,,,,,,
null,,confidence_buffer,268408,confidence_buffer,,null,,,,,,,,
null,,thebreak,268908,break,,null,,,,,,,,
2482.7000000029802,,familiar_rating,271392,familiar_rating,,53,Shreveport,5,,,,,,
null,,confidence_buffer,271494,confidence_buffer,,null,,,,,,,,
2483.5,,unique_rating,273979,unique_rating,,52,,4,,,,,,
null,,confidence_buffer,274081,confidence_buffer,,null,,,,,,,,
2016.1000000014901,,memorable_rating,276098,memorable_rating,,53,,5,,,,,,
null,,confidence_buffer,276199,confidence_buffer,,null,,,,,,,,
null,,thebreak,276701,break,,null,,,,,,,,
3591.10000000149,,familiar_rating,280294,familiar_rating,,49,Custer,1,,,,,,
null,,confidence_buffer,280395,confidence_buffer,,null,,,,,,,,
3553.4000000059605,,unique_rating,283950,unique_rating,,50,,2,,,,,,
null,,confidence_buffer,284051,confidence_buffer,,null,,,,,,,,
1175.7000000029802,,memorable_rating,285228,memorable_rating,,50,,2,,,,,,
null,,confidence_buffer,285329,confidence_buffer,,null,,,,,,,,
null,,thebreak,285830,break,,null,,,,,,,,
1587.3999999985099,,familiar_rating,287418,familiar_rating,,49,Fairhaven,1,,,,,,
null,,confidence_buffer,287521,confidence_buffer,,null,,,,,,,,
1284.2999999970198,,unique_rating,288806,unique_rating,,50,,2,,,,,,
null,,confidence_buffer,288908,confidence_buffer,,null,,,,,,,,
1745,,memorable_rating,290654,memorable_rating,,50,,2,,,,,,
null,,confidence_buffer,290757,confidence_buffer,,null,,,,,,,,
null,,thebreak,291259,break,,null,,,,,,,,
1492.7000000029802,,familiar_rating,292753,familiar_rating,,51,Northbridge,3,,,,,,
null,,confidence_buffer,292855,confidence_buffer,,null,,,,,,,,
1135.6000000014901,,unique_rating,293992,unique_rating,,50,,2,,,,,,
null,,confidence_buffer,294093,confidence_buffer,,null,,,,,,,,
1861.3999999985099,,memorable_rating,295956,memorable_rating,,49,,1,,,,,,
null,,confidence_buffer,296058,confidence_buffer,,null,,,,,,,,
null,,thebreak,296560,break,,null,,,,,,,,
2476.7999999970198,,familiar_rating,299038,familiar_rating,,52,Huntsville,4,,,,,,
null,,confidence_buffer,299139,confidence_buffer,,null,,,,,,,,
1493,,unique_rating,300634,unique_rating,,52,,4,,,,,,
null,,confidence_buffer,300735,confidence_buffer,,null,,,,,,,,
2100.7999999970198,,memorable_rating,302837,memorable_rating,,51,,3,,,,,,
null,,confidence_buffer,302939,confidence_buffer,,null,,,,,,,,
null,,thebreak,303441,break,,null,,,,,,,,
1771.9000000059605,,familiar_rating,305214,familiar_rating,,49,Gardnerville,1,,,,,,
null,,confidence_buffer,305327,confidence_buffer,,null,,,,,,,,
2053.2999999970198,,unique_rating,307381,unique_rating,,50,,2,,,,,,
null,,confidence_buffer,307483,confidence_buffer,,null,,,,,,,,
382.8999999985099,,memorable_rating,307867,memorable_rating,,50,,2,,,,,,
null,,confidence_buffer,307969,confidence_buffer,,null,,,,,,,,
null,,thebreak,308471,break,,null,,,,,,,,
2016.1999999955297,,familiar_rating,310488,familiar_rating,,53,Boulder,5,,,,,,
null,,confidence_buffer,310590,confidence_buffer,,null,,,,,,,,
1480.5,,unique_rating,312072,unique_rating,,52,,4,,,,,,
null,,confidence_buffer,312173,confidence_buffer,,null,,,,,,,,
1439.5,,memorable_rating,313613,memorable_rating,,53,,5,,,,,,
null,,confidence_buffer,313715,confidence_buffer,,null,,,,,,,,
null,,thebreak,314216,break,,null,,,,,,,,
6121.10000000149,,intro_0,320342,instruct,,32,,,,,,,,
10201.90000000596,,intro_1,330548,instruct,,32,,,,,,,,
10611.10000000149,,intro_2,341166,instruct,,32,,,,,,,,
null,,instruct_dir_4,342686,instruct,,null,,,,,,,,
9964.39999999851,,realistic_rating,352652,realistic_rating,,53,Carmel,5,,,,,,
null,,confidence_buffer,352766,confidence_buffer,,null,,,,,,,,
5048.39999999851,,pt2_unique_rating,357815,pt2_unique_rating,,52,,4,,,,,,
null,,confidence_buffer,357917,confidence_buffer,,null,,,,,,,,
2684.39999999851,,pt2_memorable_rating,360603,pt2_memorable_rating,,52,,4,,,,,,
null,,confidence_buffer,360705,confidence_buffer,,null,,,,,,,,
2265.89999999851,,recognition_phase,362981,recognition_phase,,49,,,,,old,1,1,
null,,confidence_buffer,363088,confidence_buffer,,null,,,,,,,,
3328.39999999851,,confidence,366418,confidence,,52,,,,,,,,4
null,,confidence_buffer,366519,confidence_buffer,,null,,,,,,,,
null,,thebreak,367021,break,,null,,,,,,,,
4197,,realistic_rating,371221,realistic_rating,,51,Berkeley Springs,3,,,,,,
null,,confidence_buffer,371323,confidence_buffer,,null,,,,,,,,
3296.60000000149,,pt2_unique_rating,374621,pt2_unique_rating,,50,,2,,,,,,
null,,confidence_buffer,374723,confidence_buffer,,null,,,,,,,,
1914.2000000029802,,probe_rating,376638,probe_rating,,53,,,5,1,,,,
null,,confidence_buffer,376740,confidence_buffer,,null,,,,,,,,
3530.2999999970198,,pt2_memorable_rating,380272,pt2_memorable_rating,,49,,1,,,,,,
null,,confidence_buffer,380374,confidence_buffer,,null,,,,,,,,
4256.79999999702,,recognition_phase,384631,recognition_phase,,50,,,,,new,1,1,
null,,confidence_buffer,384735,confidence_buffer,,null,,,,,,,,
2772.2999999970198,,confidence,387508,confidence,,52,,,,,,,,4
null,,confidence_buffer,387611,confidence_buffer,,null,,,,,,,,
null,,thebreak,388112,break,,null,,,,,,,,
4775.60000000149,,realistic_rating,392888,realistic_rating,,51,Meadowspire,3,,,,,,
null,,confidence_buffer,392991,confidence_buffer,,null,,,,,,,,
1781.3999999985099,,pt2_unique_rating,394773,pt2_unique_rating,,50,,2,,,,,,
null,,confidence_buffer,394880,confidence_buffer,,null,,,,,,,,
1394.6999999955297,,pt2_memorable_rating,396276,pt2_memorable_rating,,50,,2,,,,,,
null,,confidence_buffer,396378,confidence_buffer,,null,,,,,,,,
3228.8000000044703,,recognition_phase,399609,recognition_phase,,49,,,,,old,1,1,
null,,confidence_buffer,399710,confidence_buffer,,null,,,,,,,,
2818,,confidence,402529,confidence,,51,,,,,,,,3
null,,confidence_buffer,402631,confidence_buffer,,null,,,,,,,,
null,,thebreak,403132,break,,null,,,,,,,,
3617.39999999851,,realistic_rating,406751,realistic_rating,,50,Manistee,2,,,,,,
null,,confidence_buffer,406852,confidence_buffer,,null,,,,,,,,
986.1000000014901,,pt2_unique_rating,407840,pt2_unique_rating,,49,,1,,,,,,
null,,confidence_buffer,407941,confidence_buffer,,null,,,,,,,,
2857.6999999955297,,probe_rating,410800,probe_rating,,52,,,4,1,,,,
null,,confidence_buffer,410902,confidence_buffer,,null,,,,,,,,
3492.2000000029802,,pt2_memorable_rating,414395,pt2_memorable_rating,,50,,2,,,,,,
null,,confidence_buffer,414499,confidence_buffer,,null,,,,,,,,
6949.20000000298,,recognition_phase,421449,recognition_phase,,50,,,,,new,1,1,
null,,confidence_buffer,421551,confidence_buffer,,null,,,,,,,,
2602,,confidence,424154,confidence,,52,,,,,,,,4
null,,confidence_buffer,424256,confidence_buffer,,null,,,,,,,,
null,,thebreak,424757,break,,null,,,,,,,,
4447.20000000298,,realistic_rating,429206,realistic_rating,,51,Clearbrook,3,,,,,,
null,,confidence_buffer,429309,confidence_buffer,,null,,,,,,,,
998.2999999970198,,pt2_unique_rating,430308,pt2_unique_rating,,51,,3,,,,,,
null,,confidence_buffer,430410,confidence_buffer,,null,,,,,,,,
2130.2999999970198,,pt2_memorable_rating,432541,pt2_memorable_rating,,50,,2,,,,,,
null,,confidence_buffer,432643,confidence_buffer,,null,,,,,,,,
3619.7000000029802,,recognition_phase,436264,recognition_phase,,49,,,,,old,1,1,
null,,confidence_buffer,436366,confidence_buffer,,null,,,,,,,,
1958.7000000029802,,confidence,438326,confidence,,50,,,,,,,,2
null,,confidence_buffer,438429,confidence_buffer,,null,,,,,,,,
null,,thebreak,438930,break,,null,,,,,,,,
4056.2999999970198,,realistic_rating,442987,realistic_rating,,51,Stonebrook,3,,,,,,
null,,confidence_buffer,443090,confidence_buffer,,null,,,,,,,,
3516.7000000029802,,pt2_unique_rating,446607,pt2_unique_rating,,50,,2,,,,,,
null,,confidence_buffer,446708,confidence_buffer,,null,,,,,,,,
1446.6000000014901,,pt2_memorable_rating,448156,pt2_memorable_rating,,50,,2,,,,,,
null,,confidence_buffer,448259,confidence_buffer,,null,,,,,,,,
2298,,recognition_phase,450558,recognition_phase,,49,,,,,old,1,1,
null,,confidence_buffer,450659,confidence_buffer,,null,,,,,,,,
1646.5,,confidence,452307,confidence,,52,,,,,,,,4
null,,confidence_buffer,452408,confidence_buffer,,null,,,,,,,,
null,,thebreak,452910,break,,null,,,,,,,,
5405.10000000149,,realistic_rating,458316,realistic_rating,,50,Bar Harbor,2,,,,,,
null,,confidence_buffer,458419,confidence_buffer,,null,,,,,,,,
1338.8999999985099,,pt2_unique_rating,459759,pt2_unique_rating,,50,,2,,,,,,
null,,confidence_buffer,459860,confidence_buffer,,null,,,,,,,,
1422.1000000014901,,pt2_memorable_rating,461283,pt2_memorable_rating,,50,,2,,,,,,
null,,confidence_buffer,461385,confidence_buffer,,null,,,,,,,,
1969.8999999985099,,recognition_phase,463356,recognition_phase,,50,,,,,new,1,1,
null,,confidence_buffer,463457,confidence_buffer,,null,,,,,,,,
1850.5,,confidence,465309,confidence,,52,,,,,,,,4
null,,confidence_buffer,465410,confidence_buffer,,null,,,,,,,,
null,,thebreak,465912,break,,null,,,,,,,,
3751.89999999851,,realistic_rating,469664,realistic_rating,,51,Park City,3,,,,,,
null,,confidence_buffer,469767,confidence_buffer,,null,,,,,,,,
3118.5999999940395,,pt2_unique_rating,472886,pt2_unique_rating,,50,,2,,,,,,
null,,confidence_buffer,472989,confidence_buffer,,null,,,,,,,,
2948.2000000029802,,pt2_memorable_rating,475938,pt2_memorable_rating,,51,,3,,,,,,
null,,confidence_buffer,476040,confidence_buffer,,null,,,,,,,,
3243,,recognition_phase,479285,recognition_phase,,49,,,,,old,1,1,
null,,confidence_buffer,479386,confidence_buffer,,null,,,,,,,,
2012.2999999970198,,confidence,481399,confidence,,52,,,,,,,,4
null,,confidence_buffer,481502,confidence_buffer,,null,,,,,,,,
null,,thebreak,482003,break,,null,,,,,,,,
5023,,realistic_rating,487028,realistic_rating,,49,Alliance,1,,,,,,
null,,confidence_buffer,487129,confidence_buffer,,null,,,,,,,,
1505.5,,pt2_unique_rating,488636,pt2_unique_rating,,50,,2,,,,,,
null,,confidence_buffer,488739,confidence_buffer,,null,,,,,,,,
1684.2000000029802,,pt2_memorable_rating,490424,pt2_memorable_rating,,50,,2,,,,,,
null,,confidence_buffer,490525,confidence_buffer,,null,,,,,,,,
2381.39999999851,,recognition_phase,492908,recognition_phase,,50,,,,,new,1,1,
null,,confidence_buffer,493009,confidence_buffer,,null,,,,,,,,
2369.7999999970198,,confidence,495380,confidence,,52,,,,,,,,4
null,,confidence_buffer,495482,confidence_buffer,,null,,,,,,,,
null,,thebreak,495984,break,,null,,,,,,,,
4909.39999999851,,realistic_rating,500894,realistic_rating,,51,Tamarisk Hills,3,,,,,,
null,,confidence_buffer,500996,confidence_buffer,,null,,,,,,,,
1980.1999999955297,,probe_rating,502977,probe_rating,,53,,,5,1,,,,
null,,confidence_buffer,503079,confidence_buffer,,null,,,,,,,,
2493.3000000044703,,pt2_unique_rating,505574,pt2_unique_rating,,50,,2,,,,,,
null,,confidence_buffer,505675,confidence_buffer,,null,,,,,,,,
897.5,,pt2_memorable_rating,506574,pt2_memorable_rating,,50,,2,,,,,,
null,,confidence_buffer,506684,confidence_buffer,,null,,,,,,,,
2471.3000000044703,,recognition_phase,509157,recognition_phase,,49,,,,,old,1,1,
null,,confidence_buffer,509260,confidence_buffer,,null,,,,,,,,
2021.2000000029802,,confidence,511283,confidence,,52,,,,,,,,4
null,,confidence_buffer,511385,confidence_buffer,,null,,,,,,,,
null,,thebreak,511886,break,,null,,,,,,,,
3878,,realistic_rating,515765,realistic_rating,,50,Barnard,2,,,,,,
null,,confidence_buffer,515868,confidence_buffer,,null,,,,,,,,
1228.1000000014901,,pt2_unique_rating,517098,pt2_unique_rating,,50,,2,,,,,,
null,,confidence_buffer,517200,confidence_buffer,,null,,,,,,,,
1156.1000000014901,,pt2_memorable_rating,518357,pt2_memorable_rating,,50,,2,,,,,,
null,,confidence_buffer,518460,confidence_buffer,,null,,,,,,,,
4366.20000000298,,recognition_phase,522827,recognition_phase,,49,,,,,old,1,1,
null,,confidence_buffer,522929,confidence_buffer,,null,,,,,,,,
2149.6999999955297,,confidence,525080,confidence,,52,,,,,,,,4
null,,confidence_buffer,525181,confidence_buffer,,null,,,,,,,,
null,,thebreak,525683,break,,null,,,,,,,,
2992.60000000149,,realistic_rating,528676,realistic_rating,,51,Silverpine,3,,,,,,
null,,confidence_buffer,528779,confidence_buffer,,null,,,,,,,,
2347.10000000149,,pt2_unique_rating,531129,pt2_unique_rating,,51,,3,,,,,,
null,,confidence_buffer,531231,confidence_buffer,,null,,,,,,,,
2169,,pt2_memorable_rating,533401,pt2_memorable_rating,,52,,4,,,,,,
null,,confidence_buffer,533503,confidence_buffer,,null,,,,,,,,
2204.2999999970198,,recognition_phase,535708,recognition_phase,,49,,,,,old,1,1,
null,,confidence_buffer,535810,confidence_buffer,,null,,,,,,,,
1296.6000000014901,,confidence,537108,confidence,,52,,,,,,,,4
null,,confidence_buffer,537209,confidence_buffer,,null,,,,,,,,
null,,thebreak,537710,break,,null,,,,,,,,
3013.89999999851,,realistic_rating,540725,realistic_rating,,51,Coralridge,3,,,,,,
null,,confidence_buffer,540830,confidence_buffer,,null,,,,,,,,
4407.79999999702,,pt2_unique_rating,545239,pt2_unique_rating,,52,,4,,,,,,
null,,confidence_buffer,545340,confidence_buffer,,null,,,,,,,,
2489.7000000029802,,pt2_memorable_rating,547831,pt2_memorable_rating,,51,,3,,,,,,
null,,confidence_buffer,547932,confidence_buffer,,null,,,,,,,,
7554.60000000149,,recognition_phase,555488,recognition_phase,,49,,,,,old,0,0.9230769230769231,
null,,confidence_buffer,555591,confidence_buffer,,null,,,,,,,,
1339.5,,confidence,556932,confidence,,52,,,,,,,,4
null,,confidence_buffer,557034,confidence_buffer,,null,,,,,,,,
null,,thebreak,557536,break,,null,,,,,,,,
2791.6999999955297,,realistic_rating,560328,realistic_rating,,51,Fairhaven,3,,,,,,
null,,confidence_buffer,560431,confidence_buffer,,null,,,,,,,,
859.5,,pt2_unique_rating,561291,pt2_unique_rating,,52,,4,,,,,,
null,,confidence_buffer,561393,confidence_buffer,,null,,,,,,,,
1645.2999999970198,,pt2_memorable_rating,563040,pt2_memorable_rating,,51,,3,,,,,,
null,,confidence_buffer,563141,confidence_buffer,,null,,,,,,,,
2335.39999999851,,recognition_phase,565477,recognition_phase,,49,,,,,old,1,0.9285714285714286,
null,,confidence_buffer,565579,confidence_buffer,,null,,,,,,,,
886.5,,confidence,566466,confidence,,52,,,,,,,,4
null,,confidence_buffer,566568,confidence_buffer,,null,,,,,,,,
null,,thebreak,567069,break,,null,,,,,,,,
3631.39999999851,,realistic_rating,570702,realistic_rating,,50,Watkins Glen,2,,,,,,
null,,confidence_buffer,570805,confidence_buffer,,null,,,,,,,,
974.3000000044703,,pt2_unique_rating,571780,pt2_unique_rating,,51,,3,,,,,,
null,,confidence_buffer,571882,confidence_buffer,,null,,,,,,,,
2225.89999999851,,pt2_memorable_rating,574109,pt2_memorable_rating,,50,,2,,,,,,
null,,confidence_buffer,574211,confidence_buffer,,null,,,,,,,,
6104.5,,recognition_phase,580317,recognition_phase,,50,,,,,new,1,0.9333333333333333,
null,,confidence_buffer,580418,confidence_buffer,,null,,,,,,,,
2494.6999999955297,,confidence,582914,confidence,,51,,,,,,,,3
null,,confidence_buffer,583015,confidence_buffer,,null,,,,,,,,
null,,thebreak,583516,break,,null,,,,,,,,
3892,,realistic_rating,587409,realistic_rating,,51,Willowford,3,,,,,,
null,,confidence_buffer,587510,confidence_buffer,,null,,,,,,,,
2275.5,,pt2_unique_rating,589787,pt2_unique_rating,,50,,2,,,,,,
null,,confidence_buffer,589889,confidence_buffer,,null,,,,,,,,
1999.3999999985099,,pt2_memorable_rating,591889,pt2_memorable_rating,,50,,2,,,,,,
null,,confidence_buffer,591991,confidence_buffer,,null,,,,,,,,
1705.2000000029802,,recognition_phase,593698,recognition_phase,,49,,,,,old,1,0.9375,
null,,confidence_buffer,593800,confidence_buffer,,null,,,,,,,,
1379.4000000059605,,confidence,595180,confidence,,52,,,,,,,,4
null,,confidence_buffer,595282,confidence_buffer,,null,,,,,,,,
null,,thebreak,595784,break,,null,,,,,,,,
3658.2000000029802,,realistic_rating,599443,realistic_rating,,53,West Palm Beach,5,,,,,,
null,,confidence_buffer,599545,confidence_buffer,,null,,,,,,,,
3743,,pt2_unique_rating,603289,pt2_unique_rating,,52,,4,,,,,,
null,,confidence_buffer,603391,confidence_buffer,,null,,,,,,,,
1498.3000000044703,,pt2_memorable_rating,604890,pt2_memorable_rating,,53,,5,,,,,,
null,,confidence_buffer,604992,confidence_buffer,,null,,,,,,,,
3078.60000000149,,probe_rating,608072,probe_rating,,50,,,2,1,,,,
null,,confidence_buffer,608174,confidence_buffer,,null,,,,,,,,
2091.39999999851,,recognition_phase,610266,recognition_phase,,50,,,,,new,1,0.9411764705882353,
null,,confidence_buffer,610369,confidence_buffer,,null,,,,,,,,
1959.2999999970198,,confidence,612329,confidence,,52,,,,,,,,4
null,,confidence_buffer,612432,confidence_buffer,,null,,,,,,,,
null,,thebreak,612933,break,,null,,,,,,,,
3591.5,,realistic_rating,616526,realistic_rating,,49,Folly Beach,1,,,,,,
null,,confidence_buffer,616630,confidence_buffer,,null,,,,,,,,
816.2000000029802,,pt2_unique_rating,617447,pt2_unique_rating,,50,,2,,,,,,
null,,confidence_buffer,617548,confidence_buffer,,null,,,,,,,,
2281.6999999955297,,pt2_memorable_rating,619831,pt2_memorable_rating,,50,,2,,,,,,
null,,confidence_buffer,619933,confidence_buffer,,null,,,,,,,,
1636.0999999940395,,recognition_phase,621570,recognition_phase,,50,,,,,new,1,0.9444444444444444,
null,,confidence_buffer,621671,confidence_buffer,,null,,,,,,,,
1687.7000000029802,,confidence,623360,confidence,,52,,,,,,,,4
null,,confidence_buffer,623462,confidence_buffer,,null,,,,,,,,
null,,thebreak,623964,break,,null,,,,,,,,
2798.39999999851,,realistic_rating,626763,realistic_rating,,53,Hilo,5,,,,,,
null,,confidence_buffer,626865,confidence_buffer,,null,,,,,,,,
1663.7000000029802,,probe_rating,628530,probe_rating,,52,,,4,1,,,,
null,,confidence_buffer,628632,confidence_buffer,,null,,,,,,,,
1765.2000000029802,,pt2_unique_rating,630398,pt2_unique_rating,,52,,4,,,,,,
null,,confidence_buffer,630500,confidence_buffer,,null,,,,,,,,
1465.8999999985099,,pt2_memorable_rating,631967,pt2_memorable_rating,,53,,5,,,,,,
null,,confidence_buffer,632069,confidence_buffer,,null,,,,,,,,
2084.2000000029802,,recognition_phase,634154,recognition_phase,,50,,,,,new,1,0.9473684210526315,
null,,confidence_buffer,634255,confidence_buffer,,null,,,,,,,,
1276.6000000014901,,confidence,635533,confidence,,52,,,,,,,,4
null,,confidence_buffer,635635,confidence_buffer,,null,,,,,,,,
null,,thebreak,636136,break,,null,,,,,,,,
4018.2999999970198,,realistic_rating,640155,realistic_rating,,51,Granton Ridge,3,,,,,,
null,,confidence_buffer,640257,confidence_buffer,,null,,,,,,,,
1117.8999999985099,,pt2_unique_rating,641376,pt2_unique_rating,,51,,3,,,,,,
null,,confidence_buffer,641478,confidence_buffer,,null,,,,,,,,
2685.39999999851,,probe_rating,644165,probe_rating,,51,,,3,1,,,,
null,,confidence_buffer,644268,confidence_buffer,,null,,,,,,,,
1447.8999999985099,,pt2_memorable_rating,645717,pt2_memorable_rating,,50,,2,,,,,,
null,,confidence_buffer,645819,confidence_buffer,,null,,,,,,,,
3788.2999999970198,,recognition_phase,649608,recognition_phase,,50,,,,,new,1,0.95,
null,,confidence_buffer,649710,confidence_buffer,,null,,,,,,,,
1800,,confidence,651511,confidence,,51,,,,,,,,3
null,,confidence_buffer,651613,confidence_buffer,,null,,,,,,,,
null,,thebreak,652114,break,,null,,,,,,,,
2238,,realistic_rating,654353,realistic_rating,,50,Highvale,2,,,,,,
null,,confidence_buffer,654455,confidence_buffer,,null,,,,,,,,
2153.7000000029802,,pt2_unique_rating,656610,pt2_unique_rating,,49,,1,,,,,,
null,,confidence_buffer,656712,confidence_buffer,,null,,,,,,,,
1037.3000000044703,,pt2_memorable_rating,657751,pt2_memorable_rating,,49,,1,,,,,,
null,,confidence_buffer,657853,confidence_buffer,,null,,,,,,,,
1498.5,,recognition_phase,659352,recognition_phase,,50,,,,,new,1,0.9523809523809523,
null,,confidence_buffer,659454,confidence_buffer,,null,,,,,,,,
2014.3999999985099,,confidence,661470,confidence,,52,,,,,,,,4
null,,confidence_buffer,661572,confidence_buffer,,null,,,,,,,,
null,,thebreak,662073,break,,null,,,,,,,,
3254,,realistic_rating,665329,realistic_rating,,51,Healdsburg,3,,,,,,
null,,confidence_buffer,665431,confidence_buffer,,null,,,,,,,,
1547.3999999985099,,pt2_unique_rating,666979,pt2_unique_rating,,51,,3,,,,,,
null,,confidence_buffer,667081,confidence_buffer,,null,,,,,,,,
1782,,pt2_memorable_rating,668864,pt2_memorable_rating,,50,,2,,,,,,
null,,confidence_buffer,668967,confidence_buffer,,null,,,,,,,,
3365.7000000029802,,recognition_phase,672333,recognition_phase,,50,,,,,new,1,0.9545454545454546,
null,,confidence_buffer,672435,confidence_buffer,,null,,,,,,,,
1386.8000000044703,,confidence,673823,confidence,,52,,,,,,,,4
null,,confidence_buffer,673924,confidence_buffer,,null,,,,,,,,
null,,thebreak,674425,break,,null,,,,,,,,
1632.3999999985099,,realistic_rating,676059,realistic_rating,,53,Cleveland,5,,,,,,
null,,confidence_buffer,676161,confidence_buffer,,null,,,,,,,,
1722.7999999970198,,probe_rating,677885,probe_rating,,52,,,4,1,,,,
null,,confidence_buffer,678001,confidence_buffer,,null,,,,,,,,
2594.3000000044703,,pt2_unique_rating,680597,pt2_unique_rating,,51,,3,,,,,,
null,,confidence_buffer,680699,confidence_buffer,,null,,,,,,,,
2894.5999999940395,,pt2_memorable_rating,683595,pt2_memorable_rating,,53,,5,,,,,,
null,,confidence_buffer,683711,confidence_buffer,,null,,,,,,,,
3858.7999999970198,,recognition_phase,687571,recognition_phase,,50,,,,,new,1,0.9565217391304348,
null,,confidence_buffer,687672,confidence_buffer,,null,,,,,,,,
1475.8999999985099,,confidence,689150,confidence,,52,,,,,,,,4
null,,confidence_buffer,689251,confidence_buffer,,null,,,,,,,,
null,,thebreak,689753,break,,null,,,,,,,,
5090.89999999851,,realistic_rating,694846,realistic_rating,,51,Redgrove,3,,,,,,
null,,confidence_buffer,694949,confidence_buffer,,null,,,,,,,,
2653,,pt2_unique_rating,697604,pt2_unique_rating,,50,,2,,,,,,
null,,confidence_buffer,697719,confidence_buffer,,null,,,,,,,,
2392.5999999940395,,probe_rating,700113,probe_rating,,52,,,4,1,,,,
null,,confidence_buffer,700224,confidence_buffer,,null,,,,,,,,
2154.39999999851,,pt2_memorable_rating,702380,pt2_memorable_rating,,50,,2,,,,,,
null,,confidence_buffer,702482,confidence_buffer,,null,,,,,,,,
3758.5,,recognition_phase,706241,recognition_phase,,49,,,,,old,0,0.9166666666666666,
null,,confidence_buffer,706343,confidence_buffer,,null,,,,,,,,
1904.7000000029802,,confidence,708249,confidence,,51,,,,,,,,3
null,,confidence_buffer,708351,confidence_buffer,,null,,,,,,,,
null,,thebreak,708853,break,,null,,,,,,,,
4470.0999999940395,,realistic_rating,713324,realistic_rating,,51,Sitka,3,,,,,,
null,,confidence_buffer,713427,confidence_buffer,,null,,,,,,,,
2647.7000000029802,,pt2_unique_rating,716076,pt2_unique_rating,,50,,2,,,,,,
null,,confidence_buffer,716178,confidence_buffer,,null,,,,,,,,
1623.9000000059605,,pt2_memorable_rating,717803,pt2_memorable_rating,,50,,2,,,,,,
null,,confidence_buffer,717905,confidence_buffer,,null,,,,,,,,
1892.7999999970198,,recognition_phase,719800,recognition_phase,,49,,,,,old,1,0.92,
null,,confidence_buffer,719902,confidence_buffer,,null,,,,,,,,
1237.2999999970198,,confidence,721140,confidence,,52,,,,,,,,4
null,,confidence_buffer,721243,confidence_buffer,,null,,,,,,,,
null,,thebreak,721745,break,,null,,,,,,,,
2497.5999999940395,,realistic_rating,724247,realistic_rating,,49,Duck,1,,,,,,
null,,confidence_buffer,724349,confidence_buffer,,null,,,,,,,,
3528.7999999970198,,pt2_unique_rating,727879,pt2_unique_rating,,50,,2,,,,,,
null,,confidence_buffer,727982,confidence_buffer,,null,,,,,,,,
3213.0999999940395,,pt2_memorable_rating,731196,pt2_memorable_rating,,51,,3,,,,,,
null,,confidence_buffer,731299,confidence_buffer,,null,,,,,,,,
2665.5,,recognition_phase,733966,recognition_phase,,50,,,,,new,1,0.9230769230769231,
null,,confidence_buffer,734069,confidence_buffer,,null,,,,,,,,
1044.0999999940395,,confidence,735114,confidence,,52,,,,,,,,4
null,,confidence_buffer,735216,confidence_buffer,,null,,,,,,,,
null,,thebreak,735717,break,,null,,,,,,,,
4435.5,,realistic_rating,740154,realistic_rating,,51,Cedarwyn,3,,,,,,
null,,confidence_buffer,740257,confidence_buffer,,null,,,,,,,,
2500,,probe_rating,742758,probe_rating,,53,,,5,1,,,,
null,,confidence_buffer,742860,confidence_buffer,,null,,,,,,,,
2515.7999999970198,,pt2_unique_rating,745377,pt2_unique_rating,,51,,3,,,,,,
null,,confidence_buffer,745479,confidence_buffer,,null,,,,,,,,
1655.5,,pt2_memorable_rating,747136,pt2_memorable_rating,,50,,2,,,,,,
null,,confidence_buffer,747239,confidence_buffer,,null,,,,,,,,
3237.7000000029802,,recognition_phase,750477,recognition_phase,,50,,,,,new,1,0.9259259259259259,
null,,confidence_buffer,750579,confidence_buffer,,null,,,,,,,,
811.8999999985099,,confidence,751392,confidence,,51,,,,,,,,3
null,,confidence_buffer,751494,confidence_buffer,,null,,,,,,,,
null,,thebreak,751995,break,,null,,,,,,,,
2546.8000000044703,,realistic_rating,754543,realistic_rating,,53,Boulder,5,,,,,,
null,,confidence_buffer,754645,confidence_buffer,,null,,,,,,,,
1261,,pt2_unique_rating,755907,pt2_unique_rating,,52,,4,,,,,,
null,,confidence_buffer,756009,confidence_buffer,,null,,,,,,,,
2184.10000000149,,pt2_memorable_rating,758194,pt2_memorable_rating,,53,,5,,,,,,
null,,confidence_buffer,758296,confidence_buffer,,null,,,,,,,,
2823.1999999955297,,recognition_phase,761120,recognition_phase,,49,,,,,old,1,0.9285714285714286,
null,,confidence_buffer,761222,confidence_buffer,,null,,,,,,,,
1350.8999999985099,,confidence,762574,confidence,,52,,,,,,,,4
null,,confidence_buffer,762675,confidence_buffer,,null,,,,,,,,
null,,thebreak,763178,break,,null,,,,,,,,
5508.10000000149,,realistic_rating,768687,realistic_rating,,52,Claywater,4,,,,,,
null,,confidence_buffer,768789,confidence_buffer,,null,,,,,,,,
1744.2000000029802,,pt2_unique_rating,770534,pt2_unique_rating,,51,,3,,,,,,
null,,confidence_buffer,770651,confidence_buffer,,null,,,,,,,,
1486.3000000044703,,pt2_memorable_rating,772138,pt2_memorable_rating,,50,,2,,,,,,
null,,confidence_buffer,772240,confidence_buffer,,null,,,,,,,,
2084.7000000029802,,recognition_phase,774326,recognition_phase,,49,,,,,old,1,0.9310344827586207,
null,,confidence_buffer,774427,confidence_buffer,,null,,,,,,,,
1010.6000000014901,,confidence,775439,confidence,,52,,,,,,,,4
null,,confidence_buffer,775540,confidence_buffer,,null,,,,,,,,
null,,thebreak,776042,break,,null,,,,,,,,
3751,,realistic_rating,779794,realistic_rating,,51,Millstone,3,,,,,,
null,,confidence_buffer,779897,confidence_buffer,,null,,,,,,,,
2198.39999999851,,pt2_unique_rating,782097,pt2_unique_rating,,50,,2,,,,,,
null,,confidence_buffer,782199,confidence_buffer,,null,,,,,,,,
1675.1000000014901,,probe_rating,783875,probe_rating,,52,,,4,1,,,,
null,,confidence_buffer,783977,confidence_buffer,,null,,,,,,,,
1916.2000000029802,,pt2_memorable_rating,785894,pt2_memorable_rating,,51,,3,,,,,,
null,,confidence_buffer,786004,confidence_buffer,,null,,,,,,,,
3009.2000000029802,,recognition_phase,789014,recognition_phase,,50,,,,,new,1,0.9333333333333333,
null,,confidence_buffer,789128,confidence_buffer,,null,,,,,,,,
1333.3999999985099,,confidence,790463,confidence,,51,,,,,,,,3
null,,confidence_buffer,790565,confidence_buffer,,null,,,,,,,,
null,,thebreak,791067,break,,null,,,,,,,,
2896.39999999851,,realistic_rating,793964,realistic_rating,,53,Huntsville,5,,,,,,
null,,confidence_buffer,794067,confidence_buffer,,null,,,,,,,,
2682.10000000149,,pt2_unique_rating,796750,pt2_unique_rating,,52,,4,,,,,,
null,,confidence_buffer,796852,confidence_buffer,,null,,,,,,,,
1550.6000000014901,,probe_rating,798404,probe_rating,,52,,,4,1,,,,
null,,confidence_buffer,798506,confidence_buffer,,null,,,,,,,,
1514.5,,pt2_memorable_rating,800022,pt2_memorable_rating,,53,,5,,,,,,
null,,confidence_buffer,800124,confidence_buffer,,null,,,,,,,,
2343.9000000059605,,recognition_phase,802469,recognition_phase,,49,,,,,old,1,0.9354838709677419,
null,,confidence_buffer,802571,confidence_buffer,,null,,,,,,,,
1504.8999999985099,,confidence,804077,confidence,,52,,,,,,,,4
null,,confidence_buffer,804179,confidence_buffer,,null,,,,,,,,
null,,thebreak,804681,break,,null,,,,,,,,
2332.1999999955297,,realistic_rating,807014,realistic_rating,,51,Custer,3,,,,,,
null,,confidence_buffer,807116,confidence_buffer,,null,,,,,,,,
1420.2000000029802,,pt2_unique_rating,808537,pt2_unique_rating,,50,,2,,,,,,
null,,confidence_buffer,808639,confidence_buffer,,null,,,,,,,,
950,,pt2_memorable_rating,809591,pt2_memorable_rating,,50,,2,,,,,,
null,,confidence_buffer,809692,confidence_buffer,,null,,,,,,,,
1501.6000000014901,,recognition_phase,811194,recognition_phase,,49,,,,,old,1,0.9375,
null,,confidence_buffer,811297,confidence_buffer,,null,,,,,,,,
1774.1999999955297,,confidence,813073,confidence,,52,,,,,,,,4
null,,confidence_buffer,813174,confidence_buffer,,null,,,,,,,,
null,,thebreak,813675,break,,null,,,,,,,,
2806.5,,realistic_rating,816483,realistic_rating,,51,Cornwall,3,,,,,,
null,,confidence_buffer,816585,confidence_buffer,,null,,,,,,,,
2302.2999999970198,,pt2_unique_rating,818888,pt2_unique_rating,,50,,2,,,,,,
null,,confidence_buffer,818990,confidence_buffer,,null,,,,,,,,
1593.2000000029802,,pt2_memorable_rating,820584,pt2_memorable_rating,,50,,2,,,,,,
null,,confidence_buffer,820686,confidence_buffer,,null,,,,,,,,
2559.2000000029802,,recognition_phase,823246,recognition_phase,,49,,,,,old,0,0.9090909090909091,
null,,confidence_buffer,823349,confidence_buffer,,null,,,,,,,,
1474.4000000059605,,confidence,824825,confidence,,51,,,,,,,,3
null,,confidence_buffer,824941,confidence_buffer,,null,,,,,,,,
null,,thebreak,825443,break,,null,,,,,,,,
2072.6999999955297,,realistic_rating,827516,realistic_rating,,51,Elmsbury,3,,,,,,
null,,confidence_buffer,827618,confidence_buffer,,null,,,,,,,,
1134.5,,pt2_unique_rating,828754,pt2_unique_rating,,51,,3,,,,,,
null,,confidence_buffer,828856,confidence_buffer,,null,,,,,,,,
876.4000000059605,,pt2_memorable_rating,829733,pt2_memorable_rating,,50,,2,,,,,,
null,,confidence_buffer,829835,confidence_buffer,,null,,,,,,,,
2635.7999999970198,,recognition_phase,832472,recognition_phase,,50,,,,,new,1,0.9117647058823529,
null,,confidence_buffer,832573,confidence_buffer,,null,,,,,,,,
1189.5,,confidence,833764,confidence,,51,,,,,,,,3
null,,confidence_buffer,833866,confidence_buffer,,null,,,,,,,,
null,,thebreak,834369,break,,null,,,,,,,,
1976.2999999970198,,realistic_rating,836346,realistic_rating,,53,Albuquerque,5,,,,,,
null,,confidence_buffer,836448,confidence_buffer,,null,,,,,,,,
2267.10000000149,,pt2_unique_rating,838717,pt2_unique_rating,,53,,5,,,,,,
null,,confidence_buffer,838819,confidence_buffer,,null,,,,,,,,
2729.8000000044703,,pt2_memorable_rating,841550,pt2_memorable_rating,,53,,5,,,,,,
null,,confidence_buffer,841651,confidence_buffer,,null,,,,,,,,
1969.5999999940395,,recognition_phase,843622,recognition_phase,,49,,,,,old,1,0.9142857142857143,
null,,confidence_buffer,843723,confidence_buffer,,null,,,,,,,,
1871.7000000029802,,confidence,845596,confidence,,52,,,,,,,,4
null,,confidence_buffer,845698,confidence_buffer,,null,,,,,,,,
null,,thebreak,846199,break,,null,,,,,,,,
3510.5999999940395,,realistic_rating,849711,realistic_rating,,50,New Verdan,2,,,,,,
null,,confidence_buffer,849813,confidence_buffer,,null,,,,,,,,
1264.7000000029802,,pt2_unique_rating,851079,pt2_unique_rating,,50,,2,,,,,,
null,,confidence_buffer,851181,confidence_buffer,,null,,,,,,,,
1190.8999999985099,,pt2_memorable_rating,852373,pt2_memorable_rating,,49,,1,,,,,,
null,,confidence_buffer,852475,confidence_buffer,,null,,,,,,,,
1699.7999999970198,,recognition_phase,854177,recognition_phase,,50,,,,,new,1,0.9166666666666666,
null,,confidence_buffer,854279,confidence_buffer,,null,,,,,,,,
925,,confidence,855205,confidence,,52,,,,,,,,4
null,,confidence_buffer,855307,confidence_buffer,,null,,,,,,,,
null,,thebreak,855808,break,,null,,,,,,,,
2426.2999999970198,,realistic_rating,858236,realistic_rating,,51,Rosehollow,3,,,,,,
null,,confidence_buffer,858338,confidence_buffer,,null,,,,,,,,
775.7000000029802,,pt2_unique_rating,859114,pt2_unique_rating,,50,,2,,,,,,
null,,confidence_buffer,859216,confidence_buffer,,null,,,,,,,,
667.7000000029802,,pt2_memorable_rating,859884,pt2_memorable_rating,,50,,2,,,,,,
null,,confidence_buffer,859986,confidence_buffer,,null,,,,,,,,
2523.89999999851,,recognition_phase,862511,recognition_phase,,49,,,,,old,1,0.918918918918919,
null,,confidence_buffer,862613,confidence_buffer,,null,,,,,,,,
1085.7000000029802,,confidence,863700,confidence,,52,,,,,,,,4
null,,confidence_buffer,863801,confidence_buffer,,null,,,,,,,,
null,,thebreak,864303,break,,null,,,,,,,,
1783,,realistic_rating,866087,realistic_rating,,51,Summershade,3,,,,,,
null,,confidence_buffer,866189,confidence_buffer,,null,,,,,,,,
680.5,,pt2_unique_rating,866871,pt2_unique_rating,,50,,2,,,,,,
null,,confidence_buffer,866972,confidence_buffer,,null,,,,,,,,
817.5,,pt2_memorable_rating,867791,pt2_memorable_rating,,50,,2,,,,,,
null,,confidence_buffer,867892,confidence_buffer,,null,,,,,,,,
2943.7999999970198,,recognition_phase,870837,recognition_phase,,49,,,,,old,1,0.9210526315789473,
null,,confidence_buffer,870939,confidence_buffer,,null,,,,,,,,
1165.7999999970198,,confidence,872106,confidence,,52,,,,,,,,4
null,,confidence_buffer,872207,confidence_buffer,,null,,,,,,,,
null,,thebreak,872709,break,,null,,,,,,,,
3245.7999999970198,,realistic_rating,875956,realistic_rating,,51,Baymarsh,3,,,,,,
null,,confidence_buffer,876058,confidence_buffer,,null,,,,,,,,
1444.4000000059605,,pt2_unique_rating,877504,pt2_unique_rating,,50,,2,,,,,,
null,,confidence_buffer,877606,confidence_buffer,,null,,,,,,,,
925.7000000029802,,pt2_memorable_rating,878533,pt2_memorable_rating,,50,,2,,,,,,
null,,confidence_buffer,878634,confidence_buffer,,null,,,,,,,,
1969.7000000029802,,recognition_phase,880605,recognition_phase,,49,,,,,old,0,0.8974358974358975,
null,,confidence_buffer,880706,confidence_buffer,,null,,,,,,,,
527.6000000014901,,confidence,881235,confidence,,52,,,,,,,,4
null,,confidence_buffer,881337,confidence_buffer,,null,,,,,,,,
null,,thebreak,881839,break,,null,,,,,,,,
2031.5,,realistic_rating,883872,realistic_rating,,53,Bisbee,5,,,,,,
null,,confidence_buffer,883974,confidence_buffer,,null,,,,,,,,
1410.1000000014901,,probe_rating,885385,probe_rating,,52,,,4,0,,,,
null,,confidence_buffer,885495,confidence_buffer,,null,,,,,,,,
8329.29999999702,,pt2_unique_rating,893826,pt2_unique_rating,,53,,5,,,,,,
null,,confidence_buffer,893927,confidence_buffer,,null,,,,,,,,
1755.2000000029802,,pt2_memorable_rating,895683,pt2_memorable_rating,,53,,5,,,,,,
null,,confidence_buffer,895785,confidence_buffer,,null,,,,,,,,
3308.3000000044703,,recognition_phase,899094,recognition_phase,,49,,,,,old,1,0.9,
null,,confidence_buffer,899196,confidence_buffer,,null,,,,,,,,
1474.5,,confidence,900672,confidence,,52,,,,,,,,4
null,,confidence_buffer,900773,confidence_buffer,,null,,,,,,,,
null,,thebreak,901275,break,,null,,,,,,,,
2228.2999999970198,,realistic_rating,903504,realistic_rating,,51,Pine Hollow,3,,,,,,
null,,confidence_buffer,903607,confidence_buffer,,null,,,,,,,,
2139.5,,probe_rating,905748,probe_rating,,52,,,4,1,,,,
null,,confidence_buffer,905850,confidence_buffer,,null,,,,,,,,
2567.4000000059605,,pt2_unique_rating,908418,pt2_unique_rating,,51,,3,,,,,,
null,,confidence_buffer,908520,confidence_buffer,,null,,,,,,,,
1978.5,,pt2_memorable_rating,910500,pt2_memorable_rating,,51,,3,,,,,,
null,,confidence_buffer,910601,confidence_buffer,,null,,,,,,,,
1965.5,,recognition_phase,912568,recognition_phase,,49,,,,,old,0,0.8780487804878049,
null,,confidence_buffer,912670,confidence_buffer,,null,,,,,,,,
1341.1999999955297,,confidence,914012,confidence,,52,,,,,,,,4
null,,confidence_buffer,914115,confidence_buffer,,null,,,,,,,,
null,,thebreak,914616,break,,null,,,,,,,,
1887.2999999970198,,realistic_rating,916504,realistic_rating,,53,Newport,5,,,,,,
null,,confidence_buffer,916606,confidence_buffer,,null,,,,,,,,
1219.6000000014901,,pt2_unique_rating,917827,pt2_unique_rating,,53,,5,,,,,,
null,,confidence_buffer,917929,confidence_buffer,,null,,,,,,,,
1830.6999999955297,,probe_rating,919760,probe_rating,,49,,,1,1,,,,
null,,confidence_buffer,919862,confidence_buffer,,null,,,,,,,,
3097.60000000149,,pt2_memorable_rating,922961,pt2_memorable_rating,,53,,5,,,,,,
null,,confidence_buffer,923063,confidence_buffer,,null,,,,,,,,
1456.7000000029802,,recognition_phase,924520,recognition_phase,,49,,,,,old,1,0.8809523809523809,
null,,confidence_buffer,924622,confidence_buffer,,null,,,,,,,,
1674.1000000014901,,confidence,926297,confidence,,52,,,,,,,,4
null,,confidence_buffer,926399,confidence_buffer,,null,,,,,,,,
null,,thebreak,926901,break,,null,,,,,,,,
2207.39999999851,,realistic_rating,929110,realistic_rating,,51,Brookmere,3,,,,,,
null,,confidence_buffer,929212,confidence_buffer,,null,,,,,,,,
1654.5,,pt2_unique_rating,930867,pt2_unique_rating,,50,,2,,,,,,
null,,confidence_buffer,930969,confidence_buffer,,null,,,,,,,,
1659.8999999985099,,pt2_memorable_rating,932630,pt2_memorable_rating,,50,,2,,,,,,
null,,confidence_buffer,932732,confidence_buffer,,null,,,,,,,,
1850.8999999985099,,recognition_phase,934584,recognition_phase,,49,,,,,old,1,0.8837209302325582,
null,,confidence_buffer,934685,confidence_buffer,,null,,,,,,,,
1131,,confidence,935817,confidence,,52,,,,,,,,4
null,,confidence_buffer,935919,confidence_buffer,,null,,,,,,,,
null,,thebreak,936421,break,,null,,,,,,,,
3335.1999999955297,,realistic_rating,939758,realistic_rating,,52,Gloucester,4,,,,,,
null,,confidence_buffer,939860,confidence_buffer,,null,,,,,,,,
3072.1999999955297,,pt2_unique_rating,942933,pt2_unique_rating,,51,,3,,,,,,
null,,confidence_buffer,943035,confidence_buffer,,null,,,,,,,,
1951.3999999985099,,pt2_memorable_rating,944987,pt2_memorable_rating,,51,,3,,,,,,
null,,confidence_buffer,945089,confidence_buffer,,null,,,,,,,,
3062.3000000044703,,recognition_phase,948153,recognition_phase,,50,,,,,new,1,0.8863636363636364,
null,,confidence_buffer,948255,confidence_buffer,,null,,,,,,,,
1450.8999999985099,,confidence,949706,confidence,,51,,,,,,,,3
null,,confidence_buffer,949808,confidence_buffer,,null,,,,,,,,
null,,thebreak,950309,break,,null,,,,,,,,
2918.10000000149,,realistic_rating,953229,realistic_rating,,51,Maplehurst,3,,,,,,
null,,confidence_buffer,953331,confidence_buffer,,null,,,,,,,,
1478.3999999985099,,pt2_unique_rating,954811,pt2_unique_rating,,50,,2,,,,,,
null,,confidence_buffer,954914,confidence_buffer,,null,,,,,,,,
1649.5,,pt2_memorable_rating,956565,pt2_memorable_rating,,50,,2,,,,,,
null,,confidence_buffer,956667,confidence_buffer,,null,,,,,,,,
2942.89999999851,,recognition_phase,959612,recognition_phase,,49,,,,,old,0,0.8666666666666667,
null,,confidence_buffer,959713,confidence_buffer,,null,,,,,,,,
1548.1999999955297,,confidence,961262,confidence,,51,,,,,,,,3
null,,confidence_buffer,961364,confidence_buffer,,null,,,,,,,,
null,,thebreak,961866,break,,null,,,,,,,,
4405,,realistic_rating,966273,realistic_rating,,52,Gardnerville,4,,,,,,
null,,confidence_buffer,966376,confidence_buffer,,null,,,,,,,,
1139.7999999970198,,pt2_unique_rating,967518,pt2_unique_rating,,51,,3,,,,,,
null,,confidence_buffer,967619,confidence_buffer,,null,,,,,,,,
1637.7999999970198,,pt2_memorable_rating,969258,pt2_memorable_rating,,50,,2,,,,,,
null,,confidence_buffer,969360,confidence_buffer,,null,,,,,,,,
4048.2000000029802,,recognition_phase,973410,recognition_phase,,50,,,,,new,0,0.8478260869565217,
null,,confidence_buffer,973512,confidence_buffer,,null,,,,,,,,
2906.60000000149,,confidence,976420,confidence,,50,,,,,,,,2
null,,confidence_buffer,976521,confidence_buffer,,null,,,,,,,,
null,,thebreak,977023,break,,null,,,,,,,,
3586.2000000029802,,realistic_rating,980611,realistic_rating,,51,Sierra Hollow,3,,,,,,
null,,confidence_buffer,980712,confidence_buffer,,null,,,,,,,,
2742.39999999851,,pt2_unique_rating,983456,pt2_unique_rating,,51,,3,,,,,,
null,,confidence_buffer,983559,confidence_buffer,,null,,,,,,,,
2688.2000000029802,,pt2_memorable_rating,986248,pt2_memorable_rating,,50,,2,,,,,,
null,,confidence_buffer,986349,confidence_buffer,,null,,,,,,,,
1861,,recognition_phase,988211,recognition_phase,,49,,,,,old,1,0.851063829787234,
null,,confidence_buffer,988313,confidence_buffer,,null,,,,,,,,
604.7999999970198,,confidence,988919,confidence,,52,,,,,,,,4
null,,confidence_buffer,989020,confidence_buffer,,null,,,,,,,,
null,,thebreak,989527,break,,null,,,,,,,,
2868.5,,realistic_rating,992397,realistic_rating,,50,Cody,2,,,,,,
null,,confidence_buffer,992499,confidence_buffer,,null,,,,,,,,
2052.8000000044703,,pt2_unique_rating,994553,pt2_unique_rating,,50,,2,,,,,,
null,,confidence_buffer,994656,confidence_buffer,,null,,,,,,,,
1869.8999999985099,,pt2_memorable_rating,996527,pt2_memorable_rating,,49,,1,,,,,,
null,,confidence_buffer,996629,confidence_buffer,,null,,,,,,,,
1495.5,,recognition_phase,998125,recognition_phase,,49,,,,,old,1,0.8541666666666666,
null,,confidence_buffer,998228,confidence_buffer,,null,,,,,,,,
1247.8000000044703,,confidence,999477,confidence,,52,,,,,,,,4
null,,confidence_buffer,999579,confidence_buffer,,null,,,,,,,,
null,,thebreak,1000080,break,,null,,,,,,,,
2106.5,,realistic_rating,1002188,realistic_rating,,51,Bayshore Haven,3,,,,,,
null,,confidence_buffer,1002290,confidence_buffer,,null,,,,,,,,
1265,,pt2_unique_rating,1003556,pt2_unique_rating,,50,,2,,,,,,
null,,confidence_buffer,1003665,confidence_buffer,,null,,,,,,,,
2182.2999999970198,,pt2_memorable_rating,1005848,pt2_memorable_rating,,50,,2,,,,,,
null,,confidence_buffer,1005951,confidence_buffer,,null,,,,,,,,
1842.3000000044703,,recognition_phase,1007794,recognition_phase,,49,,,,,old,1,0.8571428571428571,
null,,confidence_buffer,1007897,confidence_buffer,,null,,,,,,,,
1237.2999999970198,,confidence,1009135,confidence,,52,,,,,,,,4
null,,confidence_buffer,1009244,confidence_buffer,,null,,,,,,,,
null,,thebreak,1009745,break,,null,,,,,,,,
3153.8000000044703,,realistic_rating,1012899,realistic_rating,,53,Shreveport,5,,,,,,
null,,confidence_buffer,1013001,confidence_buffer,,null,,,,,,,,
1258.6999999955297,,pt2_unique_rating,1014261,pt2_unique_rating,,52,,4,,,,,,
null,,confidence_buffer,1014363,confidence_buffer,,null,,,,,,,,
1960.6000000014901,,pt2_memorable_rating,1016325,pt2_memorable_rating,,53,,5,,,,,,
null,,confidence_buffer,1016441,confidence_buffer,,null,,,,,,,,
1667.1000000014901,,recognition_phase,1018109,recognition_phase,,49,,,,,old,1,0.86,
null,,confidence_buffer,1018211,confidence_buffer,,null,,,,,,,,
1285.3999999985099,,confidence,1019498,confidence,,52,,,,,,,,4
null,,confidence_buffer,1019600,confidence_buffer,,null,,,,,,,,
null,,thebreak,1020103,break,,null,,,,,,,,
2704.7000000029802,,realistic_rating,1022809,realistic_rating,,51,Sunmere,3,,,,,,
null,,confidence_buffer,1022911,confidence_buffer,,null,,,,,,,,
3422.89999999851,,pt2_unique_rating,1026335,pt2_unique_rating,,51,,3,,,,,,
null,,confidence_buffer,1026452,confidence_buffer,,null,,,,,,,,
2014.3999999985099,,pt2_memorable_rating,1028467,pt2_memorable_rating,,49,,1,,,,,,
null,,confidence_buffer,1028570,confidence_buffer,,null,,,,,,,,
3214.9000000059605,,recognition_phase,1031786,recognition_phase,,50,,,,,new,1,0.8627450980392157,
null,,confidence_buffer,1031889,confidence_buffer,,null,,,,,,,,
1972.5,,confidence,1033863,confidence,,50,,,,,,,,2
null,,confidence_buffer,1033965,confidence_buffer,,null,,,,,,,,
null,,thebreak,1034467,break,,null,,,,,,,,
2719.60000000149,,realistic_rating,1037188,realistic_rating,,53,Hanover,5,,,,,,
null,,confidence_buffer,1037291,confidence_buffer,,null,,,,,,,,
379.6000000014901,,pt2_unique_rating,1037672,pt2_unique_rating,,52,,4,,,,,,
null,,confidence_buffer,1037773,confidence_buffer,,null,,,,,,,,
2913.6999999955297,,pt2_memorable_rating,1040688,pt2_memorable_rating,,52,,4,,,,,,
null,,confidence_buffer,1040790,confidence_buffer,,null,,,,,,,,
1675.8999999985099,,recognition_phase,1042467,recognition_phase,,49,,,,,old,1,0.8653846153846154,
null,,confidence_buffer,1042569,confidence_buffer,,null,,,,,,,,
1470.3000000044703,,confidence,1044041,confidence,,52,,,,,,,,4
null,,confidence_buffer,1044143,confidence_buffer,,null,,,,,,,,
null,,thebreak,1044645,break,,null,,,,,,,,
4119.70000000298,,realistic_rating,1048766,realistic_rating,,51,Hollendale,3,,,,,,
null,,confidence_buffer,1048869,confidence_buffer,,null,,,,,,,,
1306.7999999970198,,probe_rating,1050177,probe_rating,,50,,,2,0,,,,
null,,confidence_buffer,1050279,confidence_buffer,,null,,,,,,,,
4564.89999999851,,pt2_unique_rating,1054845,pt2_unique_rating,,50,,2,,,,,,
null,,confidence_buffer,1054946,confidence_buffer,,null,,,,,,,,
2801.0999999940395,,pt2_memorable_rating,1057749,pt2_memorable_rating,,49,,1,,,,,,
null,,confidence_buffer,1057851,confidence_buffer,,null,,,,,,,,
2308.2000000029802,,recognition_phase,1060161,recognition_phase,,50,,,,,new,1,0.8679245283018868,
null,,confidence_buffer,1060264,confidence_buffer,,null,,,,,,,,
1613.1999999955297,,confidence,1061878,confidence,,51,,,,,,,,3
null,,confidence_buffer,1061979,confidence_buffer,,null,,,,,,,,
null,,thebreak,1062486,break,,null,,,,,,,,
2911.60000000149,,realistic_rating,1065399,realistic_rating,,53,Bowling Green,5,,,,,,
null,,confidence_buffer,1065502,confidence_buffer,,null,,,,,,,,
2058.60000000149,,pt2_unique_rating,1067562,pt2_unique_rating,,53,,5,,,,,,
null,,confidence_buffer,1067664,confidence_buffer,,null,,,,,,,,
2099.0999999940395,,pt2_memorable_rating,1069764,pt2_memorable_rating,,52,,4,,,,,,
null,,confidence_buffer,1069865,confidence_buffer,,null,,,,,,,,
2270.60000000149,,recognition_phase,1072137,recognition_phase,,50,,,,,new,1,0.8703703703703703,
null,,confidence_buffer,1072239,confidence_buffer,,null,,,,,,,,
1184.6000000014901,,confidence,1073425,confidence,,52,,,,,,,,4
null,,confidence_buffer,1073526,confidence_buffer,,null,,,,,,,,
null,,thebreak,1074029,break,,null,,,,,,,,
2581.5,,realistic_rating,1076612,realistic_rating,,51,Ashford Hills,3,,,,,,
null,,confidence_buffer,1076714,confidence_buffer,,null,,,,,,,,
2269.5,,pt2_unique_rating,1078984,pt2_unique_rating,,50,,2,,,,,,
null,,confidence_buffer,1079098,confidence_buffer,,null,,,,,,,,
1916.1000000014901,,pt2_memorable_rating,1081016,pt2_memorable_rating,,50,,2,,,,,,
null,,confidence_buffer,1081118,confidence_buffer,,null,,,,,,,,
1995.4000000059605,,recognition_phase,1083114,recognition_phase,,49,,,,,old,1,0.8727272727272727,
null,,confidence_buffer,1083216,confidence_buffer,,null,,,,,,,,
924.8000000044703,,confidence,1084142,confidence,,52,,,,,,,,4
null,,confidence_buffer,1084244,confidence_buffer,,null,,,,,,,,
null,,thebreak,1084745,break,,null,,,,,,,,
3206.60000000149,,realistic_rating,1087953,realistic_rating,,51,Hawthorne Bluffs,3,,,,,,
null,,confidence_buffer,1088055,confidence_buffer,,null,,,,,,,,
2363.2999999970198,,pt2_unique_rating,1090419,pt2_unique_rating,,50,,2,,,,,,
null,,confidence_buffer,1090521,confidence_buffer,,null,,,,,,,,
1670.5,,pt2_memorable_rating,1092193,pt2_memorable_rating,,50,,2,,,,,,
null,,confidence_buffer,1092294,confidence_buffer,,null,,,,,,,,
2014.2000000029802,,recognition_phase,1094310,recognition_phase,,50,,,,,new,1,0.875,
null,,confidence_buffer,1094412,confidence_buffer,,null,,,,,,,,
1299.6999999955297,,confidence,1095713,confidence,,52,,,,,,,,4
null,,confidence_buffer,1095814,confidence_buffer,,null,,,,,,,,
null,,thebreak,1096315,break,,null,,,,,,,,
2344.10000000149,,realistic_rating,1098661,realistic_rating,,53,Abilene,5,,,,,,
null,,confidence_buffer,1098762,confidence_buffer,,null,,,,,,,,
987.7000000029802,,pt2_unique_rating,1099763,pt2_unique_rating,,52,,4,,,,,,
null,,confidence_buffer,1099865,confidence_buffer,,null,,,,,,,,
1929.3000000044703,,pt2_memorable_rating,1101796,pt2_memorable_rating,,52,,4,,,,,,
null,,confidence_buffer,1101903,confidence_buffer,,null,,,,,,,,
1570.8999999985099,,recognition_phase,1103475,recognition_phase,,49,,,,,old,1,0.8771929824561403,
null,,confidence_buffer,1103576,confidence_buffer,,null,,,,,,,,
1729.2000000029802,,confidence,1105306,confidence,,52,,,,,,,,4
null,,confidence_buffer,1105408,confidence_buffer,,null,,,,,,,,
null,,thebreak,1105910,break,,null,,,,,,,,
6354.10000000149,,realistic_rating,1112265,realistic_rating,,51,Ironwood Heights,3,,,,,,
null,,confidence_buffer,1112383,confidence_buffer,,null,,,,,,,,
2207.2000000029802,,pt2_unique_rating,1114592,pt2_unique_rating,,51,,3,,,,,,
null,,confidence_buffer,1114693,confidence_buffer,,null,,,,,,,,
2111.5999999940395,,pt2_memorable_rating,1116805,pt2_memorable_rating,,51,,3,,,,,,
null,,confidence_buffer,1116907,confidence_buffer,,null,,,,,,,,
1919.8999999985099,,recognition_phase,1118829,recognition_phase,,49,,,,,old,0,0.8620689655172413,
null,,confidence_buffer,1118930,confidence_buffer,,null,,,,,,,,
718.2000000029802,,confidence,1119650,confidence,,51,,,,,,,,3
null,,confidence_buffer,1119752,confidence_buffer,,null,,,,,,,,
null,,thebreak,1120254,break,,null,,,,,,,,
5583.70000000298,,realistic_rating,1125839,realistic_rating,,53,Athens,5,,,,,,
null,,confidence_buffer,1125941,confidence_buffer,,null,,,,,,,,
2392.5999999940395,,pt2_unique_rating,1128335,pt2_unique_rating,,52,,4,,,,,,
null,,confidence_buffer,1128436,confidence_buffer,,null,,,,,,,,
2680.2000000029802,,pt2_memorable_rating,1131117,pt2_memorable_rating,,52,,4,,,,,,
null,,confidence_buffer,1131219,confidence_buffer,,null,,,,,,,,
1680.1000000014901,,probe_rating,1132901,probe_rating,,51,,,3,1,,,,
null,,confidence_buffer,1133003,confidence_buffer,,null,,,,,,,,
4190.4000000059605,,recognition_phase,1137194,recognition_phase,,50,,,,,new,1,0.864406779661017,
null,,confidence_buffer,1137296,confidence_buffer,,null,,,,,,,,
1505.8999999985099,,confidence,1138803,confidence,,52,,,,,,,,4
null,,confidence_buffer,1138905,confidence_buffer,,null,,,,,,,,
null,,thebreak,1139407,break,,null,,,,,,,,
2510,,realistic_rating,1141919,realistic_rating,,51,Northbridge,3,,,,,,
null,,confidence_buffer,1142021,confidence_buffer,,null,,,,,,,,
1924.5999999940395,,pt2_unique_rating,1143947,pt2_unique_rating,,50,,2,,,,,,
null,,confidence_buffer,1144062,confidence_buffer,,null,,,,,,,,
4206.20000000298,,pt2_memorable_rating,1148271,pt2_memorable_rating,,50,,2,,,,,,
null,,confidence_buffer,1148373,confidence_buffer,,null,,,,,,,,
4014.1999999955297,,recognition_phase,1152388,recognition_phase,,49,,,,,old,1,0.8666666666666667,
null,,confidence_buffer,1152490,confidence_buffer,,null,,,,,,,,
1808.6999999955297,,confidence,1154300,confidence,,51,,,,,,,,3
null,,confidence_buffer,1154402,confidence_buffer,,null,,,,,,,,
null,,thebreak,1154903,break,,null,,,,,,,,
