rt,responses,trial_type,time_elapsed,stimulus,button_pressed,key_press,name_trial,rating,probe,probe_accuracy,response,correct,accuracy,confidence
4791.900000095367,{worker_id:638476f72ab8021be345e3ac},id_enter,4797,,,,,,,,,,,
12228,,fullscreen,17028,fullscreen,0,,,,,,,,,
8939.400000095367,,intro_0,25970,instruct,,32,,,,,,,,
6398.599999904633,,intro_1,32369,instruct,,32,,,,,,,,
6006.800000071526,,intro_2,38377,instruct,,32,,,,,,,,
null,,instruct_dir_4,39878,instruct,,null,,,,,,,,
null,,thebreak,40380,break,,null,,,,,,,,
4012.5,,familiar_rating,44393,familiar_rating,,49,Coralridge,1,,,,,,
null,,confidence_buffer,44495,confidence_buffer,,null,,,,,,,,
6489.899999976158,,unique_rating,50986,unique_rating,,52,,4,,,,,,
null,,confidence_buffer,51088,confidence_buffer,,null,,,,,,,,
4064.399999976158,,memorable_rating,55154,memorable_rating,,51,,3,,,,,,
null,,confidence_buffer,55256,confidence_buffer,,null,,,,,,,,
null,,thebreak,55757,break,,null,,,,,,,,
3081.7000000476837,,familiar_rating,58840,familiar_rating,,49,Manistee,1,,,,,,
null,,confidence_buffer,58942,confidence_buffer,,null,,,,,,,,
3289.5,,unique_rating,62233,unique_rating,,51,,3,,,,,,
null,,confidence_buffer,62335,confidence_buffer,,null,,,,,,,,
2057.2999999523163,,memorable_rating,64393,memorable_rating,,51,,3,,,,,,
null,,confidence_buffer,64494,confidence_buffer,,null,,,,,,,,
null,,thebreak,64997,break,,null,,,,,,,,
3482.5,,familiar_rating,68481,familiar_rating,,49,West Talora,1,,,,,,
null,,confidence_buffer,68582,confidence_buffer,,null,,,,,,,,
2786.399999976158,,unique_rating,71370,unique_rating,,52,,4,,,,,,
null,,confidence_buffer,71472,confidence_buffer,,null,,,,,,,,
2527.7000000476837,,probe_rating,74001,probe_rating,,53,,,5,1,,,,
null,,confidence_buffer,74104,confidence_buffer,,null,,,,,,,,
4880.099999904633,,memorable_rating,78985,memorable_rating,,52,,4,,,,,,
null,,confidence_buffer,79087,confidence_buffer,,null,,,,,,,,
null,,thebreak,79589,break,,null,,,,,,,,
4482.100000023842,,familiar_rating,84073,familiar_rating,,49,Healdsburg,1,,,,,,
null,,confidence_buffer,84175,confidence_buffer,,null,,,,,,,,
2952.399999976158,,unique_rating,87128,unique_rating,,51,,3,,,,,,
null,,confidence_buffer,87230,confidence_buffer,,null,,,,,,,,
3016.7999999523163,,memorable_rating,90248,memorable_rating,,52,,4,,,,,,
null,,confidence_buffer,90351,confidence_buffer,,null,,,,,,,,
null,,thebreak,90853,break,,null,,,,,,,,
3075.600000023842,,familiar_rating,93929,familiar_rating,,53,Abilene,5,,,,,,
null,,confidence_buffer,94031,confidence_buffer,,null,,,,,,,,
3168.2999999523163,,unique_rating,97200,unique_rating,,50,,2,,,,,,
null,,confidence_buffer,97302,confidence_buffer,,null,,,,,,,,
2858.5,,memorable_rating,100161,memorable_rating,,51,,3,,,,,,
null,,confidence_buffer,100264,confidence_buffer,,null,,,,,,,,
null,,thebreak,100765,break,,null,,,,,,,,
2731.5999999046326,,familiar_rating,103498,familiar_rating,,49,Berkeley Springs,1,,,,,,
null,,confidence_buffer,103599,confidence_buffer,,null,,,,,,,,
1928.5,,probe_rating,105529,probe_rating,,51,,,3,1,,,,
null,,confidence_buffer,105631,confidence_buffer,,null,,,,,,,,
2327.7999999523163,,unique_rating,107960,unique_rating,,51,,3,,,,,,
null,,confidence_buffer,108062,confidence_buffer,,null,,,,,,,,
2377.7999999523163,,memorable_rating,110440,memorable_rating,,51,,3,,,,,,
null,,confidence_buffer,110543,confidence_buffer,,null,,,,,,,,
null,,thebreak,111045,break,,null,,,,,,,,
3561.7000000476837,,familiar_rating,114608,familiar_rating,,49,Ashford Hills,1,,,,,,
null,,confidence_buffer,114710,confidence_buffer,,null,,,,,,,,
1298.2000000476837,,probe_rating,116010,probe_rating,,49,,,1,1,,,,
null,,confidence_buffer,116112,confidence_buffer,,null,,,,,,,,
2423.6999999284744,,unique_rating,118537,unique_rating,,51,,3,,,,,,
null,,confidence_buffer,118639,confidence_buffer,,null,,,,,,,,
2456.5999999046326,,memorable_rating,121096,memorable_rating,,50,,2,,,,,,
null,,confidence_buffer,121198,confidence_buffer,,null,,,,,,,,
null,,thebreak,121699,break,,null,,,,,,,,
2876.4000000953674,,familiar_rating,124576,familiar_rating,,49,New Verdan,1,,,,,,
null,,confidence_buffer,124678,confidence_buffer,,null,,,,,,,,
2697.3000000715256,,unique_rating,127376,unique_rating,,53,,5,,,,,,
null,,confidence_buffer,127479,confidence_buffer,,null,,,,,,,,
2097.8000000715256,,memorable_rating,129577,memorable_rating,,52,,4,,,,,,
null,,confidence_buffer,129679,confidence_buffer,,null,,,,,,,,
null,,thebreak,130181,break,,null,,,,,,,,
3436.399999976158,,familiar_rating,133619,familiar_rating,,49,Orr,1,,,,,,
null,,confidence_buffer,133721,confidence_buffer,,null,,,,,,,,
2798,,unique_rating,136520,unique_rating,,53,,5,,,,,,
null,,confidence_buffer,136622,confidence_buffer,,null,,,,,,,,
1505.1000000238419,,memorable_rating,138128,memorable_rating,,53,,5,,,,,,
null,,confidence_buffer,138230,confidence_buffer,,null,,,,,,,,
null,,thebreak,138739,break,,null,,,,,,,,
3515.7999999523163,,familiar_rating,142256,familiar_rating,,51,Cornwall,3,,,,,,
null,,confidence_buffer,142358,confidence_buffer,,null,,,,,,,,
2001.1000000238419,,unique_rating,144360,unique_rating,,50,,2,,,,,,
null,,confidence_buffer,144462,confidence_buffer,,null,,,,,,,,
2273.5,,memorable_rating,146736,memorable_rating,,51,,3,,,,,,
null,,confidence_buffer,146838,confidence_buffer,,null,,,,,,,,
null,,thebreak,147339,break,,null,,,,,,,,
5428.100000023842,,familiar_rating,152768,familiar_rating,,49,Barnard,1,,,,,,
null,,confidence_buffer,152870,confidence_buffer,,null,,,,,,,,
2736.7999999523163,,unique_rating,155608,unique_rating,,51,,3,,,,,,
null,,confidence_buffer,155710,confidence_buffer,,null,,,,,,,,
1832.6000000238419,,memorable_rating,157544,memorable_rating,,51,,3,,,,,,
null,,confidence_buffer,157645,confidence_buffer,,null,,,,,,,,
1490.1000000238419,,probe_rating,159136,probe_rating,,52,,,4,1,,,,
null,,confidence_buffer,159238,confidence_buffer,,null,,,,,,,,
null,,thebreak,159740,break,,null,,,,,,,,
3851.5,,familiar_rating,163592,familiar_rating,,49,Tamarisk Hills,1,,,,,,
null,,confidence_buffer,163693,confidence_buffer,,null,,,,,,,,
2193.600000023842,,unique_rating,165888,unique_rating,,53,,5,,,,,,
null,,confidence_buffer,165990,confidence_buffer,,null,,,,,,,,
2129.5,,memorable_rating,168120,memorable_rating,,52,,4,,,,,,
null,,confidence_buffer,168222,confidence_buffer,,null,,,,,,,,
null,,thebreak,168723,break,,null,,,,,,,,
3548.2999999523163,,familiar_rating,172273,familiar_rating,,51,Stonebrook,3,,,,,,
null,,confidence_buffer,172375,confidence_buffer,,null,,,,,,,,
3056.8000000715256,,unique_rating,175432,unique_rating,,51,,3,,,,,,
null,,confidence_buffer,175534,confidence_buffer,,null,,,,,,,,
1785,,memorable_rating,177320,memorable_rating,,51,,3,,,,,,
null,,confidence_buffer,177422,confidence_buffer,,null,,,,,,,,
null,,thebreak,177924,break,,null,,,,,,,,
2860.600000023842,,familiar_rating,180786,familiar_rating,,49,Hollendale,1,,,,,,
null,,confidence_buffer,180888,confidence_buffer,,null,,,,,,,,
1759.6000000238419,,unique_rating,182649,unique_rating,,52,,4,,,,,,
null,,confidence_buffer,182751,confidence_buffer,,null,,,,,,,,
2351.399999976158,,memorable_rating,185104,memorable_rating,,51,,3,,,,,,
null,,confidence_buffer,185216,confidence_buffer,,null,,,,,,,,
null,,thebreak,185717,break,,null,,,,,,,,
2931.399999976158,,familiar_rating,188649,familiar_rating,,52,Delaware City,4,,,,,,
null,,confidence_buffer,188752,confidence_buffer,,null,,,,,,,,
2430.399999976158,,unique_rating,191184,unique_rating,,51,,3,,,,,,
null,,confidence_buffer,191298,confidence_buffer,,null,,,,,,,,
2727,,memorable_rating,194026,memorable_rating,,52,,4,,,,,,
null,,confidence_buffer,194129,confidence_buffer,,null,,,,,,,,
null,,thebreak,194631,break,,null,,,,,,,,
3215.399999976158,,familiar_rating,197848,familiar_rating,,49,Riverlyn,1,,,,,,
null,,confidence_buffer,197950,confidence_buffer,,null,,,,,,,,
1977.2000000476837,,unique_rating,199928,unique_rating,,52,,4,,,,,,
null,,confidence_buffer,200029,confidence_buffer,,null,,,,,,,,
1985.8999999761581,,probe_rating,202016,probe_rating,,50,,,2,1,,,,
null,,confidence_buffer,202119,confidence_buffer,,null,,,,,,,,
2633.5999999046326,,memorable_rating,204753,memorable_rating,,52,,4,,,,,,
null,,confidence_buffer,204855,confidence_buffer,,null,,,,,,,,
null,,thebreak,205357,break,,null,,,,,,,,
2329.7000000476837,,familiar_rating,207688,familiar_rating,,49,Sammamish,1,,,,,,
null,,confidence_buffer,207790,confidence_buffer,,null,,,,,,,,
2650,,unique_rating,210441,unique_rating,,52,,4,,,,,,
null,,confidence_buffer,210543,confidence_buffer,,null,,,,,,,,
2175.7999999523163,,memorable_rating,212719,memorable_rating,,52,,4,,,,,,
null,,confidence_buffer,212821,confidence_buffer,,null,,,,,,,,
null,,thebreak,213323,break,,null,,,,,,,,
3508.899999976158,,familiar_rating,216833,familiar_rating,,49,Okoboji,1,,,,,,
null,,confidence_buffer,216941,confidence_buffer,,null,,,,,,,,
2226.100000023842,,unique_rating,219169,unique_rating,,53,,5,,,,,,
null,,confidence_buffer,219271,confidence_buffer,,null,,,,,,,,
1400,,memorable_rating,220672,memorable_rating,,53,,5,,,,,,
null,,confidence_buffer,220774,confidence_buffer,,null,,,,,,,,
null,,thebreak,221276,break,,null,,,,,,,,
2987.2999999523163,,familiar_rating,224264,familiar_rating,,52,Huntsville,4,,,,,,
null,,confidence_buffer,224366,confidence_buffer,,null,,,,,,,,
2025.1000000238419,,unique_rating,226392,unique_rating,,51,,3,,,,,,
null,,confidence_buffer,226494,confidence_buffer,,null,,,,,,,,
1356.8999999761581,,memorable_rating,227854,memorable_rating,,51,,3,,,,,,
null,,confidence_buffer,227956,confidence_buffer,,null,,,,,,,,
null,,thebreak,228457,break,,null,,,,,,,,
3693.7000000476837,,familiar_rating,232152,familiar_rating,,49,Lakehaven,1,,,,,,
null,,confidence_buffer,232253,confidence_buffer,,null,,,,,,,,
2249.2999999523163,,unique_rating,234503,unique_rating,,50,,2,,,,,,
null,,confidence_buffer,234605,confidence_buffer,,null,,,,,,,,
1009.8000000715256,,probe_rating,235616,probe_rating,,50,,,2,1,,,,
null,,confidence_buffer,235718,confidence_buffer,,null,,,,,,,,
1888.6999999284744,,memorable_rating,237608,memorable_rating,,51,,3,,,,,,
null,,confidence_buffer,237709,confidence_buffer,,null,,,,,,,,
null,,thebreak,238211,break,,null,,,,,,,,
6477,,familiar_rating,244689,familiar_rating,,49,Linden Trace,1,,,,,,
null,,confidence_buffer,244792,confidence_buffer,,null,,,,,,,,
2159.0999999046326,,unique_rating,246952,unique_rating,,51,,3,,,,,,
null,,confidence_buffer,247054,confidence_buffer,,null,,,,,,,,
4767.899999976158,,memorable_rating,251824,memorable_rating,,51,,3,,,,,,
null,,confidence_buffer,251926,confidence_buffer,,null,,,,,,,,
null,,thebreak,252427,break,,null,,,,,,,,
2268.899999976158,,familiar_rating,254697,familiar_rating,,49,Elmsbury,1,,,,,,
null,,confidence_buffer,254799,confidence_buffer,,null,,,,,,,,
7607.5,,unique_rating,262407,unique_rating,,52,,4,,,,,,
null,,confidence_buffer,262509,confidence_buffer,,null,,,,,,,,
1657.6000000238419,,memorable_rating,264168,memorable_rating,,52,,4,,,,,,
null,,confidence_buffer,264270,confidence_buffer,,null,,,,,,,,
null,,thebreak,264771,break,,null,,,,,,,,
2500.2000000476837,,familiar_rating,267273,familiar_rating,,53,Lake of the Ozarks,5,,,,,,
null,,confidence_buffer,267378,confidence_buffer,,null,,,,,,,,
2060.9000000953674,,unique_rating,269441,unique_rating,,53,,5,,,,,,
null,,confidence_buffer,269543,confidence_buffer,,null,,,,,,,,
1416.1000000238419,,memorable_rating,270960,memorable_rating,,53,,5,,,,,,
null,,confidence_buffer,271061,confidence_buffer,,null,,,,,,,,
null,,thebreak,271563,break,,null,,,,,,,,
2915.7000000476837,,familiar_rating,274479,familiar_rating,,52,Westridge,4,,,,,,
null,,confidence_buffer,274581,confidence_buffer,,null,,,,,,,,
1673.1000000238419,,unique_rating,276255,unique_rating,,51,,3,,,,,,
null,,confidence_buffer,276357,confidence_buffer,,null,,,,,,,,
1993.5,,memorable_rating,278352,memorable_rating,,51,,3,,,,,,
null,,confidence_buffer,278454,confidence_buffer,,null,,,,,,,,
null,,thebreak,278955,break,,null,,,,,,,,
2602.9000000953674,,familiar_rating,281559,familiar_rating,,49,Delaro Park,1,,,,,,
null,,confidence_buffer,281661,confidence_buffer,,null,,,,,,,,
1858.3999999761581,,unique_rating,283521,unique_rating,,51,,3,,,,,,
null,,confidence_buffer,283624,confidence_buffer,,null,,,,,,,,
2055,,memorable_rating,285680,memorable_rating,,51,,3,,,,,,
null,,confidence_buffer,285781,confidence_buffer,,null,,,,,,,,
null,,thebreak,286283,break,,null,,,,,,,,
2541,,familiar_rating,288825,familiar_rating,,52,Natchez,4,,,,,,
null,,confidence_buffer,288928,confidence_buffer,,null,,,,,,,,
1495.1000000238419,,unique_rating,290424,unique_rating,,52,,4,,,,,,
null,,confidence_buffer,290526,confidence_buffer,,null,,,,,,,,
1657.1999999284744,,memorable_rating,292184,memorable_rating,,52,,4,,,,,,
null,,confidence_buffer,292286,confidence_buffer,,null,,,,,,,,
null,,thebreak,292787,break,,null,,,,,,,,
3083.4000000953674,,familiar_rating,295871,familiar_rating,,49,Cedarwyn,1,,,,,,
null,,confidence_buffer,295973,confidence_buffer,,null,,,,,,,,
1466.3999999761581,,unique_rating,297440,unique_rating,,52,,4,,,,,,
null,,confidence_buffer,297543,confidence_buffer,,null,,,,,,,,
2041.6000000238419,,probe_rating,299586,probe_rating,,51,,,3,1,,,,
null,,confidence_buffer,299689,confidence_buffer,,null,,,,,,,,
2477.7000000476837,,memorable_rating,302167,memorable_rating,,52,,4,,,,,,
null,,confidence_buffer,302270,confidence_buffer,,null,,,,,,,,
null,,thebreak,302772,break,,null,,,,,,,,
2493,,familiar_rating,305267,familiar_rating,,53,Gatlinburg,5,,,,,,
null,,confidence_buffer,305369,confidence_buffer,,null,,,,,,,,
2110.0999999046326,,unique_rating,307480,unique_rating,,53,,5,,,,,,
null,,confidence_buffer,307582,confidence_buffer,,null,,,,,,,,
1384.2000000476837,,probe_rating,308967,probe_rating,,50,,,2,1,,,,
null,,confidence_buffer,309070,confidence_buffer,,null,,,,,,,,
1801.1000000238419,,memorable_rating,310873,memorable_rating,,52,,4,,,,,,
null,,confidence_buffer,310975,confidence_buffer,,null,,,,,,,,
null,,thebreak,311476,break,,null,,,,,,,,
2562.5,,familiar_rating,314039,familiar_rating,,53,Hot Springs,5,,,,,,
null,,confidence_buffer,314142,confidence_buffer,,null,,,,,,,,
2088.399999976158,,unique_rating,316231,unique_rating,,52,,4,,,,,,
null,,confidence_buffer,316332,confidence_buffer,,null,,,,,,,,
2401.899999976158,,memorable_rating,318735,memorable_rating,,52,,4,,,,,,
null,,confidence_buffer,318837,confidence_buffer,,null,,,,,,,,
null,,thebreak,319338,break,,null,,,,,,,,
2253.100000023842,,familiar_rating,321593,familiar_rating,,49,Orchard Bend,1,,,,,,
null,,confidence_buffer,321695,confidence_buffer,,null,,,,,,,,
1903.7999999523163,,unique_rating,323600,unique_rating,,52,,4,,,,,,
null,,confidence_buffer,323713,confidence_buffer,,null,,,,,,,,
1573.5,,memorable_rating,325288,memorable_rating,,51,,3,,,,,,
null,,confidence_buffer,325391,confidence_buffer,,null,,,,,,,,
null,,thebreak,325892,break,,null,,,,,,,,
4514.399999976158,,intro_0,330407,instruct,,32,,,,,,,,
8495,,intro_1,338903,instruct,,32,,,,,,,,
7215.5,,intro_2,346119,instruct,,32,,,,,,,,
null,,instruct_dir_4,347620,instruct,,null,,,,,,,,
4050.100000023842,,realistic_rating,351671,realistic_rating,,53,Gatlinburg,5,,,,,,
null,,confidence_buffer,351773,confidence_buffer,,null,,,,,,,,
3680.899999976158,,pt2_unique_rating,355455,pt2_unique_rating,,53,,5,,,,,,
null,,confidence_buffer,355558,confidence_buffer,,null,,,,,,,,
1584,,pt2_memorable_rating,357143,pt2_memorable_rating,,53,,5,,,,,,
null,,confidence_buffer,357245,confidence_buffer,,null,,,,,,,,
3233.2999999523163,,probe_rating,360479,probe_rating,,49,,,1,1,,,,
null,,confidence_buffer,360581,confidence_buffer,,null,,,,,,,,
2409.600000023842,,recognition_phase,362991,recognition_phase,,49,,,,,old,1,1,
null,,confidence_buffer,363094,confidence_buffer,,null,,,,,,,,
2864.600000023842,,confidence,365959,confidence,,52,,,,,,,,4
null,,confidence_buffer,366061,confidence_buffer,,null,,,,,,,,
null,,thebreak,366563,break,,null,,,,,,,,
7275.799999952316,,realistic_rating,373840,realistic_rating,,50,Gardnerville,2,,,,,,
null,,confidence_buffer,373942,confidence_buffer,,null,,,,,,,,
1480.6000000238419,,probe_rating,375424,probe_rating,,51,,,3,1,,,,
null,,confidence_buffer,375526,confidence_buffer,,null,,,,,,,,
2280.399999976158,,pt2_unique_rating,377807,pt2_unique_rating,,51,,3,,,,,,
null,,confidence_buffer,377909,confidence_buffer,,null,,,,,,,,
2009.1000000238419,,pt2_memorable_rating,379920,pt2_memorable_rating,,51,,3,,,,,,
null,,confidence_buffer,380022,confidence_buffer,,null,,,,,,,,
2816,,recognition_phase,382839,recognition_phase,,50,,,,,new,1,1,
null,,confidence_buffer,382941,confidence_buffer,,null,,,,,,,,
3162.6999999284744,,confidence,386104,confidence,,52,,,,,,,,4
null,,confidence_buffer,386206,confidence_buffer,,null,,,,,,,,
null,,thebreak,386708,break,,null,,,,,,,,
3275,,realistic_rating,389984,realistic_rating,,51,Brookmere,3,,,,,,
null,,confidence_buffer,390086,confidence_buffer,,null,,,,,,,,
1632.2000000476837,,pt2_unique_rating,391720,pt2_unique_rating,,51,,3,,,,,,
null,,confidence_buffer,391822,confidence_buffer,,null,,,,,,,,
1841.1000000238419,,pt2_memorable_rating,393665,pt2_memorable_rating,,51,,3,,,,,,
null,,confidence_buffer,393767,confidence_buffer,,null,,,,,,,,
2734.600000023842,,recognition_phase,396503,recognition_phase,,50,,,,,new,1,1,
null,,confidence_buffer,396605,confidence_buffer,,null,,,,,,,,
2401.100000023842,,confidence,399007,confidence,,52,,,,,,,,4
null,,confidence_buffer,399109,confidence_buffer,,null,,,,,,,,
null,,thebreak,399610,break,,null,,,,,,,,
3227,,realistic_rating,402839,realistic_rating,,52,Riverlyn,4,,,,,,
null,,confidence_buffer,402940,confidence_buffer,,null,,,,,,,,
1505.8999999761581,,pt2_unique_rating,404447,pt2_unique_rating,,52,,4,,,,,,
null,,confidence_buffer,404549,confidence_buffer,,null,,,,,,,,
1370.2000000476837,,pt2_memorable_rating,405920,pt2_memorable_rating,,52,,4,,,,,,
null,,confidence_buffer,406022,confidence_buffer,,null,,,,,,,,
1927.6999999284744,,recognition_phase,407951,recognition_phase,,49,,,,,old,1,1,
null,,confidence_buffer,408053,confidence_buffer,,null,,,,,,,,
1864.7999999523163,,confidence,409919,confidence,,52,,,,,,,,4
null,,confidence_buffer,410020,confidence_buffer,,null,,,,,,,,
null,,thebreak,410522,break,,null,,,,,,,,
2844,,realistic_rating,413367,realistic_rating,,53,West Palm Beach,5,,,,,,
null,,confidence_buffer,413469,confidence_buffer,,null,,,,,,,,
1345.2000000476837,,pt2_unique_rating,414815,pt2_unique_rating,,53,,5,,,,,,
null,,confidence_buffer,414917,confidence_buffer,,null,,,,,,,,
1297.6000000238419,,pt2_memorable_rating,416216,pt2_memorable_rating,,53,,5,,,,,,
null,,confidence_buffer,416318,confidence_buffer,,null,,,,,,,,
1729.8999999761581,,recognition_phase,418049,recognition_phase,,50,,,,,new,1,1,
null,,confidence_buffer,418151,confidence_buffer,,null,,,,,,,,
1783.1000000238419,,confidence,419936,confidence,,52,,,,,,,,4
null,,confidence_buffer,420037,confidence_buffer,,null,,,,,,,,
null,,thebreak,420539,break,,null,,,,,,,,
1810.8999999761581,,realistic_rating,422352,realistic_rating,,53,Abilene,5,,,,,,
null,,confidence_buffer,422455,confidence_buffer,,null,,,,,,,,
918.6000000238419,,pt2_unique_rating,423375,pt2_unique_rating,,53,,5,,,,,,
null,,confidence_buffer,423476,confidence_buffer,,null,,,,,,,,
1106.2999999523163,,pt2_memorable_rating,424584,pt2_memorable_rating,,53,,5,,,,,,
null,,confidence_buffer,424686,confidence_buffer,,null,,,,,,,,
1529.3000000715256,,probe_rating,426216,probe_rating,,53,,,5,1,,,,
null,,confidence_buffer,426318,confidence_buffer,,null,,,,,,,,
1624.8999999761581,,recognition_phase,427944,recognition_phase,,49,,,,,old,1,1,
null,,confidence_buffer,428046,confidence_buffer,,null,,,,,,,,
1713.1000000238419,,confidence,429760,confidence,,52,,,,,,,,4
null,,confidence_buffer,429862,confidence_buffer,,null,,,,,,,,
null,,thebreak,430364,break,,null,,,,,,,,
2946,,realistic_rating,433311,realistic_rating,,52,Silverpine,4,,,,,,
null,,confidence_buffer,433413,confidence_buffer,,null,,,,,,,,
2104.6999999284744,,pt2_unique_rating,435519,pt2_unique_rating,,51,,3,,,,,,
null,,confidence_buffer,435620,confidence_buffer,,null,,,,,,,,
1289.7000000476837,,pt2_memorable_rating,436911,pt2_memorable_rating,,51,,3,,,,,,
null,,confidence_buffer,437013,confidence_buffer,,null,,,,,,,,
2104.7999999523163,,recognition_phase,439119,recognition_phase,,50,,,,,new,1,1,
null,,confidence_buffer,439221,confidence_buffer,,null,,,,,,,,
2513.2000000476837,,confidence,441735,confidence,,52,,,,,,,,4
null,,confidence_buffer,441836,confidence_buffer,,null,,,,,,,,
null,,thebreak,442338,break,,null,,,,,,,,
2555,,realistic_rating,444895,realistic_rating,,51,New Verdan,3,,,,,,
null,,confidence_buffer,444997,confidence_buffer,,null,,,,,,,,
1312.8000000715256,,pt2_unique_rating,446310,pt2_unique_rating,,51,,3,,,,,,
null,,confidence_buffer,446412,confidence_buffer,,null,,,,,,,,
1265.5,,pt2_memorable_rating,447678,pt2_memorable_rating,,51,,3,,,,,,
null,,confidence_buffer,447780,confidence_buffer,,null,,,,,,,,
2009.5,,recognition_phase,449791,recognition_phase,,50,,,,,new,0,0.875,
null,,confidence_buffer,449892,confidence_buffer,,null,,,,,,,,
1617.8999999761581,,confidence,451511,confidence,,52,,,,,,,,4
null,,confidence_buffer,451613,confidence_buffer,,null,,,,,,,,
null,,thebreak,452118,break,,null,,,,,,,,
3399.600000023842,,realistic_rating,455519,realistic_rating,,51,Custer,3,,,,,,
null,,confidence_buffer,455621,confidence_buffer,,null,,,,,,,,
1665,,pt2_unique_rating,457287,pt2_unique_rating,,52,,4,,,,,,
null,,confidence_buffer,457389,confidence_buffer,,null,,,,,,,,
1273.6999999284744,,pt2_memorable_rating,458664,pt2_memorable_rating,,51,,3,,,,,,
null,,confidence_buffer,458766,confidence_buffer,,null,,,,,,,,
1648.3999999761581,,probe_rating,460416,probe_rating,,49,,,1,1,,,,
null,,confidence_buffer,460519,confidence_buffer,,null,,,,,,,,
1608.0999999046326,,recognition_phase,462128,recognition_phase,,50,,,,,new,1,0.8888888888888888,
null,,confidence_buffer,462230,confidence_buffer,,null,,,,,,,,
1431.7999999523163,,confidence,463663,confidence,,52,,,,,,,,4
null,,confidence_buffer,463765,confidence_buffer,,null,,,,,,,,
null,,thebreak,464267,break,,null,,,,,,,,
2466.5999999046326,,realistic_rating,466735,realistic_rating,,52,Clearbrook,4,,,,,,
null,,confidence_buffer,466844,confidence_buffer,,null,,,,,,,,
1625.3999999761581,,pt2_unique_rating,468471,pt2_unique_rating,,51,,3,,,,,,
null,,confidence_buffer,468574,confidence_buffer,,null,,,,,,,,
1343.7999999523163,,pt2_memorable_rating,469918,pt2_memorable_rating,,51,,3,,,,,,
null,,confidence_buffer,470021,confidence_buffer,,null,,,,,,,,
2072.5,,recognition_phase,472094,recognition_phase,,50,,,,,new,1,0.9,
null,,confidence_buffer,472195,confidence_buffer,,null,,,,,,,,
1674,,confidence,473871,confidence,,52,,,,,,,,4
null,,confidence_buffer,473973,confidence_buffer,,null,,,,,,,,
null,,thebreak,474474,break,,null,,,,,,,,
2532.2999999523163,,realistic_rating,477008,realistic_rating,,53,Sitka,5,,,,,,
null,,confidence_buffer,477110,confidence_buffer,,null,,,,,,,,
1128.2000000476837,,pt2_unique_rating,478240,pt2_unique_rating,,53,,5,,,,,,
null,,confidence_buffer,478342,confidence_buffer,,null,,,,,,,,
1047.7999999523163,,pt2_memorable_rating,479391,pt2_memorable_rating,,53,,5,,,,,,
null,,confidence_buffer,479493,confidence_buffer,,null,,,,,,,,
1848.9000000953674,,recognition_phase,481342,recognition_phase,,50,,,,,new,1,0.9090909090909091,
null,,confidence_buffer,481445,confidence_buffer,,null,,,,,,,,
1577.7999999523163,,confidence,483024,confidence,,52,,,,,,,,4
null,,confidence_buffer,483127,confidence_buffer,,null,,,,,,,,
null,,thebreak,483629,break,,null,,,,,,,,
2536.899999976158,,realistic_rating,486167,realistic_rating,,53,Driftwood Bay,5,,,,,,
null,,confidence_buffer,486269,confidence_buffer,,null,,,,,,,,
977,,pt2_unique_rating,487247,pt2_unique_rating,,52,,4,,,,,,
null,,confidence_buffer,487349,confidence_buffer,,null,,,,,,,,
1248.6999999284744,,pt2_memorable_rating,488599,pt2_memorable_rating,,53,,5,,,,,,
null,,confidence_buffer,488701,confidence_buffer,,null,,,,,,,,
3568,,recognition_phase,492270,recognition_phase,,50,,,,,new,1,0.9166666666666666,
null,,confidence_buffer,492371,confidence_buffer,,null,,,,,,,,
1418.5,,confidence,493791,confidence,,52,,,,,,,,4
null,,confidence_buffer,493894,confidence_buffer,,null,,,,,,,,
null,,thebreak,494395,break,,null,,,,,,,,
1689.7999999523163,,realistic_rating,496087,realistic_rating,,52,Hollendale,4,,,,,,
null,,confidence_buffer,496189,confidence_buffer,,null,,,,,,,,
1944.5999999046326,,pt2_unique_rating,498135,pt2_unique_rating,,52,,4,,,,,,
null,,confidence_buffer,498240,confidence_buffer,,null,,,,,,,,
1085.6000000238419,,pt2_memorable_rating,499326,pt2_memorable_rating,,52,,4,,,,,,
null,,confidence_buffer,499428,confidence_buffer,,null,,,,,,,,
1449.1000000238419,,probe_rating,500878,probe_rating,,51,,,3,1,,,,
null,,confidence_buffer,500980,confidence_buffer,,null,,,,,,,,
1746.2000000476837,,recognition_phase,502727,recognition_phase,,50,,,,,new,0,0.8461538461538461,
null,,confidence_buffer,502837,confidence_buffer,,null,,,,,,,,
1351.8999999761581,,confidence,504190,confidence,,52,,,,,,,,4
null,,confidence_buffer,504292,confidence_buffer,,null,,,,,,,,
null,,thebreak,504793,break,,null,,,,,,,,
3068.3000000715256,,realistic_rating,507862,realistic_rating,,52,Berkeley Springs,4,,,,,,
null,,confidence_buffer,507965,confidence_buffer,,null,,,,,,,,
1888.2999999523163,,pt2_unique_rating,509854,pt2_unique_rating,,52,,4,,,,,,
null,,confidence_buffer,509957,confidence_buffer,,null,,,,,,,,
1265.6000000238419,,pt2_memorable_rating,511224,pt2_memorable_rating,,52,,4,,,,,,
null,,confidence_buffer,511325,confidence_buffer,,null,,,,,,,,
2376,,recognition_phase,513702,recognition_phase,,49,,,,,old,1,0.8571428571428571,
null,,confidence_buffer,513804,confidence_buffer,,null,,,,,,,,
1427.5,,confidence,515233,confidence,,51,,,,,,,,3
null,,confidence_buffer,515336,confidence_buffer,,null,,,,,,,,
null,,thebreak,515838,break,,null,,,,,,,,
1766.8999999761581,,realistic_rating,517606,realistic_rating,,52,Barnard,4,,,,,,
null,,confidence_buffer,517708,confidence_buffer,,null,,,,,,,,
970,,pt2_unique_rating,518679,pt2_unique_rating,,51,,3,,,,,,
null,,confidence_buffer,518781,confidence_buffer,,null,,,,,,,,
888.1999999284744,,pt2_memorable_rating,519671,pt2_memorable_rating,,51,,3,,,,,,
null,,confidence_buffer,519773,confidence_buffer,,null,,,,,,,,
1473.2000000476837,,probe_rating,521247,probe_rating,,52,,,4,1,,,,
null,,confidence_buffer,521349,confidence_buffer,,null,,,,,,,,
1960.5,,recognition_phase,523311,recognition_phase,,50,,,,,new,0,0.8,
null,,confidence_buffer,523412,confidence_buffer,,null,,,,,,,,
1417.1000000238419,,confidence,524831,confidence,,52,,,,,,,,4
null,,confidence_buffer,524932,confidence_buffer,,null,,,,,,,,
null,,thebreak,525434,break,,null,,,,,,,,
2458.7000000476837,,realistic_rating,527894,realistic_rating,,52,Linden Trace,4,,,,,,
null,,confidence_buffer,528010,confidence_buffer,,null,,,,,,,,
739.6000000238419,,probe_rating,528751,probe_rating,,51,,,3,1,,,,
null,,confidence_buffer,528853,confidence_buffer,,null,,,,,,,,
4368.700000047684,,pt2_unique_rating,533222,pt2_unique_rating,,51,,3,,,,,,
null,,confidence_buffer,533325,confidence_buffer,,null,,,,,,,,
1618.2999999523163,,pt2_memorable_rating,534944,pt2_memorable_rating,,51,,3,,,,,,
null,,confidence_buffer,535046,confidence_buffer,,null,,,,,,,,
5086.399999976158,,recognition_phase,540134,recognition_phase,,49,,,,,old,1,0.8125,
null,,confidence_buffer,540237,confidence_buffer,,null,,,,,,,,
1688.3999999761581,,confidence,541926,confidence,,50,,,,,,,,2
null,,confidence_buffer,542029,confidence_buffer,,null,,,,,,,,
null,,thebreak,542534,break,,null,,,,,,,,
1663.2000000476837,,realistic_rating,544198,realistic_rating,,52,New Hope,4,,,,,,
null,,confidence_buffer,544301,confidence_buffer,,null,,,,,,,,
1273,,pt2_unique_rating,545575,pt2_unique_rating,,52,,4,,,,,,
null,,confidence_buffer,545677,confidence_buffer,,null,,,,,,,,
1312.7999999523163,,pt2_memorable_rating,546991,pt2_memorable_rating,,52,,4,,,,,,
null,,confidence_buffer,547093,confidence_buffer,,null,,,,,,,,
1698,,recognition_phase,548792,recognition_phase,,50,,,,,new,1,0.8235294117647058,
null,,confidence_buffer,548894,confidence_buffer,,null,,,,,,,,
1262.3999999761581,,confidence,550158,confidence,,52,,,,,,,,4
null,,confidence_buffer,550260,confidence_buffer,,null,,,,,,,,
null,,thebreak,550761,break,,null,,,,,,,,
2019.9000000953674,,realistic_rating,552782,realistic_rating,,53,Lake of the Ozarks,5,,,,,,
null,,confidence_buffer,552885,confidence_buffer,,null,,,,,,,,
1024.3000000715256,,pt2_unique_rating,553910,pt2_unique_rating,,53,,5,,,,,,
null,,confidence_buffer,554012,confidence_buffer,,null,,,,,,,,
1130.2000000476837,,pt2_memorable_rating,555144,pt2_memorable_rating,,53,,5,,,,,,
null,,confidence_buffer,555245,confidence_buffer,,null,,,,,,,,
1951.8999999761581,,recognition_phase,557198,recognition_phase,,49,,,,,old,1,0.8333333333333334,
null,,confidence_buffer,557300,confidence_buffer,,null,,,,,,,,
1297.1999999284744,,confidence,558598,confidence,,52,,,,,,,,4
null,,confidence_buffer,558700,confidence_buffer,,null,,,,,,,,
null,,thebreak,559203,break,,null,,,,,,,,
2338,,realistic_rating,561542,realistic_rating,,53,Shreveport,5,,,,,,
null,,confidence_buffer,561644,confidence_buffer,,null,,,,,,,,
1275,,pt2_unique_rating,562920,pt2_unique_rating,,53,,5,,,,,,
null,,confidence_buffer,563022,confidence_buffer,,null,,,,,,,,
1079,,pt2_memorable_rating,564102,pt2_memorable_rating,,53,,5,,,,,,
null,,confidence_buffer,564205,confidence_buffer,,null,,,,,,,,
1313.2000000476837,,recognition_phase,565519,recognition_phase,,50,,,,,new,1,0.8421052631578947,
null,,confidence_buffer,565622,confidence_buffer,,null,,,,,,,,
1471.7999999523163,,confidence,567095,confidence,,52,,,,,,,,4
null,,confidence_buffer,567197,confidence_buffer,,null,,,,,,,,
null,,thebreak,567699,break,,null,,,,,,,,
2401.600000023842,,realistic_rating,570102,realistic_rating,,52,Lakehaven,4,,,,,,
null,,confidence_buffer,570204,confidence_buffer,,null,,,,,,,,
1657.6999999284744,,pt2_unique_rating,571863,pt2_unique_rating,,51,,3,,,,,,
null,,confidence_buffer,571965,confidence_buffer,,null,,,,,,,,
1345.3000000715256,,pt2_memorable_rating,573311,pt2_memorable_rating,,52,,4,,,,,,
null,,confidence_buffer,573413,confidence_buffer,,null,,,,,,,,
1608.9000000953674,,recognition_phase,575023,recognition_phase,,50,,,,,new,0,0.8,
null,,confidence_buffer,575125,confidence_buffer,,null,,,,,,,,
1295.8999999761581,,confidence,576422,confidence,,52,,,,,,,,4
null,,confidence_buffer,576524,confidence_buffer,,null,,,,,,,,
null,,thebreak,577026,break,,null,,,,,,,,
2275.2000000476837,,realistic_rating,579302,realistic_rating,,51,Ravenport,3,,,,,,
null,,confidence_buffer,579404,confidence_buffer,,null,,,,,,,,
944.2000000476837,,pt2_unique_rating,580350,pt2_unique_rating,,52,,4,,,,,,
null,,confidence_buffer,580453,confidence_buffer,,null,,,,,,,,
913.2999999523163,,pt2_memorable_rating,581367,pt2_memorable_rating,,51,,3,,,,,,
null,,confidence_buffer,581469,confidence_buffer,,null,,,,,,,,
1496.3999999761581,,probe_rating,582966,probe_rating,,53,,,5,1,,,,
null,,confidence_buffer,583068,confidence_buffer,,null,,,,,,,,
1424.5,,recognition_phase,584494,recognition_phase,,50,,,,,new,1,0.8095238095238095,
null,,confidence_buffer,584596,confidence_buffer,,null,,,,,,,,
1178.3000000715256,,confidence,585775,confidence,,52,,,,,,,,4
null,,confidence_buffer,585878,confidence_buffer,,null,,,,,,,,
null,,thebreak,586394,break,,null,,,,,,,,
2251.5,,realistic_rating,588646,realistic_rating,,51,East Ladera,3,,,,,,
null,,confidence_buffer,588749,confidence_buffer,,null,,,,,,,,
855.8999999761581,,pt2_unique_rating,589606,pt2_unique_rating,,52,,4,,,,,,
null,,confidence_buffer,589707,confidence_buffer,,null,,,,,,,,
1337.7000000476837,,pt2_memorable_rating,591046,pt2_memorable_rating,,52,,4,,,,,,
null,,confidence_buffer,591148,confidence_buffer,,null,,,,,,,,
1584.6000000238419,,recognition_phase,592734,recognition_phase,,50,,,,,new,1,0.8181818181818182,
null,,confidence_buffer,592836,confidence_buffer,,null,,,,,,,,
1113.6000000238419,,confidence,593951,confidence,,52,,,,,,,,4
null,,confidence_buffer,594053,confidence_buffer,,null,,,,,,,,
null,,thebreak,594555,break,,null,,,,,,,,
1553.7000000476837,,realistic_rating,596110,realistic_rating,,53,Delaware City,5,,,,,,
null,,confidence_buffer,596212,confidence_buffer,,null,,,,,,,,
744.7000000476837,,pt2_unique_rating,596958,pt2_unique_rating,,53,,5,,,,,,
null,,confidence_buffer,597059,confidence_buffer,,null,,,,,,,,
986.5,,pt2_memorable_rating,598046,pt2_memorable_rating,,53,,5,,,,,,
null,,confidence_buffer,598148,confidence_buffer,,null,,,,,,,,
1449.7999999523163,,recognition_phase,599599,recognition_phase,,49,,,,,old,1,0.8260869565217391,
null,,confidence_buffer,599701,confidence_buffer,,null,,,,,,,,
1375.7000000476837,,confidence,601078,confidence,,52,,,,,,,,4
null,,confidence_buffer,601179,confidence_buffer,,null,,,,,,,,
null,,thebreak,601681,break,,null,,,,,,,,
2059.3000000715256,,realistic_rating,603742,realistic_rating,,53,Boulder,5,,,,,,
null,,confidence_buffer,603844,confidence_buffer,,null,,,,,,,,
953.2000000476837,,pt2_unique_rating,604798,pt2_unique_rating,,53,,5,,,,,,
null,,confidence_buffer,604900,confidence_buffer,,null,,,,,,,,
1106.2000000476837,,pt2_memorable_rating,606007,pt2_memorable_rating,,53,,5,,,,,,
null,,confidence_buffer,606110,confidence_buffer,,null,,,,,,,,
1311.8999999761581,,recognition_phase,607423,recognition_phase,,50,,,,,new,1,0.8333333333333334,
null,,confidence_buffer,607525,confidence_buffer,,null,,,,,,,,
1231.6000000238419,,confidence,608758,confidence,,52,,,,,,,,4
null,,confidence_buffer,608860,confidence_buffer,,null,,,,,,,,
null,,thebreak,609362,break,,null,,,,,,,,
2275,,realistic_rating,611638,realistic_rating,,53,Sisters,5,,,,,,
null,,confidence_buffer,611739,confidence_buffer,,null,,,,,,,,
1217.8999999761581,,pt2_unique_rating,612958,pt2_unique_rating,,53,,5,,,,,,
null,,confidence_buffer,613060,confidence_buffer,,null,,,,,,,,
1089.1999999284744,,pt2_memorable_rating,614151,pt2_memorable_rating,,53,,5,,,,,,
null,,confidence_buffer,614253,confidence_buffer,,null,,,,,,,,
1416.2999999523163,,recognition_phase,615670,recognition_phase,,50,,,,,new,1,0.84,
null,,confidence_buffer,615773,confidence_buffer,,null,,,,,,,,
1431.7999999523163,,confidence,617206,confidence,,52,,,,,,,,4
null,,confidence_buffer,617307,confidence_buffer,,null,,,,,,,,
null,,thebreak,617809,break,,null,,,,,,,,
1606.7999999523163,,realistic_rating,619417,realistic_rating,,53,Athens,5,,,,,,
null,,confidence_buffer,619520,confidence_buffer,,null,,,,,,,,
2039.1999999284744,,pt2_unique_rating,621560,pt2_unique_rating,,52,,4,,,,,,
null,,confidence_buffer,621662,confidence_buffer,,null,,,,,,,,
862.5,,pt2_memorable_rating,622526,pt2_memorable_rating,,53,,5,,,,,,
null,,confidence_buffer,622632,confidence_buffer,,null,,,,,,,,
1477.3999999761581,,probe_rating,624111,probe_rating,,52,,,4,1,,,,
null,,confidence_buffer,624214,confidence_buffer,,null,,,,,,,,
1502.8999999761581,,recognition_phase,625718,recognition_phase,,50,,,,,new,1,0.8461538461538461,
null,,confidence_buffer,625819,confidence_buffer,,null,,,,,,,,
1194.1000000238419,,confidence,627014,confidence,,52,,,,,,,,4
null,,confidence_buffer,627129,confidence_buffer,,null,,,,,,,,
null,,thebreak,627643,break,,null,,,,,,,,
1842.1000000238419,,realistic_rating,629487,realistic_rating,,53,Orr,5,,,,,,
null,,confidence_buffer,629589,confidence_buffer,,null,,,,,,,,
887.8999999761581,,pt2_unique_rating,630478,pt2_unique_rating,,53,,5,,,,,,
null,,confidence_buffer,630580,confidence_buffer,,null,,,,,,,,
1017.6000000238419,,pt2_memorable_rating,631599,pt2_memorable_rating,,53,,5,,,,,,
null,,confidence_buffer,631702,confidence_buffer,,null,,,,,,,,
1494.7000000476837,,recognition_phase,633198,recognition_phase,,49,,,,,old,1,0.8518518518518519,
null,,confidence_buffer,633300,confidence_buffer,,null,,,,,,,,
1120.3000000715256,,confidence,634421,confidence,,52,,,,,,,,4
null,,confidence_buffer,634523,confidence_buffer,,null,,,,,,,,
null,,thebreak,635025,break,,null,,,,,,,,
2083.3000000715256,,realistic_rating,637109,realistic_rating,,53,Stonebrook,5,,,,,,
null,,confidence_buffer,637212,confidence_buffer,,null,,,,,,,,
1816.8000000715256,,probe_rating,639029,probe_rating,,52,,,4,1,,,,
null,,confidence_buffer,639132,confidence_buffer,,null,,,,,,,,
1256,,pt2_unique_rating,640389,pt2_unique_rating,,52,,4,,,,,,
null,,confidence_buffer,640492,confidence_buffer,,null,,,,,,,,
1322.1000000238419,,pt2_memorable_rating,641815,pt2_memorable_rating,,52,,4,,,,,,
null,,confidence_buffer,641916,confidence_buffer,,null,,,,,,,,
1448.1000000238419,,recognition_phase,643366,recognition_phase,,49,,,,,old,1,0.8571428571428571,
null,,confidence_buffer,643467,confidence_buffer,,null,,,,,,,,
1329.3999999761581,,confidence,644797,confidence,,52,,,,,,,,4
null,,confidence_buffer,644899,confidence_buffer,,null,,,,,,,,
null,,thebreak,645401,break,,null,,,,,,,,
2430.5,,realistic_rating,647833,realistic_rating,,52,Healdsburg,4,,,,,,
null,,confidence_buffer,647935,confidence_buffer,,null,,,,,,,,
1053.7000000476837,,pt2_unique_rating,648990,pt2_unique_rating,,53,,5,,,,,,
null,,confidence_buffer,649092,confidence_buffer,,null,,,,,,,,
1577,,pt2_memorable_rating,650670,pt2_memorable_rating,,52,,4,,,,,,
null,,confidence_buffer,650771,confidence_buffer,,null,,,,,,,,
1538.1000000238419,,recognition_phase,652311,recognition_phase,,49,,,,,old,1,0.8620689655172413,
null,,confidence_buffer,652412,confidence_buffer,,null,,,,,,,,
1080,,confidence,653493,confidence,,52,,,,,,,,4
null,,confidence_buffer,653605,confidence_buffer,,null,,,,,,,,
null,,thebreak,654108,break,,null,,,,,,,,
2864.399999976158,,realistic_rating,656973,realistic_rating,,52,West Talora,4,,,,,,
null,,confidence_buffer,657076,confidence_buffer,,null,,,,,,,,
1298.2999999523163,,pt2_unique_rating,658375,pt2_unique_rating,,53,,5,,,,,,
null,,confidence_buffer,658478,confidence_buffer,,null,,,,,,,,
911.2999999523163,,pt2_memorable_rating,659390,pt2_memorable_rating,,52,,4,,,,,,
null,,confidence_buffer,659492,confidence_buffer,,null,,,,,,,,
1217,,probe_rating,660710,probe_rating,,53,,,5,0,,,,
null,,confidence_buffer,660813,confidence_buffer,,null,,,,,,,,
3417.399999976158,,recognition_phase,664231,recognition_phase,,49,,,,,old,1,0.8666666666666667,
null,,confidence_buffer,664333,confidence_buffer,,null,,,,,,,,
4407.399999976158,,confidence,668742,confidence,,52,,,,,,,,4
null,,confidence_buffer,668844,confidence_buffer,,null,,,,,,,,
null,,thebreak,669354,break,,null,,,,,,,,
2178.399999976158,,realistic_rating,671533,realistic_rating,,52,Millstone,4,,,,,,
null,,confidence_buffer,671636,confidence_buffer,,null,,,,,,,,
1040.6999999284744,,pt2_unique_rating,672677,pt2_unique_rating,,52,,4,,,,,,
null,,confidence_buffer,672779,confidence_buffer,,null,,,,,,,,
1474.5,,pt2_memorable_rating,674255,pt2_memorable_rating,,52,,4,,,,,,
null,,confidence_buffer,674356,confidence_buffer,,null,,,,,,,,
1855.7999999523163,,recognition_phase,676214,recognition_phase,,50,,,,,new,1,0.8709677419354839,
null,,confidence_buffer,676315,confidence_buffer,,null,,,,,,,,
1426,,confidence,677743,confidence,,52,,,,,,,,4
null,,confidence_buffer,677846,confidence_buffer,,null,,,,,,,,
null,,thebreak,678347,break,,null,,,,,,,,
3033.2000000476837,,realistic_rating,681381,realistic_rating,,52,Granton Ridge,4,,,,,,
null,,confidence_buffer,681484,confidence_buffer,,null,,,,,,,,
1704.8999999761581,,pt2_unique_rating,683189,pt2_unique_rating,,52,,4,,,,,,
null,,confidence_buffer,683291,confidence_buffer,,null,,,,,,,,
1641,,pt2_memorable_rating,684933,pt2_memorable_rating,,52,,4,,,,,,
null,,confidence_buffer,685036,confidence_buffer,,null,,,,,,,,
1609.0999999046326,,recognition_phase,686646,recognition_phase,,50,,,,,new,1,0.875,
null,,confidence_buffer,686747,confidence_buffer,,null,,,,,,,,
2025.3999999761581,,confidence,688773,confidence,,52,,,,,,,,4
null,,confidence_buffer,688876,confidence_buffer,,null,,,,,,,,
null,,thebreak,689378,break,,null,,,,,,,,
3075.1999999284744,,realistic_rating,692455,realistic_rating,,53,Sammamish,5,,,,,,
null,,confidence_buffer,692557,confidence_buffer,,null,,,,,,,,
2960.0999999046326,,probe_rating,695518,probe_rating,,50,,,2,1,,,,
null,,confidence_buffer,695620,confidence_buffer,,null,,,,,,,,
1824.1000000238419,,pt2_unique_rating,697445,pt2_unique_rating,,53,,5,,,,,,
null,,confidence_buffer,697548,confidence_buffer,,null,,,,,,,,
1241.5,,pt2_memorable_rating,698790,pt2_memorable_rating,,53,,5,,,,,,
null,,confidence_buffer,698892,confidence_buffer,,null,,,,,,,,
1440.7000000476837,,recognition_phase,700335,recognition_phase,,49,,,,,old,1,0.8787878787878788,
null,,confidence_buffer,700437,confidence_buffer,,null,,,,,,,,
1279.4000000953674,,confidence,701717,confidence,,52,,,,,,,,4
null,,confidence_buffer,701820,confidence_buffer,,null,,,,,,,,
null,,thebreak,702321,break,,null,,,,,,,,
5755.100000023842,,realistic_rating,708077,realistic_rating,,52,Elmsbury,4,,,,,,
null,,confidence_buffer,708180,confidence_buffer,,null,,,,,,,,
1360,,pt2_unique_rating,709541,pt2_unique_rating,,52,,4,,,,,,
null,,confidence_buffer,709643,confidence_buffer,,null,,,,,,,,
1153,,pt2_memorable_rating,710797,pt2_memorable_rating,,52,,4,,,,,,
null,,confidence_buffer,710899,confidence_buffer,,null,,,,,,,,
2184.6999999284744,,recognition_phase,713085,recognition_phase,,50,,,,,new,0,0.8529411764705882,
null,,confidence_buffer,713187,confidence_buffer,,null,,,,,,,,
1393.2999999523163,,confidence,714581,confidence,,52,,,,,,,,4
null,,confidence_buffer,714683,confidence_buffer,,null,,,,,,,,
null,,thebreak,715185,break,,null,,,,,,,,
2779,,realistic_rating,717965,realistic_rating,,53,Hot Springs,5,,,,,,
null,,confidence_buffer,718068,confidence_buffer,,null,,,,,,,,
1296.5999999046326,,pt2_unique_rating,719366,pt2_unique_rating,,53,,5,,,,,,
null,,confidence_buffer,719481,confidence_buffer,,null,,,,,,,,
941,,pt2_memorable_rating,720423,pt2_memorable_rating,,53,,5,,,,,,
null,,confidence_buffer,720540,confidence_buffer,,null,,,,,,,,
1929.3000000715256,,recognition_phase,722471,recognition_phase,,49,,,,,old,1,0.8571428571428571,
null,,confidence_buffer,722573,confidence_buffer,,null,,,,,,,,
1832.5,,confidence,724406,confidence,,51,,,,,,,,3
null,,confidence_buffer,724508,confidence_buffer,,null,,,,,,,,
null,,thebreak,725010,break,,null,,,,,,,,
2122.100000023842,,realistic_rating,727134,realistic_rating,,52,Orchard Bend,4,,,,,,
null,,confidence_buffer,727247,confidence_buffer,,null,,,,,,,,
2085.2000000476837,,pt2_unique_rating,729333,pt2_unique_rating,,52,,4,,,,,,
null,,confidence_buffer,729436,confidence_buffer,,null,,,,,,,,
1529.7000000476837,,probe_rating,730967,probe_rating,,51,,,3,1,,,,
null,,confidence_buffer,731069,confidence_buffer,,null,,,,,,,,
2223,,pt2_memorable_rating,733293,pt2_memorable_rating,,52,,4,,,,,,
null,,confidence_buffer,733396,confidence_buffer,,null,,,,,,,,
2712.7000000476837,,recognition_phase,736109,recognition_phase,,50,,,,,new,0,0.8333333333333334,
null,,confidence_buffer,736210,confidence_buffer,,null,,,,,,,,
2274.399999976158,,confidence,738486,confidence,,51,,,,,,,,3
null,,confidence_buffer,738588,confidence_buffer,,null,,,,,,,,
null,,thebreak,739091,break,,null,,,,,,,,
2049.5999999046326,,realistic_rating,741142,realistic_rating,,53,Duck,5,,,,,,
null,,confidence_buffer,741244,confidence_buffer,,null,,,,,,,,
1096.3999999761581,,pt2_unique_rating,742341,pt2_unique_rating,,53,,5,,,,,,
null,,confidence_buffer,742443,confidence_buffer,,null,,,,,,,,
977.2000000476837,,pt2_memorable_rating,743421,pt2_memorable_rating,,53,,5,,,,,,
null,,confidence_buffer,743524,confidence_buffer,,null,,,,,,,,
1385.5,,recognition_phase,744910,recognition_phase,,50,,,,,new,1,0.8378378378378378,
null,,confidence_buffer,745013,confidence_buffer,,null,,,,,,,,
1351.1999999284744,,confidence,746365,confidence,,52,,,,,,,,4
null,,confidence_buffer,746467,confidence_buffer,,null,,,,,,,,
null,,thebreak,746970,break,,null,,,,,,,,
2330.100000023842,,realistic_rating,749301,realistic_rating,,53,Okoboji,5,,,,,,
null,,confidence_buffer,749404,confidence_buffer,,null,,,,,,,,
1297.5,,pt2_unique_rating,750702,pt2_unique_rating,,53,,5,,,,,,
null,,confidence_buffer,750810,confidence_buffer,,null,,,,,,,,
1297.7999999523163,,probe_rating,752109,probe_rating,,51,,,3,1,,,,
null,,confidence_buffer,752211,confidence_buffer,,null,,,,,,,,
1481.1000000238419,,pt2_memorable_rating,753693,pt2_memorable_rating,,53,,5,,,,,,
null,,confidence_buffer,753795,confidence_buffer,,null,,,,,,,,
2280.5,,recognition_phase,756077,recognition_phase,,49,,,,,old,1,0.8421052631578947,
null,,confidence_buffer,756179,confidence_buffer,,null,,,,,,,,
1376.7000000476837,,confidence,757557,confidence,,52,,,,,,,,4
null,,confidence_buffer,757660,confidence_buffer,,null,,,,,,,,
null,,thebreak,758162,break,,null,,,,,,,,
3945.899999976158,,realistic_rating,762109,realistic_rating,,52,North Arroya,4,,,,,,
null,,confidence_buffer,762211,confidence_buffer,,null,,,,,,,,
1568.5,,probe_rating,763781,probe_rating,,52,,,4,1,,,,
null,,confidence_buffer,763883,confidence_buffer,,null,,,,,,,,
1458.2999999523163,,pt2_unique_rating,765343,pt2_unique_rating,,52,,4,,,,,,
null,,confidence_buffer,765446,confidence_buffer,,null,,,,,,,,
1511.5,,pt2_memorable_rating,766959,pt2_memorable_rating,,52,,4,,,,,,
null,,confidence_buffer,767061,confidence_buffer,,null,,,,,,,,
2031.5,,recognition_phase,769094,recognition_phase,,50,,,,,new,1,0.8461538461538461,
null,,confidence_buffer,769203,confidence_buffer,,null,,,,,,,,
1544.6000000238419,,confidence,770749,confidence,,52,,,,,,,,4
null,,confidence_buffer,770850,confidence_buffer,,null,,,,,,,,
null,,thebreak,771352,break,,null,,,,,,,,
2011,,realistic_rating,773365,realistic_rating,,52,Gloucester,4,,,,,,
null,,confidence_buffer,773476,confidence_buffer,,null,,,,,,,,
1623.7999999523163,,pt2_unique_rating,775101,pt2_unique_rating,,51,,3,,,,,,
null,,confidence_buffer,775203,confidence_buffer,,null,,,,,,,,
1648.1999999284744,,pt2_memorable_rating,776853,pt2_memorable_rating,,52,,4,,,,,,
null,,confidence_buffer,776954,confidence_buffer,,null,,,,,,,,
1946.7000000476837,,probe_rating,778902,probe_rating,,49,,,1,1,,,,
null,,confidence_buffer,779018,confidence_buffer,,null,,,,,,,,
2459.100000023842,,recognition_phase,781478,recognition_phase,,50,,,,,new,1,0.85,
null,,confidence_buffer,781580,confidence_buffer,,null,,,,,,,,
1328.1999999284744,,confidence,782910,confidence,,52,,,,,,,,4
null,,confidence_buffer,783012,confidence_buffer,,null,,,,,,,,
null,,thebreak,783513,break,,null,,,,,,,,
1819.3999999761581,,realistic_rating,785334,realistic_rating,,52,Briarfield,4,,,,,,
null,,confidence_buffer,785437,confidence_buffer,,null,,,,,,,,
1392.5,,pt2_unique_rating,786831,pt2_unique_rating,,52,,4,,,,,,
null,,confidence_buffer,786934,confidence_buffer,,null,,,,,,,,
1206,,pt2_memorable_rating,788141,pt2_memorable_rating,,52,,4,,,,,,
null,,confidence_buffer,788243,confidence_buffer,,null,,,,,,,,
1648.8999999761581,,recognition_phase,789893,recognition_phase,,50,,,,,new,1,0.8536585365853658,
null,,confidence_buffer,789995,confidence_buffer,,null,,,,,,,,
1385.8999999761581,,confidence,791382,confidence,,52,,,,,,,,4
null,,confidence_buffer,791485,confidence_buffer,,null,,,,,,,,
null,,thebreak,791987,break,,null,,,,,,,,
3161.7000000476837,,realistic_rating,795150,realistic_rating,,53,Manistee,5,,,,,,
null,,confidence_buffer,795253,confidence_buffer,,null,,,,,,,,
1182.7999999523163,,pt2_unique_rating,796437,pt2_unique_rating,,53,,5,,,,,,
null,,confidence_buffer,796540,confidence_buffer,,null,,,,,,,,
1073,,pt2_memorable_rating,797614,pt2_memorable_rating,,53,,5,,,,,,
null,,confidence_buffer,797716,confidence_buffer,,null,,,,,,,,
1472.3999999761581,,recognition_phase,799190,recognition_phase,,49,,,,,old,1,0.8571428571428571,
null,,confidence_buffer,799292,confidence_buffer,,null,,,,,,,,
1199.3999999761581,,confidence,800493,confidence,,52,,,,,,,,4
null,,confidence_buffer,800595,confidence_buffer,,null,,,,,,,,
null,,thebreak,801096,break,,null,,,,,,,,
2106.7999999523163,,realistic_rating,803205,realistic_rating,,52,Ashford Hills,4,,,,,,
null,,confidence_buffer,803306,confidence_buffer,,null,,,,,,,,
1305.5,,pt2_unique_rating,804613,pt2_unique_rating,,52,,4,,,,,,
null,,confidence_buffer,804715,confidence_buffer,,null,,,,,,,,
2226.0999999046326,,pt2_memorable_rating,806942,pt2_memorable_rating,,52,,4,,,,,,
null,,confidence_buffer,807052,confidence_buffer,,null,,,,,,,,
2376.2999999523163,,recognition_phase,809430,recognition_phase,,50,,,,,new,0,0.8372093023255814,
null,,confidence_buffer,809533,confidence_buffer,,null,,,,,,,,
3637.899999976158,,confidence,813173,confidence,,52,,,,,,,,4
null,,confidence_buffer,813275,confidence_buffer,,null,,,,,,,,
null,,thebreak,813776,break,,null,,,,,,,,
2091,,realistic_rating,815869,realistic_rating,,52,Crestwood,4,,,,,,
null,,confidence_buffer,815971,confidence_buffer,,null,,,,,,,,
1376.6000000238419,,pt2_unique_rating,817349,pt2_unique_rating,,51,,3,,,,,,
null,,confidence_buffer,817451,confidence_buffer,,null,,,,,,,,
1096.2999999523163,,pt2_memorable_rating,818549,pt2_memorable_rating,,51,,3,,,,,,
null,,confidence_buffer,818651,confidence_buffer,,null,,,,,,,,
1536.6000000238419,,recognition_phase,820188,recognition_phase,,50,,,,,new,1,0.8409090909090909,
null,,confidence_buffer,820290,confidence_buffer,,null,,,,,,,,
1137.1999999284744,,confidence,821429,confidence,,52,,,,,,,,4
null,,confidence_buffer,821531,confidence_buffer,,null,,,,,,,,
null,,thebreak,822046,break,,null,,,,,,,,
3005.7999999523163,,realistic_rating,825053,realistic_rating,,53,Coralridge,5,,,,,,
null,,confidence_buffer,825155,confidence_buffer,,null,,,,,,,,
1057.0999999046326,,pt2_unique_rating,826214,pt2_unique_rating,,53,,5,,,,,,
null,,confidence_buffer,826316,confidence_buffer,,null,,,,,,,,
1432.5,,pt2_memorable_rating,827749,pt2_memorable_rating,,53,,5,,,,,,
null,,confidence_buffer,827851,confidence_buffer,,null,,,,,,,,
1441.5,,recognition_phase,829294,recognition_phase,,49,,,,,old,1,0.8444444444444444,
null,,confidence_buffer,829398,confidence_buffer,,null,,,,,,,,
1374.3000000715256,,confidence,830773,confidence,,51,,,,,,,,3
null,,confidence_buffer,830875,confidence_buffer,,null,,,,,,,,
null,,thebreak,831377,break,,null,,,,,,,,
1690.6999999284744,,realistic_rating,833069,realistic_rating,,52,Fairhaven,4,,,,,,
null,,confidence_buffer,833171,confidence_buffer,,null,,,,,,,,
1544.4000000953674,,pt2_unique_rating,834716,pt2_unique_rating,,51,,3,,,,,,
null,,confidence_buffer,834819,confidence_buffer,,null,,,,,,,,
1393.2000000476837,,pt2_memorable_rating,836213,pt2_memorable_rating,,52,,4,,,,,,
null,,confidence_buffer,836315,confidence_buffer,,null,,,,,,,,
2024.3999999761581,,recognition_phase,838341,recognition_phase,,50,,,,,new,1,0.8478260869565217,
null,,confidence_buffer,838443,confidence_buffer,,null,,,,,,,,
1665.7000000476837,,confidence,840110,confidence,,51,,,,,,,,3
null,,confidence_buffer,840212,confidence_buffer,,null,,,,,,,,
null,,thebreak,840715,break,,null,,,,,,,,
3912.600000023842,,realistic_rating,844629,realistic_rating,,53,Medora,5,,,,,,
null,,confidence_buffer,844731,confidence_buffer,,null,,,,,,,,
2072.899999976158,,pt2_unique_rating,846805,pt2_unique_rating,,53,,5,,,,,,
null,,confidence_buffer,846907,confidence_buffer,,null,,,,,,,,
1592.8000000715256,,probe_rating,848500,probe_rating,,50,,,2,1,,,,
null,,confidence_buffer,848603,confidence_buffer,,null,,,,,,,,
1768.8999999761581,,pt2_memorable_rating,850373,pt2_memorable_rating,,52,,4,,,,,,
null,,confidence_buffer,850475,confidence_buffer,,null,,,,,,,,
1610.7000000476837,,recognition_phase,852087,recognition_phase,,50,,,,,new,1,0.851063829787234,
null,,confidence_buffer,852190,confidence_buffer,,null,,,,,,,,
1401.1000000238419,,confidence,853592,confidence,,52,,,,,,,,4
null,,confidence_buffer,853693,confidence_buffer,,null,,,,,,,,
null,,thebreak,854196,break,,null,,,,,,,,
2111.899999976158,,realistic_rating,856309,realistic_rating,,53,Bowling Green,5,,,,,,
null,,confidence_buffer,856411,confidence_buffer,,null,,,,,,,,
1152.5,,pt2_unique_rating,857565,pt2_unique_rating,,53,,5,,,,,,
null,,confidence_buffer,857666,confidence_buffer,,null,,,,,,,,
1161.7999999523163,,pt2_memorable_rating,858829,pt2_memorable_rating,,53,,5,,,,,,
null,,confidence_buffer,858931,confidence_buffer,,null,,,,,,,,
1448.3999999761581,,recognition_phase,860380,recognition_phase,,50,,,,,new,1,0.8541666666666666,
null,,confidence_buffer,860483,confidence_buffer,,null,,,,,,,,
1353.5,,confidence,861838,confidence,,52,,,,,,,,4
null,,confidence_buffer,861941,confidence_buffer,,null,,,,,,,,
null,,thebreak,862443,break,,null,,,,,,,,
2576.399999976158,,realistic_rating,865021,realistic_rating,,52,Cedarwyn,4,,,,,,
null,,confidence_buffer,865123,confidence_buffer,,null,,,,,,,,
1624.3999999761581,,pt2_unique_rating,866749,pt2_unique_rating,,52,,4,,,,,,
null,,confidence_buffer,866851,confidence_buffer,,null,,,,,,,,
1296.1000000238419,,pt2_memorable_rating,868148,pt2_memorable_rating,,52,,4,,,,,,
null,,confidence_buffer,868250,confidence_buffer,,null,,,,,,,,
4337.399999976158,,recognition_phase,872589,recognition_phase,,50,,,,,new,0,0.8367346938775511,
null,,confidence_buffer,872691,confidence_buffer,,null,,,,,,,,
1618.6000000238419,,confidence,874310,confidence,,50,,,,,,,,2
null,,confidence_buffer,874413,confidence_buffer,,null,,,,,,,,
null,,thebreak,874916,break,,null,,,,,,,,
1903.7999999523163,,realistic_rating,876821,realistic_rating,,52,Summershade,4,,,,,,
null,,confidence_buffer,876923,confidence_buffer,,null,,,,,,,,
1048.7000000476837,,pt2_unique_rating,877973,pt2_unique_rating,,53,,5,,,,,,
null,,confidence_buffer,878075,confidence_buffer,,null,,,,,,,,
968.5,,pt2_memorable_rating,879045,pt2_memorable_rating,,52,,4,,,,,,
null,,confidence_buffer,879148,confidence_buffer,,null,,,,,,,,
1319,,recognition_phase,880468,recognition_phase,,50,,,,,new,1,0.84,
null,,confidence_buffer,880570,confidence_buffer,,null,,,,,,,,
2145.7000000476837,,confidence,882717,confidence,,52,,,,,,,,4
null,,confidence_buffer,882819,confidence_buffer,,null,,,,,,,,
null,,thebreak,883321,break,,null,,,,,,,,
1794.8999999761581,,realistic_rating,885116,realistic_rating,,53,Natchez,5,,,,,,
null,,confidence_buffer,885222,confidence_buffer,,null,,,,,,,,
1110.7999999523163,,pt2_unique_rating,886334,pt2_unique_rating,,53,,5,,,,,,
null,,confidence_buffer,886450,confidence_buffer,,null,,,,,,,,
976.7999999523163,,pt2_memorable_rating,887428,pt2_memorable_rating,,53,,5,,,,,,
null,,confidence_buffer,887531,confidence_buffer,,null,,,,,,,,
1344.1999999284744,,recognition_phase,888876,recognition_phase,,49,,,,,old,1,0.8431372549019608,
null,,confidence_buffer,888978,confidence_buffer,,null,,,,,,,,
1425.6000000238419,,confidence,890404,confidence,,52,,,,,,,,4
null,,confidence_buffer,890507,confidence_buffer,,null,,,,,,,,
null,,thebreak,891012,break,,null,,,,,,,,
2351.5,,realistic_rating,893364,realistic_rating,,53,Sierra Hollow,5,,,,,,
null,,confidence_buffer,893467,confidence_buffer,,null,,,,,,,,
1104.5,,pt2_unique_rating,894572,pt2_unique_rating,,52,,4,,,,,,
null,,confidence_buffer,894675,confidence_buffer,,null,,,,,,,,
1441.1000000238419,,pt2_memorable_rating,896117,pt2_memorable_rating,,52,,4,,,,,,
null,,confidence_buffer,896220,confidence_buffer,,null,,,,,,,,
1472.6000000238419,,recognition_phase,897693,recognition_phase,,50,,,,,new,1,0.8461538461538461,
null,,confidence_buffer,897795,confidence_buffer,,null,,,,,,,,
1936,,confidence,899732,confidence,,51,,,,,,,,3
null,,confidence_buffer,899833,confidence_buffer,,null,,,,,,,,
null,,thebreak,900335,break,,null,,,,,,,,
2220.2000000476837,,realistic_rating,902557,realistic_rating,,53,Huntsville,5,,,,,,
null,,confidence_buffer,902659,confidence_buffer,,null,,,,,,,,
1793.5,,pt2_unique_rating,904454,pt2_unique_rating,,53,,5,,,,,,
null,,confidence_buffer,904556,confidence_buffer,,null,,,,,,,,
1112,,pt2_memorable_rating,905669,pt2_memorable_rating,,53,,5,,,,,,
null,,confidence_buffer,905771,confidence_buffer,,null,,,,,,,,
2200.399999976158,,recognition_phase,907973,recognition_phase,,50,,,,,new,0,0.8301886792452831,
null,,confidence_buffer,908075,confidence_buffer,,null,,,,,,,,
1351.6999999284744,,confidence,909428,confidence,,52,,,,,,,,4
null,,confidence_buffer,909531,confidence_buffer,,null,,,,,,,,
null,,thebreak,910033,break,,null,,,,,,,,
1899.2000000476837,,realistic_rating,911933,realistic_rating,,52,Willowford,4,,,,,,
null,,confidence_buffer,912035,confidence_buffer,,null,,,,,,,,
1024.3000000715256,,pt2_unique_rating,913060,pt2_unique_rating,,52,,4,,,,,,
null,,confidence_buffer,913163,confidence_buffer,,null,,,,,,,,
3577,,pt2_memorable_rating,916741,pt2_memorable_rating,,52,,4,,,,,,
null,,confidence_buffer,916843,confidence_buffer,,null,,,,,,,,
1705.5,,recognition_phase,918549,recognition_phase,,50,,,,,new,1,0.8333333333333334,
null,,confidence_buffer,918651,confidence_buffer,,null,,,,,,,,
1039.9000000953674,,confidence,919692,confidence,,52,,,,,,,,4
null,,confidence_buffer,919794,confidence_buffer,,null,,,,,,,,
null,,thebreak,920295,break,,null,,,,,,,,
2229,,realistic_rating,922525,realistic_rating,,53,Delaro Park,5,,,,,,
null,,confidence_buffer,922628,confidence_buffer,,null,,,,,,,,
983.1999999284744,,pt2_unique_rating,923612,pt2_unique_rating,,53,,5,,,,,,
null,,confidence_buffer,923714,confidence_buffer,,null,,,,,,,,
1241,,pt2_memorable_rating,924956,pt2_memorable_rating,,53,,5,,,,,,
null,,confidence_buffer,925059,confidence_buffer,,null,,,,,,,,
1840.3999999761581,,recognition_phase,926900,recognition_phase,,49,,,,,old,1,0.8363636363636363,
null,,confidence_buffer,927002,confidence_buffer,,null,,,,,,,,
1913.3999999761581,,confidence,928916,confidence,,51,,,,,,,,3
null,,confidence_buffer,929018,confidence_buffer,,null,,,,,,,,
null,,thebreak,929521,break,,null,,,,,,,,
2283.100000023842,,realistic_rating,931805,realistic_rating,,52,Hilo,4,,,,,,
null,,confidence_buffer,931906,confidence_buffer,,null,,,,,,,,
1009.5,,pt2_unique_rating,932916,pt2_unique_rating,,52,,4,,,,,,
null,,confidence_buffer,933019,confidence_buffer,,null,,,,,,,,
1096.8999999761581,,pt2_memorable_rating,934117,pt2_memorable_rating,,52,,4,,,,,,
null,,confidence_buffer,934220,confidence_buffer,,null,,,,,,,,
1606.8999999761581,,recognition_phase,935828,recognition_phase,,50,,,,,new,1,0.8392857142857143,
null,,confidence_buffer,935931,confidence_buffer,,null,,,,,,,,
1040.2999999523163,,confidence,936972,confidence,,52,,,,,,,,4
null,,confidence_buffer,937075,confidence_buffer,,null,,,,,,,,
null,,thebreak,937577,break,,null,,,,,,,,
1657.8999999761581,,realistic_rating,939236,realistic_rating,,53,Cleveland,5,,,,,,
null,,confidence_buffer,939338,confidence_buffer,,null,,,,,,,,
1097.5,,pt2_unique_rating,940437,pt2_unique_rating,,53,,5,,,,,,
null,,confidence_buffer,940539,confidence_buffer,,null,,,,,,,,
1103.7000000476837,,pt2_memorable_rating,941644,pt2_memorable_rating,,53,,5,,,,,,
null,,confidence_buffer,941746,confidence_buffer,,null,,,,,,,,
2177.5999999046326,,recognition_phase,943925,recognition_phase,,50,,,,,new,1,0.8421052631578947,
null,,confidence_buffer,944034,confidence_buffer,,null,,,,,,,,
1336.2999999523163,,confidence,945372,confidence,,52,,,,,,,,4
null,,confidence_buffer,945474,confidence_buffer,,null,,,,,,,,
null,,thebreak,945976,break,,null,,,,,,,,
2858.600000023842,,realistic_rating,948836,realistic_rating,,52,Tamarisk Hills,4,,,,,,
null,,confidence_buffer,948939,confidence_buffer,,null,,,,,,,,
1144.5,,pt2_unique_rating,950084,pt2_unique_rating,,52,,4,,,,,,
null,,confidence_buffer,950186,confidence_buffer,,null,,,,,,,,
1209.2999999523163,,pt2_memorable_rating,951396,pt2_memorable_rating,,52,,4,,,,,,
null,,confidence_buffer,951498,confidence_buffer,,null,,,,,,,,
2577,,recognition_phase,954076,recognition_phase,,49,,,,,old,1,0.8448275862068966,
null,,confidence_buffer,954189,confidence_buffer,,null,,,,,,,,
1486.2999999523163,,confidence,955676,confidence,,51,,,,,,,,3
null,,confidence_buffer,955778,confidence_buffer,,null,,,,,,,,
null,,thebreak,956279,break,,null,,,,,,,,
2204.899999976158,,realistic_rating,958485,realistic_rating,,53,Cornwall,5,,,,,,
null,,confidence_buffer,958588,confidence_buffer,,null,,,,,,,,
1247.6000000238419,,pt2_unique_rating,959837,pt2_unique_rating,,53,,5,,,,,,
null,,confidence_buffer,959939,confidence_buffer,,null,,,,,,,,
1335.8999999761581,,pt2_memorable_rating,961276,pt2_memorable_rating,,53,,5,,,,,,
null,,confidence_buffer,961379,confidence_buffer,,null,,,,,,,,
1416.5,,recognition_phase,962796,recognition_phase,,49,,,,,old,1,0.847457627118644,
null,,confidence_buffer,962899,confidence_buffer,,null,,,,,,,,
1480.2999999523163,,confidence,964381,confidence,,51,,,,,,,,3
null,,confidence_buffer,964484,confidence_buffer,,null,,,,,,,,
null,,thebreak,964985,break,,null,,,,,,,,
1643.2000000476837,,realistic_rating,966630,realistic_rating,,52,Westridge,4,,,,,,
null,,confidence_buffer,966732,confidence_buffer,,null,,,,,,,,
1062.6999999284744,,pt2_unique_rating,967796,pt2_unique_rating,,51,,3,,,,,,
null,,confidence_buffer,967899,confidence_buffer,,null,,,,,,,,
1097.1000000238419,,pt2_memorable_rating,968997,pt2_memorable_rating,,51,,3,,,,,,
null,,confidence_buffer,969099,confidence_buffer,,null,,,,,,,,
1464.6000000238419,,recognition_phase,970565,recognition_phase,,50,,,,,new,0,0.8333333333333334,
null,,confidence_buffer,970667,confidence_buffer,,null,,,,,,,,
1367.8999999761581,,confidence,972036,confidence,,51,,,,,,,,3
null,,confidence_buffer,972138,confidence_buffer,,null,,,,,,,,
null,,thebreak,972644,break,,null,,,,,,,,
