rt,responses,trial_type,time_elapsed,stimulus,cities,city_images,button_pressed,key_press,stimulus_left,stimulus_right,accuracy,cumulative_accuracy,stimulus_down_left,stimulus_down_mid,stimulus_down_right,stimulus_correct,stimulus_short,stimulus_far,weighted_accuracy,missedtrial,condition,specific_pairs,imgL_ID,imgR_ID,linedress,linedressed,image_position,problems,smooth,distraction,strategies,easier,similar,comments
3963.2000000476837,{worker_id: },id_enter,3966,intro,Racine; Leesburg; Peoria; New Hope; West Palm Beach; Gatlinburg; Boulder; Shreveport; Carmel; Huntsville; Hanover; Cornwall; Hot Springs,US_Cities_List/nat_racine.png; US_Cities_List/nat_leesburg.png; US_Cities_List/mm_peoria.png; US_Cities_List/mm_newhope.png; US_Cities_List/mm_westpalmbeach.png; US_Cities_List/nat_gatlinburg.png; US_Cities_List/nat_boulder.png; US_Cities_List/mm_shreveport.png; US_Cities_List/nat_carmel.png; US_Cities_List/nat_huntsville.png; US_Cities_List/mm_hanover.png; US_Cities_List/nat_cornwall.png; US_Cities_List/nat_hotsprings.png,,,,,,,,,,,,,,,,,,,,,,,,,,,,
25910.599999904633,,fullscreen,29880,make_fullscreen,,,0,,,,,,,,,,,,,,,,,,,,,,,,,,,
2122.899999976158,,intro_0,32007,instruct,,,,32,,,,,,,,,,,,,,,,,,,,,,,,,,
16795.800000071526,,intro_1,48804,instruct,,,,32,,,,,,,,,,,,,,,,,,,,,,,,,,
14919.299999952316,,intro_2,63725,instruct,,,,32,,,,,,,,,,,,,,,,,,,,,,,,,,
29531.100000023842,,intro_3,93258,instruct,,,,32,,,,,,,,,,,,,,,,,,,,,,,,,,
11109,,intro_4,104368,instruct,,,,32,,,,,,,,,,,,,,,,,,,,,,,,,,
26091.199999928474,,intro_5,130461,instruct,,,,32,,,,,,,,,,,,,,,,,,,,,,,,,,
null,,prac_atten_color_black,130954,black_plus_sign,,,,null,,,,,,,,,,,,,,,,,,,,,,,,,,
783.2999999523163,,prac_atten_color,131889,prac_stop_color,,,,49,,,,,,,,,,,,,,,,,,,,,,,,,,
null,,prac_atten_color_black,133895,black_plus_sign,,,,null,,,,,,,,,,,,,,,,,,,,,,,,,,
null,,prac_atten_color_black,134390,black_plus_sign,,,,null,,,,,,,,,,,,,,,,,,,,,,,,,,
null,,prac_atten_color,134826,prac_stop_color,,,,null,,,,,,,,,,,,,,,,,,,,,,,,,,
254.90000009536743,,prac_atten_color_black,136837,black_plus_sign,,,,50,,,,,,,,,,,,,,,,,,,,,,,,,,
null,,prac_atten_color_black,137813,black_plus_sign,,,,null,,,,,,,,,,,,,,,,,,,,,,,,,,
449.6999999284744,,prac_atten_color,138415,prac_stop_color,,,,50,,,,,,,,,,,,,,,,,,,,,,,,,,
null,,prac_atten_color_black,140427,black_plus_sign,,,,null,,,,,,,,,,,,,,,,,,,,,,,,,,
null,,prac_atten_color_black,141241,black_plus_sign,,,,null,,,,,,,,,,,,,,,,,,,,,,,,,,
578.7999999523163,,prac_atten_color,142203,prac_stop_color,,,,49,,,,,,,,,,,,,,,,,,,,,,,,,,
null,,prac_atten_color_black,144219,black_plus_sign,,,,null,,,,,,,,,,,,,,,,,,,,,,,,,,
null,,prac_atten_color_black,144676,black_plus_sign,,,,null,,,,,,,,,,,,,,,,,,,,,,,,,,
555.7999999523163,,prac_atten_color,145614,prac_stop_color,,,,50,,,,,,,,,,,,,,,,,,,,,,,,,,
null,,prac_atten_color_black,147617,black_plus_sign,,,,null,,,,,,,,,,,,,,,,,,,,,,,,,,
null,,prac_atten_color_black,148104,black_plus_sign,,,,null,,,,,,,,,,,,,,,,,,,,,,,,,,
514.6999999284744,,prac_atten_color,148720,prac_stop_color,,,,50,,,,,,,,,,,,,,,,,,,,,,,,,,
null,,prac_atten_color_black,150727,black_plus_sign,,,,null,,,,,,,,,,,,,,,,,,,,,,,,,,
null,,prac_atten_color_black,151524,black_plus_sign,,,,null,,,,,,,,,,,,,,,,,,,,,,,,,,
354.2000000476837,,prac_atten_color,152268,prac_stop_color,,,,49,,,,,,,,,,,,,,,,,,,,,,,,,,
null,,prac_atten_color_black,154270,black_plus_sign,,,,null,,,,,,,,,,,,,,,,,,,,,,,,,,
null,,prac_atten_color_black,154954,black_plus_sign,,,,null,,,,,,,,,,,,,,,,,,,,,,,,,,
465.5,,prac_atten_color,155760,prac_stop_color,,,,50,,,,,,,,,,,,,,,,,,,,,,,,,,
null,,prac_atten_color_black,157767,black_plus_sign,,,,null,,,,,,,,,,,,,,,,,,,,,,,,,,
null,,prac_atten_color_black,158383,black_plus_sign,,,,null,,,,,,,,,,,,,,,,,,,,,,,,,,
572.4000000953674,,prac_atten_color,159445,prac_stop_color,,,,49,,,,,,,,,,,,,,,,,,,,,,,,,,
null,,prac_atten_color_black,161454,black_plus_sign,,,,null,,,,,,,,,,,,,,,,,,,,,,,,,,
null,,prac_atten_color_black,161816,black_plus_sign,,,,null,,,,,,,,,,,,,,,,,,,,,,,,,,
null,,prac_atten_color,162419,prac_stop_color,,,,null,,,,,,,,,,,,,,,,,,,,,,,,,,
20.09999990463257,,prac_atten_color_black,164430,black_plus_sign,,,,49,,,,,,,,,,,,,,,,,,,,,,,,,,
8891.800000071526,,attentioncheck_feedback,173325,cross_check_feedback,,,0,,,,,,,,,,,,,,,,,,,,,,,,,,,
10721.799999952316,,last_instruct,184048,instruct,,,,32,,,,,,,,,,,,,,,,,,,,,,,,,,
null,,learn_phase(without_color),186086,black_plus_sign,,,,null,US_Cities_List/nat_boulder.png,US_Cities_List/nat_carmel.png,,,,,,,,,,,,,,,,,,,,,,,,
null,,black_cross(without_color),187020,blue,,,,null,US_Cities_List/nat_boulder.png,US_Cities_List/nat_carmel.png,,,,,,,,,,,,,,,,,,,,,,,,
null,,rt_plussign_withcolor,187530,blue,,,,null,US_Cities_List/nat_boulder.png,US_Cities_List/nat_carmel.png,,,,,,,,,,,,,,,,,,,,,,,,
1129.2000000476837,,rt_thecrossant_black,188624,black_plus_sign,,,,49,,,1,1,,,,,,,,,,,,,,,,,,,,,,
null,,color_black,188734,black_plus_sign,,,,null,,,,,,,,,,,,,,,,,,,,,,,,,,
null,,learn_phase(without_color),191281,black_plus_sign,,,,null,US_Cities_List/mm_shreveport.png,US_Cities_List/nat_huntsville.png,,,,,,,,,,,,,,,,,,,,,,,,
null,,black_cross(without_color),191693,blue,,,,null,US_Cities_List/mm_shreveport.png,US_Cities_List/nat_huntsville.png,,,,,,,,,,,,,,,,,,,,,,,,
null,,rt_plussign_withcolor,192203,blue,,,,null,US_Cities_List/mm_shreveport.png,US_Cities_List/nat_huntsville.png,,,,,,,,,,,,,,,,,,,,,,,,
925,,rt_thecrossant_black,193805,black_plus_sign,,,,49,,,1,1,,,,,,,,,,,,,,,,,,,,,,
null,,color_black,193924,black_plus_sign,,,,null,,,,,,,,,,,,,,,,,,,,,,,,,,
null,,learn_phase(without_color),196461,black_plus_sign,,,,null,US_Cities_List/nat_carmel.png,US_Cities_List/mm_hanover.png,,,,,,,,,,,,,,,,,,,,,,,,
null,,black_cross(without_color),196930,green,,,,null,US_Cities_List/nat_carmel.png,US_Cities_List/mm_hanover.png,,,,,,,,,,,,,,,,,,,,,,,,
null,,rt_plussign_withcolor,197438,green,,,,null,US_Cities_List/nat_carmel.png,US_Cities_List/mm_hanover.png,,,,,,,,,,,,,,,,,,,,,,,,
668.8999999761581,,rt_thecrossant_black,198977,black_plus_sign,,,,50,,,1,1,,,,,,,,,,,,,,,,,,,,,,
null,,color_black,199088,black_plus_sign,,,,null,,,,,,,,,,,,,,,,,,,,,,,,,,
null,,learn_phase(without_color),201621,black_plus_sign,,,,null,US_Cities_List/mm_newhope.png,US_Cities_List/nat_cornwall.png,,,,,,,,,,,,,,,,,,,,,,,,
null,,black_cross(without_color),202420,green,,,,null,US_Cities_List/mm_newhope.png,US_Cities_List/nat_cornwall.png,,,,,,,,,,,,,,,,,,,,,,,,
null,,rt_plussign_withcolor,202930,green,,,,null,US_Cities_List/mm_newhope.png,US_Cities_List/nat_cornwall.png,,,,,,,,,,,,,,,,,,,,,,,,
597.7999999523163,,rt_thecrossant_black,204147,black_plus_sign,,,,50,,,1,1,,,,,,,,,,,,,,,,,,,,,,
null,,color_black,204249,black_plus_sign,,,,null,,,,,,,,,,,,,,,,,,,,,,,,,,
null,,learn_phase(without_color),206787,black_plus_sign,,,,null,US_Cities_List/nat_boulder.png,US_Cities_List/nat_carmel.png,,,,,,,,,,,,,,,,,,,,,,,,
null,,black_cross(without_color),207769,green,,,,null,US_Cities_List/nat_boulder.png,US_Cities_List/nat_carmel.png,,,,,,,,,,,,,,,,,,,,,,,,
null,,rt_plussign_withcolor,208278,green,,,,null,US_Cities_List/nat_boulder.png,US_Cities_List/nat_carmel.png,,,,,,,,,,,,,,,,,,,,,,,,
920.3999999761581,,rt_thecrossant_black,209311,black_plus_sign,,,,50,,,1,1,,,,,,,,,,,,,,,,,,,,,,
null,,color_black,209426,black_plus_sign,,,,null,,,,,,,,,,,,,,,,,,,,,,,,,,
null,,learn_phase(without_color),211960,black_plus_sign,,,,null,US_Cities_List/nat_racine.png,US_Cities_List/nat_leesburg.png,,,,,,,,,,,,,,,,,,,,,,,,
null,,black_cross(without_color),212432,green,,,,null,US_Cities_List/nat_racine.png,US_Cities_List/nat_leesburg.png,,,,,,,,,,,,,,,,,,,,,,,,
484.3000000715256,,rt_plussign_withcolor,212938,green,,,,50,US_Cities_List/nat_racine.png,US_Cities_List/nat_leesburg.png,,,,,,,,,,,,,,,,,,,,,,,,
null,,rt_thecrossant_black,214484,black_plus_sign,,,,null,,,1,1,,,,,,,,,,,,,,,,,,,,,,
null,,color_black,214590,black_plus_sign,,,,null,,,,,,,,,,,,,,,,,,,,,,,,,,
null,,learn_phase(without_color),217140,black_plus_sign,,,,null,US_Cities_List/nat_leesburg.png,US_Cities_List/mm_peoria.png,,,,,,,,,,,,,,,,,,,,,,,,
null,,black_cross(without_color),217608,green,,,,null,US_Cities_List/nat_leesburg.png,US_Cities_List/mm_peoria.png,,,,,,,,,,,,,,,,,,,,,,,,
null,,rt_plussign_withcolor,218114,green,,,,null,US_Cities_List/nat_leesburg.png,US_Cities_List/mm_peoria.png,,,,,,,,,,,,,,,,,,,,,,,,
654.6000000238419,,rt_thecrossant_black,219670,black_plus_sign,,,,50,,,1,1,,,,,,,,,,,,,,,,,,,,,,
null,,color_black,219774,black_plus_sign,,,,null,,,,,,,,,,,,,,,,,,,,,,,,,,
null,,learn_phase(without_color),222318,black_plus_sign,,,,null,US_Cities_List/nat_racine.png,US_Cities_List/nat_leesburg.png,,,,,,,,,,,,,,,,,,,,,,,,
null,,black_cross(without_color),222976,blue,,,,null,US_Cities_List/nat_racine.png,US_Cities_List/nat_leesburg.png,,,,,,,,,,,,,,,,,,,,,,,,
365.39999997615814,,rt_plussign_withcolor,223483,blue,,,,49,US_Cities_List/nat_racine.png,US_Cities_List/nat_leesburg.png,,,,,,,,,,,,,,,,,,,,,,,,
null,,rt_thecrossant_black,224839,black_plus_sign,,,,null,,,1,1,,,,,,,,,,,,,,,,,,,,,,
null,,color_black,224948,black_plus_sign,,,,null,,,,,,,,,,,,,,,,,,,,,,,,,,
null,,learn_phase(without_color),227475,black_plus_sign,,,,null,US_Cities_List/nat_boulder.png,US_Cities_List/nat_hotsprings.png,,,,,,,,,,,,,,,,,,,,,,,,
null,,black_cross(without_color),227997,blue,,,,null,US_Cities_List/nat_boulder.png,US_Cities_List/nat_hotsprings.png,,,,,,,,,,,,,,,,,,,,,,,,
420,,rt_plussign_withcolor,228514,blue,,,,50,US_Cities_List/nat_boulder.png,US_Cities_List/nat_hotsprings.png,,,,,,,,,,,,,,,,,,,,,,,,
null,,rt_thecrossant_black,230006,black_plus_sign,,,,null,,,0,0.8888888888888888,,,,,,,,,,,,,,,,,,,,,,
null,,color_black,230115,black_plus_sign,,,,null,,,,,,,,,,,,,,,,,,,,,,,,,,
null,,learn_phase(without_color),232650,black_plus_sign,,,,null,US_Cities_List/nat_gatlinburg.png,US_Cities_List/nat_carmel.png,,,,,,,,,,,,,,,,,,,,,,,,
null,,black_cross(without_color),233575,blue,,,,null,US_Cities_List/nat_gatlinburg.png,US_Cities_List/nat_carmel.png,,,,,,,,,,,,,,,,,,,,,,,,
492.60000002384186,,rt_plussign_withcolor,234083,blue,,,,49,US_Cities_List/nat_gatlinburg.png,US_Cities_List/nat_carmel.png,,,,,,,,,,,,,,,,,,,,,,,,
null,,rt_thecrossant_black,235181,black_plus_sign,,,,null,,,1,0.9,,,,,,,,,,,,,,,,,,,,,,
null,,color_black,235289,black_plus_sign,,,,null,,,,,,,,,,,,,,,,,,,,,,,,,,
null,,learn_phase(without_color),237824,black_plus_sign,,,,null,US_Cities_List/nat_carmel.png,US_Cities_List/mm_hanover.png,,,,,,,,,,,,,,,,,,,,,,,,
null,,black_cross(without_color),238471,green,,,,null,US_Cities_List/nat_carmel.png,US_Cities_List/mm_hanover.png,,,,,,,,,,,,,,,,,,,,,,,,
null,,rt_plussign_withcolor,238984,green,,,,null,US_Cities_List/nat_carmel.png,US_Cities_List/mm_hanover.png,,,,,,,,,,,,,,,,,,,,,,,,
1122.0999999046326,,rt_thecrossant_black,240357,black_plus_sign,,,,50,,,1,0.9090909090909091,,,,,,,,,,,,,,,,,,,,,,
null,,color_black,240467,black_plus_sign,,,,null,,,,,,,,,,,,,,,,,,,,,,,,,,
null,,learn_phase(without_color),243013,black_plus_sign,,,,null,US_Cities_List/nat_gatlinburg.png,US_Cities_List/nat_boulder.png,,,,,,,,,,,,,,,,,,,,,,,,
null,,black_cross(without_color),243890,blue,,,,null,US_Cities_List/nat_gatlinburg.png,US_Cities_List/nat_boulder.png,,,,,,,,,,,,,,,,,,,,,,,,
null,,rt_plussign_withcolor,244411,blue,,,,null,US_Cities_List/nat_gatlinburg.png,US_Cities_List/nat_boulder.png,,,,,,,,,,,,,,,,,,,,,,,,
757.6000000238419,,rt_thecrossant_black,245553,black_plus_sign,,,,49,,,1,0.9166666666666666,,,,,,,,,,,,,,,,,,,,,,
null,,color_black,245659,black_plus_sign,,,,null,,,,,,,,,,,,,,,,,,,,,,,,,,
null,,learn_phase(without_color),248199,black_plus_sign,,,,null,US_Cities_List/nat_boulder.png,US_Cities_List/mm_shreveport.png,,,,,,,,,,,,,,,,,,,,,,,,
null,,black_cross(without_color),249197,blue,,,,null,US_Cities_List/nat_boulder.png,US_Cities_List/mm_shreveport.png,,,,,,,,,,,,,,,,,,,,,,,,
478.8000000715256,,rt_plussign_withcolor,249705,blue,,,,49,US_Cities_List/nat_boulder.png,US_Cities_List/mm_shreveport.png,,,,,,,,,,,,,,,,,,,,,,,,
null,,rt_thecrossant_black,250731,black_plus_sign,,,,null,,,1,0.9230769230769231,,,,,,,,,,,,,,,,,,,,,,
null,,color_black,250840,black_plus_sign,,,,null,,,,,,,,,,,,,,,,,,,,,,,,,,
null,,learn_phase(without_color),253378,black_plus_sign,,,,null,US_Cities_List/nat_carmel.png,US_Cities_List/mm_hanover.png,,,,,,,,,,,,,,,,,,,,,,,,
null,,black_cross(without_color),254015,blue,,,,null,US_Cities_List/nat_carmel.png,US_Cities_List/mm_hanover.png,,,,,,,,,,,,,,,,,,,,,,,,
null,,rt_plussign_withcolor,254534,blue,,,,null,US_Cities_List/nat_carmel.png,US_Cities_List/mm_hanover.png,,,,,,,,,,,,,,,,,,,,,,,,
1176.7000000476837,,rt_thecrossant_black,255922,black_plus_sign,,,,49,,,1,0.9285714285714286,,,,,,,,,,,,,,,,,,,,,,
null,,color_black,256030,black_plus_sign,,,,null,,,,,,,,,,,,,,,,,,,,,,,,,,
null,,learn_phase(without_color),258565,black_plus_sign,,,,null,US_Cities_List/nat_boulder.png,US_Cities_List/nat_hotsprings.png,,,,,,,,,,,,,,,,,,,,,,,,
null,,black_cross(without_color),259185,green,,,,null,US_Cities_List/nat_boulder.png,US_Cities_List/nat_hotsprings.png,,,,,,,,,,,,,,,,,,,,,,,,
null,,rt_plussign_withcolor,259696,green,,,,null,US_Cities_List/nat_boulder.png,US_Cities_List/nat_hotsprings.png,,,,,,,,,,,,,,,,,,,,,,,,
731.6999999284744,,rt_thecrossant_black,261104,black_plus_sign,,,,50,,,1,0.9333333333333333,,,,,,,,,,,,,,,,,,,,,,
null,,color_black,261222,black_plus_sign,,,,null,,,,,,,,,,,,,,,,,,,,,,,,,,
null,,learn_phase(without_color),263762,black_plus_sign,,,,null,US_Cities_List/mm_newhope.png,US_Cities_List/mm_westpalmbeach.png,,,,,,,,,,,,,,,,,,,,,,,,
null,,black_cross(without_color),264244,green,,,,null,US_Cities_List/mm_newhope.png,US_Cities_List/mm_westpalmbeach.png,,,,,,,,,,,,,,,,,,,,,,,,
null,,rt_plussign_withcolor,264760,green,,,,null,US_Cities_List/mm_newhope.png,US_Cities_List/mm_westpalmbeach.png,,,,,,,,,,,,,,,,,,,,,,,,
818.8999999761581,,rt_thecrossant_black,266290,black_plus_sign,,,,50,,,1,0.9375,,,,,,,,,,,,,,,,,,,,,,
null,,color_black,266400,black_plus_sign,,,,null,,,,,,,,,,,,,,,,,,,,,,,,,,
null,,learn_phase(without_color),268941,black_plus_sign,,,,null,US_Cities_List/mm_shreveport.png,US_Cities_List/nat_huntsville.png,,,,,,,,,,,,,,,,,,,,,,,,
null,,black_cross(without_color),269455,blue,,,,null,US_Cities_List/mm_shreveport.png,US_Cities_List/nat_huntsville.png,,,,,,,,,,,,,,,,,,,,,,,,
356.7999999523163,,rt_plussign_withcolor,269963,blue,,,,49,US_Cities_List/mm_shreveport.png,US_Cities_List/nat_huntsville.png,,,,,,,,,,,,,,,,,,,,,,,,
null,,rt_thecrossant_black,271471,black_plus_sign,,,,null,,,1,0.9411764705882353,,,,,,,,,,,,,,,,,,,,,,
null,,color_black,271580,black_plus_sign,,,,null,,,,,,,,,,,,,,,,,,,,,,,,,,
null,,learn_phase(without_color),274120,black_plus_sign,,,,null,US_Cities_List/nat_boulder.png,US_Cities_List/nat_hotsprings.png,,,,,,,,,,,,,,,,,,,,,,,,
null,,black_cross(without_color),275142,green,,,,null,US_Cities_List/nat_boulder.png,US_Cities_List/nat_hotsprings.png,,,,,,,,,,,,,,,,,,,,,,,,
454.7999999523163,,rt_plussign_withcolor,275647,green,,,,50,US_Cities_List/nat_boulder.png,US_Cities_List/nat_hotsprings.png,,,,,,,,,,,,,,,,,,,,,,,,
null,,rt_thecrossant_black,276645,black_plus_sign,,,,null,,,1,0.9444444444444444,,,,,,,,,,,,,,,,,,,,,,
null,,color_black,276751,black_plus_sign,,,,null,,,,,,,,,,,,,,,,,,,,,,,,,,
null,,learn_phase(without_color),279294,black_plus_sign,,,,null,US_Cities_List/mm_hanover.png,US_Cities_List/nat_cornwall.png,,,,,,,,,,,,,,,,,,,,,,,,
null,,black_cross(without_color),280335,blue,,,,null,US_Cities_List/mm_hanover.png,US_Cities_List/nat_cornwall.png,,,,,,,,,,,,,,,,,,,,,,,,
null,,rt_plussign_withcolor,280853,blue,,,,null,US_Cities_List/mm_hanover.png,US_Cities_List/nat_cornwall.png,,,,,,,,,,,,,,,,,,,,,,,,
1151.9000000953674,,rt_thecrossant_black,281830,black_plus_sign,,,,49,,,1,0.9473684210526315,,,,,,,,,,,,,,,,,,,,,,
null,,color_black,281939,black_plus_sign,,,,null,,,,,,,,,,,,,,,,,,,,,,,,,,
null,,learn_phase(without_color),284472,black_plus_sign,,,,null,US_Cities_List/nat_racine.png,US_Cities_List/nat_leesburg.png,,,,,,,,,,,,,,,,,,,,,,,,
null,,black_cross(without_color),285532,blue,,,,null,US_Cities_List/nat_racine.png,US_Cities_List/nat_leesburg.png,,,,,,,,,,,,,,,,,,,,,,,,
null,,rt_plussign_withcolor,286041,blue,,,,null,US_Cities_List/nat_racine.png,US_Cities_List/nat_leesburg.png,,,,,,,,,,,,,,,,,,,,,,,,
1283.2999999523163,,rt_thecrossant_black,286998,black_plus_sign,,,,49,,,1,0.95,,,,,,,,,,,,,,,,,,,,,,
null,,color_black,287115,black_plus_sign,,,,null,,,,,,,,,,,,,,,,,,,,,,,,,,
null,,learn_phase(without_color),289642,black_plus_sign,,,,null,US_Cities_List/nat_leesburg.png,US_Cities_List/mm_newhope.png,,,,,,,,,,,,,,,,,,,,,,,,
null,,black_cross(without_color),290217,green,,,,null,US_Cities_List/nat_leesburg.png,US_Cities_List/mm_newhope.png,,,,,,,,,,,,,,,,,,,,,,,,
null,,rt_plussign_withcolor,290725,green,,,,null,US_Cities_List/nat_leesburg.png,US_Cities_List/mm_newhope.png,,,,,,,,,,,,,,,,,,,,,,,,
1196.3000000715256,,rt_thecrossant_black,292172,black_plus_sign,,,,50,,,1,0.9523809523809523,,,,,,,,,,,,,,,,,,,,,,
null,,color_black,292277,black_plus_sign,,,,null,,,,,,,,,,,,,,,,,,,,,,,,,,
null,,learn_phase(without_color),294823,black_plus_sign,,,,null,US_Cities_List/nat_gatlinburg.png,US_Cities_List/nat_carmel.png,,,,,,,,,,,,,,,,,,,,,,,,
null,,black_cross(without_color),295327,blue,,,,null,US_Cities_List/nat_gatlinburg.png,US_Cities_List/nat_carmel.png,,,,,,,,,,,,,,,,,,,,,,,,
null,,rt_plussign_withcolor,295832,blue,,,,null,US_Cities_List/nat_gatlinburg.png,US_Cities_List/nat_carmel.png,,,,,,,,,,,,,,,,,,,,,,,,
701.2000000476837,,rt_thecrossant_black,297338,black_plus_sign,,,,49,,,1,0.9545454545454546,,,,,,,,,,,,,,,,,,,,,,
null,,color_black,297440,black_plus_sign,,,,null,,,,,,,,,,,,,,,,,,,,,,,,,,
null,,learn_phase(without_color),299984,black_plus_sign,,,,null,US_Cities_List/mm_newhope.png,US_Cities_List/nat_cornwall.png,,,,,,,,,,,,,,,,,,,,,,,,
null,,black_cross(without_color),300521,blue,,,,null,US_Cities_List/mm_newhope.png,US_Cities_List/nat_cornwall.png,,,,,,,,,,,,,,,,,,,,,,,,
468.7999999523163,,rt_plussign_withcolor,301030,blue,,,,49,US_Cities_List/mm_newhope.png,US_Cities_List/nat_cornwall.png,,,,,,,,,,,,,,,,,,,,,,,,
null,,rt_thecrossant_black,302512,black_plus_sign,,,,null,,,1,0.9565217391304348,,,,,,,,,,,,,,,,,,,,,,
null,,color_black,302627,black_plus_sign,,,,null,,,,,,,,,,,,,,,,,,,,,,,,,,
null,,learn_phase(without_color),305161,black_plus_sign,,,,null,US_Cities_List/mm_peoria.png,US_Cities_List/mm_hanover.png,,,,,,,,,,,,,,,,,,,,,,,,
null,,black_cross(without_color),306276,blue,,,,null,US_Cities_List/mm_peoria.png,US_Cities_List/mm_hanover.png,,,,,,,,,,,,,,,,,,,,,,,,
null,,rt_plussign_withcolor,306782,blue,,,,null,US_Cities_List/mm_peoria.png,US_Cities_List/mm_hanover.png,,,,,,,,,,,,,,,,,,,,,,,,
800.2999999523163,,rt_thecrossant_black,307696,black_plus_sign,,,,49,,,1,0.9583333333333334,,,,,,,,,,,,,,,,,,,,,,
null,,color_black,307806,black_plus_sign,,,,null,,,,,,,,,,,,,,,,,,,,,,,,,,
null,,learn_phase(without_color),310350,black_plus_sign,,,,null,US_Cities_List/nat_boulder.png,US_Cities_List/mm_shreveport.png,,,,,,,,,,,,,,,,,,,,,,,,
null,,black_cross(without_color),311229,green,,,,null,US_Cities_List/nat_boulder.png,US_Cities_List/mm_shreveport.png,,,,,,,,,,,,,,,,,,,,,,,,
417.1999999284744,,rt_plussign_withcolor,311731,green,,,,50,US_Cities_List/nat_boulder.png,US_Cities_List/mm_shreveport.png,,,,,,,,,,,,,,,,,,,,,,,,
null,,rt_thecrossant_black,312866,black_plus_sign,,,,null,,,1,0.96,,,,,,,,,,,,,,,,,,,,,,
null,,color_black,312976,black_plus_sign,,,,null,,,,,,,,,,,,,,,,,,,,,,,,,,
null,,learn_phase(without_color),315519,black_plus_sign,,,,null,US_Cities_List/mm_peoria.png,US_Cities_List/nat_gatlinburg.png,,,,,,,,,,,,,,,,,,,,,,,,
null,,black_cross(without_color),316595,green,,,,null,US_Cities_List/mm_peoria.png,US_Cities_List/nat_gatlinburg.png,,,,,,,,,,,,,,,,,,,,,,,,
null,,rt_plussign_withcolor,317101,green,,,,null,US_Cities_List/mm_peoria.png,US_Cities_List/nat_gatlinburg.png,,,,,,,,,,,,,,,,,,,,,,,,
1112.6000000238419,,rt_thecrossant_black,318045,black_plus_sign,,,,50,,,1,0.9615384615384616,,,,,,,,,,,,,,,,,,,,,,
null,,color_black,318151,black_plus_sign,,,,null,,,,,,,,,,,,,,,,,,,,,,,,,,
null,,learn_phase(without_color),320687,black_plus_sign,,,,null,US_Cities_List/nat_boulder.png,US_Cities_List/nat_carmel.png,,,,,,,,,,,,,,,,,,,,,,,,
null,,black_cross(without_color),321210,blue,,,,null,US_Cities_List/nat_boulder.png,US_Cities_List/nat_carmel.png,,,,,,,,,,,,,,,,,,,,,,,,
null,,rt_plussign_withcolor,321722,blue,,,,null,US_Cities_List/nat_boulder.png,US_Cities_List/nat_carmel.png,,,,,,,,,,,,,,,,,,,,,,,,
1214.8000000715256,,rt_thecrossant_black,323223,black_plus_sign,,,,49,,,1,0.9629629629629629,,,,,,,,,,,,,,,,,,,,,,
null,,color_black,323330,black_plus_sign,,,,null,,,,,,,,,,,,,,,,,,,,,,,,,,
null,,learn_phase(without_color),325862,black_plus_sign,,,,null,US_Cities_List/mm_hanover.png,US_Cities_List/nat_cornwall.png,,,,,,,,,,,,,,,,,,,,,,,,
null,,black_cross(without_color),326427,blue,,,,null,US_Cities_List/mm_hanover.png,US_Cities_List/nat_cornwall.png,,,,,,,,,,,,,,,,,,,,,,,,
475.60000002384186,,rt_plussign_withcolor,326931,blue,,,,49,US_Cities_List/mm_hanover.png,US_Cities_List/nat_cornwall.png,,,,,,,,,,,,,,,,,,,,,,,,
null,,rt_thecrossant_black,328391,black_plus_sign,,,,null,,,1,0.9642857142857143,,,,,,,,,,,,,,,,,,,,,,
null,,color_black,328500,black_plus_sign,,,,null,,,,,,,,,,,,,,,,,,,,,,,,,,
null,,learn_phase(without_color),331054,black_plus_sign,,,,null,US_Cities_List/nat_boulder.png,US_Cities_List/mm_shreveport.png,,,,,,,,,,,,,,,,,,,,,,,,
null,,black_cross(without_color),331662,blue,,,,null,US_Cities_List/nat_boulder.png,US_Cities_List/mm_shreveport.png,,,,,,,,,,,,,,,,,,,,,,,,
447.59999990463257,,rt_plussign_withcolor,332170,blue,,,,49,US_Cities_List/nat_boulder.png,US_Cities_List/mm_shreveport.png,,,,,,,,,,,,,,,,,,,,,,,,
null,,rt_thecrossant_black,333584,black_plus_sign,,,,null,,,1,0.9655172413793104,,,,,,,,,,,,,,,,,,,,,,
null,,color_black,333686,black_plus_sign,,,,null,,,,,,,,,,,,,,,,,,,,,,,,,,
null,,learn_phase(without_color),336222,black_plus_sign,,,,null,US_Cities_List/nat_racine.png,US_Cities_List/nat_leesburg.png,,,,,,,,,,,,,,,,,,,,,,,,
null,,black_cross(without_color),336968,blue,,,,null,US_Cities_List/nat_racine.png,US_Cities_List/nat_leesburg.png,,,,,,,,,,,,,,,,,,,,,,,,
465.09999990463257,,rt_plussign_withcolor,337475,blue,,,,49,US_Cities_List/nat_racine.png,US_Cities_List/nat_leesburg.png,,,,,,,,,,,,,,,,,,,,,,,,
null,,rt_thecrossant_black,338746,black_plus_sign,,,,null,,,1,0.9666666666666667,,,,,,,,,,,,,,,,,,,,,,
null,,color_black,338863,black_plus_sign,,,,null,,,,,,,,,,,,,,,,,,,,,,,,,,
null,,learn_phase(without_color),341401,black_plus_sign,,,,null,US_Cities_List/nat_carmel.png,US_Cities_List/mm_hanover.png,,,,,,,,,,,,,,,,,,,,,,,,
null,,black_cross(without_color),342171,blue,,,,null,US_Cities_List/nat_carmel.png,US_Cities_List/mm_hanover.png,,,,,,,,,,,,,,,,,,,,,,,,
393.2999999523163,,rt_plussign_withcolor,342678,blue,,,,49,US_Cities_List/nat_carmel.png,US_Cities_List/mm_hanover.png,,,,,,,,,,,,,,,,,,,,,,,,
null,,rt_thecrossant_black,343933,black_plus_sign,,,,null,,,1,0.967741935483871,,,,,,,,,,,,,,,,,,,,,,
null,,color_black,344039,black_plus_sign,,,,null,,,,,,,,,,,,,,,,,,,,,,,,,,
null,,learn_phase(without_color),346573,black_plus_sign,,,,null,US_Cities_List/nat_racine.png,US_Cities_List/nat_leesburg.png,,,,,,,,,,,,,,,,,,,,,,,,
null,,black_cross(without_color),347270,blue,,,,null,US_Cities_List/nat_racine.png,US_Cities_List/nat_leesburg.png,,,,,,,,,,,,,,,,,,,,,,,,
438.2000000476837,,rt_plussign_withcolor,347777,blue,,,,49,US_Cities_List/nat_racine.png,US_Cities_List/nat_leesburg.png,,,,,,,,,,,,,,,,,,,,,,,,
null,,rt_thecrossant_black,349097,black_plus_sign,,,,null,,,1,0.96875,,,,,,,,,,,,,,,,,,,,,,
null,,color_black,349206,black_plus_sign,,,,null,,,,,,,,,,,,,,,,,,,,,,,,,,
null,,learn_phase(without_color),351747,black_plus_sign,,,,null,US_Cities_List/mm_peoria.png,US_Cities_List/nat_gatlinburg.png,,,,,,,,,,,,,,,,,,,,,,,,
null,,black_cross(without_color),352219,blue,,,,null,US_Cities_List/mm_peoria.png,US_Cities_List/nat_gatlinburg.png,,,,,,,,,,,,,,,,,,,,,,,,
null,,rt_plussign_withcolor,352728,blue,,,,null,US_Cities_List/mm_peoria.png,US_Cities_List/nat_gatlinburg.png,,,,,,,,,,,,,,,,,,,,,,,,
800.2999999523163,,rt_thecrossant_black,354281,black_plus_sign,,,,49,,,1,0.9696969696969697,,,,,,,,,,,,,,,,,,,,,,
null,,color_black,354390,black_plus_sign,,,,null,,,,,,,,,,,,,,,,,,,,,,,,,,
null,,learn_phase(without_color),356924,black_plus_sign,,,,null,US_Cities_List/mm_hanover.png,US_Cities_List/nat_cornwall.png,,,,,,,,,,,,,,,,,,,,,,,,
null,,black_cross(without_color),357641,green,,,,null,US_Cities_List/mm_hanover.png,US_Cities_List/nat_cornwall.png,,,,,,,,,,,,,,,,,,,,,,,,
null,,rt_plussign_withcolor,358153,green,,,,null,US_Cities_List/mm_hanover.png,US_Cities_List/nat_cornwall.png,,,,,,,,,,,,,,,,,,,,,,,,
599.8999999761581,,rt_thecrossant_black,359465,black_plus_sign,,,,50,,,1,0.9705882352941176,,,,,,,,,,,,,,,,,,,,,,
null,,color_black,359568,black_plus_sign,,,,null,,,,,,,,,,,,,,,,,,,,,,,,,,
null,,learn_phase(without_color),362114,black_plus_sign,,,,null,US_Cities_List/nat_gatlinburg.png,US_Cities_List/nat_boulder.png,,,,,,,,,,,,,,,,,,,,,,,,
null,,black_cross(without_color),363070,blue,,,,null,US_Cities_List/nat_gatlinburg.png,US_Cities_List/nat_boulder.png,,,,,,,,,,,,,,,,,,,,,,,,
367.59999990463257,,rt_plussign_withcolor,363572,blue,,,,49,US_Cities_List/nat_gatlinburg.png,US_Cities_List/nat_boulder.png,,,,,,,,,,,,,,,,,,,,,,,,
null,,rt_thecrossant_black,364648,black_plus_sign,,,,null,,,1,0.9714285714285714,,,,,,,,,,,,,,,,,,,,,,
null,,color_black,364761,black_plus_sign,,,,null,,,,,,,,,,,,,,,,,,,,,,,,,,
null,,learn_phase(without_color),367309,black_plus_sign,,,,null,US_Cities_List/mm_shreveport.png,US_Cities_List/nat_huntsville.png,,,,,,,,,,,,,,,,,,,,,,,,
null,,black_cross(without_color),368272,blue,,,,null,US_Cities_List/mm_shreveport.png,US_Cities_List/nat_huntsville.png,,,,,,,,,,,,,,,,,,,,,,,,
341.5,,rt_plussign_withcolor,368780,blue,,,,49,US_Cities_List/mm_shreveport.png,US_Cities_List/nat_huntsville.png,,,,,,,,,,,,,,,,,,,,,,,,
null,,rt_thecrossant_black,369828,black_plus_sign,,,,null,,,1,0.9722222222222222,,,,,,,,,,,,,,,,,,,,,,
null,,color_black,369942,black_plus_sign,,,,null,,,,,,,,,,,,,,,,,,,,,,,,,,
null,,learn_phase(without_color),372478,black_plus_sign,,,,null,US_Cities_List/mm_peoria.png,US_Cities_List/nat_gatlinburg.png,,,,,,,,,,,,,,,,,,,,,,,,
null,,black_cross(without_color),372983,green,,,,null,US_Cities_List/mm_peoria.png,US_Cities_List/nat_gatlinburg.png,,,,,,,,,,,,,,,,,,,,,,,,
464.39999997615814,,rt_plussign_withcolor,373491,green,,,,50,US_Cities_List/mm_peoria.png,US_Cities_List/nat_gatlinburg.png,,,,,,,,,,,,,,,,,,,,,,,,
null,,rt_thecrossant_black,375009,black_plus_sign,,,,null,,,1,0.972972972972973,,,,,,,,,,,,,,,,,,,,,,
null,,color_black,375119,black_plus_sign,,,,null,,,,,,,,,,,,,,,,,,,,,,,,,,
null,,learn_phase(without_color),377653,black_plus_sign,,,,null,US_Cities_List/nat_carmel.png,US_Cities_List/mm_hanover.png,,,,,,,,,,,,,,,,,,,,,,,,
null,,black_cross(without_color),378082,green,,,,null,US_Cities_List/nat_carmel.png,US_Cities_List/mm_hanover.png,,,,,,,,,,,,,,,,,,,,,,,,
462.6999999284744,,rt_plussign_withcolor,378585,green,,,,50,US_Cities_List/nat_carmel.png,US_Cities_List/mm_hanover.png,,,,,,,,,,,,,,,,,,,,,,,,
null,,rt_thecrossant_black,380173,black_plus_sign,,,,null,,,1,0.9736842105263158,,,,,,,,,,,,,,,,,,,,,,
null,,color_black,380281,black_plus_sign,,,,null,,,,,,,,,,,,,,,,,,,,,,,,,,
null,,learn_phase(without_color),382817,black_plus_sign,,,,null,US_Cities_List/mm_newhope.png,US_Cities_List/mm_westpalmbeach.png,,,,,,,,,,,,,,,,,,,,,,,,
null,,black_cross(without_color),383475,green,,,,null,US_Cities_List/mm_newhope.png,US_Cities_List/mm_westpalmbeach.png,,,,,,,,,,,,,,,,,,,,,,,,
null,,rt_plussign_withcolor,383995,green,,,,null,US_Cities_List/mm_newhope.png,US_Cities_List/mm_westpalmbeach.png,,,,,,,,,,,,,,,,,,,,,,,,
597.6000000238419,,rt_thecrossant_black,385359,black_plus_sign,,,,50,,,1,0.9743589743589743,,,,,,,,,,,,,,,,,,,,,,
null,,color_black,385476,black_plus_sign,,,,null,,,,,,,,,,,,,,,,,,,,,,,,,,
null,,learn_phase(without_color),388028,black_plus_sign,,,,null,US_Cities_List/nat_gatlinburg.png,US_Cities_List/nat_boulder.png,,,,,,,,,,,,,,,,,,,,,,,,
null,,black_cross(without_color),389128,green,,,,null,US_Cities_List/nat_gatlinburg.png,US_Cities_List/nat_boulder.png,,,,,,,,,,,,,,,,,,,,,,,,
443.7999999523163,,rt_plussign_withcolor,389641,green,,,,50,US_Cities_List/nat_gatlinburg.png,US_Cities_List/nat_boulder.png,,,,,,,,,,,,,,,,,,,,,,,,
null,,rt_thecrossant_black,390560,black_plus_sign,,,,null,,,1,0.975,,,,,,,,,,,,,,,,,,,,,,
null,,color_black,390665,black_plus_sign,,,,null,,,,,,,,,,,,,,,,,,,,,,,,,,
null,,learn_phase(without_color),393209,black_plus_sign,,,,null,US_Cities_List/mm_newhope.png,US_Cities_List/nat_cornwall.png,,,,,,,,,,,,,,,,,,,,,,,,
null,,black_cross(without_color),393637,blue,,,,null,US_Cities_List/mm_newhope.png,US_Cities_List/nat_cornwall.png,,,,,,,,,,,,,,,,,,,,,,,,
null,,rt_plussign_withcolor,394151,blue,,,,null,US_Cities_List/mm_newhope.png,US_Cities_List/nat_cornwall.png,,,,,,,,,,,,,,,,,,,,,,,,
1218,,rt_thecrossant_black,395746,black_plus_sign,,,,49,,,1,0.975609756097561,,,,,,,,,,,,,,,,,,,,,,
null,,color_black,395853,black_plus_sign,,,,null,,,,,,,,,,,,,,,,,,,,,,,,,,
null,,learn_phase(without_color),398394,black_plus_sign,,,,null,US_Cities_List/mm_peoria.png,US_Cities_List/mm_hanover.png,,,,,,,,,,,,,,,,,,,,,,,,
null,,black_cross(without_color),398967,blue,,,,null,US_Cities_List/mm_peoria.png,US_Cities_List/mm_hanover.png,,,,,,,,,,,,,,,,,,,,,,,,
null,,rt_plussign_withcolor,399470,blue,,,,null,US_Cities_List/mm_peoria.png,US_Cities_List/mm_hanover.png,,,,,,,,,,,,,,,,,,,,,,,,
526.6000000238419,,rt_thecrossant_black,400915,black_plus_sign,,,,49,,,1,0.9761904761904762,,,,,,,,,,,,,,,,,,,,,,
null,,color_black,401022,black_plus_sign,,,,null,,,,,,,,,,,,,,,,,,,,,,,,,,
null,,learn_phase(without_color),403557,black_plus_sign,,,,null,US_Cities_List/nat_leesburg.png,US_Cities_List/mm_peoria.png,,,,,,,,,,,,,,,,,,,,,,,,
null,,black_cross(without_color),404567,blue,,,,null,US_Cities_List/nat_leesburg.png,US_Cities_List/mm_peoria.png,,,,,,,,,,,,,,,,,,,,,,,,
486.7999999523163,,rt_plussign_withcolor,405073,blue,,,,49,US_Cities_List/nat_leesburg.png,US_Cities_List/mm_peoria.png,,,,,,,,,,,,,,,,,,,,,,,,
null,,rt_thecrossant_black,406075,black_plus_sign,,,,null,,,1,0.9767441860465116,,,,,,,,,,,,,,,,,,,,,,
null,,color_black,406187,black_plus_sign,,,,null,,,,,,,,,,,,,,,,,,,,,,,,,,
null,,learn_phase(without_color),408737,black_plus_sign,,,,null,US_Cities_List/mm_peoria.png,US_Cities_List/nat_gatlinburg.png,,,,,,,,,,,,,,,,,,,,,,,,
null,,black_cross(without_color),409190,green,,,,null,US_Cities_List/mm_peoria.png,US_Cities_List/nat_gatlinburg.png,,,,,,,,,,,,,,,,,,,,,,,,
null,,rt_plussign_withcolor,409702,green,,,,null,US_Cities_List/mm_peoria.png,US_Cities_List/nat_gatlinburg.png,,,,,,,,,,,,,,,,,,,,,,,,
1137.2999999523163,,rt_thecrossant_black,411274,black_plus_sign,,,,50,,,1,0.9772727272727273,,,,,,,,,,,,,,,,,,,,,,
null,,color_black,411388,black_plus_sign,,,,null,,,,,,,,,,,,,,,,,,,,,,,,,,
null,,learn_phase(without_color),413925,black_plus_sign,,,,null,US_Cities_List/nat_gatlinburg.png,US_Cities_List/nat_carmel.png,,,,,,,,,,,,,,,,,,,,,,,,
null,,black_cross(without_color),414957,green,,,,null,US_Cities_List/nat_gatlinburg.png,US_Cities_List/nat_carmel.png,,,,,,,,,,,,,,,,,,,,,,,,
443,,rt_plussign_withcolor,415460,green,,,,50,US_Cities_List/nat_gatlinburg.png,US_Cities_List/nat_carmel.png,,,,,,,,,,,,,,,,,,,,,,,,
null,,rt_thecrossant_black,416446,black_plus_sign,,,,null,,,1,0.9777777777777777,,,,,,,,,,,,,,,,,,,,,,
null,,color_black,416554,black_plus_sign,,,,null,,,,,,,,,,,,,,,,,,,,,,,,,,
null,,learn_phase(without_color),419092,black_plus_sign,,,,null,US_Cities_List/mm_peoria.png,US_Cities_List/mm_hanover.png,,,,,,,,,,,,,,,,,,,,,,,,
null,,black_cross(without_color),420052,blue,,,,null,US_Cities_List/mm_peoria.png,US_Cities_List/mm_hanover.png,,,,,,,,,,,,,,,,,,,,,,,,
397.2000000476837,,rt_plussign_withcolor,420571,blue,,,,49,US_Cities_List/mm_peoria.png,US_Cities_List/mm_hanover.png,,,,,,,,,,,,,,,,,,,,,,,,
null,,rt_thecrossant_black,421634,black_plus_sign,,,,null,,,1,0.9782608695652174,,,,,,,,,,,,,,,,,,,,,,
null,,color_black,421750,black_plus_sign,,,,null,,,,,,,,,,,,,,,,,,,,,,,,,,
null,,learn_phase(without_color),424300,black_plus_sign,,,,null,US_Cities_List/mm_peoria.png,US_Cities_List/nat_gatlinburg.png,,,,,,,,,,,,,,,,,,,,,,,,
null,,black_cross(without_color),425296,green,,,,null,US_Cities_List/mm_peoria.png,US_Cities_List/nat_gatlinburg.png,,,,,,,,,,,,,,,,,,,,,,,,
483.3000000715256,,rt_plussign_withcolor,425799,green,,,,50,US_Cities_List/mm_peoria.png,US_Cities_List/nat_gatlinburg.png,,,,,,,,,,,,,,,,,,,,,,,,
null,,rt_thecrossant_black,426834,black_plus_sign,,,,null,,,1,0.9787234042553191,,,,,,,,,,,,,,,,,,,,,,
null,,color_black,426939,black_plus_sign,,,,null,,,,,,,,,,,,,,,,,,,,,,,,,,
null,,learn_phase(without_color),429488,black_plus_sign,,,,null,US_Cities_List/mm_newhope.png,US_Cities_List/mm_westpalmbeach.png,,,,,,,,,,,,,,,,,,,,,,,,
null,,black_cross(without_color),429907,green,,,,null,US_Cities_List/mm_newhope.png,US_Cities_List/mm_westpalmbeach.png,,,,,,,,,,,,,,,,,,,,,,,,
349,,rt_plussign_withcolor,430411,green,,,,50,US_Cities_List/mm_newhope.png,US_Cities_List/mm_westpalmbeach.png,,,,,,,,,,,,,,,,,,,,,,,,
null,,rt_thecrossant_black,432013,black_plus_sign,,,,null,,,1,0.9791666666666666,,,,,,,,,,,,,,,,,,,,,,
null,,color_black,432119,black_plus_sign,,,,null,,,,,,,,,,,,,,,,,,,,,,,,,,
null,,learn_phase(without_color),434661,black_plus_sign,,,,null,US_Cities_List/mm_hanover.png,US_Cities_List/nat_cornwall.png,,,,,,,,,,,,,,,,,,,,,,,,
null,,black_cross(without_color),435685,blue,,,,null,US_Cities_List/mm_hanover.png,US_Cities_List/nat_cornwall.png,,,,,,,,,,,,,,,,,,,,,,,,
null,,rt_plussign_withcolor,436193,blue,,,,null,US_Cities_List/mm_hanover.png,US_Cities_List/nat_cornwall.png,,,,,,,,,,,,,,,,,,,,,,,,
698.7000000476837,,rt_thecrossant_black,437185,black_plus_sign,,,,49,,,1,0.9795918367346939,,,,,,,,,,,,,,,,,,,,,,
null,,color_black,437292,black_plus_sign,,,,null,,,,,,,,,,,,,,,,,,,,,,,,,,
null,,learn_phase(without_color),439831,black_plus_sign,,,,null,US_Cities_List/mm_peoria.png,US_Cities_List/mm_hanover.png,,,,,,,,,,,,,,,,,,,,,,,,
null,,black_cross(without_color),440927,blue,,,,null,US_Cities_List/mm_peoria.png,US_Cities_List/mm_hanover.png,,,,,,,,,,,,,,,,,,,,,,,,
null,,rt_plussign_withcolor,441439,blue,,,,null,US_Cities_List/mm_peoria.png,US_Cities_List/mm_hanover.png,,,,,,,,,,,,,,,,,,,,,,,,
1148.7999999523163,,rt_thecrossant_black,442362,black_plus_sign,,,,49,,,1,0.98,,,,,,,,,,,,,,,,,,,,,,
null,,color_black,442474,black_plus_sign,,,,null,,,,,,,,,,,,,,,,,,,,,,,,,,
null,,learn_phase(without_color),445007,black_plus_sign,,,,null,US_Cities_List/nat_boulder.png,US_Cities_List/nat_hotsprings.png,,,,,,,,,,,,,,,,,,,,,,,,
null,,black_cross(without_color),445797,blue,,,,null,US_Cities_List/nat_boulder.png,US_Cities_List/nat_hotsprings.png,,,,,,,,,,,,,,,,,,,,,,,,
null,,rt_plussign_withcolor,446316,blue,,,,null,US_Cities_List/nat_boulder.png,US_Cities_List/nat_hotsprings.png,,,,,,,,,,,,,,,,,,,,,,,,
1400,,rt_thecrossant_black,447547,black_plus_sign,,,,49,,,1,0.9803921568627451,,,,,,,,,,,,,,,,,,,,,,
null,,color_black,447658,black_plus_sign,,,,null,,,,,,,,,,,,,,,,,,,,,,,,,,
null,,learn_phase(without_color),450196,black_plus_sign,,,,null,US_Cities_List/mm_hanover.png,US_Cities_List/nat_cornwall.png,,,,,,,,,,,,,,,,,,,,,,,,
null,,black_cross(without_color),450924,blue,,,,null,US_Cities_List/mm_hanover.png,US_Cities_List/nat_cornwall.png,,,,,,,,,,,,,,,,,,,,,,,,
482,,rt_plussign_withcolor,451431,blue,,,,49,US_Cities_List/mm_hanover.png,US_Cities_List/nat_cornwall.png,,,,,,,,,,,,,,,,,,,,,,,,
null,,rt_thecrossant_black,452723,black_plus_sign,,,,null,,,1,0.9807692307692307,,,,,,,,,,,,,,,,,,,,,,
null,,color_black,452833,black_plus_sign,,,,null,,,,,,,,,,,,,,,,,,,,,,,,,,
null,,learn_phase(without_color),455369,black_plus_sign,,,,null,US_Cities_List/nat_boulder.png,US_Cities_List/nat_carmel.png,,,,,,,,,,,,,,,,,,,,,,,,
null,,black_cross(without_color),456362,blue,,,,null,US_Cities_List/nat_boulder.png,US_Cities_List/nat_carmel.png,,,,,,,,,,,,,,,,,,,,,,,,
440,,rt_plussign_withcolor,456866,blue,,,,49,US_Cities_List/nat_boulder.png,US_Cities_List/nat_carmel.png,,,,,,,,,,,,,,,,,,,,,,,,
null,,rt_thecrossant_black,457888,black_plus_sign,,,,null,,,1,0.9811320754716981,,,,,,,,,,,,,,,,,,,,,,
null,,color_black,457998,black_plus_sign,,,,null,,,,,,,,,,,,,,,,,,,,,,,,,,
null,,learn_phase(without_color),460535,black_plus_sign,,,,null,US_Cities_List/nat_carmel.png,US_Cities_List/mm_hanover.png,,,,,,,,,,,,,,,,,,,,,,,,
null,,black_cross(without_color),461112,green,,,,null,US_Cities_List/nat_carmel.png,US_Cities_List/mm_hanover.png,,,,,,,,,,,,,,,,,,,,,,,,
null,,rt_plussign_withcolor,461614,green,,,,null,US_Cities_List/nat_carmel.png,US_Cities_List/mm_hanover.png,,,,,,,,,,,,,,,,,,,,,,,,
1108,,rt_thecrossant_black,463062,black_plus_sign,,,,50,,,1,0.9814814814814815,,,,,,,,,,,,,,,,,,,,,,
null,,color_black,463170,black_plus_sign,,,,null,,,,,,,,,,,,,,,,,,,,,,,,,,
null,,learn_phase(without_color),465701,black_plus_sign,,,,null,US_Cities_List/mm_newhope.png,US_Cities_List/nat_cornwall.png,,,,,,,,,,,,,,,,,,,,,,,,
null,,black_cross(without_color),466253,green,,,,null,US_Cities_List/mm_newhope.png,US_Cities_List/nat_cornwall.png,,,,,,,,,,,,,,,,,,,,,,,,
null,,rt_plussign_withcolor,466764,green,,,,null,US_Cities_List/mm_newhope.png,US_Cities_List/nat_cornwall.png,,,,,,,,,,,,,,,,,,,,,,,,
719.0999999046326,,rt_thecrossant_black,468230,black_plus_sign,,,,50,,,1,0.9818181818181818,,,,,,,,,,,,,,,,,,,,,,
null,,color_black,468347,black_plus_sign,,,,null,,,,,,,,,,,,,,,,,,,,,,,,,,
null,,learn_phase(without_color),470891,black_plus_sign,,,,null,US_Cities_List/nat_boulder.png,US_Cities_List/nat_hotsprings.png,,,,,,,,,,,,,,,,,,,,,,,,
null,,black_cross(without_color),471632,blue,,,,null,US_Cities_List/nat_boulder.png,US_Cities_List/nat_hotsprings.png,,,,,,,,,,,,,,,,,,,,,,,,
371,,rt_plussign_withcolor,472139,blue,,,,49,US_Cities_List/nat_boulder.png,US_Cities_List/nat_hotsprings.png,,,,,,,,,,,,,,,,,,,,,,,,
null,,rt_thecrossant_black,473430,black_plus_sign,,,,null,,,1,0.9821428571428571,,,,,,,,,,,,,,,,,,,,,,
null,,color_black,473541,black_plus_sign,,,,null,,,,,,,,,,,,,,,,,,,,,,,,,,
null,,learn_phase(without_color),476079,black_plus_sign,,,,null,US_Cities_List/nat_leesburg.png,US_Cities_List/mm_newhope.png,,,,,,,,,,,,,,,,,,,,,,,,
null,,black_cross(without_color),477140,blue,,,,null,US_Cities_List/nat_leesburg.png,US_Cities_List/mm_newhope.png,,,,,,,,,,,,,,,,,,,,,,,,
514.2000000476837,,rt_plussign_withcolor,477667,blue,,,,49,US_Cities_List/nat_leesburg.png,US_Cities_List/mm_newhope.png,,,,,,,,,,,,,,,,,,,,,,,,
null,,rt_thecrossant_black,478616,black_plus_sign,,,,null,,,1,0.9824561403508771,,,,,,,,,,,,,,,,,,,,,,
null,,color_black,478733,black_plus_sign,,,,null,,,,,,,,,,,,,,,,,,,,,,,,,,
null,,learn_phase(without_color),481268,black_plus_sign,,,,null,US_Cities_List/mm_newhope.png,US_Cities_List/nat_cornwall.png,,,,,,,,,,,,,,,,,,,,,,,,
null,,black_cross(without_color),482100,green,,,,null,US_Cities_List/mm_newhope.png,US_Cities_List/nat_cornwall.png,,,,,,,,,,,,,,,,,,,,,,,,
null,,rt_plussign_withcolor,482607,green,,,,null,US_Cities_List/mm_newhope.png,US_Cities_List/nat_cornwall.png,,,,,,,,,,,,,,,,,,,,,,,,
1248.7000000476837,,rt_thecrossant_black,483807,black_plus_sign,,,,50,,,1,0.9827586206896551,,,,,,,,,,,,,,,,,,,,,,
null,,color_black,483916,black_plus_sign,,,,null,,,,,,,,,,,,,,,,,,,,,,,,,,
null,,learn_phase(without_color),486466,black_plus_sign,,,,null,US_Cities_List/mm_newhope.png,US_Cities_List/mm_westpalmbeach.png,,,,,,,,,,,,,,,,,,,,,,,,
null,,black_cross(without_color),487415,blue,,,,null,US_Cities_List/mm_newhope.png,US_Cities_List/mm_westpalmbeach.png,,,,,,,,,,,,,,,,,,,,,,,,
470.6999999284744,,rt_plussign_withcolor,487921,blue,,,,49,US_Cities_List/mm_newhope.png,US_Cities_List/mm_westpalmbeach.png,,,,,,,,,,,,,,,,,,,,,,,,
null,,rt_thecrossant_black,488995,black_plus_sign,,,,null,,,1,0.9830508474576272,,,,,,,,,,,,,,,,,,,,,,
null,,color_black,489110,black_plus_sign,,,,null,,,,,,,,,,,,,,,,,,,,,,,,,,
null,,learn_phase(without_color),491643,black_plus_sign,,,,null,US_Cities_List/nat_gatlinburg.png,US_Cities_List/nat_carmel.png,,,,,,,,,,,,,,,,,,,,,,,,
null,,black_cross(without_color),492092,green,,,,null,US_Cities_List/nat_gatlinburg.png,US_Cities_List/nat_carmel.png,,,,,,,,,,,,,,,,,,,,,,,,
null,,rt_plussign_withcolor,492598,green,,,,null,US_Cities_List/nat_gatlinburg.png,US_Cities_List/nat_carmel.png,,,,,,,,,,,,,,,,,,,,,,,,
1036.6000000238419,,rt_thecrossant_black,494162,black_plus_sign,,,,50,,,1,0.9833333333333333,,,,,,,,,,,,,,,,,,,,,,
null,,color_black,494279,black_plus_sign,,,,null,,,,,,,,,,,,,,,,,,,,,,,,,,
null,,learn_phase(without_color),496813,black_plus_sign,,,,null,US_Cities_List/nat_boulder.png,US_Cities_List/mm_shreveport.png,,,,,,,,,,,,,,,,,,,,,,,,
null,,black_cross(without_color),497910,green,,,,null,US_Cities_List/nat_boulder.png,US_Cities_List/mm_shreveport.png,,,,,,,,,,,,,,,,,,,,,,,,
451.3000000715256,,rt_plussign_withcolor,498415,green,,,,50,US_Cities_List/nat_boulder.png,US_Cities_List/mm_shreveport.png,,,,,,,,,,,,,,,,,,,,,,,,
null,,rt_thecrossant_black,499341,black_plus_sign,,,,null,,,1,0.9836065573770492,,,,,,,,,,,,,,,,,,,,,,
null,,color_black,499450,black_plus_sign,,,,null,,,,,,,,,,,,,,,,,,,,,,,,,,
null,,learn_phase(without_color),501982,black_plus_sign,,,,null,US_Cities_List/mm_peoria.png,US_Cities_List/mm_hanover.png,,,,,,,,,,,,,,,,,,,,,,,,
null,,black_cross(without_color),502427,green,,,,null,US_Cities_List/mm_peoria.png,US_Cities_List/mm_hanover.png,,,,,,,,,,,,,,,,,,,,,,,,
null,,rt_plussign_withcolor,502939,green,,,,null,US_Cities_List/mm_peoria.png,US_Cities_List/mm_hanover.png,,,,,,,,,,,,,,,,,,,,,,,,
1197.6000000238419,,rt_thecrossant_black,504507,black_plus_sign,,,,50,,,1,0.9838709677419355,,,,,,,,,,,,,,,,,,,,,,
null,,color_black,504623,black_plus_sign,,,,null,,,,,,,,,,,,,,,,,,,,,,,,,,
null,,learn_phase(without_color),507166,black_plus_sign,,,,null,US_Cities_List/nat_leesburg.png,US_Cities_List/mm_peoria.png,,,,,,,,,,,,,,,,,,,,,,,,
null,,black_cross(without_color),507868,green,,,,null,US_Cities_List/nat_leesburg.png,US_Cities_List/mm_peoria.png,,,,,,,,,,,,,,,,,,,,,,,,
null,,rt_plussign_withcolor,508375,green,,,,null,US_Cities_List/nat_leesburg.png,US_Cities_List/mm_peoria.png,,,,,,,,,,,,,,,,,,,,,,,,
572.5,,rt_thecrossant_black,509702,black_plus_sign,,,,50,,,1,0.9841269841269841,,,,,,,,,,,,,,,,,,,,,,
null,,color_black,509810,black_plus_sign,,,,null,,,,,,,,,,,,,,,,,,,,,,,,,,
null,,learn_phase(without_color),512339,black_plus_sign,,,,null,US_Cities_List/mm_newhope.png,US_Cities_List/nat_cornwall.png,,,,,,,,,,,,,,,,,,,,,,,,
null,,black_cross(without_color),513239,blue,,,,null,US_Cities_List/mm_newhope.png,US_Cities_List/nat_cornwall.png,,,,,,,,,,,,,,,,,,,,,,,,
408.10000002384186,,rt_plussign_withcolor,513749,blue,,,,49,US_Cities_List/mm_newhope.png,US_Cities_List/nat_cornwall.png,,,,,,,,,,,,,,,,,,,,,,,,
null,,rt_thecrossant_black,514880,black_plus_sign,,,,null,,,1,0.984375,,,,,,,,,,,,,,,,,,,,,,
null,,color_black,514992,black_plus_sign,,,,null,,,,,,,,,,,,,,,,,,,,,,,,,,
null,,learn_phase(without_color),517533,black_plus_sign,,,,null,US_Cities_List/mm_shreveport.png,US_Cities_List/nat_huntsville.png,,,,,,,,,,,,,,,,,,,,,,,,
null,,black_cross(without_color),518246,blue,,,,null,US_Cities_List/mm_shreveport.png,US_Cities_List/nat_huntsville.png,,,,,,,,,,,,,,,,,,,,,,,,
null,,rt_plussign_withcolor,518755,blue,,,,null,US_Cities_List/mm_shreveport.png,US_Cities_List/nat_huntsville.png,,,,,,,,,,,,,,,,,,,,,,,,
1002.3999999761581,,rt_thecrossant_black,520053,black_plus_sign,,,,49,,,1,0.9846153846153847,,,,,,,,,,,,,,,,,,,,,,
null,,color_black,520162,black_plus_sign,,,,null,,,,,,,,,,,,,,,,,,,,,,,,,,
null,,learn_phase(without_color),522701,black_plus_sign,,,,null,US_Cities_List/mm_shreveport.png,US_Cities_List/nat_carmel.png,,,,,,,,,,,,,,,,,,,,,,,,
null,,black_cross(without_color),523767,blue,,,,null,US_Cities_List/mm_shreveport.png,US_Cities_List/nat_carmel.png,,,,,,,,,,,,,,,,,,,,,,,,
403.5,,rt_plussign_withcolor,524272,blue,,,,49,US_Cities_List/mm_shreveport.png,US_Cities_List/nat_carmel.png,,,,,,,,,,,,,,,,,,,,,,,,
null,,rt_thecrossant_black,525222,black_plus_sign,,,,null,,,1,0.9848484848484849,,,,,,,,,,,,,,,,,,,,,,
null,,color_black,525330,black_plus_sign,,,,null,,,,,,,,,,,,,,,,,,,,,,,,,,
null,,learn_phase(without_color),527869,black_plus_sign,,,,null,US_Cities_List/nat_leesburg.png,US_Cities_List/mm_newhope.png,,,,,,,,,,,,,,,,,,,,,,,,
null,,black_cross(without_color),528865,green,,,,null,US_Cities_List/nat_leesburg.png,US_Cities_List/mm_newhope.png,,,,,,,,,,,,,,,,,,,,,,,,
481.10000002384186,,rt_plussign_withcolor,529370,green,,,,50,US_Cities_List/nat_leesburg.png,US_Cities_List/mm_newhope.png,,,,,,,,,,,,,,,,,,,,,,,,
null,,rt_thecrossant_black,530391,black_plus_sign,,,,null,,,1,0.9850746268656716,,,,,,,,,,,,,,,,,,,,,,
null,,color_black,530501,black_plus_sign,,,,null,,,,,,,,,,,,,,,,,,,,,,,,,,
null,,learn_phase(without_color),533041,black_plus_sign,,,,null,US_Cities_List/nat_racine.png,US_Cities_List/nat_leesburg.png,,,,,,,,,,,,,,,,,,,,,,,,
null,,black_cross(without_color),534107,blue,,,,null,US_Cities_List/nat_racine.png,US_Cities_List/nat_leesburg.png,,,,,,,,,,,,,,,,,,,,,,,,
489.60000002384186,,rt_plussign_withcolor,534617,blue,,,,49,US_Cities_List/nat_racine.png,US_Cities_List/nat_leesburg.png,,,,,,,,,,,,,,,,,,,,,,,,
null,,rt_thecrossant_black,535580,black_plus_sign,,,,null,,,1,0.9852941176470589,,,,,,,,,,,,,,,,,,,,,,
null,,color_black,535698,black_plus_sign,,,,null,,,,,,,,,,,,,,,,,,,,,,,,,,
null,,learn_phase(without_color),538242,black_plus_sign,,,,null,US_Cities_List/mm_shreveport.png,US_Cities_List/nat_carmel.png,,,,,,,,,,,,,,,,,,,,,,,,
null,,black_cross(without_color),538885,green,,,,null,US_Cities_List/mm_shreveport.png,US_Cities_List/nat_carmel.png,,,,,,,,,,,,,,,,,,,,,,,,
478.7999999523163,,rt_plussign_withcolor,539393,green,,,,50,US_Cities_List/mm_shreveport.png,US_Cities_List/nat_carmel.png,,,,,,,,,,,,,,,,,,,,,,,,
null,,rt_thecrossant_black,540787,black_plus_sign,,,,null,,,1,0.9855072463768116,,,,,,,,,,,,,,,,,,,,,,
null,,color_black,540894,black_plus_sign,,,,null,,,,,,,,,,,,,,,,,,,,,,,,,,
null,,learn_phase(without_color),543434,black_plus_sign,,,,null,US_Cities_List/nat_gatlinburg.png,US_Cities_List/nat_boulder.png,,,,,,,,,,,,,,,,,,,,,,,,
null,,black_cross(without_color),543911,green,,,,null,US_Cities_List/nat_gatlinburg.png,US_Cities_List/nat_boulder.png,,,,,,,,,,,,,,,,,,,,,,,,
500.1999999284744,,rt_plussign_withcolor,544415,green,,,,50,US_Cities_List/nat_gatlinburg.png,US_Cities_List/nat_boulder.png,,,,,,,,,,,,,,,,,,,,,,,,
null,,rt_thecrossant_black,545953,black_plus_sign,,,,null,,,1,0.9857142857142858,,,,,,,,,,,,,,,,,,,,,,
null,,color_black,546064,black_plus_sign,,,,null,,,,,,,,,,,,,,,,,,,,,,,,,,
null,,learn_phase(without_color),548605,black_plus_sign,,,,null,US_Cities_List/mm_newhope.png,US_Cities_List/mm_westpalmbeach.png,,,,,,,,,,,,,,,,,,,,,,,,
null,,black_cross(without_color),549432,blue,,,,null,US_Cities_List/mm_newhope.png,US_Cities_List/mm_westpalmbeach.png,,,,,,,,,,,,,,,,,,,,,,,,
385.7000000476837,,rt_plussign_withcolor,549939,blue,,,,49,US_Cities_List/mm_newhope.png,US_Cities_List/mm_westpalmbeach.png,,,,,,,,,,,,,,,,,,,,,,,,
null,,rt_thecrossant_black,551142,black_plus_sign,,,,null,,,1,0.9859154929577465,,,,,,,,,,,,,,,,,,,,,,
null,,color_black,551247,black_plus_sign,,,,null,,,,,,,,,,,,,,,,,,,,,,,,,,
null,,learn_phase(without_color),553797,black_plus_sign,,,,null,US_Cities_List/nat_gatlinburg.png,US_Cities_List/nat_boulder.png,,,,,,,,,,,,,,,,,,,,,,,,
null,,black_cross(without_color),554279,green,,,,null,US_Cities_List/nat_gatlinburg.png,US_Cities_List/nat_boulder.png,,,,,,,,,,,,,,,,,,,,,,,,
418.1999999284744,,rt_plussign_withcolor,554794,green,,,,50,US_Cities_List/nat_gatlinburg.png,US_Cities_List/nat_boulder.png,,,,,,,,,,,,,,,,,,,,,,,,
null,,rt_thecrossant_black,556326,black_plus_sign,,,,null,,,1,0.9861111111111112,,,,,,,,,,,,,,,,,,,,,,
null,,color_black,556434,black_plus_sign,,,,null,,,,,,,,,,,,,,,,,,,,,,,,,,
null,,learn_phase(without_color),558975,black_plus_sign,,,,null,US_Cities_List/nat_boulder.png,US_Cities_List/nat_carmel.png,,,,,,,,,,,,,,,,,,,,,,,,
null,,black_cross(without_color),559620,green,,,,null,US_Cities_List/nat_boulder.png,US_Cities_List/nat_carmel.png,,,,,,,,,,,,,,,,,,,,,,,,
488.40000009536743,,rt_plussign_withcolor,560124,green,,,,50,US_Cities_List/nat_boulder.png,US_Cities_List/nat_carmel.png,,,,,,,,,,,,,,,,,,,,,,,,
null,,rt_thecrossant_black,561512,black_plus_sign,,,,null,,,1,0.9863013698630136,,,,,,,,,,,,,,,,,,,,,,
null,,color_black,561621,black_plus_sign,,,,null,,,,,,,,,,,,,,,,,,,,,,,,,,
null,,learn_phase(without_color),564159,black_plus_sign,,,,null,US_Cities_List/mm_peoria.png,US_Cities_List/nat_gatlinburg.png,,,,,,,,,,,,,,,,,,,,,,,,
null,,black_cross(without_color),565175,green,,,,null,US_Cities_List/mm_peoria.png,US_Cities_List/nat_gatlinburg.png,,,,,,,,,,,,,,,,,,,,,,,,
458.10000002384186,,rt_plussign_withcolor,565681,green,,,,50,US_Cities_List/mm_peoria.png,US_Cities_List/nat_gatlinburg.png,,,,,,,,,,,,,,,,,,,,,,,,
null,,rt_thecrossant_black,566685,black_plus_sign,,,,null,,,1,0.9864864864864865,,,,,,,,,,,,,,,,,,,,,,
null,,color_black,566793,black_plus_sign,,,,null,,,,,,,,,,,,,,,,,,,,,,,,,,
null,,learn_phase(without_color),569332,black_plus_sign,,,,null,US_Cities_List/nat_boulder.png,US_Cities_List/mm_shreveport.png,,,,,,,,,,,,,,,,,,,,,,,,
null,,black_cross(without_color),570215,blue,,,,null,US_Cities_List/nat_boulder.png,US_Cities_List/mm_shreveport.png,,,,,,,,,,,,,,,,,,,,,,,,
null,,rt_plussign_withcolor,570720,blue,,,,null,US_Cities_List/nat_boulder.png,US_Cities_List/mm_shreveport.png,,,,,,,,,,,,,,,,,,,,,,,,
1249.8999999761581,,rt_thecrossant_black,571856,black_plus_sign,,,,49,,,1,0.9866666666666667,,,,,,,,,,,,,,,,,,,,,,
null,,color_black,571966,black_plus_sign,,,,null,,,,,,,,,,,,,,,,,,,,,,,,,,
null,,learn_phase(without_color),574514,black_plus_sign,,,,null,US_Cities_List/mm_shreveport.png,US_Cities_List/nat_carmel.png,,,,,,,,,,,,,,,,,,,,,,,,
null,,black_cross(without_color),574955,green,,,,null,US_Cities_List/mm_shreveport.png,US_Cities_List/nat_carmel.png,,,,,,,,,,,,,,,,,,,,,,,,
486.89999997615814,,rt_plussign_withcolor,575457,green,,,,50,US_Cities_List/mm_shreveport.png,US_Cities_List/nat_carmel.png,,,,,,,,,,,,,,,,,,,,,,,,
null,,rt_thecrossant_black,577039,black_plus_sign,,,,null,,,1,0.9868421052631579,,,,,,,,,,,,,,,,,,,,,,
null,,color_black,577157,black_plus_sign,,,,null,,,,,,,,,,,,,,,,,,,,,,,,,,
null,,learn_phase(without_color),579701,black_plus_sign,,,,null,US_Cities_List/nat_gatlinburg.png,US_Cities_List/nat_boulder.png,,,,,,,,,,,,,,,,,,,,,,,,
null,,black_cross(without_color),580592,blue,,,,null,US_Cities_List/nat_gatlinburg.png,US_Cities_List/nat_boulder.png,,,,,,,,,,,,,,,,,,,,,,,,
null,,rt_plussign_withcolor,581103,blue,,,,null,US_Cities_List/nat_gatlinburg.png,US_Cities_List/nat_boulder.png,,,,,,,,,,,,,,,,,,,,,,,,
665.7000000476837,,rt_thecrossant_black,582242,black_plus_sign,,,,49,,,1,0.987012987012987,,,,,,,,,,,,,,,,,,,,,,
null,,color_black,582350,black_plus_sign,,,,null,,,,,,,,,,,,,,,,,,,,,,,,,,
null,,learn_phase(without_color),584898,black_plus_sign,,,,null,US_Cities_List/mm_shreveport.png,US_Cities_List/nat_carmel.png,,,,,,,,,,,,,,,,,,,,,,,,
null,,black_cross(without_color),585888,green,,,,null,US_Cities_List/mm_shreveport.png,US_Cities_List/nat_carmel.png,,,,,,,,,,,,,,,,,,,,,,,,
null,,rt_plussign_withcolor,586392,green,,,,null,US_Cities_List/mm_shreveport.png,US_Cities_List/nat_carmel.png,,,,,,,,,,,,,,,,,,,,,,,,
980.7000000476837,,rt_thecrossant_black,587428,black_plus_sign,,,,50,,,1,0.9871794871794872,,,,,,,,,,,,,,,,,,,,,,
null,,color_black,587537,black_plus_sign,,,,null,,,,,,,,,,,,,,,,,,,,,,,,,,
null,,learn_phase(without_color),590080,black_plus_sign,,,,null,US_Cities_List/nat_leesburg.png,US_Cities_List/mm_peoria.png,,,,,,,,,,,,,,,,,,,,,,,,
null,,black_cross(without_color),590957,green,,,,null,US_Cities_List/nat_leesburg.png,US_Cities_List/mm_peoria.png,,,,,,,,,,,,,,,,,,,,,,,,
490.60000002384186,,rt_plussign_withcolor,591460,green,,,,50,US_Cities_List/nat_leesburg.png,US_Cities_List/mm_peoria.png,,,,,,,,,,,,,,,,,,,,,,,,
null,,rt_thecrossant_black,592603,black_plus_sign,,,,null,,,1,0.9873417721518988,,,,,,,,,,,,,,,,,,,,,,
null,,color_black,592709,black_plus_sign,,,,null,,,,,,,,,,,,,,,,,,,,,,,,,,
null,,learn_phase(without_color),595243,black_plus_sign,,,,null,US_Cities_List/mm_newhope.png,US_Cities_List/nat_cornwall.png,,,,,,,,,,,,,,,,,,,,,,,,
null,,black_cross(without_color),596241,green,,,,null,US_Cities_List/mm_newhope.png,US_Cities_List/nat_cornwall.png,,,,,,,,,,,,,,,,,,,,,,,,
480.1999999284744,,rt_plussign_withcolor,596744,green,,,,50,US_Cities_List/mm_newhope.png,US_Cities_List/nat_cornwall.png,,,,,,,,,,,,,,,,,,,,,,,,
null,,rt_thecrossant_black,597765,black_plus_sign,,,,null,,,1,0.9875,,,,,,,,,,,,,,,,,,,,,,
null,,color_black,597872,black_plus_sign,,,,null,,,,,,,,,,,,,,,,,,,,,,,,,,
null,,learn_phase(without_color),600420,black_plus_sign,,,,null,US_Cities_List/mm_shreveport.png,US_Cities_List/nat_carmel.png,,,,,,,,,,,,,,,,,,,,,,,,
null,,black_cross(without_color),601261,blue,,,,null,US_Cities_List/mm_shreveport.png,US_Cities_List/nat_carmel.png,,,,,,,,,,,,,,,,,,,,,,,,
400.60000002384186,,rt_plussign_withcolor,601768,blue,,,,49,US_Cities_List/mm_shreveport.png,US_Cities_List/nat_carmel.png,,,,,,,,,,,,,,,,,,,,,,,,
null,,rt_thecrossant_black,602947,black_plus_sign,,,,null,,,1,0.9876543209876543,,,,,,,,,,,,,,,,,,,,,,
null,,color_black,603064,black_plus_sign,,,,null,,,,,,,,,,,,,,,,,,,,,,,,,,
null,,learn_phase(without_color),605610,black_plus_sign,,,,null,US_Cities_List/mm_newhope.png,US_Cities_List/mm_westpalmbeach.png,,,,,,,,,,,,,,,,,,,,,,,,
null,,black_cross(without_color),606566,green,,,,null,US_Cities_List/mm_newhope.png,US_Cities_List/mm_westpalmbeach.png,,,,,,,,,,,,,,,,,,,,,,,,
null,,rt_plussign_withcolor,607071,green,,,,null,US_Cities_List/mm_newhope.png,US_Cities_List/mm_westpalmbeach.png,,,,,,,,,,,,,,,,,,,,,,,,
1003.2999999523163,,rt_thecrossant_black,608140,black_plus_sign,,,,50,,,1,0.9878048780487805,,,,,,,,,,,,,,,,,,,,,,
null,,color_black,608246,black_plus_sign,,,,null,,,,,,,,,,,,,,,,,,,,,,,,,,
null,,learn_phase(without_color),610789,black_plus_sign,,,,null,US_Cities_List/mm_shreveport.png,US_Cities_List/nat_huntsville.png,,,,,,,,,,,,,,,,,,,,,,,,
null,,black_cross(without_color),611415,blue,,,,null,US_Cities_List/mm_shreveport.png,US_Cities_List/nat_huntsville.png,,,,,,,,,,,,,,,,,,,,,,,,
406.39999997615814,,rt_plussign_withcolor,611924,blue,,,,49,US_Cities_List/mm_shreveport.png,US_Cities_List/nat_huntsville.png,,,,,,,,,,,,,,,,,,,,,,,,
null,,rt_thecrossant_black,613325,black_plus_sign,,,,null,,,1,0.9879518072289156,,,,,,,,,,,,,,,,,,,,,,
null,,color_black,613442,black_plus_sign,,,,null,,,,,,,,,,,,,,,,,,,,,,,,,,
null,,learn_phase(without_color),615974,black_plus_sign,,,,null,US_Cities_List/nat_racine.png,US_Cities_List/nat_leesburg.png,,,,,,,,,,,,,,,,,,,,,,,,
null,,black_cross(without_color),616696,blue,,,,null,US_Cities_List/nat_racine.png,US_Cities_List/nat_leesburg.png,,,,,,,,,,,,,,,,,,,,,,,,
null,,rt_plussign_withcolor,617206,blue,,,,null,US_Cities_List/nat_racine.png,US_Cities_List/nat_leesburg.png,,,,,,,,,,,,,,,,,,,,,,,,
828.3000000715256,,rt_thecrossant_black,618504,black_plus_sign,,,,49,,,1,0.9880952380952381,,,,,,,,,,,,,,,,,,,,,,
null,,color_black,618614,black_plus_sign,,,,null,,,,,,,,,,,,,,,,,,,,,,,,,,
null,,learn_phase(without_color),621147,black_plus_sign,,,,null,US_Cities_List/nat_boulder.png,US_Cities_List/mm_shreveport.png,,,,,,,,,,,,,,,,,,,,,,,,
null,,black_cross(without_color),622103,blue,,,,null,US_Cities_List/nat_boulder.png,US_Cities_List/mm_shreveport.png,,,,,,,,,,,,,,,,,,,,,,,,
472.6999999284744,,rt_plussign_withcolor,622610,blue,,,,49,US_Cities_List/nat_boulder.png,US_Cities_List/mm_shreveport.png,,,,,,,,,,,,,,,,,,,,,,,,
null,,rt_thecrossant_black,623672,black_plus_sign,,,,null,,,1,0.9882352941176471,,,,,,,,,,,,,,,,,,,,,,
null,,color_black,623779,black_plus_sign,,,,null,,,,,,,,,,,,,,,,,,,,,,,,,,
null,,learn_phase(without_color),626327,black_plus_sign,,,,null,US_Cities_List/mm_newhope.png,US_Cities_List/mm_westpalmbeach.png,,,,,,,,,,,,,,,,,,,,,,,,
null,,black_cross(without_color),627295,green,,,,null,US_Cities_List/mm_newhope.png,US_Cities_List/mm_westpalmbeach.png,,,,,,,,,,,,,,,,,,,,,,,,
null,,rt_plussign_withcolor,627804,green,,,,null,US_Cities_List/mm_newhope.png,US_Cities_List/mm_westpalmbeach.png,,,,,,,,,,,,,,,,,,,,,,,,
1184.3999999761581,,rt_thecrossant_black,628850,black_plus_sign,,,,50,,,1,0.9883720930232558,,,,,,,,,,,,,,,,,,,,,,
null,,color_black,628958,black_plus_sign,,,,null,,,,,,,,,,,,,,,,,,,,,,,,,,
null,,learn_phase(without_color),631495,black_plus_sign,,,,null,US_Cities_List/mm_peoria.png,US_Cities_List/mm_hanover.png,,,,,,,,,,,,,,,,,,,,,,,,
null,,black_cross(without_color),632355,green,,,,null,US_Cities_List/mm_peoria.png,US_Cities_List/mm_hanover.png,,,,,,,,,,,,,,,,,,,,,,,,
458,,rt_plussign_withcolor,632857,green,,,,50,US_Cities_List/mm_peoria.png,US_Cities_List/mm_hanover.png,,,,,,,,,,,,,,,,,,,,,,,,
null,,rt_thecrossant_black,634015,black_plus_sign,,,,null,,,1,0.9885057471264368,,,,,,,,,,,,,,,,,,,,,,
null,,color_black,634123,black_plus_sign,,,,null,,,,,,,,,,,,,,,,,,,,,,,,,,
null,,learn_phase(without_color),636657,black_plus_sign,,,,null,US_Cities_List/nat_leesburg.png,US_Cities_List/mm_newhope.png,,,,,,,,,,,,,,,,,,,,,,,,
null,,black_cross(without_color),637221,green,,,,null,US_Cities_List/nat_leesburg.png,US_Cities_List/mm_newhope.png,,,,,,,,,,,,,,,,,,,,,,,,
503.8000000715256,,rt_plussign_withcolor,637729,green,,,,50,US_Cities_List/nat_leesburg.png,US_Cities_List/mm_newhope.png,,,,,,,,,,,,,,,,,,,,,,,,
null,,rt_thecrossant_black,639194,black_plus_sign,,,,null,,,1,0.9886363636363636,,,,,,,,,,,,,,,,,,,,,,
null,,color_black,639306,black_plus_sign,,,,null,,,,,,,,,,,,,,,,,,,,,,,,,,
null,,learn_phase(without_color),641839,black_plus_sign,,,,null,US_Cities_List/nat_carmel.png,US_Cities_List/mm_hanover.png,,,,,,,,,,,,,,,,,,,,,,,,
null,,black_cross(without_color),642694,green,,,,null,US_Cities_List/nat_carmel.png,US_Cities_List/mm_hanover.png,,,,,,,,,,,,,,,,,,,,,,,,
438.2999999523163,,rt_plussign_withcolor,643197,green,,,,50,US_Cities_List/nat_carmel.png,US_Cities_List/mm_hanover.png,,,,,,,,,,,,,,,,,,,,,,,,
null,,rt_thecrossant_black,644351,black_plus_sign,,,,null,,,1,0.9887640449438202,,,,,,,,,,,,,,,,,,,,,,
null,,color_black,644459,black_plus_sign,,,,null,,,,,,,,,,,,,,,,,,,,,,,,,,
null,,learn_phase(without_color),647006,black_plus_sign,,,,null,US_Cities_List/nat_boulder.png,US_Cities_List/mm_shreveport.png,,,,,,,,,,,,,,,,,,,,,,,,
null,,black_cross(without_color),648090,blue,,,,null,US_Cities_List/nat_boulder.png,US_Cities_List/mm_shreveport.png,,,,,,,,,,,,,,,,,,,,,,,,
450.3000000715256,,rt_plussign_withcolor,648597,blue,,,,49,US_Cities_List/nat_boulder.png,US_Cities_List/mm_shreveport.png,,,,,,,,,,,,,,,,,,,,,,,,
null,,rt_thecrossant_black,649543,black_plus_sign,,,,null,,,1,0.9888888888888889,,,,,,,,,,,,,,,,,,,,,,
null,,color_black,649651,black_plus_sign,,,,null,,,,,,,,,,,,,,,,,,,,,,,,,,
null,,learn_phase(without_color),652201,black_plus_sign,,,,null,US_Cities_List/mm_shreveport.png,US_Cities_List/nat_huntsville.png,,,,,,,,,,,,,,,,,,,,,,,,
null,,black_cross(without_color),652731,blue,,,,null,US_Cities_List/mm_shreveport.png,US_Cities_List/nat_huntsville.png,,,,,,,,,,,,,,,,,,,,,,,,
null,,rt_plussign_withcolor,653236,blue,,,,null,US_Cities_List/mm_shreveport.png,US_Cities_List/nat_huntsville.png,,,,,,,,,,,,,,,,,,,,,,,,
1273.9000000953674,,rt_thecrossant_black,654720,black_plus_sign,,,,49,,,1,0.989010989010989,,,,,,,,,,,,,,,,,,,,,,
null,,color_black,654830,black_plus_sign,,,,null,,,,,,,,,,,,,,,,,,,,,,,,,,
null,,learn_phase(without_color),657375,black_plus_sign,,,,null,US_Cities_List/nat_boulder.png,US_Cities_List/nat_hotsprings.png,,,,,,,,,,,,,,,,,,,,,,,,
null,,black_cross(without_color),658222,green,,,,null,US_Cities_List/nat_boulder.png,US_Cities_List/nat_hotsprings.png,,,,,,,,,,,,,,,,,,,,,,,,
422.7000000476837,,rt_plussign_withcolor,658738,green,,,,50,US_Cities_List/nat_boulder.png,US_Cities_List/nat_hotsprings.png,,,,,,,,,,,,,,,,,,,,,,,,
null,,rt_thecrossant_black,659913,black_plus_sign,,,,null,,,1,0.9891304347826086,,,,,,,,,,,,,,,,,,,,,,
null,,color_black,660021,black_plus_sign,,,,null,,,,,,,,,,,,,,,,,,,,,,,,,,
null,,learn_phase(without_color),662561,black_plus_sign,,,,null,US_Cities_List/nat_gatlinburg.png,US_Cities_List/nat_boulder.png,,,,,,,,,,,,,,,,,,,,,,,,
null,,black_cross(without_color),663068,blue,,,,null,US_Cities_List/nat_gatlinburg.png,US_Cities_List/nat_boulder.png,,,,,,,,,,,,,,,,,,,,,,,,
412.2999999523163,,rt_plussign_withcolor,663576,blue,,,,49,US_Cities_List/nat_gatlinburg.png,US_Cities_List/nat_boulder.png,,,,,,,,,,,,,,,,,,,,,,,,
null,,rt_thecrossant_black,665092,black_plus_sign,,,,null,,,1,0.989247311827957,,,,,,,,,,,,,,,,,,,,,,
null,,color_black,665201,black_plus_sign,,,,null,,,,,,,,,,,,,,,,,,,,,,,,,,
null,,learn_phase(without_color),667742,black_plus_sign,,,,null,US_Cities_List/nat_gatlinburg.png,US_Cities_List/nat_carmel.png,,,,,,,,,,,,,,,,,,,,,,,,
null,,black_cross(without_color),668635,blue,,,,null,US_Cities_List/nat_gatlinburg.png,US_Cities_List/nat_carmel.png,,,,,,,,,,,,,,,,,,,,,,,,
351.7000000476837,,rt_plussign_withcolor,669146,blue,,,,49,US_Cities_List/nat_gatlinburg.png,US_Cities_List/nat_carmel.png,,,,,,,,,,,,,,,,,,,,,,,,
null,,rt_thecrossant_black,670262,black_plus_sign,,,,null,,,1,0.9893617021276596,,,,,,,,,,,,,,,,,,,,,,
null,,color_black,670370,black_plus_sign,,,,null,,,,,,,,,,,,,,,,,,,,,,,,,,
null,,learn_phase(without_color),672919,black_plus_sign,,,,null,US_Cities_List/mm_newhope.png,US_Cities_List/mm_westpalmbeach.png,,,,,,,,,,,,,,,,,,,,,,,,
null,,black_cross(without_color),673735,blue,,,,null,US_Cities_List/mm_newhope.png,US_Cities_List/mm_westpalmbeach.png,,,,,,,,,,,,,,,,,,,,,,,,
473.5,,rt_plussign_withcolor,674237,blue,,,,49,US_Cities_List/mm_newhope.png,US_Cities_List/mm_westpalmbeach.png,,,,,,,,,,,,,,,,,,,,,,,,
null,,rt_thecrossant_black,675437,black_plus_sign,,,,null,,,1,0.9894736842105263,,,,,,,,,,,,,,,,,,,,,,
null,,color_black,675544,black_plus_sign,,,,null,,,,,,,,,,,,,,,,,,,,,,,,,,
null,,learn_phase(without_color),678087,black_plus_sign,,,,null,US_Cities_List/mm_peoria.png,US_Cities_List/nat_gatlinburg.png,,,,,,,,,,,,,,,,,,,,,,,,
null,,black_cross(without_color),678727,blue,,,,null,US_Cities_List/mm_peoria.png,US_Cities_List/nat_gatlinburg.png,,,,,,,,,,,,,,,,,,,,,,,,
465.6999999284744,,rt_plussign_withcolor,679230,blue,,,,49,US_Cities_List/mm_peoria.png,US_Cities_List/nat_gatlinburg.png,,,,,,,,,,,,,,,,,,,,,,,,
null,,rt_thecrossant_black,680618,black_plus_sign,,,,null,,,1,0.9895833333333334,,,,,,,,,,,,,,,,,,,,,,
null,,color_black,680736,black_plus_sign,,,,null,,,,,,,,,,,,,,,,,,,,,,,,,,
null,,learn_phase(without_color),683267,black_plus_sign,,,,null,US_Cities_List/nat_boulder.png,US_Cities_List/nat_hotsprings.png,,,,,,,,,,,,,,,,,,,,,,,,
null,,black_cross(without_color),684129,blue,,,,null,US_Cities_List/nat_boulder.png,US_Cities_List/nat_hotsprings.png,,,,,,,,,,,,,,,,,,,,,,,,
372.7000000476837,,rt_plussign_withcolor,684634,blue,,,,49,US_Cities_List/nat_boulder.png,US_Cities_List/nat_hotsprings.png,,,,,,,,,,,,,,,,,,,,,,,,
null,,rt_thecrossant_black,685803,black_plus_sign,,,,null,,,1,0.9896907216494846,,,,,,,,,,,,,,,,,,,,,,
null,,color_black,685916,black_plus_sign,,,,null,,,,,,,,,,,,,,,,,,,,,,,,,,
null,,learn_phase(without_color),688454,black_plus_sign,,,,null,US_Cities_List/nat_leesburg.png,US_Cities_List/mm_peoria.png,,,,,,,,,,,,,,,,,,,,,,,,
null,,black_cross(without_color),689348,blue,,,,null,US_Cities_List/nat_leesburg.png,US_Cities_List/mm_peoria.png,,,,,,,,,,,,,,,,,,,,,,,,
346,,rt_plussign_withcolor,689855,blue,,,,49,US_Cities_List/nat_leesburg.png,US_Cities_List/mm_peoria.png,,,,,,,,,,,,,,,,,,,,,,,,
null,,rt_thecrossant_black,690978,black_plus_sign,,,,null,,,1,0.9897959183673469,,,,,,,,,,,,,,,,,,,,,,
null,,color_black,691080,black_plus_sign,,,,null,,,,,,,,,,,,,,,,,,,,,,,,,,
null,,learn_phase(without_color),693620,black_plus_sign,,,,null,US_Cities_List/nat_leesburg.png,US_Cities_List/mm_newhope.png,,,,,,,,,,,,,,,,,,,,,,,,
null,,black_cross(without_color),694541,green,,,,null,US_Cities_List/nat_leesburg.png,US_Cities_List/mm_newhope.png,,,,,,,,,,,,,,,,,,,,,,,,
null,,rt_plussign_withcolor,695046,green,,,,null,US_Cities_List/nat_leesburg.png,US_Cities_List/mm_newhope.png,,,,,,,,,,,,,,,,,,,,,,,,
1005.1000000238419,,rt_thecrossant_black,696150,black_plus_sign,,,,50,,,1,0.98989898989899,,,,,,,,,,,,,,,,,,,,,,
null,,color_black,696256,black_plus_sign,,,,null,,,,,,,,,,,,,,,,,,,,,,,,,,
null,,learn_phase(without_color),698795,black_plus_sign,,,,null,US_Cities_List/nat_gatlinburg.png,US_Cities_List/nat_carmel.png,,,,,,,,,,,,,,,,,,,,,,,,
null,,black_cross(without_color),699846,green,,,,null,US_Cities_List/nat_gatlinburg.png,US_Cities_List/nat_carmel.png,,,,,,,,,,,,,,,,,,,,,,,,
null,,rt_plussign_withcolor,700362,green,,,,null,US_Cities_List/nat_gatlinburg.png,US_Cities_List/nat_carmel.png,,,,,,,,,,,,,,,,,,,,,,,,
null,,rt_thecrossant_black,701326,black_plus_sign,,,,null,,,,0.98989898989899,,,,,,,,,,,,,,,,,,,,,,
null,,color_black,701442,black_plus_sign,,,,null,,,,,,,,,,,,,,,,,,,,,,,,,,
null,,learn_phase(without_color),703978,black_plus_sign,,,,null,US_Cities_List/nat_boulder.png,US_Cities_List/nat_carmel.png,,,,,,,,,,,,,,,,,,,,,,,,
null,,black_cross(without_color),704979,blue,,,,null,US_Cities_List/nat_boulder.png,US_Cities_List/nat_carmel.png,,,,,,,,,,,,,,,,,,,,,,,,
377.10000002384186,,rt_plussign_withcolor,705489,blue,,,,49,US_Cities_List/nat_boulder.png,US_Cities_List/nat_carmel.png,,,,,,,,,,,,,,,,,,,,,,,,
null,,rt_thecrossant_black,706501,black_plus_sign,,,,null,,,1,0.99,,,,,,,,,,,,,,,,,,,,,,
null,,color_black,706614,black_plus_sign,,,,null,,,,,,,,,,,,,,,,,,,,,,,,,,
null,,learn_phase(without_color),709154,black_plus_sign,,,,null,US_Cities_List/mm_shreveport.png,US_Cities_List/nat_carmel.png,,,,,,,,,,,,,,,,,,,,,,,,
null,,black_cross(without_color),709617,blue,,,,null,US_Cities_List/mm_shreveport.png,US_Cities_List/nat_carmel.png,,,,,,,,,,,,,,,,,,,,,,,,
null,,rt_plussign_withcolor,710127,blue,,,,null,US_Cities_List/mm_shreveport.png,US_Cities_List/nat_carmel.png,,,,,,,,,,,,,,,,,,,,,,,,
1126.8999999761581,,rt_thecrossant_black,711695,black_plus_sign,,,,49,,,1,0.9900990099009901,,,,,,,,,,,,,,,,,,,,,,
null,,color_black,711803,black_plus_sign,,,,null,,,,,,,,,,,,,,,,,,,,,,,,,,
null,,learn_phase(without_color),714361,black_plus_sign,,,,null,US_Cities_List/nat_gatlinburg.png,US_Cities_List/nat_carmel.png,,,,,,,,,,,,,,,,,,,,,,,,
null,,black_cross(without_color),715289,blue,,,,null,US_Cities_List/nat_gatlinburg.png,US_Cities_List/nat_carmel.png,,,,,,,,,,,,,,,,,,,,,,,,
null,,rt_plussign_withcolor,715802,blue,,,,null,US_Cities_List/nat_gatlinburg.png,US_Cities_List/nat_carmel.png,,,,,,,,,,,,,,,,,,,,,,,,
584.3999999761581,,rt_thecrossant_black,716908,black_plus_sign,,,,49,,,1,0.9901960784313726,,,,,,,,,,,,,,,,,,,,,,
null,,color_black,717026,black_plus_sign,,,,null,,,,,,,,,,,,,,,,,,,,,,,,,,
null,,learn_phase(without_color),719559,black_plus_sign,,,,null,US_Cities_List/nat_carmel.png,US_Cities_List/mm_hanover.png,,,,,,,,,,,,,,,,,,,,,,,,
null,,black_cross(without_color),720071,green,,,,null,US_Cities_List/nat_carmel.png,US_Cities_List/mm_hanover.png,,,,,,,,,,,,,,,,,,,,,,,,
null,,rt_plussign_withcolor,720577,green,,,,null,US_Cities_List/nat_carmel.png,US_Cities_List/mm_hanover.png,,,,,,,,,,,,,,,,,,,,,,,,
1045,,rt_thecrossant_black,722090,black_plus_sign,,,,50,,,1,0.9902912621359223,,,,,,,,,,,,,,,,,,,,,,
null,,color_black,722200,black_plus_sign,,,,null,,,,,,,,,,,,,,,,,,,,,,,,,,
null,,learn_phase(without_color),724738,black_plus_sign,,,,null,US_Cities_List/nat_leesburg.png,US_Cities_List/mm_newhope.png,,,,,,,,,,,,,,,,,,,,,,,,
null,,black_cross(without_color),725787,blue,,,,null,US_Cities_List/nat_leesburg.png,US_Cities_List/mm_newhope.png,,,,,,,,,,,,,,,,,,,,,,,,
378,,rt_plussign_withcolor,726292,blue,,,,49,US_Cities_List/nat_leesburg.png,US_Cities_List/mm_newhope.png,,,,,,,,,,,,,,,,,,,,,,,,
null,,rt_thecrossant_black,727266,black_plus_sign,,,,null,,,1,0.9903846153846154,,,,,,,,,,,,,,,,,,,,,,
null,,color_black,727376,black_plus_sign,,,,null,,,,,,,,,,,,,,,,,,,,,,,,,,
null,,learn_phase(without_color),729905,black_plus_sign,,,,null,US_Cities_List/nat_boulder.png,US_Cities_List/nat_carmel.png,,,,,,,,,,,,,,,,,,,,,,,,
null,,black_cross(without_color),730961,green,,,,null,US_Cities_List/nat_boulder.png,US_Cities_List/nat_carmel.png,,,,,,,,,,,,,,,,,,,,,,,,
496.8000000715256,,rt_plussign_withcolor,731465,green,,,,50,US_Cities_List/nat_boulder.png,US_Cities_List/nat_carmel.png,,,,,,,,,,,,,,,,,,,,,,,,
null,,rt_thecrossant_black,732428,black_plus_sign,,,,null,,,1,0.9904761904761905,,,,,,,,,,,,,,,,,,,,,,
null,,color_black,732538,black_plus_sign,,,,null,,,,,,,,,,,,,,,,,,,,,,,,,,
null,,learn_phase(without_color),735084,black_plus_sign,,,,null,US_Cities_List/mm_shreveport.png,US_Cities_List/nat_carmel.png,,,,,,,,,,,,,,,,,,,,,,,,
null,,black_cross(without_color),735683,blue,,,,null,US_Cities_List/mm_shreveport.png,US_Cities_List/nat_carmel.png,,,,,,,,,,,,,,,,,,,,,,,,
377.10000002384186,,rt_plussign_withcolor,736189,blue,,,,49,US_Cities_List/mm_shreveport.png,US_Cities_List/nat_carmel.png,,,,,,,,,,,,,,,,,,,,,,,,
null,,rt_thecrossant_black,737615,black_plus_sign,,,,null,,,1,0.9905660377358491,,,,,,,,,,,,,,,,,,,,,,
null,,color_black,737732,black_plus_sign,,,,null,,,,,,,,,,,,,,,,,,,,,,,,,,
null,,learn_phase(without_color),740280,black_plus_sign,,,,null,US_Cities_List/mm_shreveport.png,US_Cities_List/nat_huntsville.png,,,,,,,,,,,,,,,,,,,,,,,,
null,,black_cross(without_color),740921,blue,,,,null,US_Cities_List/mm_shreveport.png,US_Cities_List/nat_huntsville.png,,,,,,,,,,,,,,,,,,,,,,,,
471.2000000476837,,rt_plussign_withcolor,741425,blue,,,,49,US_Cities_List/mm_shreveport.png,US_Cities_List/nat_huntsville.png,,,,,,,,,,,,,,,,,,,,,,,,
null,,rt_thecrossant_black,742809,black_plus_sign,,,,null,,,1,0.9906542056074766,,,,,,,,,,,,,,,,,,,,,,
null,,color_black,742916,black_plus_sign,,,,null,,,,,,,,,,,,,,,,,,,,,,,,,,
null,,learn_phase(without_color),745465,black_plus_sign,,,,null,US_Cities_List/nat_boulder.png,US_Cities_List/nat_carmel.png,,,,,,,,,,,,,,,,,,,,,,,,
null,,black_cross(without_color),746400,blue,,,,null,US_Cities_List/nat_boulder.png,US_Cities_List/nat_carmel.png,,,,,,,,,,,,,,,,,,,,,,,,
null,,rt_plussign_withcolor,746916,blue,,,,null,US_Cities_List/nat_boulder.png,US_Cities_List/nat_carmel.png,,,,,,,,,,,,,,,,,,,,,,,,
749.5,,rt_thecrossant_black,747994,black_plus_sign,,,,49,,,1,0.9907407407407407,,,,,,,,,,,,,,,,,,,,,,
null,,color_black,748104,black_plus_sign,,,,null,,,,,,,,,,,,,,,,,,,,,,,,,,
null,,learn_phase(without_color),750641,black_plus_sign,,,,null,US_Cities_List/nat_leesburg.png,US_Cities_List/mm_peoria.png,,,,,,,,,,,,,,,,,,,,,,,,
null,,black_cross(without_color),751537,blue,,,,null,US_Cities_List/nat_leesburg.png,US_Cities_List/mm_peoria.png,,,,,,,,,,,,,,,,,,,,,,,,
426.89999997615814,,rt_plussign_withcolor,752052,blue,,,,49,US_Cities_List/nat_leesburg.png,US_Cities_List/mm_peoria.png,,,,,,,,,,,,,,,,,,,,,,,,
null,,rt_thecrossant_black,753170,black_plus_sign,,,,null,,,1,0.9908256880733946,,,,,,,,,,,,,,,,,,,,,,
null,,color_black,753281,black_plus_sign,,,,null,,,,,,,,,,,,,,,,,,,,,,,,,,
null,,learn_phase(without_color),755819,black_plus_sign,,,,null,US_Cities_List/mm_peoria.png,US_Cities_List/nat_gatlinburg.png,,,,,,,,,,,,,,,,,,,,,,,,
null,,black_cross(without_color),756396,blue,,,,null,US_Cities_List/mm_peoria.png,US_Cities_List/nat_gatlinburg.png,,,,,,,,,,,,,,,,,,,,,,,,
466.60000002384186,,rt_plussign_withcolor,756904,blue,,,,49,US_Cities_List/mm_peoria.png,US_Cities_List/nat_gatlinburg.png,,,,,,,,,,,,,,,,,,,,,,,,
null,,rt_thecrossant_black,758347,black_plus_sign,,,,null,,,1,0.990909090909091,,,,,,,,,,,,,,,,,,,,,,
null,,color_black,758464,black_plus_sign,,,,null,,,,,,,,,,,,,,,,,,,,,,,,,,
null,,learn_phase(without_color),760998,black_plus_sign,,,,null,US_Cities_List/nat_leesburg.png,US_Cities_List/mm_newhope.png,,,,,,,,,,,,,,,,,,,,,,,,
null,,black_cross(without_color),761418,blue,,,,null,US_Cities_List/nat_leesburg.png,US_Cities_List/mm_newhope.png,,,,,,,,,,,,,,,,,,,,,,,,
451.89999997615814,,rt_plussign_withcolor,761926,blue,,,,49,US_Cities_List/nat_leesburg.png,US_Cities_List/mm_newhope.png,,,,,,,,,,,,,,,,,,,,,,,,
null,,rt_thecrossant_black,763526,black_plus_sign,,,,null,,,1,0.990990990990991,,,,,,,,,,,,,,,,,,,,,,
null,,color_black,763630,black_plus_sign,,,,null,,,,,,,,,,,,,,,,,,,,,,,,,,
null,,learn_phase(without_color),766166,black_plus_sign,,,,null,US_Cities_List/nat_leesburg.png,US_Cities_List/mm_peoria.png,,,,,,,,,,,,,,,,,,,,,,,,
null,,black_cross(without_color),766955,green,,,,null,US_Cities_List/nat_leesburg.png,US_Cities_List/mm_peoria.png,,,,,,,,,,,,,,,,,,,,,,,,
null,,rt_plussign_withcolor,767464,green,,,,null,US_Cities_List/nat_leesburg.png,US_Cities_List/mm_peoria.png,,,,,,,,,,,,,,,,,,,,,,,,
641.8999999761581,,rt_thecrossant_black,768687,black_plus_sign,,,,50,,,1,0.9910714285714286,,,,,,,,,,,,,,,,,,,,,,
null,,color_black,768804,black_plus_sign,,,,null,,,,,,,,,,,,,,,,,,,,,,,,,,
null,,learn_phase(without_color),771343,black_plus_sign,,,,null,US_Cities_List/nat_racine.png,US_Cities_List/nat_leesburg.png,,,,,,,,,,,,,,,,,,,,,,,,
null,,black_cross(without_color),771817,blue,,,,null,US_Cities_List/nat_racine.png,US_Cities_List/nat_leesburg.png,,,,,,,,,,,,,,,,,,,,,,,,
451.10000002384186,,rt_plussign_withcolor,772321,blue,,,,49,US_Cities_List/nat_racine.png,US_Cities_List/nat_leesburg.png,,,,,,,,,,,,,,,,,,,,,,,,
null,,rt_thecrossant_black,773875,black_plus_sign,,,,null,,,1,0.9911504424778761,,,,,,,,,,,,,,,,,,,,,,
null,,color_black,773979,black_plus_sign,,,,null,,,,,,,,,,,,,,,,,,,,,,,,,,
null,,learn_phase(without_color),776535,black_plus_sign,,,,null,US_Cities_List/nat_boulder.png,US_Cities_List/mm_shreveport.png,,,,,,,,,,,,,,,,,,,,,,,,
null,,black_cross(without_color),777189,blue,,,,null,US_Cities_List/nat_boulder.png,US_Cities_List/mm_shreveport.png,,,,,,,,,,,,,,,,,,,,,,,,
416.60000002384186,,rt_plussign_withcolor,777698,blue,,,,49,US_Cities_List/nat_boulder.png,US_Cities_List/mm_shreveport.png,,,,,,,,,,,,,,,,,,,,,,,,
null,,rt_thecrossant_black,779065,black_plus_sign,,,,null,,,1,0.9912280701754386,,,,,,,,,,,,,,,,,,,,,,
null,,color_black,779170,black_plus_sign,,,,null,,,,,,,,,,,,,,,,,,,,,,,,,,
null,,learn_phase(without_color),781707,black_plus_sign,,,,null,US_Cities_List/nat_leesburg.png,US_Cities_List/mm_peoria.png,,,,,,,,,,,,,,,,,,,,,,,,
null,,black_cross(without_color),782666,blue,,,,null,US_Cities_List/nat_leesburg.png,US_Cities_List/mm_peoria.png,,,,,,,,,,,,,,,,,,,,,,,,
362.7000000476837,,rt_plussign_withcolor,783171,blue,,,,49,US_Cities_List/nat_leesburg.png,US_Cities_List/mm_peoria.png,,,,,,,,,,,,,,,,,,,,,,,,
null,,rt_thecrossant_black,784223,black_plus_sign,,,,null,,,1,0.991304347826087,,,,,,,,,,,,,,,,,,,,,,
null,,color_black,784334,black_plus_sign,,,,null,,,,,,,,,,,,,,,,,,,,,,,,,,
null,,learn_phase(without_color),786874,black_plus_sign,,,,null,US_Cities_List/nat_boulder.png,US_Cities_List/nat_hotsprings.png,,,,,,,,,,,,,,,,,,,,,,,,
null,,black_cross(without_color),787329,green,,,,null,US_Cities_List/nat_boulder.png,US_Cities_List/nat_hotsprings.png,,,,,,,,,,,,,,,,,,,,,,,,
null,,rt_plussign_withcolor,787840,green,,,,null,US_Cities_List/nat_boulder.png,US_Cities_List/nat_hotsprings.png,,,,,,,,,,,,,,,,,,,,,,,,
1130.2999999523163,,rt_thecrossant_black,789403,black_plus_sign,,,,50,,,1,0.9913793103448276,,,,,,,,,,,,,,,,,,,,,,
null,,color_black,789512,black_plus_sign,,,,null,,,,,,,,,,,,,,,,,,,,,,,,,,
null,,learn_phase(without_color),792045,black_plus_sign,,,,null,US_Cities_List/nat_leesburg.png,US_Cities_List/mm_newhope.png,,,,,,,,,,,,,,,,,,,,,,,,
null,,black_cross(without_color),792944,green,,,,null,US_Cities_List/nat_leesburg.png,US_Cities_List/mm_newhope.png,,,,,,,,,,,,,,,,,,,,,,,,
null,,rt_plussign_withcolor,793452,green,,,,null,US_Cities_List/nat_leesburg.png,US_Cities_List/mm_newhope.png,,,,,,,,,,,,,,,,,,,,,,,,
567.1000000238419,,rt_thecrossant_black,794580,black_plus_sign,,,,50,,,1,0.9914529914529915,,,,,,,,,,,,,,,,,,,,,,
null,,color_black,794688,black_plus_sign,,,,null,,,,,,,,,,,,,,,,,,,,,,,,,,
null,,learn_phase(without_color),797221,black_plus_sign,,,,null,US_Cities_List/mm_hanover.png,US_Cities_List/nat_cornwall.png,,,,,,,,,,,,,,,,,,,,,,,,
null,,black_cross(without_color),798272,green,,,,null,US_Cities_List/mm_hanover.png,US_Cities_List/nat_cornwall.png,,,,,,,,,,,,,,,,,,,,,,,,
null,,rt_plussign_withcolor,798781,green,,,,null,US_Cities_List/mm_hanover.png,US_Cities_List/nat_cornwall.png,,,,,,,,,,,,,,,,,,,,,,,,
1028.1999999284744,,rt_thecrossant_black,799738,black_plus_sign,,,,50,,,1,0.9915254237288136,,,,,,,,,,,,,,,,,,,,,,
null,,color_black,799847,black_plus_sign,,,,null,,,,,,,,,,,,,,,,,,,,,,,,,,
null,,learn_phase(without_color),802375,black_plus_sign,,,,null,US_Cities_List/mm_peoria.png,US_Cities_List/mm_hanover.png,,,,,,,,,,,,,,,,,,,,,,,,
null,,black_cross(without_color),803102,blue,,,,null,US_Cities_List/mm_peoria.png,US_Cities_List/mm_hanover.png,,,,,,,,,,,,,,,,,,,,,,,,
null,,rt_plussign_withcolor,803610,blue,,,,null,US_Cities_List/mm_peoria.png,US_Cities_List/mm_hanover.png,,,,,,,,,,,,,,,,,,,,,,,,
1284.7999999523163,,rt_thecrossant_black,804910,black_plus_sign,,,,49,,,1,0.9915966386554622,,,,,,,,,,,,,,,,,,,,,,
null,,color_black,805022,black_plus_sign,,,,null,,,,,,,,,,,,,,,,,,,,,,,,,,
null,,learn_phase(without_color),807564,black_plus_sign,,,,null,US_Cities_List/mm_shreveport.png,US_Cities_List/nat_carmel.png,,,,,,,,,,,,,,,,,,,,,,,,
null,,black_cross(without_color),808438,green,,,,null,US_Cities_List/mm_shreveport.png,US_Cities_List/nat_carmel.png,,,,,,,,,,,,,,,,,,,,,,,,
null,,rt_plussign_withcolor,808956,green,,,,null,US_Cities_List/mm_shreveport.png,US_Cities_List/nat_carmel.png,,,,,,,,,,,,,,,,,,,,,,,,
833.7999999523163,,rt_thecrossant_black,810100,black_plus_sign,,,,50,,,1,0.9916666666666667,,,,,,,,,,,,,,,,,,,,,,
null,,color_black,810212,black_plus_sign,,,,null,,,,,,,,,,,,,,,,,,,,,,,,,,
null,,learn_phase(without_color),812748,black_plus_sign,,,,null,US_Cities_List/nat_gatlinburg.png,US_Cities_List/nat_carmel.png,,,,,,,,,,,,,,,,,,,,,,,,
null,,black_cross(without_color),813231,green,,,,null,US_Cities_List/nat_gatlinburg.png,US_Cities_List/nat_carmel.png,,,,,,,,,,,,,,,,,,,,,,,,
null,,rt_plussign_withcolor,813738,green,,,,null,US_Cities_List/nat_gatlinburg.png,US_Cities_List/nat_carmel.png,,,,,,,,,,,,,,,,,,,,,,,,
1065.5,,rt_thecrossant_black,815274,black_plus_sign,,,,50,,,1,0.9917355371900827,,,,,,,,,,,,,,,,,,,,,,
null,,color_black,815390,black_plus_sign,,,,null,,,,,,,,,,,,,,,,,,,,,,,,,,
null,,learn_phase(without_color),817930,black_plus_sign,,,,null,US_Cities_List/mm_hanover.png,US_Cities_List/nat_cornwall.png,,,,,,,,,,,,,,,,,,,,,,,,
null,,black_cross(without_color),818530,green,,,,null,US_Cities_List/mm_hanover.png,US_Cities_List/nat_cornwall.png,,,,,,,,,,,,,,,,,,,,,,,,
456.6999999284744,,rt_plussign_withcolor,819036,green,,,,50,US_Cities_List/mm_hanover.png,US_Cities_List/nat_cornwall.png,,,,,,,,,,,,,,,,,,,,,,,,
null,,rt_thecrossant_black,820457,black_plus_sign,,,,null,,,1,0.9918032786885246,,,,,,,,,,,,,,,,,,,,,,
null,,color_black,820560,black_plus_sign,,,,null,,,,,,,,,,,,,,,,,,,,,,,,,,
null,,learn_phase(without_color),823101,black_plus_sign,,,,null,US_Cities_List/mm_newhope.png,US_Cities_List/nat_cornwall.png,,,,,,,,,,,,,,,,,,,,,,,,
null,,black_cross(without_color),824074,green,,,,null,US_Cities_List/mm_newhope.png,US_Cities_List/nat_cornwall.png,,,,,,,,,,,,,,,,,,,,,,,,
null,,rt_plussign_withcolor,824578,green,,,,null,US_Cities_List/mm_newhope.png,US_Cities_List/nat_cornwall.png,,,,,,,,,,,,,,,,,,,,,,,,
766.6999999284744,,rt_thecrossant_black,825632,black_plus_sign,,,,50,,,1,0.991869918699187,,,,,,,,,,,,,,,,,,,,,,
null,,color_black,825750,black_plus_sign,,,,null,,,,,,,,,,,,,,,,,,,,,,,,,,
null,,learn_phase(without_color),828283,black_plus_sign,,,,null,US_Cities_List/mm_peoria.png,US_Cities_List/mm_hanover.png,,,,,,,,,,,,,,,,,,,,,,,,
null,,black_cross(without_color),829311,blue,,,,null,US_Cities_List/mm_peoria.png,US_Cities_List/mm_hanover.png,,,,,,,,,,,,,,,,,,,,,,,,
344.89999997615814,,rt_plussign_withcolor,829815,blue,,,,49,US_Cities_List/mm_peoria.png,US_Cities_List/mm_hanover.png,,,,,,,,,,,,,,,,,,,,,,,,
null,,rt_thecrossant_black,830808,black_plus_sign,,,,null,,,1,0.9919354838709677,,,,,,,,,,,,,,,,,,,,,,
null,,color_black,830915,black_plus_sign,,,,null,,,,,,,,,,,,,,,,,,,,,,,,,,
null,,learn_phase(without_color),833457,black_plus_sign,,,,null,US_Cities_List/nat_gatlinburg.png,US_Cities_List/nat_boulder.png,,,,,,,,,,,,,,,,,,,,,,,,
null,,black_cross(without_color),834556,blue,,,,null,US_Cities_List/nat_gatlinburg.png,US_Cities_List/nat_boulder.png,,,,,,,,,,,,,,,,,,,,,,,,
456.6999999284744,,rt_plussign_withcolor,835062,blue,,,,49,US_Cities_List/nat_gatlinburg.png,US_Cities_List/nat_boulder.png,,,,,,,,,,,,,,,,,,,,,,,,
null,,rt_thecrossant_black,835977,black_plus_sign,,,,null,,,1,0.992,,,,,,,,,,,,,,,,,,,,,,
null,,color_black,836085,black_plus_sign,,,,null,,,,,,,,,,,,,,,,,,,,,,,,,,
null,,learn_phase(without_color),838630,black_plus_sign,,,,null,US_Cities_List/mm_shreveport.png,US_Cities_List/nat_huntsville.png,,,,,,,,,,,,,,,,,,,,,,,,
null,,black_cross(without_color),839424,green,,,,null,US_Cities_List/mm_shreveport.png,US_Cities_List/nat_huntsville.png,,,,,,,,,,,,,,,,,,,,,,,,
505,,rt_plussign_withcolor,839933,green,,,,50,US_Cities_List/mm_shreveport.png,US_Cities_List/nat_huntsville.png,,,,,,,,,,,,,,,,,,,,,,,,
null,,rt_thecrossant_black,841159,black_plus_sign,,,,null,,,1,0.9920634920634921,,,,,,,,,,,,,,,,,,,,,,
null,,color_black,841270,black_plus_sign,,,,null,,,,,,,,,,,,,,,,,,,,,,,,,,
null,,learn_phase(without_color),843816,black_plus_sign,,,,null,US_Cities_List/mm_hanover.png,US_Cities_List/nat_cornwall.png,,,,,,,,,,,,,,,,,,,,,,,,
null,,black_cross(without_color),844349,blue,,,,null,US_Cities_List/mm_hanover.png,US_Cities_List/nat_cornwall.png,,,,,,,,,,,,,,,,,,,,,,,,
null,,rt_plussign_withcolor,844866,blue,,,,null,US_Cities_List/mm_hanover.png,US_Cities_List/nat_cornwall.png,,,,,,,,,,,,,,,,,,,,,,,,
932.5999999046326,,rt_thecrossant_black,846345,black_plus_sign,,,,49,,,1,0.9921259842519685,,,,,,,,,,,,,,,,,,,,,,
null,,color_black,846462,black_plus_sign,,,,null,,,,,,,,,,,,,,,,,,,,,,,,,,
null,,thebreak,846571,<p></p>,,,,null,,,,,,,,,,,,,,,,,,,,,,,,,,
31659.100000023842,,intro_0,878232,instruct,,,,32,,,,,,,,,,,,,,,,,,,,,,,,,,
15396.5,,intro_1,893631,instruct,,,,32,,,,,,,,,,,,,,,,,,,,,,,,,,
3262.2999999523163,,directmemory_phase,900183,../static/images/US_Cities_List/mm_peoria.png,,,,51,,,1,1,../static/images/US_Cities_List/nat_hotsprings.png,../static/images/US_Cities_List/nat_boulder.png,../static/images/US_Cities_List/nat_leesburg.png,../static/images/US_Cities_List/nat_leesburg.png,../static/images/US_Cities_List/nat_boulder.png,../static/images/US_Cities_List/nat_hotsprings.png,1,,,,,,,,,,,,,,,
3749.5,,directmemory_phase,906743,../static/images/US_Cities_List/mm_westpalmbeach.png,,,,50,,,1,1,../static/images/US_Cities_List/nat_cornwall.png,../static/images/US_Cities_List/mm_newhope.png,../static/images/US_Cities_List/nat_carmel.png,../static/images/US_Cities_List/mm_newhope.png,../static/images/US_Cities_List/nat_cornwall.png,../static/images/US_Cities_List/nat_carmel.png,1,,,,,,,,,,,,,,,
3138.600000023842,,directmemory_phase,913363,../static/images/US_Cities_List/nat_hotsprings.png,,,,51,,,1,1,../static/images/US_Cities_List/nat_cornwall.png,../static/images/US_Cities_List/mm_shreveport.png,../static/images/US_Cities_List/nat_boulder.png,../static/images/US_Cities_List/nat_boulder.png,../static/images/US_Cities_List/mm_shreveport.png,../static/images/US_Cities_List/nat_cornwall.png,1,,,,,,,,,,,,,,,
2221,,directmemory_phase,919978,../static/images/US_Cities_List/nat_boulder.png,,,,49,,,1,1,../static/images/US_Cities_List/mm_shreveport.png,../static/images/US_Cities_List/mm_newhope.png,../static/images/US_Cities_List/mm_hanover.png,../static/images/US_Cities_List/mm_shreveport.png,../static/images/US_Cities_List/mm_hanover.png,../static/images/US_Cities_List/mm_newhope.png,1,,,,,,,,,,,,,,,
2852,,directmemory_phase,926595,../static/images/US_Cities_List/nat_carmel.png,,,,49,,,0,0.8,../static/images/US_Cities_List/nat_leesburg.png,../static/images/US_Cities_List/mm_peoria.png,../static/images/US_Cities_List/mm_shreveport.png,../static/images/US_Cities_List/mm_shreveport.png,../static/images/US_Cities_List/mm_peoria.png,../static/images/US_Cities_List/nat_leesburg.png,0.5,closer,,,,,,,,,,,,,,
2829.5,,directmemory_phase,933156,../static/images/US_Cities_List/nat_leesburg.png,,,,49,,,1,0.8333333333333334,../static/images/US_Cities_List/nat_racine.png,../static/images/US_Cities_List/nat_carmel.png,../static/images/US_Cities_List/mm_westpalmbeach.png,../static/images/US_Cities_List/nat_racine.png,../static/images/US_Cities_List/mm_westpalmbeach.png,../static/images/US_Cities_List/nat_carmel.png,1,,,,,,,,,,,,,,,
3509.100000023842,,directmemory_phase,939732,../static/images/US_Cities_List/mm_newhope.png,,,,51,,,1,0.8571428571428571,../static/images/US_Cities_List/nat_boulder.png,../static/images/US_Cities_List/mm_hanover.png,../static/images/US_Cities_List/mm_westpalmbeach.png,../static/images/US_Cities_List/mm_westpalmbeach.png,../static/images/US_Cities_List/mm_hanover.png,../static/images/US_Cities_List/nat_boulder.png,1,,,,,,,,,,,,,,,
4503.799999952316,,directmemory_phase,946342,../static/images/US_Cities_List/nat_cornwall.png,,,,49,,,0,0.75,../static/images/US_Cities_List/mm_peoria.png,../static/images/US_Cities_List/mm_newhope.png,../static/images/US_Cities_List/nat_huntsville.png,../static/images/US_Cities_List/mm_newhope.png,../static/images/US_Cities_List/mm_peoria.png,../static/images/US_Cities_List/nat_huntsville.png,0.5,closer,,,,,,,,,,,,,,
3675.2000000476837,,directmemory_phase,952917,../static/images/US_Cities_List/nat_huntsville.png,,,,50,,,0,0.6666666666666666,../static/images/US_Cities_List/mm_shreveport.png,../static/images/US_Cities_List/nat_gatlinburg.png,../static/images/US_Cities_List/nat_carmel.png,../static/images/US_Cities_List/mm_shreveport.png,../static/images/US_Cities_List/nat_carmel.png,../static/images/US_Cities_List/nat_gatlinburg.png,0.5,closer,,,,,,,,,,,,,,
2704.100000023842,,directmemory_phase,959532,../static/images/US_Cities_List/mm_shreveport.png,,,,51,,,0,0.6,../static/images/US_Cities_List/nat_carmel.png,../static/images/US_Cities_List/mm_peoria.png,../static/images/US_Cities_List/mm_hanover.png,../static/images/US_Cities_List/nat_carmel.png,../static/images/US_Cities_List/mm_hanover.png,../static/images/US_Cities_List/mm_peoria.png,0.5,closer,,,,,,,,,,,,,,
3822.5,,directmemory_phase,966087,../static/images/US_Cities_List/nat_racine.png,,,,51,,,1,0.6363636363636364,../static/images/US_Cities_List/mm_westpalmbeach.png,../static/images/US_Cities_List/mm_newhope.png,../static/images/US_Cities_List/nat_leesburg.png,../static/images/US_Cities_List/nat_leesburg.png,../static/images/US_Cities_List/mm_newhope.png,../static/images/US_Cities_List/mm_westpalmbeach.png,1,,,,,,,,,,,,,,,
2253.100000023842,,directmemory_phase,972700,../static/images/US_Cities_List/mm_peoria.png,,,,50,,,0,0.5833333333333334,../static/images/US_Cities_List/nat_gatlinburg.png,../static/images/US_Cities_List/mm_westpalmbeach.png,../static/images/US_Cities_List/nat_boulder.png,../static/images/US_Cities_List/nat_gatlinburg.png,../static/images/US_Cities_List/nat_boulder.png,../static/images/US_Cities_List/mm_westpalmbeach.png,0.5,closer,,,,,,,,,,,,,,
2450.899999976158,,directmemory_phase,979242,../static/images/US_Cities_List/mm_peoria.png,,,,49,,,0,0.5384615384615384,../static/images/US_Cities_List/nat_boulder.png,../static/images/US_Cities_List/mm_hanover.png,../static/images/US_Cities_List/nat_hotsprings.png,../static/images/US_Cities_List/mm_hanover.png,../static/images/US_Cities_List/nat_boulder.png,../static/images/US_Cities_List/nat_hotsprings.png,0.5,closer,,,,,,,,,,,,,,
2294.100000023842,,directmemory_phase,985805,../static/images/US_Cities_List/nat_leesburg.png,,,,50,,,0,0.5,../static/images/US_Cities_List/nat_boulder.png,../static/images/US_Cities_List/nat_gatlinburg.png,../static/images/US_Cities_List/mm_peoria.png,../static/images/US_Cities_List/mm_peoria.png,../static/images/US_Cities_List/nat_gatlinburg.png,../static/images/US_Cities_List/nat_boulder.png,0.5,closer,,,,,,,,,,,,,,
2743,,directmemory_phase,992395,../static/images/US_Cities_List/mm_newhope.png,,,,50,,,0,0.4666666666666667,../static/images/US_Cities_List/nat_carmel.png,../static/images/US_Cities_List/mm_hanover.png,../static/images/US_Cities_List/nat_leesburg.png,../static/images/US_Cities_List/nat_leesburg.png,../static/images/US_Cities_List/mm_hanover.png,../static/images/US_Cities_List/nat_carmel.png,0.5,closer,,,,,,,,,,,,,,
3805.3000000715256,,directmemory_phase,999013,../static/images/US_Cities_List/mm_hanover.png,,,,49,,,1,0.5,../static/images/US_Cities_List/nat_cornwall.png,../static/images/US_Cities_List/mm_westpalmbeach.png,../static/images/US_Cities_List/nat_boulder.png,../static/images/US_Cities_List/nat_cornwall.png,../static/images/US_Cities_List/nat_boulder.png,../static/images/US_Cities_List/mm_westpalmbeach.png,1,,,,,,,,,,,,,,,
3329.100000023842,,directmemory_phase,1005586,../static/images/US_Cities_List/nat_gatlinburg.png,,,,50,,,1,0.5294117647058824,../static/images/US_Cities_List/nat_leesburg.png,../static/images/US_Cities_List/nat_boulder.png,../static/images/US_Cities_List/mm_westpalmbeach.png,../static/images/US_Cities_List/nat_boulder.png,../static/images/US_Cities_List/nat_leesburg.png,../static/images/US_Cities_List/mm_westpalmbeach.png,1,,,,,,,,,,,,,,,
2254.399999976158,,directmemory_phase,1012206,../static/images/US_Cities_List/nat_gatlinburg.png,,,,49,,,1,0.5555555555555556,../static/images/US_Cities_List/mm_peoria.png,../static/images/US_Cities_List/nat_racine.png,../static/images/US_Cities_List/nat_hotsprings.png,../static/images/US_Cities_List/mm_peoria.png,../static/images/US_Cities_List/nat_hotsprings.png,../static/images/US_Cities_List/nat_racine.png,1,,,,,,,,,,,,,,,
2597.9000000953674,,directmemory_phase,1018822,../static/images/US_Cities_List/mm_shreveport.png,,,,49,,,1,0.5789473684210527,../static/images/US_Cities_List/nat_huntsville.png,../static/images/US_Cities_List/nat_cornwall.png,../static/images/US_Cities_List/mm_hanover.png,../static/images/US_Cities_List/nat_huntsville.png,../static/images/US_Cities_List/mm_hanover.png,../static/images/US_Cities_List/nat_cornwall.png,1,,,,,,,,,,,,,,,
3672.100000023842,,directmemory_phase,1025379,../static/images/US_Cities_List/nat_boulder.png,,,,51,,,0,0.55,../static/images/US_Cities_List/nat_huntsville.png,../static/images/US_Cities_List/nat_carmel.png,../static/images/US_Cities_List/nat_cornwall.png,../static/images/US_Cities_List/nat_carmel.png,../static/images/US_Cities_List/nat_huntsville.png,../static/images/US_Cities_List/nat_cornwall.png,0.5,closer,,,,,,,,,,,,,,
4411.599999904633,,directmemory_phase,1031945,../static/images/US_Cities_List/mm_shreveport.png,,,,49,,,0,0.5238095238095238,../static/images/US_Cities_List/nat_gatlinburg.png,../static/images/US_Cities_List/nat_boulder.png,../static/images/US_Cities_List/nat_cornwall.png,../static/images/US_Cities_List/nat_boulder.png,../static/images/US_Cities_List/nat_gatlinburg.png,../static/images/US_Cities_List/nat_cornwall.png,0.5,closer,,,,,,,,,,,,,,
3375,,directmemory_phase,1038543,../static/images/US_Cities_List/mm_hanover.png,,,,51,,,1,0.5454545454545454,../static/images/US_Cities_List/nat_hotsprings.png,../static/images/US_Cities_List/nat_boulder.png,../static/images/US_Cities_List/nat_carmel.png,../static/images/US_Cities_List/nat_carmel.png,../static/images/US_Cities_List/nat_boulder.png,../static/images/US_Cities_List/nat_hotsprings.png,1,,,,,,,,,,,,,,,
4163.299999952316,,directmemory_phase,1045090,../static/images/US_Cities_List/mm_newhope.png,,,,51,,,0,0.5217391304347826,../static/images/US_Cities_List/nat_cornwall.png,../static/images/US_Cities_List/nat_boulder.png,../static/images/US_Cities_List/mm_peoria.png,../static/images/US_Cities_List/nat_cornwall.png,../static/images/US_Cities_List/mm_peoria.png,../static/images/US_Cities_List/nat_boulder.png,0.5,closer,,,,,,,,,,,,,,
4883.899999976158,,directmemory_phase,1051658,../static/images/US_Cities_List/nat_leesburg.png,,,,50,,,0,0.5,../static/images/US_Cities_List/mm_newhope.png,../static/images/US_Cities_List/nat_boulder.png,../static/images/US_Cities_List/mm_hanover.png,../static/images/US_Cities_List/mm_newhope.png,../static/images/US_Cities_List/mm_hanover.png,../static/images/US_Cities_List/nat_boulder.png,0.5,closer,,,,,,,,,,,,,,
3342,,directmemory_phase,1058236,../static/images/US_Cities_List/nat_carmel.png,,,,50,,,1,0.52,../static/images/US_Cities_List/nat_cornwall.png,../static/images/US_Cities_List/nat_gatlinburg.png,../static/images/US_Cities_List/mm_westpalmbeach.png,../static/images/US_Cities_List/nat_gatlinburg.png,../static/images/US_Cities_List/nat_cornwall.png,../static/images/US_Cities_List/mm_westpalmbeach.png,1,,,,,,,,,,,,,,,
4845.099999904633,,directmemory_phase,1064791,../static/images/US_Cities_List/mm_hanover.png,,,,50,,,0,0.5,../static/images/US_Cities_List/nat_racine.png,../static/images/US_Cities_List/mm_newhope.png,../static/images/US_Cities_List/mm_peoria.png,../static/images/US_Cities_List/mm_peoria.png,../static/images/US_Cities_List/mm_newhope.png,../static/images/US_Cities_List/nat_racine.png,0.5,closer,,,,,,,,,,,,,,
2164.3000000715256,,directmemory_phase,1071360,../static/images/US_Cities_List/nat_boulder.png,,,,49,,,1,0.5185185185185185,../static/images/US_Cities_List/nat_gatlinburg.png,../static/images/US_Cities_List/nat_racine.png,../static/images/US_Cities_List/mm_peoria.png,../static/images/US_Cities_List/nat_gatlinburg.png,../static/images/US_Cities_List/mm_peoria.png,../static/images/US_Cities_List/nat_racine.png,1,,,,,,,,,,,,,,,
3337.899999976158,,directmemory_phase,1077937,../static/images/US_Cities_List/nat_gatlinburg.png,,,,51,,,0,0.5,../static/images/US_Cities_List/nat_carmel.png,../static/images/US_Cities_List/mm_westpalmbeach.png,../static/images/US_Cities_List/mm_shreveport.png,../static/images/US_Cities_List/nat_carmel.png,../static/images/US_Cities_List/mm_shreveport.png,../static/images/US_Cities_List/mm_westpalmbeach.png,0.5,closer,,,,,,,,,,,,,,
3480.3000000715256,,directmemory_phase,1084498,../static/images/US_Cities_List/nat_cornwall.png,,,,49,,,0,0.4827586206896552,../static/images/US_Cities_List/mm_shreveport.png,../static/images/US_Cities_List/mm_peoria.png,../static/images/US_Cities_List/mm_hanover.png,../static/images/US_Cities_List/mm_hanover.png,../static/images/US_Cities_List/mm_peoria.png,../static/images/US_Cities_List/mm_shreveport.png,0.5,closer,,,,,,,,,,,,,,
2728.1999999284744,,directmemory_phase,1091066,../static/images/US_Cities_List/nat_carmel.png,,,,51,,,1,0.5,../static/images/US_Cities_List/nat_racine.png,../static/images/US_Cities_List/nat_hotsprings.png,../static/images/US_Cities_List/nat_boulder.png,../static/images/US_Cities_List/nat_boulder.png,../static/images/US_Cities_List/nat_hotsprings.png,../static/images/US_Cities_List/nat_racine.png,1,,,,,,,,,,,,,,,
2375.3000000715256,,directmemory_phase,1097672,../static/images/US_Cities_List/nat_boulder.png,,,,50,,,0,0.4838709677419355,../static/images/US_Cities_List/nat_leesburg.png,../static/images/US_Cities_List/nat_huntsville.png,../static/images/US_Cities_List/nat_hotsprings.png,../static/images/US_Cities_List/nat_hotsprings.png,../static/images/US_Cities_List/nat_huntsville.png,../static/images/US_Cities_List/nat_leesburg.png,0.5,closer,,,,,,,,,,,,,,
2767.5,,directmemory_phase,1104231,../static/images/US_Cities_List/nat_carmel.png,,,,51,,,1,0.5,../static/images/US_Cities_List/mm_newhope.png,../static/images/US_Cities_List/nat_cornwall.png,../static/images/US_Cities_List/mm_hanover.png,../static/images/US_Cities_List/mm_hanover.png,../static/images/US_Cities_List/nat_cornwall.png,../static/images/US_Cities_List/mm_newhope.png,1,,,,,,,,,,,,,,,
null,,thebreak,1104337,<p></p>,,,,null,,,,,,,,,,,,,,,,,,,,,,,,,,
37301.40000009537,,intro_0,1141641,instruct,,,,32,,,,,,,,,,,,,,,,,,,,,,,,,,
22123.800000071526,,intro_1,1163766,instruct,,,,32,,,,,,,,,,,,,,,,,,,,,,,,,,
4628.5,,intro_2,1168396,instruct,,,,32,,,,,,,,,,,,,,,,,,,,,,,,,,
15044.600000023842,,intro_3,1183442,instruct,,,,32,,,,,,,,,,,,,,,,,,,,,,,,,,
6453.299999952316,,intro_4,1189897,instruct,,,,32,,,,,,,,,,,,,,,,,,,,,,,,,,
12765.600000023842,,intro_5,1202665,instruct,,,,32,,,,,,,,,,,,,,,,,,,,,,,,,,
13937.200000047684,,intro_6,1216604,instruct,,,,32,,,,,,,,,,,,,,,,,,,,,,,,,,
33458.59999990463,,intro_7,1250064,instruct,,,,32,,,,,,,,,,,,,,,,,,,,,,,,,,
3276,,intro_8,1253343,instruct,,,,32,,,,,,,,,,,,,,,,,,,,,,,,,,
3426.5,,intro_9,1256771,instruct,,,,32,,,,,,,,,,,,,,,,,,,,,,,,,,
20781.399999976158,,intro_10,1277554,instruct,,,,32,,,,,,,,,,,,,,,,,,,,,,,,,,
null,,shortestpath_phase,1285112,../static/images/US_Cities_List/mm_newhope.png,,,,null,../static/images/US_Cities_List/nat_huntsville.png,../static/images/US_Cities_List/nat_racine.png,0,0,,,,../static/images/US_Cities_List/nat_racine.png,,,,,Three Edge Diff,Two Edge Five Edge,,,,,,,,,,,,
3279.2000000476837,,shortestpath_phase,1292672,../static/images/US_Cities_List/mm_newhope.png,,,,49,../static/images/US_Cities_List/nat_carmel.png,../static/images/US_Cities_List/nat_hotsprings.png,1,0.5,,,,../static/images/US_Cities_List/nat_carmel.png,,,,,Two Edge Diff,Three Edge Five Edge,,,,,,,,,,,,
2224.0999999046326,,shortestpath_phase,1300243,../static/images/US_Cities_List/nat_hotsprings.png,,,,49,../static/images/US_Cities_List/nat_carmel.png,../static/images/US_Cities_List/mm_westpalmbeach.png,1,0.6666666666666666,,,,../static/images/US_Cities_List/nat_carmel.png,,,,,Four Edge Diff,Two Edge Six Edge,,,,,,,,,,,,
2427.600000023842,,shortestpath_phase,1307795,../static/images/US_Cities_List/nat_hotsprings.png,,,,49,../static/images/US_Cities_List/nat_gatlinburg.png,../static/images/US_Cities_List/mm_newhope.png,1,0.75,,,,../static/images/US_Cities_List/nat_gatlinburg.png,,,,,Three Edge Diff,Two Edge Five Edge,,,,,,,,,,,,
2413.3000000715256,,shortestpath_phase,1315365,../static/images/US_Cities_List/nat_racine.png,,,,50,../static/images/US_Cities_List/nat_huntsville.png,../static/images/US_Cities_List/mm_newhope.png,1,0.8,,,,../static/images/US_Cities_List/mm_newhope.png,,,,,Four Edge Diff,Two Edge Six Edge,,,,,,,,,,,,
2907,,shortestpath_phase,1322957,../static/images/US_Cities_List/nat_hotsprings.png,,,,50,../static/images/US_Cities_List/nat_gatlinburg.png,../static/images/US_Cities_List/nat_huntsville.png,0,0.6666666666666666,,,,../static/images/US_Cities_List/nat_gatlinburg.png,,,,,One Edge Diff,Two Edge Three Edge,,,,,,,,,,,,
