rt,responses,trial_type,time_elapsed,stimulus,button_pressed,key_press,image_type,rating,probe,probe_accuracy,new_old,response,correct,accuracy,confidence
16140.599999964237,{worker_id:meghan},id_enter,16143,,,,,,,,,,,,
7854.400000035763,,fullscreen,24000,fullscreen,0,,,,,,,,,,
4175.199999988079,,intro_0,28183,instruct,,32,,,,,,,,,
9059.199999988079,,intro_1,37244,instruct,,32,,,,,,,,,
null,,instruct_dir_4,38757,instruct,,null,,,,,,,,,
null,,learn_phase,41761,realUS/US_img_manmade_10.png,,null,MM,,,,,,,,
5479.199999988079,,familiar_rating,47242,realUS/US_img_manmade_10.png,,50,,2,,,,,,,
3572.199999988079,,unique_rating,50817,realUS/US_img_manmade_10.png,,51,,3,,,,,,,
2139.300000011921,,memorable_rating,52960,realUS/US_img_manmade_10.png,,52,,4,,,,,,,
null,,thebreak,53363,break,,null,,,,,,,,,
null,,learn_phase,56366,realUS/US_img_manmade_03.png,,null,MM,,,,,,,,
3022.7000000476837,,familiar_rating,59391,realUS/US_img_manmade_03.png,,52,,4,,,,,,,
2165.300000011921,,unique_rating,61559,realUS/US_img_manmade_03.png,,50,,2,,,,,,,
1794,,memorable_rating,63355,realUS/US_img_manmade_03.png,,51,,3,,,,,,,
null,,thebreak,63758,break,,null,,,,,,,,,
null,,learn_phase,66760,realUS/US_img_natural_05.png,,null,NAT,,,,,,,,
2003.199999988079,,familiar_rating,68768,realUS/US_img_natural_05.png,,51,,3,,,,,,,
1436.300000011921,,unique_rating,70205,realUS/US_img_natural_05.png,,52,,4,,,,,,,
1147.300000011921,,memorable_rating,71354,realUS/US_img_natural_05.png,,52,,4,,,,,,,
null,,thebreak,71756,break,,null,,,,,,,,,
null,,learn_phase,74759,img_natural_05.png,,null,NAT,,,,,,,,
1273.7999999523163,,familiar_rating,76034,img_natural_05.png,,49,,1,,,,,,,
2010,,unique_rating,78045,img_natural_05.png,,53,,5,,,,,,,
1675.0999999642372,,memorable_rating,79722,img_natural_05.png,,52,,4,,,,,,,
null,,thebreak,80123,break,,null,,,,,,,,,
null,,learn_phase,83126,img_natural_29.png,,null,NAT,,,,,,,,
1348.199999988079,,familiar_rating,84476,img_natural_29.png,,50,,2,,,,,,,
1783.300000011921,,probe_rating,86262,img_natural_29.png,,49,,,1,1,,,,,
4795.300000011921,,unique_rating,91059,img_natural_29.png,,52,,4,,,,,,,
4282.599999964237,,memorable_rating,95343,img_natural_29.png,,52,,4,,,,,,,
null,,thebreak,95745,break,,null,,,,,,,,,
null,,learn_phase,98749,img_natural_11.png,,null,NAT,,,,,,,,
5785.199999988079,,familiar_rating,104536,img_natural_11.png,,49,,1,,,,,,,
1472.1000000238419,,unique_rating,106010,img_natural_11.png,,53,,5,,,,,,,
1958.800000011921,,memorable_rating,107971,img_natural_11.png,,53,,5,,,,,,,
null,,thebreak,108373,break,,null,,,,,,,,,
null,,learn_phase,111378,img_manmade_30.png,,null,MM,,,,,,,,
1558.8999999761581,,familiar_rating,112938,img_manmade_30.png,,50,,2,,,,,,,
2202.600000023842,,unique_rating,115143,img_manmade_30.png,,52,,4,,,,,,,
681,,memorable_rating,115825,img_manmade_30.png,,52,,4,,,,,,,
null,,thebreak,116228,break,,null,,,,,,,,,
null,,learn_phase,119230,img_natural_25.png,,null,NAT,,,,,,,,
1910.699999988079,,familiar_rating,121143,img_natural_25.png,,50,,2,,,,,,,
3783.300000011921,,unique_rating,124928,img_natural_25.png,,51,,3,,,,,,,
1697.0999999642372,,memorable_rating,126626,img_natural_25.png,,52,,4,,,,,,,
null,,thebreak,127029,break,,null,,,,,,,,,
null,,learn_phase,130030,img_natural_06.png,,null,NAT,,,,,,,,
2118.5,,familiar_rating,132150,img_natural_06.png,,49,,1,,,,,,,
1620,,unique_rating,133771,img_natural_06.png,,53,,5,,,,,,,
1171.5,,probe_rating,134944,img_natural_06.png,,49,,,1,1,,,,,
1886.9000000357628,,memorable_rating,136832,img_natural_06.png,,53,,5,,,,,,,
null,,thebreak,137234,break,,null,,,,,,,,,
null,,learn_phase,140240,realUS/US_img_manmade_14.png,,null,MM,,,,,,,,
1941.4000000357628,,familiar_rating,142183,realUS/US_img_manmade_14.png,,52,,4,,,,,,,
2815.800000011921,,unique_rating,145002,realUS/US_img_manmade_14.png,,50,,2,,,,,,,
1274.199999988079,,probe_rating,146277,realUS/US_img_manmade_14.png,,53,,,5,1,,,,,
5163.199999988079,,memorable_rating,151443,realUS/US_img_manmade_14.png,,51,,3,,,,,,,
null,,thebreak,151846,break,,null,,,,,,,,,
null,,learn_phase,154849,img_natural_01.png,,null,NAT,,,,,,,,
4156,,familiar_rating,159006,img_natural_01.png,,49,,1,,,,,,,
2148.400000035763,,unique_rating,161155,img_natural_01.png,,52,,4,,,,,,,
2342.100000023842,,memorable_rating,163499,img_natural_01.png,,53,,5,,,,,,,
null,,thebreak,163902,break,,null,,,,,,,,,
null,,learn_phase,166910,img_manmade_17.png,,null,MM,,,,,,,,
2137.800000011921,,familiar_rating,169049,img_manmade_17.png,,50,,2,,,,,,,
1764.6000000238419,,unique_rating,170815,img_manmade_17.png,,50,,2,,,,,,,
2434.7000000476837,,memorable_rating,173250,img_manmade_17.png,,50,,2,,,,,,,
null,,thebreak,173652,break,,null,,,,,,,,,
null,,learn_phase,176654,realUS/US_img_natural_11.png,,null,NAT,,,,,,,,
2263.099999964237,,familiar_rating,178919,realUS/US_img_natural_11.png,,50,,2,,,,,,,
1599.6000000238419,,unique_rating,180520,realUS/US_img_natural_11.png,,51,,3,,,,,,,
1154.1000000238419,,memorable_rating,181676,realUS/US_img_natural_11.png,,50,,2,,,,,,,
null,,thebreak,182078,break,,null,,,,,,,,,
null,,learn_phase,185080,img_natural_07.png,,null,NAT,,,,,,,,
3665.300000011921,,familiar_rating,188750,img_natural_07.png,,49,,1,,,,,,,
2078.600000023842,,unique_rating,190831,img_natural_07.png,,52,,4,,,,,,,
1025.1000000238419,,memorable_rating,191858,img_natural_07.png,,53,,5,,,,,,,
null,,thebreak,192259,break,,null,,,,,,,,,
null,,learn_phase,195262,img_manmade_21.png,,null,MM,,,,,,,,
1579.9000000357628,,familiar_rating,196844,img_manmade_21.png,,49,,1,,,,,,,
2203.400000035763,,unique_rating,199051,img_manmade_21.png,,53,,5,,,,,,,
569.8999999761581,,memorable_rating,199622,img_manmade_21.png,,53,,5,,,,,,,
null,,thebreak,200024,break,,null,,,,,,,,,
null,,learn_phase,203029,realUS/US_img_natural_01.png,,null,NAT,,,,,,,,
1263.2000000476837,,familiar_rating,204294,realUS/US_img_natural_01.png,,50,,2,,,,,,,
2797.300000011921,,probe_rating,207093,realUS/US_img_natural_01.png,,51,,,3,1,,,,,
4169.5,,unique_rating,211265,realUS/US_img_natural_01.png,,49,,1,,,,,,,
1586.300000011921,,memorable_rating,212852,realUS/US_img_natural_01.png,,50,,2,,,,,,,
null,,thebreak,213255,break,,null,,,,,,,,,
null,,learn_phase,216259,realUS/US_img_manmade_11.png,,null,MM,,,,,,,,
1864.4000000357628,,familiar_rating,218125,realUS/US_img_manmade_11.png,,50,,2,,,,,,,
1333.3999999761581,,unique_rating,219460,realUS/US_img_manmade_11.png,,49,,1,,,,,,,
1059,,memorable_rating,220521,realUS/US_img_manmade_11.png,,49,,1,,,,,,,
null,,thebreak,220923,break,,null,,,,,,,,,
null,,learn_phase,223927,realUS/US_img_natural_02.png,,null,NAT,,,,,,,,
3156.5,,familiar_rating,227086,realUS/US_img_natural_02.png,,53,,5,,,,,,,
2715.399999976158,,unique_rating,229804,realUS/US_img_natural_02.png,,49,,1,,,,,,,
1314.2000000476837,,memorable_rating,231119,realUS/US_img_natural_02.png,,50,,2,,,,,,,
1859.199999988079,,probe_rating,232980,realUS/US_img_natural_02.png,,53,,,5,1,,,,,
null,,thebreak,233382,break,,null,,,,,,,,,
null,,learn_phase,236388,realUS/US_img_natural_13.png,,null,NAT,,,,,,,,
5499.899999976158,,familiar_rating,241889,realUS/US_img_natural_13.png,,50,,2,,,,,,,
1899.699999988079,,probe_rating,243790,realUS/US_img_natural_13.png,,53,,,5,1,,,,,
1146.5999999642372,,unique_rating,244939,realUS/US_img_natural_13.png,,51,,3,,,,,,,
5494.300000011921,,memorable_rating,250435,realUS/US_img_natural_13.png,,51,,3,,,,,,,
null,,thebreak,250841,break,,null,,,,,,,,,
null,,learn_phase,253843,img_manmade_13.png,,null,MM,,,,,,,,
16731.899999976158,,familiar_rating,270578,img_manmade_13.png,,50,,2,,,,,,,
2024.5,,unique_rating,272605,img_manmade_13.png,,52,,4,,,,,,,
1661.6000000238419,,memorable_rating,274268,img_manmade_13.png,,51,,3,,,,,,,
null,,thebreak,274675,break,,null,,,,,,,,,
null,,learn_phase,277680,realUS/US_img_manmade_05.png,,null,MM,,,,,,,,
2243.400000035763,,familiar_rating,279925,realUS/US_img_manmade_05.png,,53,,5,,,,,,,
1968.8999999761581,,unique_rating,281895,realUS/US_img_manmade_05.png,,50,,2,,,,,,,
1303.800000011921,,memorable_rating,283200,realUS/US_img_manmade_05.png,,50,,2,,,,,,,
null,,thebreak,283601,break,,null,,,,,,,,,
null,,learn_phase,286603,img_manmade_25.png,,null,MM,,,,,,,,
2280,,familiar_rating,288885,img_manmade_25.png,,50,,2,,,,,,,
1694.4000000357628,,unique_rating,290581,img_manmade_25.png,,51,,3,,,,,,,
703.1000000238419,,memorable_rating,291284,img_manmade_25.png,,51,,3,,,,,,,
null,,thebreak,291686,break,,null,,,,,,,,,
null,,learn_phase,294691,img_natural_17.png,,null,NAT,,,,,,,,
6185.799999952316,,familiar_rating,300880,img_natural_17.png,,49,,1,,,,,,,
1720.9000000357628,,unique_rating,302602,img_natural_17.png,,52,,4,,,,,,,
1018.4000000357628,,memorable_rating,303622,img_natural_17.png,,52,,4,,,,,,,
null,,thebreak,304028,break,,null,,,,,,,,,
null,,learn_phase,307029,realUS/US_img_natural_06.png,,null,NAT,,,,,,,,
1581.9000000357628,,familiar_rating,308612,realUS/US_img_natural_06.png,,50,,2,,,,,,,
2497.400000035763,,unique_rating,311111,realUS/US_img_natural_06.png,,52,,4,,,,,,,
1254.800000011921,,memorable_rating,312367,realUS/US_img_natural_06.png,,51,,3,,,,,,,
null,,thebreak,312769,break,,null,,,,,,,,,
null,,learn_phase,315771,realUS/US_img_natural_03.png,,null,NAT,,,,,,,,
948.7999999523163,,familiar_rating,316721,realUS/US_img_natural_03.png,,51,,3,,,,,,,
1868.5,,unique_rating,318591,realUS/US_img_natural_03.png,,51,,3,,,,,,,
1021.2999999523163,,memorable_rating,319613,realUS/US_img_natural_03.png,,51,,3,,,,,,,
null,,thebreak,320018,break,,null,,,,,,,,,
null,,learn_phase,323019,realUS/US_img_manmade_07.png,,null,MM,,,,,,,,
9539.899999976158,,familiar_rating,332560,realUS/US_img_manmade_07.png,,51,,3,,,,,,,
2216.199999988079,,unique_rating,334778,realUS/US_img_manmade_07.png,,50,,2,,,,,,,
696.5,,memorable_rating,335476,realUS/US_img_manmade_07.png,,50,,2,,,,,,,
null,,thebreak,335878,break,,null,,,,,,,,,
null,,learn_phase,338883,realUS/US_img_manmade_06.png,,null,MM,,,,,,,,
3141.100000023842,,familiar_rating,342026,realUS/US_img_manmade_06.png,,49,,1,,,,,,,
1758.3999999761581,,unique_rating,343786,realUS/US_img_manmade_06.png,,50,,2,,,,,,,
633.3000000119209,,memorable_rating,344423,realUS/US_img_manmade_06.png,,49,,1,,,,,,,
null,,thebreak,344824,break,,null,,,,,,,,,
null,,learn_phase,347827,img_manmade_02.png,,null,MM,,,,,,,,
3686,,familiar_rating,351515,img_manmade_02.png,,49,,1,,,,,,,
1581.9000000357628,,unique_rating,353099,img_manmade_02.png,,52,,4,,,,,,,
742.6000000238419,,memorable_rating,353843,img_manmade_02.png,,53,,5,,,,,,,
null,,thebreak,354244,break,,null,,,,,,,,,
null,,learn_phase,357246,realUS/US_img_manmade_09.png,,null,MM,,,,,,,,
3702.900000035763,,familiar_rating,360951,realUS/US_img_manmade_09.png,,50,,2,,,,,,,
1348.5,,unique_rating,362300,realUS/US_img_manmade_09.png,,50,,2,,,,,,,
849.1000000238419,,memorable_rating,363150,realUS/US_img_manmade_09.png,,49,,1,,,,,,,
null,,thebreak,363552,break,,null,,,,,,,,,
null,,learn_phase,366554,img_manmade_10.png,,null,MM,,,,,,,,
3887.5,,familiar_rating,370443,img_manmade_10.png,,51,,3,,,,,,,
1812,,unique_rating,372256,img_manmade_10.png,,50,,2,,,,,,,
2259.899999976158,,memorable_rating,374518,img_manmade_10.png,,50,,2,,,,,,,
null,,thebreak,374928,break,,null,,,,,,,,,
2703.7000000476837,,intro_0,377633,instruct,,32,,,,,,,,,
3513.599999964237,,intro_1,381148,instruct,,32,,,,,,,,,
4692.599999964237,,intro_2,385842,instruct,,32,,,,,,,,,
null,,instruct_dir_4,387343,instruct,,null,,,,,,,,,
null,,second_learn_phase,390345,img_natural_27.png,,null,NAT,,,,NEW,,,,
8540.599999964237,,realistic_rating,398891,img_natural_27.png,,50,,2,,,,,,,
3979.100000023842,,pt2_unique_rating,402871,img_natural_27.png,,50,,2,,,,,,,
8779.800000011921,,memorable_rating,411652,img_natural_27.png,,51,,3,,,,,,,
2311.199999988079,,recognition_phase,413965,,,50,,,,,,new,1,1,
1895.800000011921,,confidence,415862,confidence,,52,,,,,,,,,4
null,,second_learn_phase,418865,img_manmade_30.png,,null,MM,,,,OLD,,,,
5243.399999976158,,realistic_rating,424109,img_manmade_30.png,,51,,3,,,,,,,
2880.699999988079,,pt2_unique_rating,426991,img_manmade_30.png,,51,,3,,,,,,,
1657,,memorable_rating,428650,img_manmade_30.png,,52,,4,,,,,,,
2222.399999976158,,recognition_phase,430874,,,49,,,,,,old,1,1,
1468.0999999642372,,confidence,432343,confidence,,52,,,,,,,,,4
null,,second_learn_phase,435345,realUS/US_img_manmade_04.png,,null,MM,,,,NEW,,,,
3065.100000023842,,realistic_rating,438416,realUS/US_img_manmade_04.png,,53,,5,,,,,,,
1234.0999999642372,,probe_rating,439651,realUS/US_img_manmade_04.png,,53,,,5,1,,,,,
2091.600000023842,,pt2_unique_rating,441744,realUS/US_img_manmade_04.png,,51,,3,,,,,,,
2337.599999964237,,memorable_rating,444083,realUS/US_img_manmade_04.png,,51,,3,,,,,,,
2094.5,,recognition_phase,446179,,,50,,,,,,new,1,1,
1648.699999988079,,confidence,447829,confidence,,52,,,,,,,,,4
null,,second_learn_phase,450831,realUS/US_img_manmade_14.png,,null,MM,,,,OLD,,,,
2978.800000011921,,realistic_rating,453811,realUS/US_img_manmade_14.png,,52,,4,,,,,,,
2250.800000011921,,pt2_unique_rating,456063,realUS/US_img_manmade_14.png,,50,,2,,,,,,,
1646.7999999523163,,memorable_rating,457711,realUS/US_img_manmade_14.png,,51,,3,,,,,,,
5142.799999952316,,recognition_phase,462855,,,49,,,,,,old,1,1,
1533.300000011921,,confidence,464390,confidence,,52,,,,,,,,,4
null,,second_learn_phase,467391,realUS/US_img_natural_06.png,,null,NAT,,,,OLD,,,,
2239.399999976158,,realistic_rating,469632,realUS/US_img_natural_06.png,,51,,3,,,,,,,
2200.800000011921,,pt2_unique_rating,471834,realUS/US_img_natural_06.png,,51,,3,,,,,,,
1584.9000000357628,,memorable_rating,473420,realUS/US_img_natural_06.png,,51,,3,,,,,,,
3104.300000011921,,recognition_phase,476526,,,49,,,,,,old,1,1,
1037.699999988079,,confidence,477564,confidence,,52,,,,,,,,,4
null,,second_learn_phase,480566,img_manmade_14.png,,null,MM,,,,NEW,,,,
4520.199999988079,,realistic_rating,485088,img_manmade_14.png,,49,,1,,,,,,,
2359.2000000476837,,pt2_unique_rating,487448,img_manmade_14.png,,50,,2,,,,,,,
1861.5999999642372,,memorable_rating,489312,img_manmade_14.png,,51,,3,,,,,,,
1527.800000011921,,recognition_phase,490842,,,50,,,,,,new,1,1,
1437.300000011921,,confidence,492281,confidence,,52,,,,,,,,,4
null,,second_learn_phase,495283,img_manmade_22.png,,null,MM,,,,NEW,,,,
3749.100000023842,,realistic_rating,499033,img_manmade_22.png,,50,,2,,,,,,,
1760.6000000238419,,pt2_unique_rating,500795,img_manmade_22.png,,52,,4,,,,,,,
1013.4000000357628,,memorable_rating,501810,img_manmade_22.png,,52,,4,,,,,,,
1604.5,,recognition_phase,503415,,,50,,,,,,new,1,1,
1430,,confidence,504849,confidence,,52,,,,,,,,,4
null,,second_learn_phase,507851,realUS/US_img_manmade_13.png,,null,MM,,,,NEW,,,,
2318.800000011921,,realistic_rating,510171,realUS/US_img_manmade_13.png,,53,,5,,,,,,,
1647.4000000357628,,pt2_unique_rating,511820,realUS/US_img_manmade_13.png,,49,,1,,,,,,,
1379.800000011921,,memorable_rating,513201,realUS/US_img_manmade_13.png,,49,,1,,,,,,,
1388.7999999523163,,recognition_phase,514591,,,50,,,,,,new,1,1,
1796.300000011921,,confidence,516388,confidence,,52,,,,,,,,,4
null,,second_learn_phase,519390,realUS/US_img_natural_07.png,,null,NAT,,,,NEW,,,,
3122.400000035763,,realistic_rating,522514,realUS/US_img_natural_07.png,,53,,5,,,,,,,
1579.300000011921,,pt2_unique_rating,524094,realUS/US_img_natural_07.png,,50,,2,,,,,,,
938.6999999880791,,memorable_rating,525034,realUS/US_img_natural_07.png,,50,,2,,,,,,,
4700.199999988079,,recognition_phase,529735,,,50,,,,,,new,1,1,
1396.199999988079,,confidence,531132,confidence,,52,,,,,,,,,4
null,,second_learn_phase,534134,img_manmade_06.png,,null,MM,,,,NEW,,,,
4558.5,,realistic_rating,538694,img_manmade_06.png,,49,,1,,,,,,,
1726.199999988079,,pt2_unique_rating,540421,img_manmade_06.png,,52,,4,,,,,,,
591.1999999880791,,memorable_rating,541013,img_manmade_06.png,,52,,4,,,,,,,
2511.800000011921,,recognition_phase,543526,,,49,,,,,,old,0,0.9,
895.1999999880791,,confidence,544424,confidence,,51,,,,,,,,,3
null,,second_learn_phase,547429,img_manmade_25.png,,null,MM,,,,OLD,,,,
3652.899999976158,,realistic_rating,551083,img_manmade_25.png,,50,,2,,,,,,,
3231.599999964237,,pt2_unique_rating,554316,img_manmade_25.png,,51,,3,,,,,,,
1956.1000000238419,,memorable_rating,556274,img_manmade_25.png,,52,,4,,,,,,,
1094.9000000357628,,probe_rating,557370,img_manmade_25.png,,52,,,4,1,,,,,
1417.9000000357628,,recognition_phase,558789,,,49,,,,,,old,1,0.9090909090909091,
1458.300000011921,,confidence,560248,confidence,,52,,,,,,,,,4
null,,second_learn_phase,563250,img_manmade_01.png,,null,MM,,,,NEW,,,,
12805.900000035763,,realistic_rating,576057,img_manmade_01.png,,50,,2,,,,,,,
1600.199999988079,,pt2_unique_rating,577659,img_manmade_01.png,,51,,3,,,,,,,
817.2000000476837,,memorable_rating,578478,img_manmade_01.png,,51,,3,,,,,,,
1274,,recognition_phase,579753,,,50,,,,,,new,1,0.9166666666666666,
1487.3999999761581,,confidence,581242,confidence,,52,,,,,,,,,4
null,,second_learn_phase,584244,realUS/US_img_manmade_09.png,,null,MM,,,,OLD,,,,
1080.3999999761581,,realistic_rating,585326,realUS/US_img_manmade_09.png,,49,,1,,,,,,,
4163.300000011921,,pt2_unique_rating,589490,realUS/US_img_manmade_09.png,,49,,1,,,,,,,
7485.399999976158,,memorable_rating,596977,realUS/US_img_manmade_09.png,,49,,1,,,,,,,
1563.5,,recognition_phase,598542,,,49,,,,,,old,1,0.9230769230769231,
1417.800000011921,,confidence,599961,confidence,,52,,,,,,,,,4
null,,second_learn_phase,602962,realUS/US_img_manmade_07.png,,null,MM,,,,OLD,,,,
1541.199999988079,,realistic_rating,604504,realUS/US_img_manmade_07.png,,53,,5,,,,,,,
1633.5,,pt2_unique_rating,606138,realUS/US_img_manmade_07.png,,49,,1,,,,,,,
1577.2999999523163,,memorable_rating,607716,realUS/US_img_manmade_07.png,,50,,2,,,,,,,
1573.300000011921,,recognition_phase,609294,,,49,,,,,,old,1,0.9285714285714286,
1333.9000000357628,,confidence,610628,confidence,,52,,,,,,,,,4
null,,second_learn_phase,613638,img_manmade_17.png,,null,MM,,,,OLD,,,,
7047.399999976158,,realistic_rating,620687,img_manmade_17.png,,53,,5,,,,,,,
3467,,pt2_unique_rating,624156,img_manmade_17.png,,49,,1,,,,,,,
1993.1000000238419,,memorable_rating,626155,img_manmade_17.png,,51,,3,,,,,,,
2116.199999988079,,recognition_phase,628273,,,49,,,,,,old,1,0.9333333333333333,
1697.9000000357628,,confidence,629972,confidence,,51,,,,,,,,,3
null,,second_learn_phase,632973,realUS/US_img_natural_11.png,,null,NAT,,,,OLD,,,,
4368.699999988079,,realistic_rating,637344,realUS/US_img_natural_11.png,,52,,4,,,,,,,
2288.600000023842,,pt2_unique_rating,639635,realUS/US_img_natural_11.png,,51,,3,,,,,,,
2403.300000011921,,memorable_rating,642042,realUS/US_img_natural_11.png,,51,,3,,,,,,,
1706.3999999761581,,recognition_phase,643750,,,49,,,,,,old,1,0.9375,
1749.0999999642372,,confidence,645500,confidence,,51,,,,,,,,,3
null,,second_learn_phase,648503,img_natural_18.png,,null,NAT,,,,NEW,,,,
1271.1000000238419,,realistic_rating,649776,img_natural_18.png,,49,,1,,,,,,,
1638.1000000238419,,pt2_unique_rating,651415,img_natural_18.png,,52,,4,,,,,,,
1599.0999999642372,,memorable_rating,653016,img_natural_18.png,,52,,4,,,,,,,
1434.5,,recognition_phase,654455,,,50,,,,,,new,1,0.9411764705882353,
1157.699999988079,,confidence,655616,confidence,,52,,,,,,,,,4
null,,second_learn_phase,658619,img_natural_10.png,,null,NAT,,,,NEW,,,,
2246.199999988079,,realistic_rating,660868,img_natural_10.png,,50,,2,,,,,,,
11914.699999988079,,pt2_unique_rating,672784,img_natural_10.png,,52,,4,,,,,,,
4350.800000011921,,memorable_rating,677136,img_natural_10.png,,52,,4,,,,,,,
2661.599999964237,,recognition_phase,679799,,,49,,,,,,old,0,0.8888888888888888,
902.6999999880791,,confidence,680703,confidence,,50,,,,,,,,,2
null,,second_learn_phase,683706,img_natural_21.png,,null,NAT,,,,NEW,,,,
2875.300000011921,,realistic_rating,686585,img_natural_21.png,,49,,1,,,,,,,
2842.2999999523163,,pt2_unique_rating,689432,img_natural_21.png,,53,,5,,,,,,,
1394.5999999642372,,memorable_rating,690830,img_natural_21.png,,53,,5,,,,,,,
1474.9000000357628,,recognition_phase,692306,,,50,,,,,,new,1,0.8947368421052632,
1379.800000011921,,confidence,693689,confidence,,52,,,,,,,,,4
null,,second_learn_phase,696691,img_manmade_10.png,,null,MM,,,,OLD,,,,
2834,,realistic_rating,699527,img_manmade_10.png,,51,,3,,,,,,,
1928,,pt2_unique_rating,701456,img_manmade_10.png,,51,,3,,,,,,,
3947.5,,memorable_rating,705405,img_manmade_10.png,,52,,4,,,,,,,
1472.699999988079,,recognition_phase,706879,,,49,,,,,,old,1,0.9,
1255,,confidence,708135,confidence,,52,,,,,,,,,4
null,,second_learn_phase,711138,img_manmade_02.png,,null,MM,,,,OLD,,,,
5117.800000011921,,realistic_rating,716259,img_manmade_02.png,,49,,1,,,,,,,
1508.0999999642372,,pt2_unique_rating,717769,img_manmade_02.png,,52,,4,,,,,,,
1575.199999988079,,memorable_rating,719347,img_manmade_02.png,,52,,4,,,,,,,
1273.1000000238419,,recognition_phase,720621,,,49,,,,,,old,1,0.9047619047619048,
928.1000000238419,,confidence,721550,confidence,,52,,,,,,,,,4
null,,second_learn_phase,724553,realUS/US_img_natural_14.png,,null,NAT,,,,NEW,,,,
2154.2000000476837,,realistic_rating,726709,realUS/US_img_natural_14.png,,53,,5,,,,,,,
3441.399999976158,,pt2_unique_rating,730152,realUS/US_img_natural_14.png,,50,,2,,,,,,,
2023,,memorable_rating,732177,realUS/US_img_natural_14.png,,51,,3,,,,,,,
1084,,recognition_phase,733262,,,50,,,,,,new,1,0.9090909090909091,
1267.3999999761581,,confidence,734531,confidence,,52,,,,,,,,,4
null,,second_learn_phase,737533,realUS/US_img_manmade_10.png,,null,MM,,,,OLD,,,,
819.7999999523163,,realistic_rating,738354,realUS/US_img_manmade_10.png,,50,,2,,,,,,,
8285.300000011921,,pt2_unique_rating,746640,realUS/US_img_manmade_10.png,,51,,3,,,,,,,
898.1000000238419,,memorable_rating,747539,realUS/US_img_manmade_10.png,,51,,3,,,,,,,
1462.699999988079,,recognition_phase,749004,,,49,,,,,,old,1,0.9130434782608695,
1176.4000000357628,,confidence,750182,confidence,,52,,,,,,,,,4
null,,second_learn_phase,753185,img_natural_29.png,,null,NAT,,,,OLD,,,,
1247.9000000357628,,realistic_rating,754434,img_natural_29.png,,50,,2,,,,,,,
15639.100000023842,,pt2_unique_rating,770074,img_natural_29.png,,51,,3,,,,,,,
1235.4000000357628,,memorable_rating,771311,img_natural_29.png,,51,,3,,,,,,,
1185.5,,recognition_phase,772498,,,49,,,,,,old,1,0.9166666666666666,
1290,,confidence,773789,confidence,,52,,,,,,,,,4
null,,second_learn_phase,776803,img_natural_06.png,,null,NAT,,,,OLD,,,,
1207.8999999761581,,realistic_rating,778013,img_natural_06.png,,49,,1,,,,,,,
1603.699999988079,,pt2_unique_rating,779618,img_natural_06.png,,53,,5,,,,,,,
681.8000000119209,,memorable_rating,780302,img_natural_06.png,,53,,5,,,,,,,
891.1999999880791,,recognition_phase,781195,,,49,,,,,,old,1,0.92,
975.1000000238419,,confidence,782171,confidence,,52,,,,,,,,,4
null,,second_learn_phase,785174,img_natural_19.png,,null,NAT,,,,NEW,,,,
2207.899999976158,,realistic_rating,787386,img_natural_19.png,,50,,2,,,,,,,
1613.699999988079,,pt2_unique_rating,789002,img_natural_19.png,,52,,4,,,,,,,
1084.6000000238419,,memorable_rating,790087,img_natural_19.png,,52,,4,,,,,,,
1072.8999999761581,,recognition_phase,791161,,,50,,,,,,new,1,0.9230769230769231,
932,,confidence,792094,confidence,,52,,,,,,,,,4
null,,second_learn_phase,795095,realUS/US_img_natural_13.png,,null,NAT,,,,OLD,,,,
692.8000000119209,,realistic_rating,795789,realUS/US_img_natural_13.png,,53,,5,,,,,,,
1745.8999999761581,,pt2_unique_rating,797538,realUS/US_img_natural_13.png,,51,,3,,,,,,,
1144.800000011921,,memorable_rating,798685,realUS/US_img_natural_13.png,,51,,3,,,,,,,
1151.800000011921,,probe_rating,799839,realUS/US_img_natural_13.png,,50,,,2,1,,,,,
1126.4000000357628,,recognition_phase,800966,,,49,,,,,,old,1,0.9259259259259259,
1133.5,,confidence,802102,confidence,,52,,,,,,,,,4
null,,second_learn_phase,805103,realUS/US_img_natural_01.png,,null,NAT,,,,OLD,,,,
1960.300000011921,,realistic_rating,807064,realUS/US_img_natural_01.png,,53,,5,,,,,,,
2294.5,,pt2_unique_rating,809360,realUS/US_img_natural_01.png,,51,,3,,,,,,,
3864.100000023842,,memorable_rating,813226,realUS/US_img_natural_01.png,,50,,2,,,,,,,
4221.199999988079,,recognition_phase,817449,,,50,,,,,,new,0,0.8928571428571429,
1664.8999999761581,,confidence,819114,confidence,,50,,,,,,,,,2
null,,second_learn_phase,822119,img_natural_04.png,,null,NAT,,,,NEW,,,,
4488.300000011921,,realistic_rating,826610,img_natural_04.png,,52,,4,,,,,,,
2712.7999999523163,,pt2_unique_rating,829324,img_natural_04.png,,51,,3,,,,,,,
1184.9000000357628,,memorable_rating,830511,img_natural_04.png,,51,,3,,,,,,,
1219.800000011921,,recognition_phase,831732,,,50,,,,,,new,1,0.896551724137931,
1067.300000011921,,confidence,832801,confidence,,52,,,,,,,,,4
null,,second_learn_phase,835804,realUS/US_img_natural_09.png,,null,NAT,,,,NEW,,,,
2344.5,,realistic_rating,838150,realUS/US_img_natural_09.png,,53,,5,,,,,,,
1918.2000000476837,,pt2_unique_rating,840069,realUS/US_img_natural_09.png,,51,,3,,,,,,,
1659,,probe_rating,841729,realUS/US_img_natural_09.png,,49,,,1,1,,,,,
1240.3999999761581,,memorable_rating,842971,realUS/US_img_natural_09.png,,52,,4,,,,,,,
1042.199999988079,,recognition_phase,844014,,,50,,,,,,new,1,0.9,
815.3000000119209,,confidence,844830,confidence,,52,,,,,,,,,4
null,,second_learn_phase,847831,realUS/US_img_natural_08.png,,null,NAT,,,,NEW,,,,
2386.5,,realistic_rating,850219,realUS/US_img_natural_08.png,,51,,3,,,,,,,
3406.100000023842,,pt2_unique_rating,853626,realUS/US_img_natural_08.png,,51,,3,,,,,,,
1198.0999999642372,,memorable_rating,854825,realUS/US_img_natural_08.png,,52,,4,,,,,,,
1095.5,,probe_rating,855922,realUS/US_img_natural_08.png,,51,,,3,1,,,,,
1180.8999999761581,,recognition_phase,857104,,,50,,,,,,new,1,0.9032258064516129,
783.6000000238419,,confidence,857889,confidence,,52,,,,,,,,,4
null,,second_learn_phase,860891,realUS/US_img_manmade_02.png,,null,MM,,,,NEW,,,,
1620.4000000357628,,realistic_rating,862514,realUS/US_img_manmade_02.png,,53,,5,,,,,,,
1198.8999999761581,,pt2_unique_rating,863714,realUS/US_img_manmade_02.png,,50,,2,,,,,,,
756.0999999642372,,memorable_rating,864471,realUS/US_img_manmade_02.png,,50,,2,,,,,,,
1404.199999988079,,recognition_phase,865877,,,50,,,,,,new,1,0.90625,
680.8000000119209,,confidence,866559,confidence,,52,,,,,,,,,4
null,,second_learn_phase,869561,img_natural_01.png,,null,NAT,,,,OLD,,,,
2700,,realistic_rating,872262,img_natural_01.png,,49,,1,,,,,,,
4179.199999988079,,pt2_unique_rating,876443,img_natural_01.png,,52,,4,,,,,,,
630.4000000357628,,memorable_rating,877074,img_natural_01.png,,52,,4,,,,,,,
2273.899999976158,,recognition_phase,879350,,,49,,,,,,old,1,0.9090909090909091,
1261.7000000476837,,confidence,880613,confidence,,51,,,,,,,,,3
null,,second_learn_phase,883622,realUS/US_img_natural_10.png,,null,NAT,,,,NEW,,,,
1864.699999988079,,realistic_rating,885488,realUS/US_img_natural_10.png,,53,,5,,,,,,,
2386.699999988079,,pt2_unique_rating,887877,realUS/US_img_natural_10.png,,50,,2,,,,,,,
43231.5,,memorable_rating,931110,realUS/US_img_natural_10.png,,51,,3,,,,,,,
8748.100000023842,,recognition_phase,939858,,,50,,,,,,new,1,0.9117647058823529,
1385.4000000357628,,confidence,941245,confidence,,51,,,,,,,,,3
null,,second_learn_phase,944245,realUS/US_img_manmade_12.png,,null,MM,,,,NEW,,,,
2947.099999964237,,realistic_rating,947194,realUS/US_img_manmade_12.png,,52,,4,,,,,,,
1219.6000000238419,,probe_rating,948415,realUS/US_img_manmade_12.png,,52,,,4,1,,,,,
3626.2999999523163,,pt2_unique_rating,952043,realUS/US_img_manmade_12.png,,50,,2,,,,,,,
1588.6000000238419,,memorable_rating,953633,realUS/US_img_manmade_12.png,,51,,3,,,,,,,
1175.300000011921,,recognition_phase,954809,,,50,,,,,,new,1,0.9142857142857143,
1705.199999988079,,confidence,956515,confidence,,52,,,,,,,,,4
null,,second_learn_phase,959517,realUS/US_img_natural_03.png,,null,NAT,,,,OLD,,,,
2194.300000011921,,realistic_rating,961713,realUS/US_img_natural_03.png,,53,,5,,,,,,,
37930.799999952316,,pt2_unique_rating,999645,realUS/US_img_natural_03.png,,51,,3,,,,,,,
1669.199999988079,,memorable_rating,1001315,realUS/US_img_natural_03.png,,51,,3,,,,,,,
1357.6000000238419,,recognition_phase,1002674,,,49,,,,,,old,1,0.9166666666666666,
1440.4000000357628,,confidence,1004116,confidence,,52,,,,,,,,,4
null,,second_learn_phase,1007118,realUS/US_img_manmade_05.png,,null,MM,,,,OLD,,,,
1223.6000000238419,,realistic_rating,1008343,realUS/US_img_manmade_05.png,,53,,5,,,,,,,
2956,,pt2_unique_rating,1011300,realUS/US_img_manmade_05.png,,49,,1,,,,,,,
2202.100000023842,,memorable_rating,1013503,realUS/US_img_manmade_05.png,,51,,3,,,,,,,
1239.300000011921,,recognition_phase,1014747,,,49,,,,,,old,1,0.918918918918919,
992.8000000119209,,confidence,1015741,confidence,,52,,,,,,,,,4
null,,second_learn_phase,1018743,img_manmade_19.png,,null,MM,,,,NEW,,,,
3117.100000023842,,realistic_rating,1021862,img_manmade_19.png,,50,,2,,,,,,,
1918.5,,pt2_unique_rating,1023782,img_manmade_19.png,,52,,4,,,,,,,
896.2999999523163,,memorable_rating,1024680,img_manmade_19.png,,52,,4,,,,,,,
910,,recognition_phase,1025591,,,50,,,,,,new,1,0.9210526315789473,
1125.8999999761581,,confidence,1026718,confidence,,52,,,,,,,,,4
null,,second_learn_phase,1029719,realUS/US_img_natural_15.png,,null,NAT,,,,NEW,,,,
2642.099999964237,,realistic_rating,1032362,realUS/US_img_natural_15.png,,52,,4,,,,,,,
9917,,pt2_unique_rating,1042281,realUS/US_img_natural_15.png,,51,,3,,,,,,,
1115.800000011921,,memorable_rating,1043399,realUS/US_img_natural_15.png,,51,,3,,,,,,,
1096.699999988079,,recognition_phase,1044497,,,50,,,,,,new,1,0.9230769230769231,
950.5,,confidence,1045449,confidence,,52,,,,,,,,,4
null,,second_learn_phase,1048451,img_manmade_27.png,,null,MM,,,,NEW,,,,
7475.899999976158,,realistic_rating,1055928,img_manmade_27.png,,51,,3,,,,,,,
1145.8999999761581,,pt2_unique_rating,1057075,img_manmade_27.png,,52,,4,,,,,,,
885.3000000119209,,memorable_rating,1057962,img_manmade_27.png,,52,,4,,,,,,,
1021.1000000238419,,probe_rating,1058985,img_manmade_27.png,,49,,,1,1,,,,,
1509.6000000238419,,recognition_phase,1060498,,,50,,,,,,new,1,0.925,
977.1999999880791,,confidence,1061478,confidence,,52,,,,,,,,,4
null,,second_learn_phase,1064480,img_natural_17.png,,null,NAT,,,,OLD,,,,
2503.2999999523163,,realistic_rating,1066985,img_natural_17.png,,49,,1,,,,,,,
1394.300000011921,,probe_rating,1068381,img_natural_17.png,,51,,,3,1,,,,,
2728.399999976158,,pt2_unique_rating,1071112,img_natural_17.png,,52,,4,,,,,,,
488.69999998807907,,memorable_rating,1071601,img_natural_17.png,,52,,4,,,,,,,
1700.9000000357628,,recognition_phase,1073303,,,49,,,,,,old,1,0.926829268292683,
null,,confidence,1083304,confidence,,null,,,,,,,,,-48
null,,second_learn_phase,1086307,realUS/US_img_natural_02.png,,null,NAT,,,,OLD,,,,
6735.800000011921,,realistic_rating,1093044,realUS/US_img_natural_02.png,,53,,5,,,,,,,
5913,,pt2_unique_rating,1098959,realUS/US_img_natural_02.png,,50,,2,,,,,,,
2109.400000035763,,memorable_rating,1101070,realUS/US_img_natural_02.png,,51,,3,,,,,,,
1271.5999999642372,,recognition_phase,1102343,,,49,,,,,,old,1,0.9285714285714286,
2345.699999988079,,confidence,1104690,confidence,,52,,,,,,,,,4
null,,second_learn_phase,1107693,img_manmade_09.png,,null,MM,,,,NEW,,,,
2883.599999964237,,realistic_rating,1110578,img_manmade_09.png,,50,,2,,,,,,,
1196.7000000476837,,pt2_unique_rating,1111776,img_manmade_09.png,,52,,4,,,,,,,
1434.5,,memorable_rating,1113212,img_manmade_09.png,,51,,3,,,,,,,
2415.600000023842,,recognition_phase,1115629,,,49,,,,,,old,0,0.9069767441860465,
1343.3999999761581,,confidence,1116974,confidence,,50,,,,,,,,,2
null,,second_learn_phase,1119977,realUS/US_img_manmade_15.png,,null,MM,,,,NEW,,,,
5142.899999976158,,realistic_rating,1125122,realUS/US_img_manmade_15.png,,53,,5,,,,,,,
2117.600000023842,,pt2_unique_rating,1127241,realUS/US_img_manmade_15.png,,51,,3,,,,,,,
1006,,memorable_rating,1128249,realUS/US_img_manmade_15.png,,51,,3,,,,,,,
997.8999999761581,,recognition_phase,1129249,,,50,,,,,,new,1,0.9090909090909091,
2013.5,,confidence,1131263,confidence,,52,,,,,,,,,4
null,,second_learn_phase,1134266,img_natural_07.png,,null,NAT,,,,OLD,,,,
5381.799999952316,,realistic_rating,1139648,img_natural_07.png,,49,,1,,,,,,,
15179.099999964237,,pt2_unique_rating,1154828,img_natural_07.png,,53,,5,,,,,,,
1921.5,,memorable_rating,1156752,img_natural_07.png,,53,,5,,,,,,,
1087.6000000238419,,recognition_phase,1157844,,,49,,,,,,old,1,0.9111111111111111,
1540.0999999642372,,confidence,1159385,confidence,,52,,,,,,,,,4
null,,second_learn_phase,1162390,realUS/US_img_manmade_06.png,,null,MM,,,,OLD,,,,
6473.600000023842,,realistic_rating,1168867,realUS/US_img_manmade_06.png,,52,,4,,,,,,,
1951.199999988079,,pt2_unique_rating,1170821,realUS/US_img_manmade_06.png,,51,,3,,,,,,,
6854.600000023842,,memorable_rating,1177679,realUS/US_img_manmade_06.png,,51,,3,,,,,,,
1199.2000000476837,,recognition_phase,1178879,,,49,,,,,,old,1,0.9130434782608695,
1155.6000000238419,,confidence,1180035,confidence,,52,,,,,,,,,4
null,,second_learn_phase,1183038,realUS/US_img_natural_12.png,,null,NAT,,,,NEW,,,,
4000.399999976158,,realistic_rating,1187040,realUS/US_img_natural_12.png,,52,,4,,,,,,,
1359.199999988079,,pt2_unique_rating,1188400,realUS/US_img_natural_12.png,,52,,4,,,,,,,
4685.199999988079,,memorable_rating,1193087,realUS/US_img_natural_12.png,,52,,4,,,,,,,
1578.6000000238419,,recognition_phase,1194667,,,50,,,,,,new,1,0.9148936170212766,
1310.699999988079,,confidence,1195979,confidence,,51,,,,,,,,,3
null,,second_learn_phase,1198989,img_manmade_16.png,,null,MM,,,,NEW,,,,
6445.600000023842,,realistic_rating,1205436,img_manmade_16.png,,50,,2,,,,,,,
6007.800000011921,,pt2_unique_rating,1211445,img_manmade_16.png,,51,,3,,,,,,,
1006,,memorable_rating,1212454,img_manmade_16.png,,51,,3,,,,,,,
1037.699999988079,,recognition_phase,1213493,,,50,,,,,,new,1,0.9166666666666666,
1720.199999988079,,confidence,1215214,confidence,,52,,,,,,,,,4
null,,second_learn_phase,1218217,realUS/US_img_manmade_08.png,,null,MM,,,,NEW,,,,
11661.800000011921,,realistic_rating,1229882,realUS/US_img_manmade_08.png,,53,,5,,,,,,,
1818.6000000238419,,pt2_unique_rating,1231702,realUS/US_img_manmade_08.png,,50,,2,,,,,,,
1226.5999999642372,,memorable_rating,1232930,realUS/US_img_manmade_08.png,,50,,2,,,,,,,
1021.3999999761581,,recognition_phase,1233953,,,50,,,,,,new,1,0.9183673469387755,
2310.599999964237,,confidence,1236264,confidence,,52,,,,,,,,,4
null,,second_learn_phase,1239269,img_natural_11.png,,null,NAT,,,,OLD,,,,
10013.199999988079,,realistic_rating,1249283,img_natural_11.png,,50,,2,,,,,,,
10708.300000011921,,pt2_unique_rating,1259993,img_natural_11.png,,52,,4,,,,,,,
1498.3999999761581,,memorable_rating,1261494,img_natural_11.png,,51,,3,,,,,,,
2600.2999999523163,,recognition_phase,1264095,,,49,,,,,,old,1,0.92,
1322.199999988079,,confidence,1265419,confidence,,49,,,,,,,,,1
null,,second_learn_phase,1268421,realUS/US_img_natural_05.png,,null,NAT,,,,OLD,,,,
2322.300000011921,,realistic_rating,1270747,realUS/US_img_natural_05.png,,52,,4,,,,,,,
1530.699999988079,,pt2_unique_rating,1272279,realUS/US_img_natural_05.png,,51,,3,,,,,,,
1125.1000000238419,,memorable_rating,1273405,realUS/US_img_natural_05.png,,52,,4,,,,,,,
1036.5999999642372,,recognition_phase,1274443,,,49,,,,,,old,1,0.9215686274509803,
1584.199999988079,,confidence,1276028,confidence,,52,,,,,,,,,4
null,,second_learn_phase,1279029,realUS/US_img_natural_04.png,,null,NAT,,,,NEW,,,,
3161.599999964237,,realistic_rating,1282193,realUS/US_img_natural_04.png,,53,,5,,,,,,,
2077.5,,pt2_unique_rating,1284273,realUS/US_img_natural_04.png,,51,,3,,,,,,,
8626.800000011921,,memorable_rating,1292901,realUS/US_img_natural_04.png,,51,,3,,,,,,,
1980.9000000357628,,recognition_phase,1294883,,,50,,,,,,new,1,0.9230769230769231,
1306.800000011921,,confidence,1296191,confidence,,51,,,,,,,,,3
null,,second_learn_phase,1299198,img_natural_05.png,,null,NAT,,,,OLD,,,,
2365,,realistic_rating,1301565,img_natural_05.png,,51,,3,,,,,,,
1326.3999999761581,,pt2_unique_rating,1302893,img_natural_05.png,,52,,4,,,,,,,
867.8999999761581,,memorable_rating,1303762,img_natural_05.png,,52,,4,,,,,,,
1330,,recognition_phase,1305093,,,49,,,,,,old,1,0.9245283018867925,
1145.5,,confidence,1306240,confidence,,52,,,,,,,,,4
null,,second_learn_phase,1309242,realUS/US_img_manmade_01.png,,null,MM,,,,NEW,,,,
11860.800000011921,,realistic_rating,1321104,realUS/US_img_manmade_01.png,,52,,4,,,,,,,
1901,,pt2_unique_rating,1323007,realUS/US_img_manmade_01.png,,51,,3,,,,,,,
9609.699999988079,,memorable_rating,1332618,realUS/US_img_manmade_01.png,,51,,3,,,,,,,
975.8000000119209,,recognition_phase,1333595,,,50,,,,,,new,1,0.9259259259259259,
1503.300000011921,,confidence,1335099,confidence,,52,,,,,,,,,4
null,,second_learn_phase,1338102,img_manmade_21.png,,null,MM,,,,OLD,,,,
12087.699999988079,,realistic_rating,1350192,img_manmade_21.png,,49,,1,,,,,,,
1224.699999988079,,pt2_unique_rating,1351418,img_manmade_21.png,,52,,4,,,,,,,
470.19999998807907,,memorable_rating,1351890,img_manmade_21.png,,52,,4,,,,,,,
1648.699999988079,,recognition_phase,1353541,,,49,,,,,,old,1,0.9272727272727272,
1614.300000011921,,confidence,1355156,confidence,,52,,,,,,,,,4
null,,second_learn_phase,1358158,img_natural_15.png,,null,NAT,,,,NEW,,,,
3266.899999976158,,realistic_rating,1361427,img_natural_15.png,,51,,3,,,,,,,
1626.699999988079,,probe_rating,1363055,img_natural_15.png,,49,,,1,1,,,,,
5606.199999988079,,pt2_unique_rating,1368663,img_natural_15.png,,52,,4,,,,,,,
901.6999999880791,,memorable_rating,1369566,img_natural_15.png,,52,,4,,,,,,,
1038.8999999761581,,recognition_phase,1370608,,,50,,,,,,new,1,0.9285714285714286,
1027.5,,confidence,1371637,confidence,,52,,,,,,,,,4
null,,second_learn_phase,1374639,realUS/US_img_manmade_11.png,,null,MM,,,,OLD,,,,
2000.800000011921,,realistic_rating,1376641,realUS/US_img_manmade_11.png,,52,,4,,,,,,,
2558.699999988079,,pt2_unique_rating,1379201,realUS/US_img_manmade_11.png,,50,,2,,,,,,,
1005.3000000119209,,memorable_rating,1380209,realUS/US_img_manmade_11.png,,50,,2,,,,,,,
1333.699999988079,,recognition_phase,1381545,,,49,,,,,,old,1,0.9298245614035088,
1003.8999999761581,,confidence,1382550,confidence,,52,,,,,,,,,4
null,,second_learn_phase,1385552,img_natural_25.png,,null,NAT,,,,OLD,,,,
1753.199999988079,,realistic_rating,1387308,img_natural_25.png,,51,,3,,,,,,,
2540.600000023842,,pt2_unique_rating,1389849,img_natural_25.png,,51,,3,,,,,,,
872.8000000119209,,memorable_rating,1390724,img_natural_25.png,,52,,4,,,,,,,
1538,,recognition_phase,1392264,,,49,,,,,,old,1,0.9310344827586207,
1098.699999988079,,confidence,1393364,confidence,,52,,,,,,,,,4
null,,second_learn_phase,1396367,img_manmade_13.png,,null,MM,,,,OLD,,,,
2346.2000000476837,,realistic_rating,1398715,img_manmade_13.png,,51,,3,,,,,,,
1304.800000011921,,pt2_unique_rating,1400022,img_manmade_13.png,,51,,3,,,,,,,
1641,,memorable_rating,1401664,img_manmade_13.png,,52,,4,,,,,,,
2642.5,,recognition_phase,1404308,,,49,,,,,,old,1,0.9322033898305084,
1210.6000000238419,,confidence,1405520,confidence,,52,,,,,,,,,4
null,,second_learn_phase,1408533,realUS/US_img_manmade_03.png,,null,MM,,,,OLD,,,,
1056.9000000357628,,realistic_rating,1409592,realUS/US_img_manmade_03.png,,53,,5,,,,,,,
2359.699999988079,,pt2_unique_rating,1411953,realUS/US_img_manmade_03.png,,50,,2,,,,,,,
946.5,,memorable_rating,1412901,realUS/US_img_manmade_03.png,,51,,3,,,,,,,
1277.8999999761581,,recognition_phase,1414180,,,49,,,,,,old,1,0.9333333333333333,
1030.8999999761581,,confidence,1415212,confidence,,52,,,,,,,,,4
