rt,responses,trial_type,time_elapsed,stimulus,button_pressed,key_press,rating,probe,probe_accuracy,response,correct,accuracy,confidence,problems,smooth,distraction,strategies,familiar,memorable,unique,realistic,similar,comments,detectfocus,warning
7786.399999856949,{worker_id:rohin29},id_enter,7788,,,,,,,,,,,,,,,,,,,,,,
1044.2999999523163,,fullscreen,8837,fullscreen,0,,,,,,,,,,,,,,,,,,,,
1166.5,,intro_0,10005,instruct,,32,,,,,,,,,,,,,,,,,,,
462.7999999523163,,intro_1,10469,instruct,,32,,,,,,,,,,,,,,,,,,,
null,,instruct_dir_4,11972,instruct,,null,,,,,,,,,,,,,,,,,,,
null,,thebreak,12474,break,,null,,,,,,,,,,,,,,,,,,,
1037.1000001430511,,familiar_rating,13513,Fictional_Cities_List/img_natural_13.png,,49,1,,,,,,,,,,,,,,,,,,
null,,confidence_buffer,13616,
      <div id=trial-counter style=position: absolute; top: 20px; left: 20px; font-size: 24px; font-weight: bold;>
        Image 1 / 30
      </div>
      <div id=familiar style=max-width: 1200px; margin: 100px auto; text-align: center;>
        <img style='width: 350px;height: 350px;margin-bottom:100px' src='../static/images/Fictional_Cities_List/img_natural_13.png' height='250'></style>
        <p style=font-size: 32px; line-height: 1.6; font-weight: bold; margin-bottom: 20px;>
         How familiar is this image on a scale of 1 to 5 (e.g., have you seen or heard of this place before)? 
        </p>
        <p style=font-size: 20px; line-height: 1.6; margin-bottom: 30px;>
          <br>
          <div class='test' style=display: flex; justify-content: space-around; align-items: center; text-align: center; width: 100%; font-size: 28px; margin-top: 20px;>
            <p>(1) Not at all familiar</p>
            <p>(2) Slightly familiar</p>
            <p>(3) Moderately familiar</p>
            <p>(4) Very familiar</p>
            <p>(5) Extremely familiar</p>
          </div><br><br>
        <strong>Press the number key that corresponds with your rating.</strong>
        </p>
      </div>
    ,,null,,,,,,,,,,,,,,,,,,,
463,,unique_rating,14081,Fictional_Cities_List/img_natural_13.png,,50,2,,,,,,,,,,,,,,,,,,
null,,confidence_buffer,14187,
      <div id=trial-counter style=position: absolute; top: 20px; left: 20px; font-size: 24px; font-weight: bold;>
        Image 1 / 30
      </div>
      <div id=unique style=max-width: 1200px; margin: 100px auto; text-align: center>  
        <img style='width: 350px;height: 350px;margin-bottom:100px' src='../static/images/Fictional_Cities_List/img_natural_13.png' height='250'></style>
        <p style=font-size: 32px; line-height: 1.6; font-weight: bold; margin-bottom: 20px;>
          How unique is the image on a scale of 1 to 5?
        </p>
        <p style=font-size: 20px; line-height: 1.6; margin-bottom: 30px;>
          <br>
          <div class='test' style=display: flex; justify-content: space-around; align-items: center; text-align: center; width: 100%; font-size: 28px; margin-top: 20px;>
            <p>(1) Not at all unique</p>
            <p>(2) Slightly unique</p>
            <p>(3) Moderately unique</p>
            <p>(4) Very unique</p>
            <p>(5) Extremely unique</p>
          </div><br><br>
        <strong>Press the number key that corresponds with your rating.</strong>
        </p>
      </div>
    ,,null,,,,,,,,,,,,,,,,,,,
406.69999980926514,,memorable_rating,14594,Fictional_Cities_List/img_natural_13.png,,51,3,,,,,,,,,,,,,,,,,,
null,,confidence_buffer,14697,
      <div id=trial-counter style=position: absolute; top: 20px; left: 20px; font-size: 24px; font-weight: bold;>
        Image 1 / 30
      </div>
      <div id=memorable style=max-width: 1200px; margin: 100px auto; text-align: center;>
        <img style='width: 350px;height: 350px;margin-bottom:100px' src='../static/images/Fictional_Cities_List/img_natural_13.png' height='250'></style>
        <p style=font-size: 32px; line-height: 1.6; font-weight: bold; margin-bottom: 20px;>
          How memorable is the image on a scale of 1 to 5?
        </p>
        <p style=font-size: 20px; line-height: 1.6; margin-bottom: 30px;>
          <br>
          <div class='test' style=display: flex; justify-content: space-around; align-items: center; text-align: center; width: 100%; font-size: 28px; margin-top: 20px;>
            <p>(1) Not at all memorable</p>
            <p>(2) Slightly memorable</p>
            <p>(3) Moderately memorable</p>
            <p>(4) Very memorable</p>
            <p>(5) Extremely memorable</p>
          </div><br><br>
        <strong>Press the number key that corresponds with your rating.</strong>
        </p>
      </div>
    ,,null,,,,,,,,,,,,,,,,,,,
null,,thebreak,15199,break,,null,,,,,,,,,,,,,,,,,,,
524.0999999046326,,familiar_rating,15724,Fictional_Cities_List/img_natural_03.png,,51,3,,,,,,,,,,,,,,,,,,
null,,confidence_buffer,15827,
      <div id=trial-counter style=position: absolute; top: 20px; left: 20px; font-size: 24px; font-weight: bold;>
        Image 2 / 30
      </div>
      <div id=familiar style=max-width: 1200px; margin: 100px auto; text-align: center;>
        <img style='width: 350px;height: 350px;margin-bottom:100px' src='../static/images/Fictional_Cities_List/img_natural_03.png' height='250'></style>
        <p style=font-size: 32px; line-height: 1.6; font-weight: bold; margin-bottom: 20px;>
         How familiar is this image on a scale of 1 to 5 (e.g., have you seen or heard of this place before)? 
        </p>
        <p style=font-size: 20px; line-height: 1.6; margin-bottom: 30px;>
          <br>
          <div class='test' style=display: flex; justify-content: space-around; align-items: center; text-align: center; width: 100%; font-size: 28px; margin-top: 20px;>
            <p>(1) Not at all familiar</p>
            <p>(2) Slightly familiar</p>
            <p>(3) Moderately familiar</p>
            <p>(4) Very familiar</p>
            <p>(5) Extremely familiar</p>
          </div><br><br>
        <strong>Press the number key that corresponds with your rating.</strong>
        </p>
      </div>
    ,,null,,,,,,,,,,,,,,,,,,,
762,,unique_rating,16590,Fictional_Cities_List/img_natural_03.png,,50,2,,,,,,,,,,,,,,,,,,
null,,confidence_buffer,16693,
      <div id=trial-counter style=position: absolute; top: 20px; left: 20px; font-size: 24px; font-weight: bold;>
        Image 2 / 30
      </div>
      <div id=unique style=max-width: 1200px; margin: 100px auto; text-align: center>  
        <img style='width: 350px;height: 350px;margin-bottom:100px' src='../static/images/Fictional_Cities_List/img_natural_03.png' height='250'></style>
        <p style=font-size: 32px; line-height: 1.6; font-weight: bold; margin-bottom: 20px;>
          How unique is the image on a scale of 1 to 5?
        </p>
        <p style=font-size: 20px; line-height: 1.6; margin-bottom: 30px;>
          <br>
          <div class='test' style=display: flex; justify-content: space-around; align-items: center; text-align: center; width: 100%; font-size: 28px; margin-top: 20px;>
            <p>(1) Not at all unique</p>
            <p>(2) Slightly unique</p>
            <p>(3) Moderately unique</p>
            <p>(4) Very unique</p>
            <p>(5) Extremely unique</p>
          </div><br><br>
        <strong>Press the number key that corresponds with your rating.</strong>
        </p>
      </div>
    ,,null,,,,,,,,,,,,,,,,,,,
520.5,,memorable_rating,17215,Fictional_Cities_List/img_natural_03.png,,52,4,,,,,,,,,,,,,,,,,,
null,,confidence_buffer,17317,
      <div id=trial-counter style=position: absolute; top: 20px; left: 20px; font-size: 24px; font-weight: bold;>
        Image 2 / 30
      </div>
      <div id=memorable style=max-width: 1200px; margin: 100px auto; text-align: center;>
        <img style='width: 350px;height: 350px;margin-bottom:100px' src='../static/images/Fictional_Cities_List/img_natural_03.png' height='250'></style>
        <p style=font-size: 32px; line-height: 1.6; font-weight: bold; margin-bottom: 20px;>
          How memorable is the image on a scale of 1 to 5?
        </p>
        <p style=font-size: 20px; line-height: 1.6; margin-bottom: 30px;>
          <br>
          <div class='test' style=display: flex; justify-content: space-around; align-items: center; text-align: center; width: 100%; font-size: 28px; margin-top: 20px;>
            <p>(1) Not at all memorable</p>
            <p>(2) Slightly memorable</p>
            <p>(3) Moderately memorable</p>
            <p>(4) Very memorable</p>
            <p>(5) Extremely memorable</p>
          </div><br><br>
        <strong>Press the number key that corresponds with your rating.</strong>
        </p>
      </div>
    ,,null,,,,,,,,,,,,,,,,,,,
null,,thebreak,17819,break,,null,,,,,,,,,,,,,,,,,,,
683.2999999523163,,familiar_rating,18504,US_Cities_List/nat_carmel.png,,50,2,,,,,,,,,,,,,,,,,,
null,,confidence_buffer,18606,
      <div id=trial-counter style=position: absolute; top: 20px; left: 20px; font-size: 24px; font-weight: bold;>
        Image 3 / 30
      </div>
      <div id=familiar style=max-width: 1200px; margin: 100px auto; text-align: center;>
        <img style='width: 350px;height: 350px;margin-bottom:100px' src='../static/images/US_Cities_List/nat_carmel.png' height='250'></style>
        <p style=font-size: 32px; line-height: 1.6; font-weight: bold; margin-bottom: 20px;>
         How familiar is this image on a scale of 1 to 5 (e.g., have you seen or heard of this place before)? 
        </p>
        <p style=font-size: 20px; line-height: 1.6; margin-bottom: 30px;>
          <br>
          <div class='test' style=display: flex; justify-content: space-around; align-items: center; text-align: center; width: 100%; font-size: 28px; margin-top: 20px;>
            <p>(1) Not at all familiar</p>
            <p>(2) Slightly familiar</p>
            <p>(3) Moderately familiar</p>
            <p>(4) Very familiar</p>
            <p>(5) Extremely familiar</p>
          </div><br><br>
        <strong>Press the number key that corresponds with your rating.</strong>
        </p>
      </div>
    ,,null,,,,,,,,,,,,,,,,,,,
602.5,,unique_rating,19209,US_Cities_List/nat_carmel.png,,51,3,,,,,,,,,,,,,,,,,,
null,,confidence_buffer,19312,
      <div id=trial-counter style=position: absolute; top: 20px; left: 20px; font-size: 24px; font-weight: bold;>
        Image 3 / 30
      </div>
      <div id=unique style=max-width: 1200px; margin: 100px auto; text-align: center>  
        <img style='width: 350px;height: 350px;margin-bottom:100px' src='../static/images/US_Cities_List/nat_carmel.png' height='250'></style>
        <p style=font-size: 32px; line-height: 1.6; font-weight: bold; margin-bottom: 20px;>
          How unique is the image on a scale of 1 to 5?
        </p>
        <p style=font-size: 20px; line-height: 1.6; margin-bottom: 30px;>
          <br>
          <div class='test' style=display: flex; justify-content: space-around; align-items: center; text-align: center; width: 100%; font-size: 28px; margin-top: 20px;>
            <p>(1) Not at all unique</p>
            <p>(2) Slightly unique</p>
            <p>(3) Moderately unique</p>
            <p>(4) Very unique</p>
            <p>(5) Extremely unique</p>
          </div><br><br>
        <strong>Press the number key that corresponds with your rating.</strong>
        </p>
      </div>
    ,,null,,,,,,,,,,,,,,,,,,,
475.5,,memorable_rating,19789,US_Cities_List/nat_carmel.png,,50,2,,,,,,,,,,,,,,,,,,
null,,confidence_buffer,19891,
      <div id=trial-counter style=position: absolute; top: 20px; left: 20px; font-size: 24px; font-weight: bold;>
        Image 3 / 30
      </div>
      <div id=memorable style=max-width: 1200px; margin: 100px auto; text-align: center;>
        <img style='width: 350px;height: 350px;margin-bottom:100px' src='../static/images/US_Cities_List/nat_carmel.png' height='250'></style>
        <p style=font-size: 32px; line-height: 1.6; font-weight: bold; margin-bottom: 20px;>
          How memorable is the image on a scale of 1 to 5?
        </p>
        <p style=font-size: 20px; line-height: 1.6; margin-bottom: 30px;>
          <br>
          <div class='test' style=display: flex; justify-content: space-around; align-items: center; text-align: center; width: 100%; font-size: 28px; margin-top: 20px;>
            <p>(1) Not at all memorable</p>
            <p>(2) Slightly memorable</p>
            <p>(3) Moderately memorable</p>
            <p>(4) Very memorable</p>
            <p>(5) Extremely memorable</p>
          </div><br><br>
        <strong>Press the number key that corresponds with your rating.</strong>
        </p>
      </div>
    ,,null,,,,,,,,,,,,,,,,,,,
null,,thebreak,20393,break,,null,,,,,,,,,,,,,,,,,,,
663.3999998569489,,familiar_rating,21058,Fictional_Cities_List/img_manmade_09.png,,52,4,,,,,,,,,,,,,,,,,,
null,,confidence_buffer,21161,
      <div id=trial-counter style=position: absolute; top: 20px; left: 20px; font-size: 24px; font-weight: bold;>
        Image 4 / 30
      </div>
      <div id=familiar style=max-width: 1200px; margin: 100px auto; text-align: center;>
        <img style='width: 350px;height: 350px;margin-bottom:100px' src='../static/images/Fictional_Cities_List/img_manmade_09.png' height='250'></style>
        <p style=font-size: 32px; line-height: 1.6; font-weight: bold; margin-bottom: 20px;>
         How familiar is this image on a scale of 1 to 5 (e.g., have you seen or heard of this place before)? 
        </p>
        <p style=font-size: 20px; line-height: 1.6; margin-bottom: 30px;>
          <br>
          <div class='test' style=display: flex; justify-content: space-around; align-items: center; text-align: center; width: 100%; font-size: 28px; margin-top: 20px;>
            <p>(1) Not at all familiar</p>
            <p>(2) Slightly familiar</p>
            <p>(3) Moderately familiar</p>
            <p>(4) Very familiar</p>
            <p>(5) Extremely familiar</p>
          </div><br><br>
        <strong>Press the number key that corresponds with your rating.</strong>
        </p>
      </div>
    ,,null,,,,,,,,,,,,,,,,,,,
752.5,,unique_rating,21915,Fictional_Cities_List/img_manmade_09.png,,51,3,,,,,,,,,,,,,,,,,,
null,,confidence_buffer,22018,
      <div id=trial-counter style=position: absolute; top: 20px; left: 20px; font-size: 24px; font-weight: bold;>
        Image 4 / 30
      </div>
      <div id=unique style=max-width: 1200px; margin: 100px auto; text-align: center>  
        <img style='width: 350px;height: 350px;margin-bottom:100px' src='../static/images/Fictional_Cities_List/img_manmade_09.png' height='250'></style>
        <p style=font-size: 32px; line-height: 1.6; font-weight: bold; margin-bottom: 20px;>
          How unique is the image on a scale of 1 to 5?
        </p>
        <p style=font-size: 20px; line-height: 1.6; margin-bottom: 30px;>
          <br>
          <div class='test' style=display: flex; justify-content: space-around; align-items: center; text-align: center; width: 100%; font-size: 28px; margin-top: 20px;>
            <p>(1) Not at all unique</p>
            <p>(2) Slightly unique</p>
            <p>(3) Moderately unique</p>
            <p>(4) Very unique</p>
            <p>(5) Extremely unique</p>
          </div><br><br>
        <strong>Press the number key that corresponds with your rating.</strong>
        </p>
      </div>
    ,,null,,,,,,,,,,,,,,,,,,,
556.7999999523163,,memorable_rating,22576,Fictional_Cities_List/img_manmade_09.png,,50,2,,,,,,,,,,,,,,,,,,
null,,confidence_buffer,22678,
      <div id=trial-counter style=position: absolute; top: 20px; left: 20px; font-size: 24px; font-weight: bold;>
        Image 4 / 30
      </div>
      <div id=memorable style=max-width: 1200px; margin: 100px auto; text-align: center;>
        <img style='width: 350px;height: 350px;margin-bottom:100px' src='../static/images/Fictional_Cities_List/img_manmade_09.png' height='250'></style>
        <p style=font-size: 32px; line-height: 1.6; font-weight: bold; margin-bottom: 20px;>
          How memorable is the image on a scale of 1 to 5?
        </p>
        <p style=font-size: 20px; line-height: 1.6; margin-bottom: 30px;>
          <br>
          <div class='test' style=display: flex; justify-content: space-around; align-items: center; text-align: center; width: 100%; font-size: 28px; margin-top: 20px;>
            <p>(1) Not at all memorable</p>
            <p>(2) Slightly memorable</p>
            <p>(3) Moderately memorable</p>
            <p>(4) Very memorable</p>
            <p>(5) Extremely memorable</p>
          </div><br><br>
        <strong>Press the number key that corresponds with your rating.</strong>
        </p>
      </div>
    ,,null,,,,,,,,,,,,,,,,,,,
null,,thebreak,23180,break,,null,,,,,,,,,,,,,,,,,,,
759.1000001430511,,familiar_rating,23940,Fictional_Cities_List/img_natural_11.png,,51,3,,,,,,,,,,,,,,,,,,
null,,confidence_buffer,24042,
      <div id=trial-counter style=position: absolute; top: 20px; left: 20px; font-size: 24px; font-weight: bold;>
        Image 5 / 30
      </div>
      <div id=familiar style=max-width: 1200px; margin: 100px auto; text-align: center;>
        <img style='width: 350px;height: 350px;margin-bottom:100px' src='../static/images/Fictional_Cities_List/img_natural_11.png' height='250'></style>
        <p style=font-size: 32px; line-height: 1.6; font-weight: bold; margin-bottom: 20px;>
         How familiar is this image on a scale of 1 to 5 (e.g., have you seen or heard of this place before)? 
        </p>
        <p style=font-size: 20px; line-height: 1.6; margin-bottom: 30px;>
          <br>
          <div class='test' style=display: flex; justify-content: space-around; align-items: center; text-align: center; width: 100%; font-size: 28px; margin-top: 20px;>
            <p>(1) Not at all familiar</p>
            <p>(2) Slightly familiar</p>
            <p>(3) Moderately familiar</p>
            <p>(4) Very familiar</p>
            <p>(5) Extremely familiar</p>
          </div><br><br>
        <strong>Press the number key that corresponds with your rating.</strong>
        </p>
      </div>
    ,,null,,,,,,,,,,,,,,,,,,,
576,,unique_rating,24619,Fictional_Cities_List/img_natural_11.png,,50,2,,,,,,,,,,,,,,,,,,
null,,confidence_buffer,24722,
      <div id=trial-counter style=position: absolute; top: 20px; left: 20px; font-size: 24px; font-weight: bold;>
        Image 5 / 30
      </div>
      <div id=unique style=max-width: 1200px; margin: 100px auto; text-align: center>  
        <img style='width: 350px;height: 350px;margin-bottom:100px' src='../static/images/Fictional_Cities_List/img_natural_11.png' height='250'></style>
        <p style=font-size: 32px; line-height: 1.6; font-weight: bold; margin-bottom: 20px;>
          How unique is the image on a scale of 1 to 5?
        </p>
        <p style=font-size: 20px; line-height: 1.6; margin-bottom: 30px;>
          <br>
          <div class='test' style=display: flex; justify-content: space-around; align-items: center; text-align: center; width: 100%; font-size: 28px; margin-top: 20px;>
            <p>(1) Not at all unique</p>
            <p>(2) Slightly unique</p>
            <p>(3) Moderately unique</p>
            <p>(4) Very unique</p>
            <p>(5) Extremely unique</p>
          </div><br><br>
        <strong>Press the number key that corresponds with your rating.</strong>
        </p>
      </div>
    ,,null,,,,,,,,,,,,,,,,,,,
481.2000000476837,,memorable_rating,25205,Fictional_Cities_List/img_natural_11.png,,51,3,,,,,,,,,,,,,,,,,,
null,,confidence_buffer,25308,
      <div id=trial-counter style=position: absolute; top: 20px; left: 20px; font-size: 24px; font-weight: bold;>
        Image 5 / 30
      </div>
      <div id=memorable style=max-width: 1200px; margin: 100px auto; text-align: center;>
        <img style='width: 350px;height: 350px;margin-bottom:100px' src='../static/images/Fictional_Cities_List/img_natural_11.png' height='250'></style>
        <p style=font-size: 32px; line-height: 1.6; font-weight: bold; margin-bottom: 20px;>
          How memorable is the image on a scale of 1 to 5?
        </p>
        <p style=font-size: 20px; line-height: 1.6; margin-bottom: 30px;>
          <br>
          <div class='test' style=display: flex; justify-content: space-around; align-items: center; text-align: center; width: 100%; font-size: 28px; margin-top: 20px;>
            <p>(1) Not at all memorable</p>
            <p>(2) Slightly memorable</p>
            <p>(3) Moderately memorable</p>
            <p>(4) Very memorable</p>
            <p>(5) Extremely memorable</p>
          </div><br><br>
        <strong>Press the number key that corresponds with your rating.</strong>
        </p>
      </div>
    ,,null,,,,,,,,,,,,,,,,,,,
null,,thebreak,25811,break,,null,,,,,,,,,,,,,,,,,,,
933.4000000953674,,familiar_rating,26746,US_Cities_List/mm_athens.png,,49,1,,,,,,,,,,,,,,,,,,
null,,confidence_buffer,26849,
      <div id=trial-counter style=position: absolute; top: 20px; left: 20px; font-size: 24px; font-weight: bold;>
        Image 6 / 30
      </div>
      <div id=familiar style=max-width: 1200px; margin: 100px auto; text-align: center;>
        <img style='width: 350px;height: 350px;margin-bottom:100px' src='../static/images/US_Cities_List/mm_athens.png' height='250'></style>
        <p style=font-size: 32px; line-height: 1.6; font-weight: bold; margin-bottom: 20px;>
         How familiar is this image on a scale of 1 to 5 (e.g., have you seen or heard of this place before)? 
        </p>
        <p style=font-size: 20px; line-height: 1.6; margin-bottom: 30px;>
          <br>
          <div class='test' style=display: flex; justify-content: space-around; align-items: center; text-align: center; width: 100%; font-size: 28px; margin-top: 20px;>
            <p>(1) Not at all familiar</p>
            <p>(2) Slightly familiar</p>
            <p>(3) Moderately familiar</p>
            <p>(4) Very familiar</p>
            <p>(5) Extremely familiar</p>
          </div><br><br>
        <strong>Press the number key that corresponds with your rating.</strong>
        </p>
      </div>
    ,,null,,,,,,,,,,,,,,,,,,,
551.7000000476837,,unique_rating,27402,US_Cities_List/mm_athens.png,,51,3,,,,,,,,,,,,,,,,,,
null,,confidence_buffer,27504,
      <div id=trial-counter style=position: absolute; top: 20px; left: 20px; font-size: 24px; font-weight: bold;>
        Image 6 / 30
      </div>
      <div id=unique style=max-width: 1200px; margin: 100px auto; text-align: center>  
        <img style='width: 350px;height: 350px;margin-bottom:100px' src='../static/images/US_Cities_List/mm_athens.png' height='250'></style>
        <p style=font-size: 32px; line-height: 1.6; font-weight: bold; margin-bottom: 20px;>
          How unique is the image on a scale of 1 to 5?
        </p>
        <p style=font-size: 20px; line-height: 1.6; margin-bottom: 30px;>
          <br>
          <div class='test' style=display: flex; justify-content: space-around; align-items: center; text-align: center; width: 100%; font-size: 28px; margin-top: 20px;>
            <p>(1) Not at all unique</p>
            <p>(2) Slightly unique</p>
            <p>(3) Moderately unique</p>
            <p>(4) Very unique</p>
            <p>(5) Extremely unique</p>
          </div><br><br>
        <strong>Press the number key that corresponds with your rating.</strong>
        </p>
      </div>
    ,,null,,,,,,,,,,,,,,,,,,,
498,,memorable_rating,28003,US_Cities_List/mm_athens.png,,50,2,,,,,,,,,,,,,,,,,,
null,,confidence_buffer,28106,
      <div id=trial-counter style=position: absolute; top: 20px; left: 20px; font-size: 24px; font-weight: bold;>
        Image 6 / 30
      </div>
      <div id=memorable style=max-width: 1200px; margin: 100px auto; text-align: center;>
        <img style='width: 350px;height: 350px;margin-bottom:100px' src='../static/images/US_Cities_List/mm_athens.png' height='250'></style>
        <p style=font-size: 32px; line-height: 1.6; font-weight: bold; margin-bottom: 20px;>
          How memorable is the image on a scale of 1 to 5?
        </p>
        <p style=font-size: 20px; line-height: 1.6; margin-bottom: 30px;>
          <br>
          <div class='test' style=display: flex; justify-content: space-around; align-items: center; text-align: center; width: 100%; font-size: 28px; margin-top: 20px;>
            <p>(1) Not at all memorable</p>
            <p>(2) Slightly memorable</p>
            <p>(3) Moderately memorable</p>
            <p>(4) Very memorable</p>
            <p>(5) Extremely memorable</p>
          </div><br><br>
        <strong>Press the number key that corresponds with your rating.</strong>
        </p>
      </div>
    ,,null,,,,,,,,,,,,,,,,,,,
null,,thebreak,28608,break,,null,,,,,,,,,,,,,,,,,,,
687,,familiar_rating,29297,Fictional_Cities_List/img_manmade_03.png,,52,4,,,,,,,,,,,,,,,,,,
null,,confidence_buffer,29399,
      <div id=trial-counter style=position: absolute; top: 20px; left: 20px; font-size: 24px; font-weight: bold;>
        Image 7 / 30
      </div>
      <div id=familiar style=max-width: 1200px; margin: 100px auto; text-align: center;>
        <img style='width: 350px;height: 350px;margin-bottom:100px' src='../static/images/Fictional_Cities_List/img_manmade_03.png' height='250'></style>
        <p style=font-size: 32px; line-height: 1.6; font-weight: bold; margin-bottom: 20px;>
         How familiar is this image on a scale of 1 to 5 (e.g., have you seen or heard of this place before)? 
        </p>
        <p style=font-size: 20px; line-height: 1.6; margin-bottom: 30px;>
          <br>
          <div class='test' style=display: flex; justify-content: space-around; align-items: center; text-align: center; width: 100%; font-size: 28px; margin-top: 20px;>
            <p>(1) Not at all familiar</p>
            <p>(2) Slightly familiar</p>
            <p>(3) Moderately familiar</p>
            <p>(4) Very familiar</p>
            <p>(5) Extremely familiar</p>
          </div><br><br>
        <strong>Press the number key that corresponds with your rating.</strong>
        </p>
      </div>
    ,,null,,,,,,,,,,,,,,,,,,,
2962.0999999046326,,unique_rating,32362,Fictional_Cities_List/img_manmade_03.png,,51,3,,,,,,,,,,,,,,,,,,
null,,confidence_buffer,32464,
      <div id=trial-counter style=position: absolute; top: 20px; left: 20px; font-size: 24px; font-weight: bold;>
        Image 7 / 30
      </div>
      <div id=unique style=max-width: 1200px; margin: 100px auto; text-align: center>  
        <img style='width: 350px;height: 350px;margin-bottom:100px' src='../static/images/Fictional_Cities_List/img_manmade_03.png' height='250'></style>
        <p style=font-size: 32px; line-height: 1.6; font-weight: bold; margin-bottom: 20px;>
          How unique is the image on a scale of 1 to 5?
        </p>
        <p style=font-size: 20px; line-height: 1.6; margin-bottom: 30px;>
          <br>
          <div class='test' style=display: flex; justify-content: space-around; align-items: center; text-align: center; width: 100%; font-size: 28px; margin-top: 20px;>
            <p>(1) Not at all unique</p>
            <p>(2) Slightly unique</p>
            <p>(3) Moderately unique</p>
            <p>(4) Very unique</p>
            <p>(5) Extremely unique</p>
          </div><br><br>
        <strong>Press the number key that corresponds with your rating.</strong>
        </p>
      </div>
    ,,null,,,,,,,,,,,,,,,,,,,
432.90000009536743,,memorable_rating,32898,Fictional_Cities_List/img_manmade_03.png,,49,1,,,,,,,,,,,,,,,,,,
null,,confidence_buffer,33000,
      <div id=trial-counter style=position: absolute; top: 20px; left: 20px; font-size: 24px; font-weight: bold;>
        Image 7 / 30
      </div>
      <div id=memorable style=max-width: 1200px; margin: 100px auto; text-align: center;>
        <img style='width: 350px;height: 350px;margin-bottom:100px' src='../static/images/Fictional_Cities_List/img_manmade_03.png' height='250'></style>
        <p style=font-size: 32px; line-height: 1.6; font-weight: bold; margin-bottom: 20px;>
          How memorable is the image on a scale of 1 to 5?
        </p>
        <p style=font-size: 20px; line-height: 1.6; margin-bottom: 30px;>
          <br>
          <div class='test' style=display: flex; justify-content: space-around; align-items: center; text-align: center; width: 100%; font-size: 28px; margin-top: 20px;>
            <p>(1) Not at all memorable</p>
            <p>(2) Slightly memorable</p>
            <p>(3) Moderately memorable</p>
            <p>(4) Very memorable</p>
            <p>(5) Extremely memorable</p>
          </div><br><br>
        <strong>Press the number key that corresponds with your rating.</strong>
        </p>
      </div>
    ,,null,,,,,,,,,,,,,,,,,,,
null,,thebreak,33502,break,,null,,,,,,,,,,,,,,,,,,,
1270.0999999046326,,familiar_rating,34774,US_Cities_List/mm_boulder.png,,51,3,,,,,,,,,,,,,,,,,,
null,,confidence_buffer,34876,
      <div id=trial-counter style=position: absolute; top: 20px; left: 20px; font-size: 24px; font-weight: bold;>
        Image 8 / 30
      </div>
      <div id=familiar style=max-width: 1200px; margin: 100px auto; text-align: center;>
        <img style='width: 350px;height: 350px;margin-bottom:100px' src='../static/images/US_Cities_List/mm_boulder.png' height='250'></style>
        <p style=font-size: 32px; line-height: 1.6; font-weight: bold; margin-bottom: 20px;>
         How familiar is this image on a scale of 1 to 5 (e.g., have you seen or heard of this place before)? 
        </p>
        <p style=font-size: 20px; line-height: 1.6; margin-bottom: 30px;>
          <br>
          <div class='test' style=display: flex; justify-content: space-around; align-items: center; text-align: center; width: 100%; font-size: 28px; margin-top: 20px;>
            <p>(1) Not at all familiar</p>
            <p>(2) Slightly familiar</p>
            <p>(3) Moderately familiar</p>
            <p>(4) Very familiar</p>
            <p>(5) Extremely familiar</p>
          </div><br><br>
        <strong>Press the number key that corresponds with your rating.</strong>
        </p>
      </div>
    ,,null,,,,,,,,,,,,,,,,,,,
1010.7000000476837,,probe_rating,35888,US_Cities_List/mm_boulder.png,,49,,1,1,,,,,,,,,,,,,,,,
null,,confidence_buffer,35992,
        <div id=trial-counter style=position: absolute; top: 20px; left: 20px; font-size: 24px; font-weight: bold;>
          City 8 / 30
        </div>
        <div id=realistic style=max-width: 1200px; margin: 100px auto; text-align: center;>
          <img style='width: 350px;height: 350px;margin-bottom:100px' src='../static/images/US_Cities_List/mm_boulder.png' height='250'></style>
          <p style=font-size: 32px; line-height: 1.6; font-weight: bold; margin-bottom: 20px;>
            Please press the 1 option on your keyboard.
          </p>
          <p style=font-size: 20px; line-height: 1.6; margin-bottom: 30px;>
            <br>
            <div class='test' style=display: flex; justify-content: space-around; align-items: center; text-align: center; width: 100%; font-size: 28px; margin-top: 20px;>
              <p>(1) Option Number 1</p>
              <p>(2) Option Number 2</p>
              <p>(3) Option Number 3</p>
              <p>(4) Option Number 4</p>
              <p>(5) Option Number 5</p>
            </div><br><br>
          <strong>Press the number key that corresponds with what is said above.</strong>
          </p>
        </div>
      ,,null,,,,,,,,,,,,,,,,,,,
599.4000000953674,,unique_rating,36593,US_Cities_List/mm_boulder.png,,51,3,,,,,,,,,,,,,,,,,,
null,,confidence_buffer,36695,
      <div id=trial-counter style=position: absolute; top: 20px; left: 20px; font-size: 24px; font-weight: bold;>
        Image 8 / 30
      </div>
      <div id=unique style=max-width: 1200px; margin: 100px auto; text-align: center>  
        <img style='width: 350px;height: 350px;margin-bottom:100px' src='../static/images/US_Cities_List/mm_boulder.png' height='250'></style>
        <p style=font-size: 32px; line-height: 1.6; font-weight: bold; margin-bottom: 20px;>
          How unique is the image on a scale of 1 to 5?
        </p>
        <p style=font-size: 20px; line-height: 1.6; margin-bottom: 30px;>
          <br>
          <div class='test' style=display: flex; justify-content: space-around; align-items: center; text-align: center; width: 100%; font-size: 28px; margin-top: 20px;>
            <p>(1) Not at all unique</p>
            <p>(2) Slightly unique</p>
            <p>(3) Moderately unique</p>
            <p>(4) Very unique</p>
            <p>(5) Extremely unique</p>
          </div><br><br>
        <strong>Press the number key that corresponds with your rating.</strong>
        </p>
      </div>
    ,,null,,,,,,,,,,,,,,,,,,,
407.09999990463257,,memorable_rating,37103,US_Cities_List/mm_boulder.png,,50,2,,,,,,,,,,,,,,,,,,
null,,confidence_buffer,37206,
      <div id=trial-counter style=position: absolute; top: 20px; left: 20px; font-size: 24px; font-weight: bold;>
        Image 8 / 30
      </div>
      <div id=memorable style=max-width: 1200px; margin: 100px auto; text-align: center;>
        <img style='width: 350px;height: 350px;margin-bottom:100px' src='../static/images/US_Cities_List/mm_boulder.png' height='250'></style>
        <p style=font-size: 32px; line-height: 1.6; font-weight: bold; margin-bottom: 20px;>
          How memorable is the image on a scale of 1 to 5?
        </p>
        <p style=font-size: 20px; line-height: 1.6; margin-bottom: 30px;>
          <br>
          <div class='test' style=display: flex; justify-content: space-around; align-items: center; text-align: center; width: 100%; font-size: 28px; margin-top: 20px;>
            <p>(1) Not at all memorable</p>
            <p>(2) Slightly memorable</p>
            <p>(3) Moderately memorable</p>
            <p>(4) Very memorable</p>
            <p>(5) Extremely memorable</p>
          </div><br><br>
        <strong>Press the number key that corresponds with your rating.</strong>
        </p>
      </div>
    ,,null,,,,,,,,,,,,,,,,,,,
null,,thebreak,37708,break,,null,,,,,,,,,,,,,,,,,,,
764.7000000476837,,familiar_rating,38474,Fictional_Cities_List/img_natural_02.png,,51,3,,,,,,,,,,,,,,,,,,
null,,confidence_buffer,38577,
      <div id=trial-counter style=position: absolute; top: 20px; left: 20px; font-size: 24px; font-weight: bold;>
        Image 9 / 30
      </div>
      <div id=familiar style=max-width: 1200px; margin: 100px auto; text-align: center;>
        <img style='width: 350px;height: 350px;margin-bottom:100px' src='../static/images/Fictional_Cities_List/img_natural_02.png' height='250'></style>
        <p style=font-size: 32px; line-height: 1.6; font-weight: bold; margin-bottom: 20px;>
         How familiar is this image on a scale of 1 to 5 (e.g., have you seen or heard of this place before)? 
        </p>
        <p style=font-size: 20px; line-height: 1.6; margin-bottom: 30px;>
          <br>
          <div class='test' style=display: flex; justify-content: space-around; align-items: center; text-align: center; width: 100%; font-size: 28px; margin-top: 20px;>
            <p>(1) Not at all familiar</p>
            <p>(2) Slightly familiar</p>
            <p>(3) Moderately familiar</p>
            <p>(4) Very familiar</p>
            <p>(5) Extremely familiar</p>
          </div><br><br>
        <strong>Press the number key that corresponds with your rating.</strong>
        </p>
      </div>
    ,,null,,,,,,,,,,,,,,,,,,,
427.60000014305115,,unique_rating,39006,Fictional_Cities_List/img_natural_02.png,,50,2,,,,,,,,,,,,,,,,,,
null,,confidence_buffer,39109,
      <div id=trial-counter style=position: absolute; top: 20px; left: 20px; font-size: 24px; font-weight: bold;>
        Image 9 / 30
      </div>
      <div id=unique style=max-width: 1200px; margin: 100px auto; text-align: center>  
        <img style='width: 350px;height: 350px;margin-bottom:100px' src='../static/images/Fictional_Cities_List/img_natural_02.png' height='250'></style>
        <p style=font-size: 32px; line-height: 1.6; font-weight: bold; margin-bottom: 20px;>
          How unique is the image on a scale of 1 to 5?
        </p>
        <p style=font-size: 20px; line-height: 1.6; margin-bottom: 30px;>
          <br>
          <div class='test' style=display: flex; justify-content: space-around; align-items: center; text-align: center; width: 100%; font-size: 28px; margin-top: 20px;>
            <p>(1) Not at all unique</p>
            <p>(2) Slightly unique</p>
            <p>(3) Moderately unique</p>
            <p>(4) Very unique</p>
            <p>(5) Extremely unique</p>
          </div><br><br>
        <strong>Press the number key that corresponds with your rating.</strong>
        </p>
      </div>
    ,,null,,,,,,,,,,,,,,,,,,,
443.80000019073486,,memorable_rating,39554,Fictional_Cities_List/img_natural_02.png,,49,1,,,,,,,,,,,,,,,,,,
null,,confidence_buffer,39658,
      <div id=trial-counter style=position: absolute; top: 20px; left: 20px; font-size: 24px; font-weight: bold;>
        Image 9 / 30
      </div>
      <div id=memorable style=max-width: 1200px; margin: 100px auto; text-align: center;>
        <img style='width: 350px;height: 350px;margin-bottom:100px' src='../static/images/Fictional_Cities_List/img_natural_02.png' height='250'></style>
        <p style=font-size: 32px; line-height: 1.6; font-weight: bold; margin-bottom: 20px;>
          How memorable is the image on a scale of 1 to 5?
        </p>
        <p style=font-size: 20px; line-height: 1.6; margin-bottom: 30px;>
          <br>
          <div class='test' style=display: flex; justify-content: space-around; align-items: center; text-align: center; width: 100%; font-size: 28px; margin-top: 20px;>
            <p>(1) Not at all memorable</p>
            <p>(2) Slightly memorable</p>
            <p>(3) Moderately memorable</p>
            <p>(4) Very memorable</p>
            <p>(5) Extremely memorable</p>
          </div><br><br>
        <strong>Press the number key that corresponds with your rating.</strong>
        </p>
      </div>
    ,,null,,,,,,,,,,,,,,,,,,,
null,,thebreak,40160,break,,null,,,,,,,,,,,,,,,,,,,
929.3000001907349,,familiar_rating,41091,Fictional_Cities_List/img_manmade_06.png,,50,2,,,,,,,,,,,,,,,,,,
null,,confidence_buffer,41194,
      <div id=trial-counter style=position: absolute; top: 20px; left: 20px; font-size: 24px; font-weight: bold;>
        Image 10 / 30
      </div>
      <div id=familiar style=max-width: 1200px; margin: 100px auto; text-align: center;>
        <img style='width: 350px;height: 350px;margin-bottom:100px' src='../static/images/Fictional_Cities_List/img_manmade_06.png' height='250'></style>
        <p style=font-size: 32px; line-height: 1.6; font-weight: bold; margin-bottom: 20px;>
         How familiar is this image on a scale of 1 to 5 (e.g., have you seen or heard of this place before)? 
        </p>
        <p style=font-size: 20px; line-height: 1.6; margin-bottom: 30px;>
          <br>
          <div class='test' style=display: flex; justify-content: space-around; align-items: center; text-align: center; width: 100%; font-size: 28px; margin-top: 20px;>
            <p>(1) Not at all familiar</p>
            <p>(2) Slightly familiar</p>
            <p>(3) Moderately familiar</p>
            <p>(4) Very familiar</p>
            <p>(5) Extremely familiar</p>
          </div><br><br>
        <strong>Press the number key that corresponds with your rating.</strong>
        </p>
      </div>
    ,,null,,,,,,,,,,,,,,,,,,,
411.09999990463257,,unique_rating,41606,Fictional_Cities_List/img_manmade_06.png,,51,3,,,,,,,,,,,,,,,,,,
null,,confidence_buffer,41709,
      <div id=trial-counter style=position: absolute; top: 20px; left: 20px; font-size: 24px; font-weight: bold;>
        Image 10 / 30
      </div>
      <div id=unique style=max-width: 1200px; margin: 100px auto; text-align: center>  
        <img style='width: 350px;height: 350px;margin-bottom:100px' src='../static/images/Fictional_Cities_List/img_manmade_06.png' height='250'></style>
        <p style=font-size: 32px; line-height: 1.6; font-weight: bold; margin-bottom: 20px;>
          How unique is the image on a scale of 1 to 5?
        </p>
        <p style=font-size: 20px; line-height: 1.6; margin-bottom: 30px;>
          <br>
          <div class='test' style=display: flex; justify-content: space-around; align-items: center; text-align: center; width: 100%; font-size: 28px; margin-top: 20px;>
            <p>(1) Not at all unique</p>
            <p>(2) Slightly unique</p>
            <p>(3) Moderately unique</p>
            <p>(4) Very unique</p>
            <p>(5) Extremely unique</p>
          </div><br><br>
        <strong>Press the number key that corresponds with your rating.</strong>
        </p>
      </div>
    ,,null,,,,,,,,,,,,,,,,,,,
403.10000014305115,,memorable_rating,42114,Fictional_Cities_List/img_manmade_06.png,,52,4,,,,,,,,,,,,,,,,,,
null,,confidence_buffer,42216,
      <div id=trial-counter style=position: absolute; top: 20px; left: 20px; font-size: 24px; font-weight: bold;>
        Image 10 / 30
      </div>
      <div id=memorable style=max-width: 1200px; margin: 100px auto; text-align: center;>
        <img style='width: 350px;height: 350px;margin-bottom:100px' src='../static/images/Fictional_Cities_List/img_manmade_06.png' height='250'></style>
        <p style=font-size: 32px; line-height: 1.6; font-weight: bold; margin-bottom: 20px;>
          How memorable is the image on a scale of 1 to 5?
        </p>
        <p style=font-size: 20px; line-height: 1.6; margin-bottom: 30px;>
          <br>
          <div class='test' style=display: flex; justify-content: space-around; align-items: center; text-align: center; width: 100%; font-size: 28px; margin-top: 20px;>
            <p>(1) Not at all memorable</p>
            <p>(2) Slightly memorable</p>
            <p>(3) Moderately memorable</p>
            <p>(4) Very memorable</p>
            <p>(5) Extremely memorable</p>
          </div><br><br>
        <strong>Press the number key that corresponds with your rating.</strong>
        </p>
      </div>
    ,,null,,,,,,,,,,,,,,,,,,,
null,,thebreak,42718,break,,null,,,,,,,,,,,,,,,,,,,
1940.6000001430511,,intro_0,44660,instruct,,32,,,,,,,,,,,,,,,,,,,
564.8000001907349,,intro_1,45226,instruct,,32,,,,,,,,,,,,,,,,,,,
536.7999999523163,,intro_2,45764,instruct,,32,,,,,,,,,,,,,,,,,,,
null,,instruct_dir_4,47266,instruct,,null,,,,,,,,,,,,,,,,,,,
677.5,,realistic_rating,47945,Fictional_Cities_List/img_manmade_08.png,,50,2,,,,,,,,,,,,,,,,,,
null,,confidence_buffer,48048,
      <div id=trial-counter style=position: absolute; top: 20px; left: 20px; font-size: 24px; font-weight: bold;>
        Image 1 / 60
      </div>
      <div id=realistic style=max-width: 1200px; margin: 100px auto; text-align: center;>
        <img style='width: 350px;height: 350px;margin-bottom:100px' src='../static/images/Fictional_Cities_List/img_manmade_08.png' height='250'></style>
        <p style=font-size: 32px; line-height: 1.6; font-weight: bold; margin-bottom: 20px;>
          How realistic is this image on a scale of 1 to 5 (e.g., do you think this place exists in the real world)?
        </p>
        <p style=font-size: 20px; line-height: 1.6; margin-bottom: 30px;>
          <br>
          <div class='test' style=display: flex; justify-content: space-around; align-items: center; text-align: center; width: 100%; font-size: 28px; margin-top: 20px;>
            <p>(1) Not at all realistic</p>
            <p>(2) Slightly realistic</p>
            <p>(3) Moderately realistic</p>
            <p>(4) Very realistic</p>
            <p>(5) Extremely realistic</p>
          </div><br><br>
        <strong>Press the number key that corresponds with your rating.</strong>
        </p>
      </div>
    ,,null,,,,,,,,,,,,,,,,,,,
393.80000019073486,,pt2_unique_rating,48444,Fictional_Cities_List/img_manmade_08.png,,51,3,,,,,,,,,,,,,,,,,,
null,,confidence_buffer,48547,
      <div id=trial-counter style=position: absolute; top: 20px; left: 20px; font-size: 24px; font-weight: bold;>
        Image 1 / 60
      </div>
      <div id=unique style=max-width: 1200px; margin: 100px auto; text-align: center>  
        <img style='width: 350px;height: 350px;margin-bottom:100px' src='../static/images/Fictional_Cities_List/img_manmade_08.png' height='250'></style>
        <p style=font-size: 32px; line-height: 1.6; font-weight: bold; margin-bottom: 20px;>
          How unique is the image on a scale of 1 to 5?
        </p>
        <p style=font-size: 20px; line-height: 1.6; margin-bottom: 30px;>
          <br>
          <div class='test' style=display: flex; justify-content: space-around; align-items: center; text-align: center; width: 100%; font-size: 28px; margin-top: 20px;>
            <p>(1) Not at all unique</p>
            <p>(2) Slightly unique</p>
            <p>(3) Moderately unique</p>
            <p>(4) Very unique</p>
            <p>(5) Extremely unique</p>
          </div><br><br>
        <strong>Press the number key that corresponds with your rating.</strong>
        </p>
      </div>
    ,,null,,,,,,,,,,,,,,,,,,,
427.7999999523163,,pt2_memorable_rating,48976,Fictional_Cities_List/img_manmade_08.png,,49,1,,,,,,,,,,,,,,,,,,
null,,confidence_buffer,49079,
      <div id=trial-counter style=position: absolute; top: 20px; left: 20px; font-size: 24px; font-weight: bold;>
        Image 1 / 60
      </div>
      <div id=memorable style=max-width: 1200px; margin: 100px auto; text-align: center;>
        <img style='width: 350px;height: 350px;margin-bottom:100px' src='../static/images/Fictional_Cities_List/img_manmade_08.png' height='250'></style>
        <p style=font-size: 32px; line-height: 1.6; font-weight: bold; margin-bottom: 20px;>
          How memorable is the image on a scale of 1 to 5?
        </p>
        <p style=font-size: 20px; line-height: 1.6; margin-bottom: 30px;>
          <br>
          <div class='test' style=display: flex; justify-content: space-around; align-items: center; text-align: center; width: 100%; font-size: 28px; margin-top: 20px;>
            <p>(1) Not at all memorable</p>
            <p>(2) Slightly memorable</p>
            <p>(3) Moderately memorable</p>
            <p>(4) Very memorable</p>
            <p>(5) Extremely memorable</p>
          </div><br><br>
        <strong>Press the number key that corresponds with your rating.</strong>
        </p>
      </div>
    ,,null,,,,,,,,,,,,,,,,,,,
954.2000000476837,,recognition_phase,50035,US_Cities_List/nat_healdsburg.png,,49,,,,old,0,0,,,,,,,,,,,,,
null,,confidence_buffer,50138,<div id=trial-counter style=position: absolute; top: 20px; left: 20px; font-size: 24px; font-weight: bold;>Image 1 / 60</div><p style='position:absolute;top: 20%;right: 50%;transform: translate(50%, -50%);font-size: 25px;color:black;'>Is this image <strong>Old</strong> or <strong>New</strong>?</p><img style='position:absolute;top: 50%;right: 50%;transform: translate(50%, -50%);z-score:0;width: 400;height: 400px;' src='../static/images/Fictional_Cities_List/img_manmade_08.png' height='250'></style><p style='position:absolute;top: 80%;right: 50%;transform: translate(50%, -50%);font-size: 25px;color:black;'>Press '1' for <strong>Old</strong> and '2' for <strong>New</strong>.</p>,,null,,,,,,,,,,,,,,,,,,,
736.4000000953674,,confidence,50875,confidence,,51,,,,,,,3,,,,,,,,,,,,
null,,confidence_buffer,50978,
      <div id=trial-counter style=position: absolute; top: 20px; left: 20px; font-size: 24px; font-weight: bold;>
        Image 2 / 60
      </div>
      <div id=confidence style=max-width: 1000px; margin: 100px auto; text-align: center;>
        <p style=font-size: 32px; line-height: 1.6; font-weight: bold; margin-bottom: 20px;>
          How confident are you in your response?
        </p>
        <p style=font-size: 20px; line-height: 1.6; margin-bottom: 30px;>
          <br>
          <div class='test' style=display: flex; justify-content: space-around; align-items: center; text-align: center; width: 100%; font-size: 30px; margin-top: 20px;>
            <p>(1) Not at all confident</p>
            <p>(2) Slightly confident</p>
            <p>(3) Moderately confident</p>
            <p>(4) Very confident</p>
          </div><br><br>
        <strong>Press the number key that corresponds with your rating.</strong>
        </p>
      </div>
    ,,null,,,,,,,,,,,,,,,,,,,
null,,thebreak,51481,break,,null,,,,,,,,,,,,,,,,,,,
1145,,realistic_rating,52627,Fictional_Cities_List/img_natural_05.png,,51,3,,,,,,,,,,,,,,,,,,
null,,confidence_buffer,52731,
      <div id=trial-counter style=position: absolute; top: 20px; left: 20px; font-size: 24px; font-weight: bold;>
        Image 2 / 60
      </div>
      <div id=realistic style=max-width: 1200px; margin: 100px auto; text-align: center;>
        <img style='width: 350px;height: 350px;margin-bottom:100px' src='../static/images/Fictional_Cities_List/img_natural_05.png' height='250'></style>
        <p style=font-size: 32px; line-height: 1.6; font-weight: bold; margin-bottom: 20px;>
          How realistic is this image on a scale of 1 to 5 (e.g., do you think this place exists in the real world)?
        </p>
        <p style=font-size: 20px; line-height: 1.6; margin-bottom: 30px;>
          <br>
          <div class='test' style=display: flex; justify-content: space-around; align-items: center; text-align: center; width: 100%; font-size: 28px; margin-top: 20px;>
            <p>(1) Not at all realistic</p>
            <p>(2) Slightly realistic</p>
            <p>(3) Moderately realistic</p>
            <p>(4) Very realistic</p>
            <p>(5) Extremely realistic</p>
          </div><br><br>
        <strong>Press the number key that corresponds with your rating.</strong>
        </p>
      </div>
    ,,null,,,,,,,,,,,,,,,,,,,
545.7000000476837,,pt2_unique_rating,53278,Fictional_Cities_List/img_natural_05.png,,52,4,,,,,,,,,,,,,,,,,,
null,,confidence_buffer,53381,
      <div id=trial-counter style=position: absolute; top: 20px; left: 20px; font-size: 24px; font-weight: bold;>
        Image 2 / 60
      </div>
      <div id=unique style=max-width: 1200px; margin: 100px auto; text-align: center>  
        <img style='width: 350px;height: 350px;margin-bottom:100px' src='../static/images/Fictional_Cities_List/img_natural_05.png' height='250'></style>
        <p style=font-size: 32px; line-height: 1.6; font-weight: bold; margin-bottom: 20px;>
          How unique is the image on a scale of 1 to 5?
        </p>
        <p style=font-size: 20px; line-height: 1.6; margin-bottom: 30px;>
          <br>
          <div class='test' style=display: flex; justify-content: space-around; align-items: center; text-align: center; width: 100%; font-size: 28px; margin-top: 20px;>
            <p>(1) Not at all unique</p>
            <p>(2) Slightly unique</p>
            <p>(3) Moderately unique</p>
            <p>(4) Very unique</p>
            <p>(5) Extremely unique</p>
          </div><br><br>
        <strong>Press the number key that corresponds with your rating.</strong>
        </p>
      </div>
    ,,null,,,,,,,,,,,,,,,,,,,
475.90000009536743,,pt2_memorable_rating,53858,Fictional_Cities_List/img_natural_05.png,,51,3,,,,,,,,,,,,,,,,,,
null,,confidence_buffer,53961,
      <div id=trial-counter style=position: absolute; top: 20px; left: 20px; font-size: 24px; font-weight: bold;>
        Image 2 / 60
      </div>
      <div id=memorable style=max-width: 1200px; margin: 100px auto; text-align: center;>
        <img style='width: 350px;height: 350px;margin-bottom:100px' src='../static/images/Fictional_Cities_List/img_natural_05.png' height='250'></style>
        <p style=font-size: 32px; line-height: 1.6; font-weight: bold; margin-bottom: 20px;>
          How memorable is the image on a scale of 1 to 5?
        </p>
        <p style=font-size: 20px; line-height: 1.6; margin-bottom: 30px;>
          <br>
          <div class='test' style=display: flex; justify-content: space-around; align-items: center; text-align: center; width: 100%; font-size: 28px; margin-top: 20px;>
            <p>(1) Not at all memorable</p>
            <p>(2) Slightly memorable</p>
            <p>(3) Moderately memorable</p>
            <p>(4) Very memorable</p>
            <p>(5) Extremely memorable</p>
          </div><br><br>
        <strong>Press the number key that corresponds with your rating.</strong>
        </p>
      </div>
    ,,null,,,,,,,,,,,,,,,,,,,
623.2000000476837,,recognition_phase,54585,US_Cities_List/nat_healdsburg.png,,50,,,,new,1,0.5,,,,,,,,,,,,,
null,,confidence_buffer,54687,<div id=trial-counter style=position: absolute; top: 20px; left: 20px; font-size: 24px; font-weight: bold;>Image 2 / 60</div><p style='position:absolute;top: 20%;right: 50%;transform: translate(50%, -50%);font-size: 25px;color:black;'>Is this image <strong>Old</strong> or <strong>New</strong>?</p><img style='position:absolute;top: 50%;right: 50%;transform: translate(50%, -50%);z-score:0;width: 400;height: 400px;' src='../static/images/Fictional_Cities_List/img_natural_05.png' height='250'></style><p style='position:absolute;top: 80%;right: 50%;transform: translate(50%, -50%);font-size: 25px;color:black;'>Press '1' for <strong>Old</strong> and '2' for <strong>New</strong>.</p>,,null,,,,,,,,,,,,,,,,,,,
562.8999998569489,,confidence,55251,confidence,,49,,,,,,,1,,,,,,,,,,,,
null,,confidence_buffer,55353,
      <div id=trial-counter style=position: absolute; top: 20px; left: 20px; font-size: 24px; font-weight: bold;>
        Image 3 / 60
      </div>
      <div id=confidence style=max-width: 1000px; margin: 100px auto; text-align: center;>
        <p style=font-size: 32px; line-height: 1.6; font-weight: bold; margin-bottom: 20px;>
          How confident are you in your response?
        </p>
        <p style=font-size: 20px; line-height: 1.6; margin-bottom: 30px;>
          <br>
          <div class='test' style=display: flex; justify-content: space-around; align-items: center; text-align: center; width: 100%; font-size: 30px; margin-top: 20px;>
            <p>(1) Not at all confident</p>
            <p>(2) Slightly confident</p>
            <p>(3) Moderately confident</p>
            <p>(4) Very confident</p>
          </div><br><br>
        <strong>Press the number key that corresponds with your rating.</strong>
        </p>
      </div>
    ,,null,,,,,,,,,,,,,,,,,,,
null,,thebreak,55855,break,,null,,,,,,,,,,,,,,,,,,,
493.90000009536743,,realistic_rating,56351,Fictional_Cities_List/img_natural_06.png,,51,3,,,,,,,,,,,,,,,,,,
null,,confidence_buffer,56453,
      <div id=trial-counter style=position: absolute; top: 20px; left: 20px; font-size: 24px; font-weight: bold;>
        Image 3 / 60
      </div>
      <div id=realistic style=max-width: 1200px; margin: 100px auto; text-align: center;>
        <img style='width: 350px;height: 350px;margin-bottom:100px' src='../static/images/Fictional_Cities_List/img_natural_06.png' height='250'></style>
        <p style=font-size: 32px; line-height: 1.6; font-weight: bold; margin-bottom: 20px;>
          How realistic is this image on a scale of 1 to 5 (e.g., do you think this place exists in the real world)?
        </p>
        <p style=font-size: 20px; line-height: 1.6; margin-bottom: 30px;>
          <br>
          <div class='test' style=display: flex; justify-content: space-around; align-items: center; text-align: center; width: 100%; font-size: 28px; margin-top: 20px;>
            <p>(1) Not at all realistic</p>
            <p>(2) Slightly realistic</p>
            <p>(3) Moderately realistic</p>
            <p>(4) Very realistic</p>
            <p>(5) Extremely realistic</p>
          </div><br><br>
        <strong>Press the number key that corresponds with your rating.</strong>
        </p>
      </div>
    ,,null,,,,,,,,,,,,,,,,,,,
418.5,,pt2_unique_rating,56873,Fictional_Cities_List/img_natural_06.png,,50,2,,,,,,,,,,,,,,,,,,
null,,confidence_buffer,56977,
      <div id=trial-counter style=position: absolute; top: 20px; left: 20px; font-size: 24px; font-weight: bold;>
        Image 3 / 60
      </div>
      <div id=unique style=max-width: 1200px; margin: 100px auto; text-align: center>  
        <img style='width: 350px;height: 350px;margin-bottom:100px' src='../static/images/Fictional_Cities_List/img_natural_06.png' height='250'></style>
        <p style=font-size: 32px; line-height: 1.6; font-weight: bold; margin-bottom: 20px;>
          How unique is the image on a scale of 1 to 5?
        </p>
        <p style=font-size: 20px; line-height: 1.6; margin-bottom: 30px;>
          <br>
          <div class='test' style=display: flex; justify-content: space-around; align-items: center; text-align: center; width: 100%; font-size: 28px; margin-top: 20px;>
            <p>(1) Not at all unique</p>
            <p>(2) Slightly unique</p>
            <p>(3) Moderately unique</p>
            <p>(4) Very unique</p>
            <p>(5) Extremely unique</p>
          </div><br><br>
        <strong>Press the number key that corresponds with your rating.</strong>
        </p>
      </div>
    ,,null,,,,,,,,,,,,,,,,,,,
370.5,,pt2_memorable_rating,57348,Fictional_Cities_List/img_natural_06.png,,51,3,,,,,,,,,,,,,,,,,,
null,,confidence_buffer,57450,
      <div id=trial-counter style=position: absolute; top: 20px; left: 20px; font-size: 24px; font-weight: bold;>
        Image 3 / 60
      </div>
      <div id=memorable style=max-width: 1200px; margin: 100px auto; text-align: center;>
        <img style='width: 350px;height: 350px;margin-bottom:100px' src='../static/images/Fictional_Cities_List/img_natural_06.png' height='250'></style>
        <p style=font-size: 32px; line-height: 1.6; font-weight: bold; margin-bottom: 20px;>
          How memorable is the image on a scale of 1 to 5?
        </p>
        <p style=font-size: 20px; line-height: 1.6; margin-bottom: 30px;>
          <br>
          <div class='test' style=display: flex; justify-content: space-around; align-items: center; text-align: center; width: 100%; font-size: 28px; margin-top: 20px;>
            <p>(1) Not at all memorable</p>
            <p>(2) Slightly memorable</p>
            <p>(3) Moderately memorable</p>
            <p>(4) Very memorable</p>
            <p>(5) Extremely memorable</p>
          </div><br><br>
        <strong>Press the number key that corresponds with your rating.</strong>
        </p>
      </div>
    ,,null,,,,,,,,,,,,,,,,,,,
1291.5,,recognition_phase,58743,US_Cities_List/nat_healdsburg.png,,50,,,,new,1,0.6666666666666666,,,,,,,,,,,,,
null,,confidence_buffer,58846,<div id=trial-counter style=position: absolute; top: 20px; left: 20px; font-size: 24px; font-weight: bold;>Image 3 / 60</div><p style='position:absolute;top: 20%;right: 50%;transform: translate(50%, -50%);font-size: 25px;color:black;'>Is this image <strong>Old</strong> or <strong>New</strong>?</p><img style='position:absolute;top: 50%;right: 50%;transform: translate(50%, -50%);z-score:0;width: 400;height: 400px;' src='../static/images/Fictional_Cities_List/img_natural_06.png' height='250'></style><p style='position:absolute;top: 80%;right: 50%;transform: translate(50%, -50%);font-size: 25px;color:black;'>Press '1' for <strong>Old</strong> and '2' for <strong>New</strong>.</p>,,null,,,,,,,,,,,,,,,,,,,
487.09999990463257,,confidence,59334,confidence,,49,,,,,,,1,,,,,,,,,,,,
null,,confidence_buffer,59437,
      <div id=trial-counter style=position: absolute; top: 20px; left: 20px; font-size: 24px; font-weight: bold;>
        Image 4 / 60
      </div>
      <div id=confidence style=max-width: 1000px; margin: 100px auto; text-align: center;>
        <p style=font-size: 32px; line-height: 1.6; font-weight: bold; margin-bottom: 20px;>
          How confident are you in your response?
        </p>
        <p style=font-size: 20px; line-height: 1.6; margin-bottom: 30px;>
          <br>
          <div class='test' style=display: flex; justify-content: space-around; align-items: center; text-align: center; width: 100%; font-size: 30px; margin-top: 20px;>
            <p>(1) Not at all confident</p>
            <p>(2) Slightly confident</p>
            <p>(3) Moderately confident</p>
            <p>(4) Very confident</p>
          </div><br><br>
        <strong>Press the number key that corresponds with your rating.</strong>
        </p>
      </div>
    ,,null,,,,,,,,,,,,,,,,,,,
null,,thebreak,59939,break,,null,,,,,,,,,,,,,,,,,,,
603.5999999046326,,realistic_rating,60544,Fictional_Cities_List/img_manmade_12.png,,50,2,,,,,,,,,,,,,,,,,,
null,,confidence_buffer,60647,
      <div id=trial-counter style=position: absolute; top: 20px; left: 20px; font-size: 24px; font-weight: bold;>
        Image 4 / 60
      </div>
      <div id=realistic style=max-width: 1200px; margin: 100px auto; text-align: center;>
        <img style='width: 350px;height: 350px;margin-bottom:100px' src='../static/images/Fictional_Cities_List/img_manmade_12.png' height='250'></style>
        <p style=font-size: 32px; line-height: 1.6; font-weight: bold; margin-bottom: 20px;>
          How realistic is this image on a scale of 1 to 5 (e.g., do you think this place exists in the real world)?
        </p>
        <p style=font-size: 20px; line-height: 1.6; margin-bottom: 30px;>
          <br>
          <div class='test' style=display: flex; justify-content: space-around; align-items: center; text-align: center; width: 100%; font-size: 28px; margin-top: 20px;>
            <p>(1) Not at all realistic</p>
            <p>(2) Slightly realistic</p>
            <p>(3) Moderately realistic</p>
            <p>(4) Very realistic</p>
            <p>(5) Extremely realistic</p>
          </div><br><br>
        <strong>Press the number key that corresponds with your rating.</strong>
        </p>
      </div>
    ,,null,,,,,,,,,,,,,,,,,,,
567.5999999046326,,pt2_unique_rating,61216,Fictional_Cities_List/img_manmade_12.png,,51,3,,,,,,,,,,,,,,,,,,
null,,confidence_buffer,61319,
      <div id=trial-counter style=position: absolute; top: 20px; left: 20px; font-size: 24px; font-weight: bold;>
        Image 4 / 60
      </div>
      <div id=unique style=max-width: 1200px; margin: 100px auto; text-align: center>  
        <img style='width: 350px;height: 350px;margin-bottom:100px' src='../static/images/Fictional_Cities_List/img_manmade_12.png' height='250'></style>
        <p style=font-size: 32px; line-height: 1.6; font-weight: bold; margin-bottom: 20px;>
          How unique is the image on a scale of 1 to 5?
        </p>
        <p style=font-size: 20px; line-height: 1.6; margin-bottom: 30px;>
          <br>
          <div class='test' style=display: flex; justify-content: space-around; align-items: center; text-align: center; width: 100%; font-size: 28px; margin-top: 20px;>
            <p>(1) Not at all unique</p>
            <p>(2) Slightly unique</p>
            <p>(3) Moderately unique</p>
            <p>(4) Very unique</p>
            <p>(5) Extremely unique</p>
          </div><br><br>
        <strong>Press the number key that corresponds with your rating.</strong>
        </p>
      </div>
    ,,null,,,,,,,,,,,,,,,,,,,
421.30000019073486,,pt2_memorable_rating,61741,Fictional_Cities_List/img_manmade_12.png,,52,4,,,,,,,,,,,,,,,,,,
null,,confidence_buffer,61843,
      <div id=trial-counter style=position: absolute; top: 20px; left: 20px; font-size: 24px; font-weight: bold;>
        Image 4 / 60
      </div>
      <div id=memorable style=max-width: 1200px; margin: 100px auto; text-align: center;>
        <img style='width: 350px;height: 350px;margin-bottom:100px' src='../static/images/Fictional_Cities_List/img_manmade_12.png' height='250'></style>
        <p style=font-size: 32px; line-height: 1.6; font-weight: bold; margin-bottom: 20px;>
          How memorable is the image on a scale of 1 to 5?
        </p>
        <p style=font-size: 20px; line-height: 1.6; margin-bottom: 30px;>
          <br>
          <div class='test' style=display: flex; justify-content: space-around; align-items: center; text-align: center; width: 100%; font-size: 28px; margin-top: 20px;>
            <p>(1) Not at all memorable</p>
            <p>(2) Slightly memorable</p>
            <p>(3) Moderately memorable</p>
            <p>(4) Very memorable</p>
            <p>(5) Extremely memorable</p>
          </div><br><br>
        <strong>Press the number key that corresponds with your rating.</strong>
        </p>
      </div>
    ,,null,,,,,,,,,,,,,,,,,,,
1121.7999999523163,,recognition_phase,62966,US_Cities_List/nat_healdsburg.png,,50,,,,new,1,0.75,,,,,,,,,,,,,
null,,confidence_buffer,63069,<div id=trial-counter style=position: absolute; top: 20px; left: 20px; font-size: 24px; font-weight: bold;>Image 4 / 60</div><p style='position:absolute;top: 20%;right: 50%;transform: translate(50%, -50%);font-size: 25px;color:black;'>Is this image <strong>Old</strong> or <strong>New</strong>?</p><img style='position:absolute;top: 50%;right: 50%;transform: translate(50%, -50%);z-score:0;width: 400;height: 400px;' src='../static/images/Fictional_Cities_List/img_manmade_12.png' height='250'></style><p style='position:absolute;top: 80%;right: 50%;transform: translate(50%, -50%);font-size: 25px;color:black;'>Press '1' for <strong>Old</strong> and '2' for <strong>New</strong>.</p>,,null,,,,,,,,,,,,,,,,,,,
621.2999999523163,,confidence,63691,confidence,,49,,,,,,,1,,,,,,,,,,,,
null,,confidence_buffer,63794,
      <div id=trial-counter style=position: absolute; top: 20px; left: 20px; font-size: 24px; font-weight: bold;>
        Image 5 / 60
      </div>
      <div id=confidence style=max-width: 1000px; margin: 100px auto; text-align: center;>
        <p style=font-size: 32px; line-height: 1.6; font-weight: bold; margin-bottom: 20px;>
          How confident are you in your response?
        </p>
        <p style=font-size: 20px; line-height: 1.6; margin-bottom: 30px;>
          <br>
          <div class='test' style=display: flex; justify-content: space-around; align-items: center; text-align: center; width: 100%; font-size: 30px; margin-top: 20px;>
            <p>(1) Not at all confident</p>
            <p>(2) Slightly confident</p>
            <p>(3) Moderately confident</p>
            <p>(4) Very confident</p>
          </div><br><br>
        <strong>Press the number key that corresponds with your rating.</strong>
        </p>
      </div>
    ,,null,,,,,,,,,,,,,,,,,,,
null,,thebreak,64297,break,,null,,,,,,,,,,,,,,,,,,,
419.59999990463257,,realistic_rating,64719,Fictional_Cities_List/img_natural_07.png,,51,3,,,,,,,,,,,,,,,,,,
null,,confidence_buffer,64823,
      <div id=trial-counter style=position: absolute; top: 20px; left: 20px; font-size: 24px; font-weight: bold;>
        Image 5 / 60
      </div>
      <div id=realistic style=max-width: 1200px; margin: 100px auto; text-align: center;>
        <img style='width: 350px;height: 350px;margin-bottom:100px' src='../static/images/Fictional_Cities_List/img_natural_07.png' height='250'></style>
        <p style=font-size: 32px; line-height: 1.6; font-weight: bold; margin-bottom: 20px;>
          How realistic is this image on a scale of 1 to 5 (e.g., do you think this place exists in the real world)?
        </p>
        <p style=font-size: 20px; line-height: 1.6; margin-bottom: 30px;>
          <br>
          <div class='test' style=display: flex; justify-content: space-around; align-items: center; text-align: center; width: 100%; font-size: 28px; margin-top: 20px;>
            <p>(1) Not at all realistic</p>
            <p>(2) Slightly realistic</p>
            <p>(3) Moderately realistic</p>
            <p>(4) Very realistic</p>
            <p>(5) Extremely realistic</p>
          </div><br><br>
        <strong>Press the number key that corresponds with your rating.</strong>
        </p>
      </div>
    ,,null,,,,,,,,,,,,,,,,,,,
370.5,,pt2_unique_rating,65194,Fictional_Cities_List/img_natural_07.png,,52,4,,,,,,,,,,,,,,,,,,
null,,confidence_buffer,65297,
      <div id=trial-counter style=position: absolute; top: 20px; left: 20px; font-size: 24px; font-weight: bold;>
        Image 5 / 60
      </div>
      <div id=unique style=max-width: 1200px; margin: 100px auto; text-align: center>  
        <img style='width: 350px;height: 350px;margin-bottom:100px' src='../static/images/Fictional_Cities_List/img_natural_07.png' height='250'></style>
        <p style=font-size: 32px; line-height: 1.6; font-weight: bold; margin-bottom: 20px;>
          How unique is the image on a scale of 1 to 5?
        </p>
        <p style=font-size: 20px; line-height: 1.6; margin-bottom: 30px;>
          <br>
          <div class='test' style=display: flex; justify-content: space-around; align-items: center; text-align: center; width: 100%; font-size: 28px; margin-top: 20px;>
            <p>(1) Not at all unique</p>
            <p>(2) Slightly unique</p>
            <p>(3) Moderately unique</p>
            <p>(4) Very unique</p>
            <p>(5) Extremely unique</p>
          </div><br><br>
        <strong>Press the number key that corresponds with your rating.</strong>
        </p>
      </div>
    ,,null,,,,,,,,,,,,,,,,,,,
477.2999999523163,,pt2_memorable_rating,65775,Fictional_Cities_List/img_natural_07.png,,51,3,,,,,,,,,,,,,,,,,,
null,,confidence_buffer,65877,
      <div id=trial-counter style=position: absolute; top: 20px; left: 20px; font-size: 24px; font-weight: bold;>
        Image 5 / 60
      </div>
      <div id=memorable style=max-width: 1200px; margin: 100px auto; text-align: center;>
        <img style='width: 350px;height: 350px;margin-bottom:100px' src='../static/images/Fictional_Cities_List/img_natural_07.png' height='250'></style>
        <p style=font-size: 32px; line-height: 1.6; font-weight: bold; margin-bottom: 20px;>
          How memorable is the image on a scale of 1 to 5?
        </p>
        <p style=font-size: 20px; line-height: 1.6; margin-bottom: 30px;>
          <br>
          <div class='test' style=display: flex; justify-content: space-around; align-items: center; text-align: center; width: 100%; font-size: 28px; margin-top: 20px;>
            <p>(1) Not at all memorable</p>
            <p>(2) Slightly memorable</p>
            <p>(3) Moderately memorable</p>
            <p>(4) Very memorable</p>
            <p>(5) Extremely memorable</p>
          </div><br><br>
        <strong>Press the number key that corresponds with your rating.</strong>
        </p>
      </div>
    ,,null,,,,,,,,,,,,,,,,,,,
640.7000000476837,,recognition_phase,66518,US_Cities_List/nat_healdsburg.png,,49,,,,old,0,0.6,,,,,,,,,,,,,
null,,confidence_buffer,66621,<div id=trial-counter style=position: absolute; top: 20px; left: 20px; font-size: 24px; font-weight: bold;>Image 5 / 60</div><p style='position:absolute;top: 20%;right: 50%;transform: translate(50%, -50%);font-size: 25px;color:black;'>Is this image <strong>Old</strong> or <strong>New</strong>?</p><img style='position:absolute;top: 50%;right: 50%;transform: translate(50%, -50%);z-score:0;width: 400;height: 400px;' src='../static/images/Fictional_Cities_List/img_natural_07.png' height='250'></style><p style='position:absolute;top: 80%;right: 50%;transform: translate(50%, -50%);font-size: 25px;color:black;'>Press '1' for <strong>Old</strong> and '2' for <strong>New</strong>.</p>,,null,,,,,,,,,,,,,,,,,,,
461.40000009536743,,confidence,67084,confidence,,50,,,,,,,2,,,,,,,,,,,,
null,,confidence_buffer,67187,
      <div id=trial-counter style=position: absolute; top: 20px; left: 20px; font-size: 24px; font-weight: bold;>
        Image 6 / 60
      </div>
      <div id=confidence style=max-width: 1000px; margin: 100px auto; text-align: center;>
        <p style=font-size: 32px; line-height: 1.6; font-weight: bold; margin-bottom: 20px;>
          How confident are you in your response?
        </p>
        <p style=font-size: 20px; line-height: 1.6; margin-bottom: 30px;>
          <br>
          <div class='test' style=display: flex; justify-content: space-around; align-items: center; text-align: center; width: 100%; font-size: 30px; margin-top: 20px;>
            <p>(1) Not at all confident</p>
            <p>(2) Slightly confident</p>
            <p>(3) Moderately confident</p>
            <p>(4) Very confident</p>
          </div><br><br>
        <strong>Press the number key that corresponds with your rating.</strong>
        </p>
      </div>
    ,,null,,,,,,,,,,,,,,,,,,,
null,,thebreak,67690,break,,null,,,,,,,,,,,,,,,,,,,
449.60000014305115,,realistic_rating,68140,US_Cities_List/nat_carmel.png,,49,1,,,,,,,,,,,,,,,,,,
null,,confidence_buffer,68244,
      <div id=trial-counter style=position: absolute; top: 20px; left: 20px; font-size: 24px; font-weight: bold;>
        Image 6 / 60
      </div>
      <div id=realistic style=max-width: 1200px; margin: 100px auto; text-align: center;>
        <img style='width: 350px;height: 350px;margin-bottom:100px' src='../static/images/US_Cities_List/nat_carmel.png' height='250'></style>
        <p style=font-size: 32px; line-height: 1.6; font-weight: bold; margin-bottom: 20px;>
          How realistic is this image on a scale of 1 to 5 (e.g., do you think this place exists in the real world)?
        </p>
        <p style=font-size: 20px; line-height: 1.6; margin-bottom: 30px;>
          <br>
          <div class='test' style=display: flex; justify-content: space-around; align-items: center; text-align: center; width: 100%; font-size: 28px; margin-top: 20px;>
            <p>(1) Not at all realistic</p>
            <p>(2) Slightly realistic</p>
            <p>(3) Moderately realistic</p>
            <p>(4) Very realistic</p>
            <p>(5) Extremely realistic</p>
          </div><br><br>
        <strong>Press the number key that corresponds with your rating.</strong>
        </p>
      </div>
    ,,null,,,,,,,,,,,,,,,,,,,
532.1999998092651,,pt2_unique_rating,68778,US_Cities_List/nat_carmel.png,,50,2,,,,,,,,,,,,,,,,,,
null,,confidence_buffer,68882,
      <div id=trial-counter style=position: absolute; top: 20px; left: 20px; font-size: 24px; font-weight: bold;>
        Image 6 / 60
      </div>
      <div id=unique style=max-width: 1200px; margin: 100px auto; text-align: center>  
        <img style='width: 350px;height: 350px;margin-bottom:100px' src='../static/images/US_Cities_List/nat_carmel.png' height='250'></style>
        <p style=font-size: 32px; line-height: 1.6; font-weight: bold; margin-bottom: 20px;>
          How unique is the image on a scale of 1 to 5?
        </p>
        <p style=font-size: 20px; line-height: 1.6; margin-bottom: 30px;>
          <br>
          <div class='test' style=display: flex; justify-content: space-around; align-items: center; text-align: center; width: 100%; font-size: 28px; margin-top: 20px;>
            <p>(1) Not at all unique</p>
            <p>(2) Slightly unique</p>
            <p>(3) Moderately unique</p>
            <p>(4) Very unique</p>
            <p>(5) Extremely unique</p>
          </div><br><br>
        <strong>Press the number key that corresponds with your rating.</strong>
        </p>
      </div>
    ,,null,,,,,,,,,,,,,,,,,,,
413.40000009536743,,pt2_memorable_rating,69296,US_Cities_List/nat_carmel.png,,51,3,,,,,,,,,,,,,,,,,,
null,,confidence_buffer,69399,
      <div id=trial-counter style=position: absolute; top: 20px; left: 20px; font-size: 24px; font-weight: bold;>
        Image 6 / 60
      </div>
      <div id=memorable style=max-width: 1200px; margin: 100px auto; text-align: center;>
        <img style='width: 350px;height: 350px;margin-bottom:100px' src='../static/images/US_Cities_List/nat_carmel.png' height='250'></style>
        <p style=font-size: 32px; line-height: 1.6; font-weight: bold; margin-bottom: 20px;>
          How memorable is the image on a scale of 1 to 5?
        </p>
        <p style=font-size: 20px; line-height: 1.6; margin-bottom: 30px;>
          <br>
          <div class='test' style=display: flex; justify-content: space-around; align-items: center; text-align: center; width: 100%; font-size: 28px; margin-top: 20px;>
            <p>(1) Not at all memorable</p>
            <p>(2) Slightly memorable</p>
            <p>(3) Moderately memorable</p>
            <p>(4) Very memorable</p>
            <p>(5) Extremely memorable</p>
          </div><br><br>
        <strong>Press the number key that corresponds with your rating.</strong>
        </p>
      </div>
    ,,null,,,,,,,,,,,,,,,,,,,
2188.7999999523163,,recognition_phase,71590,US_Cities_List/nat_healdsburg.png,,49,,,,old,1,0.6666666666666666,,,,,,,,,,,,,
null,,confidence_buffer,71692,<div id=trial-counter style=position: absolute; top: 20px; left: 20px; font-size: 24px; font-weight: bold;>Image 6 / 60</div><p style='position:absolute;top: 20%;right: 50%;transform: translate(50%, -50%);font-size: 25px;color:black;'>Is this image <strong>Old</strong> or <strong>New</strong>?</p><img style='position:absolute;top: 50%;right: 50%;transform: translate(50%, -50%);z-score:0;width: 400;height: 400px;' src='../static/images/US_Cities_List/nat_carmel.png' height='250'></style><p style='position:absolute;top: 80%;right: 50%;transform: translate(50%, -50%);font-size: 25px;color:black;'>Press '1' for <strong>Old</strong> and '2' for <strong>New</strong>.</p>,,null,,,,,,,,,,,,,,,,,,,
838,,confidence,72531,confidence,,52,,,,,,,4,,,,,,,,,,,,
null,,confidence_buffer,72633,
      <div id=trial-counter style=position: absolute; top: 20px; left: 20px; font-size: 24px; font-weight: bold;>
        Image 7 / 60
      </div>
      <div id=confidence style=max-width: 1000px; margin: 100px auto; text-align: center;>
        <p style=font-size: 32px; line-height: 1.6; font-weight: bold; margin-bottom: 20px;>
          How confident are you in your response?
        </p>
        <p style=font-size: 20px; line-height: 1.6; margin-bottom: 30px;>
          <br>
          <div class='test' style=display: flex; justify-content: space-around; align-items: center; text-align: center; width: 100%; font-size: 30px; margin-top: 20px;>
            <p>(1) Not at all confident</p>
            <p>(2) Slightly confident</p>
            <p>(3) Moderately confident</p>
            <p>(4) Very confident</p>
          </div><br><br>
        <strong>Press the number key that corresponds with your rating.</strong>
        </p>
      </div>
    ,,null,,,,,,,,,,,,,,,,,,,
null,,thebreak,73134,break,,null,,,,,,,,,,,,,,,,,,,
599,,realistic_rating,73734,Fictional_Cities_List/img_manmade_11.png,,50,2,,,,,,,,,,,,,,,,,,
null,,confidence_buffer,73838,
      <div id=trial-counter style=position: absolute; top: 20px; left: 20px; font-size: 24px; font-weight: bold;>
        Image 7 / 60
      </div>
      <div id=realistic style=max-width: 1200px; margin: 100px auto; text-align: center;>
        <img style='width: 350px;height: 350px;margin-bottom:100px' src='../static/images/Fictional_Cities_List/img_manmade_11.png' height='250'></style>
        <p style=font-size: 32px; line-height: 1.6; font-weight: bold; margin-bottom: 20px;>
          How realistic is this image on a scale of 1 to 5 (e.g., do you think this place exists in the real world)?
        </p>
        <p style=font-size: 20px; line-height: 1.6; margin-bottom: 30px;>
          <br>
          <div class='test' style=display: flex; justify-content: space-around; align-items: center; text-align: center; width: 100%; font-size: 28px; margin-top: 20px;>
            <p>(1) Not at all realistic</p>
            <p>(2) Slightly realistic</p>
            <p>(3) Moderately realistic</p>
            <p>(4) Very realistic</p>
            <p>(5) Extremely realistic</p>
          </div><br><br>
        <strong>Press the number key that corresponds with your rating.</strong>
        </p>
      </div>
    ,,null,,,,,,,,,,,,,,,,,,,
532.9000000953674,,pt2_unique_rating,74372,Fictional_Cities_List/img_manmade_11.png,,51,3,,,,,,,,,,,,,,,,,,
null,,confidence_buffer,74475,
      <div id=trial-counter style=position: absolute; top: 20px; left: 20px; font-size: 24px; font-weight: bold;>
        Image 7 / 60
      </div>
      <div id=unique style=max-width: 1200px; margin: 100px auto; text-align: center>  
        <img style='width: 350px;height: 350px;margin-bottom:100px' src='../static/images/Fictional_Cities_List/img_manmade_11.png' height='250'></style>
        <p style=font-size: 32px; line-height: 1.6; font-weight: bold; margin-bottom: 20px;>
          How unique is the image on a scale of 1 to 5?
        </p>
        <p style=font-size: 20px; line-height: 1.6; margin-bottom: 30px;>
          <br>
          <div class='test' style=display: flex; justify-content: space-around; align-items: center; text-align: center; width: 100%; font-size: 28px; margin-top: 20px;>
            <p>(1) Not at all unique</p>
            <p>(2) Slightly unique</p>
            <p>(3) Moderately unique</p>
            <p>(4) Very unique</p>
            <p>(5) Extremely unique</p>
          </div><br><br>
        <strong>Press the number key that corresponds with your rating.</strong>
        </p>
      </div>
    ,,null,,,,,,,,,,,,,,,,,,,
394.7999999523163,,pt2_memorable_rating,74872,Fictional_Cities_List/img_manmade_11.png,,52,4,,,,,,,,,,,,,,,,,,
null,,confidence_buffer,74974,
      <div id=trial-counter style=position: absolute; top: 20px; left: 20px; font-size: 24px; font-weight: bold;>
        Image 7 / 60
      </div>
      <div id=memorable style=max-width: 1200px; margin: 100px auto; text-align: center;>
        <img style='width: 350px;height: 350px;margin-bottom:100px' src='../static/images/Fictional_Cities_List/img_manmade_11.png' height='250'></style>
        <p style=font-size: 32px; line-height: 1.6; font-weight: bold; margin-bottom: 20px;>
          How memorable is the image on a scale of 1 to 5?
        </p>
        <p style=font-size: 20px; line-height: 1.6; margin-bottom: 30px;>
          <br>
          <div class='test' style=display: flex; justify-content: space-around; align-items: center; text-align: center; width: 100%; font-size: 28px; margin-top: 20px;>
            <p>(1) Not at all memorable</p>
            <p>(2) Slightly memorable</p>
            <p>(3) Moderately memorable</p>
            <p>(4) Very memorable</p>
            <p>(5) Extremely memorable</p>
          </div><br><br>
        <strong>Press the number key that corresponds with your rating.</strong>
        </p>
      </div>
    ,,null,,,,,,,,,,,,,,,,,,,
488.7000000476837,,recognition_phase,75464,US_Cities_List/nat_healdsburg.png,,50,,,,new,1,0.7142857142857143,,,,,,,,,,,,,
null,,confidence_buffer,75566,<div id=trial-counter style=position: absolute; top: 20px; left: 20px; font-size: 24px; font-weight: bold;>Image 7 / 60</div><p style='position:absolute;top: 20%;right: 50%;transform: translate(50%, -50%);font-size: 25px;color:black;'>Is this image <strong>Old</strong> or <strong>New</strong>?</p><img style='position:absolute;top: 50%;right: 50%;transform: translate(50%, -50%);z-score:0;width: 400;height: 400px;' src='../static/images/Fictional_Cities_List/img_manmade_11.png' height='250'></style><p style='position:absolute;top: 80%;right: 50%;transform: translate(50%, -50%);font-size: 25px;color:black;'>Press '1' for <strong>Old</strong> and '2' for <strong>New</strong>.</p>,,null,,,,,,,,,,,,,,,,,,,
532.6000001430511,,confidence,76099,confidence,,49,,,,,,,1,,,,,,,,,,,,
null,,confidence_buffer,76201,
      <div id=trial-counter style=position: absolute; top: 20px; left: 20px; font-size: 24px; font-weight: bold;>
        Image 8 / 60
      </div>
      <div id=confidence style=max-width: 1000px; margin: 100px auto; text-align: center;>
        <p style=font-size: 32px; line-height: 1.6; font-weight: bold; margin-bottom: 20px;>
          How confident are you in your response?
        </p>
        <p style=font-size: 20px; line-height: 1.6; margin-bottom: 30px;>
          <br>
          <div class='test' style=display: flex; justify-content: space-around; align-items: center; text-align: center; width: 100%; font-size: 30px; margin-top: 20px;>
            <p>(1) Not at all confident</p>
            <p>(2) Slightly confident</p>
            <p>(3) Moderately confident</p>
            <p>(4) Very confident</p>
          </div><br><br>
        <strong>Press the number key that corresponds with your rating.</strong>
        </p>
      </div>
    ,,null,,,,,,,,,,,,,,,,,,,
null,,thebreak,76703,break,,null,,,,,,,,,,,,,,,,,,,
352.7999999523163,,realistic_rating,77057,US_Cities_List/nat_boulder.png,,50,2,,,,,,,,,,,,,,,,,,
null,,confidence_buffer,77160,
      <div id=trial-counter style=position: absolute; top: 20px; left: 20px; font-size: 24px; font-weight: bold;>
        Image 8 / 60
      </div>
      <div id=realistic style=max-width: 1200px; margin: 100px auto; text-align: center;>
        <img style='width: 350px;height: 350px;margin-bottom:100px' src='../static/images/US_Cities_List/nat_boulder.png' height='250'></style>
        <p style=font-size: 32px; line-height: 1.6; font-weight: bold; margin-bottom: 20px;>
          How realistic is this image on a scale of 1 to 5 (e.g., do you think this place exists in the real world)?
        </p>
        <p style=font-size: 20px; line-height: 1.6; margin-bottom: 30px;>
          <br>
          <div class='test' style=display: flex; justify-content: space-around; align-items: center; text-align: center; width: 100%; font-size: 28px; margin-top: 20px;>
            <p>(1) Not at all realistic</p>
            <p>(2) Slightly realistic</p>
            <p>(3) Moderately realistic</p>
            <p>(4) Very realistic</p>
            <p>(5) Extremely realistic</p>
          </div><br><br>
        <strong>Press the number key that corresponds with your rating.</strong>
        </p>
      </div>
    ,,null,,,,,,,,,,,,,,,,,,,
289.40000009536743,,pt2_unique_rating,77451,US_Cities_List/nat_boulder.png,,51,3,,,,,,,,,,,,,,,,,,
null,,confidence_buffer,77554,
      <div id=trial-counter style=position: absolute; top: 20px; left: 20px; font-size: 24px; font-weight: bold;>
        Image 8 / 60
      </div>
      <div id=unique style=max-width: 1200px; margin: 100px auto; text-align: center>  
        <img style='width: 350px;height: 350px;margin-bottom:100px' src='../static/images/US_Cities_List/nat_boulder.png' height='250'></style>
        <p style=font-size: 32px; line-height: 1.6; font-weight: bold; margin-bottom: 20px;>
          How unique is the image on a scale of 1 to 5?
        </p>
        <p style=font-size: 20px; line-height: 1.6; margin-bottom: 30px;>
          <br>
          <div class='test' style=display: flex; justify-content: space-around; align-items: center; text-align: center; width: 100%; font-size: 28px; margin-top: 20px;>
            <p>(1) Not at all unique</p>
            <p>(2) Slightly unique</p>
            <p>(3) Moderately unique</p>
            <p>(4) Very unique</p>
            <p>(5) Extremely unique</p>
          </div><br><br>
        <strong>Press the number key that corresponds with your rating.</strong>
        </p>
      </div>
    ,,null,,,,,,,,,,,,,,,,,,,
782.4000000953674,,pt2_memorable_rating,78338,US_Cities_List/nat_boulder.png,,52,4,,,,,,,,,,,,,,,,,,
null,,confidence_buffer,78441,
      <div id=trial-counter style=position: absolute; top: 20px; left: 20px; font-size: 24px; font-weight: bold;>
        Image 8 / 60
      </div>
      <div id=memorable style=max-width: 1200px; margin: 100px auto; text-align: center;>
        <img style='width: 350px;height: 350px;margin-bottom:100px' src='../static/images/US_Cities_List/nat_boulder.png' height='250'></style>
        <p style=font-size: 32px; line-height: 1.6; font-weight: bold; margin-bottom: 20px;>
          How memorable is the image on a scale of 1 to 5?
        </p>
        <p style=font-size: 20px; line-height: 1.6; margin-bottom: 30px;>
          <br>
          <div class='test' style=display: flex; justify-content: space-around; align-items: center; text-align: center; width: 100%; font-size: 28px; margin-top: 20px;>
            <p>(1) Not at all memorable</p>
            <p>(2) Slightly memorable</p>
            <p>(3) Moderately memorable</p>
            <p>(4) Very memorable</p>
            <p>(5) Extremely memorable</p>
          </div><br><br>
        <strong>Press the number key that corresponds with your rating.</strong>
        </p>
      </div>
    ,,null,,,,,,,,,,,,,,,,,,,
567.2000000476837,,recognition_phase,79009,US_Cities_List/nat_healdsburg.png,,50,,,,new,0,0.625,,,,,,,,,,,,,
null,,confidence_buffer,79112,<div id=trial-counter style=position: absolute; top: 20px; left: 20px; font-size: 24px; font-weight: bold;>Image 8 / 60</div><p style='position:absolute;top: 20%;right: 50%;transform: translate(50%, -50%);font-size: 25px;color:black;'>Is this image <strong>Old</strong> or <strong>New</strong>?</p><img style='position:absolute;top: 50%;right: 50%;transform: translate(50%, -50%);z-score:0;width: 400;height: 400px;' src='../static/images/US_Cities_List/nat_boulder.png' height='250'></style><p style='position:absolute;top: 80%;right: 50%;transform: translate(50%, -50%);font-size: 25px;color:black;'>Press '1' for <strong>Old</strong> and '2' for <strong>New</strong>.</p>,,null,,,,,,,,,,,,,,,,,,,
506.2999999523163,,confidence,79619,confidence,,49,,,,,,,1,,,,,,,,,,,,
null,,confidence_buffer,79721,
      <div id=trial-counter style=position: absolute; top: 20px; left: 20px; font-size: 24px; font-weight: bold;>
        Image 9 / 60
      </div>
      <div id=confidence style=max-width: 1000px; margin: 100px auto; text-align: center;>
        <p style=font-size: 32px; line-height: 1.6; font-weight: bold; margin-bottom: 20px;>
          How confident are you in your response?
        </p>
        <p style=font-size: 20px; line-height: 1.6; margin-bottom: 30px;>
          <br>
          <div class='test' style=display: flex; justify-content: space-around; align-items: center; text-align: center; width: 100%; font-size: 30px; margin-top: 20px;>
            <p>(1) Not at all confident</p>
            <p>(2) Slightly confident</p>
            <p>(3) Moderately confident</p>
            <p>(4) Very confident</p>
          </div><br><br>
        <strong>Press the number key that corresponds with your rating.</strong>
        </p>
      </div>
    ,,null,,,,,,,,,,,,,,,,,,,
null,,thebreak,80224,break,,null,,,,,,,,,,,,,,,,,,,
557.6000001430511,,realistic_rating,80783,Fictional_Cities_List/img_natural_11.png,,50,2,,,,,,,,,,,,,,,,,,
null,,confidence_buffer,80887,
      <div id=trial-counter style=position: absolute; top: 20px; left: 20px; font-size: 24px; font-weight: bold;>
        Image 9 / 60
      </div>
      <div id=realistic style=max-width: 1200px; margin: 100px auto; text-align: center;>
        <img style='width: 350px;height: 350px;margin-bottom:100px' src='../static/images/Fictional_Cities_List/img_natural_11.png' height='250'></style>
        <p style=font-size: 32px; line-height: 1.6; font-weight: bold; margin-bottom: 20px;>
          How realistic is this image on a scale of 1 to 5 (e.g., do you think this place exists in the real world)?
        </p>
        <p style=font-size: 20px; line-height: 1.6; margin-bottom: 30px;>
          <br>
          <div class='test' style=display: flex; justify-content: space-around; align-items: center; text-align: center; width: 100%; font-size: 28px; margin-top: 20px;>
            <p>(1) Not at all realistic</p>
            <p>(2) Slightly realistic</p>
            <p>(3) Moderately realistic</p>
            <p>(4) Very realistic</p>
            <p>(5) Extremely realistic</p>
          </div><br><br>
        <strong>Press the number key that corresponds with your rating.</strong>
        </p>
      </div>
    ,,null,,,,,,,,,,,,,,,,,,,
522.4000000953674,,pt2_unique_rating,81410,Fictional_Cities_List/img_natural_11.png,,52,4,,,,,,,,,,,,,,,,,,
null,,confidence_buffer,81512,
      <div id=trial-counter style=position: absolute; top: 20px; left: 20px; font-size: 24px; font-weight: bold;>
        Image 9 / 60
      </div>
      <div id=unique style=max-width: 1200px; margin: 100px auto; text-align: center>  
        <img style='width: 350px;height: 350px;margin-bottom:100px' src='../static/images/Fictional_Cities_List/img_natural_11.png' height='250'></style>
        <p style=font-size: 32px; line-height: 1.6; font-weight: bold; margin-bottom: 20px;>
          How unique is the image on a scale of 1 to 5?
        </p>
        <p style=font-size: 20px; line-height: 1.6; margin-bottom: 30px;>
          <br>
          <div class='test' style=display: flex; justify-content: space-around; align-items: center; text-align: center; width: 100%; font-size: 28px; margin-top: 20px;>
            <p>(1) Not at all unique</p>
            <p>(2) Slightly unique</p>
            <p>(3) Moderately unique</p>
            <p>(4) Very unique</p>
            <p>(5) Extremely unique</p>
          </div><br><br>
        <strong>Press the number key that corresponds with your rating.</strong>
        </p>
      </div>
    ,,null,,,,,,,,,,,,,,,,,,,
488.39999985694885,,pt2_memorable_rating,82001,Fictional_Cities_List/img_natural_11.png,,51,3,,,,,,,,,,,,,,,,,,
null,,confidence_buffer,82104,
      <div id=trial-counter style=position: absolute; top: 20px; left: 20px; font-size: 24px; font-weight: bold;>
        Image 9 / 60
      </div>
      <div id=memorable style=max-width: 1200px; margin: 100px auto; text-align: center;>
        <img style='width: 350px;height: 350px;margin-bottom:100px' src='../static/images/Fictional_Cities_List/img_natural_11.png' height='250'></style>
        <p style=font-size: 32px; line-height: 1.6; font-weight: bold; margin-bottom: 20px;>
          How memorable is the image on a scale of 1 to 5?
        </p>
        <p style=font-size: 20px; line-height: 1.6; margin-bottom: 30px;>
          <br>
          <div class='test' style=display: flex; justify-content: space-around; align-items: center; text-align: center; width: 100%; font-size: 28px; margin-top: 20px;>
            <p>(1) Not at all memorable</p>
            <p>(2) Slightly memorable</p>
            <p>(3) Moderately memorable</p>
            <p>(4) Very memorable</p>
            <p>(5) Extremely memorable</p>
          </div><br><br>
        <strong>Press the number key that corresponds with your rating.</strong>
        </p>
      </div>
    ,,null,,,,,,,,,,,,,,,,,,,
716.5,,recognition_phase,82822,US_Cities_List/nat_healdsburg.png,,50,,,,new,0,0.5555555555555556,,,,,,,,,,,,,
null,,confidence_buffer,82924,<div id=trial-counter style=position: absolute; top: 20px; left: 20px; font-size: 24px; font-weight: bold;>Image 9 / 60</div><p style='position:absolute;top: 20%;right: 50%;transform: translate(50%, -50%);font-size: 25px;color:black;'>Is this image <strong>Old</strong> or <strong>New</strong>?</p><img style='position:absolute;top: 50%;right: 50%;transform: translate(50%, -50%);z-score:0;width: 400;height: 400px;' src='../static/images/Fictional_Cities_List/img_natural_11.png' height='250'></style><p style='position:absolute;top: 80%;right: 50%;transform: translate(50%, -50%);font-size: 25px;color:black;'>Press '1' for <strong>Old</strong> and '2' for <strong>New</strong>.</p>,,null,,,,,,,,,,,,,,,,,,,
595.4000000953674,,confidence,83520,confidence,,49,,,,,,,1,,,,,,,,,,,,
null,,confidence_buffer,83623,
      <div id=trial-counter style=position: absolute; top: 20px; left: 20px; font-size: 24px; font-weight: bold;>
        Image 10 / 60
      </div>
      <div id=confidence style=max-width: 1000px; margin: 100px auto; text-align: center;>
        <p style=font-size: 32px; line-height: 1.6; font-weight: bold; margin-bottom: 20px;>
          How confident are you in your response?
        </p>
        <p style=font-size: 20px; line-height: 1.6; margin-bottom: 30px;>
          <br>
          <div class='test' style=display: flex; justify-content: space-around; align-items: center; text-align: center; width: 100%; font-size: 30px; margin-top: 20px;>
            <p>(1) Not at all confident</p>
            <p>(2) Slightly confident</p>
            <p>(3) Moderately confident</p>
            <p>(4) Very confident</p>
          </div><br><br>
        <strong>Press the number key that corresponds with your rating.</strong>
        </p>
      </div>
    ,,null,,,,,,,,,,,,,,,,,,,
null,,thebreak,84125,break,,null,,,,,,,,,,,,,,,,,,,
1068.1000001430511,,realistic_rating,85194,US_Cities_List/mm_coeurdalene.png,,50,2,,,,,,,,,,,,,,,,,,
null,,confidence_buffer,85297,
      <div id=trial-counter style=position: absolute; top: 20px; left: 20px; font-size: 24px; font-weight: bold;>
        Image 10 / 60
      </div>
      <div id=realistic style=max-width: 1200px; margin: 100px auto; text-align: center;>
        <img style='width: 350px;height: 350px;margin-bottom:100px' src='../static/images/US_Cities_List/mm_coeurdalene.png' height='250'></style>
        <p style=font-size: 32px; line-height: 1.6; font-weight: bold; margin-bottom: 20px;>
          How realistic is this image on a scale of 1 to 5 (e.g., do you think this place exists in the real world)?
        </p>
        <p style=font-size: 20px; line-height: 1.6; margin-bottom: 30px;>
          <br>
          <div class='test' style=display: flex; justify-content: space-around; align-items: center; text-align: center; width: 100%; font-size: 28px; margin-top: 20px;>
            <p>(1) Not at all realistic</p>
            <p>(2) Slightly realistic</p>
            <p>(3) Moderately realistic</p>
            <p>(4) Very realistic</p>
            <p>(5) Extremely realistic</p>
          </div><br><br>
        <strong>Press the number key that corresponds with your rating.</strong>
        </p>
      </div>
    ,,null,,,,,,,,,,,,,,,,,,,
456.60000014305115,,probe_rating,85755,US_Cities_List/mm_coeurdalene.png,,51,,3,0,,,,,,,,,,,,,,,,
null,,confidence_buffer,85857,
        <div id=trial-counter style=position: absolute; top: 20px; left: 20px; font-size: 24px; font-weight: bold;>
          City 10 / 60
        </div>
        <div id=realistic style=max-width: 1200px; margin: 100px auto; text-align: center;>
          <img style='width: 350px;height: 350px;margin-bottom:100px' src='../static/images/US_Cities_List/mm_coeurdalene.png' height='250'></style>
          <p style=font-size: 32px; line-height: 1.6; font-weight: bold; margin-bottom: 20px;>
            Please press the 2 option on your keyboard.
          </p>
          <p style=font-size: 20px; line-height: 1.6; margin-bottom: 30px;>
            <br>
            <div class='test' style=display: flex; justify-content: space-around; align-items: center; text-align: center; width: 100%; font-size: 28px; margin-top: 20px;>
              <p>(1) Option Number 1</p>
              <p>(2) Option Number 2</p>
              <p>(3) Option Number 3</p>
              <p>(4) Option Number 4</p>
              <p>(5) Option Number 5</p>
            </div><br><br>
          <strong>Press the number key that corresponds with what is said above.</strong>
          </p>
        </div>
      ,,null,,,,,,,,,,,,,,,,,,,
1576.2000000476837,,pt2_unique_rating,87435,US_Cities_List/mm_coeurdalene.png,,52,4,,,,,,,,,,,,,,,,,,
null,,confidence_buffer,87538,
      <div id=trial-counter style=position: absolute; top: 20px; left: 20px; font-size: 24px; font-weight: bold;>
        Image 10 / 60
      </div>
      <div id=unique style=max-width: 1200px; margin: 100px auto; text-align: center>  
        <img style='width: 350px;height: 350px;margin-bottom:100px' src='../static/images/US_Cities_List/mm_coeurdalene.png' height='250'></style>
        <p style=font-size: 32px; line-height: 1.6; font-weight: bold; margin-bottom: 20px;>
          How unique is the image on a scale of 1 to 5?
        </p>
        <p style=font-size: 20px; line-height: 1.6; margin-bottom: 30px;>
