rt,responses,trial_type,time_elapsed,stimulus,button_pressed,key_press,name_trial,city_type,rating,probe,probe_accuracy,response,correct,accuracy,problems,smooth,distraction,strategies,familiar,memorable,unique,realistic,similar,comments
2814,{worker_id:Vessa},id_enter,2815,,,,,,,,,,,,,,,,,,,,,
8141.199999988079,,fullscreen,10960,fullscreen,0,,,,,,,,,,,,,,,,,,,
58644.30000001192,,intro_0,69605,instruct,,32,,,,,,,,,,,,,,,,,,
90478.10000002384,,intro_1,160084,instruct,,32,,,,,,,,,,,,,,,,,,
2459.300000011921,,intro_2,162544,instruct,,32,,,,,,,,,,,,,,,,,,
null,,instruct_dir_4,164046,instruct,,null,,,,,,,,,,,,,,,,,,
null,,thebreak,164547,break,,null,,,,,,,,,,,,,,,,,,
5858.600000023842,,familiar_rating,170407,US_Cities_List/nat_carmel.png,,50,US_Cities_List/nat_carmel.png,NAT,2,,,,,,,,,,,,,,,
null,,confidence_buffer,170509,confidence_buffer,,null,,,,,,,,,,,,,,,,,,
2414.600000023842,,unique_rating,172925,US_Cities_List/nat_carmel.png,,49,,,1,,,,,,,,,,,,,,,
null,,confidence_buffer,173026,confidence_buffer,,null,,,,,,,,,,,,,,,,,,
3588.899999976158,,memorable_rating,176617,US_Cities_List/nat_carmel.png,,51,,,3,,,,,,,,,,,,,,,
null,,confidence_buffer,176718,confidence_buffer,,null,,,,,,,,,,,,,,,,,,
null,,thebreak,177220,break,,null,,,,,,,,,,,,,,,,,,
3472.900000035763,,familiar_rating,180695,Fictional_Cities_List/img_manmade_15.png,,51,Fictional_Cities_List/img_manmade_15.png,MM,3,,,,,,,,,,,,,,,
null,,confidence_buffer,180797,confidence_buffer,,null,,,,,,,,,,,,,,,,,,
1335.5,,unique_rating,182133,Fictional_Cities_List/img_manmade_15.png,,50,,,2,,,,,,,,,,,,,,,
null,,confidence_buffer,182235,confidence_buffer,,null,,,,,,,,,,,,,,,,,,
1582.300000011921,,memorable_rating,183818,Fictional_Cities_List/img_manmade_15.png,,51,,,3,,,,,,,,,,,,,,,
null,,confidence_buffer,183921,confidence_buffer,,null,,,,,,,,,,,,,,,,,,
null,,thebreak,184423,break,,null,,,,,,,,,,,,,,,,,,
1734.5,,familiar_rating,186159,Fictional_Cities_List/img_natural_15.png,,49,Fictional_Cities_List/img_natural_15.png,NAT,1,,,,,,,,,,,,,,,
null,,confidence_buffer,186260,confidence_buffer,,null,,,,,,,,,,,,,,,,,,
1813.5,,unique_rating,188074,Fictional_Cities_List/img_natural_15.png,,52,,,4,,,,,,,,,,,,,,,
null,,confidence_buffer,188177,confidence_buffer,,null,,,,,,,,,,,,,,,,,,
5059.5,,memorable_rating,193237,Fictional_Cities_List/img_natural_15.png,,51,,,3,,,,,,,,,,,,,,,
null,,confidence_buffer,193340,confidence_buffer,,null,,,,,,,,,,,,,,,,,,
null,,thebreak,193843,break,,null,,,,,,,,,,,,,,,,,,
2725.899999976158,,familiar_rating,196570,US_Cities_List/mm_athens.png,,51,US_Cities_List/mm_athens.png,MM,3,,,,,,,,,,,,,,,
null,,confidence_buffer,196672,confidence_buffer,,null,,,,,,,,,,,,,,,,,,
1843.300000011921,,unique_rating,198517,US_Cities_List/mm_athens.png,,50,,,2,,,,,,,,,,,,,,,
null,,confidence_buffer,198619,confidence_buffer,,null,,,,,,,,,,,,,,,,,,
1368.1000000238419,,memorable_rating,199988,US_Cities_List/mm_athens.png,,52,,,4,,,,,,,,,,,,,,,
null,,confidence_buffer,200090,confidence_buffer,,null,,,,,,,,,,,,,,,,,,
null,,thebreak,200605,break,,null,,,,,,,,,,,,,,,,,,
2801.099999964237,,familiar_rating,203407,Fictional_Cities_List/img_manmade_04.png,,52,Fictional_Cities_List/img_manmade_04.png,MM,4,,,,,,,,,,,,,,,
null,,confidence_buffer,203509,confidence_buffer,,null,,,,,,,,,,,,,,,,,,
2869.5,,probe_rating,206379,probe_rating,,53,,,,5,1,,,,,,,,,,,,,
null,,confidence_buffer,206481,confidence_buffer,,null,,,,,,,,,,,,,,,,,,
5176.5,,unique_rating,211658,Fictional_Cities_List/img_manmade_04.png,,50,,,2,,,,,,,,,,,,,,,
null,,confidence_buffer,211760,confidence_buffer,,null,,,,,,,,,,,,,,,,,,
1121.699999988079,,memorable_rating,212882,Fictional_Cities_List/img_manmade_04.png,,51,,,3,,,,,,,,,,,,,,,
null,,confidence_buffer,212984,confidence_buffer,,null,,,,,,,,,,,,,,,,,,
null,,thebreak,213486,break,,null,,,,,,,,,,,,,,,,,,
3448.599999964237,,familiar_rating,216936,US_Cities_List/nat_abilene.png,,50,US_Cities_List/nat_abilene.png,NAT,2,,,,,,,,,,,,,,,
null,,confidence_buffer,217038,confidence_buffer,,null,,,,,,,,,,,,,,,,,,
316.7000000476837,,unique_rating,217355,US_Cities_List/nat_abilene.png,,51,,,3,,,,,,,,,,,,,,,
null,,confidence_buffer,217457,confidence_buffer,,null,,,,,,,,,,,,,,,,,,
1126.800000011921,,memorable_rating,218586,US_Cities_List/nat_abilene.png,,52,,,4,,,,,,,,,,,,,,,
null,,confidence_buffer,218688,confidence_buffer,,null,,,,,,,,,,,,,,,,,,
null,,thebreak,219190,break,,null,,,,,,,,,,,,,,,,,,
2096.5,,familiar_rating,221287,Fictional_Cities_List/img_manmade_11.png,,50,Fictional_Cities_List/img_manmade_11.png,MM,2,,,,,,,,,,,,,,,
null,,confidence_buffer,221404,confidence_buffer,,null,,,,,,,,,,,,,,,,,,
1285.2000000476837,,unique_rating,222690,Fictional_Cities_List/img_manmade_11.png,,50,,,2,,,,,,,,,,,,,,,
null,,confidence_buffer,222791,confidence_buffer,,null,,,,,,,,,,,,,,,,,,
1071.7000000476837,,memorable_rating,223863,Fictional_Cities_List/img_manmade_11.png,,51,,,3,,,,,,,,,,,,,,,
null,,confidence_buffer,223966,confidence_buffer,,null,,,,,,,,,,,,,,,,,,
null,,thebreak,224467,break,,null,,,,,,,,,,,,,,,,,,
4080.800000011921,,familiar_rating,228549,US_Cities_List/mm_abilene.png,,49,US_Cities_List/mm_abilene.png,MM,1,,,,,,,,,,,,,,,
null,,confidence_buffer,228651,confidence_buffer,,null,,,,,,,,,,,,,,,,,,
1273.800000011921,,unique_rating,229926,US_Cities_List/mm_abilene.png,,53,,,5,,,,,,,,,,,,,,,
null,,confidence_buffer,230031,confidence_buffer,,null,,,,,,,,,,,,,,,,,,
937.8000000119209,,memorable_rating,230971,US_Cities_List/mm_abilene.png,,53,,,5,,,,,,,,,,,,,,,
null,,confidence_buffer,231072,confidence_buffer,,null,,,,,,,,,,,,,,,,,,
null,,thebreak,231574,break,,null,,,,,,,,,,,,,,,,,,
3509.599999964237,,familiar_rating,235085,US_Cities_List/mm_bisbee.png,,51,US_Cities_List/mm_bisbee.png,MM,3,,,,,,,,,,,,,,,
null,,confidence_buffer,235188,confidence_buffer,,null,,,,,,,,,,,,,,,,,,
1485.5,,probe_rating,236675,probe_rating,,53,,,,5,1,,,,,,,,,,,,,
null,,confidence_buffer,236783,confidence_buffer,,null,,,,,,,,,,,,,,,,,,
2920.199999988079,,unique_rating,239704,US_Cities_List/mm_bisbee.png,,51,,,3,,,,,,,,,,,,,,,
null,,confidence_buffer,239805,confidence_buffer,,null,,,,,,,,,,,,,,,,,,
5325.399999976158,,memorable_rating,245131,US_Cities_List/mm_bisbee.png,,52,,,4,,,,,,,,,,,,,,,
null,,confidence_buffer,245233,confidence_buffer,,null,,,,,,,,,,,,,,,,,,
null,,thebreak,245734,break,,null,,,,,,,,,,,,,,,,,,
7292.5,,familiar_rating,253027,US_Cities_List/mm_sitka.png,,49,US_Cities_List/mm_sitka.png,MM,1,,,,,,,,,,,,,,,
null,,confidence_buffer,253129,confidence_buffer,,null,,,,,,,,,,,,,,,,,,
5262.400000035763,,unique_rating,258393,US_Cities_List/mm_sitka.png,,51,,,3,,,,,,,,,,,,,,,
null,,confidence_buffer,258495,confidence_buffer,,null,,,,,,,,,,,,,,,,,,
674,,memorable_rating,259170,US_Cities_List/mm_sitka.png,,50,,,2,,,,,,,,,,,,,,,
null,,confidence_buffer,259271,confidence_buffer,,null,,,,,,,,,,,,,,,,,,
null,,thebreak,259773,break,,null,,,,,,,,,,,,,,,,,,
4381,,familiar_rating,264155,US_Cities_List/nat_coeurdalene.png,,52,US_Cities_List/nat_coeurdalene.png,NAT,4,,,,,,,,,,,,,,,
null,,confidence_buffer,264265,confidence_buffer,,null,,,,,,,,,,,,,,,,,,
3333.899999976158,,unique_rating,267600,US_Cities_List/nat_coeurdalene.png,,52,,,4,,,,,,,,,,,,,,,
null,,confidence_buffer,267701,confidence_buffer,,null,,,,,,,,,,,,,,,,,,
1672.5,,memorable_rating,269374,US_Cities_List/nat_coeurdalene.png,,53,,,5,,,,,,,,,,,,,,,
null,,confidence_buffer,269475,confidence_buffer,,null,,,,,,,,,,,,,,,,,,
null,,thebreak,269977,break,,null,,,,,,,,,,,,,,,,,,
2009.3999999761581,,familiar_rating,271988,Fictional_Cities_List/img_natural_10.png,,52,Fictional_Cities_List/img_natural_10.png,NAT,4,,,,,,,,,,,,,,,
null,,confidence_buffer,272090,confidence_buffer,,null,,,,,,,,,,,,,,,,,,
1184.199999988079,,unique_rating,273275,Fictional_Cities_List/img_natural_10.png,,52,,,4,,,,,,,,,,,,,,,
null,,confidence_buffer,273377,confidence_buffer,,null,,,,,,,,,,,,,,,,,,
1122.6000000238419,,memorable_rating,274501,Fictional_Cities_List/img_natural_10.png,,53,,,5,,,,,,,,,,,,,,,
null,,confidence_buffer,274602,confidence_buffer,,null,,,,,,,,,,,,,,,,,,
null,,thebreak,275115,break,,null,,,,,,,,,,,,,,,,,,
2447,,familiar_rating,277562,Fictional_Cities_List/img_manmade_01.png,,50,Fictional_Cities_List/img_manmade_01.png,MM,2,,,,,,,,,,,,,,,
null,,confidence_buffer,277664,confidence_buffer,,null,,,,,,,,,,,,,,,,,,
1367.5999999642372,,unique_rating,279033,Fictional_Cities_List/img_manmade_01.png,,51,,,3,,,,,,,,,,,,,,,
null,,confidence_buffer,279135,confidence_buffer,,null,,,,,,,,,,,,,,,,,,
1189.5,,memorable_rating,280325,Fictional_Cities_List/img_manmade_01.png,,52,,,4,,,,,,,,,,,,,,,
null,,confidence_buffer,280427,confidence_buffer,,null,,,,,,,,,,,,,,,,,,
null,,thebreak,280929,break,,null,,,,,,,,,,,,,,,,,,
1957.199999988079,,familiar_rating,282888,US_Cities_List/nat_hilo.png,,49,US_Cities_List/nat_hilo.png,NAT,1,,,,,,,,,,,,,,,
null,,confidence_buffer,282989,confidence_buffer,,null,,,,,,,,,,,,,,,,,,
1265.9000000357628,,unique_rating,284255,US_Cities_List/nat_hilo.png,,52,,,4,,,,,,,,,,,,,,,
null,,confidence_buffer,284358,confidence_buffer,,null,,,,,,,,,,,,,,,,,,
1216.2000000476837,,memorable_rating,285575,US_Cities_List/nat_hilo.png,,52,,,4,,,,,,,,,,,,,,,
null,,confidence_buffer,285689,confidence_buffer,,null,,,,,,,,,,,,,,,,,,
null,,thebreak,286190,break,,null,,,,,,,,,,,,,,,,,,
2717.5,,familiar_rating,288909,US_Cities_List/nat_peoria.png,,49,US_Cities_List/nat_peoria.png,NAT,1,,,,,,,,,,,,,,,
null,,confidence_buffer,289010,confidence_buffer,,null,,,,,,,,,,,,,,,,,,
1214,,unique_rating,290225,US_Cities_List/nat_peoria.png,,50,,,2,,,,,,,,,,,,,,,
null,,confidence_buffer,290328,confidence_buffer,,null,,,,,,,,,,,,,,,,,,
1364.0999999642372,,memorable_rating,291694,US_Cities_List/nat_peoria.png,,50,,,2,,,,,,,,,,,,,,,
null,,confidence_buffer,291796,confidence_buffer,,null,,,,,,,,,,,,,,,,,,
null,,thebreak,292297,break,,null,,,,,,,,,,,,,,,,,,
12512.100000023842,,familiar_rating,304810,US_Cities_List/nat_delawarecity.png,,50,US_Cities_List/nat_delawarecity.png,NAT,2,,,,,,,,,,,,,,,
null,,confidence_buffer,304912,confidence_buffer,,null,,,,,,,,,,,,,,,,,,
2199.199999988079,,unique_rating,307112,US_Cities_List/nat_delawarecity.png,,50,,,2,,,,,,,,,,,,,,,
null,,confidence_buffer,307213,confidence_buffer,,null,,,,,,,,,,,,,,,,,,
1334.7999999523163,,memorable_rating,308549,US_Cities_List/nat_delawarecity.png,,51,,,3,,,,,,,,,,,,,,,
null,,confidence_buffer,308650,confidence_buffer,,null,,,,,,,,,,,,,,,,,,
null,,thebreak,309151,break,,null,,,,,,,,,,,,,,,,,,
1949.199999988079,,familiar_rating,311101,Fictional_Cities_List/img_manmade_08.png,,49,Fictional_Cities_List/img_manmade_08.png,MM,1,,,,,,,,,,,,,,,
null,,confidence_buffer,311203,confidence_buffer,,null,,,,,,,,,,,,,,,,,,
736.1000000238419,,unique_rating,311940,Fictional_Cities_List/img_manmade_08.png,,53,,,5,,,,,,,,,,,,,,,
null,,confidence_buffer,312040,confidence_buffer,,null,,,,,,,,,,,,,,,,,,
769.4000000357628,,memorable_rating,312810,Fictional_Cities_List/img_manmade_08.png,,53,,,5,,,,,,,,,,,,,,,
null,,confidence_buffer,312912,confidence_buffer,,null,,,,,,,,,,,,,,,,,,
null,,thebreak,313413,break,,null,,,,,,,,,,,,,,,,,,
1921.5,,familiar_rating,315336,US_Cities_List/mm_peoria.png,,50,US_Cities_List/mm_peoria.png,MM,2,,,,,,,,,,,,,,,
null,,confidence_buffer,315437,confidence_buffer,,null,,,,,,,,,,,,,,,,,,
1875.300000011921,,unique_rating,317313,US_Cities_List/mm_peoria.png,,50,,,2,,,,,,,,,,,,,,,
null,,confidence_buffer,317415,confidence_buffer,,null,,,,,,,,,,,,,,,,,,
673.5999999642372,,memorable_rating,318089,US_Cities_List/mm_peoria.png,,51,,,3,,,,,,,,,,,,,,,
null,,confidence_buffer,318191,confidence_buffer,,null,,,,,,,,,,,,,,,,,,
null,,thebreak,318695,break,,null,,,,,,,,,,,,,,,,,,
3503.5,,familiar_rating,322200,US_Cities_List/mm_delawarecity.png,,53,US_Cities_List/mm_delawarecity.png,MM,5,,,,,,,,,,,,,,,
null,,confidence_buffer,322301,confidence_buffer,,null,,,,,,,,,,,,,,,,,,
1248.9000000357628,,unique_rating,323550,US_Cities_List/mm_delawarecity.png,,51,,,3,,,,,,,,,,,,,,,
null,,confidence_buffer,323652,confidence_buffer,,null,,,,,,,,,,,,,,,,,,
1191,,memorable_rating,324845,US_Cities_List/mm_delawarecity.png,,53,,,5,,,,,,,,,,,,,,,
null,,confidence_buffer,324946,confidence_buffer,,null,,,,,,,,,,,,,,,,,,
null,,thebreak,325448,break,,null,,,,,,,,,,,,,,,,,,
2631.5,,familiar_rating,328081,Fictional_Cities_List/img_natural_08.png,,53,Fictional_Cities_List/img_natural_08.png,NAT,5,,,,,,,,,,,,,,,
null,,confidence_buffer,328183,confidence_buffer,,null,,,,,,,,,,,,,,,,,,
976.6999999880791,,unique_rating,329160,Fictional_Cities_List/img_natural_08.png,,53,,,5,,,,,,,,,,,,,,,
null,,confidence_buffer,329260,confidence_buffer,,null,,,,,,,,,,,,,,,,,,
1128.1000000238419,,probe_rating,330389,probe_rating,,49,,,,1,1,,,,,,,,,,,,,
null,,confidence_buffer,330491,confidence_buffer,,null,,,,,,,,,,,,,,,,,,
1044.6000000238419,,memorable_rating,331537,Fictional_Cities_List/img_natural_08.png,,53,,,5,,,,,,,,,,,,,,,
null,,confidence_buffer,331639,confidence_buffer,,null,,,,,,,,,,,,,,,,,,
null,,thebreak,332139,break,,null,,,,,,,,,,,,,,,,,,
2426.7000000476837,,familiar_rating,334567,Fictional_Cities_List/img_natural_01.png,,51,Fictional_Cities_List/img_natural_01.png,NAT,3,,,,,,,,,,,,,,,
null,,confidence_buffer,334668,confidence_buffer,,null,,,,,,,,,,,,,,,,,,
1069,,unique_rating,335739,Fictional_Cities_List/img_natural_01.png,,50,,,2,,,,,,,,,,,,,,,
null,,confidence_buffer,335840,confidence_buffer,,null,,,,,,,,,,,,,,,,,,
2019.2999999523163,,memorable_rating,337860,Fictional_Cities_List/img_natural_01.png,,53,,,5,,,,,,,,,,,,,,,
null,,confidence_buffer,337962,confidence_buffer,,null,,,,,,,,,,,,,,,,,,
null,,thebreak,338463,break,,null,,,,,,,,,,,,,,,,,,
4645.5,,familiar_rating,343109,US_Cities_List/mm_boulder.png,,50,US_Cities_List/mm_boulder.png,MM,2,,,,,,,,,,,,,,,
null,,confidence_buffer,343211,confidence_buffer,,null,,,,,,,,,,,,,,,,,,
1280.199999988079,,unique_rating,344493,US_Cities_List/mm_boulder.png,,51,,,3,,,,,,,,,,,,,,,
null,,confidence_buffer,344594,confidence_buffer,,null,,,,,,,,,,,,,,,,,,
1067.9000000357628,,memorable_rating,345663,US_Cities_List/mm_boulder.png,,51,,,3,,,,,,,,,,,,,,,
null,,confidence_buffer,345764,confidence_buffer,,null,,,,,,,,,,,,,,,,,,
null,,thebreak,346265,break,,null,,,,,,,,,,,,,,,,,,
3505.100000023842,,familiar_rating,349771,Fictional_Cities_List/img_natural_14.png,,50,Fictional_Cities_List/img_natural_14.png,NAT,2,,,,,,,,,,,,,,,
null,,confidence_buffer,349872,confidence_buffer,,null,,,,,,,,,,,,,,,,,,
949.5,,unique_rating,350822,Fictional_Cities_List/img_natural_14.png,,50,,,2,,,,,,,,,,,,,,,
null,,confidence_buffer,350924,confidence_buffer,,null,,,,,,,,,,,,,,,,,,
857.6000000238419,,memorable_rating,351783,Fictional_Cities_List/img_natural_14.png,,50,,,2,,,,,,,,,,,,,,,
null,,confidence_buffer,351886,confidence_buffer,,null,,,,,,,,,,,,,,,,,,
null,,thebreak,352387,break,,null,,,,,,,,,,,,,,,,,,
9953.799999952316,,familiar_rating,362342,Fictional_Cities_List/img_natural_11.png,,50,Fictional_Cities_List/img_natural_11.png,NAT,2,,,,,,,,,,,,,,,
null,,confidence_buffer,362444,confidence_buffer,,null,,,,,,,,,,,,,,,,,,
1035.6000000238419,,unique_rating,363481,Fictional_Cities_List/img_natural_11.png,,53,,,5,,,,,,,,,,,,,,,
null,,confidence_buffer,363582,confidence_buffer,,null,,,,,,,,,,,,,,,,,,
1575.3999999761581,,memorable_rating,365158,Fictional_Cities_List/img_natural_11.png,,53,,,5,,,,,,,,,,,,,,,
null,,confidence_buffer,365260,confidence_buffer,,null,,,,,,,,,,,,,,,,,,
null,,thebreak,365762,break,,null,,,,,,,,,,,,,,,,,,
2667.699999988079,,familiar_rating,368430,Fictional_Cities_List/img_manmade_03.png,,49,Fictional_Cities_List/img_manmade_03.png,MM,1,,,,,,,,,,,,,,,
null,,confidence_buffer,368532,confidence_buffer,,null,,,,,,,,,,,,,,,,,,
586.6999999880791,,probe_rating,369119,probe_rating,,53,,,,5,0,,,,,,,,,,,,,
null,,confidence_buffer,369221,confidence_buffer,,null,,,,,,,,,,,,,,,,,,
1010.9000000357628,,unique_rating,370233,Fictional_Cities_List/img_manmade_03.png,,53,,,5,,,,,,,,,,,,,,,
null,,confidence_buffer,370335,confidence_buffer,,null,,,,,,,,,,,,,,,,,,
494.30000001192093,,memorable_rating,370830,Fictional_Cities_List/img_manmade_03.png,,53,,,5,,,,,,,,,,,,,,,
null,,confidence_buffer,370932,confidence_buffer,,null,,,,,,,,,,,,,,,,,,
null,,thebreak,371445,break,,null,,,,,,,,,,,,,,,,,,
8054.300000011921,,familiar_rating,379500,Fictional_Cities_List/img_natural_06.png,,50,Fictional_Cities_List/img_natural_06.png,NAT,2,,,,,,,,,,,,,,,
null,,confidence_buffer,379602,confidence_buffer,,null,,,,,,,,,,,,,,,,,,
827.5,,unique_rating,380431,Fictional_Cities_List/img_natural_06.png,,53,,,5,,,,,,,,,,,,,,,
null,,confidence_buffer,380531,confidence_buffer,,null,,,,,,,,,,,,,,,,,,
859.5,,probe_rating,381392,probe_rating,,51,,,,3,1,,,,,,,,,,,,,
null,,confidence_buffer,381494,confidence_buffer,,null,,,,,,,,,,,,,,,,,,
735,,memorable_rating,382229,Fictional_Cities_List/img_natural_06.png,,53,,,5,,,,,,,,,,,,,,,
null,,confidence_buffer,382331,confidence_buffer,,null,,,,,,,,,,,,,,,,,,
null,,thebreak,382833,break,,null,,,,,,,,,,,,,,,,,,
5994.699999988079,,familiar_rating,388828,US_Cities_List/mm_westpalmbeach.png,,49,US_Cities_List/mm_westpalmbeach.png,MM,1,,,,,,,,,,,,,,,
null,,confidence_buffer,388930,confidence_buffer,,null,,,,,,,,,,,,,,,,,,
1342.199999988079,,unique_rating,390272,US_Cities_List/mm_westpalmbeach.png,,53,,,5,,,,,,,,,,,,,,,
null,,confidence_buffer,390374,confidence_buffer,,null,,,,,,,,,,,,,,,,,,
736.8000000119209,,memorable_rating,391112,US_Cities_List/mm_westpalmbeach.png,,53,,,5,,,,,,,,,,,,,,,
null,,confidence_buffer,391213,confidence_buffer,,null,,,,,,,,,,,,,,,,,,
null,,thebreak,391713,break,,null,,,,,,,,,,,,,,,,,,
4646,,familiar_rating,396360,Fictional_Cities_List/img_manmade_09.png,,51,Fictional_Cities_List/img_manmade_09.png,MM,3,,,,,,,,,,,,,,,
null,,confidence_buffer,396461,confidence_buffer,,null,,,,,,,,,,,,,,,,,,
1007,,unique_rating,397469,Fictional_Cities_List/img_manmade_09.png,,50,,,2,,,,,,,,,,,,,,,
null,,confidence_buffer,397571,confidence_buffer,,null,,,,,,,,,,,,,,,,,,
1218.8999999761581,,memorable_rating,398790,Fictional_Cities_List/img_manmade_09.png,,52,,,4,,,,,,,,,,,,,,,
null,,confidence_buffer,398892,confidence_buffer,,null,,,,,,,,,,,,,,,,,,
1037.9000000357628,,probe_rating,399931,probe_rating,,49,,,,1,1,,,,,,,,,,,,,
null,,confidence_buffer,400033,confidence_buffer,,null,,,,,,,,,,,,,,,,,,
null,,thebreak,400533,break,,null,,,,,,,,,,,,,,,,,,
2066.899999976158,,familiar_rating,402601,US_Cities_List/nat_bisbee.png,,50,US_Cities_List/nat_bisbee.png,NAT,2,,,,,,,,,,,,,,,
null,,confidence_buffer,402702,confidence_buffer,,null,,,,,,,,,,,,,,,,,,
4972.400000035763,,unique_rating,407675,US_Cities_List/nat_bisbee.png,,50,,,2,,,,,,,,,,,,,,,
null,,confidence_buffer,407776,confidence_buffer,,null,,,,,,,,,,,,,,,,,,
1364.800000011921,,memorable_rating,409142,US_Cities_List/nat_bisbee.png,,52,,,4,,,,,,,,,,,,,,,
null,,confidence_buffer,409244,confidence_buffer,,null,,,,,,,,,,,,,,,,,,
null,,thebreak,409746,break,,null,,,,,,,,,,,,,,,,,,
1857.300000011921,,familiar_rating,411604,Fictional_Cities_List/img_natural_03.png,,49,Fictional_Cities_List/img_natural_03.png,NAT,1,,,,,,,,,,,,,,,
null,,confidence_buffer,411706,confidence_buffer,,null,,,,,,,,,,,,,,,,,,
941,,unique_rating,412648,Fictional_Cities_List/img_natural_03.png,,53,,,5,,,,,,,,,,,,,,,
null,,confidence_buffer,412749,confidence_buffer,,null,,,,,,,,,,,,,,,,,,
948.6999999880791,,memorable_rating,413698,Fictional_Cities_List/img_natural_03.png,,53,,,5,,,,,,,,,,,,,,,
null,,confidence_buffer,413800,confidence_buffer,,null,,,,,,,,,,,,,,,,,,
null,,thebreak,414301,break,,null,,,,,,,,,,,,,,,,,,
1292,,intro_0,415594,instruct,,32,,,,,,,,,,,,,,,,,,
565.6999999880791,,intro_1,416160,instruct,,32,,,,,,,,,,,,,,,,,,
1919,,intro_2,418080,instruct,,32,,,,,,,,,,,,,,,,,,
null,,instruct_dir_4,419581,instruct,,null,,,,,,,,,,,,,,,,,,
5251.5,,realistic_rating,424834,Fictional_Cities_List/img_natural_09.png,,51,Fictional_Cities_List/img_natural_09.png,NAT,3,,,,,,,,,,,,,,,
null,,confidence_buffer,424937,confidence_buffer,,null,,,,,,,,,,,,,,,,,,
1123.1000000238419,,probe_rating,426061,probe_rating,,53,,,,5,1,,,,,,,,,,,,,
null,,confidence_buffer,426163,confidence_buffer,,null,,,,,,,,,,,,,,,,,,
2239.5,,pt2_unique_rating,428403,Fictional_Cities_List/img_natural_09.png,,51,,,3,,,,,,,,,,,,,,,
null,,confidence_buffer,428504,confidence_buffer,,null,,,,,,,,,,,,,,,,,,
4274.300000011921,,pt2_memorable_rating,432780,Fictional_Cities_List/img_natural_09.png,,52,,,4,,,,,,,,,,,,,,,
null,,confidence_buffer,432881,confidence_buffer,,null,,,,,,,,,,,,,,,,,,
4127.5,,recognition_phase,437010,,,52,,,,,,MISSED,NaN,0,,,,,,,,,,
null,,confidence_buffer,437111,confidence_buffer,,null,,,,,,,,,,,,,,,,,,
null,,thebreak,437612,break,,null,,,,,,,,,,,,,,,,,,
5131.5,,realistic_rating,442744,Fictional_Cities_List/img_natural_14.png,,50,Fictional_Cities_List/img_natural_14.png,NAT,2,,,,,,,,,,,,,,,
null,,confidence_buffer,442859,confidence_buffer,,null,,,,,,,,,,,,,,,,,,
3149.399999976158,,pt2_unique_rating,446009,Fictional_Cities_List/img_natural_14.png,,50,,,2,,,,,,,,,,,,,,,
null,,confidence_buffer,446111,confidence_buffer,,null,,,,,,,,,,,,,,,,,,
2184.199999988079,,pt2_memorable_rating,448297,Fictional_Cities_List/img_natural_14.png,,51,,,3,,,,,,,,,,,,,,,
null,,confidence_buffer,448398,confidence_buffer,,null,,,,,,,,,,,,,,,,,,
2860.300000011921,,recognition_phase,451260,,,49,,,,,,old,1,0.5,,,,,,,,,,
null,,confidence_buffer,451361,confidence_buffer,,null,,,,,,,,,,,,,,,,,,
null,,thebreak,451863,break,,null,,,,,,,,,,,,,,,,,,
3085,,realistic_rating,454949,Fictional_Cities_List/img_natural_07.png,,53,Fictional_Cities_List/img_natural_07.png,NAT,5,,,,,,,,,,,,,,,
null,,confidence_buffer,455050,confidence_buffer,,null,,,,,,,,,,,,,,,,,,
8749.399999976158,,pt2_unique_rating,463801,Fictional_Cities_List/img_natural_07.png,,52,,,4,,,,,,,,,,,,,,,
null,,confidence_buffer,463903,confidence_buffer,,null,,,,,,,,,,,,,,,,,,
2090.100000023842,,pt2_memorable_rating,465994,Fictional_Cities_List/img_natural_07.png,,53,,,5,,,,,,,,,,,,,,,
null,,confidence_buffer,466096,confidence_buffer,,null,,,,,,,,,,,,,,,,,,
2202,,recognition_phase,468299,,,52,,,,,,MISSED,NaN,0.3333333333333333,,,,,,,,,,
null,,confidence_buffer,468400,confidence_buffer,,null,,,,,,,,,,,,,,,,,,
null,,thebreak,468903,break,,null,,,,,,,,,,,,,,,,,,
6537,,realistic_rating,475440,Fictional_Cities_List/img_manmade_05.png,,51,Fictional_Cities_List/img_manmade_05.png,MM,3,,,,,,,,,,,,,,,
null,,confidence_buffer,475542,confidence_buffer,,null,,,,,,,,,,,,,,,,,,
1276.1000000238419,,pt2_unique_rating,476820,Fictional_Cities_List/img_manmade_05.png,,51,,,3,,,,,,,,,,,,,,,
null,,confidence_buffer,476922,confidence_buffer,,null,,,,,,,,,,,,,,,,,,
1338,,pt2_memorable_rating,478261,Fictional_Cities_List/img_manmade_05.png,,52,,,4,,,,,,,,,,,,,,,
null,,confidence_buffer,478363,confidence_buffer,,null,,,,,,,,,,,,,,,,,,
1814,,recognition_phase,480178,,,52,,,,,,MISSED,NaN,0.25,,,,,,,,,,
null,,confidence_buffer,480280,confidence_buffer,,null,,,,,,,,,,,,,,,,,,
null,,thebreak,480782,break,,null,,,,,,,,,,,,,,,,,,
3870.199999988079,,realistic_rating,484654,US_Cities_List/nat_westpalmbeach.png,,52,US_Cities_List/nat_westpalmbeach.png,NAT,4,,,,,,,,,,,,,,,
null,,confidence_buffer,484756,confidence_buffer,,null,,,,,,,,,,,,,,,,,,
1515.6000000238419,,pt2_unique_rating,486272,US_Cities_List/nat_westpalmbeach.png,,52,,,4,,,,,,,,,,,,,,,
null,,confidence_buffer,486375,confidence_buffer,,null,,,,,,,,,,,,,,,,,,
1335.300000011921,,pt2_memorable_rating,487711,US_Cities_List/nat_westpalmbeach.png,,52,,,4,,,,,,,,,,,,,,,
null,,confidence_buffer,487813,confidence_buffer,,null,,,,,,,,,,,,,,,,,,
1820.9000000357628,,recognition_phase,489635,,,52,,,,,,MISSED,NaN,0.2,,,,,,,,,,
null,,confidence_buffer,489736,confidence_buffer,,null,,,,,,,,,,,,,,,,,,
null,,thebreak,490238,break,,null,,,,,,,,,,,,,,,,,,
2730.300000011921,,realistic_rating,492969,Fictional_Cities_List/img_manmade_15.png,,51,Fictional_Cities_List/img_manmade_15.png,MM,3,,,,,,,,,,,,,,,
null,,confidence_buffer,493071,confidence_buffer,,null,,,,,,,,,,,,,,,,,,
1448,,pt2_unique_rating,494520,Fictional_Cities_List/img_manmade_15.png,,51,,,3,,,,,,,,,,,,,,,
null,,confidence_buffer,494620,confidence_buffer,,null,,,,,,,,,,,,,,,,,,
1703,,probe_rating,496324,probe_rating,,53,,,,5,1,,,,,,,,,,,,,
null,,confidence_buffer,496426,confidence_buffer,,null,,,,,,,,,,,,,,,,,,
10213.600000023842,,pt2_memorable_rating,506641,Fictional_Cities_List/img_manmade_15.png,,52,,,4,,,,,,,,,,,,,,,
null,,confidence_buffer,506742,confidence_buffer,,null,,,,,,,,,,,,,,,,,,
2774.2000000476837,,recognition_phase,509518,,,49,,,,,,old,1,0.3333333333333333,,,,,,,,,,
null,,confidence_buffer,509621,confidence_buffer,,null,,,,,,,,,,,,,,,,,,
null,,thebreak,510122,break,,null,,,,,,,,,,,,,,,,,,
4198.900000035763,,realistic_rating,514322,Fictional_Cities_List/img_natural_11.png,,52,Fictional_Cities_List/img_natural_11.png,NAT,4,,,,,,,,,,,,,,,
null,,confidence_buffer,514424,confidence_buffer,,null,,,,,,,,,,,,,,,,,,
1580.6000000238419,,pt2_unique_rating,516006,Fictional_Cities_List/img_natural_11.png,,51,,,3,,,,,,,,,,,,,,,
null,,confidence_buffer,516107,confidence_buffer,,null,,,,,,,,,,,,,,,,,,
2774.399999976158,,pt2_memorable_rating,518883,Fictional_Cities_List/img_natural_11.png,,52,,,4,,,,,,,,,,,,,,,
null,,confidence_buffer,518985,confidence_buffer,,null,,,,,,,,,,,,,,,,,,
885,,probe_rating,519871,probe_rating,,49,,,,1,1,,,,,,,,,,,,,
null,,confidence_buffer,519972,confidence_buffer,,null,,,,,,,,,,,,,,,,,,
1123.5,,recognition_phase,521097,,,49,,,,,,old,1,0.42857142857142855,,,,,,,,,,
null,,confidence_buffer,521199,confidence_buffer,,null,,,,,,,,,,,,,,,,,,
null,,thebreak,521700,break,,null,,,,,,,,,,,,,,,,,,
2248.100000023842,,realistic_rating,523949,US_Cities_List/mm_okoboji.png,,53,US_Cities_List/mm_okoboji.png,MM,5,,,,,,,,,,,,,,,
null,,confidence_buffer,524050,confidence_buffer,,null,,,,,,,,,,,,,,,,,,
1406.2000000476837,,pt2_unique_rating,525457,US_Cities_List/mm_okoboji.png,,52,,,4,,,,,,,,,,,,,,,
null,,confidence_buffer,525560,confidence_buffer,,null,,,,,,,,,,,,,,,,,,
1118.199999988079,,pt2_memorable_rating,526679,US_Cities_List/mm_okoboji.png,,53,,,5,,,,,,,,,,,,,,,
null,,confidence_buffer,526781,confidence_buffer,,null,,,,,,,,,,,,,,,,,,
1370.7999999523163,,recognition_phase,528153,,,52,,,,,,MISSED,NaN,0.375,,,,,,,,,,
null,,confidence_buffer,528254,confidence_buffer,,null,,,,,,,,,,,,,,,,,,
null,,thebreak,528756,break,,null,,,,,,,,,,,,,,,,,,
2662.699999988079,,realistic_rating,531419,US_Cities_List/nat_boulder.png,,52,US_Cities_List/nat_boulder.png,NAT,4,,,,,,,,,,,,,,,
null,,confidence_buffer,531520,confidence_buffer,,null,,,,,,,,,,,,,,,,,,
1847.8999999761581,,pt2_unique_rating,533369,US_Cities_List/nat_boulder.png,,53,,,5,,,,,,,,,,,,,,,
null,,confidence_buffer,533471,confidence_buffer,,null,,,,,,,,,,,,,,,,,,
5691,,pt2_memorable_rating,539163,US_Cities_List/nat_boulder.png,,53,,,5,,,,,,,,,,,,,,,
null,,confidence_buffer,539266,confidence_buffer,,null,,,,,,,,,,,,,,,,,,
1478.5,,recognition_phase,540746,,,52,,,,,,MISSED,NaN,0.3333333333333333,,,,,,,,,,
null,,confidence_buffer,540848,confidence_buffer,,null,,,,,,,,,,,,,,,,,,
null,,thebreak,541350,break,,null,,,,,,,,,,,,,,,,,,
2701.300000011921,,realistic_rating,544052,US_Cities_List/nat_delawarecity.png,,52,US_Cities_List/nat_delawarecity.png,NAT,4,,,,,,,,,,,,,,,
null,,confidence_buffer,544154,confidence_buffer,,null,,,,,,,,,,,,,,,,,,
1154.800000011921,,pt2_unique_rating,545309,US_Cities_List/nat_delawarecity.png,,50,,,2,,,,,,,,,,,,,,,
null,,confidence_buffer,545411,confidence_buffer,,null,,,,,,,,,,,,,,,,,,
919.3000000119209,,probe_rating,546331,probe_rating,,52,,,,4,1,,,,,,,,,,,,,
null,,confidence_buffer,546433,confidence_buffer,,null,,,,,,,,,,,,,,,,,,
3260.300000011921,,pt2_memorable_rating,549694,US_Cities_List/nat_delawarecity.png,,52,,,4,,,,,,,,,,,,,,,
null,,confidence_buffer,549796,confidence_buffer,,null,,,,,,,,,,,,,,,,,,
3920.199999988079,,recognition_phase,553717,,,49,,,,,,old,1,0.4,,,,,,,,,,
null,,confidence_buffer,553818,confidence_buffer,,null,,,,,,,,,,,,,,,,,,
null,,thebreak,554320,break,,null,,,,,,,,,,,,,,,,,,
2303,,realistic_rating,556624,US_Cities_List/mm_delawarecity.png,,53,US_Cities_List/mm_delawarecity.png,MM,5,,,,,,,,,,,,,,,
null,,confidence_buffer,556726,confidence_buffer,,null,,,,,,,,,,,,,,,,,,
2418.300000011921,,pt2_unique_rating,559146,US_Cities_List/mm_delawarecity.png,,52,,,4,,,,,,,,,,,,,,,
null,,confidence_buffer,559247,confidence_buffer,,null,,,,,,,,,,,,,,,,,,
1150.699999988079,,pt2_memorable_rating,560399,US_Cities_List/mm_delawarecity.png,,52,,,4,,,,,,,,,,,,,,,
null,,confidence_buffer,560501,confidence_buffer,,null,,,,,,,,,,,,,,,,,,
1546.1000000238419,,recognition_phase,562049,,,49,,,,,,old,1,0.45454545454545453,,,,,,,,,,
null,,confidence_buffer,562150,confidence_buffer,,null,,,,,,,,,,,,,,,,,,
null,,thebreak,562664,break,,null,,,,,,,,,,,,,,,,,,
2478.600000023842,,realistic_rating,565143,Fictional_Cities_List/img_natural_15.png,,50,Fictional_Cities_List/img_natural_15.png,NAT,2,,,,,,,,,,,,,,,
null,,confidence_buffer,565245,confidence_buffer,,null,,,,,,,,,,,,,,,,,,
2087.300000011921,,pt2_unique_rating,567333,Fictional_Cities_List/img_natural_15.png,,52,,,4,,,,,,,,,,,,,,,
null,,confidence_buffer,567435,confidence_buffer,,null,,,,,,,,,,,,,,,,,,
762.8999999761581,,probe_rating,568199,probe_rating,,51,,,,3,1,,,,,,,,,,,,,
null,,confidence_buffer,568301,confidence_buffer,,null,,,,,,,,,,,,,,,,,,
1485.8999999761581,,pt2_memorable_rating,569787,Fictional_Cities_List/img_natural_15.png,,53,,,5,,,,,,,,,,,,,,,
null,,confidence_buffer,569889,confidence_buffer,,null,,,,,,,,,,,,,,,,,,
1912.6000000238419,,recognition_phase,571803,,,49,,,,,,old,1,0.5,,,,,,,,,,
null,,confidence_buffer,571906,confidence_buffer,,null,,,,,,,,,,,,,,,,,,
null,,thebreak,572407,break,,null,,,,,,,,,,,,,,,,,,
1620.2000000476837,,realistic_rating,574029,Fictional_Cities_List/img_manmade_11.png,,51,Fictional_Cities_List/img_manmade_11.png,MM,3,,,,,,,,,,,,,,,
null,,confidence_buffer,574132,confidence_buffer,,null,,,,,,,,,,,,,,,,,,
1924.0999999642372,,pt2_unique_rating,576057,Fictional_Cities_List/img_manmade_11.png,,50,,,2,,,,,,,,,,,,,,,
null,,confidence_buffer,576159,confidence_buffer,,null,,,,,,,,,,,,,,,,,,
2813.100000023842,,pt2_memorable_rating,578973,Fictional_Cities_List/img_manmade_11.png,,51,,,3,,,,,,,,,,,,,,,
null,,confidence_buffer,579075,confidence_buffer,,null,,,,,,,,,,,,,,,,,,
1753.300000011921,,recognition_phase,580830,,,49,,,,,,old,1,0.5384615384615384,,,,,,,,,,
null,,confidence_buffer,580932,confidence_buffer,,null,,,,,,,,,,,,,,,,,,
null,,thebreak,581433,break,,null,,,,,,,,,,,,,,,,,,
3267.199999988079,,realistic_rating,584701,Fictional_Cities_List/img_natural_06.png,,51,Fictional_Cities_List/img_natural_06.png,NAT,3,,,,,,,,,,,,,,,
null,,confidence_buffer,584804,confidence_buffer,,null,,,,,,,,,,,,,,,,,,
3463,,pt2_unique_rating,588268,Fictional_Cities_List/img_natural_06.png,,53,,,5,,,,,,,,,,,,,,,
null,,confidence_buffer,588370,confidence_buffer,,null,,,,,,,,,,,,,,,,,,
559.8000000119209,,pt2_memorable_rating,588930,Fictional_Cities_List/img_natural_06.png,,53,,,5,,,,,,,,,,,,,,,
null,,confidence_buffer,589032,confidence_buffer,,null,,,,,,,,,,,,,,,,,,
1365.300000011921,,recognition_phase,590399,,,49,,,,,,old,1,0.5714285714285714,,,,,,,,,,
null,,confidence_buffer,590501,confidence_buffer,,null,,,,,,,,,,,,,,,,,,
null,,thebreak,591002,break,,null,,,,,,,,,,,,,,,,,,
2911.199999988079,,realistic_rating,593914,Fictional_Cities_List/img_manmade_12.png,,51,Fictional_Cities_List/img_manmade_12.png,MM,3,,,,,,,,,,,,,,,
null,,confidence_buffer,594015,confidence_buffer,,null,,,,,,,,,,,,,,,,,,
6313.300000011921,,pt2_unique_rating,600330,Fictional_Cities_List/img_manmade_12.png,,51,,,3,,,,,,,,,,,,,,,
null,,confidence_buffer,600432,confidence_buffer,,null,,,,,,,,,,,,,,,,,,
5567.600000023842,,pt2_memorable_rating,606000,Fictional_Cities_List/img_manmade_12.png,,51,,,3,,,,,,,,,,,,,,,
null,,confidence_buffer,606101,confidence_buffer,,null,,,,,,,,,,,,,,,,,,
1640.199999988079,,recognition_phase,607743,,,52,,,,,,MISSED,NaN,0.5333333333333333,,,,,,,,,,
null,,confidence_buffer,607844,confidence_buffer,,null,,,,,,,,,,,,,,,,,,
null,,thebreak,608347,break,,null,,,,,,,,,,,,,,,,,,
3051.699999988079,,realistic_rating,611400,US_Cities_List/mm_healdsburg.png,,53,US_Cities_List/mm_healdsburg.png,MM,5,,,,,,,,,,,,,,,
null,,confidence_buffer,611501,confidence_buffer,,null,,,,,,,,,,,,,,,,,,
1070,,probe_rating,612571,probe_rating,,53,,,,5,1,,,,,,,,,,,,,
null,,confidence_buffer,612673,confidence_buffer,,null,,,,,,,,,,,,,,,,,,
1875.3999999761581,,pt2_unique_rating,614550,US_Cities_List/mm_healdsburg.png,,52,,,4,,,,,,,,,,,,,,,
null,,confidence_buffer,614651,confidence_buffer,,null,,,,,,,,,,,,,,,,,,
8690,,pt2_memorable_rating,623343,US_Cities_List/mm_healdsburg.png,,52,,,4,,,,,,,,,,,,,,,
null,,confidence_buffer,623445,confidence_buffer,,null,,,,,,,,,,,,,,,,,,
2234.600000023842,,recognition_phase,625681,,,52,,,,,,MISSED,NaN,0.5,,,,,,,,,,
null,,confidence_buffer,625783,confidence_buffer,,null,,,,,,,,,,,,,,,,,,
null,,thebreak,626284,break,,null,,,,,,,,,,,,,,,,,,
2723,,realistic_rating,629008,Fictional_Cities_List/img_manmade_06.png,,52,Fictional_Cities_List/img_manmade_06.png,MM,4,,,,,,,,,,,,,,,
null,,confidence_buffer,629109,confidence_buffer,,null,,,,,,,,,,,,,,,,,,
1067.699999988079,,pt2_unique_rating,630179,Fictional_Cities_List/img_manmade_06.png,,51,,,3,,,,,,,,,,,,,,,
null,,confidence_buffer,630280,confidence_buffer,,null,,,,,,,,,,,,,,,,,,
887,,probe_rating,631169,probe_rating,,51,,,,3,1,,,,,,,,,,,,,
null,,confidence_buffer,631271,confidence_buffer,,null,,,,,,,,,,,,,,,,,,
1937.6000000238419,,pt2_memorable_rating,633210,Fictional_Cities_List/img_manmade_06.png,,51,,,3,,,,,,,,,,,,,,,
null,,confidence_buffer,633312,confidence_buffer,,null,,,,,,,,,,,,,,,,,,
2112.899999976158,,recognition_phase,635426,,,52,,,,,,MISSED,NaN,0.47058823529411764,,,,,,,,,,
null,,confidence_buffer,635528,confidence_buffer,,null,,,,,,,,,,,,,,,,,,
null,,thebreak,636033,break,,null,,,,,,,,,,,,,,,,,,
1975.7000000476837,,realistic_rating,638010,US_Cities_List/nat_healdsburg.png,,52,US_Cities_List/nat_healdsburg.png,NAT,4,,,,,,,,,,,,,,,
null,,confidence_buffer,638112,confidence_buffer,,null,,,,,,,,,,,,,,,,,,
914.2999999523163,,pt2_unique_rating,639026,US_Cities_List/nat_healdsburg.png,,51,,,3,,,,,,,,,,,,,,,
null,,confidence_buffer,639129,confidence_buffer,,null,,,,,,,,,,,,,,,,,,
1187.800000011921,,pt2_memorable_rating,640317,US_Cities_List/nat_healdsburg.png,,51,,,3,,,,,,,,,,,,,,,
null,,confidence_buffer,640428,confidence_buffer,,null,,,,,,,,,,,,,,,,,,
3193.099999964237,,recognition_phase,643622,,,52,,,,,,MISSED,NaN,0.4444444444444444,,,,,,,,,,
null,,confidence_buffer,643724,confidence_buffer,,null,,,,,,,,,,,,,,,,,,
null,,thebreak,644225,break,,null,,,,,,,,,,,,,,,,,,
2572.100000023842,,realistic_rating,646798,US_Cities_List/nat_coeurdalene.png,,53,US_Cities_List/nat_coeurdalene.png,NAT,5,,,,,,,,,,,,,,,
null,,confidence_buffer,646899,confidence_buffer,,null,,,,,,,,,,,,,,,,,,
3075.599999964237,,pt2_unique_rating,649976,US_Cities_List/nat_coeurdalene.png,,53,,,5,,,,,,,,,,,,,,,
null,,confidence_buffer,650083,confidence_buffer,,null,,,,,,,,,,,,,,,,,,
886.3999999761581,,pt2_memorable_rating,650970,US_Cities_List/nat_coeurdalene.png,,53,,,5,,,,,,,,,,,,,,,
null,,confidence_buffer,651073,confidence_buffer,,null,,,,,,,,,,,,,,,,,,
1752.4000000357628,,recognition_phase,652826,,,49,,,,,,old,1,0.47368421052631576,,,,,,,,,,
null,,confidence_buffer,652928,confidence_buffer,,null,,,,,,,,,,,,,,,,,,
null,,thebreak,653430,break,,null,,,,,,,,,,,,,,,,,,
2909.599999964237,,realistic_rating,656340,US_Cities_List/mm_boulder.png,,53,US_Cities_List/mm_boulder.png,MM,5,,,,,,,,,,,,,,,
null,,confidence_buffer,656442,confidence_buffer,,null,,,,,,,,,,,,,,,,,,
2507.800000011921,,pt2_unique_rating,658951,US_Cities_List/mm_boulder.png,,52,,,4,,,,,,,,,,,,,,,
null,,confidence_buffer,659052,confidence_buffer,,null,,,,,,,,,,,,,,,,,,
1663.5,,pt2_memorable_rating,660716,US_Cities_List/mm_boulder.png,,52,,,4,,,,,,,,,,,,,,,
null,,confidence_buffer,660818,confidence_buffer,,null,,,,,,,,,,,,,,,,,,
1007.6999999880791,,recognition_phase,661826,,,49,,,,,,old,1,0.5,,,,,,,,,,
null,,confidence_buffer,661933,confidence_buffer,,null,,,,,,,,,,,,,,,,,,
null,,thebreak,662434,break,,null,,,,,,,,,,,,,,,,,,
5903.300000011921,,realistic_rating,668338,US_Cities_List/mm_peoria.png,,52,US_Cities_List/mm_peoria.png,MM,4,,,,,,,,,,,,,,,
null,,confidence_buffer,668439,confidence_buffer,,null,,,,,,,,,,,,,,,,,,
2777.7999999523163,,pt2_unique_rating,671218,US_Cities_List/mm_peoria.png,,51,,,3,,,,,,,,,,,,,,,
null,,confidence_buffer,671318,confidence_buffer,,null,,,,,,,,,,,,,,,,,,
1788.2999999523163,,pt2_memorable_rating,673108,US_Cities_List/mm_peoria.png,,51,,,3,,,,,,,,,,,,,,,
null,,confidence_buffer,673210,confidence_buffer,,null,,,,,,,,,,,,,,,,,,
2026.2000000476837,,recognition_phase,675237,,,49,,,,,,old,1,0.5238095238095238,,,,,,,,,,
null,,confidence_buffer,675338,confidence_buffer,,null,,,,,,,,,,,,,,,,,,
null,,thebreak,675840,break,,null,,,,,,,,,,,,,,,,,,
11728.599999964237,,realistic_rating,687569,US_Cities_List/nat_hilo.png,,51,US_Cities_List/nat_hilo.png,NAT,3,,,,,,,,,,,,,,,
null,,confidence_buffer,687670,confidence_buffer,,null,,,,,,,,,,,,,,,,,,
1363.199999988079,,pt2_unique_rating,689034,US_Cities_List/nat_hilo.png,,51,,,3,,,,,,,,,,,,,,,
null,,confidence_buffer,689135,confidence_buffer,,null,,,,,,,,,,,,,,,,,,
1339.800000011921,,pt2_memorable_rating,690475,US_Cities_List/nat_hilo.png,,50,,,2,,,,,,,,,,,,,,,
null,,confidence_buffer,690576,confidence_buffer,,null,,,,,,,,,,,,,,,,,,
3294.600000023842,,recognition_phase,693872,,,51,,,,,,MISSED,NaN,0.5,,,,,,,,,,
null,,confidence_buffer,693974,confidence_buffer,,null,,,,,,,,,,,,,,,,,,
null,,thebreak,694475,break,,null,,,,,,,,,,,,,,,,,,
4345.299999952316,,realistic_rating,698822,US_Cities_List/nat_hotsprings.png,,51,US_Cities_List/nat_hotsprings.png,NAT,3,,,,,,,,,,,,,,,
null,,confidence_buffer,698924,confidence_buffer,,null,,,,,,,,,,,,,,,,,,
1182.8999999761581,,pt2_unique_rating,700108,US_Cities_List/nat_hotsprings.png,,50,,,2,,,,,,,,,,,,,,,
null,,confidence_buffer,700209,confidence_buffer,,null,,,,,,,,,,,,,,,,,,
674.7999999523163,,pt2_memorable_rating,700885,US_Cities_List/nat_hotsprings.png,,50,,,2,,,,,,,,,,,,,,,
null,,confidence_buffer,700987,confidence_buffer,,null,,,,,,,,,,,,,,,,,,
1877.6000000238419,,recognition_phase,702865,,,52,,,,,,MISSED,NaN,0.4782608695652174,,,,,,,,,,
null,,confidence_buffer,702973,confidence_buffer,,null,,,,,,,,,,,,,,,,,,
null,,thebreak,703474,break,,null,,,,,,,,,,,,,,,,,,
3834,,realistic_rating,707309,Fictional_Cities_List/img_natural_03.png,,49,Fictional_Cities_List/img_natural_03.png,NAT,1,,,,,,,,,,,,,,,
null,,confidence_buffer,707410,confidence_buffer,,null,,,,,,,,,,,,,,,,,,
1995.2999999523163,,pt2_unique_rating,709406,Fictional_Cities_List/img_natural_03.png,,53,,,5,,,,,,,,,,,,,,,
null,,confidence_buffer,709521,confidence_buffer,,null,,,,,,,,,,,,,,,,,,
811.6000000238419,,pt2_memorable_rating,710334,Fictional_Cities_List/img_natural_03.png,,53,,,5,,,,,,,,,,,,,,,
null,,confidence_buffer,710435,confidence_buffer,,null,,,,,,,,,,,,,,,,,,
1608.5,,recognition_phase,712044,,,49,,,,,,old,1,0.5,,,,,,,,,,
null,,confidence_buffer,712145,confidence_buffer,,null,,,,,,,,,,,,,,,,,,
null,,thebreak,712646,break,,null,,,,,,,,,,,,,,,,,,
2460.600000023842,,realistic_rating,715108,Fictional_Cities_List/img_natural_10.png,,53,Fictional_Cities_List/img_natural_10.png,NAT,5,,,,,,,,,,,,,,,
null,,confidence_buffer,715209,confidence_buffer,,null,,,,,,,,,,,,,,,,,,
1399.699999988079,,pt2_unique_rating,716610,Fictional_Cities_List/img_natural_10.png,,53,,,5,,,,,,,,,,,,,,,
null,,confidence_buffer,716711,confidence_buffer,,null,,,,,,,,,,,,,,,,,,
1634.9000000357628,,pt2_memorable_rating,718347,Fictional_Cities_List/img_natural_10.png,,53,,,5,,,,,,,,,,,,,,,
null,,confidence_buffer,718460,confidence_buffer,,null,,,,,,,,,,,,,,,,,,
1233.8999999761581,,recognition_phase,719695,,,49,,,,,,old,1,0.52,,,,,,,,,,
null,,confidence_buffer,719796,confidence_buffer,,null,,,,,,,,,,,,,,,,,,
null,,thebreak,720298,break,,null,,,,,,,,,,,,,,,,,,
4675.299999952316,,realistic_rating,724974,Fictional_Cities_List/img_natural_12.png,,50,Fictional_Cities_List/img_natural_12.png,NAT,2,,,,,,,,,,,,,,,
null,,confidence_buffer,725076,confidence_buffer,,null,,,,,,,,,,,,,,,,,,
1973.699999988079,,pt2_unique_rating,727050,Fictional_Cities_List/img_natural_12.png,,53,,,5,,,,,,,,,,,,,,,
null,,confidence_buffer,727153,confidence_buffer,,null,,,,,,,,,,,,,,,,,,
552.3000000119209,,pt2_memorable_rating,727706,Fictional_Cities_List/img_natural_12.png,,53,,,5,,,,,,,,,,,,,,,
null,,confidence_buffer,727809,confidence_buffer,,null,,,,,,,,,,,,,,,,,,
1190.0999999642372,,recognition_phase,728999,,,52,,,,,,MISSED,NaN,0.5,,,,,,,,,,
null,,confidence_buffer,729101,confidence_buffer,,null,,,,,,,,,,,,,,,,,,
null,,thebreak,729603,break,,null,,,,,,,,,,,,,,,,,,
2427.199999988079,,realistic_rating,732031,Fictional_Cities_List/img_natural_04.png,,50,Fictional_Cities_List/img_natural_04.png,NAT,2,,,,,,,,,,,,,,,
null,,confidence_buffer,732133,confidence_buffer,,null,,,,,,,,,,,,,,,,,,
4481.300000011921,,pt2_unique_rating,736615,Fictional_Cities_List/img_natural_04.png,,52,,,4,,,,,,,,,,,,,,,
null,,confidence_buffer,736716,confidence_buffer,,null,,,,,,,,,,,,,,,,,,
1189.4000000357628,,pt2_memorable_rating,737906,Fictional_Cities_List/img_natural_04.png,,52,,,4,,,,,,,,,,,,,,,
null,,confidence_buffer,738012,confidence_buffer,,null,,,,,,,,,,,,,,,,,,
1450.5,,recognition_phase,739464,,,52,,,,,,MISSED,NaN,0.48148148148148145,,,,,,,,,,
null,,confidence_buffer,739565,confidence_buffer,,null,,,,,,,,,,,,,,,,,,
null,,thebreak,740067,break,,null,,,,,,,,,,,,,,,,,,
2161.5,,realistic_rating,742229,US_Cities_List/mm_carmel.png,,53,US_Cities_List/mm_carmel.png,MM,5,,,,,,,,,,,,,,,
null,,confidence_buffer,742330,confidence_buffer,,null,,,,,,,,,,,,,,,,,,
1274.8999999761581,,pt2_unique_rating,743606,US_Cities_List/mm_carmel.png,,51,,,3,,,,,,,,,,,,,,,
null,,confidence_buffer,743708,confidence_buffer,,null,,,,,,,,,,,,,,,,,,
1189.1000000238419,,pt2_memorable_rating,744898,US_Cities_List/mm_carmel.png,,51,,,3,,,,,,,,,,,,,,,
null,,confidence_buffer,745000,confidence_buffer,,null,,,,,,,,,,,,,,,,,,
1127,,recognition_phase,746128,,,52,,,,,,MISSED,NaN,0.4642857142857143,,,,,,,,,,
null,,confidence_buffer,746230,confidence_buffer,,null,,,,,,,,,,,,,,,,,,
null,,thebreak,746732,break,,null,,,,,,,,,,,,,,,,,,
4678.100000023842,,realistic_rating,751410,US_Cities_List/nat_abilene.png,,52,US_Cities_List/nat_abilene.png,NAT,4,,,,,,,,,,,,,,,
null,,confidence_buffer,751513,confidence_buffer,,null,,,,,,,,,,,,,,,,,,
1483.4000000357628,,pt2_unique_rating,752997,US_Cities_List/nat_abilene.png,,51,,,3,,,,,,,,,,,,,,,
null,,confidence_buffer,753098,confidence_buffer,,null,,,,,,,,,,,,,,,,,,
19011.5,,pt2_memorable_rating,772110,US_Cities_List/nat_abilene.png,,50,,,2,,,,,,,,,,,,,,,
null,,confidence_buffer,772212,confidence_buffer,,null,,,,,,,,,,,,,,,,,,
1723.8999999761581,,recognition_phase,773937,,,50,,,,,,new,0,0.4482758620689655,,,,,,,,,,
null,,confidence_buffer,774039,confidence_buffer,,null,,,,,,,,,,,,,,,,,,
null,,thebreak,774542,break,,null,,,,,,,,,,,,,,,,,,
3051,,realistic_rating,777593,US_Cities_List/mm_abilene.png,,53,US_Cities_List/mm_abilene.png,MM,5,,,,,,,,,,,,,,,
null,,confidence_buffer,777696,confidence_buffer,,null,,,,,,,,,,,,,,,,,,
1101.300000011921,,pt2_unique_rating,778798,US_Cities_List/mm_abilene.png,,53,,,5,,,,,,,,,,,,,,,
null,,confidence_buffer,778900,confidence_buffer,,null,,,,,,,,,,,,,,,,,,
2023.300000011921,,pt2_memorable_rating,780924,US_Cities_List/mm_abilene.png,,53,,,5,,,,,,,,,,,,,,,
null,,confidence_buffer,781026,confidence_buffer,,null,,,,,,,,,,,,,,,,,,
1489.699999988079,,recognition_phase,782517,,,49,,,,,,old,1,0.4666666666666667,,,,,,,,,,
null,,confidence_buffer,782618,confidence_buffer,,null,,,,,,,,,,,,,,,,,,
null,,thebreak,783120,break,,null,,,,,,,,,,,,,,,,,,
4583.199999988079,,realistic_rating,787705,Fictional_Cities_List/img_manmade_08.png,,50,Fictional_Cities_List/img_manmade_08.png,MM,2,,,,,,,,,,,,,,,
null,,confidence_buffer,787806,confidence_buffer,,null,,,,,,,,,,,,,,,,,,
2962.699999988079,,pt2_unique_rating,790769,Fictional_Cities_List/img_manmade_08.png,,52,,,4,,,,,,,,,,,,,,,
null,,confidence_buffer,790871,confidence_buffer,,null,,,,,,,,,,,,,,,,,,
705.3000000119209,,probe_rating,791577,probe_rating,,51,,,,3,1,,,,,,,,,,,,,
null,,confidence_buffer,791679,confidence_buffer,,null,,,,,,,,,,,,,,,,,,
3739.100000023842,,pt2_memorable_rating,795420,Fictional_Cities_List/img_manmade_08.png,,52,,,4,,,,,,,,,,,,,,,
null,,confidence_buffer,795521,confidence_buffer,,null,,,,,,,,,,,,,,,,,,
1550,,recognition_phase,797072,,,49,,,,,,old,1,0.4838709677419355,,,,,,,,,,
null,,confidence_buffer,797174,confidence_buffer,,null,,,,,,,,,,,,,,,,,,
null,,thebreak,797676,break,,null,,,,,,,,,,,,,,,,,,
2659,,realistic_rating,800336,US_Cities_List/mm_hotsprings.png,,53,US_Cities_List/mm_hotsprings.png,MM,5,,,,,,,,,,,,,,,
null,,confidence_buffer,800437,confidence_buffer,,null,,,,,,,,,,,,,,,,,,
1428.800000011921,,pt2_unique_rating,801867,US_Cities_List/mm_hotsprings.png,,51,,,3,,,,,,,,,,,,,,,
null,,confidence_buffer,801969,confidence_buffer,,null,,,,,,,,,,,,,,,,,,
1033.5,,pt2_memorable_rating,803004,US_Cities_List/mm_hotsprings.png,,52,,,4,,,,,,,,,,,,,,,
null,,confidence_buffer,803105,confidence_buffer,,null,,,,,,,,,,,,,,,,,,
1370.1000000238419,,recognition_phase,804476,,,52,,,,,,MISSED,NaN,0.46875,,,,,,,,,,
null,,confidence_buffer,804579,confidence_buffer,,null,,,,,,,,,,,,,,,,,,
null,,thebreak,805080,break,,null,,,,,,,,,,,,,,,,,,
2425.900000035763,,realistic_rating,807507,US_Cities_List/mm_sitka.png,,53,US_Cities_List/mm_sitka.png,MM,5,,,,,,,,,,,,,,,
null,,confidence_buffer,807609,confidence_buffer,,null,,,,,,,,,,,,,,,,,,
2503.199999988079,,pt2_unique_rating,810113,US_Cities_List/mm_sitka.png,,51,,,3,,,,,,,,,,,,,,,
null,,confidence_buffer,810215,confidence_buffer,,null,,,,,,,,,,,,,,,,,,
1458.1000000238419,,pt2_memorable_rating,811675,US_Cities_List/mm_sitka.png,,51,,,3,,,,,,,,,,,,,,,
null,,confidence_buffer,811779,confidence_buffer,,null,,,,,,,,,,,,,,,,,,
1670.300000011921,,recognition_phase,813450,,,49,,,,,,old,1,0.48484848484848486,,,,,,,,,,
null,,confidence_buffer,813553,confidence_buffer,,null,,,,,,,,,,,,,,,,,,
null,,thebreak,814055,break,,null,,,,,,,,,,,,,,,,,,
1673.699999988079,,realistic_rating,815729,US_Cities_List/nat_sitka.png,,53,US_Cities_List/nat_sitka.png,NAT,5,,,,,,,,,,,,,,,
null,,confidence_buffer,815832,confidence_buffer,,null,,,,,,,,,,,,,,,,,,
1810.9000000357628,,pt2_unique_rating,817644,US_Cities_List/nat_sitka.png,,51,,,3,,,,,,,,,,,,,,,
null,,confidence_buffer,817745,confidence_buffer,,null,,,,,,,,,,,,,,,,,,
1276.5,,pt2_memorable_rating,819022,US_Cities_List/nat_sitka.png,,51,,,3,,,,,,,,,,,,,,,
null,,confidence_buffer,819124,confidence_buffer,,null,,,,,,,,,,,,,,,,,,
801,,recognition_phase,819926,,,52,,,,,,MISSED,NaN,0.47058823529411764,,,,,,,,,,
null,,confidence_buffer,820027,confidence_buffer,,null,,,,,,,,,,,,,,,,,,
null,,thebreak,820528,break,,null,,,,,,,,,,,,,,,,,,
2757.400000035763,,realistic_rating,823286,US_Cities_List/mm_bisbee.png,,53,US_Cities_List/mm_bisbee.png,MM,5,,,,,,,,,,,,,,,
null,,confidence_buffer,823395,confidence_buffer,,null,,,,,,,,,,,,,,,,,,
1088.699999988079,,pt2_unique_rating,824485,US_Cities_List/mm_bisbee.png,,51,,,3,,,,,,,,,,,,,,,
null,,confidence_buffer,824588,confidence_buffer,,null,,,,,,,,,,,,,,,,,,
675.6000000238419,,pt2_memorable_rating,825264,US_Cities_List/mm_bisbee.png,,51,,,3,,,,,,,,,,,,,,,
null,,confidence_buffer,825367,confidence_buffer,,null,,,,,,,,,,,,,,,,,,
1041.5999999642372,,recognition_phase,826409,,,49,,,,,,old,1,0.4857142857142857,,,,,,,,,,
null,,confidence_buffer,826511,confidence_buffer,,null,,,,,,,,,,,,,,,,,,
null,,thebreak,827013,break,,null,,,,,,,,,,,,,,,,,,
1819.800000011921,,realistic_rating,828834,US_Cities_List/mm_cornwall.png,,53,US_Cities_List/mm_cornwall.png,MM,5,,,,,,,,,,,,,,,
null,,confidence_buffer,828936,confidence_buffer,,null,,,,,,,,,,,,,,,,,,
1968.5999999642372,,pt2_unique_rating,830905,US_Cities_List/mm_cornwall.png,,52,,,4,,,,,,,,,,,,,,,
null,,confidence_buffer,831016,confidence_buffer,,null,,,,,,,,,,,,,,,,,,
3671,,pt2_memorable_rating,834689,US_Cities_List/mm_cornwall.png,,51,,,3,,,,,,,,,,,,,,,
null,,confidence_buffer,834790,confidence_buffer,,null,,,,,,,,,,,,,,,,,,
null,,recognition_phase,849793,,,null,,,,,,MISSED,NaN,0.4722222222222222,,,,,,,,,,
null,,confidence_buffer,849895,confidence_buffer,,null,,,,,,,,,,,,,,,,,,
null,,thebreak,850398,break,,null,,,,,,,,,,,,,,,,,,
8498.799999952316,,realistic_rating,858899,US_Cities_List/mm_hilo.png,,52,US_Cities_List/mm_hilo.png,MM,4,,,,,,,,,,,,,,,
null,,confidence_buffer,859001,confidence_buffer,,null,,,,,,,,,,,,,,,,,,
3312.600000023842,,pt2_unique_rating,862315,US_Cities_List/mm_hilo.png,,51,,,3,,,,,,,,,,,,,,,
null,,confidence_buffer,862420,confidence_buffer,,null,,,,,,,,,,,,,,,,,,
1211,,pt2_memorable_rating,863632,US_Cities_List/mm_hilo.png,,51,,,3,,,,,,,,,,,,,,,
null,,confidence_buffer,863733,confidence_buffer,,null,,,,,,,,,,,,,,,,,,
1158.3999999761581,,recognition_phase,864892,,,52,,,,,,MISSED,NaN,0.4594594594594595,,,,,,,,,,
null,,confidence_buffer,864994,confidence_buffer,,null,,,,,,,,,,,,,,,,,,
null,,thebreak,865495,break,,null,,,,,,,,,,,,,,,,,,
3150.399999976158,,realistic_rating,868646,Fictional_Cities_List/img_manmade_04.png,,51,Fictional_Cities_List/img_manmade_04.png,MM,3,,,,,,,,,,,,,,,
null,,confidence_buffer,868747,confidence_buffer,,null,,,,,,,,,,,,,,,,,,
3859.5,,pt2_unique_rating,872608,Fictional_Cities_List/img_manmade_04.png,,51,,,3,,,,,,,,,,,,,,,
null,,confidence_buffer,872710,confidence_buffer,,null,,,,,,,,,,,,,,,,,,
734.2000000476837,,pt2_memorable_rating,873445,Fictional_Cities_List/img_manmade_04.png,,51,,,3,,,,,,,,,,,,,,,
null,,confidence_buffer,873558,confidence_buffer,,null,,,,,,,,,,,,,,,,,,
1171.7000000476837,,recognition_phase,874731,,,49,,,,,,old,1,0.47368421052631576,,,,,,,,,,
null,,confidence_buffer,874833,confidence_buffer,,null,,,,,,,,,,,,,,,,,,
null,,thebreak,875335,break,,null,,,,,,,,,,,,,,,,,,
2157.899999976158,,realistic_rating,877494,Fictional_Cities_List/img_natural_13.png,,49,Fictional_Cities_List/img_natural_13.png,NAT,1,,,,,,,,,,,,,,,
null,,confidence_buffer,877596,confidence_buffer,,null,,,,,,,,,,,,,,,,,,
2478.899999976158,,pt2_unique_rating,880077,Fictional_Cities_List/img_natural_13.png,,52,,,4,,,,,,,,,,,,,,,
null,,confidence_buffer,880178,confidence_buffer,,null,,,,,,,,,,,,,,,,,,
556.8999999761581,,pt2_memorable_rating,880736,Fictional_Cities_List/img_natural_13.png,,52,,,4,,,,,,,,,,,,,,,
null,,confidence_buffer,880838,confidence_buffer,,null,,,,,,,,,,,,,,,,,,
794.8999999761581,,probe_rating,881634,probe_rating,,52,,,,4,1,,,,,,,,,,,,,
null,,confidence_buffer,881736,confidence_buffer,,null,,,,,,,,,,,,,,,,,,
1007.6999999880791,,recognition_phase,882744,,,52,,,,,,MISSED,NaN,0.46153846153846156,,,,,,,,,,
null,,confidence_buffer,882852,confidence_buffer,,null,,,,,,,,,,,,,,,,,,
null,,thebreak,883354,break,,null,,,,,,,,,,,,,,,,,,
3380.7999999523163,,realistic_rating,886735,Fictional_Cities_List/img_natural_01.png,,52,Fictional_Cities_List/img_natural_01.png,NAT,4,,,,,,,,,,,,,,,
null,,confidence_buffer,886837,confidence_buffer,,null,,,,,,,,,,,,,,,,,,
1665.699999988079,,pt2_unique_rating,888504,Fictional_Cities_List/img_natural_01.png,,52,,,4,,,,,,,,,,,,,,,
null,,confidence_buffer,888605,confidence_buffer,,null,,,,,,,,,,,,,,,,,,
503.30000001192093,,pt2_memorable_rating,889109,Fictional_Cities_List/img_natural_01.png,,51,,,3,,,,,,,,,,,,,,,
null,,confidence_buffer,889212,confidence_buffer,,null,,,,,,,,,,,,,,,,,,
1185.8999999761581,,recognition_phase,890399,,,49,,,,,,old,1,0.475,,,,,,,,,,
null,,confidence_buffer,890502,confidence_buffer,,null,,,,,,,,,,,,,,,,,,
null,,thebreak,891003,break,,null,,,,,,,,,,,,,,,,,,
1847.4000000357628,,realistic_rating,892852,US_Cities_List/nat_athens.png,,53,US_Cities_List/nat_athens.png,NAT,5,,,,,,,,,,,,,,,
null,,confidence_buffer,892952,confidence_buffer,,null,,,,,,,,,,,,,,,,,,
1641.9000000357628,,pt2_unique_rating,894595,US_Cities_List/nat_athens.png,,52,,,4,,,,,,,,,,,,,,,
null,,confidence_buffer,894696,confidence_buffer,,null,,,,,,,,,,,,,,,,,,
3406.5,,pt2_memorable_rating,898103,US_Cities_List/nat_athens.png,,51,,,3,,,,,,,,,,,,,,,
null,,confidence_buffer,898205,confidence_buffer,,null,,,,,,,,,,,,,,,,,,
827.6000000238419,,probe_rating,899033,probe_rating,,50,,,,2,1,,,,,,,,,,,,,
null,,confidence_buffer,899134,confidence_buffer,,null,,,,,,,,,,,,,,,,,,
1756,,recognition_phase,900891,,,52,,,,,,MISSED,NaN,0.4634146341463415,,,,,,,,,,
null,,confidence_buffer,900994,confidence_buffer,,null,,,,,,,,,,,,,,,,,,
null,,thebreak,901495,break,,null,,,,,,,,,,,,,,,,,,
1857.4000000357628,,realistic_rating,903353,US_Cities_List/nat_cornwall.png,,53,US_Cities_List/nat_cornwall.png,NAT,5,,,,,,,,,,,,,,,
null,,confidence_buffer,903455,confidence_buffer,,null,,,,,,,,,,,,,,,,,,
1965.699999988079,,pt2_unique_rating,905421,US_Cities_List/nat_cornwall.png,,53,,,5,,,,,,,,,,,,,,,
null,,confidence_buffer,905523,confidence_buffer,,null,,,,,,,,,,,,,,,,,,
679,,pt2_memorable_rating,906202,US_Cities_List/nat_cornwall.png,,53,,,5,,,,,,,,,,,,,,,
null,,confidence_buffer,906304,confidence_buffer,,null,,,,,,,,,,,,,,,,,,
1910,,recognition_phase,908215,,,52,,,,,,MISSED,NaN,0.4523809523809524,,,,,,,,,,
null,,confidence_buffer,908322,confidence_buffer,,null,,,,,,,,,,,,,,,,,,
null,,thebreak,908823,break,,null,,,,,,,,,,,,,,,,,,
3410.5,,realistic_rating,912234,Fictional_Cities_List/img_manmade_09.png,,53,Fictional_Cities_List/img_manmade_09.png,MM,5,,,,,,,,,,,,,,,
null,,confidence_buffer,912335,confidence_buffer,,null,,,,,,,,,,,,,,,,,,
4519.399999976158,,pt2_unique_rating,916855,Fictional_Cities_List/img_manmade_09.png,,52,,,4,,,,,,,,,,,,,,,
null,,confidence_buffer,916960,confidence_buffer,,null,,,,,,,,,,,,,,,,,,
1751.300000011921,,pt2_memorable_rating,918713,Fictional_Cities_List/img_manmade_09.png,,50,,,2,,,,,,,,,,,,,,,
null,,confidence_buffer,918814,confidence_buffer,,null,,,,,,,,,,,,,,,,,,
1816.199999988079,,recognition_phase,920631,,,49,,,,,,old,1,0.46511627906976744,,,,,,,,,,
null,,confidence_buffer,920732,confidence_buffer,,null,,,,,,,,,,,,,,,,,,
null,,thebreak,921234,break,,null,,,,,,,,,,,,,,,,,,
3058.2999999523163,,realistic_rating,924293,Fictional_Cities_List/img_manmade_10.png,,50,Fictional_Cities_List/img_manmade_10.png,MM,2,,,,,,,,,,,,,,,
null,,confidence_buffer,924395,confidence_buffer,,null,,,,,,,,,,,,,,,,,,
1665.699999988079,,pt2_unique_rating,926062,Fictional_Cities_List/img_manmade_10.png,,51,,,3,,,,,,,,,,,,,,,
null,,confidence_buffer,926163,confidence_buffer,,null,,,,,,,,,,,,,,,,,,
1697.5999999642372,,pt2_memorable_rating,927861,Fictional_Cities_List/img_manmade_10.png,,52,,,4,,,,,,,,,,,,,,,
null,,confidence_buffer,927963,confidence_buffer,,null,,,,,,,,,,,,,,,,,,
2056.2999999523163,,recognition_phase,930020,,,52,,,,,,MISSED,NaN,0.45454545454545453,,,,,,,,,,
null,,confidence_buffer,930122,confidence_buffer,,null,,,,,,,,,,,,,,,,,,
null,,thebreak,930623,break,,null,,,,,,,,,,,,,,,,,,
3566.899999976158,,realistic_rating,934191,Fictional_Cities_List/img_manmade_01.png,,51,Fictional_Cities_List/img_manmade_01.png,MM,3,,,,,,,,,,,,,,,
null,,confidence_buffer,934292,confidence_buffer,,null,,,,,,,,,,,,,,,,,,
5299.399999976158,,pt2_unique_rating,939593,Fictional_Cities_List/img_manmade_01.png,,52,,,4,,,,,,,,,,,,,,,
null,,confidence_buffer,939694,confidence_buffer,,null,,,,,,,,,,,,,,,,,,
1155.2999999523163,,pt2_memorable_rating,940849,Fictional_Cities_List/img_manmade_01.png,,52,,,4,,,,,,,,,,,,,,,
null,,confidence_buffer,940951,confidence_buffer,,null,,,,,,,,,,,,,,,,,,
1731.3999999761581,,recognition_phase,942683,,,49,,,,,,old,1,0.4666666666666667,,,,,,,,,,
null,,confidence_buffer,942785,confidence_buffer,,null,,,,,,,,,,,,,,,,,,
null,,thebreak,943287,break,,null,,,,,,,,,,,,,,,,,,
2337.5,,realistic_rating,945625,Fictional_Cities_List/img_natural_08.png,,53,Fictional_Cities_List/img_natural_08.png,NAT,5,,,,,,,,,,,,,,,
null,,confidence_buffer,945727,confidence_buffer,,null,,,,,,,,,,,,,,,,,,
1694.199999988079,,pt2_unique_rating,947422,Fictional_Cities_List/img_natural_08.png,,53,,,5,,,,,,,,,,,,,,,
null,,confidence_buffer,947523,confidence_buffer,,null,,,,,,,,,,,,,,,,,,
737.5,,pt2_memorable_rating,948261,Fictional_Cities_List/img_natural_08.png,,53,,,5,,,,,,,,,,,,,,,
null,,confidence_buffer,948364,confidence_buffer,,null,,,,,,,,,,,,,,,,,,
1125.3999999761581,,probe_rating,949490,probe_rating,,52,,,,4,1,,,,,,,,,,,,,
null,,confidence_buffer,949592,confidence_buffer,,null,,,,,,,,,,,,,,,,,,
1339.1000000238419,,recognition_phase,950932,,,49,,,,,,old,1,0.4782608695652174,,,,,,,,,,
null,,confidence_buffer,951034,confidence_buffer,,null,,,,,,,,,,,,,,,,,,
null,,thebreak,951536,break,,null,,,,,,,,,,,,,,,,,,
2427.300000011921,,realistic_rating,953964,US_Cities_List/mm_coeurdalene.png,,53,US_Cities_List/mm_coeurdalene.png,MM,5,,,,,,,,,,,,,,,
null,,confidence_buffer,954065,confidence_buffer,,null,,,,,,,,,,,,,,,,,,
1754.5999999642372,,pt2_unique_rating,955820,US_Cities_List/mm_coeurdalene.png,,51,,,3,,,,,,,,,,,,,,,
null,,confidence_buffer,955922,confidence_buffer,,null,,,,,,,,,,,,,,,,,,
798.1999999880791,,pt2_memorable_rating,956721,US_Cities_List/mm_coeurdalene.png,,51,,,3,,,,,,,,,,,,,,,
null,,confidence_buffer,956823,confidence_buffer,,null,,,,,,,,,,,,,,,,,,
1101,,recognition_phase,957924,,,52,,,,,,MISSED,NaN,0.46808510638297873,,,,,,,,,,
null,,confidence_buffer,958026,confidence_buffer,,null,,,,,,,,,,,,,,,,,,
null,,thebreak,958527,break,,null,,,,,,,,,,,,,,,,,,
2455.5,,realistic_rating,960983,Fictional_Cities_List/img_manmade_07.png,,51,Fictional_Cities_List/img_manmade_07.png,MM,3,,,,,,,,,,,,,,,
null,,confidence_buffer,961085,confidence_buffer,,null,,,,,,,,,,,,,,,,,,
1755.0999999642372,,pt2_unique_rating,962841,Fictional_Cities_List/img_manmade_07.png,,51,,,3,,,,,,,,,,,,,,,
null,,confidence_buffer,962942,confidence_buffer,,null,,,,,,,,,,,,,,,,,,
1281.4000000357628,,pt2_memorable_rating,964224,Fictional_Cities_List/img_manmade_07.png,,51,,,3,,,,,,,,,,,,,,,
null,,confidence_buffer,964326,confidence_buffer,,null,,,,,,,,,,,,,,,,,,
1242.7000000476837,,recognition_phase,965570,,,52,,,,,,MISSED,NaN,0.4583333333333333,,,,,,,,,,
null,,confidence_buffer,965672,confidence_buffer,,null,,,,,,,,,,,,,,,,,,
null,,thebreak,966173,break,,null,,,,,,,,,,,,,,,,,,
2430.800000011921,,realistic_rating,968605,Fictional_Cities_List/img_manmade_14.png,,50,Fictional_Cities_List/img_manmade_14.png,MM,2,,,,,,,,,,,,,,,
null,,confidence_buffer,968707,confidence_buffer,,null,,,,,,,,,,,,,,,,,,
2416.600000023842,,pt2_unique_rating,971124,Fictional_Cities_List/img_manmade_14.png,,51,,,3,,,,,,,,,,,,,,,
null,,confidence_buffer,971239,confidence_buffer,,null,,,,,,,,,,,,,,,,,,
1175.3999999761581,,pt2_memorable_rating,972415,Fictional_Cities_List/img_manmade_14.png,,50,,,2,,,,,,,,,,,,,,,
null,,confidence_buffer,972518,confidence_buffer,,null,,,,,,,,,,,,,,,,,,
1064.1000000238419,,recognition_phase,973583,,,52,,,,,,MISSED,NaN,0.4489795918367347,,,,,,,,,,
null,,confidence_buffer,973685,confidence_buffer,,null,,,,,,,,,,,,,,,,,,
null,,thebreak,974187,break,,null,,,,,,,,,,,,,,,,,,
4347.699999988079,,realistic_rating,978535,Fictional_Cities_List/img_natural_02.png,,51,Fictional_Cities_List/img_natural_02.png,NAT,3,,,,,,,,,,,,,,,
null,,confidence_buffer,978650,confidence_buffer,,null,,,,,,,,,,,,,,,,,,
3936.100000023842,,pt2_unique_rating,982587,Fictional_Cities_List/img_natural_02.png,,51,,,3,,,,,,,,,,,,,,,
null,,confidence_buffer,982688,confidence_buffer,,null,,,,,,,,,,,,,,,,,,
827.1999999880791,,pt2_memorable_rating,983516,Fictional_Cities_List/img_natural_02.png,,52,,,4,,,,,,,,,,,,,,,
null,,confidence_buffer,983626,confidence_buffer,,null,,,,,,,,,,,,,,,,,,
2140.5,,recognition_phase,985767,,,52,,,,,,MISSED,NaN,0.44,,,,,,,,,,
null,,confidence_buffer,985869,confidence_buffer,,null,,,,,,,,,,,,,,,,,,
null,,thebreak,986371,break,,null,,,,,,,,,,,,,,,,,,
3959.199999988079,,realistic_rating,990330,Fictional_Cities_List/img_manmade_03.png,,49,Fictional_Cities_List/img_manmade_03.png,MM,1,,,,,,,,,,,,,,,
null,,confidence_buffer,990432,confidence_buffer,,null,,,,,,,,,,,,,,,,,,
1776.699999988079,,pt2_unique_rating,992210,Fictional_Cities_List/img_manmade_03.png,,52,,,4,,,,,,,,,,,,,,,
null,,confidence_buffer,992312,confidence_buffer,,null,,,,,,,,,,,,,,,,,,
3587.600000023842,,pt2_memorable_rating,995901,Fictional_Cities_List/img_manmade_03.png,,53,,,5,,,,,,,,,,,,,,,
null,,confidence_buffer,996002,confidence_buffer,,null,,,,,,,,,,,,,,,,,,
1159.5999999642372,,recognition_phase,997163,,,49,,,,,,old,1,0.45098039215686275,,,,,,,,,,
null,,confidence_buffer,997264,confidence_buffer,,null,,,,,,,,,,,,,,,,,,
null,,thebreak,997766,break,,null,,,,,,,,,,,,,,,,,,
3449.2000000476837,,realistic_rating,1001216,US_Cities_List/nat_peoria.png,,53,US_Cities_List/nat_peoria.png,NAT,5,,,,,,,,,,,,,,,
null,,confidence_buffer,1001329,confidence_buffer,,null,,,,,,,,,,,,,,,,,,
2074,,pt2_unique_rating,1003404,US_Cities_List/nat_peoria.png,,50,,,2,,,,,,,,,,,,,,,
null,,confidence_buffer,1003506,confidence_buffer,,null,,,,,,,,,,,,,,,,,,
2713,,pt2_memorable_rating,1006220,US_Cities_List/nat_peoria.png,,50,,,2,,,,,,,,,,,,,,,
null,,confidence_buffer,1006321,confidence_buffer,,null,,,,,,,,,,,,,,,,,,
919.1999999880791,,recognition_phase,1007241,,,50,,,,,,new,0,0.4423076923076923,,,,,,,,,,
null,,confidence_buffer,1007343,confidence_buffer,,null,,,,,,,,,,,,,,,,,,
null,,thebreak,1007845,break,,null,,,,,,,,,,,,,,,,,,
3902.300000011921,,realistic_rating,1011748,US_Cities_List/mm_athens.png,,52,US_Cities_List/mm_athens.png,MM,4,,,,,,,,,,,,,,,
null,,confidence_buffer,1011851,confidence_buffer,,null,,,,,,,,,,,,,,,,,,
1298.8999999761581,,pt2_unique_rating,1013151,US_Cities_List/mm_athens.png,,51,,,3,,,,,,,,,,,,,,,
null,,confidence_buffer,1013253,confidence_buffer,,null,,,,,,,,,,,,,,,,,,
1159.3999999761581,,pt2_memorable_rating,1014413,US_Cities_List/mm_athens.png,,51,,,3,,,,,,,,,,,,,,,
null,,confidence_buffer,1014515,confidence_buffer,,null,,,,,,,,,,,,,,,,,,
1243.199999988079,,recognition_phase,1015760,,,50,,,,,,new,0,0.4339622641509434,,,,,,,,,,
null,,confidence_buffer,1015862,confidence_buffer,,null,,,,,,,,,,,,,,,,,,
null,,thebreak,1016363,break,,null,,,,,,,,,,,,,,,,,,
4950.800000011921,,realistic_rating,1021315,Fictional_Cities_List/img_natural_05.png,,52,Fictional_Cities_List/img_natural_05.png,NAT,4,,,,,,,,,,,,,,,
null,,confidence_buffer,1021418,confidence_buffer,,null,,,,,,,,,,,,,,,,,,
3191.800000011921,,pt2_unique_rating,1024611,Fictional_Cities_List/img_natural_05.png,,51,,,3,,,,,,,,,,,,,,,
null,,confidence_buffer,1024712,confidence_buffer,,null,,,,,,,,,,,,,,,,,,
1069.5,,probe_rating,1025782,probe_rating,,50,,,,2,1,,,,,,,,,,,,,
null,,confidence_buffer,1025885,confidence_buffer,,null,,,,,,,,,,,,,,,,,,
1489.699999988079,,pt2_memorable_rating,1027375,Fictional_Cities_List/img_natural_05.png,,50,,,2,,,,,,,,,,,,,,,
null,,confidence_buffer,1027478,confidence_buffer,,null,,,,,,,,,,,,,,,,,,
1509.800000011921,,recognition_phase,1028990,,,52,,,,,,MISSED,NaN,0.42592592592592593,,,,,,,,,,
null,,confidence_buffer,1029092,confidence_buffer,,null,,,,,,,,,,,,,,,,,,
null,,thebreak,1029595,break,,null,,,,,,,,,,,,,,,,,,
2457.400000035763,,realistic_rating,1032053,Fictional_Cities_List/img_manmade_02.png,,51,Fictional_Cities_List/img_manmade_02.png,MM,3,,,,,,,,,,,,,,,
null,,confidence_buffer,1032155,confidence_buffer,,null,,,,,,,,,,,,,,,,,,
1574.5,,pt2_unique_rating,1033730,Fictional_Cities_List/img_manmade_02.png,,51,,,3,,,,,,,,,,,,,,,
null,,confidence_buffer,1033832,confidence_buffer,,null,,,,,,,,,,,,,,,,,,
646.4000000357628,,pt2_memorable_rating,1034480,Fictional_Cities_List/img_manmade_02.png,,51,,,3,,,,,,,,,,,,,,,
null,,confidence_buffer,1034582,confidence_buffer,,null,,,,,,,,,,,,,,,,,,
830.8999999761581,,probe_rating,1035414,probe_rating,,51,,,,3,1,,,,,,,,,,,,,
null,,confidence_buffer,1035516,confidence_buffer,,null,,,,,,,,,,,,,,,,,,
1248.9000000357628,,recognition_phase,1036766,,,52,,,,,,MISSED,NaN,0.41818181818181815,,,,,,,,,,
null,,confidence_buffer,1036881,confidence_buffer,,null,,,,,,,,,,,,,,,,,,
null,,thebreak,1037383,break,,null,,,,,,,,,,,,,,,,,,
7693.899999976158,,realistic_rating,1045078,US_Cities_List/nat_okoboji.png,,50,US_Cities_List/nat_okoboji.png,NAT,2,,,,,,,,,,,,,,,
null,,confidence_buffer,1045180,confidence_buffer,,null,,,,,,,,,,,,,,,,,,
1180,,pt2_unique_rating,1046362,US_Cities_List/nat_okoboji.png,,50,,,2,,,,,,,,,,,,,,,
null,,confidence_buffer,1046463,confidence_buffer,,null,,,,,,,,,,,,,,,,,,
1128.699999988079,,pt2_memorable_rating,1047593,US_Cities_List/nat_okoboji.png,,50,,,2,,,,,,,,,,,,,,,
null,,confidence_buffer,1047695,confidence_buffer,,null,,,,,,,,,,,,,,,,,,
1154.0999999642372,,recognition_phase,1048851,,,51,,,,,,MISSED,NaN,0.4107142857142857,,,,,,,,,,
null,,confidence_buffer,1048952,confidence_buffer,,null,,,,,,,,,,,,,,,,,,
null,,thebreak,1049453,break,,null,,,,,,,,,,,,,,,,,,
1801.8999999761581,,realistic_rating,1051256,US_Cities_List/mm_westpalmbeach.png,,50,US_Cities_List/mm_westpalmbeach.png,MM,2,,,,,,,,,,,,,,,
null,,confidence_buffer,1051358,confidence_buffer,,null,,,,,,,,,,,,,,,,,,
1183.6000000238419,,pt2_unique_rating,1052543,US_Cities_List/mm_westpalmbeach.png,,51,,,3,,,,,,,,,,,,,,,
null,,confidence_buffer,1052644,confidence_buffer,,null,,,,,,,,,,,,,,,,,,
1008.4000000357628,,pt2_memorable_rating,1053653,US_Cities_List/mm_westpalmbeach.png,,51,,,3,,,,,,,,,,,,,,,
null,,confidence_buffer,1053756,confidence_buffer,,null,,,,,,,,,,,,,,,,,,
5687.699999988079,,recognition_phase,1059445,,,49,,,,,,old,1,0.42105263157894735,,,,,,,,,,
null,,confidence_buffer,1059547,confidence_buffer,,null,,,,,,,,,,,,,,,,,,
null,,thebreak,1060048,break,,null,,,,,,,,,,,,,,,,,,
4770,,realistic_rating,1064819,US_Cities_List/nat_bisbee.png,,52,US_Cities_List/nat_bisbee.png,NAT,4,,,,,,,,,,,,,,,
null,,confidence_buffer,1064921,confidence_buffer,,null,,,,,,,,,,,,,,,,,,
2560.5,,pt2_unique_rating,1067482,US_Cities_List/nat_bisbee.png,,51,,,3,,,,,,,,,,,,,,,
null,,confidence_buffer,1067583,confidence_buffer,,null,,,,,,,,,,,,,,,,,,
1455,,pt2_memorable_rating,1069038,US_Cities_List/nat_bisbee.png,,51,,,3,,,,,,,,,,,,,,,
null,,confidence_buffer,1069140,confidence_buffer,,null,,,,,,,,,,,,,,,,,,
1942.5,,recognition_phase,1071083,,,49,,,,,,old,1,0.43103448275862066,,,,,,,,,,
null,,confidence_buffer,1071185,confidence_buffer,,null,,,,,,,,,,,,,,,,,,
null,,thebreak,1071686,break,,null,,,,,,,,,,,,,,,,,,
3117.600000023842,,realistic_rating,1074805,US_Cities_List/nat_carmel.png,,51,US_Cities_List/nat_carmel.png,NAT,3,,,,,,,,,,,,,,,
null,,confidence_buffer,1074907,confidence_buffer,,null,,,,,,,,,,,,,,,,,,
10218,,pt2_unique_rating,1085126,US_Cities_List/nat_carmel.png,,50,,,2,,,,,,,,,,,,,,,
null,,confidence_buffer,1085228,confidence_buffer,,null,,,,,,,,,,,,,,,,,,
1542.3999999761581,,pt2_memorable_rating,1086771,US_Cities_List/nat_carmel.png,,50,,,2,,,,,,,,,,,,,,,
null,,confidence_buffer,1086872,confidence_buffer,,null,,,,,,,,,,,,,,,,,,
1098.800000011921,,recognition_phase,1087972,,,49,,,,,,old,1,0.4406779661016949,,,,,,,,,,
null,,confidence_buffer,1088074,confidence_buffer,,null,,,,,,,,,,,,,,,,,,
null,,thebreak,1088577,break,,null,,,,,,,,,,,,,,,,,,
2965.7999999523163,,realistic_rating,1091543,Fictional_Cities_List/img_manmade_13.png,,50,Fictional_Cities_List/img_manmade_13.png,MM,2,,,,,,,,,,,,,,,
null,,confidence_buffer,1091646,confidence_buffer,,null,,,,,,,,,,,,,,,,,,
3254.400000035763,,pt2_unique_rating,1094901,Fictional_Cities_List/img_manmade_13.png,,51,,,3,,,,,,,,,,,,,,,
null,,confidence_buffer,1095002,confidence_buffer,,null,,,,,,,,,,,,,,,,,,
1067.1000000238419,,pt2_memorable_rating,1096070,Fictional_Cities_List/img_manmade_13.png,,51,,,3,,,,,,,,,,,,,,,
null,,confidence_buffer,1096171,confidence_buffer,,null,,,,,,,,,,,,,,,,,,
919.3000000119209,,recognition_phase,1097092,,,52,,,,,,MISSED,NaN,0.43333333333333335,,,,,,,,,,
null,,confidence_buffer,1097194,confidence_buffer,,null,,,,,,,,,,,,,,,,,,
null,,thebreak,1097695,break,,null,,,,,,,,,,,,,,,,,,
,,survey,1281847,survey-questions,,,,,,,,,,,none,high,no,there may be some special points that is helpful for memorizing such pictures, such as the decoration, weather, tree or leaves.,If I have seen this place somewhere in any videos,have some specialty,May not be real or has some certain design,looks like a real place on the earth,the same study,
