rt,responses,trial_type,time_elapsed,image_type,sequence,stimulus,cities,city_images,button_pressed,response,key_press,stimulus_left,stimulus_right,accuracy,cumulative_accuracy,stimulus_down_left,stimulus_down_mid,stimulus_down_right,stimulus_correct,stimulus_short,stimulus_far,weighted_accuracy,missedtrial,condition,specific_pairs,imgL_ID,imgR_ID,linedress,linedressed,detour_trial,linedressed_detor
5536.299999952316,{worker_id:5e7d2f16e863ba0d96dc610f},id_enter,5537,fictional,interleaved,flights,Orchard Bend; Delaro Park; Cedarwyn; Baymarsh; Hollendale; New Verdan; Granton Ridge; Juniper Creek; Hawthorne Bluffs; Riverlyn; Sunmere; Claywater; North Arroya,US_Cities_List/peoria.png; US_Cities_List/cornwall.png; US_Cities_List/huntsville.png; US_Cities_List/leesburg.png; US_Cities_List/carmel.png; US_Cities_List/racine.png; US_Cities_List/hanover.png; US_Cities_List/gatlinburg.png; US_Cities_List/shreveport.png; US_Cities_List/westpalmbeach.png; US_Cities_List/hotsprings.png; US_Cities_List/boulder.png; US_Cities_List/newhope.png,,,,,,,,,,,,,,,,,,,,,,,
10469.899999976158,,fullscreen,16009,,,make_fullscreen,,,0,,,,,,,,,,,,,,,,,,,,,,
5659,,intro_1,21669,,,instruct,,,0,,,,,,,,,,,,,,,,,,,,,,
18237.299999952316,,intro_2,39907,,,instruct,,,1,Next,,,,,,,,,,,,,,,,,,,,,
11759.299999952316,,intro_3,51667,,,instruct,,,1,Next,,,,,,,,,,,,,,,,,,,,,
6887.600000023842,,intro_4,58555,,,instruct,,,1,Next,,,,,,,,,,,,,,,,,,,,,
7371.199999928474,,intro_5,65927,,,instruct,,,1,Next,,,,,,,,,,,,,,,,,,,,,
13705.299999952316,,intro_6,79633,,,instruct,,,1,Next,,,,,,,,,,,,,,,,,,,,,
6899.399999976158,,intro_7,86533,,,instruct,,,1,Next,,,,,,,,,,,,,,,,,,,,,
null,,learn_prac_1,89536,,,lean_prac_1,,,,,null,,,,,,,,,,,,,,,,,,,,
null,,html-keyboard-response,90537,,,<p></p>,,,,,null,,,,,,,,,,,,,,,,,,,,
4016,,intro_1,94553,,,instruct,,,0,,,,,,,,,,,,,,,,,,,,,,
9040.5,,intro_2,103594,,,instruct,,,1,Next,,,,,,,,,,,,,,,,,,,,,
null,,learn_prac_2,106597,,,lean_prac_2,,,,,null,,,,,,,,,,,,,,,,,,,,
null,,html-keyboard-response,107598,,,<p></p>,,,,,null,,,,,,,,,,,,,,,,,,,,
10928.799999952316,,intro_1,118527,,,instruct,,,0,,,,,,,,,,,,,,,,,,,,,,
6303.5,,intro_2,124831,,,instruct,,,1,Next,,,,,,,,,,,,,,,,,,,,,
19898.5,,intro_3,144730,,,instruct,,,1,Next,,,,,,,,,,,,,,,,,,,,,
null,,prac_atten_color_black,145622,,,black_plus_sign,,,,,null,,,,,,,,,,,,,,,,,,,,
null,,prac_atten_color,146132,,,prac_stop_color,,,,,null,,,,,,,,,,,,,,,,,,,,
385.60000002384186,,prac_atten_color_black,148134,,,black_plus_sign,,,,,49,,,,,,,,,,,,,,,,,,,,
null,,prac_atten_color_black,149026,,,black_plus_sign,,,,,null,,,,,,,,,,,,,,,,,,,,
512.2999999523163,,prac_atten_color,149716,,,prac_stop_color,,,,,50,,,,,,,,,,,,,,,,,,,,
null,,prac_atten_color_black,151718,,,black_plus_sign,,,,,null,,,,,,,,,,,,,,,,,,,,
null,,prac_atten_color_black,152431,,,black_plus_sign,,,,,null,,,,,,,,,,,,,,,,,,,,
693,,prac_atten_color,153165,,,prac_stop_color,,,,,50,,,,,,,,,,,,,,,,,,,,
null,,prac_atten_color_black,155167,,,black_plus_sign,,,,,null,,,,,,,,,,,,,,,,,,,,
null,,prac_atten_color_black,155837,,,black_plus_sign,,,,,null,,,,,,,,,,,,,,,,,,,,
473.2999999523163,,prac_atten_color,156396,,,prac_stop_color,,,,,49,,,,,,,,,,,,,,,,,,,,
null,,prac_atten_color_black,158397,,,black_plus_sign,,,,,null,,,,,,,,,,,,,,,,,,,,
null,,prac_atten_color_black,159244,,,black_plus_sign,,,,,null,,,,,,,,,,,,,,,,,,,,
480.39999997615814,,prac_atten_color,159884,,,prac_stop_color,,,,,50,,,,,,,,,,,,,,,,,,,,
null,,prac_atten_color_black,161885,,,black_plus_sign,,,,,null,,,,,,,,,,,,,,,,,,,,
null,,prac_atten_color_black,162646,,,black_plus_sign,,,,,null,,,,,,,,,,,,,,,,,,,,
758,,prac_atten_color,163723,,,prac_stop_color,,,,,50,,,,,,,,,,,,,,,,,,,,
null,,prac_atten_color_black,165724,,,black_plus_sign,,,,,null,,,,,,,,,,,,,,,,,,,,
null,,prac_atten_color_black,166050,,,black_plus_sign,,,,,null,,,,,,,,,,,,,,,,,,,,
503.1999999284744,,prac_atten_color,166910,,,prac_stop_color,,,,,49,,,,,,,,,,,,,,,,,,,,
null,,prac_atten_color_black,168911,,,black_plus_sign,,,,,null,,,,,,,,,,,,,,,,,,,,
null,,prac_atten_color_black,169455,,,black_plus_sign,,,,,null,,,,,,,,,,,,,,,,,,,,
null,,prac_atten_color,169974,,,prac_stop_color,,,,,null,,,,,,,,,,,,,,,,,,,,
2.5,,prac_atten_color_black,171976,,,black_plus_sign,,,,,50,,,,,,,,,,,,,,,,,,,,
null,,prac_atten_color_black,172860,,,black_plus_sign,,,,,null,,,,,,,,,,,,,,,,,,,,
1073.2000000476837,,prac_atten_color,173950,,,prac_stop_color,,,,,49,,,,,,,,,,,,,,,,,,,,
null,,prac_atten_color_black,175953,,,black_plus_sign,,,,,null,,,,,,,,,,,,,,,,,,,,
null,,prac_atten_color_black,176265,,,black_plus_sign,,,,,null,,,,,,,,,,,,,,,,,,,,
443.10000002384186,,prac_atten_color,176961,,,prac_stop_color,,,,,49,,,,,,,,,,,,,,,,,,,,
null,,prac_atten_color_black,178962,,,black_plus_sign,,,,,null,,,,,,,,,,,,,,,,,,,,
4345.099999904633,,attentioncheck_feedback,183308,,,cross_check_feedback,,,0,,,,,,,,,,,,,,,,,,,,,,
8998.099999904633,,last_instruct,192306,,,instruct,,,,,32,,,,,,,,,,,,,,,,,,,,
null,,learn_phase(without_color),195311,,,black_plus_sign,,,,,null,US_Cities_List/huntsville.png,US_Cities_List/hotsprings.png,,,,,,,,,,,,,,,,,,
null,,black_cross(without_color),195822,,,blue,,,,,null,US_Cities_List/huntsville.png,US_Cities_List/hotsprings.png,,,,,,,,,,,,,,,,,,
null,,rt_plussign_withcolor,196324,,,blue,,,,,null,US_Cities_List/huntsville.png,US_Cities_List/hotsprings.png,,,,,,,,,,,,,,,,,,
1233.8000000715256,,rt_thecrossant_black,197816,,,black_plus_sign,,,,,49,,,1,1,,,,,,,,,,,,,,,,
null,,color_black,197917,,,black_plus_sign,,,,,null,,,,,,,,,,,,,,,,,,,,
null,,learn_phase(without_color),200925,,,black_plus_sign,,,,,null,US_Cities_List/huntsville.png,US_Cities_List/cornwall.png,,,,,,,,,,,,,,,,,,
null,,black_cross(without_color),201487,,,yellow,,,,,null,US_Cities_List/huntsville.png,US_Cities_List/cornwall.png,,,,,,,,,,,,,,,,,,
null,,rt_plussign_withcolor,201989,,,yellow,,,,,null,US_Cities_List/huntsville.png,US_Cities_List/cornwall.png,,,,,,,,,,,,,,,,,,
2194.600000023842,,rt_thecrossant_black,203430,,,black_plus_sign,,,,,50,,,1,1,,,,,,,,,,,,,,,,
null,,color_black,203531,,,black_plus_sign,,,,,null,,,,,,,,,,,,,,,,,,,,
null,,learn_phase(without_color),206540,,,black_plus_sign,,,,,null,US_Cities_List/cornwall.png,US_Cities_List/leesburg.png,,,,,,,,,,,,,,,,,,
null,,black_cross(without_color),207463,,,blue,,,,,null,US_Cities_List/cornwall.png,US_Cities_List/leesburg.png,,,,,,,,,,,,,,,,,,
null,,rt_plussign_withcolor,207965,,,blue,,,,,null,US_Cities_List/cornwall.png,US_Cities_List/leesburg.png,,,,,,,,,,,,,,,,,,
900.8999999761581,,rt_thecrossant_black,209045,,,black_plus_sign,,,,,49,,,1,1,,,,,,,,,,,,,,,,
null,,color_black,209147,,,black_plus_sign,,,,,null,,,,,,,,,,,,,,,,,,,,
null,,learn_phase(without_color),212154,,,black_plus_sign,,,,,null,US_Cities_List/cornwall.png,US_Cities_List/huntsville.png,,,,,,,,,,,,,,,,,,
null,,black_cross(without_color),213010,,,yellow,,,,,null,US_Cities_List/cornwall.png,US_Cities_List/huntsville.png,,,,,,,,,,,,,,,,,,
null,,rt_plussign_withcolor,213511,,,yellow,,,,,null,US_Cities_List/cornwall.png,US_Cities_List/huntsville.png,,,,,,,,,,,,,,,,,,
1061.1000000238419,,rt_thecrossant_black,214659,,,black_plus_sign,,,,,50,,,1,1,,,,,,,,,,,,,,,,
null,,color_black,214760,,,black_plus_sign,,,,,null,,,,,,,,,,,,,,,,,,,,
null,,learn_phase(without_color),217765,,,black_plus_sign,,,,,null,US_Cities_List/huntsville.png,US_Cities_List/hotsprings.png,,,,,,,,,,,,,,,,,,
null,,black_cross(without_color),218637,,,blue,,,,,null,US_Cities_List/huntsville.png,US_Cities_List/hotsprings.png,,,,,,,,,,,,,,,,,,
null,,rt_plussign_withcolor,219142,,,blue,,,,,null,US_Cities_List/huntsville.png,US_Cities_List/hotsprings.png,,,,,,,,,,,,,,,,,,
1638.3999999761581,,rt_thecrossant_black,220274,,,black_plus_sign,,,,,49,,,1,1,,,,,,,,,,,,,,,,
null,,color_black,220376,,,black_plus_sign,,,,,null,,,,,,,,,,,,,,,,,,,,
null,,learn_phase(without_color),223382,,,black_plus_sign,,,,,null,US_Cities_List/racine.png,US_Cities_List/hanover.png,,,,,,,,,,,,,,,,,,
null,,black_cross(without_color),224020,,,blue,,,,,null,US_Cities_List/racine.png,US_Cities_List/hanover.png,,,,,,,,,,,,,,,,,,
null,,rt_plussign_withcolor,224521,,,blue,,,,,null,US_Cities_List/racine.png,US_Cities_List/hanover.png,,,,,,,,,,,,,,,,,,
2158.899999976158,,rt_thecrossant_black,225890,,,black_plus_sign,,,,,49,,,1,1,,,,,,,,,,,,,,,,
null,,color_black,225991,,,black_plus_sign,,,,,null,,,,,,,,,,,,,,,,,,,,
null,,learn_phase(without_color),228997,,,black_plus_sign,,,,,null,US_Cities_List/hotsprings.png,US_Cities_List/huntsville.png,,,,,,,,,,,,,,,,,,
null,,black_cross(without_color),229785,,,yellow,,,,,null,US_Cities_List/hotsprings.png,US_Cities_List/huntsville.png,,,,,,,,,,,,,,,,,,
null,,rt_plussign_withcolor,230287,,,yellow,,,,,null,US_Cities_List/hotsprings.png,US_Cities_List/huntsville.png,,,,,,,,,,,,,,,,,,
1450.1000000238419,,rt_thecrossant_black,231502,,,black_plus_sign,,,,,50,,,1,1,,,,,,,,,,,,,,,,
null,,color_black,231603,,,black_plus_sign,,,,,null,,,,,,,,,,,,,,,,,,,,
null,,learn_phase(without_color),234610,,,black_plus_sign,,,,,null,US_Cities_List/hanover.png,US_Cities_List/gatlinburg.png,,,,,,,,,,,,,,,,,,
null,,black_cross(without_color),235329,,,blue,,,,,null,US_Cities_List/hanover.png,US_Cities_List/gatlinburg.png,,,,,,,,,,,,,,,,,,
null,,rt_plussign_withcolor,235832,,,blue,,,,,null,US_Cities_List/hanover.png,US_Cities_List/gatlinburg.png,,,,,,,,,,,,,,,,,,
1261.1000000238419,,rt_thecrossant_black,237117,,,black_plus_sign,,,,,49,,,1,1,,,,,,,,,,,,,,,,
null,,color_black,237219,,,black_plus_sign,,,,,null,,,,,,,,,,,,,,,,,,,,
null,,learn_phase(without_color),240226,,,black_plus_sign,,,,,null,US_Cities_List/leesburg.png,US_Cities_List/carmel.png,,,,,,,,,,,,,,,,,,
null,,black_cross(without_color),241217,,,yellow,,,,,null,US_Cities_List/leesburg.png,US_Cities_List/carmel.png,,,,,,,,,,,,,,,,,,
null,,rt_plussign_withcolor,241719,,,yellow,,,,,null,US_Cities_List/leesburg.png,US_Cities_List/carmel.png,,,,,,,,,,,,,,,,,,
1751.1000000238419,,rt_thecrossant_black,242730,,,black_plus_sign,,,,,50,,,1,1,,,,,,,,,,,,,,,,
null,,color_black,242831,,,black_plus_sign,,,,,null,,,,,,,,,,,,,,,,,,,,
null,,learn_phase(without_color),245839,,,black_plus_sign,,,,,null,US_Cities_List/carmel.png,US_Cities_List/leesburg.png,,,,,,,,,,,,,,,,,,
null,,black_cross(without_color),246858,,,blue,,,,,null,US_Cities_List/carmel.png,US_Cities_List/leesburg.png,,,,,,,,,,,,,,,,,,
472,,rt_plussign_withcolor,247360,,,blue,,,,,49,US_Cities_List/carmel.png,US_Cities_List/leesburg.png,,,,,,,,,,,,,,,,,,
null,,rt_thecrossant_black,248355,,,black_plus_sign,,,,,null,,,1,1,,,,,,,,,,,,,,,,
null,,color_black,248463,,,black_plus_sign,,,,,null,,,,,,,,,,,,,,,,,,,,
null,,learn_phase(without_color),251470,,,black_plus_sign,,,,,null,US_Cities_List/leesburg.png,US_Cities_List/carmel.png,,,,,,,,,,,,,,,,,,
null,,black_cross(without_color),252120,,,yellow,,,,,null,US_Cities_List/leesburg.png,US_Cities_List/carmel.png,,,,,,,,,,,,,,,,,,
null,,rt_plussign_withcolor,252621,,,yellow,,,,,null,US_Cities_List/leesburg.png,US_Cities_List/carmel.png,,,,,,,,,,,,,,,,,,
1340.8999999761581,,rt_thecrossant_black,253974,,,black_plus_sign,,,,,50,,,1,1,,,,,,,,,,,,,,,,
null,,color_black,254075,,,black_plus_sign,,,,,null,,,,,,,,,,,,,,,,,,,,
null,,learn_phase(without_color),257080,,,black_plus_sign,,,,,null,US_Cities_List/westpalmbeach.png,US_Cities_List/gatlinburg.png,,,,,,,,,,,,,,,,,,
null,,black_cross(without_color),257529,,,blue,,,,,null,US_Cities_List/westpalmbeach.png,US_Cities_List/gatlinburg.png,,,,,,,,,,,,,,,,,,
null,,rt_plussign_withcolor,258030,,,blue,,,,,null,US_Cities_List/westpalmbeach.png,US_Cities_List/gatlinburg.png,,,,,,,,,,,,,,,,,,
1130.8999999761581,,rt_thecrossant_black,259587,,,black_plus_sign,,,,,49,,,1,1,,,,,,,,,,,,,,,,
null,,color_black,259688,,,black_plus_sign,,,,,null,,,,,,,,,,,,,,,,,,,,
null,,learn_phase(without_color),262696,,,black_plus_sign,,,,,null,US_Cities_List/carmel.png,US_Cities_List/leesburg.png,,,,,,,,,,,,,,,,,,
null,,black_cross(without_color),263418,,,blue,,,,,null,US_Cities_List/carmel.png,US_Cities_List/leesburg.png,,,,,,,,,,,,,,,,,,
null,,rt_plussign_withcolor,263930,,,blue,,,,,null,US_Cities_List/carmel.png,US_Cities_List/leesburg.png,,,,,,,,,,,,,,,,,,
1560.6999999284744,,rt_thecrossant_black,265212,,,black_plus_sign,,,,,49,,,1,1,,,,,,,,,,,,,,,,
null,,color_black,265313,,,black_plus_sign,,,,,null,,,,,,,,,,,,,,,,,,,,
null,,learn_phase(without_color),268320,,,black_plus_sign,,,,,null,US_Cities_List/cornwall.png,US_Cities_List/huntsville.png,,,,,,,,,,,,,,,,,,
null,,black_cross(without_color),269045,,,blue,,,,,null,US_Cities_List/cornwall.png,US_Cities_List/huntsville.png,,,,,,,,,,,,,,,,,,
null,,rt_plussign_withcolor,269550,,,blue,,,,,null,US_Cities_List/cornwall.png,US_Cities_List/huntsville.png,,,,,,,,,,,,,,,,,,
1444.2999999523163,,rt_thecrossant_black,270829,,,black_plus_sign,,,,,49,,,1,1,,,,,,,,,,,,,,,,
null,,color_black,270930,,,black_plus_sign,,,,,null,,,,,,,,,,,,,,,,,,,,
null,,learn_phase(without_color),273937,,,black_plus_sign,,,,,null,US_Cities_List/gatlinburg.png,US_Cities_List/hanover.png,,,,,,,,,,,,,,,,,,
null,,black_cross(without_color),274359,,,yellow,,,,,null,US_Cities_List/gatlinburg.png,US_Cities_List/hanover.png,,,,,,,,,,,,,,,,,,
null,,rt_plussign_withcolor,274860,,,yellow,,,,,null,US_Cities_List/gatlinburg.png,US_Cities_List/hanover.png,,,,,,,,,,,,,,,,,,
872.3999999761581,,rt_thecrossant_black,276443,,,black_plus_sign,,,,,50,,,1,1,,,,,,,,,,,,,,,,
null,,color_black,276545,,,black_plus_sign,,,,,null,,,,,,,,,,,,,,,,,,,,
null,,learn_phase(without_color),279551,,,black_plus_sign,,,,,null,US_Cities_List/hanover.png,US_Cities_List/shreveport.png,,,,,,,,,,,,,,,,,,
null,,black_cross(without_color),280303,,,yellow,,,,,null,US_Cities_List/hanover.png,US_Cities_List/shreveport.png,,,,,,,,,,,,,,,,,,
null,,rt_plussign_withcolor,280804,,,yellow,,,,,null,US_Cities_List/hanover.png,US_Cities_List/shreveport.png,,,,,,,,,,,,,,,,,,
811.2999999523163,,rt_thecrossant_black,282056,,,black_plus_sign,,,,,50,,,1,1,,,,,,,,,,,,,,,,
null,,color_black,282158,,,black_plus_sign,,,,,null,,,,,,,,,,,,,,,,,,,,
null,,learn_phase(without_color),285165,,,black_plus_sign,,,,,null,US_Cities_List/racine.png,US_Cities_List/shreveport.png,,,,,,,,,,,,,,,,,,
null,,black_cross(without_color),286128,,,blue,,,,,null,US_Cities_List/racine.png,US_Cities_List/shreveport.png,,,,,,,,,,,,,,,,,,
null,,rt_plussign_withcolor,286629,,,blue,,,,,null,US_Cities_List/racine.png,US_Cities_List/shreveport.png,,,,,,,,,,,,,,,,,,
1804,,rt_thecrossant_black,287668,,,black_plus_sign,,,,,49,,,1,1,,,,,,,,,,,,,,,,
null,,color_black,287770,,,black_plus_sign,,,,,null,,,,,,,,,,,,,,,,,,,,
null,,learn_phase(without_color),290777,,,black_plus_sign,,,,,null,US_Cities_List/hanover.png,US_Cities_List/newhope.png,,,,,,,,,,,,,,,,,,
null,,black_cross(without_color),291515,,,yellow,,,,,null,US_Cities_List/hanover.png,US_Cities_List/newhope.png,,,,,,,,,,,,,,,,,,
null,,rt_plussign_withcolor,292016,,,yellow,,,,,null,US_Cities_List/hanover.png,US_Cities_List/newhope.png,,,,,,,,,,,,,,,,,,
1239.2999999523163,,rt_thecrossant_black,293282,,,black_plus_sign,,,,,50,,,1,1,,,,,,,,,,,,,,,,
null,,color_black,293384,,,black_plus_sign,,,,,null,,,,,,,,,,,,,,,,,,,,
null,,learn_phase(without_color),296391,,,black_plus_sign,,,,,null,US_Cities_List/cornwall.png,US_Cities_List/peoria.png,,,,,,,,,,,,,,,,,,
null,,black_cross(without_color),297275,,,yellow,,,,,null,US_Cities_List/cornwall.png,US_Cities_List/peoria.png,,,,,,,,,,,,,,,,,,
null,,rt_plussign_withcolor,297777,,,yellow,,,,,null,US_Cities_List/cornwall.png,US_Cities_List/peoria.png,,,,,,,,,,,,,,,,,,
1378.7999999523163,,rt_thecrossant_black,298896,,,black_plus_sign,,,,,50,,,1,1,,,,,,,,,,,,,,,,
null,,color_black,298998,,,black_plus_sign,,,,,null,,,,,,,,,,,,,,,,,,,,
null,,learn_phase(without_color),302007,,,black_plus_sign,,,,,null,US_Cities_List/cornwall.png,US_Cities_List/peoria.png,,,,,,,,,,,,,,,,,,
null,,black_cross(without_color),302430,,,blue,,,,,null,US_Cities_List/cornwall.png,US_Cities_List/peoria.png,,,,,,,,,,,,,,,,,,
null,,rt_plussign_withcolor,302931,,,blue,,,,,null,US_Cities_List/cornwall.png,US_Cities_List/peoria.png,,,,,,,,,,,,,,,,,,
1201.2999999523163,,rt_thecrossant_black,304517,,,black_plus_sign,,,,,49,,,1,1,,,,,,,,,,,,,,,,
null,,color_black,304619,,,black_plus_sign,,,,,null,,,,,,,,,,,,,,,,,,,,
null,,learn_phase(without_color),307626,,,black_plus_sign,,,,,null,US_Cities_List/newhope.png,US_Cities_List/hanover.png,,,,,,,,,,,,,,,,,,
null,,black_cross(without_color),308523,,,blue,,,,,null,US_Cities_List/newhope.png,US_Cities_List/hanover.png,,,,,,,,,,,,,,,,,,
441,,rt_plussign_withcolor,309024,,,blue,,,,,49,US_Cities_List/newhope.png,US_Cities_List/hanover.png,,,,,,,,,,,,,,,,,,
null,,rt_thecrossant_black,310130,,,black_plus_sign,,,,,null,,,1,1,,,,,,,,,,,,,,,,
null,,color_black,310231,,,black_plus_sign,,,,,null,,,,,,,,,,,,,,,,,,,,
null,,learn_phase(without_color),313238,,,black_plus_sign,,,,,null,US_Cities_List/leesburg.png,US_Cities_List/carmel.png,,,,,,,,,,,,,,,,,,
null,,black_cross(without_color),314000,,,yellow,,,,,null,US_Cities_List/leesburg.png,US_Cities_List/carmel.png,,,,,,,,,,,,,,,,,,
null,,rt_plussign_withcolor,314501,,,yellow,,,,,null,US_Cities_List/leesburg.png,US_Cities_List/carmel.png,,,,,,,,,,,,,,,,,,
null,,rt_thecrossant_black,315743,,,black_plus_sign,,,,,null,,,,1,,,,,,,,,,,,,,,,
null,,color_black,315844,,,black_plus_sign,,,,,null,,,,,,,,,,,,,,,,,,,,
null,,learn_phase(without_color),318851,,,black_plus_sign,,,,,null,US_Cities_List/leesburg.png,US_Cities_List/boulder.png,,,,,,,,,,,,,,,,,,
null,,black_cross(without_color),319765,,,blue,,,,,null,US_Cities_List/leesburg.png,US_Cities_List/boulder.png,,,,,,,,,,,,,,,,,,
399.39999997615814,,rt_plussign_withcolor,320267,,,blue,,,,,49,US_Cities_List/leesburg.png,US_Cities_List/boulder.png,,,,,,,,,,,,,,,,,,
null,,rt_thecrossant_black,321356,,,black_plus_sign,,,,,null,,,1,1,,,,,,,,,,,,,,,,
null,,color_black,321464,,,black_plus_sign,,,,,null,,,,,,,,,,,,,,,,,,,,
null,,learn_phase(without_color),324470,,,black_plus_sign,,,,,null,US_Cities_List/racine.png,US_Cities_List/hanover.png,,,,,,,,,,,,,,,,,,
null,,black_cross(without_color),325090,,,yellow,,,,,null,US_Cities_List/racine.png,US_Cities_List/hanover.png,,,,,,,,,,,,,,,,,,
null,,rt_plussign_withcolor,325592,,,yellow,,,,,null,US_Cities_List/racine.png,US_Cities_List/hanover.png,,,,,,,,,,,,,,,,,,
1163,,rt_thecrossant_black,326974,,,black_plus_sign,,,,,50,,,1,1,,,,,,,,,,,,,,,,
null,,color_black,327076,,,black_plus_sign,,,,,null,,,,,,,,,,,,,,,,,,,,
null,,learn_phase(without_color),330083,,,black_plus_sign,,,,,null,US_Cities_List/shreveport.png,US_Cities_List/racine.png,,,,,,,,,,,,,,,,,,
null,,black_cross(without_color),330999,,,blue,,,,,null,US_Cities_List/shreveport.png,US_Cities_List/racine.png,,,,,,,,,,,,,,,,,,
null,,rt_plussign_withcolor,331501,,,blue,,,,,null,US_Cities_List/shreveport.png,US_Cities_List/racine.png,,,,,,,,,,,,,,,,,,
1068,,rt_thecrossant_black,332589,,,black_plus_sign,,,,,49,,,1,1,,,,,,,,,,,,,,,,
null,,color_black,332691,,,black_plus_sign,,,,,null,,,,,,,,,,,,,,,,,,,,
null,,learn_phase(without_color),335712,,,black_plus_sign,,,,,null,US_Cities_List/hanover.png,US_Cities_List/newhope.png,,,,,,,,,,,,,,,,,,
null,,black_cross(without_color),336741,,,blue,,,,,null,US_Cities_List/hanover.png,US_Cities_List/newhope.png,,,,,,,,,,,,,,,,,,
null,,rt_plussign_withcolor,337243,,,blue,,,,,null,US_Cities_List/hanover.png,US_Cities_List/newhope.png,,,,,,,,,,,,,,,,,,
1555.5999999046326,,rt_thecrossant_black,338219,,,black_plus_sign,,,,,49,,,1,1,,,,,,,,,,,,,,,,
null,,color_black,338320,,,black_plus_sign,,,,,null,,,,,,,,,,,,,,,,,,,,
null,,learn_phase(without_color),341328,,,black_plus_sign,,,,,null,US_Cities_List/hanover.png,US_Cities_List/newhope.png,,,,,,,,,,,,,,,,,,
null,,black_cross(without_color),342185,,,blue,,,,,null,US_Cities_List/hanover.png,US_Cities_List/newhope.png,,,,,,,,,,,,,,,,,,
null,,rt_plussign_withcolor,342686,,,blue,,,,,null,US_Cities_List/hanover.png,US_Cities_List/newhope.png,,,,,,,,,,,,,,,,,,
2095.2999999523163,,rt_thecrossant_black,343834,,,black_plus_sign,,,,,49,,,1,1,,,,,,,,,,,,,,,,
null,,color_black,343936,,,black_plus_sign,,,,,null,,,,,,,,,,,,,,,,,,,,
null,,learn_phase(without_color),346942,,,black_plus_sign,,,,,null,US_Cities_List/racine.png,US_Cities_List/hanover.png,,,,,,,,,,,,,,,,,,
null,,black_cross(without_color),347356,,,yellow,,,,,null,US_Cities_List/racine.png,US_Cities_List/hanover.png,,,,,,,,,,,,,,,,,,
null,,rt_plussign_withcolor,347857,,,yellow,,,,,null,US_Cities_List/racine.png,US_Cities_List/hanover.png,,,,,,,,,,,,,,,,,,
1152.1999999284744,,rt_thecrossant_black,349446,,,black_plus_sign,,,,,50,,,1,1,,,,,,,,,,,,,,,,
null,,color_black,349548,,,black_plus_sign,,,,,null,,,,,,,,,,,,,,,,,,,,
null,,learn_phase(without_color),352554,,,black_plus_sign,,,,,null,US_Cities_List/huntsville.png,US_Cities_List/racine.png,,,,,,,,,,,,,,,,,,
null,,black_cross(without_color),353391,,,blue,,,,,null,US_Cities_List/huntsville.png,US_Cities_List/racine.png,,,,,,,,,,,,,,,,,,
null,,rt_plussign_withcolor,353892,,,blue,,,,,null,US_Cities_List/huntsville.png,US_Cities_List/racine.png,,,,,,,,,,,,,,,,,,
727.3000000715256,,rt_thecrossant_black,355059,,,black_plus_sign,,,,,49,,,1,1,,,,,,,,,,,,,,,,
null,,color_black,355160,,,black_plus_sign,,,,,null,,,,,,,,,,,,,,,,,,,,
null,,learn_phase(without_color),358168,,,black_plus_sign,,,,,null,US_Cities_List/huntsville.png,US_Cities_List/cornwall.png,,,,,,,,,,,,,,,,,,
null,,black_cross(without_color),359136,,,blue,,,,,null,US_Cities_List/huntsville.png,US_Cities_List/cornwall.png,,,,,,,,,,,,,,,,,,
null,,rt_plussign_withcolor,359637,,,blue,,,,,null,US_Cities_List/huntsville.png,US_Cities_List/cornwall.png,,,,,,,,,,,,,,,,,,
1305.1000000238419,,rt_thecrossant_black,360673,,,black_plus_sign,,,,,49,,,1,1,,,,,,,,,,,,,,,,
null,,color_black,360774,,,black_plus_sign,,,,,null,,,,,,,,,,,,,,,,,,,,
null,,learn_phase(without_color),363782,,,black_plus_sign,,,,,null,US_Cities_List/shreveport.png,US_Cities_List/hanover.png,,,,,,,,,,,,,,,,,,
null,,black_cross(without_color),364250,,,blue,,,,,null,US_Cities_List/shreveport.png,US_Cities_List/hanover.png,,,,,,,,,,,,,,,,,,
470.2000000476837,,rt_plussign_withcolor,364752,,,blue,,,,,49,US_Cities_List/shreveport.png,US_Cities_List/hanover.png,,,,,,,,,,,,,,,,,,
null,,rt_thecrossant_black,366287,,,black_plus_sign,,,,,null,,,1,1,,,,,,,,,,,,,,,,
null,,color_black,366399,,,black_plus_sign,,,,,null,,,,,,,,,,,,,,,,,,,,
null,,learn_phase(without_color),369407,,,black_plus_sign,,,,,null,US_Cities_List/gatlinburg.png,US_Cities_List/westpalmbeach.png,,,,,,,,,,,,,,,,,,
null,,black_cross(without_color),369970,,,yellow,,,,,null,US_Cities_List/gatlinburg.png,US_Cities_List/westpalmbeach.png,,,,,,,,,,,,,,,,,,
null,,rt_plussign_withcolor,370482,,,yellow,,,,,null,US_Cities_List/gatlinburg.png,US_Cities_List/westpalmbeach.png,,,,,,,,,,,,,,,,,,
688.5,,rt_thecrossant_black,371923,,,black_plus_sign,,,,,50,,,1,1,,,,,,,,,,,,,,,,
null,,color_black,372024,,,black_plus_sign,,,,,null,,,,,,,,,,,,,,,,,,,,
null,,learn_phase(without_color),375030,,,black_plus_sign,,,,,null,US_Cities_List/hotsprings.png,US_Cities_List/boulder.png,,,,,,,,,,,,,,,,,,
null,,black_cross(without_color),375636,,,yellow,,,,,null,US_Cities_List/hotsprings.png,US_Cities_List/boulder.png,,,,,,,,,,,,,,,,,,
null,,rt_plussign_withcolor,376138,,,yellow,,,,,null,US_Cities_List/hotsprings.png,US_Cities_List/boulder.png,,,,,,,,,,,,,,,,,,
825.5,,rt_thecrossant_black,377535,,,black_plus_sign,,,,,50,,,1,1,,,,,,,,,,,,,,,,
null,,color_black,377638,,,black_plus_sign,,,,,null,,,,,,,,,,,,,,,,,,,,
null,,learn_phase(without_color),380644,,,black_plus_sign,,,,,null,US_Cities_List/hanover.png,US_Cities_List/newhope.png,,,,,,,,,,,,,,,,,,
null,,black_cross(without_color),381665,,,yellow,,,,,null,US_Cities_List/hanover.png,US_Cities_List/newhope.png,,,,,,,,,,,,,,,,,,
481.1999999284744,,rt_plussign_withcolor,382167,,,yellow,,,,,50,US_Cities_List/hanover.png,US_Cities_List/newhope.png,,,,,,,,,,,,,,,,,,
null,,rt_thecrossant_black,383150,,,black_plus_sign,,,,,null,,,1,1,,,,,,,,,,,,,,,,
null,,color_black,383251,,,black_plus_sign,,,,,null,,,,,,,,,,,,,,,,,,,,
null,,learn_phase(without_color),386259,,,black_plus_sign,,,,,null,US_Cities_List/hotsprings.png,US_Cities_List/boulder.png,,,,,,,,,,,,,,,,,,
null,,black_cross(without_color),387156,,,blue,,,,,null,US_Cities_List/hotsprings.png,US_Cities_List/boulder.png,,,,,,,,,,,,,,,,,,
378.89999997615814,,rt_plussign_withcolor,387658,,,blue,,,,,49,US_Cities_List/hotsprings.png,US_Cities_List/boulder.png,,,,,,,,,,,,,,,,,,
null,,rt_thecrossant_black,388765,,,black_plus_sign,,,,,null,,,1,1,,,,,,,,,,,,,,,,
null,,color_black,388866,,,black_plus_sign,,,,,null,,,,,,,,,,,,,,,,,,,,
null,,learn_phase(without_color),391874,,,black_plus_sign,,,,,null,US_Cities_List/boulder.png,US_Cities_List/hotsprings.png,,,,,,,,,,,,,,,,,,
null,,black_cross(without_color),392867,,,yellow,,,,,null,US_Cities_List/boulder.png,US_Cities_List/hotsprings.png,,,,,,,,,,,,,,,,,,
482,,rt_plussign_withcolor,393368,,,yellow,,,,,50,US_Cities_List/boulder.png,US_Cities_List/hotsprings.png,,,,,,,,,,,,,,,,,,
null,,rt_thecrossant_black,394379,,,black_plus_sign,,,,,null,,,1,1,,,,,,,,,,,,,,,,
null,,color_black,394480,,,black_plus_sign,,,,,null,,,,,,,,,,,,,,,,,,,,
null,,learn_phase(without_color),397487,,,black_plus_sign,,,,,null,US_Cities_List/racine.png,US_Cities_List/shreveport.png,,,,,,,,,,,,,,,,,,
null,,black_cross(without_color),397899,,,yellow,,,,,null,US_Cities_List/racine.png,US_Cities_List/shreveport.png,,,,,,,,,,,,,,,,,,
null,,rt_plussign_withcolor,398401,,,yellow,,,,,null,US_Cities_List/racine.png,US_Cities_List/shreveport.png,,,,,,,,,,,,,,,,,,
1258.7999999523163,,rt_thecrossant_black,399993,,,black_plus_sign,,,,,50,,,1,1,,,,,,,,,,,,,,,,
null,,color_black,400104,,,black_plus_sign,,,,,null,,,,,,,,,,,,,,,,,,,,
null,,learn_phase(without_color),403112,,,black_plus_sign,,,,,null,US_Cities_List/hotsprings.png,US_Cities_List/shreveport.png,,,,,,,,,,,,,,,,,,
null,,black_cross(without_color),403544,,,blue,,,,,null,US_Cities_List/hotsprings.png,US_Cities_List/shreveport.png,,,,,,,,,,,,,,,,,,
493.7999999523163,,rt_plussign_withcolor,404045,,,blue,,,,,49,US_Cities_List/hotsprings.png,US_Cities_List/shreveport.png,,,,,,,,,,,,,,,,,,
null,,rt_thecrossant_black,405616,,,black_plus_sign,,,,,null,,,1,1,,,,,,,,,,,,,,,,
null,,color_black,405717,,,black_plus_sign,,,,,null,,,,,,,,,,,,,,,,,,,,
null,,learn_phase(without_color),408725,,,black_plus_sign,,,,,null,US_Cities_List/gatlinburg.png,US_Cities_List/shreveport.png,,,,,,,,,,,,,,,,,,
null,,black_cross(without_color),409544,,,yellow,,,,,null,US_Cities_List/gatlinburg.png,US_Cities_List/shreveport.png,,,,,,,,,,,,,,,,,,
null,,rt_plussign_withcolor,410045,,,yellow,,,,,null,US_Cities_List/gatlinburg.png,US_Cities_List/shreveport.png,,,,,,,,,,,,,,,,,,
577.3999999761581,,rt_thecrossant_black,411229,,,black_plus_sign,,,,,50,,,1,1,,,,,,,,,,,,,,,,
null,,color_black,411331,,,black_plus_sign,,,,,null,,,,,,,,,,,,,,,,,,,,
null,,learn_phase(without_color),414339,,,black_plus_sign,,,,,null,US_Cities_List/westpalmbeach.png,US_Cities_List/gatlinburg.png,,,,,,,,,,,,,,,,,,
null,,black_cross(without_color),415095,,,yellow,,,,,null,US_Cities_List/westpalmbeach.png,US_Cities_List/gatlinburg.png,,,,,,,,,,,,,,,,,,
null,,rt_plussign_withcolor,415597,,,yellow,,,,,null,US_Cities_List/westpalmbeach.png,US_Cities_List/gatlinburg.png,,,,,,,,,,,,,,,,,,
930.8999999761581,,rt_thecrossant_black,416844,,,black_plus_sign,,,,,50,,,1,1,,,,,,,,,,,,,,,,
null,,color_black,416949,,,black_plus_sign,,,,,null,,,,,,,,,,,,,,,,,,,,
null,,learn_phase(without_color),419955,,,black_plus_sign,,,,,null,US_Cities_List/leesburg.png,US_Cities_List/boulder.png,,,,,,,,,,,,,,,,,,
null,,black_cross(without_color),420508,,,yellow,,,,,null,US_Cities_List/leesburg.png,US_Cities_List/boulder.png,,,,,,,,,,,,,,,,,,
null,,rt_plussign_withcolor,421009,,,yellow,,,,,null,US_Cities_List/leesburg.png,US_Cities_List/boulder.png,,,,,,,,,,,,,,,,,,
1318.5,,rt_thecrossant_black,422460,,,black_plus_sign,,,,,50,,,1,1,,,,,,,,,,,,,,,,
null,,color_black,422561,,,black_plus_sign,,,,,null,,,,,,,,,,,,,,,,,,,,
null,,learn_phase(without_color),425567,,,black_plus_sign,,,,,null,US_Cities_List/hanover.png,US_Cities_List/newhope.png,,,,,,,,,,,,,,,,,,
null,,black_cross(without_color),426530,,,blue,,,,,null,US_Cities_List/hanover.png,US_Cities_List/newhope.png,,,,,,,,,,,,,,,,,,
468.5,,rt_plussign_withcolor,427032,,,blue,,,,,49,US_Cities_List/hanover.png,US_Cities_List/newhope.png,,,,,,,,,,,,,,,,,,
null,,rt_thecrossant_black,428072,,,black_plus_sign,,,,,null,,,1,1,,,,,,,,,,,,,,,,
null,,color_black,428172,,,black_plus_sign,,,,,null,,,,,,,,,,,,,,,,,,,,
null,,learn_phase(without_color),431181,,,black_plus_sign,,,,,null,US_Cities_List/leesburg.png,US_Cities_List/cornwall.png,,,,,,,,,,,,,,,,,,
null,,black_cross(without_color),431911,,,yellow,,,,,null,US_Cities_List/leesburg.png,US_Cities_List/cornwall.png,,,,,,,,,,,,,,,,,,
null,,rt_plussign_withcolor,432412,,,yellow,,,,,null,US_Cities_List/leesburg.png,US_Cities_List/cornwall.png,,,,,,,,,,,,,,,,,,
1084.3999999761581,,rt_thecrossant_black,433686,,,black_plus_sign,,,,,50,,,1,1,,,,,,,,,,,,,,,,
null,,color_black,433786,,,black_plus_sign,,,,,null,,,,,,,,,,,,,,,,,,,,
null,,learn_phase(without_color),436794,,,black_plus_sign,,,,,null,US_Cities_List/racine.png,US_Cities_List/hanover.png,,,,,,,,,,,,,,,,,,
null,,black_cross(without_color),437215,,,yellow,,,,,null,US_Cities_List/racine.png,US_Cities_List/hanover.png,,,,,,,,,,,,,,,,,,
null,,rt_plussign_withcolor,437717,,,yellow,,,,,null,US_Cities_List/racine.png,US_Cities_List/hanover.png,,,,,,,,,,,,,,,,,,
1073.8999999761581,,rt_thecrossant_black,439301,,,black_plus_sign,,,,,50,,,1,1,,,,,,,,,,,,,,,,
null,,color_black,439403,,,black_plus_sign,,,,,null,,,,,,,,,,,,,,,,,,,,
null,,learn_phase(without_color),442411,,,black_plus_sign,,,,,null,US_Cities_List/huntsville.png,US_Cities_List/racine.png,,,,,,,,,,,,,,,,,,
null,,black_cross(without_color),443045,,,blue,,,,,null,US_Cities_List/huntsville.png,US_Cities_List/racine.png,,,,,,,,,,,,,,,,,,
null,,rt_plussign_withcolor,443547,,,blue,,,,,null,US_Cities_List/huntsville.png,US_Cities_List/racine.png,,,,,,,,,,,,,,,,,,
961.4000000953674,,rt_thecrossant_black,444917,,,black_plus_sign,,,,,49,,,1,1,,,,,,,,,,,,,,,,
null,,color_black,445018,,,black_plus_sign,,,,,null,,,,,,,,,,,,,,,,,,,,
null,,learn_phase(without_color),448023,,,black_plus_sign,,,,,null,US_Cities_List/shreveport.png,US_Cities_List/gatlinburg.png,,,,,,,,,,,,,,,,,,
null,,black_cross(without_color),448813,,,blue,,,,,null,US_Cities_List/shreveport.png,US_Cities_List/gatlinburg.png,,,,,,,,,,,,,,,,,,
null,,rt_plussign_withcolor,449314,,,blue,,,,,null,US_Cities_List/shreveport.png,US_Cities_List/gatlinburg.png,,,,,,,,,,,,,,,,,,
801.3999999761581,,rt_thecrossant_black,450529,,,black_plus_sign,,,,,49,,,1,1,,,,,,,,,,,,,,,,
null,,color_black,450631,,,black_plus_sign,,,,,null,,,,,,,,,,,,,,,,,,,,
null,,learn_phase(without_color),453637,,,black_plus_sign,,,,,null,US_Cities_List/hotsprings.png,US_Cities_List/boulder.png,,,,,,,,,,,,,,,,,,
null,,black_cross(without_color),454346,,,blue,,,,,null,US_Cities_List/hotsprings.png,US_Cities_List/boulder.png,,,,,,,,,,,,,,,,,,
null,,rt_plussign_withcolor,454848,,,blue,,,,,null,US_Cities_List/hotsprings.png,US_Cities_List/boulder.png,,,,,,,,,,,,,,,,,,
1242,,rt_thecrossant_black,456142,,,black_plus_sign,,,,,49,,,1,1,,,,,,,,,,,,,,,,
null,,color_black,456243,,,black_plus_sign,,,,,null,,,,,,,,,,,,,,,,,,,,
null,,learn_phase(without_color),459251,,,black_plus_sign,,,,,null,US_Cities_List/leesburg.png,US_Cities_List/cornwall.png,,,,,,,,,,,,,,,,,,
null,,black_cross(without_color),459834,,,yellow,,,,,null,US_Cities_List/leesburg.png,US_Cities_List/cornwall.png,,,,,,,,,,,,,,,,,,
null,,rt_plussign_withcolor,460336,,,yellow,,,,,null,US_Cities_List/leesburg.png,US_Cities_List/cornwall.png,,,,,,,,,,,,,,,,,,
1358.5999999046326,,rt_thecrossant_black,461756,,,black_plus_sign,,,,,50,,,1,1,,,,,,,,,,,,,,,,
null,,color_black,461858,,,black_plus_sign,,,,,null,,,,,,,,,,,,,,,,,,,,
null,,learn_phase(without_color),464863,,,black_plus_sign,,,,,null,US_Cities_List/hanover.png,US_Cities_List/gatlinburg.png,,,,,,,,,,,,,,,,,,
null,,black_cross(without_color),465523,,,blue,,,,,null,US_Cities_List/hanover.png,US_Cities_List/gatlinburg.png,,,,,,,,,,,,,,,,,,
null,,rt_plussign_withcolor,466024,,,blue,,,,,null,US_Cities_List/hanover.png,US_Cities_List/gatlinburg.png,,,,,,,,,,,,,,,,,,
1416.0999999046326,,rt_thecrossant_black,467368,,,black_plus_sign,,,,,49,,,1,1,,,,,,,,,,,,,,,,
null,,color_black,467470,,,black_plus_sign,,,,,null,,,,,,,,,,,,,,,,,,,,
null,,learn_phase(without_color),470477,,,black_plus_sign,,,,,null,US_Cities_List/shreveport.png,US_Cities_List/gatlinburg.png,,,,,,,,,,,,,,,,,,
null,,black_cross(without_color),470967,,,blue,,,,,null,US_Cities_List/shreveport.png,US_Cities_List/gatlinburg.png,,,,,,,,,,,,,,,,,,
null,,rt_plussign_withcolor,471470,,,blue,,,,,null,US_Cities_List/shreveport.png,US_Cities_List/gatlinburg.png,,,,,,,,,,,,,,,,,,
1015.5999999046326,,rt_thecrossant_black,472982,,,black_plus_sign,,,,,49,,,1,1,,,,,,,,,,,,,,,,
null,,color_black,473083,,,black_plus_sign,,,,,null,,,,,,,,,,,,,,,,,,,,
null,,learn_phase(without_color),476090,,,black_plus_sign,,,,,null,US_Cities_List/shreveport.png,US_Cities_List/gatlinburg.png,,,,,,,,,,,,,,,,,,
null,,black_cross(without_color),476948,,,yellow,,,,,null,US_Cities_List/shreveport.png,US_Cities_List/gatlinburg.png,,,,,,,,,,,,,,,,,,
null,,rt_plussign_withcolor,477450,,,yellow,,,,,null,US_Cities_List/shreveport.png,US_Cities_List/gatlinburg.png,,,,,,,,,,,,,,,,,,
707.6000000238419,,rt_thecrossant_black,478596,,,black_plus_sign,,,,,50,,,1,1,,,,,,,,,,,,,,,,
null,,color_black,478698,,,black_plus_sign,,,,,null,,,,,,,,,,,,,,,,,,,,
null,,learn_phase(without_color),481704,,,black_plus_sign,,,,,null,US_Cities_List/shreveport.png,US_Cities_List/gatlinburg.png,,,,,,,,,,,,,,,,,,
null,,black_cross(without_color),482181,,,blue,,,,,null,US_Cities_List/shreveport.png,US_Cities_List/gatlinburg.png,,,,,,,,,,,,,,,,,,
null,,rt_plussign_withcolor,482683,,,blue,,,,,null,US_Cities_List/shreveport.png,US_Cities_List/gatlinburg.png,,,,,,,,,,,,,,,,,,
1277.0999999046326,,rt_thecrossant_black,484210,,,black_plus_sign,,,,,49,,,1,1,,,,,,,,,,,,,,,,
null,,color_black,484311,,,black_plus_sign,,,,,null,,,,,,,,,,,,,,,,,,,,
null,,learn_phase(without_color),487318,,,black_plus_sign,,,,,null,US_Cities_List/gatlinburg.png,US_Cities_List/hanover.png,,,,,,,,,,,,,,,,,,
null,,black_cross(without_color),488000,,,yellow,,,,,null,US_Cities_List/gatlinburg.png,US_Cities_List/hanover.png,,,,,,,,,,,,,,,,,,
null,,rt_plussign_withcolor,488502,,,yellow,,,,,null,US_Cities_List/gatlinburg.png,US_Cities_List/hanover.png,,,,,,,,,,,,,,,,,,
814.6000000238419,,rt_thecrossant_black,489822,,,black_plus_sign,,,,,50,,,1,1,,,,,,,,,,,,,,,,
null,,color_black,489924,,,black_plus_sign,,,,,null,,,,,,,,,,,,,,,,,,,,
null,,learn_phase(without_color),492932,,,black_plus_sign,,,,,null,US_Cities_List/shreveport.png,US_Cities_List/gatlinburg.png,,,,,,,,,,,,,,,,,,
null,,black_cross(without_color),493423,,,blue,,,,,null,US_Cities_List/shreveport.png,US_Cities_List/gatlinburg.png,,,,,,,,,,,,,,,,,,
null,,rt_plussign_withcolor,493924,,,blue,,,,,null,US_Cities_List/shreveport.png,US_Cities_List/gatlinburg.png,,,,,,,,,,,,,,,,,,
1147.5,,rt_thecrossant_black,495438,,,black_plus_sign,,,,,49,,,1,1,,,,,,,,,,,,,,,,
null,,color_black,495541,,,black_plus_sign,,,,,null,,,,,,,,,,,,,,,,,,,,
null,,learn_phase(without_color),498545,,,black_plus_sign,,,,,null,US_Cities_List/racine.png,US_Cities_List/huntsville.png,,,,,,,,,,,,,,,,,,
null,,black_cross(without_color),499031,,,yellow,,,,,null,US_Cities_List/racine.png,US_Cities_List/huntsville.png,,,,,,,,,,,,,,,,,,
null,,rt_plussign_withcolor,499533,,,yellow,,,,,null,US_Cities_List/racine.png,US_Cities_List/huntsville.png,,,,,,,,,,,,,,,,,,
770.7999999523163,,rt_thecrossant_black,501051,,,black_plus_sign,,,,,50,,,1,1,,,,,,,,,,,,,,,,
null,,color_black,501152,,,black_plus_sign,,,,,null,,,,,,,,,,,,,,,,,,,,
null,,learn_phase(without_color),504158,,,black_plus_sign,,,,,null,US_Cities_List/boulder.png,US_Cities_List/leesburg.png,,,,,,,,,,,,,,,,,,
null,,black_cross(without_color),505069,,,blue,,,,,null,US_Cities_List/boulder.png,US_Cities_List/leesburg.png,,,,,,,,,,,,,,,,,,
null,,rt_plussign_withcolor,505571,,,blue,,,,,null,US_Cities_List/boulder.png,US_Cities_List/leesburg.png,,,,,,,,,,,,,,,,,,
651.8999999761581,,rt_thecrossant_black,506662,,,black_plus_sign,,,,,49,,,1,1,,,,,,,,,,,,,,,,
null,,color_black,506764,,,black_plus_sign,,,,,null,,,,,,,,,,,,,,,,,,,,
null,,learn_phase(without_color),509771,,,black_plus_sign,,,,,null,US_Cities_List/boulder.png,US_Cities_List/hotsprings.png,,,,,,,,,,,,,,,,,,
null,,black_cross(without_color),510276,,,blue,,,,,null,US_Cities_List/boulder.png,US_Cities_List/hotsprings.png,,,,,,,,,,,,,,,,,,
null,,rt_plussign_withcolor,510778,,,blue,,,,,null,US_Cities_List/boulder.png,US_Cities_List/hotsprings.png,,,,,,,,,,,,,,,,,,
1237.5,,rt_thecrossant_black,512277,,,black_plus_sign,,,,,49,,,1,1,,,,,,,,,,,,,,,,
null,,color_black,512379,,,black_plus_sign,,,,,null,,,,,,,,,,,,,,,,,,,,
null,,learn_phase(without_color),515386,,,black_plus_sign,,,,,null,US_Cities_List/huntsville.png,US_Cities_List/hotsprings.png,,,,,,,,,,,,,,,,,,
null,,black_cross(without_color),516442,,,blue,,,,,null,US_Cities_List/huntsville.png,US_Cities_List/hotsprings.png,,,,,,,,,,,,,,,,,,
null,,rt_plussign_withcolor,516945,,,blue,,,,,null,US_Cities_List/huntsville.png,US_Cities_List/hotsprings.png,,,,,,,,,,,,,,,,,,
1152.6999999284744,,rt_thecrossant_black,517892,,,black_plus_sign,,,,,49,,,1,1,,,,,,,,,,,,,,,,
null,,color_black,517993,,,black_plus_sign,,,,,null,,,,,,,,,,,,,,,,,,,,
null,,learn_phase(without_color),521000,,,black_plus_sign,,,,,null,US_Cities_List/hanover.png,US_Cities_List/shreveport.png,,,,,,,,,,,,,,,,,,
null,,black_cross(without_color),521548,,,blue,,,,,null,US_Cities_List/hanover.png,US_Cities_List/shreveport.png,,,,,,,,,,,,,,,,,,
null,,rt_plussign_withcolor,522050,,,blue,,,,,null,US_Cities_List/hanover.png,US_Cities_List/shreveport.png,,,,,,,,,,,,,,,,,,
1847,,rt_thecrossant_black,523505,,,black_plus_sign,,,,,49,,,1,1,,,,,,,,,,,,,,,,
null,,color_black,523607,,,black_plus_sign,,,,,null,,,,,,,,,,,,,,,,,,,,
null,,learn_phase(without_color),526613,,,black_plus_sign,,,,,null,US_Cities_List/hotsprings.png,US_Cities_List/boulder.png,,,,,,,,,,,,,,,,,,
null,,black_cross(without_color),527124,,,yellow,,,,,null,US_Cities_List/hotsprings.png,US_Cities_List/boulder.png,,,,,,,,,,,,,,,,,,
null,,rt_plussign_withcolor,527625,,,yellow,,,,,null,US_Cities_List/hotsprings.png,US_Cities_List/boulder.png,,,,,,,,,,,,,,,,,,
983.5999999046326,,rt_thecrossant_black,529119,,,black_plus_sign,,,,,50,,,1,1,,,,,,,,,,,,,,,,
null,,color_black,529227,,,black_plus_sign,,,,,null,,,,,,,,,,,,,,,,,,,,
null,,learn_phase(without_color),532232,,,black_plus_sign,,,,,null,US_Cities_List/racine.png,US_Cities_List/huntsville.png,,,,,,,,,,,,,,,,,,
null,,black_cross(without_color),532802,,,blue,,,,,null,US_Cities_List/racine.png,US_Cities_List/huntsville.png,,,,,,,,,,,,,,,,,,
null,,rt_plussign_withcolor,533304,,,blue,,,,,null,US_Cities_List/racine.png,US_Cities_List/huntsville.png,,,,,,,,,,,,,,,,,,
656.6999999284744,,rt_thecrossant_black,534739,,,black_plus_sign,,,,,49,,,1,1,,,,,,,,,,,,,,,,
null,,color_black,534839,,,black_plus_sign,,,,,null,,,,,,,,,,,,,,,,,,,,
null,,learn_phase(without_color),537847,,,black_plus_sign,,,,,null,US_Cities_List/westpalmbeach.png,US_Cities_List/gatlinburg.png,,,,,,,,,,,,,,,,,,
null,,black_cross(without_color),538407,,,yellow,,,,,null,US_Cities_List/westpalmbeach.png,US_Cities_List/gatlinburg.png,,,,,,,,,,,,,,,,,,
null,,rt_plussign_withcolor,538908,,,yellow,,,,,null,US_Cities_List/westpalmbeach.png,US_Cities_List/gatlinburg.png,,,,,,,,,,,,,,,,,,
1567.6000000238419,,rt_thecrossant_black,540365,,,black_plus_sign,,,,,50,,,1,1,,,,,,,,,,,,,,,,
null,,color_black,540467,,,black_plus_sign,,,,,null,,,,,,,,,,,,,,,,,,,,
null,,learn_phase(without_color),543475,,,black_plus_sign,,,,,null,US_Cities_List/cornwall.png,US_Cities_List/peoria.png,,,,,,,,,,,,,,,,,,
null,,black_cross(without_color),544189,,,blue,,,,,null,US_Cities_List/cornwall.png,US_Cities_List/peoria.png,,,,,,,,,,,,,,,,,,
null,,rt_plussign_withcolor,544691,,,blue,,,,,null,US_Cities_List/cornwall.png,US_Cities_List/peoria.png,,,,,,,,,,,,,,,,,,
1564.1000000238419,,rt_thecrossant_black,545982,,,black_plus_sign,,,,,50,,,0,0.9838709677419355,,,,,,,,,,,,,,,,
null,,color_black,546082,,,black_plus_sign,,,,,null,,,,,,,,,,,,,,,,,,,,
null,,learn_phase(without_color),549089,,,black_plus_sign,,,,,null,US_Cities_List/shreveport.png,US_Cities_List/hanover.png,,,,,,,,,,,,,,,,,,
null,,black_cross(without_color),549738,,,yellow,,,,,null,US_Cities_List/shreveport.png,US_Cities_List/hanover.png,,,,,,,,,,,,,,,,,,
null,,rt_plussign_withcolor,550240,,,yellow,,,,,null,US_Cities_List/shreveport.png,US_Cities_List/hanover.png,,,,,,,,,,,,,,,,,,
1003.0999999046326,,rt_thecrossant_black,551593,,,black_plus_sign,,,,,50,,,1,0.9841269841269841,,,,,,,,,,,,,,,,
null,,color_black,551696,,,black_plus_sign,,,,,null,,,,,,,,,,,,,,,,,,,,
38543.200000047684,,learn_break,590240,,,learn_break,,,,,32,,,,,,,,,,,,,,,,,,,,
null,,html-keyboard-response,591242,,,<p></p>,,,,,null,,,,,,,,,,,,,,,,,,,,
null,,learn_phase(without_color),594249,,,black_plus_sign,,,,,null,US_Cities_List/cornwall.png,US_Cities_List/peoria.png,,,,,,,,,,,,,,,,,,
null,,black_cross(without_color),595017,,,yellow,,,,,null,US_Cities_List/cornwall.png,US_Cities_List/peoria.png,,,,,,,,,,,,,,,,,,
null,,rt_plussign_withcolor,595520,,,yellow,,,,,null,US_Cities_List/cornwall.png,US_Cities_List/peoria.png,,,,,,,,,,,,,,,,,,
1642.0999999046326,,rt_thecrossant_black,596755,,,black_plus_sign,,,,,50,,,1,0.984375,,,,,,,,,,,,,,,,
null,,color_black,596857,,,black_plus_sign,,,,,null,,,,,,,,,,,,,,,,,,,,
null,,learn_phase(without_color),599863,,,black_plus_sign,,,,,null,US_Cities_List/shreveport.png,US_Cities_List/hanover.png,,,,,,,,,,,,,,,,,,
null,,black_cross(without_color),600812,,,yellow,,,,,null,US_Cities_List/shreveport.png,US_Cities_List/hanover.png,,,,,,,,,,,,,,,,,,
null,,rt_plussign_withcolor,601316,,,yellow,,,,,null,US_Cities_List/shreveport.png,US_Cities_List/hanover.png,,,,,,,,,,,,,,,,,,
904.3999999761581,,rt_thecrossant_black,602370,,,black_plus_sign,,,,,50,,,1,0.9846153846153847,,,,,,,,,,,,,,,,
null,,color_black,602472,,,black_plus_sign,,,,,null,,,,,,,,,,,,,,,,,,,,
null,,learn_phase(without_color),605477,,,black_plus_sign,,,,,null,US_Cities_List/hotsprings.png,US_Cities_List/huntsville.png,,,,,,,,,,,,,,,,,,
null,,black_cross(without_color),605990,,,yellow,,,,,null,US_Cities_List/hotsprings.png,US_Cities_List/huntsville.png,,,,,,,,,,,,,,,,,,
null,,rt_plussign_withcolor,606492,,,yellow,,,,,null,US_Cities_List/hotsprings.png,US_Cities_List/huntsville.png,,,,,,,,,,,,,,,,,,
1373.5,,rt_thecrossant_black,607982,,,black_plus_sign,,,,,50,,,1,0.9848484848484849,,,,,,,,,,,,,,,,
null,,color_black,608084,,,black_plus_sign,,,,,null,,,,,,,,,,,,,,,,,,,,
null,,learn_phase(without_color),611090,,,black_plus_sign,,,,,null,US_Cities_List/huntsville.png,US_Cities_List/racine.png,,,,,,,,,,,,,,,,,,
null,,black_cross(without_color),611913,,,blue,,,,,null,US_Cities_List/huntsville.png,US_Cities_List/racine.png,,,,,,,,,,,,,,,,,,
469.6999999284744,,rt_plussign_withcolor,612415,,,blue,,,,,49,US_Cities_List/huntsville.png,US_Cities_List/racine.png,,,,,,,,,,,,,,,,,,
null,,rt_thecrossant_black,613595,,,black_plus_sign,,,,,null,,,1,0.9850746268656716,,,,,,,,,,,,,,,,
null,,color_black,613696,,,black_plus_sign,,,,,null,,,,,,,,,,,,,,,,,,,,
null,,learn_phase(without_color),616702,,,black_plus_sign,,,,,null,US_Cities_List/carmel.png,US_Cities_List/leesburg.png,,,,,,,,,,,,,,,,,,
null,,black_cross(without_color),617601,,,blue,,,,,null,US_Cities_List/carmel.png,US_Cities_List/leesburg.png,,,,,,,,,,,,,,,,,,
null,,rt_plussign_withcolor,618115,,,blue,,,,,null,US_Cities_List/carmel.png,US_Cities_List/leesburg.png,,,,,,,,,,,,,,,,,,
1191.7999999523163,,rt_thecrossant_black,619220,,,black_plus_sign,,,,,49,,,1,0.9852941176470589,,,,,,,,,,,,,,,,
null,,color_black,619321,,,black_plus_sign,,,,,null,,,,,,,,,,,,,,,,,,,,
null,,learn_phase(without_color),622327,,,black_plus_sign,,,,,null,US_Cities_List/huntsville.png,US_Cities_List/hotsprings.png,,,,,,,,,,,,,,,,,,
null,,black_cross(without_color),623137,,,blue,,,,,null,US_Cities_List/huntsville.png,US_Cities_List/hotsprings.png,,,,,,,,,,,,,,,,,,
null,,rt_plussign_withcolor,623638,,,blue,,,,,null,US_Cities_List/huntsville.png,US_Cities_List/hotsprings.png,,,,,,,,,,,,,,,,,,
1848.5,,rt_thecrossant_black,624831,,,black_plus_sign,,,,,49,,,1,0.9855072463768116,,,,,,,,,,,,,,,,
null,,color_black,624933,,,black_plus_sign,,,,,null,,,,,,,,,,,,,,,,,,,,
null,,learn_phase(without_color),627940,,,black_plus_sign,,,,,null,US_Cities_List/boulder.png,US_Cities_List/leesburg.png,,,,,,,,,,,,,,,,,,
null,,black_cross(without_color),628406,,,yellow,,,,,null,US_Cities_List/boulder.png,US_Cities_List/leesburg.png,,,,,,,,,,,,,,,,,,
null,,rt_plussign_withcolor,628917,,,yellow,,,,,null,US_Cities_List/boulder.png,US_Cities_List/leesburg.png,,,,,,,,,,,,,,,,,,
1259.8000000715256,,rt_thecrossant_black,630453,,,black_plus_sign,,,,,50,,,1,0.9857142857142858,,,,,,,,,,,,,,,,
null,,color_black,630554,,,black_plus_sign,,,,,null,,,,,,,,,,,,,,,,,,,,
null,,learn_phase(without_color),633561,,,black_plus_sign,,,,,null,US_Cities_List/shreveport.png,US_Cities_List/hotsprings.png,,,,,,,,,,,,,,,,,,
null,,black_cross(without_color),634230,,,yellow,,,,,null,US_Cities_List/shreveport.png,US_Cities_List/hotsprings.png,,,,,,,,,,,,,,,,,,
null,,rt_plussign_withcolor,634731,,,yellow,,,,,null,US_Cities_List/shreveport.png,US_Cities_List/hotsprings.png,,,,,,,,,,,,,,,,,,
1060.8999999761581,,rt_thecrossant_black,636070,,,black_plus_sign,,,,,50,,,1,0.9859154929577465,,,,,,,,,,,,,,,,
null,,color_black,636172,,,black_plus_sign,,,,,null,,,,,,,,,,,,,,,,,,,,
null,,learn_phase(without_color),639179,,,black_plus_sign,,,,,null,US_Cities_List/hotsprings.png,US_Cities_List/shreveport.png,,,,,,,,,,,,,,,,,,
null,,black_cross(without_color),639919,,,blue,,,,,null,US_Cities_List/hotsprings.png,US_Cities_List/shreveport.png,,,,,,,,,,,,,,,,,,
null,,rt_plussign_withcolor,640421,,,blue,,,,,null,US_Cities_List/hotsprings.png,US_Cities_List/shreveport.png,,,,,,,,,,,,,,,,,,
865.2000000476837,,rt_thecrossant_black,641684,,,black_plus_sign,,,,,49,,,1,0.9861111111111112,,,,,,,,,,,,,,,,
null,,color_black,641785,,,black_plus_sign,,,,,null,,,,,,,,,,,,,,,,,,,,
null,,learn_phase(without_color),644791,,,black_plus_sign,,,,,null,US_Cities_List/westpalmbeach.png,US_Cities_List/gatlinburg.png,,,,,,,,,,,,,,,,,,
null,,black_cross(without_color),645214,,,yellow,,,,,null,US_Cities_List/westpalmbeach.png,US_Cities_List/gatlinburg.png,,,,,,,,,,,,,,,,,,
null,,rt_plussign_withcolor,645716,,,yellow,,,,,null,US_Cities_List/westpalmbeach.png,US_Cities_List/gatlinburg.png,,,,,,,,,,,,,,,,,,
1027.2000000476837,,rt_thecrossant_black,647297,,,black_plus_sign,,,,,50,,,1,0.9863013698630136,,,,,,,,,,,,,,,,
null,,color_black,647398,,,black_plus_sign,,,,,null,,,,,,,,,,,,,,,,,,,,
null,,learn_phase(without_color),650406,,,black_plus_sign,,,,,null,US_Cities_List/hanover.png,US_Cities_List/gatlinburg.png,,,,,,,,,,,,,,,,,,
null,,black_cross(without_color),651304,,,blue,,,,,null,US_Cities_List/hanover.png,US_Cities_List/gatlinburg.png,,,,,,,,,,,,,,,,,,
null,,rt_plussign_withcolor,651806,,,blue,,,,,null,US_Cities_List/hanover.png,US_Cities_List/gatlinburg.png,,,,,,,,,,,,,,,,,,
625.6000000238419,,rt_thecrossant_black,652910,,,black_plus_sign,,,,,49,,,1,0.9864864864864865,,,,,,,,,,,,,,,,
null,,color_black,653012,,,black_plus_sign,,,,,null,,,,,,,,,,,,,,,,,,,,
null,,learn_phase(without_color),656022,,,black_plus_sign,,,,,null,US_Cities_List/leesburg.png,US_Cities_List/cornwall.png,,,,,,,,,,,,,,,,,,
null,,black_cross(without_color),656800,,,yellow,,,,,null,US_Cities_List/leesburg.png,US_Cities_List/cornwall.png,,,,,,,,,,,,,,,,,,
null,,rt_plussign_withcolor,657301,,,yellow,,,,,null,US_Cities_List/leesburg.png,US_Cities_List/cornwall.png,,,,,,,,,,,,,,,,,,
1973.7999999523163,,rt_thecrossant_black,658526,,,black_plus_sign,,,,,50,,,1,0.9866666666666667,,,,,,,,,,,,,,,,
null,,color_black,658627,,,black_plus_sign,,,,,null,,,,,,,,,,,,,,,,,,,,
null,,learn_phase(without_color),661634,,,black_plus_sign,,,,,null,US_Cities_List/gatlinburg.png,US_Cities_List/shreveport.png,,,,,,,,,,,,,,,,,,
null,,black_cross(without_color),662061,,,blue,,,,,null,US_Cities_List/gatlinburg.png,US_Cities_List/shreveport.png,,,,,,,,,,,,,,,,,,
null,,rt_plussign_withcolor,662563,,,blue,,,,,null,US_Cities_List/gatlinburg.png,US_Cities_List/shreveport.png,,,,,,,,,,,,,,,,,,
1214.9000000953674,,rt_thecrossant_black,664139,,,black_plus_sign,,,,,49,,,1,0.9868421052631579,,,,,,,,,,,,,,,,
null,,color_black,664248,,,black_plus_sign,,,,,null,,,,,,,,,,,,,,,,,,,,
null,,learn_phase(without_color),667254,,,black_plus_sign,,,,,null,US_Cities_List/racine.png,US_Cities_List/huntsville.png,,,,,,,,,,,,,,,,,,
null,,black_cross(without_color),668119,,,blue,,,,,null,US_Cities_List/racine.png,US_Cities_List/huntsville.png,,,,,,,,,,,,,,,,,,
null,,rt_plussign_withcolor,668621,,,blue,,,,,null,US_Cities_List/racine.png,US_Cities_List/huntsville.png,,,,,,,,,,,,,,,,,,
658.7999999523163,,rt_thecrossant_black,669760,,,black_plus_sign,,,,,49,,,1,0.987012987012987,,,,,,,,,,,,,,,,
null,,color_black,669861,,,black_plus_sign,,,,,null,,,,,,,,,,,,,,,,,,,,
null,,learn_phase(without_color),672869,,,black_plus_sign,,,,,null,US_Cities_List/hanover.png,US_Cities_List/newhope.png,,,,,,,,,,,,,,,,,,
null,,black_cross(without_color),673400,,,blue,,,,,null,US_Cities_List/hanover.png,US_Cities_List/newhope.png,,,,,,,,,,,,,,,,,,
null,,rt_plussign_withcolor,673915,,,blue,,,,,null,US_Cities_List/hanover.png,US_Cities_List/newhope.png,,,,,,,,,,,,,,,,,,
1406,,rt_thecrossant_black,675387,,,black_plus_sign,,,,,49,,,1,0.9871794871794872,,,,,,,,,,,,,,,,
null,,color_black,675488,,,black_plus_sign,,,,,null,,,,,,,,,,,,,,,,,,,,
null,,learn_phase(without_color),678494,,,black_plus_sign,,,,,null,US_Cities_List/racine.png,US_Cities_List/shreveport.png,,,,,,,,,,,,,,,,,,
null,,black_cross(without_color),679469,,,blue,,,,,null,US_Cities_List/racine.png,US_Cities_List/shreveport.png,,,,,,,,,,,,,,,,,,
363.39999997615814,,rt_plussign_withcolor,679970,,,blue,,,,,49,US_Cities_List/racine.png,US_Cities_List/shreveport.png,,,,,,,,,,,,,,,,,,
null,,rt_thecrossant_black,680998,,,black_plus_sign,,,,,null,,,1,0.9873417721518988,,,,,,,,,,,,,,,,
null,,color_black,681100,,,black_plus_sign,,,,,null,,,,,,,,,,,,,,,,,,,,
null,,learn_phase(without_color),684107,,,black_plus_sign,,,,,null,US_Cities_List/huntsville.png,US_Cities_List/racine.png,,,,,,,,,,,,,,,,,,
null,,black_cross(without_color),684676,,,blue,,,,,null,US_Cities_List/huntsville.png,US_Cities_List/racine.png,,,,,,,,,,,,,,,,,,
490.40000009536743,,rt_plussign_withcolor,685178,,,blue,,,,,49,US_Cities_List/huntsville.png,US_Cities_List/racine.png,,,,,,,,,,,,,,,,,,
null,,rt_thecrossant_black,686614,,,black_plus_sign,,,,,null,,,1,0.9875,,,,,,,,,,,,,,,,
null,,color_black,686716,,,black_plus_sign,,,,,null,,,,,,,,,,,,,,,,,,,,
null,,learn_phase(without_color),689723,,,black_plus_sign,,,,,null,US_Cities_List/westpalmbeach.png,US_Cities_List/gatlinburg.png,,,,,,,,,,,,,,,,,,
null,,black_cross(without_color),690593,,,blue,,,,,null,US_Cities_List/westpalmbeach.png,US_Cities_List/gatlinburg.png,,,,,,,,,,,,,,,,,,
null,,rt_plussign_withcolor,691096,,,blue,,,,,null,US_Cities_List/westpalmbeach.png,US_Cities_List/gatlinburg.png,,,,,,,,,,,,,,,,,,
679.5,,rt_thecrossant_black,692230,,,black_plus_sign,,,,,49,,,1,0.9876543209876543,,,,,,,,,,,,,,,,
null,,color_black,692330,,,black_plus_sign,,,,,null,,,,,,,,,,,,,,,,,,,,
null,,learn_phase(without_color),695335,,,black_plus_sign,,,,,null,US_Cities_List/hotsprings.png,US_Cities_List/huntsville.png,,,,,,,,,,,,,,,,,,
null,,black_cross(without_color),695954,,,blue,,,,,null,US_Cities_List/hotsprings.png,US_Cities_List/huntsville.png,,,,,,,,,,,,,,,,,,
381.1999999284744,,rt_plussign_withcolor,696456,,,blue,,,,,49,US_Cities_List/hotsprings.png,US_Cities_List/huntsville.png,,,,,,,,,,,,,,,,,,
null,,rt_thecrossant_black,697842,,,black_plus_sign,,,,,null,,,1,0.9878048780487805,,,,,,,,,,,,,,,,
null,,color_black,697943,,,black_plus_sign,,,,,null,,,,,,,,,,,,,,,,,,,,
null,,learn_phase(without_color),700952,,,black_plus_sign,,,,,null,US_Cities_List/racine.png,US_Cities_List/hanover.png,,,,,,,,,,,,,,,,,,
null,,black_cross(without_color),701527,,,yellow,,,,,null,US_Cities_List/racine.png,US_Cities_List/hanover.png,,,,,,,,,,,,,,,,,,
null,,rt_plussign_withcolor,702027,,,yellow,,,,,null,US_Cities_List/racine.png,US_Cities_List/hanover.png,,,,,,,,,,,,,,,,,,
875.3999999761581,,rt_thecrossant_black,703457,,,black_plus_sign,,,,,50,,,1,0.9879518072289156,,,,,,,,,,,,,,,,
null,,color_black,703558,,,black_plus_sign,,,,,null,,,,,,,,,,,,,,,,,,,,
null,,learn_phase(without_color),706567,,,black_plus_sign,,,,,null,US_Cities_List/cornwall.png,US_Cities_List/peoria.png,,,,,,,,,,,,,,,,,,
null,,black_cross(without_color),707112,,,yellow,,,,,null,US_Cities_List/cornwall.png,US_Cities_List/peoria.png,,,,,,,,,,,,,,,,,,
467.09999990463257,,rt_plussign_withcolor,707613,,,yellow,,,,,50,US_Cities_List/cornwall.png,US_Cities_List/peoria.png,,,,,,,,,,,,,,,,,,
null,,rt_thecrossant_black,709071,,,black_plus_sign,,,,,null,,,1,0.9880952380952381,,,,,,,,,,,,,,,,
null,,color_black,709180,,,black_plus_sign,,,,,null,,,,,,,,,,,,,,,,,,,,
null,,learn_phase(without_color),712189,,,black_plus_sign,,,,,null,US_Cities_List/huntsville.png,US_Cities_List/cornwall.png,,,,,,,,,,,,,,,,,,
null,,black_cross(without_color),712696,,,blue,,,,,null,US_Cities_List/huntsville.png,US_Cities_List/cornwall.png,,,,,,,,,,,,,,,,,,
null,,rt_plussign_withcolor,713207,,,blue,,,,,null,US_Cities_List/huntsville.png,US_Cities_List/cornwall.png,,,,,,,,,,,,,,,,,,
777.3999999761581,,rt_thecrossant_black,714704,,,black_plus_sign,,,,,49,,,1,0.9882352941176471,,,,,,,,,,,,,,,,
null,,color_black,714806,,,black_plus_sign,,,,,null,,,,,,,,,,,,,,,,,,,,
null,,learn_phase(without_color),717813,,,black_plus_sign,,,,,null,US_Cities_List/shreveport.png,US_Cities_List/hotsprings.png,,,,,,,,,,,,,,,,,,
null,,black_cross(without_color),718277,,,blue,,,,,null,US_Cities_List/shreveport.png,US_Cities_List/hotsprings.png,,,,,,,,,,,,,,,,,,
null,,rt_plussign_withcolor,718779,,,blue,,,,,null,US_Cities_List/shreveport.png,US_Cities_List/hotsprings.png,,,,,,,,,,,,,,,,,,
1303.8000000715256,,rt_thecrossant_black,720318,,,black_plus_sign,,,,,49,,,1,0.9883720930232558,,,,,,,,,,,,,,,,
null,,color_black,720426,,,black_plus_sign,,,,,null,,,,,,,,,,,,,,,,,,,,
null,,learn_phase(without_color),723434,,,black_plus_sign,,,,,null,US_Cities_List/gatlinburg.png,US_Cities_List/hanover.png,,,,,,,,,,,,,,,,,,
null,,black_cross(without_color),724088,,,yellow,,,,,null,US_Cities_List/gatlinburg.png,US_Cities_List/hanover.png,,,,,,,,,,,,,,,,,,
null,,rt_plussign_withcolor,724590,,,yellow,,,,,null,US_Cities_List/gatlinburg.png,US_Cities_List/hanover.png,,,,,,,,,,,,,,,,,,
790.1999999284744,,rt_thecrossant_black,725940,,,black_plus_sign,,,,,50,,,1,0.9885057471264368,,,,,,,,,,,,,,,,
null,,color_black,726041,,,black_plus_sign,,,,,null,,,,,,,,,,,,,,,,,,,,
null,,learn_phase(without_color),729047,,,black_plus_sign,,,,,null,US_Cities_List/hotsprings.png,US_Cities_List/boulder.png,,,,,,,,,,,,,,,,,,
null,,black_cross(without_color),729836,,,yellow,,,,,null,US_Cities_List/hotsprings.png,US_Cities_List/boulder.png,,,,,,,,,,,,,,,,,,
null,,rt_plussign_withcolor,730338,,,yellow,,,,,null,US_Cities_List/hotsprings.png,US_Cities_List/boulder.png,,,,,,,,,,,,,,,,,,
868.3000000715256,,rt_thecrossant_black,731553,,,black_plus_sign,,,,,50,,,1,0.9886363636363636,,,,,,,,,,,,,,,,
null,,color_black,731654,,,black_plus_sign,,,,,null,,,,,,,,,,,,,,,,,,,,
null,,learn_phase(without_color),734661,,,black_plus_sign,,,,,null,US_Cities_List/huntsville.png,US_Cities_List/cornwall.png,,,,,,,,,,,,,,,,,,
null,,black_cross(without_color),735274,,,blue,,,,,null,US_Cities_List/huntsville.png,US_Cities_List/cornwall.png,,,,,,,,,,,,,,,,,,
null,,rt_plussign_withcolor,735775,,,blue,,,,,null,US_Cities_List/huntsville.png,US_Cities_List/cornwall.png,,,,,,,,,,,,,,,,,,
1092,,rt_thecrossant_black,737165,,,black_plus_sign,,,,,49,,,1,0.9887640449438202,,,,,,,,,,,,,,,,
null,,color_black,737266,,,black_plus_sign,,,,,null,,,,,,,,,,,,,,,,,,,,
null,,learn_phase(without_color),740273,,,black_plus_sign,,,,,null,US_Cities_List/hotsprings.png,US_Cities_List/huntsville.png,,,,,,,,,,,,,,,,,,
null,,black_cross(without_color),740934,,,yellow,,,,,null,US_Cities_List/hotsprings.png,US_Cities_List/huntsville.png,,,,,,,,,,,,,,,,,,
null,,rt_plussign_withcolor,741448,,,yellow,,,,,null,US_Cities_List/hotsprings.png,US_Cities_List/huntsville.png,,,,,,,,,,,,,,,,,,
1035.3000000715256,,rt_thecrossant_black,742792,,,black_plus_sign,,,,,50,,,1,0.9888888888888889,,,,,,,,,,,,,,,,
null,,color_black,742893,,,black_plus_sign,,,,,null,,,,,,,,,,,,,,,,,,,,
null,,learn_phase(without_color),745900,,,black_plus_sign,,,,,null,US_Cities_List/boulder.png,US_Cities_List/leesburg.png,,,,,,,,,,,,,,,,,,
null,,black_cross(without_color),746486,,,yellow,,,,,null,US_Cities_List/boulder.png,US_Cities_List/leesburg.png,,,,,,,,,,,,,,,,,,
null,,rt_plussign_withcolor,746988,,,yellow,,,,,null,US_Cities_List/boulder.png,US_Cities_List/leesburg.png,,,,,,,,,,,,,,,,,,
1005.5999999046326,,rt_thecrossant_black,748405,,,black_plus_sign,,,,,50,,,1,0.989010989010989,,,,,,,,,,,,,,,,
null,,color_black,748506,,,black_plus_sign,,,,,null,,,,,,,,,,,,,,,,,,,,
null,,learn_phase(without_color),751516,,,black_plus_sign,,,,,null,US_Cities_List/peoria.png,US_Cities_List/cornwall.png,,,,,,,,,,,,,,,,,,
null,,black_cross(without_color),752307,,,blue,,,,,null,US_Cities_List/peoria.png,US_Cities_List/cornwall.png,,,,,,,,,,,,,,,,,,
null,,rt_plussign_withcolor,752809,,,blue,,,,,null,US_Cities_List/peoria.png,US_Cities_List/cornwall.png,,,,,,,,,,,,,,,,,,
954.8000000715256,,rt_thecrossant_black,754022,,,black_plus_sign,,,,,49,,,1,0.9891304347826086,,,,,,,,,,,,,,,,
null,,color_black,754124,,,black_plus_sign,,,,,null,,,,,,,,,,,,,,,,,,,,
null,,learn_phase(without_color),757132,,,black_plus_sign,,,,,null,US_Cities_List/hanover.png,US_Cities_List/racine.png,,,,,,,,,,,,,,,,,,
null,,black_cross(without_color),757821,,,blue,,,,,null,US_Cities_List/hanover.png,US_Cities_List/racine.png,,,,,,,,,,,,,,,,,,
460.2999999523163,,rt_plussign_withcolor,758323,,,blue,,,,,49,US_Cities_List/hanover.png,US_Cities_List/racine.png,,,,,,,,,,,,,,,,,,
null,,rt_thecrossant_black,759638,,,black_plus_sign,,,,,null,,,1,0.989247311827957,,,,,,,,,,,,,,,,
null,,color_black,759739,,,black_plus_sign,,,,,null,,,,,,,,,,,,,,,,,,,,
null,,learn_phase(without_color),762746,,,black_plus_sign,,,,,null,US_Cities_List/shreveport.png,US_Cities_List/hanover.png,,,,,,,,,,,,,,,,,,
null,,black_cross(without_color),763218,,,yellow,,,,,null,US_Cities_List/shreveport.png,US_Cities_List/hanover.png,,,,,,,,,,,,,,,,,,
null,,rt_plussign_withcolor,763719,,,yellow,,,,,null,US_Cities_List/shreveport.png,US_Cities_List/hanover.png,,,,,,,,,,,,,,,,,,
923.6999999284744,,rt_thecrossant_black,765251,,,black_plus_sign,,,,,50,,,1,0.9893617021276596,,,,,,,,,,,,,,,,
null,,color_black,765352,,,black_plus_sign,,,,,null,,,,,,,,,,,,,,,,,,,,
null,,learn_phase(without_color),768359,,,black_plus_sign,,,,,null,US_Cities_List/huntsville.png,US_Cities_List/racine.png,,,,,,,,,,,,,,,,,,
null,,black_cross(without_color),768814,,,blue,,,,,null,US_Cities_List/huntsville.png,US_Cities_List/racine.png,,,,,,,,,,,,,,,,,,
null,,rt_plussign_withcolor,769316,,,blue,,,,,null,US_Cities_List/huntsville.png,US_Cities_List/racine.png,,,,,,,,,,,,,,,,,,
793.3999999761581,,rt_thecrossant_black,770866,,,black_plus_sign,,,,,49,,,1,0.9894736842105263,,,,,,,,,,,,,,,,
null,,color_black,770968,,,black_plus_sign,,,,,null,,,,,,,,,,,,,,,,,,,,
null,,learn_phase(without_color),773975,,,black_plus_sign,,,,,null,US_Cities_List/shreveport.png,US_Cities_List/hotsprings.png,,,,,,,,,,,,,,,,,,
null,,black_cross(without_color),774906,,,blue,,,,,null,US_Cities_List/shreveport.png,US_Cities_List/hotsprings.png,,,,,,,,,,,,,,,,,,
null,,rt_plussign_withcolor,775407,,,blue,,,,,null,US_Cities_List/shreveport.png,US_Cities_List/hotsprings.png,,,,,,,,,,,,,,,,,,
903.5,,rt_thecrossant_black,776479,,,black_plus_sign,,,,,49,,,1,0.9895833333333334,,,,,,,,,,,,,,,,
null,,color_black,776581,,,black_plus_sign,,,,,null,,,,,,,,,,,,,,,,,,,,
null,,learn_phase(without_color),779588,,,black_plus_sign,,,,,null,US_Cities_List/shreveport.png,US_Cities_List/racine.png,,,,,,,,,,,,,,,,,,
null,,black_cross(without_color),780123,,,blue,,,,,null,US_Cities_List/shreveport.png,US_Cities_List/racine.png,,,,,,,,,,,,,,,,,,
387.59999990463257,,rt_plussign_withcolor,780626,,,blue,,,,,49,US_Cities_List/shreveport.png,US_Cities_List/racine.png,,,,,,,,,,,,,,,,,,
null,,rt_thecrossant_black,782096,,,black_plus_sign,,,,,null,,,1,0.9896907216494846,,,,,,,,,,,,,,,,
null,,color_black,782212,,,black_plus_sign,,,,,null,,,,,,,,,,,,,,,,,,,,
null,,learn_phase(without_color),785218,,,black_plus_sign,,,,,null,US_Cities_List/shreveport.png,US_Cities_List/gatlinburg.png,,,,,,,,,,,,,,,,,,
null,,black_cross(without_color),786166,,,blue,,,,,null,US_Cities_List/shreveport.png,US_Cities_List/gatlinburg.png,,,,,,,,,,,,,,,,,,
null,,rt_plussign_withcolor,786674,,,blue,,,,,null,US_Cities_List/shreveport.png,US_Cities_List/gatlinburg.png,,,,,,,,,,,,,,,,,,
879.7999999523163,,rt_thecrossant_black,787729,,,black_plus_sign,,,,,49,,,1,0.9897959183673469,,,,,,,,,,,,,,,,
null,,color_black,787831,,,black_plus_sign,,,,,null,,,,,,,,,,,,,,,,,,,,
null,,learn_phase(without_color),790838,,,black_plus_sign,,,,,null,US_Cities_List/hanover.png,US_Cities_List/gatlinburg.png,,,,,,,,,,,,,,,,,,
null,,black_cross(without_color),791586,,,yellow,,,,,null,US_Cities_List/hanover.png,US_Cities_List/gatlinburg.png,,,,,,,,,,,,,,,,,,
null,,rt_plussign_withcolor,792088,,,yellow,,,,,null,US_Cities_List/hanover.png,US_Cities_List/gatlinburg.png,,,,,,,,,,,,,,,,,,
1346.5,,rt_thecrossant_black,793350,,,black_plus_sign,,,,,50,,,1,0.98989898989899,,,,,,,,,,,,,,,,
null,,color_black,793451,,,black_plus_sign,,,,,null,,,,,,,,,,,,,,,,,,,,
null,,learn_phase(without_color),796458,,,black_plus_sign,,,,,null,US_Cities_List/shreveport.png,US_Cities_List/hotsprings.png,,,,,,,,,,,,,,,,,,
null,,black_cross(without_color),797196,,,blue,,,,,null,US_Cities_List/shreveport.png,US_Cities_List/hotsprings.png,,,,,,,,,,,,,,,,,,
null,,rt_plussign_withcolor,797697,,,blue,,,,,null,US_Cities_List/shreveport.png,US_Cities_List/hotsprings.png,,,,,,,,,,,,,,,,,,
998.3000000715256,,rt_thecrossant_black,798963,,,black_plus_sign,,,,,49,,,1,0.99,,,,,,,,,,,,,,,,
null,,color_black,799064,,,black_plus_sign,,,,,null,,,,,,,,,,,,,,,,,,,,
null,,learn_phase(without_color),802078,,,black_plus_sign,,,,,null,US_Cities_List/huntsville.png,US_Cities_List/cornwall.png,,,,,,,,,,,,,,,,,,
null,,black_cross(without_color),802628,,,blue,,,,,null,US_Cities_List/huntsville.png,US_Cities_List/cornwall.png,,,,,,,,,,,,,,,,,,
null,,rt_plussign_withcolor,803129,,,blue,,,,,null,US_Cities_List/huntsville.png,US_Cities_List/cornwall.png,,,,,,,,,,,,,,,,,,
1208,,rt_thecrossant_black,804583,,,black_plus_sign,,,,,49,,,1,0.9900990099009901,,,,,,,,,,,,,,,,
null,,color_black,804685,,,black_plus_sign,,,,,null,,,,,,,,,,,,,,,,,,,,
null,,learn_phase(without_color),807693,,,black_plus_sign,,,,,null,US_Cities_List/gatlinburg.png,US_Cities_List/westpalmbeach.png,,,,,,,,,,,,,,,,,,
null,,black_cross(without_color),808354,,,yellow,,,,,null,US_Cities_List/gatlinburg.png,US_Cities_List/westpalmbeach.png,,,,,,,,,,,,,,,,,,
null,,rt_plussign_withcolor,808856,,,yellow,,,,,null,US_Cities_List/gatlinburg.png,US_Cities_List/westpalmbeach.png,,,,,,,,,,,,,,,,,,
809.8999999761581,,rt_thecrossant_black,810200,,,black_plus_sign,,,,,50,,,1,0.9901960784313726,,,,,,,,,,,,,,,,
null,,color_black,810301,,,black_plus_sign,,,,,null,,,,,,,,,,,,,,,,,,,,
null,,learn_phase(without_color),813310,,,black_plus_sign,,,,,null,US_Cities_List/cornwall.png,US_Cities_List/leesburg.png,,,,,,,,,,,,,,,,,,
null,,black_cross(without_color),813748,,,blue,,,,,null,US_Cities_List/cornwall.png,US_Cities_List/leesburg.png,,,,,,,,,,,,,,,,,,
null,,rt_plussign_withcolor,814251,,,blue,,,,,null,US_Cities_List/cornwall.png,US_Cities_List/leesburg.png,,,,,,,,,,,,,,,,,,
980.3999999761581,,rt_thecrossant_black,815817,,,black_plus_sign,,,,,49,,,1,0.9902912621359223,,,,,,,,,,,,,,,,
null,,color_black,815918,,,black_plus_sign,,,,,null,,,,,,,,,,,,,,,,,,,,
null,,learn_phase(without_color),818926,,,black_plus_sign,,,,,null,US_Cities_List/carmel.png,US_Cities_List/leesburg.png,,,,,,,,,,,,,,,,,,
null,,black_cross(without_color),819956,,,yellow,,,,,null,US_Cities_List/carmel.png,US_Cities_List/leesburg.png,,,,,,,,,,,,,,,,,,
null,,rt_plussign_withcolor,820458,,,yellow,,,,,null,US_Cities_List/carmel.png,US_Cities_List/leesburg.png,,,,,,,,,,,,,,,,,,
746.6999999284744,,rt_thecrossant_black,821432,,,black_plus_sign,,,,,50,,,1,0.9903846153846154,,,,,,,,,,,,,,,,
null,,color_black,821533,,,black_plus_sign,,,,,null,,,,,,,,,,,,,,,,,,,,
null,,learn_phase(without_color),824540,,,black_plus_sign,,,,,null,US_Cities_List/boulder.png,US_Cities_List/leesburg.png,,,,,,,,,,,,,,,,,,
null,,black_cross(without_color),825524,,,yellow,,,,,null,US_Cities_List/boulder.png,US_Cities_List/leesburg.png,,,,,,,,,,,,,,,,,,
null,,rt_plussign_withcolor,826026,,,yellow,,,,,null,US_Cities_List/boulder.png,US_Cities_List/leesburg.png,,,,,,,,,,,,,,,,,,
1346.5,,rt_thecrossant_black,827046,,,black_plus_sign,,,,,50,,,1,0.9904761904761905,,,,,,,,,,,,,,,,
null,,color_black,827146,,,black_plus_sign,,,,,null,,,,,,,,,,,,,,,,,,,,
null,,learn_phase(without_color),830154,,,black_plus_sign,,,,,null,US_Cities_List/hanover.png,US_Cities_List/gatlinburg.png,,,,,,,,,,,,,,,,,,
null,,black_cross(without_color),830907,,,yellow,,,,,null,US_Cities_List/hanover.png,US_Cities_List/gatlinburg.png,,,,,,,,,,,,,,,,,,
null,,rt_plussign_withcolor,831409,,,yellow,,,,,null,US_Cities_List/hanover.png,US_Cities_List/gatlinburg.png,,,,,,,,,,,,,,,,,,
1381,,rt_thecrossant_black,832660,,,black_plus_sign,,,,,50,,,1,0.9905660377358491,,,,,,,,,,,,,,,,
null,,color_black,832761,,,black_plus_sign,,,,,null,,,,,,,,,,,,,,,,,,,,
null,,learn_phase(without_color),835769,,,black_plus_sign,,,,,null,US_Cities_List/hanover.png,US_Cities_List/newhope.png,,,,,,,,,,,,,,,,,,
null,,black_cross(without_color),836781,,,yellow,,,,,null,US_Cities_List/hanover.png,US_Cities_List/newhope.png,,,,,,,,,,,,,,,,,,
null,,rt_plussign_withcolor,837282,,,yellow,,,,,null,US_Cities_List/hanover.png,US_Cities_List/newhope.png,,,,,,,,,,,,,,,,,,
897.6000000238419,,rt_thecrossant_black,838275,,,black_plus_sign,,,,,50,,,1,0.9906542056074766,,,,,,,,,,,,,,,,
null,,color_black,838377,,,black_plus_sign,,,,,null,,,,,,,,,,,,,,,,,,,,
null,,learn_phase(without_color),841383,,,black_plus_sign,,,,,null,US_Cities_List/shreveport.png,US_Cities_List/hanover.png,,,,,,,,,,,,,,,,,,
null,,black_cross(without_color),842273,,,yellow,,,,,null,US_Cities_List/shreveport.png,US_Cities_List/hanover.png,,,,,,,,,,,,,,,,,,
null,,rt_plussign_withcolor,842775,,,yellow,,,,,null,US_Cities_List/shreveport.png,US_Cities_List/hanover.png,,,,,,,,,,,,,,,,,,
1709.2000000476837,,rt_thecrossant_black,843887,,,black_plus_sign,,,,,50,,,1,0.9907407407407407,,,,,,,,,,,,,,,,
null,,color_black,843989,,,black_plus_sign,,,,,null,,,,,,,,,,,,,,,,,,,,
null,,learn_phase(without_color),846996,,,black_plus_sign,,,,,null,US_Cities_List/racine.png,US_Cities_List/hanover.png,,,,,,,,,,,,,,,,,,
null,,black_cross(without_color),847460,,,yellow,,,,,null,US_Cities_List/racine.png,US_Cities_List/hanover.png,,,,,,,,,,,,,,,,,,
null,,rt_plussign_withcolor,847962,,,yellow,,,,,null,US_Cities_List/racine.png,US_Cities_List/hanover.png,,,,,,,,,,,,,,,,,,
1159.1000000238419,,rt_thecrossant_black,849500,,,black_plus_sign,,,,,50,,,1,0.9908256880733946,,,,,,,,,,,,,,,,
null,,color_black,849601,,,black_plus_sign,,,,,null,,,,,,,,,,,,,,,,,,,,
null,,learn_phase(without_color),852608,,,black_plus_sign,,,,,null,US_Cities_List/leesburg.png,US_Cities_List/carmel.png,,,,,,,,,,,,,,,,,,
null,,black_cross(without_color),853518,,,blue,,,,,null,US_Cities_List/leesburg.png,US_Cities_List/carmel.png,,,,,,,,,,,,,,,,,,
418.90000009536743,,rt_plussign_withcolor,854021,,,blue,,,,,49,US_Cities_List/leesburg.png,US_Cities_List/carmel.png,,,,,,,,,,,,,,,,,,
null,,rt_thecrossant_black,855114,,,black_plus_sign,,,,,null,,,1,0.990909090909091,,,,,,,,,,,,,,,,
null,,color_black,855215,,,black_plus_sign,,,,,null,,,,,,,,,,,,,,,,,,,,
null,,learn_phase(without_color),858222,,,black_plus_sign,,,,,null,US_Cities_List/hanover.png,US_Cities_List/shreveport.png,,,,,,,,,,,,,,,,,,
null,,black_cross(without_color),858798,,,blue,,,,,null,US_Cities_List/hanover.png,US_Cities_List/shreveport.png,,,,,,,,,,,,,,,,,,
null,,rt_plussign_withcolor,859300,,,blue,,,,,null,US_Cities_List/hanover.png,US_Cities_List/shreveport.png,,,,,,,,,,,,,,,,,,
1375.1000000238419,,rt_thecrossant_black,860728,,,black_plus_sign,,,,,49,,,1,0.990990990990991,,,,,,,,,,,,,,,,
null,,color_black,860829,,,black_plus_sign,,,,,null,,,,,,,,,,,,,,,,,,,,
null,,learn_phase(without_color),863835,,,black_plus_sign,,,,,null,US_Cities_List/hotsprings.png,US_Cities_List/boulder.png,,,,,,,,,,,,,,,,,,
null,,black_cross(without_color),864289,,,yellow,,,,,null,US_Cities_List/hotsprings.png,US_Cities_List/boulder.png,,,,,,,,,,,,,,,,,,
null,,rt_plussign_withcolor,864791,,,yellow,,,,,null,US_Cities_List/hotsprings.png,US_Cities_List/boulder.png,,,,,,,,,,,,,,,,,,
720.6000000238419,,rt_thecrossant_black,866341,,,black_plus_sign,,,,,50,,,1,0.9910714285714286,,,,,,,,,,,,,,,,
null,,color_black,866443,,,black_plus_sign,,,,,null,,,,,,,,,,,,,,,,,,,,
null,,learn_phase(without_color),869452,,,black_plus_sign,,,,,null,US_Cities_List/cornwall.png,US_Cities_List/leesburg.png,,,,,,,,,,,,,,,,,,
null,,black_cross(without_color),870302,,,blue,,,,,null,US_Cities_List/cornwall.png,US_Cities_List/leesburg.png,,,,,,,,,,,,,,,,,,
416.7999999523163,,rt_plussign_withcolor,870803,,,blue,,,,,49,US_Cities_List/cornwall.png,US_Cities_List/leesburg.png,,,,,,,,,,,,,,,,,,
null,,rt_thecrossant_black,871956,,,black_plus_sign,,,,,null,,,1,0.9911504424778761,,,,,,,,,,,,,,,,
null,,color_black,872059,,,black_plus_sign,,,,,null,,,,,,,,,,,,,,,,,,,,
null,,learn_phase(without_color),875068,,,black_plus_sign,,,,,null,US_Cities_List/huntsville.png,US_Cities_List/cornwall.png,,,,,,,,,,,,,,,,,,
null,,black_cross(without_color),875630,,,blue,,,,,null,US_Cities_List/huntsville.png,US_Cities_List/cornwall.png,,,,,,,,,,,,,,,,,,
null,,rt_plussign_withcolor,876133,,,blue,,,,,null,US_Cities_List/huntsville.png,US_Cities_List/cornwall.png,,,,,,,,,,,,,,,,,,
1260.5,,rt_thecrossant_black,877573,,,black_plus_sign,,,,,49,,,1,0.9912280701754386,,,,,,,,,,,,,,,,
null,,color_black,877677,,,black_plus_sign,,,,,null,,,,,,,,,,,,,,,,,,,,
null,,learn_phase(without_color),880686,,,black_plus_sign,,,,,null,US_Cities_List/hanover.png,US_Cities_List/racine.png,,,,,,,,,,,,,,,,,,
null,,black_cross(without_color),881490,,,blue,,,,,null,US_Cities_List/hanover.png,US_Cities_List/racine.png,,,,,,,,,,,,,,,,,,
null,,rt_plussign_withcolor,881991,,,blue,,,,,null,US_Cities_List/hanover.png,US_Cities_List/racine.png,,,,,,,,,,,,,,,,,,
740.3000000715256,,rt_thecrossant_black,883191,,,black_plus_sign,,,,,49,,,1,0.991304347826087,,,,,,,,,,,,,,,,
null,,color_black,883292,,,black_plus_sign,,,,,null,,,,,,,,,,,,,,,,,,,,
null,,learn_phase(without_color),886299,,,black_plus_sign,,,,,null,US_Cities_List/gatlinburg.png,US_Cities_List/westpalmbeach.png,,,,,,,,,,,,,,,,,,
null,,black_cross(without_color),886897,,,blue,,,,,null,US_Cities_List/gatlinburg.png,US_Cities_List/westpalmbeach.png,,,,,,,,,,,,,,,,,,
null,,rt_plussign_withcolor,887398,,,blue,,,,,null,US_Cities_List/gatlinburg.png,US_Cities_List/westpalmbeach.png,,,,,,,,,,,,,,,,,,
1183.5999999046326,,rt_thecrossant_black,888803,,,black_plus_sign,,,,,49,,,1,0.9913793103448276,,,,,,,,,,,,,,,,
null,,color_black,888905,,,black_plus_sign,,,,,null,,,,,,,,,,,,,,,,,,,,
null,,learn_phase(without_color),891914,,,black_plus_sign,,,,,null,US_Cities_List/cornwall.png,US_Cities_List/peoria.png,,,,,,,,,,,,,,,,,,
null,,black_cross(without_color),892341,,,blue,,,,,null,US_Cities_List/cornwall.png,US_Cities_List/peoria.png,,,,,,,,,,,,,,,,,,
null,,rt_plussign_withcolor,892842,,,blue,,,,,null,US_Cities_List/cornwall.png,US_Cities_List/peoria.png,,,,,,,,,,,,,,,,,,
730.8000000715256,,rt_thecrossant_black,894418,,,black_plus_sign,,,,,49,,,1,0.9914529914529915,,,,,,,,,,,,,,,,
null,,color_black,894520,,,black_plus_sign,,,,,null,,,,,,,,,,,,,,,,,,,,
null,,learn_phase(without_color),897526,,,black_plus_sign,,,,,null,US_Cities_List/leesburg.png,US_Cities_List/boulder.png,,,,,,,,,,,,,,,,,,
null,,black_cross(without_color),898155,,,blue,,,,,null,US_Cities_List/leesburg.png,US_Cities_List/boulder.png,,,,,,,,,,,,,,,,,,
435.5,,rt_plussign_withcolor,898656,,,blue,,,,,49,US_Cities_List/leesburg.png,US_Cities_List/boulder.png,,,,,,,,,,,,,,,,,,
null,,rt_thecrossant_black,900031,,,black_plus_sign,,,,,null,,,1,0.9915254237288136,,,,,,,,,,,,,,,,
null,,color_black,900133,,,black_plus_sign,,,,,null,,,,,,,,,,,,,,,,,,,,
null,,learn_phase(without_color),903143,,,black_plus_sign,,,,,null,US_Cities_List/cornwall.png,US_Cities_List/peoria.png,,,,,,,,,,,,,,,,,,
null,,black_cross(without_color),903829,,,yellow,,,,,null,US_Cities_List/cornwall.png,US_Cities_List/peoria.png,,,,,,,,,,,,,,,,,,
null,,rt_plussign_withcolor,904330,,,yellow,,,,,null,US_Cities_List/cornwall.png,US_Cities_List/peoria.png,,,,,,,,,,,,,,,,,,
933.2999999523163,,rt_thecrossant_black,905650,,,black_plus_sign,,,,,50,,,1,0.9915966386554622,,,,,,,,,,,,,,,,
null,,color_black,905750,,,black_plus_sign,,,,,null,,,,,,,,,,,,,,,,,,,,
null,,learn_phase(without_color),908757,,,black_plus_sign,,,,,null,US_Cities_List/hotsprings.png,US_Cities_List/shreveport.png,,,,,,,,,,,,,,,,,,
null,,black_cross(without_color),909457,,,yellow,,,,,null,US_Cities_List/hotsprings.png,US_Cities_List/shreveport.png,,,,,,,,,,,,,,,,,,
null,,rt_plussign_withcolor,909958,,,yellow,,,,,null,US_Cities_List/hotsprings.png,US_Cities_List/shreveport.png,,,,,,,,,,,,,,,,,,
999.8999999761581,,rt_thecrossant_black,911262,,,black_plus_sign,,,,,50,,,1,0.9916666666666667,,,,,,,,,,,,,,,,
null,,color_black,911364,,,black_plus_sign,,,,,null,,,,,,,,,,,,,,,,,,,,
null,,learn_phase(without_color),914371,,,black_plus_sign,,,,,null,US_Cities_List/shreveport.png,US_Cities_List/racine.png,,,,,,,,,,,,,,,,,,
null,,black_cross(without_color),914983,,,yellow,,,,,null,US_Cities_List/shreveport.png,US_Cities_List/racine.png,,,,,,,,,,,,,,,,,,
null,,rt_plussign_withcolor,915485,,,yellow,,,,,null,US_Cities_List/shreveport.png,US_Cities_List/racine.png,,,,,,,,,,,,,,,,,,
807.5999999046326,,rt_thecrossant_black,916878,,,black_plus_sign,,,,,50,,,1,0.9917355371900827,,,,,,,,,,,,,,,,
null,,color_black,916979,,,black_plus_sign,,,,,null,,,,,,,,,,,,,,,,,,,,
null,,learn_phase(without_color),919986,,,black_plus_sign,,,,,null,US_Cities_List/hotsprings.png,US_Cities_List/shreveport.png,,,,,,,,,,,,,,,,,,
null,,black_cross(without_color),920490,,,blue,,,,,null,US_Cities_List/hotsprings.png,US_Cities_List/shreveport.png,,,,,,,,,,,,,,,,,,
null,,rt_plussign_withcolor,920991,,,blue,,,,,null,US_Cities_List/hotsprings.png,US_Cities_List/shreveport.png,,,,,,,,,,,,,,,,,,
768.3000000715256,,rt_thecrossant_black,922492,,,black_plus_sign,,,,,49,,,1,0.9918032786885246,,,,,,,,,,,,,,,,
null,,color_black,922595,,,black_plus_sign,,,,,null,,,,,,,,,,,,,,,,,,,,
null,,learn_phase(without_color),925604,,,black_plus_sign,,,,,null,US_Cities_List/shreveport.png,US_Cities_List/racine.png,,,,,,,,,,,,,,,,,,
null,,black_cross(without_color),926111,,,blue,,,,,null,US_Cities_List/shreveport.png,US_Cities_List/racine.png,,,,,,,,,,,,,,,,,,
null,,rt_plussign_withcolor,926613,,,blue,,,,,null,US_Cities_List/shreveport.png,US_Cities_List/racine.png,,,,,,,,,,,,,,,,,,
649.5,,rt_thecrossant_black,928109,,,black_plus_sign,,,,,49,,,1,0.991869918699187,,,,,,,,,,,,,,,,
null,,color_black,928211,,,black_plus_sign,,,,,null,,,,,,,,,,,,,,,,,,,,
null,,learn_phase(without_color),931220,,,black_plus_sign,,,,,null,US_Cities_List/shreveport.png,US_Cities_List/racine.png,,,,,,,,,,,,,,,,,,
null,,black_cross(without_color),932179,,,yellow,,,,,null,US_Cities_List/shreveport.png,US_Cities_List/racine.png,,,,,,,,,,,,,,,,,,
null,,rt_plussign_withcolor,932683,,,yellow,,,,,null,US_Cities_List/shreveport.png,US_Cities_List/racine.png,,,,,,,,,,,,,,,,,,
838.5,,rt_thecrossant_black,933727,,,black_plus_sign,,,,,50,,,1,0.9919354838709677,,,,,,,,,,,,,,,,
null,,color_black,933829,,,black_plus_sign,,,,,null,,,,,,,,,,,,,,,,,,,,
null,,learn_phase(without_color),936837,,,black_plus_sign,,,,,null,US_Cities_List/boulder.png,US_Cities_List/leesburg.png,,,,,,,,,,,,,,,,,,
null,,black_cross(without_color),937379,,,yellow,,,,,null,US_Cities_List/boulder.png,US_Cities_List/leesburg.png,,,,,,,,,,,,,,,,,,
405.6999999284744,,rt_plussign_withcolor,937881,,,yellow,,,,,50,US_Cities_List/boulder.png,US_Cities_List/leesburg.png,,,,,,,,,,,,,,,,,,
null,,rt_thecrossant_black,939354,,,black_plus_sign,,,,,null,,,1,0.992,,,,,,,,,,,,,,,,
null,,color_black,939455,,,black_plus_sign,,,,,null,,,,,,,,,,,,,,,,,,,,
null,,learn_phase(without_color),942466,,,black_plus_sign,,,,,null,US_Cities_List/cornwall.png,US_Cities_List/leesburg.png,,,,,,,,,,,,,,,,,,
null,,black_cross(without_color),943168,,,yellow,,,,,null,US_Cities_List/cornwall.png,US_Cities_List/leesburg.png,,,,,,,,,,,,,,,,,,
386.5,,rt_plussign_withcolor,943669,,,yellow,,,,,50,US_Cities_List/cornwall.png,US_Cities_List/leesburg.png,,,,,,,,,,,,,,,,,,
null,,rt_thecrossant_black,944970,,,black_plus_sign,,,,,null,,,1,0.9920634920634921,,,,,,,,,,,,,,,,
null,,color_black,945071,,,black_plus_sign,,,,,null,,,,,,,,,,,,,,,,,,,,
null,,learn_phase(without_color),948078,,,black_plus_sign,,,,,null,US_Cities_List/leesburg.png,US_Cities_List/cornwall.png,,,,,,,,,,,,,,,,,,
null,,black_cross(without_color),948839,,,blue,,,,,null,US_Cities_List/leesburg.png,US_Cities_List/cornwall.png,,,,,,,,,,,,,,,,,,
441.5,,rt_plussign_withcolor,949341,,,blue,,,,,49,US_Cities_List/leesburg.png,US_Cities_List/cornwall.png,,,,,,,,,,,,,,,,,,
null,,rt_thecrossant_black,950585,,,black_plus_sign,,,,,null,,,1,0.9921259842519685,,,,,,,,,,,,,,,,
null,,color_black,950687,,,black_plus_sign,,,,,null,,,,,,,,,,,,,,,,,,,,
5906.600000023842,,learn_break,956595,,,learn_break,,,,,32,,,,,,,,,,,,,,,,,,,,
12131.399999976158,,intro_1,968727,,,instruct,,,0,,,,,,,,,,,,,,,,,,,,,,
8706,,intro_2,977434,,,instruct,,,1,Next,,,,,,,,,,,,,,,,,,,,,
null,,directmemory_phase,983946,,,../static/images/US_Cities_List/gatlinburg.png,,,,,null,,,0,0,../static/images/US_Cities_List/hanover.png,../static/images/US_Cities_List/leesburg.png,../static/images/US_Cities_List/racine.png,../static/images/US_Cities_List/hanover.png,../static/images/US_Cities_List/racine.png,../static/images/US_Cities_List/leesburg.png,0,,,,,,,,,
null,,warning_page,986948,,,warning,,,,,null,,,,,,,,,,,,,,,,,,,,
null,,html-keyboard-response,987948,,,<p></p>,,,,,null,,,,,,,,,,,,,,,,,,,,
3013.7999999523163,,directmemory_phase,990971,,,../static/images/US_Cities_List/boulder.png,,,,,49,,,1,0.5,../static/images/US_Cities_List/leesburg.png,../static/images/US_Cities_List/racine.png,../static/images/US_Cities_List/huntsville.png,../static/images/US_Cities_List/leesburg.png,../static/images/US_Cities_List/huntsville.png,../static/images/US_Cities_List/racine.png,1,,,,,,,,,
null,,html-keyboard-response,991975,,,<p></p>,,,,,null,,,,,,,,,,,,,,,,,,,,
3119.899999976158,,directmemory_phase,995105,,,../static/images/US_Cities_List/shreveport.png,,,,,51,,,1,0.6666666666666666,../static/images/US_Cities_List/leesburg.png,../static/images/US_Cities_List/newhope.png,../static/images/US_Cities_List/gatlinburg.png,../static/images/US_Cities_List/gatlinburg.png,../static/images/US_Cities_List/newhope.png,../static/images/US_Cities_List/leesburg.png,1,,,,,,,,,
null,,html-keyboard-response,996107,,,<p></p>,,,,,null,,,,,,,,,,,,,,,,,,,,
3141.3000000715256,,directmemory_phase,999257,,,../static/images/US_Cities_List/hanover.png,,,,,51,,,0,0.5,../static/images/US_Cities_List/racine.png,../static/images/US_Cities_List/peoria.png,../static/images/US_Cities_List/hotsprings.png,../static/images/US_Cities_List/racine.png,../static/images/US_Cities_List/hotsprings.png,../static/images/US_Cities_List/peoria.png,0.5,closer,,,,,,,,
null,,html-keyboard-response,1000260,,,<p></p>,,,,,null,,,,,,,,,,,,,,,,,,,,
4561.900000095367,,directmemory_phase,1004835,,,../static/images/US_Cities_List/gatlinburg.png,,,,,49,,,1,0.6,../static/images/US_Cities_List/shreveport.png,../static/images/US_Cities_List/cornwall.png,../static/images/US_Cities_List/racine.png,../static/images/US_Cities_List/shreveport.png,../static/images/US_Cities_List/racine.png,../static/images/US_Cities_List/cornwall.png,1,,,,,,,,,
null,,html-keyboard-response,1005836,,,<p></p>,,,,,null,,,,,,,,,,,,,,,,,,,,
4566.800000071526,,directmemory_phase,1010411,,,../static/images/US_Cities_List/hanover.png,,,,,49,,,1,0.6666666666666666,../static/images/US_Cities_List/newhope.png,../static/images/US_Cities_List/leesburg.png,../static/images/US_Cities_List/huntsville.png,../static/images/US_Cities_List/newhope.png,../static/images/US_Cities_List/huntsville.png,../static/images/US_Cities_List/leesburg.png,1,,,,,,,,,
null,,html-keyboard-response,1011412,,,<p></p>,,,,,null,,,,,,,,,,,,,,,,,,,,
2243.8000000715256,,directmemory_phase,1013662,,,../static/images/US_Cities_List/boulder.png,,,,,51,,,1,0.7142857142857143,../static/images/US_Cities_List/westpalmbeach.png,../static/images/US_Cities_List/huntsville.png,../static/images/US_Cities_List/hotsprings.png,../static/images/US_Cities_List/hotsprings.png,../static/images/US_Cities_List/huntsville.png,../static/images/US_Cities_List/westpalmbeach.png,1,,,,,,,,,
null,,html-keyboard-response,1014665,,,<p></p>,,,,,null,,,,,,,,,,,,,,,,,,,,
3811.100000023842,,directmemory_phase,1018487,,,../static/images/US_Cities_List/shreveport.png,,,,,50,,,1,0.75,../static/images/US_Cities_List/westpalmbeach.png,../static/images/US_Cities_List/racine.png,../static/images/US_Cities_List/peoria.png,../static/images/US_Cities_List/racine.png,../static/images/US_Cities_List/westpalmbeach.png,../static/images/US_Cities_List/peoria.png,1,,,,,,,,,
null,,html-keyboard-response,1019490,,,<p></p>,,,,,null,,,,,,,,,,,,,,,,,,,,
4480.700000047684,,directmemory_phase,1023983,,,../static/images/US_Cities_List/huntsville.png,,,,,51,,,1,0.7777777777777778,../static/images/US_Cities_List/newhope.png,../static/images/US_Cities_List/peoria.png,../static/images/US_Cities_List/cornwall.png,../static/images/US_Cities_List/cornwall.png,../static/images/US_Cities_List/peoria.png,../static/images/US_Cities_List/newhope.png,1,,,,,,,,,
null,,html-keyboard-response,1024984,,,<p></p>,,,,,null,,,,,,,,,,,,,,,,,,,,
3158.100000023842,,directmemory_phase,1028152,,,../static/images/US_Cities_List/gatlinburg.png,,,,,50,,,0,0.7,../static/images/US_Cities_List/huntsville.png,../static/images/US_Cities_List/racine.png,../static/images/US_Cities_List/westpalmbeach.png,../static/images/US_Cities_List/westpalmbeach.png,../static/images/US_Cities_List/racine.png,../static/images/US_Cities_List/huntsville.png,0.5,closer,,,,,,,,
null,,html-keyboard-response,1029155,,,<p></p>,,,,,null,,,,,,,,,,,,,,,,,,,,
4085.1999999284744,,directmemory_phase,1033250,,,../static/images/US_Cities_List/huntsville.png,,,,,50,,,0,0.6363636363636364,../static/images/US_Cities_List/carmel.png,../static/images/US_Cities_List/leesburg.png,../static/images/US_Cities_List/racine.png,../static/images/US_Cities_List/racine.png,../static/images/US_Cities_List/leesburg.png,../static/images/US_Cities_List/carmel.png,0.5,closer,,,,,,,,
null,,html-keyboard-response,1034253,,,<p></p>,,,,,null,,,,,,,,,,,,,,,,,,,,
5657.800000071526,,directmemory_phase,1039923,,,../static/images/US_Cities_List/cornwall.png,,,,,51,,,0,0.5833333333333334,../static/images/US_Cities_List/hotsprings.png,../static/images/US_Cities_List/leesburg.png,../static/images/US_Cities_List/shreveport.png,../static/images/US_Cities_List/leesburg.png,../static/images/US_Cities_List/hotsprings.png,../static/images/US_Cities_List/shreveport.png,0.5,closer,,,,,,,,
null,,html-keyboard-response,1040927,,,<p></p>,,,,,null,,,,,,,,,,,,,,,,,,,,
4346.100000023842,,directmemory_phase,1045282,,,../static/images/US_Cities_List/huntsville.png,,,,,49,,,1,0.6153846153846154,../static/images/US_Cities_List/hotsprings.png,../static/images/US_Cities_List/newhope.png,../static/images/US_Cities_List/shreveport.png,../static/images/US_Cities_List/hotsprings.png,../static/images/US_Cities_List/shreveport.png,../static/images/US_Cities_List/newhope.png,1,,,,,,,,,
null,,html-keyboard-response,1046284,,,<p></p>,,,,,null,,,,,,,,,,,,,,,,,,,,
2159.899999976158,,directmemory_phase,1048452,,,../static/images/US_Cities_List/racine.png,,,,,50,,,0,0.5714285714285714,../static/images/US_Cities_List/carmel.png,../static/images/US_Cities_List/gatlinburg.png,../static/images/US_Cities_List/shreveport.png,../static/images/US_Cities_List/shreveport.png,../static/images/US_Cities_List/gatlinburg.png,../static/images/US_Cities_List/carmel.png,0.5,closer,,,,,,,,
null,,html-keyboard-response,1049455,,,<p></p>,,,,,null,,,,,,,,,,,,,,,,,,,,
null,,directmemory_phase,1055967,,,../static/images/US_Cities_List/leesburg.png,,,,,null,,,0,0.5333333333333333,../static/images/US_Cities_List/hanover.png,../static/images/US_Cities_List/hotsprings.png,../static/images/US_Cities_List/carmel.png,../static/images/US_Cities_List/carmel.png,../static/images/US_Cities_List/hotsprings.png,../static/images/US_Cities_List/hanover.png,0,,,,,,,,,
null,,warning_page,1058969,,,warning,,,,,null,,,,,,,,,,,,,,,,,,,,
null,,html-keyboard-response,1059972,,,<p></p>,,,,,null,,,,,,,,,,,,,,,,,,,,
4257.600000023842,,directmemory_phase,1064241,,,../static/images/US_Cities_List/racine.png,,,,,51,,,1,0.5625,../static/images/US_Cities_List/boulder.png,../static/images/US_Cities_List/cornwall.png,../static/images/US_Cities_List/hanover.png,../static/images/US_Cities_List/hanover.png,../static/images/US_Cities_List/cornwall.png,../static/images/US_Cities_List/boulder.png,1,,,,,,,,,
null,,html-keyboard-response,1065245,,,<p></p>,,,,,null,,,,,,,,,,,,,,,,,,,,
4170.5,,directmemory_phase,1069429,,,../static/images/US_Cities_List/carmel.png,,,,,50,,,0,0.5294117647058824,../static/images/US_Cities_List/leesburg.png,../static/images/US_Cities_List/shreveport.png,../static/images/US_Cities_List/cornwall.png,../static/images/US_Cities_List/leesburg.png,../static/images/US_Cities_List/cornwall.png,../static/images/US_Cities_List/shreveport.png,0.5,closer,,,,,,,,
null,,html-keyboard-response,1070431,,,<p></p>,,,,,null,,,,,,,,,,,,,,,,,,,,
4152.200000047684,,directmemory_phase,1074594,,,../static/images/US_Cities_List/westpalmbeach.png,,,,,50,,,0,0.5,../static/images/US_Cities_List/racine.png,../static/images/US_Cities_List/hanover.png,../static/images/US_Cities_List/gatlinburg.png,../static/images/US_Cities_List/gatlinburg.png,../static/images/US_Cities_List/hanover.png,../static/images/US_Cities_List/racine.png,0.5,closer,,,,,,,,
null,,html-keyboard-response,1075597,,,<p></p>,,,,,null,,,,,,,,,,,,,,,,,,,,
3194.600000023842,,directmemory_phase,1078803,,,../static/images/US_Cities_List/hotsprings.png,,,,,50,,,1,0.5263157894736842,../static/images/US_Cities_List/gatlinburg.png,../static/images/US_Cities_List/huntsville.png,../static/images/US_Cities_List/newhope.png,../static/images/US_Cities_List/huntsville.png,../static/images/US_Cities_List/gatlinburg.png,../static/images/US_Cities_List/newhope.png,1,,,,,,,,,
null,,html-keyboard-response,1079805,,,<p></p>,,,,,null,,,,,,,,,,,,,,,,,,,,
3907.3000000715256,,directmemory_phase,1083723,,,../static/images/US_Cities_List/newhope.png,,,,,50,,,1,0.55,../static/images/US_Cities_List/shreveport.png,../static/images/US_Cities_List/hanover.png,../static/images/US_Cities_List/boulder.png,../static/images/US_Cities_List/hanover.png,../static/images/US_Cities_List/shreveport.png,../static/images/US_Cities_List/boulder.png,1,,,,,,,,,
null,,html-keyboard-response,1084726,,,<p></p>,,,,,null,,,,,,,,,,,,,,,,,,,,
4005.5,,directmemory_phase,1088739,,,../static/images/US_Cities_List/cornwall.png,,,,,50,,,0,0.5238095238095238,../static/images/US_Cities_List/shreveport.png,../static/images/US_Cities_List/carmel.png,../static/images/US_Cities_List/huntsville.png,../static/images/US_Cities_List/huntsville.png,../static/images/US_Cities_List/carmel.png,../static/images/US_Cities_List/shreveport.png,0.5,closer,,,,,,,,
null,,html-keyboard-response,1089742,,,<p></p>,,,,,null,,,,,,,,,,,,,,,,,,,,
5498.200000047684,,directmemory_phase,1095249,,,../static/images/US_Cities_List/shreveport.png,,,,,51,,,0,0.5,../static/images/US_Cities_List/newhope.png,../static/images/US_Cities_List/hanover.png,../static/images/US_Cities_List/leesburg.png,../static/images/US_Cities_List/hanover.png,../static/images/US_Cities_List/newhope.png,../static/images/US_Cities_List/leesburg.png,0.5,closer,,,,,,,,
null,,html-keyboard-response,1096251,,,<p></p>,,,,,null,,,,,,,,,,,,,,,,,,,,
3749.600000023842,,directmemory_phase,1100009,,,../static/images/US_Cities_List/peoria.png,,,,,50,,,0,0.4782608695652174,../static/images/US_Cities_List/cornwall.png,../static/images/US_Cities_List/racine.png,../static/images/US_Cities_List/huntsville.png,../static/images/US_Cities_List/cornwall.png,../static/images/US_Cities_List/huntsville.png,../static/images/US_Cities_List/racine.png,0.5,closer,,,,,,,,
null,,html-keyboard-response,1101011,,,<p></p>,,,,,null,,,,,,,,,,,,,,,,,,,,
3989.600000023842,,directmemory_phase,1105010,,,../static/images/US_Cities_List/hanover.png,,,,,50,,,0,0.4583333333333333,../static/images/US_Cities_List/shreveport.png,../static/images/US_Cities_List/leesburg.png,../static/images/US_Cities_List/hotsprings.png,../static/images/US_Cities_List/shreveport.png,../static/images/US_Cities_List/hotsprings.png,../static/images/US_Cities_List/leesburg.png,0.5,closer,,,,,,,,
null,,html-keyboard-response,1106012,,,<p></p>,,,,,null,,,,,,,,,,,,,,,,,,,,
5648.5,,directmemory_phase,1111673,,,../static/images/US_Cities_List/leesburg.png,,,,,50,,,0,0.44,../static/images/US_Cities_List/cornwall.png,../static/images/US_Cities_List/shreveport.png,../static/images/US_Cities_List/hotsprings.png,../static/images/US_Cities_List/cornwall.png,../static/images/US_Cities_List/hotsprings.png,../static/images/US_Cities_List/shreveport.png,0.5,closer,,,,,,,,
null,,html-keyboard-response,1112676,,,<p></p>,,,,,null,,,,,,,,,,,,,,,,,,,,
5715.800000071526,,directmemory_phase,1118402,,,../static/images/US_Cities_List/hotsprings.png,,,,,49,,,0,0.4230769230769231,../static/images/US_Cities_List/westpalmbeach.png,../static/images/US_Cities_List/leesburg.png,../static/images/US_Cities_List/shreveport.png,../static/images/US_Cities_List/shreveport.png,../static/images/US_Cities_List/leesburg.png,../static/images/US_Cities_List/westpalmbeach.png,0.5,closer,,,,,,,,
null,,html-keyboard-response,1119405,,,<p></p>,,,,,null,,,,,,,,,,,,,,,,,,,,
5675.300000071526,,directmemory_phase,1125089,,,../static/images/US_Cities_List/racine.png,,,,,50,,,0,0.4074074074074074,../static/images/US_Cities_List/boulder.png,../static/images/US_Cities_List/newhope.png,../static/images/US_Cities_List/huntsville.png,../static/images/US_Cities_List/huntsville.png,../static/images/US_Cities_List/newhope.png,../static/images/US_Cities_List/boulder.png,0.5,closer,,,,,,,,
null,,html-keyboard-response,1126092,,,<p></p>,,,,,null,,,,,,,,,,,,,,,,,,,,
6022.700000047684,,directmemory_phase,1132127,,,../static/images/US_Cities_List/hotsprings.png,,,,,49,,,0,0.39285714285714285,../static/images/US_Cities_List/cornwall.png,../static/images/US_Cities_List/boulder.png,../static/images/US_Cities_List/carmel.png,../static/images/US_Cities_List/boulder.png,../static/images/US_Cities_List/cornwall.png,../static/images/US_Cities_List/carmel.png,0.5,closer,,,,,,,,
null,,html-keyboard-response,1133129,,,<p></p>,,,,,null,,,,,,,,,,,,,,,,,,,,
4948.600000023842,,directmemory_phase,1138091,,,../static/images/US_Cities_List/cornwall.png,,,,,50,,,1,0.41379310344827586,../static/images/US_Cities_List/carmel.png,../static/images/US_Cities_List/peoria.png,../static/images/US_Cities_List/hanover.png,../static/images/US_Cities_List/peoria.png,../static/images/US_Cities_List/carmel.png,../static/images/US_Cities_List/hanover.png,1,,,,,,,,,
null,,html-keyboard-response,1139093,,,<p></p>,,,,,null,,,,,,,,,,,,,,,,,,,,
5409.899999976158,,directmemory_phase,1144514,,,../static/images/US_Cities_List/shreveport.png,,,,,50,,,0,0.4,../static/images/US_Cities_List/carmel.png,../static/images/US_Cities_List/newhope.png,../static/images/US_Cities_List/hotsprings.png,../static/images/US_Cities_List/hotsprings.png,../static/images/US_Cities_List/newhope.png,../static/images/US_Cities_List/carmel.png,0.5,closer,,,,,,,,
null,,html-keyboard-response,1145516,,,<p></p>,,,,,null,,,,,,,,,,,,,,,,,,,,
5565,,directmemory_phase,1151090,,,../static/images/US_Cities_List/hanover.png,,,,,51,,,0,0.3870967741935484,../static/images/US_Cities_List/gatlinburg.png,../static/images/US_Cities_List/boulder.png,../static/images/US_Cities_List/westpalmbeach.png,../static/images/US_Cities_List/gatlinburg.png,../static/images/US_Cities_List/westpalmbeach.png,../static/images/US_Cities_List/boulder.png,0.5,closer,,,,,,,,
null,,html-keyboard-response,1152092,,,<p></p>,,,,,null,,,,,,,,,,,,,,,,,,,,
5232.899999976158,,directmemory_phase,1157335,,,../static/images/US_Cities_List/leesburg.png,,,,,49,,,0,0.375,../static/images/US_Cities_List/racine.png,../static/images/US_Cities_List/peoria.png,../static/images/US_Cities_List/boulder.png,../static/images/US_Cities_List/boulder.png,../static/images/US_Cities_List/peoria.png,../static/images/US_Cities_List/racine.png,0.5,closer,,,,,,,,
null,,html-keyboard-response,1158337,,,<p></p>,,,,,null,,,,,,,,,,,,,,,,,,,,
54565.10000002384,,intro_1,1212903,,,instruct,,,0,,,,,,,,,,,,,,,,,,,,,,
18995.100000023842,,intro_2,1231899,,,instruct,,,1,Next,,,,,,,,,,,,,,,,,,,,,
12993.200000047684,,intro_3,1244894,,,instruct,,,1,Next,,,,,,,,,,,,,,,,,,,,,
6897.899999976158,,intro_4,1251792,,,instruct,,,1,Next,,,,,,,,,,,,,,,,,,,,,
26849,,intro_5,1278643,,,instruct,,,1,Next,,,,,,,,,,,,,,,,,,,,,
4510.100000023842,,intro_6,1283154,,,instruct,,,1,Next,,,,,,,,,,,,,,,,,,,,,
7172.199999928474,,intro_7,1290327,,,instruct,,,1,Next,,,,,,,,,,,,,,,,,,,,,
24242.099999904633,,intro_8,1314570,,,instruct,,,1,Next,,,,,,,,,,,,,,,,,,,,,
36362,,intro_9,1350934,,,instruct,,,0,Previous,,,,,,,,,,,,,,,,,,,,,
332.90000009536743,,intro_8,1351267,,,instruct,,,0,Previous,,,,,,,,,,,,,,,,,,,,,
243.19999992847443,,intro_7,1351512,,,instruct,,,0,Previous,,,,,,,,,,,,,,,,,,,,,
171.90000009536743,,intro_6,1351684,,,instruct,,,0,Previous,,,,,,,,,,,,,,,,,,,,,
1150.3999999761581,,intro_5,1352836,,,instruct,,,0,Previous,,,,,,,,,,,,,,,,,,,,,
1937.0999999046326,,intro_4,1354774,,,instruct,,,1,Next,,,,,,,,,,,,,,,,,,,,,
2200,,intro_5,1356975,,,instruct,,,1,Next,,,,,,,,,,,,,,,,,,,,,
1802.5,,intro_6,1358778,,,instruct,,,1,Next,,,,,,,,,,,,,,,,,,,,,
2050.7999999523163,,intro_7,1360830,,,instruct,,,1,Next,,,,,,,,,,,,,,,,,,,,,
11668.299999952316,,intro_8,1372499,,,instruct,,,1,Next,,,,,,,,,,,,,,,,,,,,,
104991.19999992847,,intro_9,1477492,,,instruct,,,1,Next,,,,,,,,,,,,,,,,,,,,,
21281.899999976158,,intro_10,1498775,,,instruct,,,1,Next,,,,,,,,,,,,,,,,,,,,,
10734.100000023842,,intro_11,1509510,,,instruct,,,1,Next,,,,,,,,,,,,,,,,,,,,,
3747.1999999284744,,shortestpath_phase,1513262,,,../static/images/US_Cities_List/huntsville.png,,,,,50,../static/images/US_Cities_List/westpalmbeach.png,../static/images/US_Cities_List/shreveport.png,1,1,,,,../static/images/US_Cities_List/shreveport.png,,,,,Two Edge Diff,Two Edge Four Edge,,,,,,
null,,html-keyboard-response,1514264,,,<p></p>,,,,,null,,,,,,,,,,,,,,,,,,,,
3058.5,,shortestpath_phase,1517329,,,../static/images/US_Cities_List/carmel.png,,,,,50,../static/images/US_Cities_List/westpalmbeach.png,../static/images/US_Cities_List/boulder.png,1,1,,,,../static/images/US_Cities_List/boulder.png,,,,,Four Edge Diff,Two Edge Six Edge,,,,,,
null,,html-keyboard-response,1518332,,,<p></p>,,,,,null,,,,,,,,,,,,,,,,,,,,
2805.399999976158,,shortestpath_phase,1521145,,,../static/images/US_Cities_List/westpalmbeach.png,,,,,49,../static/images/US_Cities_List/cornwall.png,../static/images/US_Cities_List/shreveport.png,0,0.6666666666666666,,,,../static/images/US_Cities_List/shreveport.png,,,,,Three Edge Diff,Three Edge Six Edge,,,,,,
null,,html-keyboard-response,1522147,,,<p></p>,,,,,null,,,,,,,,,,,,,,,,,,,,
3644.2999999523163,,shortestpath_phase,1525798,,,../static/images/US_Cities_List/gatlinburg.png,,,,,49,../static/images/US_Cities_List/leesburg.png,../static/images/US_Cities_List/newhope.png,0,0.5,,,,../static/images/US_Cities_List/newhope.png,,,,,Two Edge Diff,Two Edge Four Edge,,,,,,
null,,html-keyboard-response,1526800,,,<p></p>,,,,,null,,,,,,,,,,,,,,,,,,,,
2899.100000023842,,shortestpath_phase,1529707,,,../static/images/US_Cities_List/westpalmbeach.png,,,,,50,../static/images/US_Cities_List/boulder.png,../static/images/US_Cities_List/carmel.png,0,0.4,,,,../static/images/US_Cities_List/boulder.png,,,,,Two Edge Diff,Four Edge Six Edge,,,,,,
null,,html-keyboard-response,1530709,,,<p></p>,,,,,null,,,,,,,,,,,,,,,,,,,,
4101.600000023842,,shortestpath_phase,1534819,,,../static/images/US_Cities_List/carmel.png,,,,,50,../static/images/US_Cities_List/huntsville.png,../static/images/US_Cities_List/cornwall.png,1,0.5,,,,../static/images/US_Cities_List/cornwall.png,,,,,One Edge Diff,Two Edge Three Edge,,,,,,
null,,html-keyboard-response,1535823,,,<p></p>,,,,,null,,,,,,,,,,,,,,,,,,,,
3408.899999976158,,shortestpath_phase,1539238,,,../static/images/US_Cities_List/hanover.png,,,,,50,../static/images/US_Cities_List/boulder.png,../static/images/US_Cities_List/peoria.png,0,0.42857142857142855,,,,../static/images/US_Cities_List/boulder.png,,,,,One Edge Diff,Three Edge Four Edge,,,,,,
null,,html-keyboard-response,1540241,,,<p></p>,,,,,null,,,,,,,,,,,,,,,,,,,,
4049.2999999523163,,shortestpath_phase,1544299,,,../static/images/US_Cities_List/westpalmbeach.png,,,,,49,../static/images/US_Cities_List/huntsville.png,../static/images/US_Cities_List/cornwall.png,1,0.5,,,,../static/images/US_Cities_List/huntsville.png,,,,,One Edge Diff,Four Edge Five Edge,,,,,,
null,,html-keyboard-response,1545301,,,<p></p>,,,,,null,,,,,,,,,,,,,,,,,,,,
2538.5,,shortestpath_phase,1547847,,,../static/images/US_Cities_List/boulder.png,,,,,49,../static/images/US_Cities_List/shreveport.png,../static/images/US_Cities_List/peoria.png,1,0.5555555555555556,,,,../static/images/US_Cities_List/shreveport.png,,,,,One Edge Diff,Two Edge Three Edge,,,,,,
null,,html-keyboard-response,1548850,,,<p></p>,,,,,null,,,,,,,,,,,,,,,,,,,,
3697.6999999284744,,shortestpath_phase,1552555,,,../static/images/US_Cities_List/gatlinburg.png,,,,,50,../static/images/US_Cities_List/huntsville.png,../static/images/US_Cities_List/carmel.png,0,0.5,,,,../static/images/US_Cities_List/huntsville.png,,,,,Two Edge Diff,Three Edge Five Edge,,,,,,
