rt,responses,trial_type,time_elapsed,image_type,sequence,stimulus,cities,city_images,button_pressed,response,key_press,stimulus_left,stimulus_right,accuracy,cumulative_accuracy,stimulus_down_left,stimulus_down_mid,stimulus_down_right,stimulus_correct,stimulus_short,stimulus_far,weighted_accuracy,missedtrial,condition,specific_pairs,imgL_ID,imgR_ID,linedress,linedressed,detour_trial,linedressed_detor
4346,{worker_id:650c3f3a36d72f87324d708f},id_enter,4351,fictional,interleaved,flights,Delaro Park; Riverlyn; North Arroya; Sunmere; Granton Ridge; Hawthorne Bluffs; Juniper Creek; Orchard Bend; Claywater; Hollendale; Cedarwyn; Baymarsh; New Verdan,US_Cities_List/cornwall.png; US_Cities_List/westpalmbeach.png; US_Cities_List/newhope.png; US_Cities_List/hotsprings.png; US_Cities_List/hanover.png; US_Cities_List/shreveport.png; US_Cities_List/gatlinburg.png; US_Cities_List/peoria.png; US_Cities_List/boulder.png; US_Cities_List/carmel.png; US_Cities_List/huntsville.png; US_Cities_List/leesburg.png; US_Cities_List/racine.png,,,,,,,,,,,,,,,,,,,,,,,
22059.5,,fullscreen,26417,,,make_fullscreen,,,0,,,,,,,,,,,,,,,,,,,,,,
20465,,intro_1,46886,,,instruct,,,0,,,,,,,,,,,,,,,,,,,,,,
12409,,intro_2,59297,,,instruct,,,1,Next,,,,,,,,,,,,,,,,,,,,,
37608.799999952316,,intro_3,96908,,,instruct,,,1,Next,,,,,,,,,,,,,,,,,,,,,
19096.299999952316,,intro_4,116006,,,instruct,,,1,Next,,,,,,,,,,,,,,,,,,,,,
38129.89999985695,,intro_5,154138,,,instruct,,,1,Next,,,,,,,,,,,,,,,,,,,,,
42034.09999990463,,intro_6,196174,,,instruct,,,1,Next,,,,,,,,,,,,,,,,,,,,,
13754.5,,intro_7,209930,,,instruct,,,1,Next,,,,,,,,,,,,,,,,,,,,,
null,,learn_prac_1,212933,,,lean_prac_1,,,,,null,,,,,,,,,,,,,,,,,,,,
null,,html-keyboard-response,213937,,,<p></p>,,,,,null,,,,,,,,,,,,,,,,,,,,
7329.600000143051,,intro_1,221267,,,instruct,,,0,,,,,,,,,,,,,,,,,,,,,,
6695.599999904633,,intro_2,227965,,,instruct,,,1,Next,,,,,,,,,,,,,,,,,,,,,
null,,learn_prac_2,230966,,,lean_prac_2,,,,,null,,,,,,,,,,,,,,,,,,,,
null,,html-keyboard-response,231970,,,<p></p>,,,,,null,,,,,,,,,,,,,,,,,,,,
17338,,intro_1,249309,,,instruct,,,0,,,,,,,,,,,,,,,,,,,,,,
6988.899999856949,,intro_2,256299,,,instruct,,,1,Next,,,,,,,,,,,,,,,,,,,,,
31881,,intro_3,288182,,,instruct,,,1,Next,,,,,,,,,,,,,,,,,,,,,
null,,prac_atten_color_black,288577,,,black_plus_sign,,,,,null,,,,,,,,,,,,,,,,,,,,
null,,prac_atten_color,289587,,,prac_stop_color,,,,,null,,,,,,,,,,,,,,,,,,,,
null,,prac_atten_color_black,291589,,,black_plus_sign,,,,,null,,,,,,,,,,,,,,,,,,,,
7870.400000095367,,attentioncheck_help,299461,,,instruct,,,,,32,,,,,,,,,,,,,,,,,,,,
null,,prac_atten_color_black,299856,,,black_plus_sign,,,,,null,,,,,,,,,,,,,,,,,,,,
null,,prac_atten_color,300302,,,prac_stop_color,,,,,null,,,,,,,,,,,,,,,,,,,,
null,,prac_atten_color_black,302305,,,black_plus_sign,,,,,null,,,,,,,,,,,,,,,,,,,,
8823.400000095367,,attentioncheck_help,311130,,,instruct,,,,,32,,,,,,,,,,,,,,,,,,,,
null,,prac_atten_color_black,312098,,,black_plus_sign,,,,,null,,,,,,,,,,,,,,,,,,,,
null,,prac_atten_color,312551,,,prac_stop_color,,,,,null,,,,,,,,,,,,,,,,,,,,
null,,prac_atten_color_black,314553,,,black_plus_sign,,,,,null,,,,,,,,,,,,,,,,,,,,
10464.399999856949,,attentioncheck_help,325020,,,instruct,,,,,32,,,,,,,,,,,,,,,,,,,,
null,,prac_atten_color_black,325972,,,black_plus_sign,,,,,null,,,,,,,,,,,,,,,,,,,,
463.80000019073486,,prac_atten_color,326711,,,prac_stop_color,,,,,49,,,,,,,,,,,,,,,,,,,,
null,,prac_atten_color_black,328713,,,black_plus_sign,,,,,null,,,,,,,,,,,,,,,,,,,,
null,,prac_atten_color_black,329379,,,black_plus_sign,,,,,null,,,,,,,,,,,,,,,,,,,,
528,,prac_atten_color,330355,,,prac_stop_color,,,,,50,,,,,,,,,,,,,,,,,,,,
null,,prac_atten_color_black,332357,,,black_plus_sign,,,,,null,,,,,,,,,,,,,,,,,,,,
null,,prac_atten_color_black,332786,,,black_plus_sign,,,,,null,,,,,,,,,,,,,,,,,,,,
null,,prac_atten_color,333244,,,prac_stop_color,,,,,null,,,,,,,,,,,,,,,,,,,,
84.5,,prac_atten_color_black,335246,,,black_plus_sign,,,,,50,,,,,,,,,,,,,,,,,,,,
null,,prac_atten_color_black,336194,,,black_plus_sign,,,,,null,,,,,,,,,,,,,,,,,,,,
334.7000000476837,,prac_atten_color,337020,,,prac_stop_color,,,,,49,,,,,,,,,,,,,,,,,,,,
null,,prac_atten_color_black,339024,,,black_plus_sign,,,,,null,,,,,,,,,,,,,,,,,,,,
null,,prac_atten_color_black,339604,,,black_plus_sign,,,,,null,,,,,,,,,,,,,,,,,,,,
283.09999990463257,,prac_atten_color,340179,,,prac_stop_color,,,,,50,,,,,,,,,,,,,,,,,,,,
null,,prac_atten_color_black,342181,,,black_plus_sign,,,,,null,,,,,,,,,,,,,,,,,,,,
null,,prac_atten_color_black,343012,,,black_plus_sign,,,,,null,,,,,,,,,,,,,,,,,,,,
296,,prac_atten_color,343955,,,prac_stop_color,,,,,49,,,,,,,,,,,,,,,,,,,,
null,,prac_atten_color_black,345956,,,black_plus_sign,,,,,null,,,,,,,,,,,,,,,,,,,,
null,,prac_atten_color_black,346418,,,black_plus_sign,,,,,null,,,,,,,,,,,,,,,,,,,,
null,,prac_atten_color,346959,,,prac_stop_color,,,,,null,,,,,,,,,,,,,,,,,,,,
8.599999904632568,,prac_atten_color_black,348960,,,black_plus_sign,,,,,49,,,,,,,,,,,,,,,,,,,,
8558.299999952316,,attentioncheck_feedback,357521,,,cross_check_feedback,,,0,,,,,,,,,,,,,,,,,,,,,,
26576.39999985695,,last_instruct,384098,,,instruct,,,,,32,,,,,,,,,,,,,,,,,,,,
null,,learn_phase(without_color),387115,,,black_plus_sign,,,,,null,US_Cities_List/gatlinburg.png,US_Cities_List/racine.png,,,,,,,,,,,,,,,,,,
null,,black_cross(without_color),388125,,,yellow,,,,,null,US_Cities_List/gatlinburg.png,US_Cities_List/racine.png,,,,,,,,,,,,,,,,,,
null,,rt_plussign_withcolor,388627,,,yellow,,,,,null,US_Cities_List/gatlinburg.png,US_Cities_List/racine.png,,,,,,,,,,,,,,,,,,
1227.7000000476837,,rt_thecrossant_black,389623,,,black_plus_sign,,,,,50,,,1,1,,,,,,,,,,,,,,,,
null,,color_black,389727,,,black_plus_sign,,,,,null,,,,,,,,,,,,,,,,,,,,
null,,learn_phase(without_color),392743,,,black_plus_sign,,,,,null,US_Cities_List/boulder.png,US_Cities_List/gatlinburg.png,,,,,,,,,,,,,,,,,,
null,,black_cross(without_color),393517,,,blue,,,,,null,US_Cities_List/boulder.png,US_Cities_List/gatlinburg.png,,,,,,,,,,,,,,,,,,
null,,rt_plussign_withcolor,394019,,,blue,,,,,null,US_Cities_List/boulder.png,US_Cities_List/gatlinburg.png,,,,,,,,,,,,,,,,,,
null,,rt_thecrossant_black,395259,,,black_plus_sign,,,,,null,,,,1,,,,,,,,,,,,,,,,
null,,color_black,395366,,,black_plus_sign,,,,,null,,,,,,,,,,,,,,,,,,,,
null,,learn_phase(without_color),398378,,,black_plus_sign,,,,,null,US_Cities_List/huntsville.png,US_Cities_List/boulder.png,,,,,,,,,,,,,,,,,,
null,,black_cross(without_color),399015,,,yellow,,,,,null,US_Cities_List/huntsville.png,US_Cities_List/boulder.png,,,,,,,,,,,,,,,,,,
null,,rt_plussign_withcolor,399516,,,yellow,,,,,null,US_Cities_List/huntsville.png,US_Cities_List/boulder.png,,,,,,,,,,,,,,,,,,
918.3000001907349,,rt_thecrossant_black,400883,,,black_plus_sign,,,,,50,,,1,1,,,,,,,,,,,,,,,,
null,,color_black,400986,,,black_plus_sign,,,,,null,,,,,,,,,,,,,,,,,,,,
null,,learn_phase(without_color),404005,,,black_plus_sign,,,,,null,US_Cities_List/leesburg.png,US_Cities_List/hotsprings.png,,,,,,,,,,,,,,,,,,
null,,black_cross(without_color),405099,,,yellow,,,,,null,US_Cities_List/leesburg.png,US_Cities_List/hotsprings.png,,,,,,,,,,,,,,,,,,
null,,rt_plussign_withcolor,405601,,,yellow,,,,,null,US_Cities_List/leesburg.png,US_Cities_List/hotsprings.png,,,,,,,,,,,,,,,,,,
958.0999999046326,,rt_thecrossant_black,406513,,,black_plus_sign,,,,,50,,,1,1,,,,,,,,,,,,,,,,
null,,color_black,406616,,,black_plus_sign,,,,,null,,,,,,,,,,,,,,,,,,,,
null,,learn_phase(without_color),409632,,,black_plus_sign,,,,,null,US_Cities_List/westpalmbeach.png,US_Cities_List/newhope.png,,,,,,,,,,,,,,,,,,
null,,black_cross(without_color),410134,,,blue,,,,,null,US_Cities_List/westpalmbeach.png,US_Cities_List/newhope.png,,,,,,,,,,,,,,,,,,
null,,rt_plussign_withcolor,410635,,,blue,,,,,null,US_Cities_List/westpalmbeach.png,US_Cities_List/newhope.png,,,,,,,,,,,,,,,,,,
1912.1000001430511,,rt_thecrossant_black,412139,,,black_plus_sign,,,,,50,,,0,0.75,,,,,,,,,,,,,,,,
null,,color_black,412242,,,black_plus_sign,,,,,null,,,,,,,,,,,,,,,,,,,,
null,,learn_phase(without_color),415273,,,black_plus_sign,,,,,null,US_Cities_List/hanover.png,US_Cities_List/hotsprings.png,,,,,,,,,,,,,,,,,,
null,,black_cross(without_color),415774,,,blue,,,,,null,US_Cities_List/hanover.png,US_Cities_List/hotsprings.png,,,,,,,,,,,,,,,,,,
null,,rt_plussign_withcolor,416276,,,blue,,,,,null,US_Cities_List/hanover.png,US_Cities_List/hotsprings.png,,,,,,,,,,,,,,,,,,
629.4000000953674,,rt_thecrossant_black,417781,,,black_plus_sign,,,,,49,,,1,0.8,,,,,,,,,,,,,,,,
null,,color_black,417884,,,black_plus_sign,,,,,null,,,,,,,,,,,,,,,,,,,,
null,,learn_phase(without_color),420898,,,black_plus_sign,,,,,null,US_Cities_List/boulder.png,US_Cities_List/peoria.png,,,,,,,,,,,,,,,,,,
null,,black_cross(without_color),421522,,,yellow,,,,,null,US_Cities_List/boulder.png,US_Cities_List/peoria.png,,,,,,,,,,,,,,,,,,
null,,rt_plussign_withcolor,422024,,,yellow,,,,,null,US_Cities_List/boulder.png,US_Cities_List/peoria.png,,,,,,,,,,,,,,,,,,
876.9000000953674,,rt_thecrossant_black,423405,,,black_plus_sign,,,,,50,,,1,0.8333333333333334,,,,,,,,,,,,,,,,
null,,color_black,423507,,,black_plus_sign,,,,,null,,,,,,,,,,,,,,,,,,,,
null,,learn_phase(without_color),426531,,,black_plus_sign,,,,,null,US_Cities_List/shreveport.png,US_Cities_List/newhope.png,,,,,,,,,,,,,,,,,,
null,,black_cross(without_color),427472,,,yellow,,,,,null,US_Cities_List/shreveport.png,US_Cities_List/newhope.png,,,,,,,,,,,,,,,,,,
null,,rt_plussign_withcolor,427973,,,yellow,,,,,null,US_Cities_List/shreveport.png,US_Cities_List/newhope.png,,,,,,,,,,,,,,,,,,
840.2000000476837,,rt_thecrossant_black,429038,,,black_plus_sign,,,,,50,,,1,0.8571428571428571,,,,,,,,,,,,,,,,
null,,color_black,429141,,,black_plus_sign,,,,,null,,,,,,,,,,,,,,,,,,,,
null,,learn_phase(without_color),432159,,,black_plus_sign,,,,,null,US_Cities_List/carmel.png,US_Cities_List/peoria.png,,,,,,,,,,,,,,,,,,
null,,black_cross(without_color),433037,,,yellow,,,,,null,US_Cities_List/carmel.png,US_Cities_List/peoria.png,,,,,,,,,,,,,,,,,,
null,,rt_plussign_withcolor,433539,,,yellow,,,,,null,US_Cities_List/carmel.png,US_Cities_List/peoria.png,,,,,,,,,,,,,,,,,,
1384.2000000476837,,rt_thecrossant_black,434666,,,black_plus_sign,,,,,50,,,1,0.875,,,,,,,,,,,,,,,,
null,,color_black,434770,,,black_plus_sign,,,,,null,,,,,,,,,,,,,,,,,,,,
null,,learn_phase(without_color),437788,,,black_plus_sign,,,,,null,US_Cities_List/gatlinburg.png,US_Cities_List/shreveport.png,,,,,,,,,,,,,,,,,,
null,,black_cross(without_color),438275,,,blue,,,,,null,US_Cities_List/gatlinburg.png,US_Cities_List/shreveport.png,,,,,,,,,,,,,,,,,,
null,,rt_plussign_withcolor,438777,,,blue,,,,,null,US_Cities_List/gatlinburg.png,US_Cities_List/shreveport.png,,,,,,,,,,,,,,,,,,
1327.5,,rt_thecrossant_black,440295,,,black_plus_sign,,,,,49,,,1,0.8888888888888888,,,,,,,,,,,,,,,,
null,,color_black,440399,,,black_plus_sign,,,,,null,,,,,,,,,,,,,,,,,,,,
null,,learn_phase(without_color),443411,,,black_plus_sign,,,,,null,US_Cities_List/huntsville.png,US_Cities_List/leesburg.png,,,,,,,,,,,,,,,,,,
null,,black_cross(without_color),444038,,,yellow,,,,,null,US_Cities_List/huntsville.png,US_Cities_List/leesburg.png,,,,,,,,,,,,,,,,,,
null,,rt_plussign_withcolor,444543,,,yellow,,,,,null,US_Cities_List/huntsville.png,US_Cities_List/leesburg.png,,,,,,,,,,,,,,,,,,
926.0999999046326,,rt_thecrossant_black,445923,,,black_plus_sign,,,,,50,,,1,0.9,,,,,,,,,,,,,,,,
null,,color_black,446026,,,black_plus_sign,,,,,null,,,,,,,,,,,,,,,,,,,,
null,,learn_phase(without_color),449045,,,black_plus_sign,,,,,null,US_Cities_List/huntsville.png,US_Cities_List/boulder.png,,,,,,,,,,,,,,,,,,
null,,black_cross(without_color),449603,,,blue,,,,,null,US_Cities_List/huntsville.png,US_Cities_List/boulder.png,,,,,,,,,,,,,,,,,,
null,,rt_plussign_withcolor,450104,,,blue,,,,,null,US_Cities_List/huntsville.png,US_Cities_List/boulder.png,,,,,,,,,,,,,,,,,,
1046.7000000476837,,rt_thecrossant_black,451553,,,black_plus_sign,,,,,49,,,1,0.9090909090909091,,,,,,,,,,,,,,,,
null,,color_black,451655,,,black_plus_sign,,,,,null,,,,,,,,,,,,,,,,,,,,
null,,learn_phase(without_color),454674,,,black_plus_sign,,,,,null,US_Cities_List/newhope.png,US_Cities_List/westpalmbeach.png,,,,,,,,,,,,,,,,,,
null,,black_cross(without_color),455610,,,yellow,,,,,null,US_Cities_List/newhope.png,US_Cities_List/westpalmbeach.png,,,,,,,,,,,,,,,,,,
null,,rt_plussign_withcolor,456113,,,yellow,,,,,null,US_Cities_List/newhope.png,US_Cities_List/westpalmbeach.png,,,,,,,,,,,,,,,,,,
943.8000001907349,,rt_thecrossant_black,457182,,,black_plus_sign,,,,,50,,,1,0.9166666666666666,,,,,,,,,,,,,,,,
null,,color_black,457286,,,black_plus_sign,,,,,null,,,,,,,,,,,,,,,,,,,,
null,,learn_phase(without_color),460305,,,black_plus_sign,,,,,null,US_Cities_List/racine.png,US_Cities_List/gatlinburg.png,,,,,,,,,,,,,,,,,,
null,,black_cross(without_color),461305,,,yellow,,,,,null,US_Cities_List/racine.png,US_Cities_List/gatlinburg.png,,,,,,,,,,,,,,,,,,
null,,rt_plussign_withcolor,461807,,,yellow,,,,,null,US_Cities_List/racine.png,US_Cities_List/gatlinburg.png,,,,,,,,,,,,,,,,,,
1414.4000000953674,,rt_thecrossant_black,462812,,,black_plus_sign,,,,,50,,,1,0.9230769230769231,,,,,,,,,,,,,,,,
null,,color_black,462915,,,black_plus_sign,,,,,null,,,,,,,,,,,,,,,,,,,,
null,,learn_phase(without_color),465930,,,black_plus_sign,,,,,null,US_Cities_List/newhope.png,US_Cities_List/shreveport.png,,,,,,,,,,,,,,,,,,
null,,black_cross(without_color),466524,,,yellow,,,,,null,US_Cities_List/newhope.png,US_Cities_List/shreveport.png,,,,,,,,,,,,,,,,,,
null,,rt_plussign_withcolor,467026,,,yellow,,,,,null,US_Cities_List/newhope.png,US_Cities_List/shreveport.png,,,,,,,,,,,,,,,,,,
1377.7999999523163,,rt_thecrossant_black,468437,,,black_plus_sign,,,,,50,,,1,0.9285714285714286,,,,,,,,,,,,,,,,
null,,color_black,468540,,,black_plus_sign,,,,,null,,,,,,,,,,,,,,,,,,,,
null,,learn_phase(without_color),471566,,,black_plus_sign,,,,,null,US_Cities_List/hotsprings.png,US_Cities_List/westpalmbeach.png,,,,,,,,,,,,,,,,,,
null,,black_cross(without_color),472235,,,blue,,,,,null,US_Cities_List/hotsprings.png,US_Cities_List/westpalmbeach.png,,,,,,,,,,,,,,,,,,
null,,rt_plussign_withcolor,472737,,,blue,,,,,null,US_Cities_List/hotsprings.png,US_Cities_List/westpalmbeach.png,,,,,,,,,,,,,,,,,,
973.2000000476837,,rt_thecrossant_black,474073,,,black_plus_sign,,,,,49,,,1,0.9333333333333333,,,,,,,,,,,,,,,,
null,,color_black,474176,,,black_plus_sign,,,,,null,,,,,,,,,,,,,,,,,,,,
null,,learn_phase(without_color),477193,,,black_plus_sign,,,,,null,US_Cities_List/gatlinburg.png,US_Cities_List/peoria.png,,,,,,,,,,,,,,,,,,
null,,black_cross(without_color),477837,,,blue,,,,,null,US_Cities_List/gatlinburg.png,US_Cities_List/peoria.png,,,,,,,,,,,,,,,,,,
null,,rt_plussign_withcolor,478339,,,blue,,,,,null,US_Cities_List/gatlinburg.png,US_Cities_List/peoria.png,,,,,,,,,,,,,,,,,,
978,,rt_thecrossant_black,479701,,,black_plus_sign,,,,,49,,,1,0.9375,,,,,,,,,,,,,,,,
null,,color_black,479804,,,black_plus_sign,,,,,null,,,,,,,,,,,,,,,,,,,,
null,,learn_phase(without_color),482816,,,black_plus_sign,,,,,null,US_Cities_List/huntsville.png,US_Cities_List/leesburg.png,,,,,,,,,,,,,,,,,,
null,,black_cross(without_color),483249,,,blue,,,,,null,US_Cities_List/huntsville.png,US_Cities_List/leesburg.png,,,,,,,,,,,,,,,,,,
null,,rt_plussign_withcolor,483751,,,blue,,,,,null,US_Cities_List/huntsville.png,US_Cities_List/leesburg.png,,,,,,,,,,,,,,,,,,
1111.7999999523163,,rt_thecrossant_black,485321,,,black_plus_sign,,,,,49,,,1,0.9411764705882353,,,,,,,,,,,,,,,,
null,,color_black,485424,,,black_plus_sign,,,,,null,,,,,,,,,,,,,,,,,,,,
null,,learn_phase(without_color),488441,,,black_plus_sign,,,,,null,US_Cities_List/gatlinburg.png,US_Cities_List/shreveport.png,,,,,,,,,,,,,,,,,,
null,,black_cross(without_color),488907,,,yellow,,,,,null,US_Cities_List/gatlinburg.png,US_Cities_List/shreveport.png,,,,,,,,,,,,,,,,,,
null,,rt_plussign_withcolor,489409,,,yellow,,,,,null,US_Cities_List/gatlinburg.png,US_Cities_List/shreveport.png,,,,,,,,,,,,,,,,,,
812.7000000476837,,rt_thecrossant_black,490948,,,black_plus_sign,,,,,50,,,1,0.9444444444444444,,,,,,,,,,,,,,,,
null,,color_black,491051,,,black_plus_sign,,,,,null,,,,,,,,,,,,,,,,,,,,
null,,learn_phase(without_color),494063,,,black_plus_sign,,,,,null,US_Cities_List/boulder.png,US_Cities_List/huntsville.png,,,,,,,,,,,,,,,,,,
null,,black_cross(without_color),494528,,,blue,,,,,null,US_Cities_List/boulder.png,US_Cities_List/huntsville.png,,,,,,,,,,,,,,,,,,
null,,rt_plussign_withcolor,495031,,,blue,,,,,null,US_Cities_List/boulder.png,US_Cities_List/huntsville.png,,,,,,,,,,,,,,,,,,
900.5,,rt_thecrossant_black,496571,,,black_plus_sign,,,,,49,,,1,0.9473684210526315,,,,,,,,,,,,,,,,
null,,color_black,496673,,,black_plus_sign,,,,,null,,,,,,,,,,,,,,,,,,,,
null,,learn_phase(without_color),499690,,,black_plus_sign,,,,,null,US_Cities_List/boulder.png,US_Cities_List/peoria.png,,,,,,,,,,,,,,,,,,
null,,black_cross(without_color),500221,,,blue,,,,,null,US_Cities_List/boulder.png,US_Cities_List/peoria.png,,,,,,,,,,,,,,,,,,
null,,rt_plussign_withcolor,500722,,,blue,,,,,null,US_Cities_List/boulder.png,US_Cities_List/peoria.png,,,,,,,,,,,,,,,,,,
832.6999998092651,,rt_thecrossant_black,502198,,,black_plus_sign,,,,,49,,,1,0.95,,,,,,,,,,,,,,,,
null,,color_black,502301,,,black_plus_sign,,,,,null,,,,,,,,,,,,,,,,,,,,
null,,learn_phase(without_color),505318,,,black_plus_sign,,,,,null,US_Cities_List/peoria.png,US_Cities_List/carmel.png,,,,,,,,,,,,,,,,,,
null,,black_cross(without_color),505818,,,blue,,,,,null,US_Cities_List/peoria.png,US_Cities_List/carmel.png,,,,,,,,,,,,,,,,,,
null,,rt_plussign_withcolor,506320,,,blue,,,,,null,US_Cities_List/peoria.png,US_Cities_List/carmel.png,,,,,,,,,,,,,,,,,,
988.6999998092651,,rt_thecrossant_black,507824,,,black_plus_sign,,,,,49,,,1,0.9523809523809523,,,,,,,,,,,,,,,,
null,,color_black,507939,,,black_plus_sign,,,,,null,,,,,,,,,,,,,,,,,,,,
null,,learn_phase(without_color),510961,,,black_plus_sign,,,,,null,US_Cities_List/westpalmbeach.png,US_Cities_List/cornwall.png,,,,,,,,,,,,,,,,,,
null,,black_cross(without_color),511432,,,yellow,,,,,null,US_Cities_List/westpalmbeach.png,US_Cities_List/cornwall.png,,,,,,,,,,,,,,,,,,
null,,rt_plussign_withcolor,511933,,,yellow,,,,,null,US_Cities_List/westpalmbeach.png,US_Cities_List/cornwall.png,,,,,,,,,,,,,,,,,,
872,,rt_thecrossant_black,513468,,,black_plus_sign,,,,,50,,,1,0.9545454545454546,,,,,,,,,,,,,,,,
null,,color_black,513571,,,black_plus_sign,,,,,null,,,,,,,,,,,,,,,,,,,,
null,,learn_phase(without_color),516595,,,black_plus_sign,,,,,null,US_Cities_List/newhope.png,US_Cities_List/westpalmbeach.png,,,,,,,,,,,,,,,,,,
null,,black_cross(without_color),517078,,,yellow,,,,,null,US_Cities_List/newhope.png,US_Cities_List/westpalmbeach.png,,,,,,,,,,,,,,,,,,
null,,rt_plussign_withcolor,517580,,,yellow,,,,,null,US_Cities_List/newhope.png,US_Cities_List/westpalmbeach.png,,,,,,,,,,,,,,,,,,
852.0999999046326,,rt_thecrossant_black,519102,,,black_plus_sign,,,,,50,,,1,0.9565217391304348,,,,,,,,,,,,,,,,
null,,color_black,519205,,,black_plus_sign,,,,,null,,,,,,,,,,,,,,,,,,,,
null,,learn_phase(without_color),522226,,,black_plus_sign,,,,,null,US_Cities_List/leesburg.png,US_Cities_List/hotsprings.png,,,,,,,,,,,,,,,,,,
null,,black_cross(without_color),522664,,,blue,,,,,null,US_Cities_List/leesburg.png,US_Cities_List/hotsprings.png,,,,,,,,,,,,,,,,,,
null,,rt_plussign_withcolor,523165,,,blue,,,,,null,US_Cities_List/leesburg.png,US_Cities_List/hotsprings.png,,,,,,,,,,,,,,,,,,
891.8999998569489,,rt_thecrossant_black,524734,,,black_plus_sign,,,,,49,,,1,0.9583333333333334,,,,,,,,,,,,,,,,
null,,color_black,524836,,,black_plus_sign,,,,,null,,,,,,,,,,,,,,,,,,,,
null,,learn_phase(without_color),527861,,,black_plus_sign,,,,,null,US_Cities_List/hotsprings.png,US_Cities_List/leesburg.png,,,,,,,,,,,,,,,,,,
null,,black_cross(without_color),528731,,,blue,,,,,null,US_Cities_List/hotsprings.png,US_Cities_List/leesburg.png,,,,,,,,,,,,,,,,,,
null,,rt_plussign_withcolor,529233,,,blue,,,,,null,US_Cities_List/hotsprings.png,US_Cities_List/leesburg.png,,,,,,,,,,,,,,,,,,
802.6000001430511,,rt_thecrossant_black,530368,,,black_plus_sign,,,,,49,,,1,0.96,,,,,,,,,,,,,,,,
null,,color_black,530471,,,black_plus_sign,,,,,null,,,,,,,,,,,,,,,,,,,,
null,,learn_phase(without_color),533488,,,black_plus_sign,,,,,null,US_Cities_List/hotsprings.png,US_Cities_List/westpalmbeach.png,,,,,,,,,,,,,,,,,,
null,,black_cross(without_color),534118,,,yellow,,,,,null,US_Cities_List/hotsprings.png,US_Cities_List/westpalmbeach.png,,,,,,,,,,,,,,,,,,
null,,rt_plussign_withcolor,534620,,,yellow,,,,,null,US_Cities_List/hotsprings.png,US_Cities_List/westpalmbeach.png,,,,,,,,,,,,,,,,,,
1311,,rt_thecrossant_black,535996,,,black_plus_sign,,,,,50,,,1,0.9615384615384616,,,,,,,,,,,,,,,,
null,,color_black,536099,,,black_plus_sign,,,,,null,,,,,,,,,,,,,,,,,,,,
null,,learn_phase(without_color),539113,,,black_plus_sign,,,,,null,US_Cities_List/shreveport.png,US_Cities_List/boulder.png,,,,,,,,,,,,,,,,,,
null,,black_cross(without_color),539874,,,blue,,,,,null,US_Cities_List/shreveport.png,US_Cities_List/boulder.png,,,,,,,,,,,,,,,,,,
null,,rt_plussign_withcolor,540377,,,blue,,,,,null,US_Cities_List/shreveport.png,US_Cities_List/boulder.png,,,,,,,,,,,,,,,,,,
825,,rt_thecrossant_black,541620,,,black_plus_sign,,,,,49,,,1,0.9629629629629629,,,,,,,,,,,,,,,,
null,,color_black,541723,,,black_plus_sign,,,,,null,,,,,,,,,,,,,,,,,,,,
null,,learn_phase(without_color),544737,,,black_plus_sign,,,,,null,US_Cities_List/leesburg.png,US_Cities_List/huntsville.png,,,,,,,,,,,,,,,,,,
null,,black_cross(without_color),545218,,,blue,,,,,null,US_Cities_List/leesburg.png,US_Cities_List/huntsville.png,,,,,,,,,,,,,,,,,,
null,,rt_plussign_withcolor,545719,,,blue,,,,,null,US_Cities_List/leesburg.png,US_Cities_List/huntsville.png,,,,,,,,,,,,,,,,,,
1111.7999999523163,,rt_thecrossant_black,547245,,,black_plus_sign,,,,,49,,,1,0.9642857142857143,,,,,,,,,,,,,,,,
null,,color_black,547349,,,black_plus_sign,,,,,null,,,,,,,,,,,,,,,,,,,,
null,,learn_phase(without_color),550369,,,black_plus_sign,,,,,null,US_Cities_List/hotsprings.png,US_Cities_List/leesburg.png,,,,,,,,,,,,,,,,,,
null,,black_cross(without_color),550873,,,yellow,,,,,null,US_Cities_List/hotsprings.png,US_Cities_List/leesburg.png,,,,,,,,,,,,,,,,,,
null,,rt_plussign_withcolor,551374,,,yellow,,,,,null,US_Cities_List/hotsprings.png,US_Cities_List/leesburg.png,,,,,,,,,,,,,,,,,,
829.0999999046326,,rt_thecrossant_black,552875,,,black_plus_sign,,,,,50,,,1,0.9655172413793104,,,,,,,,,,,,,,,,
null,,color_black,552978,,,black_plus_sign,,,,,null,,,,,,,,,,,,,,,,,,,,
null,,learn_phase(without_color),555998,,,black_plus_sign,,,,,null,US_Cities_List/boulder.png,US_Cities_List/peoria.png,,,,,,,,,,,,,,,,,,
null,,black_cross(without_color),556482,,,yellow,,,,,null,US_Cities_List/boulder.png,US_Cities_List/peoria.png,,,,,,,,,,,,,,,,,,
null,,rt_plussign_withcolor,556997,,,yellow,,,,,null,US_Cities_List/boulder.png,US_Cities_List/peoria.png,,,,,,,,,,,,,,,,,,
877.2000000476837,,rt_thecrossant_black,558528,,,black_plus_sign,,,,,50,,,1,0.9666666666666667,,,,,,,,,,,,,,,,
null,,color_black,558631,,,black_plus_sign,,,,,null,,,,,,,,,,,,,,,,,,,,
null,,learn_phase(without_color),561650,,,black_plus_sign,,,,,null,US_Cities_List/newhope.png,US_Cities_List/huntsville.png,,,,,,,,,,,,,,,,,,
null,,black_cross(without_color),562598,,,blue,,,,,null,US_Cities_List/newhope.png,US_Cities_List/huntsville.png,,,,,,,,,,,,,,,,,,
null,,rt_plussign_withcolor,563100,,,blue,,,,,null,US_Cities_List/newhope.png,US_Cities_List/huntsville.png,,,,,,,,,,,,,,,,,,
804.3999998569489,,rt_thecrossant_black,564158,,,black_plus_sign,,,,,49,,,1,0.967741935483871,,,,,,,,,,,,,,,,
null,,color_black,564262,,,black_plus_sign,,,,,null,,,,,,,,,,,,,,,,,,,,
null,,learn_phase(without_color),567282,,,black_plus_sign,,,,,null,US_Cities_List/gatlinburg.png,US_Cities_List/boulder.png,,,,,,,,,,,,,,,,,,
null,,black_cross(without_color),568107,,,blue,,,,,null,US_Cities_List/gatlinburg.png,US_Cities_List/boulder.png,,,,,,,,,,,,,,,,,,
null,,rt_plussign_withcolor,568609,,,blue,,,,,null,US_Cities_List/gatlinburg.png,US_Cities_List/boulder.png,,,,,,,,,,,,,,,,,,
1154.3999998569489,,rt_thecrossant_black,569789,,,black_plus_sign,,,,,49,,,1,0.96875,,,,,,,,,,,,,,,,
null,,color_black,569892,,,black_plus_sign,,,,,null,,,,,,,,,,,,,,,,,,,,
null,,learn_phase(without_color),572905,,,black_plus_sign,,,,,null,US_Cities_List/leesburg.png,US_Cities_List/hotsprings.png,,,,,,,,,,,,,,,,,,
null,,black_cross(without_color),573592,,,blue,,,,,null,US_Cities_List/leesburg.png,US_Cities_List/hotsprings.png,,,,,,,,,,,,,,,,,,
null,,rt_plussign_withcolor,574094,,,blue,,,,,null,US_Cities_List/leesburg.png,US_Cities_List/hotsprings.png,,,,,,,,,,,,,,,,,,
1330.9000000953674,,rt_thecrossant_black,575413,,,black_plus_sign,,,,,49,,,1,0.9696969696969697,,,,,,,,,,,,,,,,
null,,color_black,575517,,,black_plus_sign,,,,,null,,,,,,,,,,,,,,,,,,,,
null,,learn_phase(without_color),578531,,,black_plus_sign,,,,,null,US_Cities_List/huntsville.png,US_Cities_List/boulder.png,,,,,,,,,,,,,,,,,,
null,,black_cross(without_color),579567,,,blue,,,,,null,US_Cities_List/huntsville.png,US_Cities_List/boulder.png,,,,,,,,,,,,,,,,,,
null,,rt_plussign_withcolor,580069,,,blue,,,,,null,US_Cities_List/huntsville.png,US_Cities_List/boulder.png,,,,,,,,,,,,,,,,,,
1018.5,,rt_thecrossant_black,581038,,,black_plus_sign,,,,,49,,,1,0.9705882352941176,,,,,,,,,,,,,,,,
null,,color_black,581140,,,black_plus_sign,,,,,null,,,,,,,,,,,,,,,,,,,,
null,,learn_phase(without_color),584160,,,black_plus_sign,,,,,null,US_Cities_List/boulder.png,US_Cities_List/gatlinburg.png,,,,,,,,,,,,,,,,,,
null,,black_cross(without_color),584890,,,blue,,,,,null,US_Cities_List/boulder.png,US_Cities_List/gatlinburg.png,,,,,,,,,,,,,,,,,,
null,,rt_plussign_withcolor,585391,,,blue,,,,,null,US_Cities_List/boulder.png,US_Cities_List/gatlinburg.png,,,,,,,,,,,,,,,,,,
1171.6999998092651,,rt_thecrossant_black,586670,,,black_plus_sign,,,,,49,,,1,0.9714285714285714,,,,,,,,,,,,,,,,
null,,color_black,586772,,,black_plus_sign,,,,,null,,,,,,,,,,,,,,,,,,,,
null,,learn_phase(without_color),589794,,,black_plus_sign,,,,,null,US_Cities_List/boulder.png,US_Cities_List/peoria.png,,,,,,,,,,,,,,,,,,
null,,black_cross(without_color),590440,,,yellow,,,,,null,US_Cities_List/boulder.png,US_Cities_List/peoria.png,,,,,,,,,,,,,,,,,,
null,,rt_plussign_withcolor,590942,,,yellow,,,,,null,US_Cities_List/boulder.png,US_Cities_List/peoria.png,,,,,,,,,,,,,,,,,,
1111.7999999523163,,rt_thecrossant_black,592301,,,black_plus_sign,,,,,50,,,1,0.9722222222222222,,,,,,,,,,,,,,,,
null,,color_black,592404,,,black_plus_sign,,,,,null,,,,,,,,,,,,,,,,,,,,
null,,learn_phase(without_color),595424,,,black_plus_sign,,,,,null,US_Cities_List/huntsville.png,US_Cities_List/newhope.png,,,,,,,,,,,,,,,,,,
null,,black_cross(without_color),596395,,,blue,,,,,null,US_Cities_List/huntsville.png,US_Cities_List/newhope.png,,,,,,,,,,,,,,,,,,
null,,rt_plussign_withcolor,596897,,,blue,,,,,null,US_Cities_List/huntsville.png,US_Cities_List/newhope.png,,,,,,,,,,,,,,,,,,
1058.4000000953674,,rt_thecrossant_black,597931,,,black_plus_sign,,,,,49,,,1,0.972972972972973,,,,,,,,,,,,,,,,
null,,color_black,598034,,,black_plus_sign,,,,,null,,,,,,,,,,,,,,,,,,,,
null,,learn_phase(without_color),601047,,,black_plus_sign,,,,,null,US_Cities_List/peoria.png,US_Cities_List/boulder.png,,,,,,,,,,,,,,,,,,
null,,black_cross(without_color),602025,,,blue,,,,,null,US_Cities_List/peoria.png,US_Cities_List/boulder.png,,,,,,,,,,,,,,,,,,
null,,rt_plussign_withcolor,602526,,,blue,,,,,null,US_Cities_List/peoria.png,US_Cities_List/boulder.png,,,,,,,,,,,,,,,,,,
1159.7999999523163,,rt_thecrossant_black,603554,,,black_plus_sign,,,,,49,,,1,0.9736842105263158,,,,,,,,,,,,,,,,
null,,color_black,603656,,,black_plus_sign,,,,,null,,,,,,,,,,,,,,,,,,,,
null,,learn_phase(without_color),606675,,,black_plus_sign,,,,,null,US_Cities_List/westpalmbeach.png,US_Cities_List/cornwall.png,,,,,,,,,,,,,,,,,,
null,,black_cross(without_color),607728,,,yellow,,,,,null,US_Cities_List/westpalmbeach.png,US_Cities_List/cornwall.png,,,,,,,,,,,,,,,,,,
null,,rt_plussign_withcolor,608230,,,yellow,,,,,null,US_Cities_List/westpalmbeach.png,US_Cities_List/cornwall.png,,,,,,,,,,,,,,,,,,
1658.6000001430511,,rt_thecrossant_black,609198,,,black_plus_sign,,,,,50,,,1,0.9743589743589743,,,,,,,,,,,,,,,,
null,,color_black,609300,,,black_plus_sign,,,,,null,,,,,,,,,,,,,,,,,,,,
null,,learn_phase(without_color),612312,,,black_plus_sign,,,,,null,US_Cities_List/boulder.png,US_Cities_List/huntsville.png,,,,,,,,,,,,,,,,,,
null,,black_cross(without_color),613194,,,blue,,,,,null,US_Cities_List/boulder.png,US_Cities_List/huntsville.png,,,,,,,,,,,,,,,,,,
348.7000000476837,,rt_plussign_withcolor,613696,,,blue,,,,,49,US_Cities_List/boulder.png,US_Cities_List/huntsville.png,,,,,,,,,,,,,,,,,,
null,,rt_thecrossant_black,614819,,,black_plus_sign,,,,,null,,,1,0.975,,,,,,,,,,,,,,,,
null,,color_black,614922,,,black_plus_sign,,,,,null,,,,,,,,,,,,,,,,,,,,
null,,learn_phase(without_color),617938,,,black_plus_sign,,,,,null,US_Cities_List/shreveport.png,US_Cities_List/newhope.png,,,,,,,,,,,,,,,,,,
null,,black_cross(without_color),618607,,,yellow,,,,,null,US_Cities_List/shreveport.png,US_Cities_List/newhope.png,,,,,,,,,,,,,,,,,,
null,,rt_plussign_withcolor,619109,,,yellow,,,,,null,US_Cities_List/shreveport.png,US_Cities_List/newhope.png,,,,,,,,,,,,,,,,,,
1129.1000001430511,,rt_thecrossant_black,620446,,,black_plus_sign,,,,,50,,,1,0.975609756097561,,,,,,,,,,,,,,,,
null,,color_black,620549,,,black_plus_sign,,,,,null,,,,,,,,,,,,,,,,,,,,
null,,learn_phase(without_color),623567,,,black_plus_sign,,,,,null,US_Cities_List/boulder.png,US_Cities_List/gatlinburg.png,,,,,,,,,,,,,,,,,,
null,,black_cross(without_color),624417,,,yellow,,,,,null,US_Cities_List/boulder.png,US_Cities_List/gatlinburg.png,,,,,,,,,,,,,,,,,,
null,,rt_plussign_withcolor,624919,,,yellow,,,,,null,US_Cities_List/boulder.png,US_Cities_List/gatlinburg.png,,,,,,,,,,,,,,,,,,
1023.0999999046326,,rt_thecrossant_black,626074,,,black_plus_sign,,,,,50,,,1,0.9761904761904762,,,,,,,,,,,,,,,,
null,,color_black,626177,,,black_plus_sign,,,,,null,,,,,,,,,,,,,,,,,,,,
null,,learn_phase(without_color),629191,,,black_plus_sign,,,,,null,US_Cities_List/boulder.png,US_Cities_List/huntsville.png,,,,,,,,,,,,,,,,,,
null,,black_cross(without_color),629620,,,blue,,,,,null,US_Cities_List/boulder.png,US_Cities_List/huntsville.png,,,,,,,,,,,,,,,,,,
null,,rt_plussign_withcolor,630123,,,blue,,,,,null,US_Cities_List/boulder.png,US_Cities_List/huntsville.png,,,,,,,,,,,,,,,,,,
1095,,rt_thecrossant_black,631699,,,black_plus_sign,,,,,49,,,1,0.9767441860465116,,,,,,,,,,,,,,,,
null,,color_black,631802,,,black_plus_sign,,,,,null,,,,,,,,,,,,,,,,,,,,
null,,learn_phase(without_color),634823,,,black_plus_sign,,,,,null,US_Cities_List/leesburg.png,US_Cities_List/huntsville.png,,,,,,,,,,,,,,,,,,
null,,black_cross(without_color),635783,,,yellow,,,,,null,US_Cities_List/leesburg.png,US_Cities_List/huntsville.png,,,,,,,,,,,,,,,,,,
null,,rt_plussign_withcolor,636289,,,yellow,,,,,null,US_Cities_List/leesburg.png,US_Cities_List/huntsville.png,,,,,,,,,,,,,,,,,,
889.2999999523163,,rt_thecrossant_black,637333,,,black_plus_sign,,,,,50,,,1,0.9772727272727273,,,,,,,,,,,,,,,,
null,,color_black,637436,,,black_plus_sign,,,,,null,,,,,,,,,,,,,,,,,,,,
null,,learn_phase(without_color),640451,,,black_plus_sign,,,,,null,US_Cities_List/boulder.png,US_Cities_List/shreveport.png,,,,,,,,,,,,,,,,,,
null,,black_cross(without_color),641118,,,blue,,,,,null,US_Cities_List/boulder.png,US_Cities_List/shreveport.png,,,,,,,,,,,,,,,,,,
467,,rt_plussign_withcolor,641619,,,blue,,,,,49,US_Cities_List/boulder.png,US_Cities_List/shreveport.png,,,,,,,,,,,,,,,,,,
null,,rt_thecrossant_black,642958,,,black_plus_sign,,,,,null,,,1,0.9777777777777777,,,,,,,,,,,,,,,,
null,,color_black,643060,,,black_plus_sign,,,,,null,,,,,,,,,,,,,,,,,,,,
null,,learn_phase(without_color),646076,,,black_plus_sign,,,,,null,US_Cities_List/huntsville.png,US_Cities_List/leesburg.png,,,,,,,,,,,,,,,,,,
null,,black_cross(without_color),646732,,,yellow,,,,,null,US_Cities_List/huntsville.png,US_Cities_List/leesburg.png,,,,,,,,,,,,,,,,,,
null,,rt_plussign_withcolor,647234,,,yellow,,,,,null,US_Cities_List/huntsville.png,US_Cities_List/leesburg.png,,,,,,,,,,,,,,,,,,
1019.6000001430511,,rt_thecrossant_black,648583,,,black_plus_sign,,,,,50,,,1,0.9782608695652174,,,,,,,,,,,,,,,,
null,,color_black,648687,,,black_plus_sign,,,,,null,,,,,,,,,,,,,,,,,,,,
null,,learn_phase(without_color),651715,,,black_plus_sign,,,,,null,US_Cities_List/gatlinburg.png,US_Cities_List/racine.png,,,,,,,,,,,,,,,,,,
null,,black_cross(without_color),652318,,,yellow,,,,,null,US_Cities_List/gatlinburg.png,US_Cities_List/racine.png,,,,,,,,,,,,,,,,,,
null,,rt_plussign_withcolor,652820,,,yellow,,,,,null,US_Cities_List/gatlinburg.png,US_Cities_List/racine.png,,,,,,,,,,,,,,,,,,
1060.7000000476837,,rt_thecrossant_black,654221,,,black_plus_sign,,,,,50,,,1,0.9787234042553191,,,,,,,,,,,,,,,,
null,,color_black,654324,,,black_plus_sign,,,,,null,,,,,,,,,,,,,,,,,,,,
null,,learn_phase(without_color),657354,,,black_plus_sign,,,,,null,US_Cities_List/gatlinburg.png,US_Cities_List/peoria.png,,,,,,,,,,,,,,,,,,
null,,black_cross(without_color),658300,,,blue,,,,,null,US_Cities_List/gatlinburg.png,US_Cities_List/peoria.png,,,,,,,,,,,,,,,,,,
null,,rt_plussign_withcolor,658802,,,blue,,,,,null,US_Cities_List/gatlinburg.png,US_Cities_List/peoria.png,,,,,,,,,,,,,,,,,,
752.5,,rt_thecrossant_black,659863,,,black_plus_sign,,,,,49,,,1,0.9791666666666666,,,,,,,,,,,,,,,,
null,,color_black,659965,,,black_plus_sign,,,,,null,,,,,,,,,,,,,,,,,,,,
null,,learn_phase(without_color),662981,,,black_plus_sign,,,,,null,US_Cities_List/boulder.png,US_Cities_List/huntsville.png,,,,,,,,,,,,,,,,,,
null,,black_cross(without_color),663642,,,blue,,,,,null,US_Cities_List/boulder.png,US_Cities_List/huntsville.png,,,,,,,,,,,,,,,,,,
null,,rt_plussign_withcolor,664144,,,blue,,,,,null,US_Cities_List/boulder.png,US_Cities_List/huntsville.png,,,,,,,,,,,,,,,,,,
1195.6000001430511,,rt_thecrossant_black,665488,,,black_plus_sign,,,,,49,,,1,0.9795918367346939,,,,,,,,,,,,,,,,
null,,color_black,665595,,,black_plus_sign,,,,,null,,,,,,,,,,,,,,,,,,,,
null,,learn_phase(without_color),668613,,,black_plus_sign,,,,,null,US_Cities_List/cornwall.png,US_Cities_List/westpalmbeach.png,,,,,,,,,,,,,,,,,,
null,,black_cross(without_color),669597,,,yellow,,,,,null,US_Cities_List/cornwall.png,US_Cities_List/westpalmbeach.png,,,,,,,,,,,,,,,,,,
null,,rt_plussign_withcolor,670099,,,yellow,,,,,null,US_Cities_List/cornwall.png,US_Cities_List/westpalmbeach.png,,,,,,,,,,,,,,,,,,
977,,rt_thecrossant_black,671134,,,black_plus_sign,,,,,50,,,1,0.98,,,,,,,,,,,,,,,,
null,,color_black,671237,,,black_plus_sign,,,,,null,,,,,,,,,,,,,,,,,,,,
null,,learn_phase(without_color),674263,,,black_plus_sign,,,,,null,US_Cities_List/hotsprings.png,US_Cities_List/westpalmbeach.png,,,,,,,,,,,,,,,,,,
null,,black_cross(without_color),675318,,,blue,,,,,null,US_Cities_List/hotsprings.png,US_Cities_List/westpalmbeach.png,,,,,,,,,,,,,,,,,,
null,,rt_plussign_withcolor,675836,,,blue,,,,,null,US_Cities_List/hotsprings.png,US_Cities_List/westpalmbeach.png,,,,,,,,,,,,,,,,,,
1197.8000001907349,,rt_thecrossant_black,676797,,,black_plus_sign,,,,,49,,,1,0.9803921568627451,,,,,,,,,,,,,,,,
null,,color_black,676900,,,black_plus_sign,,,,,null,,,,,,,,,,,,,,,,,,,,
null,,learn_phase(without_color),679917,,,black_plus_sign,,,,,null,US_Cities_List/gatlinburg.png,US_Cities_List/shreveport.png,,,,,,,,,,,,,,,,,,
null,,black_cross(without_color),680684,,,yellow,,,,,null,US_Cities_List/gatlinburg.png,US_Cities_List/shreveport.png,,,,,,,,,,,,,,,,,,
null,,rt_plussign_withcolor,681186,,,yellow,,,,,null,US_Cities_List/gatlinburg.png,US_Cities_List/shreveport.png,,,,,,,,,,,,,,,,,,
1261.7999999523163,,rt_thecrossant_black,682424,,,black_plus_sign,,,,,50,,,1,0.9807692307692307,,,,,,,,,,,,,,,,
null,,color_black,682527,,,black_plus_sign,,,,,null,,,,,,,,,,,,,,,,,,,,
null,,learn_phase(without_color),685554,,,black_plus_sign,,,,,null,US_Cities_List/cornwall.png,US_Cities_List/westpalmbeach.png,,,,,,,,,,,,,,,,,,
null,,black_cross(without_color),686490,,,blue,,,,,null,US_Cities_List/cornwall.png,US_Cities_List/westpalmbeach.png,,,,,,,,,,,,,,,,,,
396.90000009536743,,rt_plussign_withcolor,686992,,,blue,,,,,49,US_Cities_List/cornwall.png,US_Cities_List/westpalmbeach.png,,,,,,,,,,,,,,,,,,
null,,rt_thecrossant_black,688061,,,black_plus_sign,,,,,null,,,1,0.9811320754716981,,,,,,,,,,,,,,,,
null,,color_black,688163,,,black_plus_sign,,,,,null,,,,,,,,,,,,,,,,,,,,
null,,learn_phase(without_color),691188,,,black_plus_sign,,,,,null,US_Cities_List/boulder.png,US_Cities_List/gatlinburg.png,,,,,,,,,,,,,,,,,,
null,,black_cross(without_color),691918,,,blue,,,,,null,US_Cities_List/boulder.png,US_Cities_List/gatlinburg.png,,,,,,,,,,,,,,,,,,
456.2999999523163,,rt_plussign_withcolor,692419,,,blue,,,,,49,US_Cities_List/boulder.png,US_Cities_List/gatlinburg.png,,,,,,,,,,,,,,,,,,
null,,rt_thecrossant_black,693694,,,black_plus_sign,,,,,null,,,1,0.9814814814814815,,,,,,,,,,,,,,,,
null,,color_black,693797,,,black_plus_sign,,,,,null,,,,,,,,,,,,,,,,,,,,
null,,learn_phase(without_color),696809,,,black_plus_sign,,,,,null,US_Cities_List/hanover.png,US_Cities_List/hotsprings.png,,,,,,,,,,,,,,,,,,
null,,black_cross(without_color),697392,,,yellow,,,,,null,US_Cities_List/hanover.png,US_Cities_List/hotsprings.png,,,,,,,,,,,,,,,,,,
null,,rt_plussign_withcolor,697895,,,yellow,,,,,null,US_Cities_List/hanover.png,US_Cities_List/hotsprings.png,,,,,,,,,,,,,,,,,,
1077.7999999523163,,rt_thecrossant_black,699334,,,black_plus_sign,,,,,50,,,1,0.9818181818181818,,,,,,,,,,,,,,,,
null,,color_black,699437,,,black_plus_sign,,,,,null,,,,,,,,,,,,,,,,,,,,
null,,learn_phase(without_color),702458,,,black_plus_sign,,,,,null,US_Cities_List/racine.png,US_Cities_List/gatlinburg.png,,,,,,,,,,,,,,,,,,
null,,black_cross(without_color),703210,,,yellow,,,,,null,US_Cities_List/racine.png,US_Cities_List/gatlinburg.png,,,,,,,,,,,,,,,,,,
480.5,,rt_plussign_withcolor,703712,,,yellow,,,,,50,US_Cities_List/racine.png,US_Cities_List/gatlinburg.png,,,,,,,,,,,,,,,,,,
null,,rt_thecrossant_black,704966,,,black_plus_sign,,,,,null,,,1,0.9821428571428571,,,,,,,,,,,,,,,,
null,,color_black,705068,,,black_plus_sign,,,,,null,,,,,,,,,,,,,,,,,,,,
null,,learn_phase(without_color),708090,,,black_plus_sign,,,,,null,US_Cities_List/gatlinburg.png,US_Cities_List/racine.png,,,,,,,,,,,,,,,,,,
null,,black_cross(without_color),708565,,,yellow,,,,,null,US_Cities_List/gatlinburg.png,US_Cities_List/racine.png,,,,,,,,,,,,,,,,,,
null,,rt_plussign_withcolor,709067,,,yellow,,,,,null,US_Cities_List/gatlinburg.png,US_Cities_List/racine.png,,,,,,,,,,,,,,,,,,
1074.0999999046326,,rt_thecrossant_black,710604,,,black_plus_sign,,,,,50,,,1,0.9824561403508771,,,,,,,,,,,,,,,,
null,,color_black,710707,,,black_plus_sign,,,,,null,,,,,,,,,,,,,,,,,,,,
null,,learn_phase(without_color),713726,,,black_plus_sign,,,,,null,US_Cities_List/westpalmbeach.png,US_Cities_List/newhope.png,,,,,,,,,,,,,,,,,,
null,,black_cross(without_color),714736,,,blue,,,,,null,US_Cities_List/westpalmbeach.png,US_Cities_List/newhope.png,,,,,,,,,,,,,,,,,,
null,,rt_plussign_withcolor,715237,,,blue,,,,,null,US_Cities_List/westpalmbeach.png,US_Cities_List/newhope.png,,,,,,,,,,,,,,,,,,
570.7000000476837,,rt_thecrossant_black,716233,,,black_plus_sign,,,,,49,,,1,0.9827586206896551,,,,,,,,,,,,,,,,
null,,color_black,716335,,,black_plus_sign,,,,,null,,,,,,,,,,,,,,,,,,,,
null,,learn_phase(without_color),719362,,,black_plus_sign,,,,,null,US_Cities_List/boulder.png,US_Cities_List/gatlinburg.png,,,,,,,,,,,,,,,,,,
null,,black_cross(without_color),719903,,,blue,,,,,null,US_Cities_List/boulder.png,US_Cities_List/gatlinburg.png,,,,,,,,,,,,,,,,,,
null,,rt_plussign_withcolor,720405,,,blue,,,,,null,US_Cities_List/boulder.png,US_Cities_List/gatlinburg.png,,,,,,,,,,,,,,,,,,
1130.5999999046326,,rt_thecrossant_black,721871,,,black_plus_sign,,,,,49,,,1,0.9830508474576272,,,,,,,,,,,,,,,,
null,,color_black,721974,,,black_plus_sign,,,,,null,,,,,,,,,,,,,,,,,,,,
null,,learn_phase(without_color),724994,,,black_plus_sign,,,,,null,US_Cities_List/shreveport.png,US_Cities_List/gatlinburg.png,,,,,,,,,,,,,,,,,,
null,,black_cross(without_color),726024,,,blue,,,,,null,US_Cities_List/shreveport.png,US_Cities_List/gatlinburg.png,,,,,,,,,,,,,,,,,,
null,,rt_plussign_withcolor,726526,,,blue,,,,,null,US_Cities_List/shreveport.png,US_Cities_List/gatlinburg.png,,,,,,,,,,,,,,,,,,
867.2999999523163,,rt_thecrossant_black,727501,,,black_plus_sign,,,,,49,,,1,0.9833333333333333,,,,,,,,,,,,,,,,
null,,color_black,727605,,,black_plus_sign,,,,,null,,,,,,,,,,,,,,,,,,,,
null,,learn_phase(without_color),730619,,,black_plus_sign,,,,,null,US_Cities_List/boulder.png,US_Cities_List/peoria.png,,,,,,,,,,,,,,,,,,
null,,black_cross(without_color),731182,,,blue,,,,,null,US_Cities_List/boulder.png,US_Cities_List/peoria.png,,,,,,,,,,,,,,,,,,
null,,rt_plussign_withcolor,731684,,,blue,,,,,null,US_Cities_List/boulder.png,US_Cities_List/peoria.png,,,,,,,,,,,,,,,,,,
1244.2999999523163,,rt_thecrossant_black,733127,,,black_plus_sign,,,,,49,,,1,0.9836065573770492,,,,,,,,,,,,,,,,
null,,color_black,733229,,,black_plus_sign,,,,,null,,,,,,,,,,,,,,,,,,,,
null,,learn_phase(without_color),736255,,,black_plus_sign,,,,,null,US_Cities_List/carmel.png,US_Cities_List/peoria.png,,,,,,,,,,,,,,,,,,
null,,black_cross(without_color),737323,,,blue,,,,,null,US_Cities_List/carmel.png,US_Cities_List/peoria.png,,,,,,,,,,,,,,,,,,
null,,rt_plussign_withcolor,737825,,,blue,,,,,null,US_Cities_List/carmel.png,US_Cities_List/peoria.png,,,,,,,,,,,,,,,,,,
944.2999999523163,,rt_thecrossant_black,738763,,,black_plus_sign,,,,,49,,,1,0.9838709677419355,,,,,,,,,,,,,,,,
null,,color_black,738866,,,black_plus_sign,,,,,null,,,,,,,,,,,,,,,,,,,,
null,,learn_phase(without_color),741880,,,black_plus_sign,,,,,null,US_Cities_List/leesburg.png,US_Cities_List/huntsville.png,,,,,,,,,,,,,,,,,,
null,,black_cross(without_color),742685,,,blue,,,,,null,US_Cities_List/leesburg.png,US_Cities_List/huntsville.png,,,,,,,,,,,,,,,,,,
null,,rt_plussign_withcolor,743190,,,blue,,,,,null,US_Cities_List/leesburg.png,US_Cities_List/huntsville.png,,,,,,,,,,,,,,,,,,
1481.2000000476837,,rt_thecrossant_black,744391,,,black_plus_sign,,,,,49,,,1,0.9841269841269841,,,,,,,,,,,,,,,,
null,,color_black,744493,,,black_plus_sign,,,,,null,,,,,,,,,,,,,,,,,,,,
21296.5,,learn_break,765794,,,learn_break,,,,,32,,,,,,,,,,,,,,,,,,,,
null,,html-keyboard-response,766795,,,<p></p>,,,,,null,,,,,,,,,,,,,,,,,,,,
null,,learn_phase(without_color),769817,,,black_plus_sign,,,,,null,US_Cities_List/westpalmbeach.png,US_Cities_List/newhope.png,,,,,,,,,,,,,,,,,,
null,,black_cross(without_color),770403,,,yellow,,,,,null,US_Cities_List/westpalmbeach.png,US_Cities_List/newhope.png,,,,,,,,,,,,,,,,,,
null,,rt_plussign_withcolor,770905,,,yellow,,,,,null,US_Cities_List/westpalmbeach.png,US_Cities_List/newhope.png,,,,,,,,,,,,,,,,,,
1193.8999998569489,,rt_thecrossant_black,772325,,,black_plus_sign,,,,,50,,,1,0.984375,,,,,,,,,,,,,,,,
null,,color_black,772440,,,black_plus_sign,,,,,null,,,,,,,,,,,,,,,,,,,,
null,,learn_phase(without_color),775461,,,black_plus_sign,,,,,null,US_Cities_List/newhope.png,US_Cities_List/shreveport.png,,,,,,,,,,,,,,,,,,
null,,black_cross(without_color),776272,,,yellow,,,,,null,US_Cities_List/newhope.png,US_Cities_List/shreveport.png,,,,,,,,,,,,,,,,,,
null,,rt_plussign_withcolor,776775,,,yellow,,,,,null,US_Cities_List/newhope.png,US_Cities_List/shreveport.png,,,,,,,,,,,,,,,,,,
1065.3000001907349,,rt_thecrossant_black,777971,,,black_plus_sign,,,,,50,,,1,0.9846153846153847,,,,,,,,,,,,,,,,
null,,color_black,778073,,,black_plus_sign,,,,,null,,,,,,,,,,,,,,,,,,,,
null,,learn_phase(without_color),781091,,,black_plus_sign,,,,,null,US_Cities_List/huntsville.png,US_Cities_List/newhope.png,,,,,,,,,,,,,,,,,,
null,,black_cross(without_color),781638,,,yellow,,,,,null,US_Cities_List/huntsville.png,US_Cities_List/newhope.png,,,,,,,,,,,,,,,,,,
null,,rt_plussign_withcolor,782140,,,yellow,,,,,null,US_Cities_List/huntsville.png,US_Cities_List/newhope.png,,,,,,,,,,,,,,,,,,
1623.9000000953674,,rt_thecrossant_black,783599,,,black_plus_sign,,,,,50,,,1,0.9848484848484849,,,,,,,,,,,,,,,,
null,,color_black,783702,,,black_plus_sign,,,,,null,,,,,,,,,,,,,,,,,,,,
null,,learn_phase(without_color),786715,,,black_plus_sign,,,,,null,US_Cities_List/shreveport.png,US_Cities_List/boulder.png,,,,,,,,,,,,,,,,,,
null,,black_cross(without_color),787300,,,yellow,,,,,null,US_Cities_List/shreveport.png,US_Cities_List/boulder.png,,,,,,,,,,,,,,,,,,
null,,rt_plussign_withcolor,787801,,,yellow,,,,,null,US_Cities_List/shreveport.png,US_Cities_List/boulder.png,,,,,,,,,,,,,,,,,,
978.3999998569489,,rt_thecrossant_black,789222,,,black_plus_sign,,,,,50,,,1,0.9850746268656716,,,,,,,,,,,,,,,,
null,,color_black,789330,,,black_plus_sign,,,,,null,,,,,,,,,,,,,,,,,,,,
null,,learn_phase(without_color),792344,,,black_plus_sign,,,,,null,US_Cities_List/hanover.png,US_Cities_List/hotsprings.png,,,,,,,,,,,,,,,,,,
null,,black_cross(without_color),793375,,,yellow,,,,,null,US_Cities_List/hanover.png,US_Cities_List/hotsprings.png,,,,,,,,,,,,,,,,,,
null,,rt_plussign_withcolor,793881,,,yellow,,,,,null,US_Cities_List/hanover.png,US_Cities_List/hotsprings.png,,,,,,,,,,,,,,,,,,
1038.4000000953674,,rt_thecrossant_black,794857,,,black_plus_sign,,,,,50,,,1,0.9852941176470589,,,,,,,,,,,,,,,,
null,,color_black,794960,,,black_plus_sign,,,,,null,,,,,,,,,,,,,,,,,,,,
null,,learn_phase(without_color),797973,,,black_plus_sign,,,,,null,US_Cities_List/peoria.png,US_Cities_List/gatlinburg.png,,,,,,,,,,,,,,,,,,
null,,black_cross(without_color),798682,,,blue,,,,,null,US_Cities_List/peoria.png,US_Cities_List/gatlinburg.png,,,,,,,,,,,,,,,,,,
null,,rt_plussign_withcolor,799184,,,blue,,,,,null,US_Cities_List/peoria.png,US_Cities_List/gatlinburg.png,,,,,,,,,,,,,,,,,,
1424.9000000953674,,rt_thecrossant_black,800480,,,black_plus_sign,,,,,49,,,1,0.9855072463768116,,,,,,,,,,,,,,,,
null,,color_black,800582,,,black_plus_sign,,,,,null,,,,,,,,,,,,,,,,,,,,
null,,learn_phase(without_color),803594,,,black_plus_sign,,,,,null,US_Cities_List/boulder.png,US_Cities_List/huntsville.png,,,,,,,,,,,,,,,,,,
null,,black_cross(without_color),804015,,,blue,,,,,null,US_Cities_List/boulder.png,US_Cities_List/huntsville.png,,,,,,,,,,,,,,,,,,
null,,rt_plussign_withcolor,804517,,,blue,,,,,null,US_Cities_List/boulder.png,US_Cities_List/huntsville.png,,,,,,,,,,,,,,,,,,
993.8999998569489,,rt_thecrossant_black,806103,,,black_plus_sign,,,,,49,,,1,0.9857142857142858,,,,,,,,,,,,,,,,
null,,color_black,806205,,,black_plus_sign,,,,,null,,,,,,,,,,,,,,,,,,,,
null,,learn_phase(without_color),809221,,,black_plus_sign,,,,,null,US_Cities_List/shreveport.png,US_Cities_List/boulder.png,,,,,,,,,,,,,,,,,,
null,,black_cross(without_color),809986,,,yellow,,,,,null,US_Cities_List/shreveport.png,US_Cities_List/boulder.png,,,,,,,,,,,,,,,,,,
null,,rt_plussign_withcolor,810488,,,yellow,,,,,null,US_Cities_List/shreveport.png,US_Cities_List/boulder.png,,,,,,,,,,,,,,,,,,
813.2000000476837,,rt_thecrossant_black,811728,,,black_plus_sign,,,,,50,,,1,0.9859154929577465,,,,,,,,,,,,,,,,
null,,color_black,811847,,,black_plus_sign,,,,,null,,,,,,,,,,,,,,,,,,,,
null,,learn_phase(without_color),814872,,,black_plus_sign,,,,,null,US_Cities_List/hotsprings.png,US_Cities_List/leesburg.png,,,,,,,,,,,,,,,,,,
null,,black_cross(without_color),815562,,,yellow,,,,,null,US_Cities_List/hotsprings.png,US_Cities_List/leesburg.png,,,,,,,,,,,,,,,,,,
null,,rt_plussign_withcolor,816064,,,yellow,,,,,null,US_Cities_List/hotsprings.png,US_Cities_List/leesburg.png,,,,,,,,,,,,,,,,,,
956.6000001430511,,rt_thecrossant_black,817380,,,black_plus_sign,,,,,50,,,1,0.9861111111111112,,,,,,,,,,,,,,,,
null,,color_black,817483,,,black_plus_sign,,,,,null,,,,,,,,,,,,,,,,,,,,
null,,learn_phase(without_color),820499,,,black_plus_sign,,,,,null,US_Cities_List/peoria.png,US_Cities_List/carmel.png,,,,,,,,,,,,,,,,,,
null,,black_cross(without_color),821185,,,yellow,,,,,null,US_Cities_List/peoria.png,US_Cities_List/carmel.png,,,,,,,,,,,,,,,,,,
null,,rt_plussign_withcolor,821687,,,yellow,,,,,null,US_Cities_List/peoria.png,US_Cities_List/carmel.png,,,,,,,,,,,,,,,,,,
1008.2999999523163,,rt_thecrossant_black,823007,,,black_plus_sign,,,,,50,,,1,0.9863013698630136,,,,,,,,,,,,,,,,
null,,color_black,823109,,,black_plus_sign,,,,,null,,,,,,,,,,,,,,,,,,,,
null,,learn_phase(without_color),826124,,,black_plus_sign,,,,,null,US_Cities_List/huntsville.png,US_Cities_List/newhope.png,,,,,,,,,,,,,,,,,,
null,,black_cross(without_color),826821,,,blue,,,,,null,US_Cities_List/huntsville.png,US_Cities_List/newhope.png,,,,,,,,,,,,,,,,,,
null,,rt_plussign_withcolor,827323,,,blue,,,,,null,US_Cities_List/huntsville.png,US_Cities_List/newhope.png,,,,,,,,,,,,,,,,,,
919.7999999523163,,rt_thecrossant_black,828631,,,black_plus_sign,,,,,49,,,1,0.9864864864864865,,,,,,,,,,,,,,,,
null,,color_black,828734,,,black_plus_sign,,,,,null,,,,,,,,,,,,,,,,,,,,
null,,learn_phase(without_color),831752,,,black_plus_sign,,,,,null,US_Cities_List/cornwall.png,US_Cities_List/westpalmbeach.png,,,,,,,,,,,,,,,,,,
null,,black_cross(without_color),832813,,,yellow,,,,,null,US_Cities_List/cornwall.png,US_Cities_List/westpalmbeach.png,,,,,,,,,,,,,,,,,,
null,,rt_plussign_withcolor,833315,,,yellow,,,,,null,US_Cities_List/cornwall.png,US_Cities_List/westpalmbeach.png,,,,,,,,,,,,,,,,,,
1048.0999999046326,,rt_thecrossant_black,834260,,,black_plus_sign,,,,,50,,,1,0.9866666666666667,,,,,,,,,,,,,,,,
null,,color_black,834363,,,black_plus_sign,,,,,null,,,,,,,,,,,,,,,,,,,,
null,,learn_phase(without_color),837383,,,black_plus_sign,,,,,null,US_Cities_List/peoria.png,US_Cities_List/gatlinburg.png,,,,,,,,,,,,,,,,,,
null,,black_cross(without_color),838279,,,blue,,,,,null,US_Cities_List/peoria.png,US_Cities_List/gatlinburg.png,,,,,,,,,,,,,,,,,,
461.89999985694885,,rt_plussign_withcolor,838781,,,blue,,,,,49,US_Cities_List/peoria.png,US_Cities_List/gatlinburg.png,,,,,,,,,,,,,,,,,,
null,,rt_thecrossant_black,839890,,,black_plus_sign,,,,,null,,,1,0.9868421052631579,,,,,,,,,,,,,,,,
null,,color_black,839993,,,black_plus_sign,,,,,null,,,,,,,,,,,,,,,,,,,,
null,,learn_phase(without_color),843016,,,black_plus_sign,,,,,null,US_Cities_List/peoria.png,US_Cities_List/boulder.png,,,,,,,,,,,,,,,,,,
null,,black_cross(without_color),843552,,,yellow,,,,,null,US_Cities_List/peoria.png,US_Cities_List/boulder.png,,,,,,,,,,,,,,,,,,
null,,rt_plussign_withcolor,844054,,,yellow,,,,,null,US_Cities_List/peoria.png,US_Cities_List/boulder.png,,,,,,,,,,,,,,,,,,
1329.5,,rt_thecrossant_black,845524,,,black_plus_sign,,,,,50,,,1,0.987012987012987,,,,,,,,,,,,,,,,
null,,color_black,845629,,,black_plus_sign,,,,,null,,,,,,,,,,,,,,,,,,,,
null,,learn_phase(without_color),848657,,,black_plus_sign,,,,,null,US_Cities_List/westpalmbeach.png,US_Cities_List/cornwall.png,,,,,,,,,,,,,,,,,,
null,,black_cross(without_color),849748,,,yellow,,,,,null,US_Cities_List/westpalmbeach.png,US_Cities_List/cornwall.png,,,,,,,,,,,,,,,,,,
null,,rt_plussign_withcolor,850249,,,yellow,,,,,null,US_Cities_List/westpalmbeach.png,US_Cities_List/cornwall.png,,,,,,,,,,,,,,,,,,
948.0999999046326,,rt_thecrossant_black,851165,,,black_plus_sign,,,,,50,,,1,0.9871794871794872,,,,,,,,,,,,,,,,
null,,color_black,851268,,,black_plus_sign,,,,,null,,,,,,,,,,,,,,,,,,,,
null,,learn_phase(without_color),854288,,,black_plus_sign,,,,,null,US_Cities_List/gatlinburg.png,US_Cities_List/peoria.png,,,,,,,,,,,,,,,,,,
null,,black_cross(without_color),854921,,,yellow,,,,,null,US_Cities_List/gatlinburg.png,US_Cities_List/peoria.png,,,,,,,,,,,,,,,,,,
null,,rt_plussign_withcolor,855422,,,yellow,,,,,null,US_Cities_List/gatlinburg.png,US_Cities_List/peoria.png,,,,,,,,,,,,,,,,,,
1496,,rt_thecrossant_black,856797,,,black_plus_sign,,,,,50,,,1,0.9873417721518988,,,,,,,,,,,,,,,,
null,,color_black,856900,,,black_plus_sign,,,,,null,,,,,,,,,,,,,,,,,,,,
null,,learn_phase(without_color),859916,,,black_plus_sign,,,,,null,US_Cities_List/leesburg.png,US_Cities_List/huntsville.png,,,,,,,,,,,,,,,,,,
null,,black_cross(without_color),860732,,,yellow,,,,,null,US_Cities_List/leesburg.png,US_Cities_List/huntsville.png,,,,,,,,,,,,,,,,,,
null,,rt_plussign_withcolor,861235,,,yellow,,,,,null,US_Cities_List/leesburg.png,US_Cities_List/huntsville.png,,,,,,,,,,,,,,,,,,
1021.9000000953674,,rt_thecrossant_black,862425,,,black_plus_sign,,,,,50,,,1,0.9875,,,,,,,,,,,,,,,,
null,,color_black,862528,,,black_plus_sign,,,,,null,,,,,,,,,,,,,,,,,,,,
null,,learn_phase(without_color),865543,,,black_plus_sign,,,,,null,US_Cities_List/hotsprings.png,US_Cities_List/hanover.png,,,,,,,,,,,,,,,,,,
null,,black_cross(without_color),866413,,,blue,,,,,null,US_Cities_List/hotsprings.png,US_Cities_List/hanover.png,,,,,,,,,,,,,,,,,,
null,,rt_plussign_withcolor,866915,,,blue,,,,,null,US_Cities_List/hotsprings.png,US_Cities_List/hanover.png,,,,,,,,,,,,,,,,,,
1186.7000000476837,,rt_thecrossant_black,868051,,,black_plus_sign,,,,,49,,,1,0.9876543209876543,,,,,,,,,,,,,,,,
null,,color_black,868154,,,black_plus_sign,,,,,null,,,,,,,,,,,,,,,,,,,,
null,,learn_phase(without_color),871184,,,black_plus_sign,,,,,null,US_Cities_List/westpalmbeach.png,US_Cities_List/hotsprings.png,,,,,,,,,,,,,,,,,,
null,,black_cross(without_color),871608,,,yellow,,,,,null,US_Cities_List/westpalmbeach.png,US_Cities_List/hotsprings.png,,,,,,,,,,,,,,,,,,
null,,rt_plussign_withcolor,872124,,,yellow,,,,,null,US_Cities_List/westpalmbeach.png,US_Cities_List/hotsprings.png,,,,,,,,,,,,,,,,,,
1162.4000000953674,,rt_thecrossant_black,873716,,,black_plus_sign,,,,,50,,,1,0.9878048780487805,,,,,,,,,,,,,,,,
null,,color_black,873819,,,black_plus_sign,,,,,null,,,,,,,,,,,,,,,,,,,,
null,,learn_phase(without_color),876839,,,black_plus_sign,,,,,null,US_Cities_List/leesburg.png,US_Cities_List/hotsprings.png,,,,,,,,,,,,,,,,,,
null,,black_cross(without_color),877682,,,blue,,,,,null,US_Cities_List/leesburg.png,US_Cities_List/hotsprings.png,,,,,,,,,,,,,,,,,,
null,,rt_plussign_withcolor,878184,,,blue,,,,,null,US_Cities_List/leesburg.png,US_Cities_List/hotsprings.png,,,,,,,,,,,,,,,,,,
709.2999999523163,,rt_thecrossant_black,879350,,,black_plus_sign,,,,,49,,,1,0.9879518072289156,,,,,,,,,,,,,,,,
null,,color_black,879453,,,black_plus_sign,,,,,null,,,,,,,,,,,,,,,,,,,,
null,,learn_phase(without_color),882465,,,black_plus_sign,,,,,null,US_Cities_List/newhope.png,US_Cities_List/huntsville.png,,,,,,,,,,,,,,,,,,
null,,black_cross(without_color),883176,,,blue,,,,,null,US_Cities_List/newhope.png,US_Cities_List/huntsville.png,,,,,,,,,,,,,,,,,,
null,,rt_plussign_withcolor,883677,,,blue,,,,,null,US_Cities_List/newhope.png,US_Cities_List/huntsville.png,,,,,,,,,,,,,,,,,,
974,,rt_thecrossant_black,884972,,,black_plus_sign,,,,,49,,,1,0.9880952380952381,,,,,,,,,,,,,,,,
null,,color_black,885075,,,black_plus_sign,,,,,null,,,,,,,,,,,,,,,,,,,,
null,,learn_phase(without_color),888089,,,black_plus_sign,,,,,null,US_Cities_List/hotsprings.png,US_Cities_List/leesburg.png,,,,,,,,,,,,,,,,,,
null,,black_cross(without_color),888891,,,blue,,,,,null,US_Cities_List/hotsprings.png,US_Cities_List/leesburg.png,,,,,,,,,,,,,,,,,,
null,,rt_plussign_withcolor,889392,,,blue,,,,,null,US_Cities_List/hotsprings.png,US_Cities_List/leesburg.png,,,,,,,,,,,,,,,,,,
1111.5,,rt_thecrossant_black,890596,,,black_plus_sign,,,,,49,,,1,0.9882352941176471,,,,,,,,,,,,,,,,
null,,color_black,890699,,,black_plus_sign,,,,,null,,,,,,,,,,,,,,,,,,,,
null,,learn_phase(without_color),893716,,,black_plus_sign,,,,,null,US_Cities_List/racine.png,US_Cities_List/gatlinburg.png,,,,,,,,,,,,,,,,,,
null,,black_cross(without_color),894440,,,blue,,,,,null,US_Cities_List/racine.png,US_Cities_List/gatlinburg.png,,,,,,,,,,,,,,,,,,
null,,rt_plussign_withcolor,894942,,,blue,,,,,null,US_Cities_List/racine.png,US_Cities_List/gatlinburg.png,,,,,,,,,,,,,,,,,,
1169.7999999523163,,rt_thecrossant_black,896223,,,black_plus_sign,,,,,49,,,1,0.9883720930232558,,,,,,,,,,,,,,,,
null,,color_black,896326,,,black_plus_sign,,,,,null,,,,,,,,,,,,,,,,,,,,
null,,learn_phase(without_color),899343,,,black_plus_sign,,,,,null,US_Cities_List/westpalmbeach.png,US_Cities_List/newhope.png,,,,,,,,,,,,,,,,,,
null,,black_cross(without_color),899835,,,yellow,,,,,null,US_Cities_List/westpalmbeach.png,US_Cities_List/newhope.png,,,,,,,,,,,,,,,,,,
null,,rt_plussign_withcolor,900338,,,yellow,,,,,null,US_Cities_List/westpalmbeach.png,US_Cities_List/newhope.png,,,,,,,,,,,,,,,,,,
1044.0999999046326,,rt_thecrossant_black,901852,,,black_plus_sign,,,,,50,,,1,0.9885057471264368,,,,,,,,,,,,,,,,
null,,color_black,901955,,,black_plus_sign,,,,,null,,,,,,,,,,,,,,,,,,,,
null,,learn_phase(without_color),904973,,,black_plus_sign,,,,,null,US_Cities_List/boulder.png,US_Cities_List/peoria.png,,,,,,,,,,,,,,,,,,
null,,black_cross(without_color),905490,,,blue,,,,,null,US_Cities_List/boulder.png,US_Cities_List/peoria.png,,,,,,,,,,,,,,,,,,
null,,rt_plussign_withcolor,905991,,,blue,,,,,null,US_Cities_List/boulder.png,US_Cities_List/peoria.png,,,,,,,,,,,,,,,,,,
783.6000001430511,,rt_thecrossant_black,907479,,,black_plus_sign,,,,,49,,,1,0.9886363636363636,,,,,,,,,,,,,,,,
null,,color_black,907582,,,black_plus_sign,,,,,null,,,,,,,,,,,,,,,,,,,,
null,,learn_phase(without_color),910614,,,black_plus_sign,,,,,null,US_Cities_List/westpalmbeach.png,US_Cities_List/newhope.png,,,,,,,,,,,,,,,,,,
null,,black_cross(without_color),911118,,,yellow,,,,,null,US_Cities_List/westpalmbeach.png,US_Cities_List/newhope.png,,,,,,,,,,,,,,,,,,
null,,rt_plussign_withcolor,911620,,,yellow,,,,,null,US_Cities_List/westpalmbeach.png,US_Cities_List/newhope.png,,,,,,,,,,,,,,,,,,
872.1000001430511,,rt_thecrossant_black,913123,,,black_plus_sign,,,,,50,,,1,0.9887640449438202,,,,,,,,,,,,,,,,
null,,color_black,913226,,,black_plus_sign,,,,,null,,,,,,,,,,,,,,,,,,,,
null,,learn_phase(without_color),916244,,,black_plus_sign,,,,,null,US_Cities_List/shreveport.png,US_Cities_List/gatlinburg.png,,,,,,,,,,,,,,,,,,
null,,black_cross(without_color),916912,,,blue,,,,,null,US_Cities_List/shreveport.png,US_Cities_List/gatlinburg.png,,,,,,,,,,,,,,,,,,
null,,rt_plussign_withcolor,917414,,,blue,,,,,null,US_Cities_List/shreveport.png,US_Cities_List/gatlinburg.png,,,,,,,,,,,,,,,,,,
688.2999999523163,,rt_thecrossant_black,918753,,,black_plus_sign,,,,,49,,,1,0.9888888888888889,,,,,,,,,,,,,,,,
null,,color_black,918856,,,black_plus_sign,,,,,null,,,,,,,,,,,,,,,,,,,,
null,,learn_phase(without_color),921869,,,black_plus_sign,,,,,null,US_Cities_List/hotsprings.png,US_Cities_List/westpalmbeach.png,,,,,,,,,,,,,,,,,,
null,,black_cross(without_color),922345,,,yellow,,,,,null,US_Cities_List/hotsprings.png,US_Cities_List/westpalmbeach.png,,,,,,,,,,,,,,,,,,
null,,rt_plussign_withcolor,922848,,,yellow,,,,,null,US_Cities_List/hotsprings.png,US_Cities_List/westpalmbeach.png,,,,,,,,,,,,,,,,,,
1026.4000000953674,,rt_thecrossant_black,924379,,,black_plus_sign,,,,,50,,,1,0.989010989010989,,,,,,,,,,,,,,,,
null,,color_black,924487,,,black_plus_sign,,,,,null,,,,,,,,,,,,,,,,,,,,
null,,learn_phase(without_color),927504,,,black_plus_sign,,,,,null,US_Cities_List/peoria.png,US_Cities_List/carmel.png,,,,,,,,,,,,,,,,,,
null,,black_cross(without_color),928583,,,blue,,,,,null,US_Cities_List/peoria.png,US_Cities_List/carmel.png,,,,,,,,,,,,,,,,,,
497.40000009536743,,rt_plussign_withcolor,929085,,,blue,,,,,49,US_Cities_List/peoria.png,US_Cities_List/carmel.png,,,,,,,,,,,,,,,,,,
null,,rt_thecrossant_black,930012,,,black_plus_sign,,,,,null,,,1,0.9891304347826086,,,,,,,,,,,,,,,,
null,,color_black,930116,,,black_plus_sign,,,,,null,,,,,,,,,,,,,,,,,,,,
null,,learn_phase(without_color),933136,,,black_plus_sign,,,,,null,US_Cities_List/peoria.png,US_Cities_List/gatlinburg.png,,,,,,,,,,,,,,,,,,
null,,black_cross(without_color),934149,,,blue,,,,,null,US_Cities_List/peoria.png,US_Cities_List/gatlinburg.png,,,,,,,,,,,,,,,,,,
null,,rt_plussign_withcolor,934651,,,blue,,,,,null,US_Cities_List/peoria.png,US_Cities_List/gatlinburg.png,,,,,,,,,,,,,,,,,,
1381.5999999046326,,rt_thecrossant_black,935644,,,black_plus_sign,,,,,49,,,1,0.989247311827957,,,,,,,,,,,,,,,,
null,,color_black,935747,,,black_plus_sign,,,,,null,,,,,,,,,,,,,,,,,,,,
null,,learn_phase(without_color),938761,,,black_plus_sign,,,,,null,US_Cities_List/westpalmbeach.png,US_Cities_List/hotsprings.png,,,,,,,,,,,,,,,,,,
null,,black_cross(without_color),939496,,,blue,,,,,null,US_Cities_List/westpalmbeach.png,US_Cities_List/hotsprings.png,,,,,,,,,,,,,,,,,,
null,,rt_plussign_withcolor,939999,,,blue,,,,,null,US_Cities_List/westpalmbeach.png,US_Cities_List/hotsprings.png,,,,,,,,,,,,,,,,,,
1364.7999999523163,,rt_thecrossant_black,941276,,,black_plus_sign,,,,,49,,,1,0.9893617021276596,,,,,,,,,,,,,,,,
null,,color_black,941378,,,black_plus_sign,,,,,null,,,,,,,,,,,,,,,,,,,,
null,,learn_phase(without_color),944399,,,black_plus_sign,,,,,null,US_Cities_List/boulder.png,US_Cities_List/gatlinburg.png,,,,,,,,,,,,,,,,,,
null,,black_cross(without_color),945488,,,yellow,,,,,null,US_Cities_List/boulder.png,US_Cities_List/gatlinburg.png,,,,,,,,,,,,,,,,,,
null,,rt_plussign_withcolor,945992,,,yellow,,,,,null,US_Cities_List/boulder.png,US_Cities_List/gatlinburg.png,,,,,,,,,,,,,,,,,,
1094.1000001430511,,rt_thecrossant_black,946907,,,black_plus_sign,,,,,50,,,1,0.9894736842105263,,,,,,,,,,,,,,,,
null,,color_black,947019,,,black_plus_sign,,,,,null,,,,,,,,,,,,,,,,,,,,
null,,learn_phase(without_color),950037,,,black_plus_sign,,,,,null,US_Cities_List/peoria.png,US_Cities_List/carmel.png,,,,,,,,,,,,,,,,,,
null,,black_cross(without_color),951033,,,blue,,,,,null,US_Cities_List/peoria.png,US_Cities_List/carmel.png,,,,,,,,,,,,,,,,,,
414.90000009536743,,rt_plussign_withcolor,951535,,,blue,,,,,49,US_Cities_List/peoria.png,US_Cities_List/carmel.png,,,,,,,,,,,,,,,,,,
null,,rt_thecrossant_black,952550,,,black_plus_sign,,,,,null,,,1,0.9895833333333334,,,,,,,,,,,,,,,,
null,,color_black,952656,,,black_plus_sign,,,,,null,,,,,,,,,,,,,,,,,,,,
null,,learn_phase(without_color),955679,,,black_plus_sign,,,,,null,US_Cities_List/gatlinburg.png,US_Cities_List/racine.png,,,,,,,,,,,,,,,,,,
null,,black_cross(without_color),956654,,,yellow,,,,,null,US_Cities_List/gatlinburg.png,US_Cities_List/racine.png,,,,,,,,,,,,,,,,,,
null,,rt_plussign_withcolor,957156,,,yellow,,,,,null,US_Cities_List/gatlinburg.png,US_Cities_List/racine.png,,,,,,,,,,,,,,,,,,
1316,,rt_thecrossant_black,958187,,,black_plus_sign,,,,,50,,,1,0.9896907216494846,,,,,,,,,,,,,,,,
null,,color_black,958291,,,black_plus_sign,,,,,null,,,,,,,,,,,,,,,,,,,,
null,,learn_phase(without_color),961305,,,black_plus_sign,,,,,null,US_Cities_List/newhope.png,US_Cities_List/huntsville.png,,,,,,,,,,,,,,,,,,
null,,black_cross(without_color),962279,,,blue,,,,,null,US_Cities_List/newhope.png,US_Cities_List/huntsville.png,,,,,,,,,,,,,,,,,,
null,,rt_plussign_withcolor,962781,,,blue,,,,,null,US_Cities_List/newhope.png,US_Cities_List/huntsville.png,,,,,,,,,,,,,,,,,,
1646.1999998092651,,rt_thecrossant_black,963812,,,black_plus_sign,,,,,49,,,1,0.9897959183673469,,,,,,,,,,,,,,,,
null,,color_black,963915,,,black_plus_sign,,,,,null,,,,,,,,,,,,,,,,,,,,
null,,learn_phase(without_color),966928,,,black_plus_sign,,,,,null,US_Cities_List/boulder.png,US_Cities_List/shreveport.png,,,,,,,,,,,,,,,,,,
null,,black_cross(without_color),967568,,,yellow,,,,,null,US_Cities_List/boulder.png,US_Cities_List/shreveport.png,,,,,,,,,,,,,,,,,,
null,,rt_plussign_withcolor,968070,,,yellow,,,,,null,US_Cities_List/boulder.png,US_Cities_List/shreveport.png,,,,,,,,,,,,,,,,,,
1350.2999999523163,,rt_thecrossant_black,969437,,,black_plus_sign,,,,,50,,,1,0.98989898989899,,,,,,,,,,,,,,,,
null,,color_black,969541,,,black_plus_sign,,,,,null,,,,,,,,,,,,,,,,,,,,
null,,learn_phase(without_color),972558,,,black_plus_sign,,,,,null,US_Cities_List/peoria.png,US_Cities_List/gatlinburg.png,,,,,,,,,,,,,,,,,,
null,,black_cross(without_color),973130,,,blue,,,,,null,US_Cities_List/peoria.png,US_Cities_List/gatlinburg.png,,,,,,,,,,,,,,,,,,
null,,rt_plussign_withcolor,973632,,,blue,,,,,null,US_Cities_List/peoria.png,US_Cities_List/gatlinburg.png,,,,,,,,,,,,,,,,,,
964,,rt_thecrossant_black,975076,,,black_plus_sign,,,,,49,,,1,0.99,,,,,,,,,,,,,,,,
null,,color_black,975179,,,black_plus_sign,,,,,null,,,,,,,,,,,,,,,,,,,,
null,,learn_phase(without_color),978199,,,black_plus_sign,,,,,null,US_Cities_List/huntsville.png,US_Cities_List/leesburg.png,,,,,,,,,,,,,,,,,,
null,,black_cross(without_color),978807,,,blue,,,,,null,US_Cities_List/huntsville.png,US_Cities_List/leesburg.png,,,,,,,,,,,,,,,,,,
null,,rt_plussign_withcolor,979309,,,blue,,,,,null,US_Cities_List/huntsville.png,US_Cities_List/leesburg.png,,,,,,,,,,,,,,,,,,
938.7999999523163,,rt_thecrossant_black,980709,,,black_plus_sign,,,,,49,,,1,0.9900990099009901,,,,,,,,,,,,,,,,
null,,color_black,980822,,,black_plus_sign,,,,,null,,,,,,,,,,,,,,,,,,,,
null,,learn_phase(without_color),983847,,,black_plus_sign,,,,,null,US_Cities_List/gatlinburg.png,US_Cities_List/racine.png,,,,,,,,,,,,,,,,,,
null,,black_cross(without_color),984614,,,blue,,,,,null,US_Cities_List/gatlinburg.png,US_Cities_List/racine.png,,,,,,,,,,,,,,,,,,
null,,rt_plussign_withcolor,985116,,,blue,,,,,null,US_Cities_List/gatlinburg.png,US_Cities_List/racine.png,,,,,,,,,,,,,,,,,,
1004.2999999523163,,rt_thecrossant_black,986355,,,black_plus_sign,,,,,49,,,1,0.9901960784313726,,,,,,,,,,,,,,,,
null,,color_black,986458,,,black_plus_sign,,,,,null,,,,,,,,,,,,,,,,,,,,
null,,learn_phase(without_color),989474,,,black_plus_sign,,,,,null,US_Cities_List/westpalmbeach.png,US_Cities_List/hotsprings.png,,,,,,,,,,,,,,,,,,
null,,black_cross(without_color),990337,,,blue,,,,,null,US_Cities_List/westpalmbeach.png,US_Cities_List/hotsprings.png,,,,,,,,,,,,,,,,,,
null,,rt_plussign_withcolor,990839,,,blue,,,,,null,US_Cities_List/westpalmbeach.png,US_Cities_List/hotsprings.png,,,,,,,,,,,,,,,,,,
1095.8999998569489,,rt_thecrossant_black,991983,,,black_plus_sign,,,,,49,,,1,0.9902912621359223,,,,,,,,,,,,,,,,
null,,color_black,992086,,,black_plus_sign,,,,,null,,,,,,,,,,,,,,,,,,,,
null,,learn_phase(without_color),995110,,,black_plus_sign,,,,,null,US_Cities_List/westpalmbeach.png,US_Cities_List/cornwall.png,,,,,,,,,,,,,,,,,,
null,,black_cross(without_color),995609,,,blue,,,,,null,US_Cities_List/westpalmbeach.png,US_Cities_List/cornwall.png,,,,,,,,,,,,,,,,,,
null,,rt_plussign_withcolor,996112,,,blue,,,,,null,US_Cities_List/westpalmbeach.png,US_Cities_List/cornwall.png,,,,,,,,,,,,,,,,,,
1166.0999999046326,,rt_thecrossant_black,997619,,,black_plus_sign,,,,,49,,,1,0.9903846153846154,,,,,,,,,,,,,,,,
null,,color_black,997721,,,black_plus_sign,,,,,null,,,,,,,,,,,,,,,,,,,,
null,,learn_phase(without_color),1000738,,,black_plus_sign,,,,,null,US_Cities_List/hotsprings.png,US_Cities_List/hanover.png,,,,,,,,,,,,,,,,,,
null,,black_cross(without_color),1001741,,,blue,,,,,null,US_Cities_List/hotsprings.png,US_Cities_List/hanover.png,,,,,,,,,,,,,,,,,,
null,,rt_plussign_withcolor,1002244,,,blue,,,,,null,US_Cities_List/hotsprings.png,US_Cities_List/hanover.png,,,,,,,,,,,,,,,,,,
917.7000000476837,,rt_thecrossant_black,1003249,,,black_plus_sign,,,,,49,,,1,0.9904761904761905,,,,,,,,,,,,,,,,
null,,color_black,1003353,,,black_plus_sign,,,,,null,,,,,,,,,,,,,,,,,,,,
null,,learn_phase(without_color),1006367,,,black_plus_sign,,,,,null,US_Cities_List/peoria.png,US_Cities_List/carmel.png,,,,,,,,,,,,,,,,,,
null,,black_cross(without_color),1007408,,,yellow,,,,,null,US_Cities_List/peoria.png,US_Cities_List/carmel.png,,,,,,,,,,,,,,,,,,
373.2000000476837,,rt_plussign_withcolor,1007911,,,yellow,,,,,50,US_Cities_List/peoria.png,US_Cities_List/carmel.png,,,,,,,,,,,,,,,,,,
null,,rt_thecrossant_black,1008876,,,black_plus_sign,,,,,null,,,1,0.9905660377358491,,,,,,,,,,,,,,,,
null,,color_black,1008979,,,black_plus_sign,,,,,null,,,,,,,,,,,,,,,,,,,,
null,,learn_phase(without_color),1012000,,,black_plus_sign,,,,,null,US_Cities_List/newhope.png,US_Cities_List/shreveport.png,,,,,,,,,,,,,,,,,,
null,,black_cross(without_color),1012726,,,blue,,,,,null,US_Cities_List/newhope.png,US_Cities_List/shreveport.png,,,,,,,,,,,,,,,,,,
348.7999999523163,,rt_plussign_withcolor,1013228,,,blue,,,,,49,US_Cities_List/newhope.png,US_Cities_List/shreveport.png,,,,,,,,,,,,,,,,,,
null,,rt_thecrossant_black,1014508,,,black_plus_sign,,,,,null,,,1,0.9906542056074766,,,,,,,,,,,,,,,,
null,,color_black,1014610,,,black_plus_sign,,,,,null,,,,,,,,,,,,,,,,,,,,
null,,learn_phase(without_color),1017630,,,black_plus_sign,,,,,null,US_Cities_List/newhope.png,US_Cities_List/westpalmbeach.png,,,,,,,,,,,,,,,,,,
null,,black_cross(without_color),1018550,,,blue,,,,,null,US_Cities_List/newhope.png,US_Cities_List/westpalmbeach.png,,,,,,,,,,,,,,,,,,
378.5,,rt_plussign_withcolor,1019063,,,blue,,,,,49,US_Cities_List/newhope.png,US_Cities_List/westpalmbeach.png,,,,,,,,,,,,,,,,,,
null,,rt_thecrossant_black,1020148,,,black_plus_sign,,,,,null,,,1,0.9907407407407407,,,,,,,,,,,,,,,,
null,,color_black,1020251,,,black_plus_sign,,,,,null,,,,,,,,,,,,,,,,,,,,
null,,learn_phase(without_color),1023268,,,black_plus_sign,,,,,null,US_Cities_List/newhope.png,US_Cities_List/huntsville.png,,,,,,,,,,,,,,,,,,
null,,black_cross(without_color),1024287,,,blue,,,,,null,US_Cities_List/newhope.png,US_Cities_List/huntsville.png,,,,,,,,,,,,,,,,,,
340.2000000476837,,rt_plussign_withcolor,1024790,,,blue,,,,,49,US_Cities_List/newhope.png,US_Cities_List/huntsville.png,,,,,,,,,,,,,,,,,,
null,,rt_thecrossant_black,1025776,,,black_plus_sign,,,,,null,,,1,0.9908256880733946,,,,,,,,,,,,,,,,
null,,color_black,1025886,,,black_plus_sign,,,,,null,,,,,,,,,,,,,,,,,,,,
null,,learn_phase(without_color),1028905,,,black_plus_sign,,,,,null,US_Cities_List/hanover.png,US_Cities_List/hotsprings.png,,,,,,,,,,,,,,,,,,
null,,black_cross(without_color),1029974,,,yellow,,,,,null,US_Cities_List/hanover.png,US_Cities_List/hotsprings.png,,,,,,,,,,,,,,,,,,
null,,rt_plussign_withcolor,1030476,,,yellow,,,,,null,US_Cities_List/hanover.png,US_Cities_List/hotsprings.png,,,,,,,,,,,,,,,,,,
1425.2999999523163,,rt_thecrossant_black,1031413,,,black_plus_sign,,,,,50,,,1,0.990909090909091,,,,,,,,,,,,,,,,
null,,color_black,1031516,,,black_plus_sign,,,,,null,,,,,,,,,,,,,,,,,,,,
null,,learn_phase(without_color),1034534,,,black_plus_sign,,,,,null,US_Cities_List/newhope.png,US_Cities_List/huntsville.png,,,,,,,,,,,,,,,,,,
null,,black_cross(without_color),1035241,,,yellow,,,,,null,US_Cities_List/newhope.png,US_Cities_List/huntsville.png,,,,,,,,,,,,,,,,,,
null,,rt_plussign_withcolor,1035743,,,yellow,,,,,null,US_Cities_List/newhope.png,US_Cities_List/huntsville.png,,,,,,,,,,,,,,,,,,
1479.0999999046326,,rt_thecrossant_black,1037042,,,black_plus_sign,,,,,50,,,1,0.990990990990991,,,,,,,,,,,,,,,,
null,,color_black,1037145,,,black_plus_sign,,,,,null,,,,,,,,,,,,,,,,,,,,
null,,learn_phase(without_color),1040161,,,black_plus_sign,,,,,null,US_Cities_List/shreveport.png,US_Cities_List/newhope.png,,,,,,,,,,,,,,,,,,
null,,black_cross(without_color),1041057,,,blue,,,,,null,US_Cities_List/shreveport.png,US_Cities_List/newhope.png,,,,,,,,,,,,,,,,,,
null,,rt_plussign_withcolor,1041559,,,blue,,,,,null,US_Cities_List/shreveport.png,US_Cities_List/newhope.png,,,,,,,,,,,,,,,,,,
1087.3999998569489,,rt_thecrossant_black,1042669,,,black_plus_sign,,,,,49,,,1,0.9910714285714286,,,,,,,,,,,,,,,,
null,,color_black,1042773,,,black_plus_sign,,,,,null,,,,,,,,,,,,,,,,,,,,
null,,learn_phase(without_color),1045787,,,black_plus_sign,,,,,null,US_Cities_List/shreveport.png,US_Cities_List/gatlinburg.png,,,,,,,,,,,,,,,,,,
null,,black_cross(without_color),1046769,,,blue,,,,,null,US_Cities_List/shreveport.png,US_Cities_List/gatlinburg.png,,,,,,,,,,,,,,,,,,
null,,rt_plussign_withcolor,1047271,,,blue,,,,,null,US_Cities_List/shreveport.png,US_Cities_List/gatlinburg.png,,,,,,,,,,,,,,,,,,
1303,,rt_thecrossant_black,1048307,,,black_plus_sign,,,,,49,,,1,0.9911504424778761,,,,,,,,,,,,,,,,
null,,color_black,1048409,,,black_plus_sign,,,,,null,,,,,,,,,,,,,,,,,,,,
null,,learn_phase(without_color),1051441,,,black_plus_sign,,,,,null,US_Cities_List/shreveport.png,US_Cities_List/newhope.png,,,,,,,,,,,,,,,,,,
null,,black_cross(without_color),1052037,,,blue,,,,,null,US_Cities_List/shreveport.png,US_Cities_List/newhope.png,,,,,,,,,,,,,,,,,,
null,,rt_plussign_withcolor,1052540,,,blue,,,,,null,US_Cities_List/shreveport.png,US_Cities_List/newhope.png,,,,,,,,,,,,,,,,,,
1358.2999999523163,,rt_thecrossant_black,1053950,,,black_plus_sign,,,,,49,,,1,0.9912280701754386,,,,,,,,,,,,,,,,
null,,color_black,1054053,,,black_plus_sign,,,,,null,,,,,,,,,,,,,,,,,,,,
null,,learn_phase(without_color),1057077,,,black_plus_sign,,,,,null,US_Cities_List/cornwall.png,US_Cities_List/westpalmbeach.png,,,,,,,,,,,,,,,,,,
null,,black_cross(without_color),1057784,,,blue,,,,,null,US_Cities_List/cornwall.png,US_Cities_List/westpalmbeach.png,,,,,,,,,,,,,,,,,,
391,,rt_plussign_withcolor,1058286,,,blue,,,,,49,US_Cities_List/cornwall.png,US_Cities_List/westpalmbeach.png,,,,,,,,,,,,,,,,,,
null,,rt_thecrossant_black,1059585,,,black_plus_sign,,,,,null,,,1,0.991304347826087,,,,,,,,,,,,,,,,
null,,color_black,1059688,,,black_plus_sign,,,,,null,,,,,,,,,,,,,,,,,,,,
null,,learn_phase(without_color),1062703,,,black_plus_sign,,,,,null,US_Cities_List/shreveport.png,US_Cities_List/boulder.png,,,,,,,,,,,,,,,,,,
null,,black_cross(without_color),1063788,,,yellow,,,,,null,US_Cities_List/shreveport.png,US_Cities_List/boulder.png,,,,,,,,,,,,,,,,,,
null,,rt_plussign_withcolor,1064290,,,yellow,,,,,null,US_Cities_List/shreveport.png,US_Cities_List/boulder.png,,,,,,,,,,,,,,,,,,
1062.2000000476837,,rt_thecrossant_black,1065211,,,black_plus_sign,,,,,50,,,1,0.9913793103448276,,,,,,,,,,,,,,,,
null,,color_black,1065314,,,black_plus_sign,,,,,null,,,,,,,,,,,,,,,,,,,,
null,,learn_phase(without_color),1068333,,,black_plus_sign,,,,,null,US_Cities_List/shreveport.png,US_Cities_List/newhope.png,,,,,,,,,,,,,,,,,,
null,,black_cross(without_color),1069149,,,yellow,,,,,null,US_Cities_List/shreveport.png,US_Cities_List/newhope.png,,,,,,,,,,,,,,,,,,
null,,rt_plussign_withcolor,1069651,,,yellow,,,,,null,US_Cities_List/shreveport.png,US_Cities_List/newhope.png,,,,,,,,,,,,,,,,,,
1466.6999998092651,,rt_thecrossant_black,1070841,,,black_plus_sign,,,,,50,,,1,0.9914529914529915,,,,,,,,,,,,,,,,
null,,color_black,1070943,,,black_plus_sign,,,,,null,,,,,,,,,,,,,,,,,,,,
null,,learn_phase(without_color),1073961,,,black_plus_sign,,,,,null,US_Cities_List/gatlinburg.png,US_Cities_List/shreveport.png,,,,,,,,,,,,,,,,,,
null,,black_cross(without_color),1074882,,,blue,,,,,null,US_Cities_List/gatlinburg.png,US_Cities_List/shreveport.png,,,,,,,,,,,,,,,,,,
null,,rt_plussign_withcolor,1075384,,,blue,,,,,null,US_Cities_List/gatlinburg.png,US_Cities_List/shreveport.png,,,,,,,,,,,,,,,,,,
1173,,rt_thecrossant_black,1076469,,,black_plus_sign,,,,,49,,,1,0.9915254237288136,,,,,,,,,,,,,,,,
null,,color_black,1076572,,,black_plus_sign,,,,,null,,,,,,,,,,,,,,,,,,,,
null,,learn_phase(without_color),1079592,,,black_plus_sign,,,,,null,US_Cities_List/shreveport.png,US_Cities_List/boulder.png,,,,,,,,,,,,,,,,,,
null,,black_cross(without_color),1080307,,,blue,,,,,null,US_Cities_List/shreveport.png,US_Cities_List/boulder.png,,,,,,,,,,,,,,,,,,
null,,rt_plussign_withcolor,1080809,,,blue,,,,,null,US_Cities_List/shreveport.png,US_Cities_List/boulder.png,,,,,,,,,,,,,,,,,,
1316.9000000953674,,rt_thecrossant_black,1082100,,,black_plus_sign,,,,,49,,,1,0.9915966386554622,,,,,,,,,,,,,,,,
null,,color_black,1082202,,,black_plus_sign,,,,,null,,,,,,,,,,,,,,,,,,,,
null,,learn_phase(without_color),1085217,,,black_plus_sign,,,,,null,US_Cities_List/hotsprings.png,US_Cities_List/hanover.png,,,,,,,,,,,,,,,,,,
null,,black_cross(without_color),1085636,,,blue,,,,,null,US_Cities_List/hotsprings.png,US_Cities_List/hanover.png,,,,,,,,,,,,,,,,,,
null,,rt_plussign_withcolor,1086138,,,blue,,,,,null,US_Cities_List/hotsprings.png,US_Cities_List/hanover.png,,,,,,,,,,,,,,,,,,
1065.8999998569489,,rt_thecrossant_black,1087725,,,black_plus_sign,,,,,49,,,1,0.9916666666666667,,,,,,,,,,,,,,,,
null,,color_black,1087828,,,black_plus_sign,,,,,null,,,,,,,,,,,,,,,,,,,,
null,,learn_phase(without_color),1090844,,,black_plus_sign,,,,,null,US_Cities_List/peoria.png,US_Cities_List/gatlinburg.png,,,,,,,,,,,,,,,,,,
null,,black_cross(without_color),1091659,,,blue,,,,,null,US_Cities_List/peoria.png,US_Cities_List/gatlinburg.png,,,,,,,,,,,,,,,,,,
454.39999985694885,,rt_plussign_withcolor,1092162,,,blue,,,,,49,US_Cities_List/peoria.png,US_Cities_List/gatlinburg.png,,,,,,,,,,,,,,,,,,
null,,rt_thecrossant_black,1093354,,,black_plus_sign,,,,,null,,,1,0.9917355371900827,,,,,,,,,,,,,,,,
null,,color_black,1093457,,,black_plus_sign,,,,,null,,,,,,,,,,,,,,,,,,,,
null,,learn_phase(without_color),1096471,,,black_plus_sign,,,,,null,US_Cities_List/hanover.png,US_Cities_List/hotsprings.png,,,,,,,,,,,,,,,,,,
null,,black_cross(without_color),1097147,,,yellow,,,,,null,US_Cities_List/hanover.png,US_Cities_List/hotsprings.png,,,,,,,,,,,,,,,,,,
443,,rt_plussign_withcolor,1097650,,,yellow,,,,,50,US_Cities_List/hanover.png,US_Cities_List/hotsprings.png,,,,,,,,,,,,,,,,,,
null,,rt_thecrossant_black,1098981,,,black_plus_sign,,,,,null,,,1,0.9918032786885246,,,,,,,,,,,,,,,,
null,,color_black,1099084,,,black_plus_sign,,,,,null,,,,,,,,,,,,,,,,,,,,
null,,learn_phase(without_color),1102105,,,black_plus_sign,,,,,null,US_Cities_List/carmel.png,US_Cities_List/peoria.png,,,,,,,,,,,,,,,,,,
null,,black_cross(without_color),1103076,,,yellow,,,,,null,US_Cities_List/carmel.png,US_Cities_List/peoria.png,,,,,,,,,,,,,,,,,,
null,,rt_plussign_withcolor,1103578,,,yellow,,,,,null,US_Cities_List/carmel.png,US_Cities_List/peoria.png,,,,,,,,,,,,,,,,,,
1025.7000000476837,,rt_thecrossant_black,1104613,,,black_plus_sign,,,,,50,,,1,0.991869918699187,,,,,,,,,,,,,,,,
null,,color_black,1104716,,,black_plus_sign,,,,,null,,,,,,,,,,,,,,,,,,,,
null,,learn_phase(without_color),1107732,,,black_plus_sign,,,,,null,US_Cities_List/gatlinburg.png,US_Cities_List/shreveport.png,,,,,,,,,,,,,,,,,,
null,,black_cross(without_color),1108813,,,blue,,,,,null,US_Cities_List/gatlinburg.png,US_Cities_List/shreveport.png,,,,,,,,,,,,,,,,,,
477.2000000476837,,rt_plussign_withcolor,1109315,,,blue,,,,,49,US_Cities_List/gatlinburg.png,US_Cities_List/shreveport.png,,,,,,,,,,,,,,,,,,
null,,rt_thecrossant_black,1110240,,,black_plus_sign,,,,,null,,,1,0.9919354838709677,,,,,,,,,,,,,,,,
null,,color_black,1110344,,,black_plus_sign,,,,,null,,,,,,,,,,,,,,,,,,,,
null,,learn_phase(without_color),1113359,,,black_plus_sign,,,,,null,US_Cities_List/shreveport.png,US_Cities_List/boulder.png,,,,,,,,,,,,,,,,,,
null,,black_cross(without_color),1114375,,,yellow,,,,,null,US_Cities_List/shreveport.png,US_Cities_List/boulder.png,,,,,,,,,,,,,,,,,,
null,,rt_plussign_withcolor,1114878,,,yellow,,,,,null,US_Cities_List/shreveport.png,US_Cities_List/boulder.png,,,,,,,,,,,,,,,,,,
1331.7000000476837,,rt_thecrossant_black,1115869,,,black_plus_sign,,,,,50,,,1,0.992,,,,,,,,,,,,,,,,
null,,color_black,1115973,,,black_plus_sign,,,,,null,,,,,,,,,,,,,,,,,,,,
null,,learn_phase(without_color),1118988,,,black_plus_sign,,,,,null,US_Cities_List/gatlinburg.png,US_Cities_List/boulder.png,,,,,,,,,,,,,,,,,,
null,,black_cross(without_color),1119538,,,yellow,,,,,null,US_Cities_List/gatlinburg.png,US_Cities_List/boulder.png,,,,,,,,,,,,,,,,,,
null,,rt_plussign_withcolor,1120041,,,yellow,,,,,null,US_Cities_List/gatlinburg.png,US_Cities_List/boulder.png,,,,,,,,,,,,,,,,,,
1388.7999999523163,,rt_thecrossant_black,1121498,,,black_plus_sign,,,,,50,,,1,0.9920634920634921,,,,,,,,,,,,,,,,
null,,color_black,1121601,,,black_plus_sign,,,,,null,,,,,,,,,,,,,,,,,,,,
null,,learn_phase(without_color),1124622,,,black_plus_sign,,,,,null,US_Cities_List/hotsprings.png,US_Cities_List/westpalmbeach.png,,,,,,,,,,,,,,,,,,
null,,black_cross(without_color),1125032,,,blue,,,,,null,US_Cities_List/hotsprings.png,US_Cities_List/westpalmbeach.png,,,,,,,,,,,,,,,,,,
404.7000000476837,,rt_plussign_withcolor,1125533,,,blue,,,,,49,US_Cities_List/hotsprings.png,US_Cities_List/westpalmbeach.png,,,,,,,,,,,,,,,,,,
null,,rt_thecrossant_black,1127130,,,black_plus_sign,,,,,null,,,1,0.9921259842519685,,,,,,,,,,,,,,,,
null,,color_black,1127232,,,black_plus_sign,,,,,null,,,,,,,,,,,,,,,,,,,,
47843.299999952316,,learn_break,1175079,,,learn_break,,,,,32,,,,,,,,,,,,,,,,,,,,
11315.099999904633,,intro_1,1186396,,,instruct,,,0,,,,,,,,,,,,,,,,,,,,,,
43335.40000009537,,intro_2,1229734,,,instruct,,,1,Next,,,,,,,,,,,,,,,,,,,,,
null,,directmemory_phase,1236268,,,../static/images/US_Cities_List/shreveport.png,,,,,null,,,0,0,../static/images/US_Cities_List/newhope.png,../static/images/US_Cities_List/hotsprings.png,../static/images/US_Cities_List/peoria.png,../static/images/US_Cities_List/newhope.png,../static/images/US_Cities_List/peoria.png,../static/images/US_Cities_List/hotsprings.png,0,,,,,,,,,
null,,warning_page,1239275,,,warning,,,,,null,,,,,,,,,,,,,,,,,,,,
null,,html-keyboard-response,1240276,,,<p></p>,,,,,null,,,,,,,,,,,,,,,,,,,,
6217.400000095367,,directmemory_phase,1246525,,,../static/images/US_Cities_List/westpalmbeach.png,,,,,49,,,1,0.5,../static/images/US_Cities_List/cornwall.png,../static/images/US_Cities_List/peoria.png,../static/images/US_Cities_List/hanover.png,../static/images/US_Cities_List/cornwall.png,../static/images/US_Cities_List/hanover.png,../static/images/US_Cities_List/peoria.png,1,,,,,,,,,
null,,html-keyboard-response,1247540,,,<p></p>,,,,,null,,,,,,,,,,,,,,,,,,,,
3355.899999856949,,directmemory_phase,1250919,,,../static/images/US_Cities_List/huntsville.png,,,,,51,,,1,0.6666666666666666,../static/images/US_Cities_List/racine.png,../static/images/US_Cities_List/shreveport.png,../static/images/US_Cities_List/boulder.png,../static/images/US_Cities_List/boulder.png,../static/images/US_Cities_List/shreveport.png,../static/images/US_Cities_List/racine.png,1,,,,,,,,,
null,,html-keyboard-response,1251924,,,<p></p>,,,,,null,,,,,,,,,,,,,,,,,,,,
2003.8999998569489,,directmemory_phase,1253948,,,../static/images/US_Cities_List/westpalmbeach.png,,,,,50,,,0,0.5,../static/images/US_Cities_List/newhope.png,../static/images/US_Cities_List/boulder.png,../static/images/US_Cities_List/huntsville.png,../static/images/US_Cities_List/newhope.png,../static/images/US_Cities_List/huntsville.png,../static/images/US_Cities_List/boulder.png,0.5,closer,,,,,,,,
null,,html-keyboard-response,1254955,,,<p></p>,,,,,null,,,,,,,,,,,,,,,,,,,,
1599.8999998569489,,directmemory_phase,1256578,,,../static/images/US_Cities_List/leesburg.png,,,,,49,,,1,0.6,../static/images/US_Cities_List/huntsville.png,../static/images/US_Cities_List/shreveport.png,../static/images/US_Cities_List/boulder.png,../static/images/US_Cities_List/huntsville.png,../static/images/US_Cities_List/boulder.png,../static/images/US_Cities_List/shreveport.png,1,,,,,,,,,
null,,html-keyboard-response,1257582,,,<p></p>,,,,,null,,,,,,,,,,,,,,,,,,,,
2737,,directmemory_phase,1260354,,,../static/images/US_Cities_List/gatlinburg.png,,,,,49,,,1,0.6666666666666666,../static/images/US_Cities_List/shreveport.png,../static/images/US_Cities_List/cornwall.png,../static/images/US_Cities_List/newhope.png,../static/images/US_Cities_List/shreveport.png,../static/images/US_Cities_List/newhope.png,../static/images/US_Cities_List/cornwall.png,1,,,,,,,,,
null,,html-keyboard-response,1261359,,,<p></p>,,,,,null,,,,,,,,,,,,,,,,,,,,
1926.7999999523163,,directmemory_phase,1263312,,,../static/images/US_Cities_List/hotsprings.png,,,,,49,,,0,0.5714285714285714,../static/images/US_Cities_List/peoria.png,../static/images/US_Cities_List/huntsville.png,../static/images/US_Cities_List/leesburg.png,../static/images/US_Cities_List/leesburg.png,../static/images/US_Cities_List/huntsville.png,../static/images/US_Cities_List/peoria.png,0.5,closer,,,,,,,,
null,,html-keyboard-response,1264317,,,<p></p>,,,,,null,,,,,,,,,,,,,,,,,,,,
2097.7000000476837,,directmemory_phase,1266447,,,../static/images/US_Cities_List/newhope.png,,,,,51,,,1,0.625,../static/images/US_Cities_List/racine.png,../static/images/US_Cities_List/gatlinburg.png,../static/images/US_Cities_List/huntsville.png,../static/images/US_Cities_List/huntsville.png,../static/images/US_Cities_List/gatlinburg.png,../static/images/US_Cities_List/racine.png,1,,,,,,,,,
null,,html-keyboard-response,1267453,,,<p></p>,,,,,null,,,,,,,,,,,,,,,,,,,,
1531.2999999523163,,directmemory_phase,1269011,,,../static/images/US_Cities_List/peoria.png,,,,,50,,,1,0.6666666666666666,../static/images/US_Cities_List/racine.png,../static/images/US_Cities_List/carmel.png,../static/images/US_Cities_List/leesburg.png,../static/images/US_Cities_List/carmel.png,../static/images/US_Cities_List/racine.png,../static/images/US_Cities_List/leesburg.png,1,,,,,,,,,
null,,html-keyboard-response,1270018,,,<p></p>,,,,,null,,,,,,,,,,,,,,,,,,,,
1496.7999999523163,,directmemory_phase,1271535,,,../static/images/US_Cities_List/huntsville.png,,,,,49,,,1,0.7,../static/images/US_Cities_List/leesburg.png,../static/images/US_Cities_List/hanover.png,../static/images/US_Cities_List/hotsprings.png,../static/images/US_Cities_List/leesburg.png,../static/images/US_Cities_List/hotsprings.png,../static/images/US_Cities_List/hanover.png,1,,,,,,,,,
null,,html-keyboard-response,1272541,,,<p></p>,,,,,null,,,,,,,,,,,,,,,,,,,,
1640.2000000476837,,directmemory_phase,1274210,,,../static/images/US_Cities_List/hanover.png,,,,,51,,,1,0.7272727272727273,../static/images/US_Cities_List/newhope.png,../static/images/US_Cities_List/leesburg.png,../static/images/US_Cities_List/hotsprings.png,../static/images/US_Cities_List/hotsprings.png,../static/images/US_Cities_List/leesburg.png,../static/images/US_Cities_List/newhope.png,1,,,,,,,,,
null,,html-keyboard-response,1275216,,,<p></p>,,,,,null,,,,,,,,,,,,,,,,,,,,
2641.2999999523163,,directmemory_phase,1277889,,,../static/images/US_Cities_List/newhope.png,,,,,50,,,1,0.75,../static/images/US_Cities_List/hotsprings.png,../static/images/US_Cities_List/westpalmbeach.png,../static/images/US_Cities_List/hanover.png,../static/images/US_Cities_List/westpalmbeach.png,../static/images/US_Cities_List/hotsprings.png,../static/images/US_Cities_List/hanover.png,1,,,,,,,,,
null,,html-keyboard-response,1278896,,,<p></p>,,,,,null,,,,,,,,,,,,,,,,,,,,
2644.699999809265,,directmemory_phase,1281566,,,../static/images/US_Cities_List/peoria.png,,,,,51,,,0,0.6923076923076923,../static/images/US_Cities_List/gatlinburg.png,../static/images/US_Cities_List/leesburg.png,../static/images/US_Cities_List/racine.png,../static/images/US_Cities_List/gatlinburg.png,../static/images/US_Cities_List/racine.png,../static/images/US_Cities_List/leesburg.png,0.5,closer,,,,,,,,
null,,html-keyboard-response,1282571,,,<p></p>,,,,,null,,,,,,,,,,,,,,,,,,,,
2365.5,,directmemory_phase,1284962,,,../static/images/US_Cities_List/huntsville.png,,,,,49,,,1,0.7142857142857143,../static/images/US_Cities_List/newhope.png,../static/images/US_Cities_List/hanover.png,../static/images/US_Cities_List/westpalmbeach.png,../static/images/US_Cities_List/newhope.png,../static/images/US_Cities_List/westpalmbeach.png,../static/images/US_Cities_List/hanover.png,1,,,,,,,,,
null,,html-keyboard-response,1285968,,,<p></p>,,,,,null,,,,,,,,,,,,,,,,,,,,
2439.9000000953674,,directmemory_phase,1288432,,,../static/images/US_Cities_List/boulder.png,,,,,50,,,0,0.6666666666666666,../static/images/US_Cities_List/peoria.png,../static/images/US_Cities_List/hanover.png,../static/images/US_Cities_List/racine.png,../static/images/US_Cities_List/peoria.png,../static/images/US_Cities_List/racine.png,../static/images/US_Cities_List/hanover.png,0.5,closer,,,,,,,,
null,,html-keyboard-response,1289437,,,<p></p>,,,,,null,,,,,,,,,,,,,,,,,,,,
1162.7000000476837,,directmemory_phase,1290634,,,../static/images/US_Cities_List/racine.png,,,,,51,,,1,0.6875,../static/images/US_Cities_List/huntsville.png,../static/images/US_Cities_List/peoria.png,../static/images/US_Cities_List/gatlinburg.png,../static/images/US_Cities_List/gatlinburg.png,../static/images/US_Cities_List/peoria.png,../static/images/US_Cities_List/huntsville.png,1,,,,,,,,,
null,,html-keyboard-response,1291640,,,<p></p>,,,,,null,,,,,,,,,,,,,,,,,,,,
989.2999999523163,,directmemory_phase,1292661,,,../static/images/US_Cities_List/carmel.png,,,,,49,,,1,0.7058823529411765,../static/images/US_Cities_List/peoria.png,../static/images/US_Cities_List/shreveport.png,../static/images/US_Cities_List/gatlinburg.png,../static/images/US_Cities_List/peoria.png,../static/images/US_Cities_List/gatlinburg.png,../static/images/US_Cities_List/shreveport.png,1,,,,,,,,,
null,,html-keyboard-response,1293667,,,<p></p>,,,,,null,,,,,,,,,,,,,,,,,,,,
1663.8000001907349,,directmemory_phase,1295370,,,../static/images/US_Cities_List/gatlinburg.png,,,,,51,,,0,0.6666666666666666,../static/images/US_Cities_List/racine.png,../static/images/US_Cities_List/westpalmbeach.png,../static/images/US_Cities_List/newhope.png,../static/images/US_Cities_List/racine.png,../static/images/US_Cities_List/newhope.png,../static/images/US_Cities_List/westpalmbeach.png,0.5,closer,,,,,,,,
null,,html-keyboard-response,1296375,,,<p></p>,,,,,null,,,,,,,,,,,,,,,,,,,,
1581.9000000953674,,directmemory_phase,1297990,,,../static/images/US_Cities_List/peoria.png,,,,,49,,,1,0.6842105263157895,../static/images/US_Cities_List/boulder.png,../static/images/US_Cities_List/leesburg.png,../static/images/US_Cities_List/shreveport.png,../static/images/US_Cities_List/boulder.png,../static/images/US_Cities_List/shreveport.png,../static/images/US_Cities_List/leesburg.png,1,,,,,,,,,
null,,html-keyboard-response,1298995,,,<p></p>,,,,,null,,,,,,,,,,,,,,,,,,,,
1125.2000000476837,,directmemory_phase,1300150,,,../static/images/US_Cities_List/newhope.png,,,,,51,,,1,0.7,../static/images/US_Cities_List/carmel.png,../static/images/US_Cities_List/hotsprings.png,../static/images/US_Cities_List/shreveport.png,../static/images/US_Cities_List/shreveport.png,../static/images/US_Cities_List/hotsprings.png,../static/images/US_Cities_List/carmel.png,1,,,,,,,,,
null,,html-keyboard-response,1301159,,,<p></p>,,,,,null,,,,,,,,,,,,,,,,,,,,
3028.2999999523163,,directmemory_phase,1304212,,,../static/images/US_Cities_List/boulder.png,,,,,50,,,0,0.6666666666666666,../static/images/US_Cities_List/gatlinburg.png,../static/images/US_Cities_List/hotsprings.png,../static/images/US_Cities_List/carmel.png,../static/images/US_Cities_List/gatlinburg.png,../static/images/US_Cities_List/carmel.png,../static/images/US_Cities_List/hotsprings.png,0.5,closer,,,,,,,,
null,,html-keyboard-response,1305217,,,<p></p>,,,,,null,,,,,,,,,,,,,,,,,,,,
2314.5,,directmemory_phase,1307562,,,../static/images/US_Cities_List/hotsprings.png,,,,,51,,,1,0.6818181818181818,../static/images/US_Cities_List/peoria.png,../static/images/US_Cities_List/cornwall.png,../static/images/US_Cities_List/westpalmbeach.png,../static/images/US_Cities_List/westpalmbeach.png,../static/images/US_Cities_List/cornwall.png,../static/images/US_Cities_List/peoria.png,1,,,,,,,,,
null,,html-keyboard-response,1308569,,,<p></p>,,,,,null,,,,,,,,,,,,,,,,,,,,
2644.899999856949,,directmemory_phase,1311238,,,../static/images/US_Cities_List/gatlinburg.png,,,,,51,,,1,0.6956521739130435,../static/images/US_Cities_List/westpalmbeach.png,../static/images/US_Cities_List/newhope.png,../static/images/US_Cities_List/peoria.png,../static/images/US_Cities_List/peoria.png,../static/images/US_Cities_List/newhope.png,../static/images/US_Cities_List/westpalmbeach.png,1,,,,,,,,,
null,,html-keyboard-response,1312243,,,<p></p>,,,,,null,,,,,,,,,,,,,,,,,,,,
2625,,directmemory_phase,1314905,,,../static/images/US_Cities_List/boulder.png,,,,,50,,,0,0.6666666666666666,../static/images/US_Cities_List/huntsville.png,../static/images/US_Cities_List/hotsprings.png,../static/images/US_Cities_List/newhope.png,../static/images/US_Cities_List/huntsville.png,../static/images/US_Cities_List/newhope.png,../static/images/US_Cities_List/hotsprings.png,0.5,closer,,,,,,,,
null,,html-keyboard-response,1315910,,,<p></p>,,,,,null,,,,,,,,,,,,,,,,,,,,
2098.100000143051,,directmemory_phase,1318040,,,../static/images/US_Cities_List/shreveport.png,,,,,49,,,1,0.68,../static/images/US_Cities_List/gatlinburg.png,../static/images/US_Cities_List/carmel.png,../static/images/US_Cities_List/westpalmbeach.png,../static/images/US_Cities_List/gatlinburg.png,../static/images/US_Cities_List/westpalmbeach.png,../static/images/US_Cities_List/carmel.png,1,,,,,,,,,
null,,html-keyboard-response,1319046,,,<p></p>,,,,,null,,,,,,,,,,,,,,,,,,,,
1202.5999999046326,,directmemory_phase,1320278,,,../static/images/US_Cities_List/cornwall.png,,,,,51,,,1,0.6923076923076923,../static/images/US_Cities_List/hanover.png,../static/images/US_Cities_List/hotsprings.png,../static/images/US_Cities_List/westpalmbeach.png,../static/images/US_Cities_List/westpalmbeach.png,../static/images/US_Cities_List/hotsprings.png,../static/images/US_Cities_List/hanover.png,1,,,,,,,,,
null,,html-keyboard-response,1321284,,,<p></p>,,,,,null,,,,,,,,,,,,,,,,,,,,
2247.100000143051,,directmemory_phase,1323562,,,../static/images/US_Cities_List/gatlinburg.png,,,,,51,,,1,0.7037037037037037,../static/images/US_Cities_List/westpalmbeach.png,../static/images/US_Cities_List/newhope.png,../static/images/US_Cities_List/boulder.png,../static/images/US_Cities_List/boulder.png,../static/images/US_Cities_List/newhope.png,../static/images/US_Cities_List/westpalmbeach.png,1,,,,,,,,,
null,,html-keyboard-response,1324566,,,<p></p>,,,,,null,,,,,,,,,,,,,,,,,,,,
2930.7999999523163,,directmemory_phase,1327520,,,../static/images/US_Cities_List/westpalmbeach.png,,,,,51,,,1,0.7142857142857143,../static/images/US_Cities_List/racine.png,../static/images/US_Cities_List/shreveport.png,../static/images/US_Cities_List/hotsprings.png,../static/images/US_Cities_List/hotsprings.png,../static/images/US_Cities_List/shreveport.png,../static/images/US_Cities_List/racine.png,1,,,,,,,,,
null,,html-keyboard-response,1328525,,,<p></p>,,,,,null,,,,,,,,,,,,,,,,,,,,
1605.6999998092651,,directmemory_phase,1330153,,,../static/images/US_Cities_List/shreveport.png,,,,,50,,,0,0.6896551724137931,../static/images/US_Cities_List/carmel.png,../static/images/US_Cities_List/westpalmbeach.png,../static/images/US_Cities_List/boulder.png,../static/images/US_Cities_List/boulder.png,../static/images/US_Cities_List/westpalmbeach.png,../static/images/US_Cities_List/carmel.png,0.5,closer,,,,,,,,
null,,html-keyboard-response,1331157,,,<p></p>,,,,,null,,,,,,,,,,,,,,,,,,,,
3983.300000190735,,directmemory_phase,1335176,,,../static/images/US_Cities_List/leesburg.png,,,,,49,,,1,0.7,../static/images/US_Cities_List/hotsprings.png,../static/images/US_Cities_List/shreveport.png,../static/images/US_Cities_List/hanover.png,../static/images/US_Cities_List/hotsprings.png,../static/images/US_Cities_List/hanover.png,../static/images/US_Cities_List/shreveport.png,1,,,,,,,,,
null,,html-keyboard-response,1336182,,,<p></p>,,,,,null,,,,,,,,,,,,,,,,,,,,
2069.9000000953674,,directmemory_phase,1338288,,,../static/images/US_Cities_List/boulder.png,,,,,51,,,1,0.7096774193548387,../static/images/US_Cities_List/hanover.png,../static/images/US_Cities_List/racine.png,../static/images/US_Cities_List/shreveport.png,../static/images/US_Cities_List/shreveport.png,../static/images/US_Cities_List/racine.png,../static/images/US_Cities_List/hanover.png,1,,,,,,,,,
null,,html-keyboard-response,1339294,,,<p></p>,,,,,null,,,,,,,,,,,,,,,,,,,,
3105,,directmemory_phase,1342429,,,../static/images/US_Cities_List/hotsprings.png,,,,,49,,,1,0.71875,../static/images/US_Cities_List/hanover.png,../static/images/US_Cities_List/boulder.png,../static/images/US_Cities_List/huntsville.png,../static/images/US_Cities_List/hanover.png,../static/images/US_Cities_List/huntsville.png,../static/images/US_Cities_List/boulder.png,1,,,,,,,,,
null,,html-keyboard-response,1343432,,,<p></p>,,,,,null,,,,,,,,,,,,,,,,,,,,
20345.299999952316,,intro_1,1363779,,,instruct,,,0,,,,,,,,,,,,,,,,,,,,,,
11006,,intro_2,1374788,,,instruct,,,1,Next,,,,,,,,,,,,,,,,,,,,,
9877.800000190735,,intro_3,1384669,,,instruct,,,1,Next,,,,,,,,,,,,,,,,,,,,,
11684.599999904633,,intro_4,1396356,,,instruct,,,1,Next,,,,,,,,,,,,,,,,,,,,,
8711.200000047684,,intro_5,1405069,,,instruct,,,1,Next,,,,,,,,,,,,,,,,,,,,,
21202.799999952316,,intro_6,1426275,,,instruct,,,1,Next,,,,,,,,,,,,,,,,,,,,,
16396.299999952316,,intro_7,1442674,,,instruct,,,1,Next,,,,,,,,,,,,,,,,,,,,,
42553,,intro_8,1485229,,,instruct,,,1,Next,,,,,,,,,,,,,,,,,,,,,
39899.40000009537,,intro_9,1525131,,,instruct,,,1,Next,,,,,,,,,,,,,,,,,,,,,
29600.5,,intro_10,1554734,,,instruct,,,1,Next,,,,,,,,,,,,,,,,,,,,,
19649.700000047684,,intro_11,1574386,,,instruct,,,1,Next,,,,,,,,,,,,,,,,,,,,,
3170.2999999523163,,shortestpath_phase,1577573,,,../static/images/US_Cities_List/carmel.png,,,,,50,../static/images/US_Cities_List/boulder.png,../static/images/US_Cities_List/hotsprings.png,0,0,,,,../static/images/US_Cities_List/boulder.png,,,,,Three Edge Diff,Three Edge Six Edge,,,,,,
null,,html-keyboard-response,1578578,,,<p></p>,,,,,null,,,,,,,,,,,,,,,,,,,,
3024.7999999523163,,shortestpath_phase,1581627,,,../static/images/US_Cities_List/hanover.png,,,,,49,../static/images/US_Cities_List/boulder.png,../static/images/US_Cities_List/westpalmbeach.png,0,0,,,,../static/images/US_Cities_List/westpalmbeach.png,,,,,Two Edge Diff,Two Edge Four Edge,,,,,,
null,,html-keyboard-response,1582632,,,<p></p>,,,,,null,,,,,,,,,,,,,,,,,,,,
2283.2999999523163,,shortestpath_phase,1584937,,,../static/images/US_Cities_List/racine.png,,,,,49,../static/images/US_Cities_List/peoria.png,../static/images/US_Cities_List/hanover.png,1,0.3333333333333333,,,,../static/images/US_Cities_List/peoria.png,,,,,Four Edge Diff,Two Edge Six Edge,,,,,,
null,,html-keyboard-response,1585942,,,<p></p>,,,,,null,,,,,,,,,,,,,,,,,,,,
3721.4000000953674,,shortestpath_phase,1589687,,,../static/images/US_Cities_List/cornwall.png,,,,,49,../static/images/US_Cities_List/hotsprings.png,../static/images/US_Cities_List/peoria.png,1,0.5,,,,../static/images/US_Cities_List/hotsprings.png,,,,,Three Edge Diff,Three Edge Six Edge,,,,,,
null,,html-keyboard-response,1590692,,,<p></p>,,,,,null,,,,,,,,,,,,,,,,,,,,
3151.5,,shortestpath_phase,1593867,,,../static/images/US_Cities_List/racine.png,,,,,49,../static/images/US_Cities_List/hanover.png,../static/images/US_Cities_List/leesburg.png,0,0.4,,,,../static/images/US_Cities_List/leesburg.png,,,,,Two Edge Diff,Four Edge Six Edge,,,,,,
null,,html-keyboard-response,1594871,,,<p></p>,,,,,null,,,,,,,,,,,,,,,,,,,,
2168,,shortestpath_phase,1597062,,,../static/images/US_Cities_List/westpalmbeach.png,,,,,50,../static/images/US_Cities_List/carmel.png,../static/images/US_Cities_List/shreveport.png,1,0.5,,,,../static/images/US_Cities_List/shreveport.png,,,,,Three Edge Diff,Two Edge Five Edge,,,,,,
null,,html-keyboard-response,1598067,,,<p></p>,,,,,null,,,,,,,,,,,,,,,,,,,,
2061.600000143051,,shortestpath_phase,1600151,,,../static/images/US_Cities_List/hanover.png,,,,,50,../static/images/US_Cities_List/peoria.png,../static/images/US_Cities_List/carmel.png,0,0.42857142857142855,,,,../static/images/US_Cities_List/peoria.png,,,,,One Edge Diff,Five Edge Six Edge,,,,,,
null,,html-keyboard-response,1601156,,,<p></p>,,,,,null,,,,,,,,,,,,,,,,,,,,
2799.7000000476837,,shortestpath_phase,1603978,,,../static/images/US_Cities_List/carmel.png,,,,,49,../static/images/US_Cities_List/boulder.png,../static/images/US_Cities_List/westpalmbeach.png,1,0.5,,,,../static/images/US_Cities_List/boulder.png,,,,,Three Edge Diff,Three Edge Six Edge,,,,,,
null,,html-keyboard-response,1604982,,,<p></p>,,,,,null,,,,,,,,,,,,,,,,,,,,
