rt,responses,trial_type,time_elapsed,image_type,sequence,stimulus,cities,city_images,button_pressed,response,key_press,stimulus_left,stimulus_right,cumulative_accuracy,accuracy,stimulus_down_left,stimulus_down_mid,stimulus_down_right,stimulus_correct,stimulus_short,stimulus_far,weighted_accuracy,missedtrial,condition,specific_pairs,imgL_ID,imgR_ID,linedress,linedressed,detour_trial,linedressed_detor
27251.59999999404,{worker_id:676c956bbeee4e4356eb085b},id_enter,27255,fictional,interleaved,flights,Orchard Bend; Sunmere; North Arroya; Delaro Park; Riverlyn; Hawthorne Bluffs; Hollendale; Baymarsh; New Verdan; Claywater; Cedarwyn; Granton Ridge; Juniper Creek,US_Cities_List/peoria.png; US_Cities_List/hotsprings.png; US_Cities_List/newhope.png; US_Cities_List/cornwall.png; US_Cities_List/westpalmbeach.png; US_Cities_List/shreveport.png; US_Cities_List/carmel.png; US_Cities_List/leesburg.png; US_Cities_List/racine.png; US_Cities_List/boulder.png; US_Cities_List/huntsville.png; US_Cities_List/hanover.png; US_Cities_List/gatlinburg.png,,,,,,,,,,,,,,,,,,,,,,,
11166.700000017881,,fullscreen,38427,,,make_fullscreen,,,0,,,,,,,,,,,,,,,,,,,,,,
34218.29999998212,,intro_1,72647,,,instruct,,,0,,,,,,,,,,,,,,,,,,,,,,
64889,,intro_2,137538,,,instruct,,,1,Next,,,,,,,,,,,,,,,,,,,,,
53708.29999998212,,intro_3,191248,,,instruct,,,1,Next,,,,,,,,,,,,,,,,,,,,,
56680.69999998808,,intro_4,247929,,,instruct,,,1,Next,,,,,,,,,,,,,,,,,,,,,
38839.10000002384,,intro_5,286770,,,instruct,,,1,Next,,,,,,,,,,,,,,,,,,,,,
40990.79999998212,,intro_6,327761,,,instruct,,,1,Next,,,,,,,,,,,,,,,,,,,,,
16014.09999999404,,intro_7,343777,,,instruct,,,1,Next,,,,,,,,,,,,,,,,,,,,,
null,,learn_prac_1,346780,,,lean_prac_1,,,,,null,,,,,,,,,,,,,,,,,,,,
null,,html-keyboard-response,347783,,,<p></p>,,,,,null,,,,,,,,,,,,,,,,,,,,
7761.300000011921,,intro_1,355545,,,instruct,,,0,,,,,,,,,,,,,,,,,,,,,,
11647.09999999404,,intro_2,367193,,,instruct,,,1,Next,,,,,,,,,,,,,,,,,,,,,
null,,learn_prac_2,370195,,,lean_prac_2,,,,,null,,,,,,,,,,,,,,,,,,,,
null,,html-keyboard-response,371197,,,<p></p>,,,,,null,,,,,,,,,,,,,,,,,,,,
4724.200000017881,,intro_1,375922,,,instruct,,,0,,,,,,,,,,,,,,,,,,,,,,
6915,,intro_2,382838,,,instruct,,,1,Next,,,,,,,,,,,,,,,,,,,,,
15197.90000000596,,intro_3,398037,,,instruct,,,1,Next,,,,,,,,,,,,,,,,,,,,,
null,,prac_atten_color_black,398450,,,black_plus_sign,,,,,null,,,,,,,,,,,,,,,,,,,,
970.5,,prac_atten_color,399442,,,prac_stop_color,,,,,49,,,,,,,,,,,,,,,,,,,,
null,,prac_atten_color_black,401444,,,black_plus_sign,,,,,null,,,,,,,,,,,,,,,,,,,,
null,,prac_atten_color_black,401856,,,black_plus_sign,,,,,null,,,,,,,,,,,,,,,,,,,,
null,,prac_atten_color,402663,,,prac_stop_color,,,,,null,,,,,,,,,,,,,,,,,,,,
140,,prac_atten_color_black,404665,,,black_plus_sign,,,,,50,,,,,,,,,,,,,,,,,,,,
null,,prac_atten_color_black,405262,,,black_plus_sign,,,,,null,,,,,,,,,,,,,,,,,,,,
null,,prac_atten_color,406160,,,prac_stop_color,,,,,null,,,,,,,,,,,,,,,,,,,,
231.19999998807907,,prac_atten_color_black,408161,,,black_plus_sign,,,,,50,,,,,,,,,,,,,,,,,,,,
null,,prac_atten_color_black,408667,,,black_plus_sign,,,,,null,,,,,,,,,,,,,,,,,,,,
null,,prac_atten_color,409768,,,prac_stop_color,,,,,null,,,,,,,,,,,,,,,,,,,,
118.5,,prac_atten_color_black,411770,,,black_plus_sign,,,,,49,,,,,,,,,,,,,,,,,,,,
null,,prac_atten_color_black,412072,,,black_plus_sign,,,,,null,,,,,,,,,,,,,,,,,,,,
null,,prac_atten_color,412848,,,prac_stop_color,,,,,null,,,,,,,,,,,,,,,,,,,,
303.09999999403954,,prac_atten_color_black,414849,,,black_plus_sign,,,,,50,,,,,,,,,,,,,,,,,,,,
null,,prac_atten_color_black,415479,,,black_plus_sign,,,,,null,,,,,,,,,,,,,,,,,,,,
null,,prac_atten_color,416364,,,prac_stop_color,,,,,null,,,,,,,,,,,,,,,,,,,,
302.30000001192093,,prac_atten_color_black,418366,,,black_plus_sign,,,,,50,,,,,,,,,,,,,,,,,,,,
null,,prac_atten_color_black,418884,,,black_plus_sign,,,,,null,,,,,,,,,,,,,,,,,,,,
null,,prac_atten_color,419555,,,prac_stop_color,,,,,null,,,,,,,,,,,,,,,,,,,,
262.39999997615814,,prac_atten_color_black,421556,,,black_plus_sign,,,,,49,,,,,,,,,,,,,,,,,,,,
null,,prac_atten_color_black,422288,,,black_plus_sign,,,,,null,,,,,,,,,,,,,,,,,,,,
null,,prac_atten_color,423089,,,prac_stop_color,,,,,null,,,,,,,,,,,,,,,,,,,,
413.80000001192093,,prac_atten_color_black,425090,,,black_plus_sign,,,,,50,,,,,,,,,,,,,,,,,,,,
null,,prac_atten_color_black,425695,,,black_plus_sign,,,,,null,,,,,,,,,,,,,,,,,,,,
null,,prac_atten_color,426514,,,prac_stop_color,,,,,null,,,,,,,,,,,,,,,,,,,,
671.4000000059605,,prac_atten_color_black,428515,,,black_plus_sign,,,,,49,,,,,,,,,,,,,,,,,,,,
null,,prac_atten_color_black,429100,,,black_plus_sign,,,,,null,,,,,,,,,,,,,,,,,,,,
null,,prac_atten_color,429769,,,prac_stop_color,,,,,null,,,,,,,,,,,,,,,,,,,,
632.2000000178814,,prac_atten_color_black,431770,,,black_plus_sign,,,,,49,,,,,,,,,,,,,,,,,,,,
42751.30000001192,,attentioncheck_feedback,474522,,,cross_check_feedback,,,0,,,,,,,,,,,,,,,,,,,,,,
10986.40000000596,,last_instruct,485509,,,instruct,,,,,32,,,,,,,,,,,,,,,,,,,,
null,,learn_phase(without_color),488525,,,black_plus_sign,,,,,null,US_Cities_List/hanover.png,US_Cities_List/cornwall.png,,,,,,,,,,,,,,,,,,
null,,black_cross(without_color),489516,,,blue,,,,,null,US_Cities_List/hanover.png,US_Cities_List/cornwall.png,,,,,,,,,,,,,,,,,,
null,,rt_plussign_withcolor,490018,,,blue,,,,,null,US_Cities_List/hanover.png,US_Cities_List/cornwall.png,,,,,,,,,,,,,,,,,,
null,,rt_thecrossant_black,491030,,,black_plus_sign,,,,,null,,,NaN,,,,,,,,,,,,,,,,,
null,,color_black,491132,,,black_plus_sign,,,,,null,,,,,,,,,,,,,,,,,,,,
null,,learn_phase(without_color),494148,,,black_plus_sign,,,,,null,US_Cities_List/carmel.png,US_Cities_List/gatlinburg.png,,,,,,,,,,,,,,,,,,
null,,black_cross(without_color),494570,,,blue,,,,,null,US_Cities_List/carmel.png,US_Cities_List/gatlinburg.png,,,,,,,,,,,,,,,,,,
null,,rt_plussign_withcolor,495071,,,blue,,,,,null,US_Cities_List/carmel.png,US_Cities_List/gatlinburg.png,,,,,,,,,,,,,,,,,,
null,,rt_thecrossant_black,496662,,,black_plus_sign,,,,,null,,,NaN,,,,,,,,,,,,,,,,,
null,,warning_page,499664,,,warning,,,,,null,,,,,,,,,,,,,,,,,,,,
null,,color_black,499766,,,black_plus_sign,,,,,null,,,,,,,,,,,,,,,,,,,,
null,,learn_phase(without_color),502778,,,black_plus_sign,,,,,null,US_Cities_List/peoria.png,US_Cities_List/hotsprings.png,,,,,,,,,,,,,,,,,,
null,,black_cross(without_color),503840,,,blue,,,,,null,US_Cities_List/peoria.png,US_Cities_List/hotsprings.png,,,,,,,,,,,,,,,,,,
null,,rt_plussign_withcolor,504343,,,blue,,,,,null,US_Cities_List/peoria.png,US_Cities_List/hotsprings.png,,,,,,,,,,,,,,,,,,
1056.5999999940395,,rt_thecrossant_black,505284,,,black_plus_sign,,,,,49,,,1,1,,,,,,,,,,,,,,,,
null,,color_black,505386,,,black_plus_sign,,,,,null,,,,,,,,,,,,,,,,,,,,
null,,learn_phase(without_color),508398,,,black_plus_sign,,,,,null,US_Cities_List/shreveport.png,US_Cities_List/racine.png,,,,,,,,,,,,,,,,,,
null,,black_cross(without_color),508860,,,yellow,,,,,null,US_Cities_List/shreveport.png,US_Cities_List/racine.png,,,,,,,,,,,,,,,,,,
null,,rt_plussign_withcolor,509361,,,yellow,,,,,null,US_Cities_List/shreveport.png,US_Cities_List/racine.png,,,,,,,,,,,,,,,,,,
1786,,rt_thecrossant_black,510904,,,black_plus_sign,,,,,50,,,1,1,,,,,,,,,,,,,,,,
null,,color_black,511011,,,black_plus_sign,,,,,null,,,,,,,,,,,,,,,,,,,,
null,,learn_phase(without_color),514033,,,black_plus_sign,,,,,null,US_Cities_List/hotsprings.png,US_Cities_List/cornwall.png,,,,,,,,,,,,,,,,,,
null,,black_cross(without_color),514653,,,blue,,,,,null,US_Cities_List/hotsprings.png,US_Cities_List/cornwall.png,,,,,,,,,,,,,,,,,,
null,,rt_plussign_withcolor,515154,,,blue,,,,,null,US_Cities_List/hotsprings.png,US_Cities_List/cornwall.png,,,,,,,,,,,,,,,,,,
960.8000000119209,,rt_thecrossant_black,516537,,,black_plus_sign,,,,,49,,,1,1,,,,,,,,,,,,,,,,
null,,color_black,516639,,,black_plus_sign,,,,,null,,,,,,,,,,,,,,,,,,,,
null,,learn_phase(without_color),519659,,,black_plus_sign,,,,,null,US_Cities_List/westpalmbeach.png,US_Cities_List/cornwall.png,,,,,,,,,,,,,,,,,,
null,,black_cross(without_color),520684,,,yellow,,,,,null,US_Cities_List/westpalmbeach.png,US_Cities_List/cornwall.png,,,,,,,,,,,,,,,,,,
null,,rt_plussign_withcolor,521186,,,yellow,,,,,null,US_Cities_List/westpalmbeach.png,US_Cities_List/cornwall.png,,,,,,,,,,,,,,,,,,
1352.4000000059605,,rt_thecrossant_black,522164,,,black_plus_sign,,,,,50,,,1,1,,,,,,,,,,,,,,,,
null,,color_black,522266,,,black_plus_sign,,,,,null,,,,,,,,,,,,,,,,,,,,
null,,learn_phase(without_color),525288,,,black_plus_sign,,,,,null,US_Cities_List/cornwall.png,US_Cities_List/hotsprings.png,,,,,,,,,,,,,,,,,,
null,,black_cross(without_color),526289,,,yellow,,,,,null,US_Cities_List/cornwall.png,US_Cities_List/hotsprings.png,,,,,,,,,,,,,,,,,,
null,,rt_plussign_withcolor,526791,,,yellow,,,,,null,US_Cities_List/cornwall.png,US_Cities_List/hotsprings.png,,,,,,,,,,,,,,,,,,
1786.3999999761581,,rt_thecrossant_black,527794,,,black_plus_sign,,,,,50,,,1,1,,,,,,,,,,,,,,,,
null,,color_black,527896,,,black_plus_sign,,,,,null,,,,,,,,,,,,,,,,,,,,
null,,learn_phase(without_color),530916,,,black_plus_sign,,,,,null,US_Cities_List/hotsprings.png,US_Cities_List/cornwall.png,,,,,,,,,,,,,,,,,,
null,,black_cross(without_color),531520,,,yellow,,,,,null,US_Cities_List/hotsprings.png,US_Cities_List/cornwall.png,,,,,,,,,,,,,,,,,,
null,,rt_plussign_withcolor,532021,,,yellow,,,,,null,US_Cities_List/hotsprings.png,US_Cities_List/cornwall.png,,,,,,,,,,,,,,,,,,
1729.800000011921,,rt_thecrossant_black,533422,,,black_plus_sign,,,,,50,,,1,1,,,,,,,,,,,,,,,,
null,,color_black,533524,,,black_plus_sign,,,,,null,,,,,,,,,,,,,,,,,,,,
null,,learn_phase(without_color),536536,,,black_plus_sign,,,,,null,US_Cities_List/shreveport.png,US_Cities_List/carmel.png,,,,,,,,,,,,,,,,,,
null,,black_cross(without_color),537047,,,yellow,,,,,null,US_Cities_List/shreveport.png,US_Cities_List/carmel.png,,,,,,,,,,,,,,,,,,
null,,rt_plussign_withcolor,537549,,,yellow,,,,,null,US_Cities_List/shreveport.png,US_Cities_List/carmel.png,,,,,,,,,,,,,,,,,,
1349.800000011921,,rt_thecrossant_black,539041,,,black_plus_sign,,,,,50,,,1,1,,,,,,,,,,,,,,,,
null,,color_black,539145,,,black_plus_sign,,,,,null,,,,,,,,,,,,,,,,,,,,
null,,learn_phase(without_color),542158,,,black_plus_sign,,,,,null,US_Cities_List/racine.png,US_Cities_List/huntsville.png,,,,,,,,,,,,,,,,,,
null,,black_cross(without_color),543211,,,yellow,,,,,null,US_Cities_List/racine.png,US_Cities_List/huntsville.png,,,,,,,,,,,,,,,,,,
null,,rt_plussign_withcolor,543712,,,yellow,,,,,null,US_Cities_List/racine.png,US_Cities_List/huntsville.png,,,,,,,,,,,,,,,,,,
1216.2999999821186,,rt_thecrossant_black,544662,,,black_plus_sign,,,,,50,,,1,1,,,,,,,,,,,,,,,,
null,,color_black,544776,,,black_plus_sign,,,,,null,,,,,,,,,,,,,,,,,,,,
null,,learn_phase(without_color),547791,,,black_plus_sign,,,,,null,US_Cities_List/hotsprings.png,US_Cities_List/newhope.png,,,,,,,,,,,,,,,,,,
null,,black_cross(without_color),548817,,,blue,,,,,null,US_Cities_List/hotsprings.png,US_Cities_List/newhope.png,,,,,,,,,,,,,,,,,,
null,,rt_plussign_withcolor,549318,,,blue,,,,,null,US_Cities_List/hotsprings.png,US_Cities_List/newhope.png,,,,,,,,,,,,,,,,,,
1743.5999999940395,,rt_thecrossant_black,550296,,,black_plus_sign,,,,,49,,,1,1,,,,,,,,,,,,,,,,
null,,color_black,550398,,,black_plus_sign,,,,,null,,,,,,,,,,,,,,,,,,,,
null,,learn_phase(without_color),553418,,,black_plus_sign,,,,,null,US_Cities_List/cornwall.png,US_Cities_List/westpalmbeach.png,,,,,,,,,,,,,,,,,,
null,,black_cross(without_color),554289,,,blue,,,,,null,US_Cities_List/cornwall.png,US_Cities_List/westpalmbeach.png,,,,,,,,,,,,,,,,,,
null,,rt_plussign_withcolor,554791,,,blue,,,,,null,US_Cities_List/cornwall.png,US_Cities_List/westpalmbeach.png,,,,,,,,,,,,,,,,,,
1833.5999999940395,,rt_thecrossant_black,555922,,,black_plus_sign,,,,,49,,,1,1,,,,,,,,,,,,,,,,
null,,color_black,556025,,,black_plus_sign,,,,,null,,,,,,,,,,,,,,,,,,,,
null,,learn_phase(without_color),559040,,,black_plus_sign,,,,,null,US_Cities_List/gatlinburg.png,US_Cities_List/carmel.png,,,,,,,,,,,,,,,,,,
null,,black_cross(without_color),559527,,,blue,,,,,null,US_Cities_List/gatlinburg.png,US_Cities_List/carmel.png,,,,,,,,,,,,,,,,,,
null,,rt_plussign_withcolor,560029,,,blue,,,,,null,US_Cities_List/gatlinburg.png,US_Cities_List/carmel.png,,,,,,,,,,,,,,,,,,
1676.9000000059605,,rt_thecrossant_black,561547,,,black_plus_sign,,,,,49,,,1,1,,,,,,,,,,,,,,,,
null,,color_black,561648,,,black_plus_sign,,,,,null,,,,,,,,,,,,,,,,,,,,
null,,learn_phase(without_color),564658,,,black_plus_sign,,,,,null,US_Cities_List/hanover.png,US_Cities_List/huntsville.png,,,,,,,,,,,,,,,,,,
null,,black_cross(without_color),565094,,,blue,,,,,null,US_Cities_List/hanover.png,US_Cities_List/huntsville.png,,,,,,,,,,,,,,,,,,
null,,rt_plussign_withcolor,565596,,,blue,,,,,null,US_Cities_List/hanover.png,US_Cities_List/huntsville.png,,,,,,,,,,,,,,,,,,
1242.5999999940395,,rt_thecrossant_black,567163,,,black_plus_sign,,,,,49,,,1,1,,,,,,,,,,,,,,,,
null,,color_black,567278,,,black_plus_sign,,,,,null,,,,,,,,,,,,,,,,,,,,
null,,learn_phase(without_color),570299,,,black_plus_sign,,,,,null,US_Cities_List/hanover.png,US_Cities_List/cornwall.png,,,,,,,,,,,,,,,,,,
null,,black_cross(without_color),571236,,,blue,,,,,null,US_Cities_List/hanover.png,US_Cities_List/cornwall.png,,,,,,,,,,,,,,,,,,
null,,rt_plussign_withcolor,571737,,,blue,,,,,null,US_Cities_List/hanover.png,US_Cities_List/cornwall.png,,,,,,,,,,,,,,,,,,
1081.4000000059605,,rt_thecrossant_black,572804,,,black_plus_sign,,,,,49,,,1,1,,,,,,,,,,,,,,,,
null,,color_black,572907,,,black_plus_sign,,,,,null,,,,,,,,,,,,,,,,,,,,
null,,learn_phase(without_color),575919,,,black_plus_sign,,,,,null,US_Cities_List/racine.png,US_Cities_List/huntsville.png,,,,,,,,,,,,,,,,,,
null,,black_cross(without_color),576492,,,yellow,,,,,null,US_Cities_List/racine.png,US_Cities_List/huntsville.png,,,,,,,,,,,,,,,,,,
null,,rt_plussign_withcolor,577000,,,yellow,,,,,null,US_Cities_List/racine.png,US_Cities_List/huntsville.png,,,,,,,,,,,,,,,,,,
1680,,rt_thecrossant_black,578431,,,black_plus_sign,,,,,50,,,1,1,,,,,,,,,,,,,,,,
null,,color_black,578533,,,black_plus_sign,,,,,null,,,,,,,,,,,,,,,,,,,,
null,,learn_phase(without_color),581547,,,black_plus_sign,,,,,null,US_Cities_List/leesburg.png,US_Cities_List/carmel.png,,,,,,,,,,,,,,,,,,
null,,black_cross(without_color),582389,,,blue,,,,,null,US_Cities_List/leesburg.png,US_Cities_List/carmel.png,,,,,,,,,,,,,,,,,,
null,,rt_plussign_withcolor,582891,,,blue,,,,,null,US_Cities_List/leesburg.png,US_Cities_List/carmel.png,,,,,,,,,,,,,,,,,,
1266,,rt_thecrossant_black,584051,,,black_plus_sign,,,,,49,,,1,1,,,,,,,,,,,,,,,,
null,,color_black,584153,,,black_plus_sign,,,,,null,,,,,,,,,,,,,,,,,,,,
null,,learn_phase(without_color),587171,,,black_plus_sign,,,,,null,US_Cities_List/hotsprings.png,US_Cities_List/cornwall.png,,,,,,,,,,,,,,,,,,
null,,black_cross(without_color),587977,,,blue,,,,,null,US_Cities_List/hotsprings.png,US_Cities_List/cornwall.png,,,,,,,,,,,,,,,,,,
null,,rt_plussign_withcolor,588479,,,blue,,,,,null,US_Cities_List/hotsprings.png,US_Cities_List/cornwall.png,,,,,,,,,,,,,,,,,,
1762.300000011921,,rt_thecrossant_black,589678,,,black_plus_sign,,,,,49,,,1,1,,,,,,,,,,,,,,,,
null,,color_black,589780,,,black_plus_sign,,,,,null,,,,,,,,,,,,,,,,,,,,
null,,learn_phase(without_color),592797,,,black_plus_sign,,,,,null,US_Cities_List/newhope.png,US_Cities_List/hotsprings.png,,,,,,,,,,,,,,,,,,
null,,black_cross(without_color),593258,,,blue,,,,,null,US_Cities_List/newhope.png,US_Cities_List/hotsprings.png,,,,,,,,,,,,,,,,,,
null,,rt_plussign_withcolor,593759,,,blue,,,,,null,US_Cities_List/newhope.png,US_Cities_List/hotsprings.png,,,,,,,,,,,,,,,,,,
1521.300000011921,,rt_thecrossant_black,595303,,,black_plus_sign,,,,,49,,,1,1,,,,,,,,,,,,,,,,
null,,color_black,595407,,,black_plus_sign,,,,,null,,,,,,,,,,,,,,,,,,,,
null,,learn_phase(without_color),598421,,,black_plus_sign,,,,,null,US_Cities_List/peoria.png,US_Cities_List/hotsprings.png,,,,,,,,,,,,,,,,,,
null,,black_cross(without_color),599382,,,blue,,,,,null,US_Cities_List/peoria.png,US_Cities_List/hotsprings.png,,,,,,,,,,,,,,,,,,
null,,rt_plussign_withcolor,599884,,,blue,,,,,null,US_Cities_List/peoria.png,US_Cities_List/hotsprings.png,,,,,,,,,,,,,,,,,,
932.8000000119209,,rt_thecrossant_black,600927,,,black_plus_sign,,,,,49,,,1,1,,,,,,,,,,,,,,,,
null,,color_black,601029,,,black_plus_sign,,,,,null,,,,,,,,,,,,,,,,,,,,
null,,learn_phase(without_color),604044,,,black_plus_sign,,,,,null,US_Cities_List/racine.png,US_Cities_List/shreveport.png,,,,,,,,,,,,,,,,,,
null,,black_cross(without_color),605134,,,yellow,,,,,null,US_Cities_List/racine.png,US_Cities_List/shreveport.png,,,,,,,,,,,,,,,,,,
null,,rt_plussign_withcolor,605636,,,yellow,,,,,null,US_Cities_List/racine.png,US_Cities_List/shreveport.png,,,,,,,,,,,,,,,,,,
null,,rt_thecrossant_black,606550,,,black_plus_sign,,,,,null,,,1,,,,,,,,,,,,,,,,,
null,,color_black,606651,,,black_plus_sign,,,,,null,,,,,,,,,,,,,,,,,,,,
null,,learn_phase(without_color),609661,,,black_plus_sign,,,,,null,US_Cities_List/huntsville.png,US_Cities_List/hanover.png,,,,,,,,,,,,,,,,,,
null,,black_cross(without_color),610457,,,yellow,,,,,null,US_Cities_List/huntsville.png,US_Cities_List/hanover.png,,,,,,,,,,,,,,,,,,
null,,rt_plussign_withcolor,610973,,,yellow,,,,,null,US_Cities_List/huntsville.png,US_Cities_List/hanover.png,,,,,,,,,,,,,,,,,,
2005.300000011921,,rt_thecrossant_black,612181,,,black_plus_sign,,,,,50,,,1,1,,,,,,,,,,,,,,,,
null,,color_black,612283,,,black_plus_sign,,,,,null,,,,,,,,,,,,,,,,,,,,
null,,learn_phase(without_color),615303,,,black_plus_sign,,,,,null,US_Cities_List/westpalmbeach.png,US_Cities_List/cornwall.png,,,,,,,,,,,,,,,,,,
null,,black_cross(without_color),616356,,,blue,,,,,null,US_Cities_List/westpalmbeach.png,US_Cities_List/cornwall.png,,,,,,,,,,,,,,,,,,
null,,rt_plussign_withcolor,616858,,,blue,,,,,null,US_Cities_List/westpalmbeach.png,US_Cities_List/cornwall.png,,,,,,,,,,,,,,,,,,
1729,,rt_thecrossant_black,617819,,,black_plus_sign,,,,,49,,,1,1,,,,,,,,,,,,,,,,
null,,color_black,617921,,,black_plus_sign,,,,,null,,,,,,,,,,,,,,,,,,,,
null,,learn_phase(without_color),620934,,,black_plus_sign,,,,,null,US_Cities_List/racine.png,US_Cities_List/huntsville.png,,,,,,,,,,,,,,,,,,
null,,black_cross(without_color),621443,,,yellow,,,,,null,US_Cities_List/racine.png,US_Cities_List/huntsville.png,,,,,,,,,,,,,,,,,,
null,,rt_plussign_withcolor,621944,,,yellow,,,,,null,US_Cities_List/racine.png,US_Cities_List/huntsville.png,,,,,,,,,,,,,,,,,,
2065.699999988079,,rt_thecrossant_black,623438,,,black_plus_sign,,,,,50,,,1,1,,,,,,,,,,,,,,,,
null,,color_black,623539,,,black_plus_sign,,,,,null,,,,,,,,,,,,,,,,,,,,
null,,learn_phase(without_color),626553,,,black_plus_sign,,,,,null,US_Cities_List/shreveport.png,US_Cities_List/newhope.png,,,,,,,,,,,,,,,,,,
null,,black_cross(without_color),627553,,,yellow,,,,,null,US_Cities_List/shreveport.png,US_Cities_List/newhope.png,,,,,,,,,,,,,,,,,,
null,,rt_plussign_withcolor,628054,,,yellow,,,,,null,US_Cities_List/shreveport.png,US_Cities_List/newhope.png,,,,,,,,,,,,,,,,,,
null,,rt_thecrossant_black,629058,,,black_plus_sign,,,,,null,,,1,,,,,,,,,,,,,,,,,
null,,color_black,629161,,,black_plus_sign,,,,,null,,,,,,,,,,,,,,,,,,,,
null,,learn_phase(without_color),632173,,,black_plus_sign,,,,,null,US_Cities_List/boulder.png,US_Cities_List/leesburg.png,,,,,,,,,,,,,,,,,,
null,,black_cross(without_color),632721,,,blue,,,,,null,US_Cities_List/boulder.png,US_Cities_List/leesburg.png,,,,,,,,,,,,,,,,,,
null,,rt_plussign_withcolor,633222,,,blue,,,,,null,US_Cities_List/boulder.png,US_Cities_List/leesburg.png,,,,,,,,,,,,,,,,,,
1996.5999999940395,,rt_thecrossant_black,634678,,,black_plus_sign,,,,,49,,,1,1,,,,,,,,,,,,,,,,
null,,color_black,634780,,,black_plus_sign,,,,,null,,,,,,,,,,,,,,,,,,,,
null,,learn_phase(without_color),637793,,,black_plus_sign,,,,,null,US_Cities_List/gatlinburg.png,US_Cities_List/carmel.png,,,,,,,,,,,,,,,,,,
null,,black_cross(without_color),638430,,,yellow,,,,,null,US_Cities_List/gatlinburg.png,US_Cities_List/carmel.png,,,,,,,,,,,,,,,,,,
null,,rt_plussign_withcolor,638932,,,yellow,,,,,null,US_Cities_List/gatlinburg.png,US_Cities_List/carmel.png,,,,,,,,,,,,,,,,,,
1468.6000000238419,,rt_thecrossant_black,640298,,,black_plus_sign,,,,,50,,,1,1,,,,,,,,,,,,,,,,
null,,color_black,640405,,,black_plus_sign,,,,,null,,,,,,,,,,,,,,,,,,,,
null,,learn_phase(without_color),643420,,,black_plus_sign,,,,,null,US_Cities_List/leesburg.png,US_Cities_List/boulder.png,,,,,,,,,,,,,,,,,,
null,,black_cross(without_color),644520,,,yellow,,,,,null,US_Cities_List/leesburg.png,US_Cities_List/boulder.png,,,,,,,,,,,,,,,,,,
null,,rt_plussign_withcolor,645021,,,yellow,,,,,null,US_Cities_List/leesburg.png,US_Cities_List/boulder.png,,,,,,,,,,,,,,,,,,
1619.199999988079,,rt_thecrossant_black,645923,,,black_plus_sign,,,,,50,,,1,1,,,,,,,,,,,,,,,,
null,,color_black,646024,,,black_plus_sign,,,,,null,,,,,,,,,,,,,,,,,,,,
null,,learn_phase(without_color),649038,,,black_plus_sign,,,,,null,US_Cities_List/peoria.png,US_Cities_List/hotsprings.png,,,,,,,,,,,,,,,,,,
null,,black_cross(without_color),649925,,,blue,,,,,null,US_Cities_List/peoria.png,US_Cities_List/hotsprings.png,,,,,,,,,,,,,,,,,,
null,,rt_plussign_withcolor,650426,,,blue,,,,,null,US_Cities_List/peoria.png,US_Cities_List/hotsprings.png,,,,,,,,,,,,,,,,,,
2309.699999988079,,rt_thecrossant_black,651551,,,black_plus_sign,,,,,49,,,1,1,,,,,,,,,,,,,,,,
null,,color_black,651654,,,black_plus_sign,,,,,null,,,,,,,,,,,,,,,,,,,,
null,,learn_phase(without_color),654672,,,black_plus_sign,,,,,null,US_Cities_List/shreveport.png,US_Cities_List/racine.png,,,,,,,,,,,,,,,,,,
null,,black_cross(without_color),655587,,,yellow,,,,,null,US_Cities_List/shreveport.png,US_Cities_List/racine.png,,,,,,,,,,,,,,,,,,
null,,rt_plussign_withcolor,656089,,,yellow,,,,,null,US_Cities_List/shreveport.png,US_Cities_List/racine.png,,,,,,,,,,,,,,,,,,
1963.7999999821186,,rt_thecrossant_black,657176,,,black_plus_sign,,,,,50,,,1,1,,,,,,,,,,,,,,,,
null,,color_black,657279,,,black_plus_sign,,,,,null,,,,,,,,,,,,,,,,,,,,
null,,learn_phase(without_color),660298,,,black_plus_sign,,,,,null,US_Cities_List/cornwall.png,US_Cities_List/hanover.png,,,,,,,,,,,,,,,,,,
null,,black_cross(without_color),661044,,,yellow,,,,,null,US_Cities_List/cornwall.png,US_Cities_List/hanover.png,,,,,,,,,,,,,,,,,,
null,,rt_plussign_withcolor,661545,,,yellow,,,,,null,US_Cities_List/cornwall.png,US_Cities_List/hanover.png,,,,,,,,,,,,,,,,,,
2114.0999999940395,,rt_thecrossant_black,662803,,,black_plus_sign,,,,,50,,,1,1,,,,,,,,,,,,,,,,
null,,color_black,662905,,,black_plus_sign,,,,,null,,,,,,,,,,,,,,,,,,,,
null,,learn_phase(without_color),665924,,,black_plus_sign,,,,,null,US_Cities_List/newhope.png,US_Cities_List/hotsprings.png,,,,,,,,,,,,,,,,,,
null,,black_cross(without_color),666543,,,blue,,,,,null,US_Cities_List/newhope.png,US_Cities_List/hotsprings.png,,,,,,,,,,,,,,,,,,
null,,rt_plussign_withcolor,667044,,,blue,,,,,null,US_Cities_List/newhope.png,US_Cities_List/hotsprings.png,,,,,,,,,,,,,,,,,,
1967.699999988079,,rt_thecrossant_black,668428,,,black_plus_sign,,,,,49,,,1,1,,,,,,,,,,,,,,,,
null,,color_black,668530,,,black_plus_sign,,,,,null,,,,,,,,,,,,,,,,,,,,
null,,learn_phase(without_color),671543,,,black_plus_sign,,,,,null,US_Cities_List/newhope.png,US_Cities_List/hotsprings.png,,,,,,,,,,,,,,,,,,
null,,black_cross(without_color),672618,,,blue,,,,,null,US_Cities_List/newhope.png,US_Cities_List/hotsprings.png,,,,,,,,,,,,,,,,,,
null,,rt_plussign_withcolor,673120,,,blue,,,,,null,US_Cities_List/newhope.png,US_Cities_List/hotsprings.png,,,,,,,,,,,,,,,,,,
null,,rt_thecrossant_black,674048,,,black_plus_sign,,,,,null,,,1,,,,,,,,,,,,,,,,,
null,,color_black,674150,,,black_plus_sign,,,,,null,,,,,,,,,,,,,,,,,,,,
null,,learn_phase(without_color),677163,,,black_plus_sign,,,,,null,US_Cities_List/newhope.png,US_Cities_List/huntsville.png,,,,,,,,,,,,,,,,,,
null,,black_cross(without_color),677740,,,blue,,,,,null,US_Cities_List/newhope.png,US_Cities_List/huntsville.png,,,,,,,,,,,,,,,,,,
null,,rt_plussign_withcolor,678242,,,blue,,,,,null,US_Cities_List/newhope.png,US_Cities_List/huntsville.png,,,,,,,,,,,,,,,,,,
2345.399999976158,,rt_thecrossant_black,679670,,,black_plus_sign,,,,,49,,,1,1,,,,,,,,,,,,,,,,
null,,color_black,679771,,,black_plus_sign,,,,,null,,,,,,,,,,,,,,,,,,,,
null,,learn_phase(without_color),682787,,,black_plus_sign,,,,,null,US_Cities_List/leesburg.png,US_Cities_List/racine.png,,,,,,,,,,,,,,,,,,
null,,black_cross(without_color),683362,,,yellow,,,,,null,US_Cities_List/leesburg.png,US_Cities_List/racine.png,,,,,,,,,,,,,,,,,,
null,,rt_plussign_withcolor,683863,,,yellow,,,,,null,US_Cities_List/leesburg.png,US_Cities_List/racine.png,,,,,,,,,,,,,,,,,,
1677.4000000059605,,rt_thecrossant_black,685291,,,black_plus_sign,,,,,50,,,1,1,,,,,,,,,,,,,,,,
null,,color_black,685393,,,black_plus_sign,,,,,null,,,,,,,,,,,,,,,,,,,,
null,,learn_phase(without_color),688406,,,black_plus_sign,,,,,null,US_Cities_List/carmel.png,US_Cities_List/shreveport.png,,,,,,,,,,,,,,,,,,
null,,black_cross(without_color),688898,,,yellow,,,,,null,US_Cities_List/carmel.png,US_Cities_List/shreveport.png,,,,,,,,,,,,,,,,,,
null,,rt_plussign_withcolor,689400,,,yellow,,,,,null,US_Cities_List/carmel.png,US_Cities_List/shreveport.png,,,,,,,,,,,,,,,,,,
1304.4000000059605,,rt_thecrossant_black,690912,,,black_plus_sign,,,,,50,,,1,1,,,,,,,,,,,,,,,,
null,,color_black,691013,,,black_plus_sign,,,,,null,,,,,,,,,,,,,,,,,,,,
null,,learn_phase(without_color),694027,,,black_plus_sign,,,,,null,US_Cities_List/leesburg.png,US_Cities_List/boulder.png,,,,,,,,,,,,,,,,,,
null,,black_cross(without_color),694824,,,blue,,,,,null,US_Cities_List/leesburg.png,US_Cities_List/boulder.png,,,,,,,,,,,,,,,,,,
null,,rt_plussign_withcolor,695326,,,blue,,,,,null,US_Cities_List/leesburg.png,US_Cities_List/boulder.png,,,,,,,,,,,,,,,,,,
1424.5,,rt_thecrossant_black,696534,,,black_plus_sign,,,,,49,,,1,1,,,,,,,,,,,,,,,,
null,,color_black,696647,,,black_plus_sign,,,,,null,,,,,,,,,,,,,,,,,,,,
null,,learn_phase(without_color),699665,,,black_plus_sign,,,,,null,US_Cities_List/cornwall.png,US_Cities_List/westpalmbeach.png,,,,,,,,,,,,,,,,,,
null,,black_cross(without_color),700293,,,blue,,,,,null,US_Cities_List/cornwall.png,US_Cities_List/westpalmbeach.png,,,,,,,,,,,,,,,,,,
null,,rt_plussign_withcolor,700794,,,blue,,,,,null,US_Cities_List/cornwall.png,US_Cities_List/westpalmbeach.png,,,,,,,,,,,,,,,,,,
1647.8999999761581,,rt_thecrossant_black,702170,,,black_plus_sign,,,,,49,,,1,1,,,,,,,,,,,,,,,,
null,,color_black,702272,,,black_plus_sign,,,,,null,,,,,,,,,,,,,,,,,,,,
null,,learn_phase(without_color),705288,,,black_plus_sign,,,,,null,US_Cities_List/boulder.png,US_Cities_List/leesburg.png,,,,,,,,,,,,,,,,,,
null,,black_cross(without_color),706199,,,yellow,,,,,null,US_Cities_List/boulder.png,US_Cities_List/leesburg.png,,,,,,,,,,,,,,,,,,
null,,rt_plussign_withcolor,706701,,,yellow,,,,,null,US_Cities_List/boulder.png,US_Cities_List/leesburg.png,,,,,,,,,,,,,,,,,,
1559.800000011921,,rt_thecrossant_black,707794,,,black_plus_sign,,,,,50,,,1,1,,,,,,,,,,,,,,,,
null,,color_black,707895,,,black_plus_sign,,,,,null,,,,,,,,,,,,,,,,,,,,
null,,learn_phase(without_color),710912,,,black_plus_sign,,,,,null,US_Cities_List/racine.png,US_Cities_List/leesburg.png,,,,,,,,,,,,,,,,,,
null,,black_cross(without_color),711948,,,yellow,,,,,null,US_Cities_List/racine.png,US_Cities_List/leesburg.png,,,,,,,,,,,,,,,,,,
null,,rt_plussign_withcolor,712449,,,yellow,,,,,null,US_Cities_List/racine.png,US_Cities_List/leesburg.png,,,,,,,,,,,,,,,,,,
1855,,rt_thecrossant_black,713417,,,black_plus_sign,,,,,50,,,1,1,,,,,,,,,,,,,,,,
null,,color_black,713518,,,black_plus_sign,,,,,null,,,,,,,,,,,,,,,,,,,,
null,,learn_phase(without_color),716538,,,black_plus_sign,,,,,null,US_Cities_List/racine.png,US_Cities_List/leesburg.png,,,,,,,,,,,,,,,,,,
null,,black_cross(without_color),717264,,,blue,,,,,null,US_Cities_List/racine.png,US_Cities_List/leesburg.png,,,,,,,,,,,,,,,,,,
null,,rt_plussign_withcolor,717765,,,blue,,,,,null,US_Cities_List/racine.png,US_Cities_List/leesburg.png,,,,,,,,,,,,,,,,,,
1984.5,,rt_thecrossant_black,719044,,,black_plus_sign,,,,,49,,,1,1,,,,,,,,,,,,,,,,
null,,color_black,719145,,,black_plus_sign,,,,,null,,,,,,,,,,,,,,,,,,,,
null,,learn_phase(without_color),722160,,,black_plus_sign,,,,,null,US_Cities_List/shreveport.png,US_Cities_List/carmel.png,,,,,,,,,,,,,,,,,,
null,,black_cross(without_color),722723,,,blue,,,,,null,US_Cities_List/shreveport.png,US_Cities_List/carmel.png,,,,,,,,,,,,,,,,,,
null,,rt_plussign_withcolor,723225,,,blue,,,,,null,US_Cities_List/shreveport.png,US_Cities_List/carmel.png,,,,,,,,,,,,,,,,,,
1525,,rt_thecrossant_black,724666,,,black_plus_sign,,,,,49,,,1,1,,,,,,,,,,,,,,,,
null,,color_black,724767,,,black_plus_sign,,,,,null,,,,,,,,,,,,,,,,,,,,
null,,learn_phase(without_color),727781,,,black_plus_sign,,,,,null,US_Cities_List/hotsprings.png,US_Cities_List/newhope.png,,,,,,,,,,,,,,,,,,
null,,black_cross(without_color),728686,,,yellow,,,,,null,US_Cities_List/hotsprings.png,US_Cities_List/newhope.png,,,,,,,,,,,,,,,,,,
null,,rt_plussign_withcolor,729188,,,yellow,,,,,null,US_Cities_List/hotsprings.png,US_Cities_List/newhope.png,,,,,,,,,,,,,,,,,,
1483.5,,rt_thecrossant_black,730287,,,black_plus_sign,,,,,50,,,1,1,,,,,,,,,,,,,,,,
null,,color_black,730389,,,black_plus_sign,,,,,null,,,,,,,,,,,,,,,,,,,,
null,,learn_phase(without_color),733403,,,black_plus_sign,,,,,null,US_Cities_List/leesburg.png,US_Cities_List/racine.png,,,,,,,,,,,,,,,,,,
null,,black_cross(without_color),734240,,,yellow,,,,,null,US_Cities_List/leesburg.png,US_Cities_List/racine.png,,,,,,,,,,,,,,,,,,
null,,rt_plussign_withcolor,734742,,,yellow,,,,,null,US_Cities_List/leesburg.png,US_Cities_List/racine.png,,,,,,,,,,,,,,,,,,
1786.0999999940395,,rt_thecrossant_black,735909,,,black_plus_sign,,,,,50,,,1,1,,,,,,,,,,,,,,,,
null,,color_black,736011,,,black_plus_sign,,,,,null,,,,,,,,,,,,,,,,,,,,
null,,learn_phase(without_color),739025,,,black_plus_sign,,,,,null,US_Cities_List/carmel.png,US_Cities_List/shreveport.png,,,,,,,,,,,,,,,,,,
null,,black_cross(without_color),739857,,,blue,,,,,null,US_Cities_List/carmel.png,US_Cities_List/shreveport.png,,,,,,,,,,,,,,,,,,
null,,rt_plussign_withcolor,740359,,,blue,,,,,null,US_Cities_List/carmel.png,US_Cities_List/shreveport.png,,,,,,,,,,,,,,,,,,
1786.4000000059605,,rt_thecrossant_black,741531,,,black_plus_sign,,,,,49,,,1,1,,,,,,,,,,,,,,,,
null,,color_black,741633,,,black_plus_sign,,,,,null,,,,,,,,,,,,,,,,,,,,
null,,learn_phase(without_color),744651,,,black_plus_sign,,,,,null,US_Cities_List/shreveport.png,US_Cities_List/newhope.png,,,,,,,,,,,,,,,,,,
null,,black_cross(without_color),745226,,,yellow,,,,,null,US_Cities_List/shreveport.png,US_Cities_List/newhope.png,,,,,,,,,,,,,,,,,,
null,,rt_plussign_withcolor,745727,,,yellow,,,,,null,US_Cities_List/shreveport.png,US_Cities_List/newhope.png,,,,,,,,,,,,,,,,,,
1777.199999988079,,rt_thecrossant_black,747163,,,black_plus_sign,,,,,50,,,1,1,,,,,,,,,,,,,,,,
null,,color_black,747264,,,black_plus_sign,,,,,null,,,,,,,,,,,,,,,,,,,,
null,,learn_phase(without_color),750278,,,black_plus_sign,,,,,null,US_Cities_List/hotsprings.png,US_Cities_List/peoria.png,,,,,,,,,,,,,,,,,,
null,,black_cross(without_color),751138,,,blue,,,,,null,US_Cities_List/hotsprings.png,US_Cities_List/peoria.png,,,,,,,,,,,,,,,,,,
null,,rt_plussign_withcolor,751639,,,blue,,,,,null,US_Cities_List/hotsprings.png,US_Cities_List/peoria.png,,,,,,,,,,,,,,,,,,
1440.3999999761581,,rt_thecrossant_black,752783,,,black_plus_sign,,,,,49,,,1,1,,,,,,,,,,,,,,,,
null,,color_black,752885,,,black_plus_sign,,,,,null,,,,,,,,,,,,,,,,,,,,
null,,learn_phase(without_color),755903,,,black_plus_sign,,,,,null,US_Cities_List/newhope.png,US_Cities_List/shreveport.png,,,,,,,,,,,,,,,,,,
null,,black_cross(without_color),756862,,,blue,,,,,null,US_Cities_List/newhope.png,US_Cities_List/shreveport.png,,,,,,,,,,,,,,,,,,
null,,rt_plussign_withcolor,757364,,,blue,,,,,null,US_Cities_List/newhope.png,US_Cities_List/shreveport.png,,,,,,,,,,,,,,,,,,
1843,,rt_thecrossant_black,758409,,,black_plus_sign,,,,,49,,,1,1,,,,,,,,,,,,,,,,
null,,color_black,758511,,,black_plus_sign,,,,,null,,,,,,,,,,,,,,,,,,,,
null,,learn_phase(without_color),761529,,,black_plus_sign,,,,,null,US_Cities_List/newhope.png,US_Cities_List/shreveport.png,,,,,,,,,,,,,,,,,,
null,,black_cross(without_color),762164,,,blue,,,,,null,US_Cities_List/newhope.png,US_Cities_List/shreveport.png,,,,,,,,,,,,,,,,,,
null,,rt_plussign_withcolor,762666,,,blue,,,,,null,US_Cities_List/newhope.png,US_Cities_List/shreveport.png,,,,,,,,,,,,,,,,,,
null,,rt_thecrossant_black,764034,,,black_plus_sign,,,,,null,,,1,,,,,,,,,,,,,,,,,
null,,color_black,764135,,,black_plus_sign,,,,,null,,,,,,,,,,,,,,,,,,,,
null,,learn_phase(without_color),767152,,,black_plus_sign,,,,,null,US_Cities_List/shreveport.png,US_Cities_List/racine.png,,,,,,,,,,,,,,,,,,
null,,black_cross(without_color),767604,,,blue,,,,,null,US_Cities_List/shreveport.png,US_Cities_List/racine.png,,,,,,,,,,,,,,,,,,
null,,rt_plussign_withcolor,768106,,,blue,,,,,null,US_Cities_List/shreveport.png,US_Cities_List/racine.png,,,,,,,,,,,,,,,,,,
1528.9000000059605,,rt_thecrossant_black,769657,,,black_plus_sign,,,,,49,,,1,1,,,,,,,,,,,,,,,,
null,,color_black,769758,,,black_plus_sign,,,,,null,,,,,,,,,,,,,,,,,,,,
null,,learn_phase(without_color),772771,,,black_plus_sign,,,,,null,US_Cities_List/racine.png,US_Cities_List/shreveport.png,,,,,,,,,,,,,,,,,,
null,,black_cross(without_color),773854,,,yellow,,,,,null,US_Cities_List/racine.png,US_Cities_List/shreveport.png,,,,,,,,,,,,,,,,,,
null,,rt_plussign_withcolor,774356,,,yellow,,,,,null,US_Cities_List/racine.png,US_Cities_List/shreveport.png,,,,,,,,,,,,,,,,,,
null,,rt_thecrossant_black,775276,,,black_plus_sign,,,,,null,,,1,,,,,,,,,,,,,,,,,
null,,color_black,775378,,,black_plus_sign,,,,,null,,,,,,,,,,,,,,,,,,,,
null,,learn_phase(without_color),778395,,,black_plus_sign,,,,,null,US_Cities_List/cornwall.png,US_Cities_List/hanover.png,,,,,,,,,,,,,,,,,,
null,,black_cross(without_color),779268,,,yellow,,,,,null,US_Cities_List/cornwall.png,US_Cities_List/hanover.png,,,,,,,,,,,,,,,,,,
null,,rt_plussign_withcolor,779769,,,yellow,,,,,null,US_Cities_List/cornwall.png,US_Cities_List/hanover.png,,,,,,,,,,,,,,,,,,
2049.5999999940395,,rt_thecrossant_black,780900,,,black_plus_sign,,,,,50,,,1,1,,,,,,,,,,,,,,,,
null,,color_black,781002,,,black_plus_sign,,,,,null,,,,,,,,,,,,,,,,,,,,
null,,learn_phase(without_color),784030,,,black_plus_sign,,,,,null,US_Cities_List/cornwall.png,US_Cities_List/hotsprings.png,,,,,,,,,,,,,,,,,,
null,,black_cross(without_color),784843,,,yellow,,,,,null,US_Cities_List/cornwall.png,US_Cities_List/hotsprings.png,,,,,,,,,,,,,,,,,,
null,,rt_plussign_withcolor,785345,,,yellow,,,,,null,US_Cities_List/cornwall.png,US_Cities_List/hotsprings.png,,,,,,,,,,,,,,,,,,
1829.300000011921,,rt_thecrossant_black,786536,,,black_plus_sign,,,,,50,,,1,1,,,,,,,,,,,,,,,,
null,,color_black,786637,,,black_plus_sign,,,,,null,,,,,,,,,,,,,,,,,,,,
null,,learn_phase(without_color),789651,,,black_plus_sign,,,,,null,US_Cities_List/leesburg.png,US_Cities_List/carmel.png,,,,,,,,,,,,,,,,,,
null,,black_cross(without_color),790347,,,blue,,,,,null,US_Cities_List/leesburg.png,US_Cities_List/carmel.png,,,,,,,,,,,,,,,,,,
null,,rt_plussign_withcolor,790849,,,blue,,,,,null,US_Cities_List/leesburg.png,US_Cities_List/carmel.png,,,,,,,,,,,,,,,,,,
1702.2999999821186,,rt_thecrossant_black,792157,,,black_plus_sign,,,,,49,,,1,1,,,,,,,,,,,,,,,,
null,,color_black,792258,,,black_plus_sign,,,,,null,,,,,,,,,,,,,,,,,,,,
null,,learn_phase(without_color),795280,,,black_plus_sign,,,,,null,US_Cities_List/westpalmbeach.png,US_Cities_List/cornwall.png,,,,,,,,,,,,,,,,,,
null,,black_cross(without_color),795789,,,yellow,,,,,null,US_Cities_List/westpalmbeach.png,US_Cities_List/cornwall.png,,,,,,,,,,,,,,,,,,
null,,rt_plussign_withcolor,796291,,,yellow,,,,,null,US_Cities_List/westpalmbeach.png,US_Cities_List/cornwall.png,,,,,,,,,,,,,,,,,,
1455.4000000059605,,rt_thecrossant_black,797785,,,black_plus_sign,,,,,50,,,1,1,,,,,,,,,,,,,,,,
null,,color_black,797887,,,black_plus_sign,,,,,null,,,,,,,,,,,,,,,,,,,,
null,,learn_phase(without_color),800898,,,black_plus_sign,,,,,null,US_Cities_List/huntsville.png,US_Cities_List/hanover.png,,,,,,,,,,,,,,,,,,
null,,black_cross(without_color),801490,,,blue,,,,,null,US_Cities_List/huntsville.png,US_Cities_List/hanover.png,,,,,,,,,,,,,,,,,,
null,,rt_plussign_withcolor,801992,,,blue,,,,,null,US_Cities_List/huntsville.png,US_Cities_List/hanover.png,,,,,,,,,,,,,,,,,,
1648.9000000059605,,rt_thecrossant_black,803404,,,black_plus_sign,,,,,49,,,1,1,,,,,,,,,,,,,,,,
null,,color_black,803513,,,black_plus_sign,,,,,null,,,,,,,,,,,,,,,,,,,,
null,,learn_phase(without_color),806529,,,black_plus_sign,,,,,null,US_Cities_List/carmel.png,US_Cities_List/gatlinburg.png,,,,,,,,,,,,,,,,,,
null,,black_cross(without_color),807383,,,blue,,,,,null,US_Cities_List/carmel.png,US_Cities_List/gatlinburg.png,,,,,,,,,,,,,,,,,,
null,,rt_plussign_withcolor,807893,,,blue,,,,,null,US_Cities_List/carmel.png,US_Cities_List/gatlinburg.png,,,,,,,,,,,,,,,,,,
null,,rt_thecrossant_black,809043,,,black_plus_sign,,,,,null,,,1,,,,,,,,,,,,,,,,,
null,,color_black,809152,,,black_plus_sign,,,,,null,,,,,,,,,,,,,,,,,,,,
null,,learn_phase(without_color),812168,,,black_plus_sign,,,,,null,US_Cities_List/leesburg.png,US_Cities_List/carmel.png,,,,,,,,,,,,,,,,,,
null,,black_cross(without_color),812870,,,yellow,,,,,null,US_Cities_List/leesburg.png,US_Cities_List/carmel.png,,,,,,,,,,,,,,,,,,
null,,rt_plussign_withcolor,813372,,,yellow,,,,,null,US_Cities_List/leesburg.png,US_Cities_List/carmel.png,,,,,,,,,,,,,,,,,,
1961.8999999761581,,rt_thecrossant_black,814672,,,black_plus_sign,,,,,50,,,1,1,,,,,,,,,,,,,,,,
null,,color_black,814773,,,black_plus_sign,,,,,null,,,,,,,,,,,,,,,,,,,,
null,,learn_phase(without_color),817790,,,black_plus_sign,,,,,null,US_Cities_List/shreveport.png,US_Cities_List/carmel.png,,,,,,,,,,,,,,,,,,
null,,black_cross(without_color),818421,,,blue,,,,,null,US_Cities_List/shreveport.png,US_Cities_List/carmel.png,,,,,,,,,,,,,,,,,,
null,,rt_plussign_withcolor,818925,,,blue,,,,,null,US_Cities_List/shreveport.png,US_Cities_List/carmel.png,,,,,,,,,,,,,,,,,,
1707.2999999821186,,rt_thecrossant_black,820297,,,black_plus_sign,,,,,49,,,1,1,,,,,,,,,,,,,,,,
null,,color_black,820399,,,black_plus_sign,,,,,null,,,,,,,,,,,,,,,,,,,,
null,,learn_phase(without_color),823416,,,black_plus_sign,,,,,null,US_Cities_List/carmel.png,US_Cities_List/gatlinburg.png,,,,,,,,,,,,,,,,,,
null,,black_cross(without_color),824248,,,yellow,,,,,null,US_Cities_List/carmel.png,US_Cities_List/gatlinburg.png,,,,,,,,,,,,,,,,,,
null,,rt_plussign_withcolor,824750,,,yellow,,,,,null,US_Cities_List/carmel.png,US_Cities_List/gatlinburg.png,,,,,,,,,,,,,,,,,,
1744.2000000178814,,rt_thecrossant_black,825934,,,black_plus_sign,,,,,50,,,1,1,,,,,,,,,,,,,,,,
null,,color_black,826035,,,black_plus_sign,,,,,null,,,,,,,,,,,,,,,,,,,,
null,,learn_phase(without_color),829049,,,black_plus_sign,,,,,null,US_Cities_List/leesburg.png,US_Cities_List/racine.png,,,,,,,,,,,,,,,,,,
null,,black_cross(without_color),829840,,,yellow,,,,,null,US_Cities_List/leesburg.png,US_Cities_List/racine.png,,,,,,,,,,,,,,,,,,
null,,rt_plussign_withcolor,830343,,,yellow,,,,,null,US_Cities_List/leesburg.png,US_Cities_List/racine.png,,,,,,,,,,,,,,,,,,
1383,,rt_thecrossant_black,831556,,,black_plus_sign,,,,,50,,,1,1,,,,,,,,,,,,,,,,
null,,color_black,831658,,,black_plus_sign,,,,,null,,,,,,,,,,,,,,,,,,,,
null,,learn_phase(without_color),834670,,,black_plus_sign,,,,,null,US_Cities_List/huntsville.png,US_Cities_List/racine.png,,,,,,,,,,,,,,,,,,
null,,black_cross(without_color),835679,,,blue,,,,,null,US_Cities_List/huntsville.png,US_Cities_List/racine.png,,,,,,,,,,,,,,,,,,
null,,rt_plussign_withcolor,836181,,,blue,,,,,null,US_Cities_List/huntsville.png,US_Cities_List/racine.png,,,,,,,,,,,,,,,,,,
1836.699999988079,,rt_thecrossant_black,837175,,,black_plus_sign,,,,,49,,,1,1,,,,,,,,,,,,,,,,
null,,color_black,837283,,,black_plus_sign,,,,,null,,,,,,,,,,,,,,,,,,,,
null,,learn_phase(without_color),840297,,,black_plus_sign,,,,,null,US_Cities_List/shreveport.png,US_Cities_List/newhope.png,,,,,,,,,,,,,,,,,,
null,,black_cross(without_color),840702,,,yellow,,,,,null,US_Cities_List/shreveport.png,US_Cities_List/newhope.png,,,,,,,,,,,,,,,,,,
null,,rt_plussign_withcolor,841211,,,yellow,,,,,null,US_Cities_List/shreveport.png,US_Cities_List/newhope.png,,,,,,,,,,,,,,,,,,
1576,,rt_thecrossant_black,842808,,,black_plus_sign,,,,,50,,,1,1,,,,,,,,,,,,,,,,
null,,color_black,842909,,,black_plus_sign,,,,,null,,,,,,,,,,,,,,,,,,,,
null,,learn_phase(without_color),845926,,,black_plus_sign,,,,,null,US_Cities_List/racine.png,US_Cities_List/shreveport.png,,,,,,,,,,,,,,,,,,
null,,black_cross(without_color),846609,,,blue,,,,,null,US_Cities_List/racine.png,US_Cities_List/shreveport.png,,,,,,,,,,,,,,,,,,
null,,rt_plussign_withcolor,847111,,,blue,,,,,null,US_Cities_List/racine.png,US_Cities_List/shreveport.png,,,,,,,,,,,,,,,,,,
1586.9000000059605,,rt_thecrossant_black,848431,,,black_plus_sign,,,,,49,,,1,1,,,,,,,,,,,,,,,,
null,,color_black,848533,,,black_plus_sign,,,,,null,,,,,,,,,,,,,,,,,,,,
null,,learn_break,908535,,,learn_break,,,,,null,,,,,,,,,,,,,,,,,,,,
null,,html-keyboard-response,909536,,,<p></p>,,,,,null,,,,,,,,,,,,,,,,,,,,
null,,learn_phase(without_color),912553,,,black_plus_sign,,,,,null,US_Cities_List/newhope.png,US_Cities_List/shreveport.png,,,,,,,,,,,,,,,,,,
null,,black_cross(without_color),913257,,,blue,,,,,null,US_Cities_List/newhope.png,US_Cities_List/shreveport.png,,,,,,,,,,,,,,,,,,
null,,rt_plussign_withcolor,913758,,,blue,,,,,null,US_Cities_List/newhope.png,US_Cities_List/shreveport.png,,,,,,,,,,,,,,,,,,
null,,rt_thecrossant_black,915057,,,black_plus_sign,,,,,null,,,1,,,,,,,,,,,,,,,,,
null,,color_black,915158,,,black_plus_sign,,,,,null,,,,,,,,,,,,,,,,,,,,
null,,learn_phase(without_color),918176,,,black_plus_sign,,,,,null,US_Cities_List/hotsprings.png,US_Cities_List/cornwall.png,,,,,,,,,,,,,,,,,,
null,,black_cross(without_color),919268,,,blue,,,,,null,US_Cities_List/hotsprings.png,US_Cities_List/cornwall.png,,,,,,,,,,,,,,,,,,
null,,rt_plussign_withcolor,919769,,,blue,,,,,null,US_Cities_List/hotsprings.png,US_Cities_List/cornwall.png,,,,,,,,,,,,,,,,,,
null,,rt_thecrossant_black,920681,,,black_plus_sign,,,,,null,,,1,,,,,,,,,,,,,,,,,
null,,warning_page,923684,,,warning,,,,,null,,,,,,,,,,,,,,,,,,,,
null,,color_black,923786,,,black_plus_sign,,,,,null,,,,,,,,,,,,,,,,,,,,
null,,learn_phase(without_color),926806,,,black_plus_sign,,,,,null,US_Cities_List/leesburg.png,US_Cities_List/racine.png,,,,,,,,,,,,,,,,,,
null,,black_cross(without_color),927209,,,yellow,,,,,null,US_Cities_List/leesburg.png,US_Cities_List/racine.png,,,,,,,,,,,,,,,,,,
null,,rt_plussign_withcolor,927712,,,yellow,,,,,null,US_Cities_List/leesburg.png,US_Cities_List/racine.png,,,,,,,,,,,,,,,,,,
null,,rt_thecrossant_black,929311,,,black_plus_sign,,,,,null,,,1,,,,,,,,,,,,,,,,,
null,,warning_page,932313,,,warning,,,,,null,,,,,,,,,,,,,,,,,,,,
null,,color_black,932415,,,black_plus_sign,,,,,null,,,,,,,,,,,,,,,,,,,,
null,,learn_phase(without_color),935434,,,black_plus_sign,,,,,null,US_Cities_List/hotsprings.png,US_Cities_List/cornwall.png,,,,,,,,,,,,,,,,,,
null,,black_cross(without_color),936171,,,blue,,,,,null,US_Cities_List/hotsprings.png,US_Cities_List/cornwall.png,,,,,,,,,,,,,,,,,,
null,,rt_plussign_withcolor,936672,,,blue,,,,,null,US_Cities_List/hotsprings.png,US_Cities_List/cornwall.png,,,,,,,,,,,,,,,,,,
842.4000000059605,,rt_thecrossant_black,937939,,,black_plus_sign,,,,,49,,,1,1,,,,,,,,,,,,,,,,
null,,color_black,938041,,,black_plus_sign,,,,,null,,,,,,,,,,,,,,,,,,,,
null,,learn_phase(without_color),941061,,,black_plus_sign,,,,,null,US_Cities_List/hanover.png,US_Cities_List/cornwall.png,,,,,,,,,,,,,,,,,,
null,,black_cross(without_color),941848,,,yellow,,,,,null,US_Cities_List/hanover.png,US_Cities_List/cornwall.png,,,,,,,,,,,,,,,,,,
null,,rt_plussign_withcolor,942350,,,yellow,,,,,null,US_Cities_List/hanover.png,US_Cities_List/cornwall.png,,,,,,,,,,,,,,,,,,
1484.2999999821186,,rt_thecrossant_black,943567,,,black_plus_sign,,,,,50,,,1,1,,,,,,,,,,,,,,,,
null,,color_black,943670,,,black_plus_sign,,,,,null,,,,,,,,,,,,,,,,,,,,
null,,learn_phase(without_color),946684,,,black_plus_sign,,,,,null,US_Cities_List/peoria.png,US_Cities_List/hotsprings.png,,,,,,,,,,,,,,,,,,
null,,black_cross(without_color),947617,,,blue,,,,,null,US_Cities_List/peoria.png,US_Cities_List/hotsprings.png,,,,,,,,,,,,,,,,,,
null,,rt_plussign_withcolor,948119,,,blue,,,,,null,US_Cities_List/peoria.png,US_Cities_List/hotsprings.png,,,,,,,,,,,,,,,,,,
1764.2999999821186,,rt_thecrossant_black,949189,,,black_plus_sign,,,,,49,,,1,1,,,,,,,,,,,,,,,,
null,,color_black,949292,,,black_plus_sign,,,,,null,,,,,,,,,,,,,,,,,,,,
null,,learn_phase(without_color),952309,,,black_plus_sign,,,,,null,US_Cities_List/hotsprings.png,US_Cities_List/newhope.png,,,,,,,,,,,,,,,,,,
null,,black_cross(without_color),953155,,,blue,,,,,null,US_Cities_List/hotsprings.png,US_Cities_List/newhope.png,,,,,,,,,,,,,,,,,,
null,,rt_plussign_withcolor,953657,,,blue,,,,,null,US_Cities_List/hotsprings.png,US_Cities_List/newhope.png,,,,,,,,,,,,,,,,,,
1826.300000011921,,rt_thecrossant_black,954815,,,black_plus_sign,,,,,49,,,1,1,,,,,,,,,,,,,,,,
null,,color_black,954917,,,black_plus_sign,,,,,null,,,,,,,,,,,,,,,,,,,,
null,,learn_phase(without_color),957931,,,black_plus_sign,,,,,null,US_Cities_List/carmel.png,US_Cities_List/racine.png,,,,,,,,,,,,,,,,,,
null,,black_cross(without_color),958743,,,yellow,,,,,null,US_Cities_List/carmel.png,US_Cities_List/racine.png,,,,,,,,,,,,,,,,,,
null,,rt_plussign_withcolor,959245,,,yellow,,,,,null,US_Cities_List/carmel.png,US_Cities_List/racine.png,,,,,,,,,,,,,,,,,,
1714.300000011921,,rt_thecrossant_black,960435,,,black_plus_sign,,,,,50,,,1,1,,,,,,,,,,,,,,,,
null,,color_black,960537,,,black_plus_sign,,,,,null,,,,,,,,,,,,,,,,,,,,
null,,learn_phase(without_color),963559,,,black_plus_sign,,,,,null,US_Cities_List/shreveport.png,US_Cities_List/carmel.png,,,,,,,,,,,,,,,,,,
null,,black_cross(without_color),964413,,,blue,,,,,null,US_Cities_List/shreveport.png,US_Cities_List/carmel.png,,,,,,,,,,,,,,,,,,
null,,rt_plussign_withcolor,964915,,,blue,,,,,null,US_Cities_List/shreveport.png,US_Cities_List/carmel.png,,,,,,,,,,,,,,,,,,
1746.5,,rt_thecrossant_black,966064,,,black_plus_sign,,,,,49,,,1,1,,,,,,,,,,,,,,,,
null,,color_black,966166,,,black_plus_sign,,,,,null,,,,,,,,,,,,,,,,,,,,
null,,learn_phase(without_color),969179,,,black_plus_sign,,,,,null,US_Cities_List/racine.png,US_Cities_List/huntsville.png,,,,,,,,,,,,,,,,,,
null,,black_cross(without_color),970255,,,blue,,,,,null,US_Cities_List/racine.png,US_Cities_List/huntsville.png,,,,,,,,,,,,,,,,,,
null,,rt_plussign_withcolor,970757,,,blue,,,,,null,US_Cities_List/racine.png,US_Cities_List/huntsville.png,,,,,,,,,,,,,,,,,,
null,,rt_thecrossant_black,971684,,,black_plus_sign,,,,,null,,,1,,,,,,,,,,,,,,,,,
null,,color_black,971785,,,black_plus_sign,,,,,null,,,,,,,,,,,,,,,,,,,,
null,,learn_phase(without_color),974799,,,black_plus_sign,,,,,null,US_Cities_List/huntsville.png,US_Cities_List/racine.png,,,,,,,,,,,,,,,,,,
null,,black_cross(without_color),975533,,,yellow,,,,,null,US_Cities_List/huntsville.png,US_Cities_List/racine.png,,,,,,,,,,,,,,,,,,
null,,rt_plussign_withcolor,976048,,,yellow,,,,,null,US_Cities_List/huntsville.png,US_Cities_List/racine.png,,,,,,,,,,,,,,,,,,
null,,rt_thecrossant_black,977326,,,black_plus_sign,,,,,null,,,1,,,,,,,,,,,,,,,,,
null,,warning_page,980328,,,warning,,,,,null,,,,,,,,,,,,,,,,,,,,
null,,color_black,980430,,,black_plus_sign,,,,,null,,,,,,,,,,,,,,,,,,,,
null,,learn_phase(without_color),983449,,,black_plus_sign,,,,,null,US_Cities_List/cornwall.png,US_Cities_List/westpalmbeach.png,,,,,,,,,,,,,,,,,,
null,,black_cross(without_color),984529,,,blue,,,,,null,US_Cities_List/cornwall.png,US_Cities_List/westpalmbeach.png,,,,,,,,,,,,,,,,,,
null,,rt_plussign_withcolor,985030,,,blue,,,,,null,US_Cities_List/cornwall.png,US_Cities_List/westpalmbeach.png,,,,,,,,,,,,,,,,,,
null,,rt_thecrossant_black,985954,,,black_plus_sign,,,,,null,,,1,,,,,,,,,,,,,,,,,
null,,warning_page,988957,,,warning,,,,,null,,,,,,,,,,,,,,,,,,,,
null,,color_black,989058,,,black_plus_sign,,,,,null,,,,,,,,,,,,,,,,,,,,
null,,learn_phase(without_color),992080,,,black_plus_sign,,,,,null,US_Cities_List/cornwall.png,US_Cities_List/westpalmbeach.png,,,,,,,,,,,,,,,,,,
null,,black_cross(without_color),993145,,,blue,,,,,null,US_Cities_List/cornwall.png,US_Cities_List/westpalmbeach.png,,,,,,,,,,,,,,,,,,
null,,rt_plussign_withcolor,993646,,,blue,,,,,null,US_Cities_List/cornwall.png,US_Cities_List/westpalmbeach.png,,,,,,,,,,,,,,,,,,
1613.699999988079,,rt_thecrossant_black,994585,,,black_plus_sign,,,,,49,,,1,1,,,,,,,,,,,,,,,,
null,,color_black,994687,,,black_plus_sign,,,,,null,,,,,,,,,,,,,,,,,,,,
null,,learn_phase(without_color),997703,,,black_plus_sign,,,,,null,US_Cities_List/leesburg.png,US_Cities_List/racine.png,,,,,,,,,,,,,,,,,,
null,,black_cross(without_color),998275,,,yellow,,,,,null,US_Cities_List/leesburg.png,US_Cities_List/racine.png,,,,,,,,,,,,,,,,,,
null,,rt_plussign_withcolor,998776,,,yellow,,,,,null,US_Cities_List/leesburg.png,US_Cities_List/racine.png,,,,,,,,,,,,,,,,,,
1828.199999988079,,rt_thecrossant_black,1000209,,,black_plus_sign,,,,,50,,,1,1,,,,,,,,,,,,,,,,
null,,color_black,1000312,,,black_plus_sign,,,,,null,,,,,,,,,,,,,,,,,,,,
null,,learn_phase(without_color),1003326,,,black_plus_sign,,,,,null,US_Cities_List/peoria.png,US_Cities_List/hotsprings.png,,,,,,,,,,,,,,,,,,
null,,black_cross(without_color),1004259,,,blue,,,,,null,US_Cities_List/peoria.png,US_Cities_List/hotsprings.png,,,,,,,,,,,,,,,,,,
null,,rt_plussign_withcolor,1004761,,,blue,,,,,null,US_Cities_List/peoria.png,US_Cities_List/hotsprings.png,,,,,,,,,,,,,,,,,,
1232.5,,rt_thecrossant_black,1005834,,,black_plus_sign,,,,,49,,,1,1,,,,,,,,,,,,,,,,
null,,color_black,1005935,,,black_plus_sign,,,,,null,,,,,,,,,,,,,,,,,,,,
null,,learn_phase(without_color),1008951,,,black_plus_sign,,,,,null,US_Cities_List/racine.png,US_Cities_List/huntsville.png,,,,,,,,,,,,,,,,,,
null,,black_cross(without_color),1010042,,,yellow,,,,,null,US_Cities_List/racine.png,US_Cities_List/huntsville.png,,,,,,,,,,,,,,,,,,
null,,rt_plussign_withcolor,1010544,,,yellow,,,,,null,US_Cities_List/racine.png,US_Cities_List/huntsville.png,,,,,,,,,,,,,,,,,,
1751.5,,rt_thecrossant_black,1011469,,,black_plus_sign,,,,,50,,,1,1,,,,,,,,,,,,,,,,
null,,color_black,1011570,,,black_plus_sign,,,,,null,,,,,,,,,,,,,,,,,,,,
null,,learn_phase(without_color),1014583,,,black_plus_sign,,,,,null,US_Cities_List/newhope.png,US_Cities_List/shreveport.png,,,,,,,,,,,,,,,,,,
null,,black_cross(without_color),1015552,,,yellow,,,,,null,US_Cities_List/newhope.png,US_Cities_List/shreveport.png,,,,,,,,,,,,,,,,,,
null,,rt_plussign_withcolor,1016053,,,yellow,,,,,null,US_Cities_List/newhope.png,US_Cities_List/shreveport.png,,,,,,,,,,,,,,,,,,
1962.7999999821186,,rt_thecrossant_black,1017101,,,black_plus_sign,,,,,50,,,1,1,,,,,,,,,,,,,,,,
null,,color_black,1017203,,,black_plus_sign,,,,,null,,,,,,,,,,,,,,,,,,,,
null,,learn_phase(without_color),1020218,,,black_plus_sign,,,,,null,US_Cities_List/carmel.png,US_Cities_List/gatlinburg.png,,,,,,,,,,,,,,,,,,
null,,black_cross(without_color),1021284,,,blue,,,,,null,US_Cities_List/carmel.png,US_Cities_List/gatlinburg.png,,,,,,,,,,,,,,,,,,
null,,rt_plussign_withcolor,1021786,,,blue,,,,,null,US_Cities_List/carmel.png,US_Cities_List/gatlinburg.png,,,,,,,,,,,,,,,,,,
1593,,rt_thecrossant_black,1022723,,,black_plus_sign,,,,,49,,,1,1,,,,,,,,,,,,,,,,
null,,color_black,1022827,,,black_plus_sign,,,,,null,,,,,,,,,,,,,,,,,,,,
null,,learn_phase(without_color),1025838,,,black_plus_sign,,,,,null,US_Cities_List/huntsville.png,US_Cities_List/hanover.png,,,,,,,,,,,,,,,,,,
null,,black_cross(without_color),1026356,,,blue,,,,,null,US_Cities_List/huntsville.png,US_Cities_List/hanover.png,,,,,,,,,,,,,,,,,,
null,,rt_plussign_withcolor,1026859,,,blue,,,,,null,US_Cities_List/huntsville.png,US_Cities_List/hanover.png,,,,,,,,,,,,,,,,,,
2011.0999999940395,,rt_thecrossant_black,1028345,,,black_plus_sign,,,,,49,,,1,1,,,,,,,,,,,,,,,,
null,,color_black,1028446,,,black_plus_sign,,,,,null,,,,,,,,,,,,,,,,,,,,
null,,learn_phase(without_color),1031464,,,black_plus_sign,,,,,null,US_Cities_List/racine.png,US_Cities_List/shreveport.png,,,,,,,,,,,,,,,,,,
null,,black_cross(without_color),1032464,,,blue,,,,,null,US_Cities_List/racine.png,US_Cities_List/shreveport.png,,,,,,,,,,,,,,,,,,
null,,rt_plussign_withcolor,1032966,,,blue,,,,,null,US_Cities_List/racine.png,US_Cities_List/shreveport.png,,,,,,,,,,,,,,,,,,
1219.9000000059605,,rt_thecrossant_black,1033969,,,black_plus_sign,,,,,49,,,1,1,,,,,,,,,,,,,,,,
null,,color_black,1034070,,,black_plus_sign,,,,,null,,,,,,,,,,,,,,,,,,,,
null,,learn_phase(without_color),1037082,,,black_plus_sign,,,,,null,US_Cities_List/leesburg.png,US_Cities_List/boulder.png,,,,,,,,,,,,,,,,,,
null,,black_cross(without_color),1038045,,,yellow,,,,,null,US_Cities_List/leesburg.png,US_Cities_List/boulder.png,,,,,,,,,,,,,,,,,,
null,,rt_plussign_withcolor,1038547,,,yellow,,,,,null,US_Cities_List/leesburg.png,US_Cities_List/boulder.png,,,,,,,,,,,,,,,,,,
1595.4000000059605,,rt_thecrossant_black,1039588,,,black_plus_sign,,,,,50,,,1,1,,,,,,,,,,,,,,,,
null,,color_black,1039689,,,black_plus_sign,,,,,null,,,,,,,,,,,,,,,,,,,,
null,,learn_phase(without_color),1042704,,,black_plus_sign,,,,,null,US_Cities_List/racine.png,US_Cities_List/carmel.png,,,,,,,,,,,,,,,,,,
null,,black_cross(without_color),1043779,,,blue,,,,,null,US_Cities_List/racine.png,US_Cities_List/carmel.png,,,,,,,,,,,,,,,,,,
null,,rt_plussign_withcolor,1044280,,,blue,,,,,null,US_Cities_List/racine.png,US_Cities_List/carmel.png,,,,,,,,,,,,,,,,,,
1709.699999988079,,rt_thecrossant_black,1045209,,,black_plus_sign,,,,,49,,,1,1,,,,,,,,,,,,,,,,
null,,color_black,1045311,,,black_plus_sign,,,,,null,,,,,,,,,,,,,,,,,,,,
null,,learn_phase(without_color),1048325,,,black_plus_sign,,,,,null,US_Cities_List/newhope.png,US_Cities_List/shreveport.png,,,,,,,,,,,,,,,,,,
null,,black_cross(without_color),1049268,,,blue,,,,,null,US_Cities_List/newhope.png,US_Cities_List/shreveport.png,,,,,,,,,,,,,,,,,,
null,,rt_plussign_withcolor,1049773,,,blue,,,,,null,US_Cities_List/newhope.png,US_Cities_List/shreveport.png,,,,,,,,,,,,,,,,,,
1810.8999999761581,,rt_thecrossant_black,1050834,,,black_plus_sign,,,,,49,,,1,1,,,,,,,,,,,,,,,,
null,,color_black,1050935,,,black_plus_sign,,,,,null,,,,,,,,,,,,,,,,,,,,
null,,learn_phase(without_color),1053951,,,black_plus_sign,,,,,null,US_Cities_List/leesburg.png,US_Cities_List/carmel.png,,,,,,,,,,,,,,,,,,
null,,black_cross(without_color),1054633,,,blue,,,,,null,US_Cities_List/leesburg.png,US_Cities_List/carmel.png,,,,,,,,,,,,,,,,,,
null,,rt_plussign_withcolor,1055135,,,blue,,,,,null,US_Cities_List/leesburg.png,US_Cities_List/carmel.png,,,,,,,,,,,,,,,,,,
1656.2000000178814,,rt_thecrossant_black,1056457,,,black_plus_sign,,,,,49,,,1,1,,,,,,,,,,,,,,,,
null,,color_black,1056558,,,black_plus_sign,,,,,null,,,,,,,,,,,,,,,,,,,,
null,,learn_phase(without_color),1059571,,,black_plus_sign,,,,,null,US_Cities_List/huntsville.png,US_Cities_List/racine.png,,,,,,,,,,,,,,,,,,
null,,black_cross(without_color),1060550,,,yellow,,,,,null,US_Cities_List/huntsville.png,US_Cities_List/racine.png,,,,,,,,,,,,,,,,,,
null,,rt_plussign_withcolor,1061051,,,yellow,,,,,null,US_Cities_List/huntsville.png,US_Cities_List/racine.png,,,,,,,,,,,,,,,,,,
1564.2999999821186,,rt_thecrossant_black,1062086,,,black_plus_sign,,,,,50,,,1,1,,,,,,,,,,,,,,,,
null,,color_black,1062187,,,black_plus_sign,,,,,null,,,,,,,,,,,,,,,,,,,,
null,,learn_phase(without_color),1065207,,,black_plus_sign,,,,,null,US_Cities_List/leesburg.png,US_Cities_List/carmel.png,,,,,,,,,,,,,,,,,,
null,,black_cross(without_color),1065970,,,yellow,,,,,null,US_Cities_List/leesburg.png,US_Cities_List/carmel.png,,,,,,,,,,,,,,,,,,
null,,rt_plussign_withcolor,1066471,,,yellow,,,,,null,US_Cities_List/leesburg.png,US_Cities_List/carmel.png,,,,,,,,,,,,,,,,,,
1849.2000000178814,,rt_thecrossant_black,1067710,,,black_plus_sign,,,,,50,,,1,1,,,,,,,,,,,,,,,,
null,,color_black,1067812,,,black_plus_sign,,,,,null,,,,,,,,,,,,,,,,,,,,
null,,learn_phase(without_color),1070826,,,black_plus_sign,,,,,null,US_Cities_List/newhope.png,US_Cities_List/huntsville.png,,,,,,,,,,,,,,,,,,
null,,black_cross(without_color),1071387,,,blue,,,,,null,US_Cities_List/newhope.png,US_Cities_List/huntsville.png,,,,,,,,,,,,,,,,,,
null,,rt_plussign_withcolor,1071888,,,blue,,,,,null,US_Cities_List/newhope.png,US_Cities_List/huntsville.png,,,,,,,,,,,,,,,,,,
1472.7999999821186,,rt_thecrossant_black,1073332,,,black_plus_sign,,,,,49,,,1,1,,,,,,,,,,,,,,,,
null,,color_black,1073435,,,black_plus_sign,,,,,null,,,,,,,,,,,,,,,,,,,,
null,,learn_phase(without_color),1076449,,,black_plus_sign,,,,,null,US_Cities_List/newhope.png,US_Cities_List/huntsville.png,,,,,,,,,,,,,,,,,,
null,,black_cross(without_color),1076972,,,blue,,,,,null,US_Cities_List/newhope.png,US_Cities_List/huntsville.png,,,,,,,,,,,,,,,,,,
null,,rt_plussign_withcolor,1077474,,,blue,,,,,null,US_Cities_List/newhope.png,US_Cities_List/huntsville.png,,,,,,,,,,,,,,,,,,
1349.0999999940395,,rt_thecrossant_black,1078956,,,black_plus_sign,,,,,49,,,1,1,,,,,,,,,,,,,,,,
null,,color_black,1079057,,,black_plus_sign,,,,,null,,,,,,,,,,,,,,,,,,,,
null,,learn_phase(without_color),1082074,,,black_plus_sign,,,,,null,US_Cities_List/cornwall.png,US_Cities_List/hanover.png,,,,,,,,,,,,,,,,,,
null,,black_cross(without_color),1082757,,,blue,,,,,null,US_Cities_List/cornwall.png,US_Cities_List/hanover.png,,,,,,,,,,,,,,,,,,
null,,rt_plussign_withcolor,1083260,,,blue,,,,,null,US_Cities_List/cornwall.png,US_Cities_List/hanover.png,,,,,,,,,,,,,,,,,,
1109.0999999940395,,rt_thecrossant_black,1084579,,,black_plus_sign,,,,,49,,,1,1,,,,,,,,,,,,,,,,
null,,color_black,1084681,,,black_plus_sign,,,,,null,,,,,,,,,,,,,,,,,,,,
null,,learn_phase(without_color),1087696,,,black_plus_sign,,,,,null,US_Cities_List/racine.png,US_Cities_List/leesburg.png,,,,,,,,,,,,,,,,,,
null,,black_cross(without_color),1088678,,,blue,,,,,null,US_Cities_List/racine.png,US_Cities_List/leesburg.png,,,,,,,,,,,,,,,,,,
null,,rt_plussign_withcolor,1089179,,,blue,,,,,null,US_Cities_List/racine.png,US_Cities_List/leesburg.png,,,,,,,,,,,,,,,,,,
1315.4000000059605,,rt_thecrossant_black,1090201,,,black_plus_sign,,,,,49,,,1,1,,,,,,,,,,,,,,,,
null,,color_black,1090303,,,black_plus_sign,,,,,null,,,,,,,,,,,,,,,,,,,,
null,,learn_phase(without_color),1093315,,,black_plus_sign,,,,,null,US_Cities_List/peoria.png,US_Cities_List/hotsprings.png,,,,,,,,,,,,,,,,,,
null,,black_cross(without_color),1094355,,,yellow,,,,,null,US_Cities_List/peoria.png,US_Cities_List/hotsprings.png,,,,,,,,,,,,,,,,,,
null,,rt_plussign_withcolor,1094858,,,yellow,,,,,null,US_Cities_List/peoria.png,US_Cities_List/hotsprings.png,,,,,,,,,,,,,,,,,,
1701.7999999821186,,rt_thecrossant_black,1095836,,,black_plus_sign,,,,,49,,,0.9876543209876543,0,,,,,,,,,,,,,,,,
null,,color_black,1095938,,,black_plus_sign,,,,,null,,,,,,,,,,,,,,,,,,,,
null,,learn_phase(without_color),1098949,,,black_plus_sign,,,,,null,US_Cities_List/newhope.png,US_Cities_List/huntsville.png,,,,,,,,,,,,,,,,,,
null,,black_cross(without_color),1099882,,,blue,,,,,null,US_Cities_List/newhope.png,US_Cities_List/huntsville.png,,,,,,,,,,,,,,,,,,
null,,rt_plussign_withcolor,1100383,,,blue,,,,,null,US_Cities_List/newhope.png,US_Cities_List/huntsville.png,,,,,,,,,,,,,,,,,,
2017,,rt_thecrossant_black,1101456,,,black_plus_sign,,,,,49,,,0.9878048780487805,1,,,,,,,,,,,,,,,,
null,,color_black,1101558,,,black_plus_sign,,,,,null,,,,,,,,,,,,,,,,,,,,
null,,learn_phase(without_color),1104573,,,black_plus_sign,,,,,null,US_Cities_List/leesburg.png,US_Cities_List/carmel.png,,,,,,,,,,,,,,,,,,
null,,black_cross(without_color),1105067,,,blue,,,,,null,US_Cities_List/leesburg.png,US_Cities_List/carmel.png,,,,,,,,,,,,,,,,,,
null,,rt_plussign_withcolor,1105569,,,blue,,,,,null,US_Cities_List/leesburg.png,US_Cities_List/carmel.png,,,,,,,,,,,,,,,,,,
1651.4000000059605,,rt_thecrossant_black,1107078,,,black_plus_sign,,,,,49,,,0.9879518072289156,1,,,,,,,,,,,,,,,,
null,,color_black,1107179,,,black_plus_sign,,,,,null,,,,,,,,,,,,,,,,,,,,
null,,learn_phase(without_color),1110197,,,black_plus_sign,,,,,null,US_Cities_List/carmel.png,US_Cities_List/racine.png,,,,,,,,,,,,,,,,,,
null,,black_cross(without_color),1110847,,,blue,,,,,null,US_Cities_List/carmel.png,US_Cities_List/racine.png,,,,,,,,,,,,,,,,,,
null,,rt_plussign_withcolor,1111348,,,blue,,,,,null,US_Cities_List/carmel.png,US_Cities_List/racine.png,,,,,,,,,,,,,,,,,,
1137.7000000178814,,rt_thecrossant_black,1112702,,,black_plus_sign,,,,,49,,,0.9880952380952381,1,,,,,,,,,,,,,,,,
null,,color_black,1112803,,,black_plus_sign,,,,,null,,,,,,,,,,,,,,,,,,,,
null,,learn_phase(without_color),1115819,,,black_plus_sign,,,,,null,US_Cities_List/carmel.png,US_Cities_List/leesburg.png,,,,,,,,,,,,,,,,,,
null,,black_cross(without_color),1116509,,,yellow,,,,,null,US_Cities_List/carmel.png,US_Cities_List/leesburg.png,,,,,,,,,,,,,,,,,,
null,,rt_plussign_withcolor,1117010,,,yellow,,,,,null,US_Cities_List/carmel.png,US_Cities_List/leesburg.png,,,,,,,,,,,,,,,,,,
1334.300000011921,,rt_thecrossant_black,1118339,,,black_plus_sign,,,,,50,,,0.9882352941176471,1,,,,,,,,,,,,,,,,
null,,color_black,1118441,,,black_plus_sign,,,,,null,,,,,,,,,,,,,,,,,,,,
null,,learn_phase(without_color),1121456,,,black_plus_sign,,,,,null,US_Cities_List/huntsville.png,US_Cities_List/newhope.png,,,,,,,,,,,,,,,,,,
null,,black_cross(without_color),1122435,,,blue,,,,,null,US_Cities_List/huntsville.png,US_Cities_List/newhope.png,,,,,,,,,,,,,,,,,,
null,,rt_plussign_withcolor,1122937,,,blue,,,,,null,US_Cities_List/huntsville.png,US_Cities_List/newhope.png,,,,,,,,,,,,,,,,,,
1377.5999999940395,,rt_thecrossant_black,1123963,,,black_plus_sign,,,,,49,,,0.9883720930232558,1,,,,,,,,,,,,,,,,
null,,color_black,1124065,,,black_plus_sign,,,,,null,,,,,,,,,,,,,,,,,,,,
null,,learn_phase(without_color),1127080,,,black_plus_sign,,,,,null,US_Cities_List/leesburg.png,US_Cities_List/boulder.png,,,,,,,,,,,,,,,,,,
null,,black_cross(without_color),1127525,,,yellow,,,,,null,US_Cities_List/leesburg.png,US_Cities_List/boulder.png,,,,,,,,,,,,,,,,,,
null,,rt_plussign_withcolor,1128027,,,yellow,,,,,null,US_Cities_List/leesburg.png,US_Cities_List/boulder.png,,,,,,,,,,,,,,,,,,
1740.199999988079,,rt_thecrossant_black,1129586,,,black_plus_sign,,,,,50,,,0.9885057471264368,1,,,,,,,,,,,,,,,,
null,,color_black,1129688,,,black_plus_sign,,,,,null,,,,,,,,,,,,,,,,,,,,
null,,learn_phase(without_color),1132699,,,black_plus_sign,,,,,null,US_Cities_List/huntsville.png,US_Cities_List/hanover.png,,,,,,,,,,,,,,,,,,
null,,black_cross(without_color),1133216,,,blue,,,,,null,US_Cities_List/huntsville.png,US_Cities_List/hanover.png,,,,,,,,,,,,,,,,,,
null,,rt_plussign_withcolor,1133718,,,blue,,,,,null,US_Cities_List/huntsville.png,US_Cities_List/hanover.png,,,,,,,,,,,,,,,,,,
1087.699999988079,,rt_thecrossant_black,1135204,,,black_plus_sign,,,,,49,,,0.9886363636363636,1,,,,,,,,,,,,,,,,
null,,color_black,1135305,,,black_plus_sign,,,,,null,,,,,,,,,,,,,,,,,,,,
null,,learn_phase(without_color),1138325,,,black_plus_sign,,,,,null,US_Cities_List/hanover.png,US_Cities_List/cornwall.png,,,,,,,,,,,,,,,,,,
null,,black_cross(without_color),1138788,,,blue,,,,,null,US_Cities_List/hanover.png,US_Cities_List/cornwall.png,,,,,,,,,,,,,,,,,,
null,,rt_plussign_withcolor,1139301,,,blue,,,,,null,US_Cities_List/hanover.png,US_Cities_List/cornwall.png,,,,,,,,,,,,,,,,,,
1272.1000000238419,,rt_thecrossant_black,1140842,,,black_plus_sign,,,,,49,,,0.9887640449438202,1,,,,,,,,,,,,,,,,
null,,color_black,1140943,,,black_plus_sign,,,,,null,,,,,,,,,,,,,,,,,,,,
null,,learn_phase(without_color),1143953,,,black_plus_sign,,,,,null,US_Cities_List/huntsville.png,US_Cities_List/hanover.png,,,,,,,,,,,,,,,,,,
null,,black_cross(without_color),1144770,,,yellow,,,,,null,US_Cities_List/huntsville.png,US_Cities_List/hanover.png,,,,,,,,,,,,,,,,,,
null,,rt_plussign_withcolor,1145272,,,yellow,,,,,null,US_Cities_List/huntsville.png,US_Cities_List/hanover.png,,,,,,,,,,,,,,,,,,
1061.0999999940395,,rt_thecrossant_black,1146460,,,black_plus_sign,,,,,50,,,0.9888888888888889,1,,,,,,,,,,,,,,,,
null,,color_black,1146561,,,black_plus_sign,,,,,null,,,,,,,,,,,,,,,,,,,,
null,,learn_phase(without_color),1149576,,,black_plus_sign,,,,,null,US_Cities_List/carmel.png,US_Cities_List/gatlinburg.png,,,,,,,,,,,,,,,,,,
null,,black_cross(without_color),1150675,,,blue,,,,,null,US_Cities_List/carmel.png,US_Cities_List/gatlinburg.png,,,,,,,,,,,,,,,,,,
null,,rt_plussign_withcolor,1151177,,,blue,,,,,null,US_Cities_List/carmel.png,US_Cities_List/gatlinburg.png,,,,,,,,,,,,,,,,,,
1461.9000000059605,,rt_thecrossant_black,1152081,,,black_plus_sign,,,,,49,,,0.989010989010989,1,,,,,,,,,,,,,,,,
null,,color_black,1152184,,,black_plus_sign,,,,,null,,,,,,,,,,,,,,,,,,,,
null,,learn_phase(without_color),1155195,,,black_plus_sign,,,,,null,US_Cities_List/huntsville.png,US_Cities_List/hanover.png,,,,,,,,,,,,,,,,,,
null,,black_cross(without_color),1155971,,,yellow,,,,,null,US_Cities_List/huntsville.png,US_Cities_List/hanover.png,,,,,,,,,,,,,,,,,,
null,,rt_plussign_withcolor,1156472,,,yellow,,,,,null,US_Cities_List/huntsville.png,US_Cities_List/hanover.png,,,,,,,,,,,,,,,,,,
1589.5999999940395,,rt_thecrossant_black,1157700,,,black_plus_sign,,,,,50,,,0.9891304347826086,1,,,,,,,,,,,,,,,,
null,,color_black,1157802,,,black_plus_sign,,,,,null,,,,,,,,,,,,,,,,,,,,
null,,learn_phase(without_color),1160814,,,black_plus_sign,,,,,null,US_Cities_List/newhope.png,US_Cities_List/huntsville.png,,,,,,,,,,,,,,,,,,
null,,black_cross(without_color),1161607,,,yellow,,,,,null,US_Cities_List/newhope.png,US_Cities_List/huntsville.png,,,,,,,,,,,,,,,,,,
null,,rt_plussign_withcolor,1162108,,,yellow,,,,,null,US_Cities_List/newhope.png,US_Cities_List/huntsville.png,,,,,,,,,,,,,,,,,,
1652.5999999940395,,rt_thecrossant_black,1163320,,,black_plus_sign,,,,,50,,,0.989247311827957,1,,,,,,,,,,,,,,,,
null,,color_black,1163422,,,black_plus_sign,,,,,null,,,,,,,,,,,,,,,,,,,,
null,,learn_phase(without_color),1166438,,,black_plus_sign,,,,,null,US_Cities_List/racine.png,US_Cities_List/carmel.png,,,,,,,,,,,,,,,,,,
null,,black_cross(without_color),1167031,,,blue,,,,,null,US_Cities_List/racine.png,US_Cities_List/carmel.png,,,,,,,,,,,,,,,,,,
null,,rt_plussign_withcolor,1167533,,,blue,,,,,null,US_Cities_List/racine.png,US_Cities_List/carmel.png,,,,,,,,,,,,,,,,,,
1644.6000000238419,,rt_thecrossant_black,1168943,,,black_plus_sign,,,,,49,,,0.9893617021276596,1,,,,,,,,,,,,,,,,
null,,color_black,1169045,,,black_plus_sign,,,,,null,,,,,,,,,,,,,,,,,,,,
null,,learn_phase(without_color),1172064,,,black_plus_sign,,,,,null,US_Cities_List/carmel.png,US_Cities_List/racine.png,,,,,,,,,,,,,,,,,,
null,,black_cross(without_color),1172785,,,blue,,,,,null,US_Cities_List/carmel.png,US_Cities_List/racine.png,,,,,,,,,,,,,,,,,,
null,,rt_plussign_withcolor,1173286,,,blue,,,,,null,US_Cities_List/carmel.png,US_Cities_List/racine.png,,,,,,,,,,,,,,,,,,
1494.0999999940395,,rt_thecrossant_black,1174569,,,black_plus_sign,,,,,49,,,0.9894736842105263,1,,,,,,,,,,,,,,,,
null,,color_black,1174672,,,black_plus_sign,,,,,null,,,,,,,,,,,,,,,,,,,,
null,,learn_phase(without_color),1177691,,,black_plus_sign,,,,,null,US_Cities_List/carmel.png,US_Cities_List/racine.png,,,,,,,,,,,,,,,,,,
null,,black_cross(without_color),1178602,,,yellow,,,,,null,US_Cities_List/carmel.png,US_Cities_List/racine.png,,,,,,,,,,,,,,,,,,
null,,rt_plussign_withcolor,1179103,,,yellow,,,,,null,US_Cities_List/carmel.png,US_Cities_List/racine.png,,,,,,,,,,,,,,,,,,
null,,rt_thecrossant_black,1180198,,,black_plus_sign,,,,,null,,,0.9894736842105263,,,,,,,,,,,,,,,,,
null,,color_black,1180300,,,black_plus_sign,,,,,null,,,,,,,,,,,,,,,,,,,,
null,,learn_phase(without_color),1183315,,,black_plus_sign,,,,,null,US_Cities_List/shreveport.png,US_Cities_List/carmel.png,,,,,,,,,,,,,,,,,,
null,,black_cross(without_color),1184404,,,blue,,,,,null,US_Cities_List/shreveport.png,US_Cities_List/carmel.png,,,,,,,,,,,,,,,,,,
null,,rt_plussign_withcolor,1184905,,,blue,,,,,null,US_Cities_List/shreveport.png,US_Cities_List/carmel.png,,,,,,,,,,,,,,,,,,
1771.2000000178814,,rt_thecrossant_black,1185819,,,black_plus_sign,,,,,49,,,0.9895833333333334,1,,,,,,,,,,,,,,,,
null,,color_black,1185921,,,black_plus_sign,,,,,null,,,,,,,,,,,,,,,,,,,,
null,,learn_phase(without_color),1188935,,,black_plus_sign,,,,,null,US_Cities_List/leesburg.png,US_Cities_List/boulder.png,,,,,,,,,,,,,,,,,,
null,,black_cross(without_color),1189819,,,blue,,,,,null,US_Cities_List/leesburg.png,US_Cities_List/boulder.png,,,,,,,,,,,,,,,,,,
null,,rt_plussign_withcolor,1190321,,,blue,,,,,null,US_Cities_List/leesburg.png,US_Cities_List/boulder.png,,,,,,,,,,,,,,,,,,
1894.2000000178814,,rt_thecrossant_black,1191446,,,black_plus_sign,,,,,49,,,0.9896907216494846,1,,,,,,,,,,,,,,,,
null,,color_black,1191548,,,black_plus_sign,,,,,null,,,,,,,,,,,,,,,,,,,,
null,,learn_phase(without_color),1194566,,,black_plus_sign,,,,,null,US_Cities_List/carmel.png,US_Cities_List/leesburg.png,,,,,,,,,,,,,,,,,,
null,,black_cross(without_color),1195005,,,yellow,,,,,null,US_Cities_List/carmel.png,US_Cities_List/leesburg.png,,,,,,,,,,,,,,,,,,
null,,rt_plussign_withcolor,1195507,,,yellow,,,,,null,US_Cities_List/carmel.png,US_Cities_List/leesburg.png,,,,,,,,,,,,,,,,,,
1754.6000000238419,,rt_thecrossant_black,1197071,,,black_plus_sign,,,,,50,,,0.9897959183673469,1,,,,,,,,,,,,,,,,
null,,color_black,1197173,,,black_plus_sign,,,,,null,,,,,,,,,,,,,,,,,,,,
null,,learn_phase(without_color),1200188,,,black_plus_sign,,,,,null,US_Cities_List/shreveport.png,US_Cities_List/carmel.png,,,,,,,,,,,,,,,,,,
null,,black_cross(without_color),1200893,,,yellow,,,,,null,US_Cities_List/shreveport.png,US_Cities_List/carmel.png,,,,,,,,,,,,,,,,,,
null,,rt_plussign_withcolor,1201395,,,yellow,,,,,null,US_Cities_List/shreveport.png,US_Cities_List/carmel.png,,,,,,,,,,,,,,,,,,
1427.5999999940395,,rt_thecrossant_black,1202694,,,black_plus_sign,,,,,50,,,0.98989898989899,1,,,,,,,,,,,,,,,,
null,,color_black,1202797,,,black_plus_sign,,,,,null,,,,,,,,,,,,,,,,,,,,
null,,learn_phase(without_color),1205810,,,black_plus_sign,,,,,null,US_Cities_List/hotsprings.png,US_Cities_List/peoria.png,,,,,,,,,,,,,,,,,,
null,,black_cross(without_color),1206435,,,blue,,,,,null,US_Cities_List/hotsprings.png,US_Cities_List/peoria.png,,,,,,,,,,,,,,,,,,
null,,rt_plussign_withcolor,1206936,,,blue,,,,,null,US_Cities_List/hotsprings.png,US_Cities_List/peoria.png,,,,,,,,,,,,,,,,,,
1509,,rt_thecrossant_black,1208315,,,black_plus_sign,,,,,49,,,0.99,1,,,,,,,,,,,,,,,,
null,,color_black,1208416,,,black_plus_sign,,,,,null,,,,,,,,,,,,,,,,,,,,
null,,learn_phase(without_color),1211432,,,black_plus_sign,,,,,null,US_Cities_List/newhope.png,US_Cities_List/hotsprings.png,,,,,,,,,,,,,,,,,,
null,,black_cross(without_color),1212152,,,yellow,,,,,null,US_Cities_List/newhope.png,US_Cities_List/hotsprings.png,,,,,,,,,,,,,,,,,,
null,,rt_plussign_withcolor,1212654,,,yellow,,,,,null,US_Cities_List/newhope.png,US_Cities_List/hotsprings.png,,,,,,,,,,,,,,,,,,
1482.0999999940395,,rt_thecrossant_black,1213938,,,black_plus_sign,,,,,50,,,0.9900990099009901,1,,,,,,,,,,,,,,,,
null,,color_black,1214040,,,black_plus_sign,,,,,null,,,,,,,,,,,,,,,,,,,,
null,,learn_phase(without_color),1217050,,,black_plus_sign,,,,,null,US_Cities_List/huntsville.png,US_Cities_List/hanover.png,,,,,,,,,,,,,,,,,,
null,,black_cross(without_color),1218135,,,yellow,,,,,null,US_Cities_List/huntsville.png,US_Cities_List/hanover.png,,,,,,,,,,,,,,,,,,
null,,rt_plussign_withcolor,1218637,,,yellow,,,,,null,US_Cities_List/huntsville.png,US_Cities_List/hanover.png,,,,,,,,,,,,,,,,,,
1548.6000000238419,,rt_thecrossant_black,1219555,,,black_plus_sign,,,,,50,,,0.9901960784313726,1,,,,,,,,,,,,,,,,
null,,color_black,1219657,,,black_plus_sign,,,,,null,,,,,,,,,,,,,,,,,,,,
null,,learn_phase(without_color),1222684,,,black_plus_sign,,,,,null,US_Cities_List/carmel.png,US_Cities_List/gatlinburg.png,,,,,,,,,,,,,,,,,,
null,,black_cross(without_color),1223359,,,blue,,,,,null,US_Cities_List/carmel.png,US_Cities_List/gatlinburg.png,,,,,,,,,,,,,,,,,,
null,,rt_plussign_withcolor,1223870,,,blue,,,,,null,US_Cities_List/carmel.png,US_Cities_List/gatlinburg.png,,,,,,,,,,,,,,,,,,
2054.4000000059605,,rt_thecrossant_black,1225198,,,black_plus_sign,,,,,49,,,0.9902912621359223,1,,,,,,,,,,,,,,,,
null,,color_black,1225300,,,black_plus_sign,,,,,null,,,,,,,,,,,,,,,,,,,,
null,,learn_phase(without_color),1228317,,,black_plus_sign,,,,,null,US_Cities_List/leesburg.png,US_Cities_List/boulder.png,,,,,,,,,,,,,,,,,,
null,,black_cross(without_color),1228839,,,yellow,,,,,null,US_Cities_List/leesburg.png,US_Cities_List/boulder.png,,,,,,,,,,,,,,,,,,
null,,rt_plussign_withcolor,1229340,,,yellow,,,,,null,US_Cities_List/leesburg.png,US_Cities_List/boulder.png,,,,,,,,,,,,,,,,,,
1795.4000000059605,,rt_thecrossant_black,1230823,,,black_plus_sign,,,,,50,,,0.9903846153846154,1,,,,,,,,,,,,,,,,
null,,color_black,1230925,,,black_plus_sign,,,,,null,,,,,,,,,,,,,,,,,,,,
null,,learn_phase(without_color),1233939,,,black_plus_sign,,,,,null,US_Cities_List/newhope.png,US_Cities_List/huntsville.png,,,,,,,,,,,,,,,,,,
null,,black_cross(without_color),1234508,,,blue,,,,,null,US_Cities_List/newhope.png,US_Cities_List/huntsville.png,,,,,,,,,,,,,,,,,,
null,,rt_plussign_withcolor,1235010,,,blue,,,,,null,US_Cities_List/newhope.png,US_Cities_List/huntsville.png,,,,,,,,,,,,,,,,,,
1319.5999999940395,,rt_thecrossant_black,1236445,,,black_plus_sign,,,,,49,,,0.9904761904761905,1,,,,,,,,,,,,,,,,
null,,color_black,1236546,,,black_plus_sign,,,,,null,,,,,,,,,,,,,,,,,,,,
null,,learn_phase(without_color),1239567,,,black_plus_sign,,,,,null,US_Cities_List/hotsprings.png,US_Cities_List/cornwall.png,,,,,,,,,,,,,,,,,,
null,,black_cross(without_color),1240438,,,blue,,,,,null,US_Cities_List/hotsprings.png,US_Cities_List/cornwall.png,,,,,,,,,,,,,,,,,,
null,,rt_plussign_withcolor,1240940,,,blue,,,,,null,US_Cities_List/hotsprings.png,US_Cities_List/cornwall.png,,,,,,,,,,,,,,,,,,
1421.800000011921,,rt_thecrossant_black,1242072,,,black_plus_sign,,,,,49,,,0.9905660377358491,1,,,,,,,,,,,,,,,,
null,,color_black,1242189,,,black_plus_sign,,,,,null,,,,,,,,,,,,,,,,,,,,
null,,learn_phase(without_color),1245206,,,black_plus_sign,,,,,null,US_Cities_List/racine.png,US_Cities_List/carmel.png,,,,,,,,,,,,,,,,,,
null,,black_cross(without_color),1245924,,,blue,,,,,null,US_Cities_List/racine.png,US_Cities_List/carmel.png,,,,,,,,,,,,,,,,,,
null,,rt_plussign_withcolor,1246425,,,blue,,,,,null,US_Cities_List/racine.png,US_Cities_List/carmel.png,,,,,,,,,,,,,,,,,,
1886.9000000059605,,rt_thecrossant_black,1247712,,,black_plus_sign,,,,,49,,,0.9906542056074766,1,,,,,,,,,,,,,,,,
null,,color_black,1247813,,,black_plus_sign,,,,,null,,,,,,,,,,,,,,,,,,,,
null,,learn_phase(without_color),1250835,,,black_plus_sign,,,,,null,US_Cities_List/cornwall.png,US_Cities_List/hanover.png,,,,,,,,,,,,,,,,,,
null,,black_cross(without_color),1251536,,,yellow,,,,,null,US_Cities_List/cornwall.png,US_Cities_List/hanover.png,,,,,,,,,,,,,,,,,,
null,,rt_plussign_withcolor,1252038,,,yellow,,,,,null,US_Cities_List/cornwall.png,US_Cities_List/hanover.png,,,,,,,,,,,,,,,,,,
1471,,rt_thecrossant_black,1253341,,,black_plus_sign,,,,,50,,,0.9907407407407407,1,,,,,,,,,,,,,,,,
null,,color_black,1253444,,,black_plus_sign,,,,,null,,,,,,,,,,,,,,,,,,,,
null,,learn_phase(without_color),1256461,,,black_plus_sign,,,,,null,US_Cities_List/newhope.png,US_Cities_List/hotsprings.png,,,,,,,,,,,,,,,,,,
null,,black_cross(without_color),1257122,,,blue,,,,,null,US_Cities_List/newhope.png,US_Cities_List/hotsprings.png,,,,,,,,,,,,,,,,,,
null,,rt_plussign_withcolor,1257624,,,blue,,,,,null,US_Cities_List/newhope.png,US_Cities_List/hotsprings.png,,,,,,,,,,,,,,,,,,
1778.5999999940395,,rt_thecrossant_black,1258968,,,black_plus_sign,,,,,49,,,0.9908256880733946,1,,,,,,,,,,,,,,,,
null,,color_black,1259070,,,black_plus_sign,,,,,null,,,,,,,,,,,,,,,,,,,,
null,,learn_phase(without_color),1262084,,,black_plus_sign,,,,,null,US_Cities_List/carmel.png,US_Cities_List/racine.png,,,,,,,,,,,,,,,,,,
null,,black_cross(without_color),1262749,,,yellow,,,,,null,US_Cities_List/carmel.png,US_Cities_List/racine.png,,,,,,,,,,,,,,,,,,
null,,rt_plussign_withcolor,1263250,,,yellow,,,,,null,US_Cities_List/carmel.png,US_Cities_List/racine.png,,,,,,,,,,,,,,,,,,
1165.800000011921,,rt_thecrossant_black,1264589,,,black_plus_sign,,,,,50,,,0.990909090909091,1,,,,,,,,,,,,,,,,
null,,color_black,1264691,,,black_plus_sign,,,,,null,,,,,,,,,,,,,,,,,,,,
null,,learn_phase(without_color),1267708,,,black_plus_sign,,,,,null,US_Cities_List/shreveport.png,US_Cities_List/racine.png,,,,,,,,,,,,,,,,,,
null,,black_cross(without_color),1268310,,,yellow,,,,,null,US_Cities_List/shreveport.png,US_Cities_List/racine.png,,,,,,,,,,,,,,,,,,
null,,rt_plussign_withcolor,1268813,,,yellow,,,,,null,US_Cities_List/shreveport.png,US_Cities_List/racine.png,,,,,,,,,,,,,,,,,,
1405.2999999821186,,rt_thecrossant_black,1270214,,,black_plus_sign,,,,,50,,,0.990990990990991,1,,,,,,,,,,,,,,,,
null,,color_black,1270316,,,black_plus_sign,,,,,null,,,,,,,,,,,,,,,,,,,,
null,,learn_phase(without_color),1273328,,,black_plus_sign,,,,,null,US_Cities_List/newhope.png,US_Cities_List/huntsville.png,,,,,,,,,,,,,,,,,,
null,,black_cross(without_color),1273796,,,blue,,,,,null,US_Cities_List/newhope.png,US_Cities_List/huntsville.png,,,,,,,,,,,,,,,,,,
null,,rt_plussign_withcolor,1274296,,,blue,,,,,null,US_Cities_List/newhope.png,US_Cities_List/huntsville.png,,,,,,,,,,,,,,,,,,
1160.6000000238419,,rt_thecrossant_black,1275832,,,black_plus_sign,,,,,49,,,0.9910714285714286,1,,,,,,,,,,,,,,,,
null,,color_black,1275935,,,black_plus_sign,,,,,null,,,,,,,,,,,,,,,,,,,,
null,,learn_phase(without_color),1278956,,,black_plus_sign,,,,,null,US_Cities_List/cornwall.png,US_Cities_List/westpalmbeach.png,,,,,,,,,,,,,,,,,,
null,,black_cross(without_color),1279840,,,yellow,,,,,null,US_Cities_List/cornwall.png,US_Cities_List/westpalmbeach.png,,,,,,,,,,,,,,,,,,
null,,rt_plussign_withcolor,1280343,,,yellow,,,,,null,US_Cities_List/cornwall.png,US_Cities_List/westpalmbeach.png,,,,,,,,,,,,,,,,,,
1046.4000000059605,,rt_thecrossant_black,1281475,,,black_plus_sign,,,,,50,,,0.9911504424778761,1,,,,,,,,,,,,,,,,
null,,color_black,1281577,,,black_plus_sign,,,,,null,,,,,,,,,,,,,,,,,,,,
null,,learn_break,1341580,,,learn_break,,,,,null,,,,,,,,,,,,,,,,,,,,
15544.700000017881,,intro_1,1357125,,,instruct,,,0,,,,,,,,,,,,,,,,,,,,,,
8101.700000017881,,intro_2,1365228,,,instruct,,,1,Next,,,,,,,,,,,,,,,,,,,,,
null,,directmemory_phase,1371751,,,../static/images/US_Cities_List/leesburg.png,,,,,null,,,0,0,../static/images/US_Cities_List/hotsprings.png,../static/images/US_Cities_List/huntsville.png,../static/images/US_Cities_List/racine.png,../static/images/US_Cities_List/racine.png,../static/images/US_Cities_List/huntsville.png,../static/images/US_Cities_List/hotsprings.png,0,,,,,,,,,
null,,warning_page,1374757,,,warning,,,,,null,,,,,,,,,,,,,,,,,,,,
null,,html-keyboard-response,1375765,,,<p></p>,,,,,null,,,,,,,,,,,,,,,,,,,,
3604.5,,directmemory_phase,1379402,,,../static/images/US_Cities_List/peoria.png,,,,,50,,,0,0,../static/images/US_Cities_List/carmel.png,../static/images/US_Cities_List/cornwall.png,../static/images/US_Cities_List/hotsprings.png,../static/images/US_Cities_List/hotsprings.png,../static/images/US_Cities_List/cornwall.png,../static/images/US_Cities_List/carmel.png,0.5,closer,,,,,,,,
null,,html-keyboard-response,1380406,,,<p></p>,,,,,null,,,,,,,,,,,,,,,,,,,,
3732,,directmemory_phase,1384164,,,../static/images/US_Cities_List/racine.png,,,,,49,,,0.3333333333333333,1,../static/images/US_Cities_List/shreveport.png,../static/images/US_Cities_List/hotsprings.png,../static/images/US_Cities_List/hanover.png,../static/images/US_Cities_List/shreveport.png,../static/images/US_Cities_List/hanover.png,../static/images/US_Cities_List/hotsprings.png,1,,,,,,,,,
null,,html-keyboard-response,1385168,,,<p></p>,,,,,null,,,,,,,,,,,,,,,,,,,,
3035.600000023842,,directmemory_phase,1388225,,,../static/images/US_Cities_List/carmel.png,,,,,49,,,0.5,1,../static/images/US_Cities_List/gatlinburg.png,../static/images/US_Cities_List/hotsprings.png,../static/images/US_Cities_List/huntsville.png,../static/images/US_Cities_List/gatlinburg.png,../static/images/US_Cities_List/huntsville.png,../static/images/US_Cities_List/hotsprings.png,1,,,,,,,,,
null,,html-keyboard-response,1389229,,,<p></p>,,,,,null,,,,,,,,,,,,,,,,,,,,
3179.199999988079,,directmemory_phase,1392425,,,../static/images/US_Cities_List/newhope.png,,,,,49,,,0.6,1,../static/images/US_Cities_List/huntsville.png,../static/images/US_Cities_List/leesburg.png,../static/images/US_Cities_List/hanover.png,../static/images/US_Cities_List/huntsville.png,../static/images/US_Cities_List/hanover.png,../static/images/US_Cities_List/leesburg.png,1,,,,,,,,,
null,,html-keyboard-response,1393429,,,<p></p>,,,,,null,,,,,,,,,,,,,,,,,,,,
3760.300000011921,,directmemory_phase,1397214,,,../static/images/US_Cities_List/racine.png,,,,,50,,,0.6666666666666666,1,../static/images/US_Cities_List/gatlinburg.png,../static/images/US_Cities_List/leesburg.png,../static/images/US_Cities_List/westpalmbeach.png,../static/images/US_Cities_List/leesburg.png,../static/images/US_Cities_List/gatlinburg.png,../static/images/US_Cities_List/westpalmbeach.png,1,,,,,,,,,
null,,html-keyboard-response,1398217,,,<p></p>,,,,,null,,,,,,,,,,,,,,,,,,,,
3696.2000000178814,,directmemory_phase,1401939,,,../static/images/US_Cities_List/shreveport.png,,,,,49,,,0.5714285714285714,0,../static/images/US_Cities_List/gatlinburg.png,../static/images/US_Cities_List/carmel.png,../static/images/US_Cities_List/hanover.png,../static/images/US_Cities_List/carmel.png,../static/images/US_Cities_List/gatlinburg.png,../static/images/US_Cities_List/hanover.png,0.5,closer,,,,,,,,
null,,html-keyboard-response,1402944,,,<p></p>,,,,,null,,,,,,,,,,,,,,,,,,,,
4458.0999999940395,,directmemory_phase,1407424,,,../static/images/US_Cities_List/racine.png,,,,,49,,,0.5,0,../static/images/US_Cities_List/peoria.png,../static/images/US_Cities_List/hanover.png,../static/images/US_Cities_List/huntsville.png,../static/images/US_Cities_List/huntsville.png,../static/images/US_Cities_List/hanover.png,../static/images/US_Cities_List/peoria.png,0.5,closer,,,,,,,,
null,,html-keyboard-response,1408429,,,<p></p>,,,,,null,,,,,,,,,,,,,,,,,,,,
4165.299999982119,,directmemory_phase,1412621,,,../static/images/US_Cities_List/carmel.png,,,,,51,,,0.5555555555555556,1,../static/images/US_Cities_List/cornwall.png,../static/images/US_Cities_List/boulder.png,../static/images/US_Cities_List/shreveport.png,../static/images/US_Cities_List/shreveport.png,../static/images/US_Cities_List/boulder.png,../static/images/US_Cities_List/cornwall.png,1,,,,,,,,,
null,,html-keyboard-response,1413636,,,<p></p>,,,,,null,,,,,,,,,,,,,,,,,,,,
5009.5999999940395,,directmemory_phase,1418671,,,../static/images/US_Cities_List/hotsprings.png,,,,,50,,,0.5,0,../static/images/US_Cities_List/gatlinburg.png,../static/images/US_Cities_List/hanover.png,../static/images/US_Cities_List/peoria.png,../static/images/US_Cities_List/peoria.png,../static/images/US_Cities_List/hanover.png,../static/images/US_Cities_List/gatlinburg.png,0.5,closer,,,,,,,,
null,,html-keyboard-response,1419681,,,<p></p>,,,,,null,,,,,,,,,,,,,,,,,,,,
3571.800000011921,,directmemory_phase,1423287,,,../static/images/US_Cities_List/racine.png,,,,,49,,,0.5454545454545454,1,../static/images/US_Cities_List/carmel.png,../static/images/US_Cities_List/cornwall.png,../static/images/US_Cities_List/gatlinburg.png,../static/images/US_Cities_List/carmel.png,../static/images/US_Cities_List/gatlinburg.png,../static/images/US_Cities_List/cornwall.png,1,,,,,,,,,
null,,html-keyboard-response,1424291,,,<p></p>,,,,,null,,,,,,,,,,,,,,,,,,,,
3652,,directmemory_phase,1427969,,,../static/images/US_Cities_List/shreveport.png,,,,,49,,,0.5,0,../static/images/US_Cities_List/leesburg.png,../static/images/US_Cities_List/newhope.png,../static/images/US_Cities_List/hanover.png,../static/images/US_Cities_List/newhope.png,../static/images/US_Cities_List/leesburg.png,../static/images/US_Cities_List/hanover.png,0.5,closer,,,,,,,,
null,,html-keyboard-response,1428974,,,<p></p>,,,,,null,,,,,,,,,,,,,,,,,,,,
4242.299999982119,,directmemory_phase,1433238,,,../static/images/US_Cities_List/leesburg.png,,,,,51,,,0.5384615384615384,1,../static/images/US_Cities_List/hanover.png,../static/images/US_Cities_List/gatlinburg.png,../static/images/US_Cities_List/carmel.png,../static/images/US_Cities_List/carmel.png,../static/images/US_Cities_List/gatlinburg.png,../static/images/US_Cities_List/hanover.png,1,,,,,,,,,
null,,html-keyboard-response,1434243,,,<p></p>,,,,,null,,,,,,,,,,,,,,,,,,,,
5518.899999976158,,directmemory_phase,1439785,,,../static/images/US_Cities_List/shreveport.png,,,,,49,,,0.5,0,../static/images/US_Cities_List/peoria.png,../static/images/US_Cities_List/gatlinburg.png,../static/images/US_Cities_List/racine.png,../static/images/US_Cities_List/racine.png,../static/images/US_Cities_List/gatlinburg.png,../static/images/US_Cities_List/peoria.png,0.5,closer,,,,,,,,
null,,html-keyboard-response,1440789,,,<p></p>,,,,,null,,,,,,,,,,,,,,,,,,,,
4754,,directmemory_phase,1445568,,,../static/images/US_Cities_List/cornwall.png,,,,,51,,,0.5333333333333333,1,../static/images/US_Cities_List/leesburg.png,../static/images/US_Cities_List/newhope.png,../static/images/US_Cities_List/hanover.png,../static/images/US_Cities_List/hanover.png,../static/images/US_Cities_List/newhope.png,../static/images/US_Cities_List/leesburg.png,1,,,,,,,,,
null,,html-keyboard-response,1446573,,,<p></p>,,,,,null,,,,,,,,,,,,,,,,,,,,
5141.0999999940395,,directmemory_phase,1451739,,,../static/images/US_Cities_List/hotsprings.png,,,,,49,,,0.5625,1,../static/images/US_Cities_List/newhope.png,../static/images/US_Cities_List/carmel.png,../static/images/US_Cities_List/westpalmbeach.png,../static/images/US_Cities_List/newhope.png,../static/images/US_Cities_List/westpalmbeach.png,../static/images/US_Cities_List/carmel.png,1,,,,,,,,,
null,,html-keyboard-response,1452743,,,<p></p>,,,,,null,,,,,,,,,,,,,,,,,,,,
5620,,directmemory_phase,1458384,,,../static/images/US_Cities_List/huntsville.png,,,,,49,,,0.5882352941176471,1,../static/images/US_Cities_List/hanover.png,../static/images/US_Cities_List/peoria.png,../static/images/US_Cities_List/hotsprings.png,../static/images/US_Cities_List/hanover.png,../static/images/US_Cities_List/hotsprings.png,../static/images/US_Cities_List/peoria.png,1,,,,,,,,,
null,,html-keyboard-response,1459402,,,<p></p>,,,,,null,,,,,,,,,,,,,,,,,,,,
3031.4000000059605,,directmemory_phase,1462461,,,../static/images/US_Cities_List/boulder.png,,,,,49,,,0.6111111111111112,1,../static/images/US_Cities_List/leesburg.png,../static/images/US_Cities_List/gatlinburg.png,../static/images/US_Cities_List/carmel.png,../static/images/US_Cities_List/leesburg.png,../static/images/US_Cities_List/carmel.png,../static/images/US_Cities_List/gatlinburg.png,1,,,,,,,,,
null,,html-keyboard-response,1463466,,,<p></p>,,,,,null,,,,,,,,,,,,,,,,,,,,
3406,,directmemory_phase,1466899,,,../static/images/US_Cities_List/gatlinburg.png,,,,,49,,,0.631578947368421,1,../static/images/US_Cities_List/carmel.png,../static/images/US_Cities_List/hanover.png,../static/images/US_Cities_List/racine.png,../static/images/US_Cities_List/carmel.png,../static/images/US_Cities_List/racine.png,../static/images/US_Cities_List/hanover.png,1,,,,,,,,,
null,,html-keyboard-response,1467903,,,<p></p>,,,,,null,,,,,,,,,,,,,,,,,,,,
4186.199999988079,,directmemory_phase,1472115,,,../static/images/US_Cities_List/leesburg.png,,,,,51,,,0.65,1,../static/images/US_Cities_List/hanover.png,../static/images/US_Cities_List/gatlinburg.png,../static/images/US_Cities_List/boulder.png,../static/images/US_Cities_List/boulder.png,../static/images/US_Cities_List/gatlinburg.png,../static/images/US_Cities_List/hanover.png,1,,,,,,,,,
null,,html-keyboard-response,1473120,,,<p></p>,,,,,null,,,,,,,,,,,,,,,,,,,,
3774.699999988079,,directmemory_phase,1476930,,,../static/images/US_Cities_List/hotsprings.png,,,,,51,,,0.6666666666666666,1,../static/images/US_Cities_List/gatlinburg.png,../static/images/US_Cities_List/westpalmbeach.png,../static/images/US_Cities_List/cornwall.png,../static/images/US_Cities_List/cornwall.png,../static/images/US_Cities_List/westpalmbeach.png,../static/images/US_Cities_List/gatlinburg.png,1,,,,,,,,,
null,,html-keyboard-response,1477934,,,<p></p>,,,,,null,,,,,,,,,,,,,,,,,,,,
4214.700000017881,,directmemory_phase,1482181,,,../static/images/US_Cities_List/carmel.png,,,,,49,,,0.6818181818181818,1,../static/images/US_Cities_List/racine.png,../static/images/US_Cities_List/cornwall.png,../static/images/US_Cities_List/huntsville.png,../static/images/US_Cities_List/racine.png,../static/images/US_Cities_List/huntsville.png,../static/images/US_Cities_List/cornwall.png,1,,,,,,,,,
null,,html-keyboard-response,1483187,,,<p></p>,,,,,null,,,,,,,,,,,,,,,,,,,,
5085.799999982119,,directmemory_phase,1488297,,,../static/images/US_Cities_List/newhope.png,,,,,49,,,0.6521739130434783,0,../static/images/US_Cities_List/racine.png,../static/images/US_Cities_List/hotsprings.png,../static/images/US_Cities_List/westpalmbeach.png,../static/images/US_Cities_List/hotsprings.png,../static/images/US_Cities_List/racine.png,../static/images/US_Cities_List/westpalmbeach.png,0.5,closer,,,,,,,,
null,,html-keyboard-response,1489301,,,<p></p>,,,,,null,,,,,,,,,,,,,,,,,,,,
3484.800000011921,,directmemory_phase,1492823,,,../static/images/US_Cities_List/cornwall.png,,,,,49,,,0.6666666666666666,1,../static/images/US_Cities_List/westpalmbeach.png,../static/images/US_Cities_List/carmel.png,../static/images/US_Cities_List/newhope.png,../static/images/US_Cities_List/westpalmbeach.png,../static/images/US_Cities_List/newhope.png,../static/images/US_Cities_List/carmel.png,1,,,,,,,,,
null,,html-keyboard-response,1493826,,,<p></p>,,,,,null,,,,,,,,,,,,,,,,,,,,
3700.100000023842,,directmemory_phase,1497551,,,../static/images/US_Cities_List/huntsville.png,,,,,49,,,0.68,1,../static/images/US_Cities_List/newhope.png,../static/images/US_Cities_List/peoria.png,../static/images/US_Cities_List/leesburg.png,../static/images/US_Cities_List/newhope.png,../static/images/US_Cities_List/leesburg.png,../static/images/US_Cities_List/peoria.png,1,,,,,,,,,
null,,html-keyboard-response,1498555,,,<p></p>,,,,,null,,,,,,,,,,,,,,,,,,,,
4865.299999982119,,directmemory_phase,1503445,,,../static/images/US_Cities_List/carmel.png,,,,,50,,,0.6923076923076923,1,../static/images/US_Cities_List/boulder.png,../static/images/US_Cities_List/leesburg.png,../static/images/US_Cities_List/peoria.png,../static/images/US_Cities_List/leesburg.png,../static/images/US_Cities_List/boulder.png,../static/images/US_Cities_List/peoria.png,1,,,,,,,,,
null,,html-keyboard-response,1504448,,,<p></p>,,,,,null,,,,,,,,,,,,,,,,,,,,
5334.0999999940395,,directmemory_phase,1509811,,,../static/images/US_Cities_List/huntsville.png,,,,,51,,,0.6666666666666666,0,../static/images/US_Cities_List/racine.png,../static/images/US_Cities_List/peoria.png,../static/images/US_Cities_List/cornwall.png,../static/images/US_Cities_List/racine.png,../static/images/US_Cities_List/cornwall.png,../static/images/US_Cities_List/peoria.png,0.5,closer,,,,,,,,
null,,html-keyboard-response,1510816,,,<p></p>,,,,,null,,,,,,,,,,,,,,,,,,,,
3649.2999999821186,,directmemory_phase,1514495,,,../static/images/US_Cities_List/hanover.png,,,,,51,,,0.6785714285714286,1,../static/images/US_Cities_List/gatlinburg.png,../static/images/US_Cities_List/racine.png,../static/images/US_Cities_List/cornwall.png,../static/images/US_Cities_List/cornwall.png,../static/images/US_Cities_List/racine.png,../static/images/US_Cities_List/gatlinburg.png,1,,,,,,,,,
null,,html-keyboard-response,1515499,,,<p></p>,,,,,null,,,,,,,,,,,,,,,,,,,,
5314,,directmemory_phase,1520843,,,../static/images/US_Cities_List/newhope.png,,,,,51,,,0.6896551724137931,1,../static/images/US_Cities_List/gatlinburg.png,../static/images/US_Cities_List/racine.png,../static/images/US_Cities_List/shreveport.png,../static/images/US_Cities_List/shreveport.png,../static/images/US_Cities_List/racine.png,../static/images/US_Cities_List/gatlinburg.png,1,,,,,,,,,
null,,html-keyboard-response,1521848,,,<p></p>,,,,,null,,,,,,,,,,,,,,,,,,,,
3797.699999988079,,directmemory_phase,1525677,,,../static/images/US_Cities_List/westpalmbeach.png,,,,,49,,,0.7,1,../static/images/US_Cities_List/cornwall.png,../static/images/US_Cities_List/racine.png,../static/images/US_Cities_List/hotsprings.png,../static/images/US_Cities_List/cornwall.png,../static/images/US_Cities_List/hotsprings.png,../static/images/US_Cities_List/racine.png,1,,,,,,,,,
null,,html-keyboard-response,1526681,,,<p></p>,,,,,null,,,,,,,,,,,,,,,,,,,,
4219.399999976158,,directmemory_phase,1530924,,,../static/images/US_Cities_List/hanover.png,,,,,49,,,0.7096774193548387,1,../static/images/US_Cities_List/huntsville.png,../static/images/US_Cities_List/shreveport.png,../static/images/US_Cities_List/westpalmbeach.png,../static/images/US_Cities_List/huntsville.png,../static/images/US_Cities_List/westpalmbeach.png,../static/images/US_Cities_List/shreveport.png,1,,,,,,,,,
null,,html-keyboard-response,1531944,,,<p></p>,,,,,null,,,,,,,,,,,,,,,,,,,,
4296.799999982119,,directmemory_phase,1536274,,,../static/images/US_Cities_List/cornwall.png,,,,,49,,,0.71875,1,../static/images/US_Cities_List/hotsprings.png,../static/images/US_Cities_List/leesburg.png,../static/images/US_Cities_List/peoria.png,../static/images/US_Cities_List/hotsprings.png,../static/images/US_Cities_List/peoria.png,../static/images/US_Cities_List/leesburg.png,1,,,,,,,,,
null,,html-keyboard-response,1537276,,,<p></p>,,,,,null,,,,,,,,,,,,,,,,,,,,
20042.69999998808,,intro_1,1557320,,,instruct,,,0,,,,,,,,,,,,,,,,,,,,,,
22112.40000000596,,intro_2,1579434,,,instruct,,,1,Next,,,,,,,,,,,,,,,,,,,,,
14424.300000011921,,intro_3,1593860,,,instruct,,,1,Next,,,,,,,,,,,,,,,,,,,,,
14935.399999976158,,intro_4,1608797,,,instruct,,,1,Next,,,,,,,,,,,,,,,,,,,,,
18828.09999999404,,intro_5,1627627,,,instruct,,,1,Next,,,,,,,,,,,,,,,,,,,,,
12835.700000017881,,intro_6,1640464,,,instruct,,,1,Next,,,,,,,,,,,,,,,,,,,,,
17773.899999976158,,intro_7,1658240,,,instruct,,,1,Next,,,,,,,,,,,,,,,,,,,,,
19478.30000001192,,intro_8,1677720,,,instruct,,,1,Next,,,,,,,,,,,,,,,,,,,,,
26613.09999999404,,intro_9,1704335,,,instruct,,,1,Next,,,,,,,,,,,,,,,,,,,,,
21376.5,,intro_10,1725713,,,instruct,,,1,Next,,,,,,,,,,,,,,,,,,,,,
14831.09999999404,,intro_11,1740546,,,instruct,,,1,Next,,,,,,,,,,,,,,,,,,,,,
null,,shortestpath_phase,1748063,,,../static/images/US_Cities_List/hanover.png,,,,,null,../static/images/US_Cities_List/newhope.png,../static/images/US_Cities_List/boulder.png,0,0,,,,../static/images/US_Cities_List/newhope.png,,,,,Two Edge Diff,Two Edge Four Edge,,,,,,
null,,warning_page,1751067,,,warning,,,,,null,,,,,,,,,,,,,,,,,,,,
null,,html-keyboard-response,1752080,,,<p></p>,,,,,null,,,,,,,,,,,,,,,,,,,,
4233.600000023842,,shortestpath_phase,1756328,,,../static/images/US_Cities_List/gatlinburg.png,,,,,49,../static/images/US_Cities_List/shreveport.png,../static/images/US_Cities_List/huntsville.png,0.5,1,,,,../static/images/US_Cities_List/shreveport.png,,,,,One Edge Diff,Two Edge Three Edge,,,,,,
null,,html-keyboard-response,1757333,,,<p></p>,,,,,null,,,,,,,,,,,,,,,,,,,,
7119.200000017881,,shortestpath_phase,1764476,,,../static/images/US_Cities_List/peoria.png,,,,,50,../static/images/US_Cities_List/gatlinburg.png,../static/images/US_Cities_List/cornwall.png,0.6666666666666666,1,,,,../static/images/US_Cities_List/cornwall.png,,,,,Three Edge Diff,Three Edge Six Edge,,,,,,
null,,html-keyboard-response,1765480,,,<p></p>,,,,,null,,,,,,,,,,,,,,,,,,,,
null,,shortestpath_phase,1772999,,,../static/images/US_Cities_List/racine.png,,,,,null,../static/images/US_Cities_List/hotsprings.png,../static/images/US_Cities_List/peoria.png,0.5,0,,,,../static/images/US_Cities_List/hotsprings.png,,,,,One Edge Diff,Three Edge Four Edge,,,,,,
null,,warning_page,1776003,,,warning,,,,,null,,,,,,,,,,,,,,,,,,,,
null,,html-keyboard-response,1777005,,,<p></p>,,,,,null,,,,,,,,,,,,,,,,,,,,
null,,shortestpath_phase,1784519,,,../static/images/US_Cities_List/boulder.png,,,,,null,../static/images/US_Cities_List/hanover.png,../static/images/US_Cities_List/huntsville.png,0.4,0,,,,../static/images/US_Cities_List/huntsville.png,,,,,One Edge Diff,Three Edge Four Edge,,,,,,
null,,warning_page,1787524,,,warning,,,,,null,,,,,,,,,,,,,,,,,,,,
null,,html-keyboard-response,1788527,,,<p></p>,,,,,null,,,,,,,,,,,,,,,,,,,,
2267.7999999821186,,shortestpath_phase,1790841,,,../static/images/US_Cities_List/westpalmbeach.png,,,,,50,../static/images/US_Cities_List/hotsprings.png,../static/images/US_Cities_List/gatlinburg.png,0.3333333333333333,0,,,,../static/images/US_Cities_List/hotsprings.png,,,,,Four Edge Diff,Two Edge Six Edge,,,,,,
null,,html-keyboard-response,1791844,,,<p></p>,,,,,null,,,,,,,,,,,,,,,,,,,,
1742.8999999761581,,shortestpath_phase,1793606,,,../static/images/US_Cities_List/boulder.png,,,,,50,../static/images/US_Cities_List/westpalmbeach.png,../static/images/US_Cities_List/hanover.png,0.42857142857142855,1,,,,../static/images/US_Cities_List/hanover.png,,,,,Two Edge Diff,Four Edge Six Edge,,,,,,
null,,html-keyboard-response,1794608,,,<p></p>,,,,,null,,,,,,,,,,,,,,,,,,,,
1947.5999999940395,,shortestpath_phase,1796575,,,../static/images/US_Cities_List/leesburg.png,,,,,50,../static/images/US_Cities_List/peoria.png,../static/images/US_Cities_List/gatlinburg.png,0.5,1,,,,../static/images/US_Cities_List/gatlinburg.png,,,,,Three Edge Diff,Three Edge Six Edge,,,,,,
null,,html-keyboard-response,1797580,,,<p></p>,,,,,null,,,,,,,,,,,,,,,,,,,,
554.9000000059605,,shortestpath_phase,1798156,,,../static/images/US_Cities_List/westpalmbeach.png,,,,,50,../static/images/US_Cities_List/hanover.png,../static/images/US_Cities_List/gatlinburg.png,0.4444444444444444,0,,,,../static/images/US_Cities_List/hanover.png,,,,,Four Edge Diff,Two Edge Six Edge,,,,,,
null,,html-keyboard-response,1799160,,,<p></p>,,,,,null,,,,,,,,,,,,,,,,,,,,
null,,shortestpath_phase,1806681,,,../static/images/US_Cities_List/boulder.png,,,,,null,../static/images/US_Cities_List/hotsprings.png,../static/images/US_Cities_List/racine.png,0.4,0,,,,../static/images/US_Cities_List/racine.png,,,,,Three Edge Diff,Two Edge Five Edge,,,,,,
null,,warning_page,1809684,,,warning,,,,,null,,,,,,,,,,,,,,,,,,,,
null,,html-keyboard-response,1810686,,,<p></p>,,,,,null,,,,,,,,,,,,,,,,,,,,
5659.800000011921,,shortestpath_phase,1816370,,,../static/images/US_Cities_List/cornwall.png,,,,,50,../static/images/US_Cities_List/boulder.png,../static/images/US_Cities_List/peoria.png,0.45454545454545453,1,,,,../static/images/US_Cities_List/peoria.png,,,,,Three Edge Diff,Two Edge Five Edge,,,,,,
null,,html-keyboard-response,1817374,,,<p></p>,,,,,null,,,,,,,,,,,,,,,,,,,,
3433,,shortestpath_phase,1820836,,,../static/images/US_Cities_List/gatlinburg.png,,,,,50,../static/images/US_Cities_List/cornwall.png,../static/images/US_Cities_List/leesburg.png,0.5,1,,,,../static/images/US_Cities_List/leesburg.png,,,,,Three Edge Diff,Three Edge Six Edge,,,,,,
null,,html-keyboard-response,1821840,,,<p></p>,,,,,null,,,,,,,,,,,,,,,,,,,,
