rt,responses,trial_type,time_elapsed,image_type,sequence,stimulus,cities,city_images,button_pressed,response,key_press,failed_practice,stimulus_left,stimulus_right,accuracy,cumulative_accuracy,stimulus_down_left,stimulus_down_mid,stimulus_down_right,stimulus_correct,stimulus_short,stimulus_far,weighted_accuracy,missedtrial,condition,specific_pairs,imgL_ID,imgR_ID,linedress,linedressed,detour_trial,linedressed_detor
187459,{worker_id:6824ca9431d5202089ce433d},id_enter,187463,fictional,interleaved,flights,Cedarwyn; Juniper Creek; Granton Ridge; New Verdan; Baymarsh; Claywater; Hollendale; Delaro Park; Riverlyn; Sunmere; Orchard Bend; North Arroya; Hawthorne Bluffs,US_Cities_List/huntsville.png; US_Cities_List/gatlinburg.png; US_Cities_List/hanover.png; US_Cities_List/racine.png; US_Cities_List/leesburg.png; US_Cities_List/boulder.png; US_Cities_List/carmel.png; US_Cities_List/cornwall.png; US_Cities_List/westpalmbeach.png; US_Cities_List/hotsprings.png; US_Cities_List/peoria.png; US_Cities_List/newhope.png; US_Cities_List/shreveport.png,,,,,,,,,,,,,,,,,,,,,,,,
322258,,fullscreen,509729,,,make_fullscreen,,,0,,,,,,,,,,,,,,,,,,,,,,,
225964,,intro_1,735699,,,instruct,,,0,,,,,,,,,,,,,,,,,,,,,,,
109606,,intro_2,845309,,,instruct,,,1,Next,,,,,,,,,,,,,,,,,,,,,,
141137,,intro_3,986450,,,instruct,,,1,Next,,,,,,,,,,,,,,,,,,,,,,
195235,,intro_4,1181690,,,instruct,,,1,Next,,,,,,,,,,,,,,,,,,,,,,
91285,,intro_5,1272978,,,instruct,,,1,Next,,,,,,,,,,,,,,,,,,,,,,
413105,,intro_6,1686087,,,instruct,,,1,Next,,,,,,,,,,,,,,,,,,,,,,
147137,,intro_7,1833230,,,instruct,,,1,Next,,,,,,,,,,,,,,,,,,,,,,
null,,learn_prac_1,1836233,,,lean_prac_1,,,,,null,,,,,,,,,,,,,,,,,,,,,
null,,html-keyboard-response,1837252,,,<p></p>,,,,,null,,,,,,,,,,,,,,,,,,,,,
66010,,intro_1,1903264,,,instruct,,,0,,,,,,,,,,,,,,,,,,,,,,,
27532,,intro_2,1930796,,,instruct,,,1,Next,,,,,,,,,,,,,,,,,,,,,,
null,,learn_prac_2,1933807,,,lean_prac_2,,,,,null,,,,,,,,,,,,,,,,,,,,,
null,,html-keyboard-response,1934820,,,<p></p>,,,,,null,,,,,,,,,,,,,,,,,,,,,
15915,,intro_1,1950735,,,instruct,,,0,,,,,,,,,,,,,,,,,,,,,,,
74484,,intro_2,2025220,,,instruct,,,1,Next,,,,,,,,,,,,,,,,,,,,,,
450395,,intro_3,2475619,,,instruct,,,1,Next,,,,,,,,,,,,,,,,,,,,,,
null,,prac_atten_color_black,2476066,,,black_plus_sign,,,,,null,,,,,,,,,,,,,,,,,,,,,
null,,prac_atten_color,2477050,,,prac_stop_color,,,,,null,,,,,,,,,,,,,,,,,,,,,
null,,prac_atten_color_black,2479055,,,black_plus_sign,,,,,null,,,,,,,,,,,,,,,,,,,,,
20164,,attentioncheck_help,2499225,,,instruct,,,,,32,,,,,,,,,,,,,,,,,,,,,
null,,prac_atten_color_black,2499672,,,black_plus_sign,,,,,null,,,,,,,,,,,,,,,,,,,,,
null,,prac_atten_color,2500173,,,prac_stop_color,,,,,null,,,,,,,,,,,,,,,,,,,,,
null,,prac_atten_color_black,2502188,,,black_plus_sign,,,,,null,,,,,,,,,,,,,,,,,,,,,
3688,,attentioncheck_help,2505882,,,instruct,,,,,32,,,,,,,,,,,,,,,,,,,,,
null,,prac_atten_color_black,2506819,,,black_plus_sign,,,,,null,,,,,,,,,,,,,,,,,,,,,
null,,prac_atten_color,2507717,,,prac_stop_color,,,,,null,,,,,,,,,,,,,,,,,,,,,
null,,prac_atten_color_black,2509733,,,black_plus_sign,,,,,null,,,,,,,,,,,,,,,,,,,,,
8863,,attentioncheck_help,2518602,,,instruct,,,,,32,,,,,,,,,,,,,,,,,,,,,
null,,prac_atten_color_black,2519113,,,black_plus_sign,,,,,null,,,,,,,,,,,,,,,,,,,,,
null,,prac_atten_color,2519846,,,prac_stop_color,,,,,null,,,,,,,,,,,,,,,,,,,,,
null,,prac_atten_color_black,2521861,,,black_plus_sign,,,,,null,,,,,,,,,,,,,,,,,,,,,
2806,,attentioncheck_help,2524672,,,instruct,,,,,32,,,,,,,,,,,,,,,,,,,,,
null,,prac_atten_color_black,2525365,,,black_plus_sign,,,,,null,,,,,,,,,,,,,,,,,,,,,
null,,prac_atten_color,2525823,,,prac_stop_color,,,,,null,,,,,,,,,,,,,,,,,,,,,
null,,prac_atten_color_black,2527825,,,black_plus_sign,,,,,null,,,,,,,,,,,,,,,,,,,,,
5849,,attentioncheck_help,2533679,,,instruct,,,,,32,,,,,,,,,,,,,,,,,,,,,
null,,prac_atten_color_black,2534640,,,black_plus_sign,,,,,null,,,,,,,,,,,,,,,,,,,,,
null,,prac_atten_color,2535632,,,prac_stop_color,,,,,null,,,,,,,,,,,,,,,,,,,,,
null,,prac_atten_color_black,2537644,,,black_plus_sign,,,,,null,,,,,,,,,,,,,,,,,,,,,
15908,,attentioncheck_help,2553557,,,instruct,,,,,32,,,,,,,,,,,,,,,,,,,,,
null,,prac_atten_color_black,2554095,,,black_plus_sign,,,,,null,,,,,,,,,,,,,,,,,,,,,
null,,prac_atten_color,2554520,,,prac_stop_color,,,,,null,,,,,,,,,,,,,,,,,,,,,
null,,prac_atten_color_black,2556741,,,black_plus_sign,,,,,null,,,,,,,,,,,,,,,,,,,,,
1954,,attentioncheck_help,2558702,,,instruct,,,,,32,,,,,,,,,,,,,,,,,,,,,
null,,prac_atten_color_black,2559708,,,black_plus_sign,,,,,null,,,,,,,,,,,,,,,,,,,,,
null,,prac_atten_color,2560658,,,prac_stop_color,,,,,null,,,,,,,,,,,,,,,,,,,,,
1386,,prac_atten_color_black,2562794,,,black_plus_sign,,,,,50,,,,,,,,,,,,,,,,,,,,,
null,,prac_atten_color_black,2563287,,,black_plus_sign,,,,,null,,,,,,,,,,,,,,,,,,,,,
null,,prac_atten_color,2563881,,,prac_stop_color,,,,,null,,,,,,,,,,,,,,,,,,,,,
null,,prac_atten_color_black,2565888,,,black_plus_sign,,,,,null,,,,,,,,,,,,,,,,,,,,,
1874,,attentioncheck_help,2567767,,,instruct,,,,,32,,,,,,,,,,,,,,,,,,,,,
null,,prac_atten_color_black,2568594,,,black_plus_sign,,,,,null,,,,,,,,,,,,,,,,,,,,,
null,,prac_atten_color,2569410,,,prac_stop_color,,,,,null,,,,,,,,,,,,,,,,,,,,,
null,,prac_atten_color_black,2571418,,,black_plus_sign,,,,,null,,,,,,,,,,,,,,,,,,,,,
25494,,attentioncheck_feedback,2596918,,,cross_check_feedback,,,0,,,1,,,,,,,,,,,,,,,,,,,,
null,,prac_atten_color_black,2597826,,,black_plus_sign,,,,,null,,,,,,,,,,,,,,,,,,,,,
null,,prac_atten_color,2598395,,,prac_stop_color,,,,,null,,,,,,,,,,,,,,,,,,,,,
null,,prac_atten_color_black,2600399,,,black_plus_sign,,,,,null,,,,,,,,,,,,,,,,,,,,,
97294,,attentioncheck_help,2697701,,,instruct,,,,,32,,,,,,,,,,,,,,,,,,,,,
null,,prac_atten_color_black,2698545,,,black_plus_sign,,,,,null,,,,,,,,,,,,,,,,,,,,,
null,,prac_atten_color,2699020,,,prac_stop_color,,,,,null,,,,,,,,,,,,,,,,,,,,,
300,,prac_atten_color_black,2701036,,,black_plus_sign,,,,,50,,,,,,,,,,,,,,,,,,,,,
null,,prac_atten_color_black,2701982,,,black_plus_sign,,,,,null,,,,,,,,,,,,,,,,,,,,,
null,,prac_atten_color,2702846,,,prac_stop_color,,,,,null,,,,,,,,,,,,,,,,,,,,,
384,,prac_atten_color_black,2704862,,,black_plus_sign,,,,,50,,,,,,,,,,,,,,,,,,,,,
null,,prac_atten_color_black,2705427,,,black_plus_sign,,,,,null,,,,,,,,,,,,,,,,,,,,,
null,,prac_atten_color,2706256,,,prac_stop_color,,,,,null,,,,,,,,,,,,,,,,,,,,,
335,,prac_atten_color_black,2708263,,,black_plus_sign,,,,,49,,,,,,,,,,,,,,,,,,,,,
null,,prac_atten_color_black,2708853,,,black_plus_sign,,,,,null,,,,,,,,,,,,,,,,,,,,,
null,,prac_atten_color,2709695,,,prac_stop_color,,,,,null,,,,,,,,,,,,,,,,,,,,,
492,,prac_atten_color_black,2711699,,,black_plus_sign,,,,,50,,,,,,,,,,,,,,,,,,,,,
null,,prac_atten_color_black,2712277,,,black_plus_sign,,,,,null,,,,,,,,,,,,,,,,,,,,,
null,,prac_atten_color,2713266,,,prac_stop_color,,,,,null,,,,,,,,,,,,,,,,,,,,,
134,,prac_atten_color_black,2715280,,,black_plus_sign,,,,,50,,,,,,,,,,,,,,,,,,,,,
null,,prac_atten_color_black,2715761,,,black_plus_sign,,,,,null,,,,,,,,,,,,,,,,,,,,,
null,,prac_atten_color,2716562,,,prac_stop_color,,,,,null,,,,,,,,,,,,,,,,,,,,,
120,,prac_atten_color_black,2718577,,,black_plus_sign,,,,,49,,,,,,,,,,,,,,,,,,,,,
null,,prac_atten_color_black,2719217,,,black_plus_sign,,,,,null,,,,,,,,,,,,,,,,,,,,,
null,,prac_atten_color,2719719,,,prac_stop_color,,,,,null,,,,,,,,,,,,,,,,,,,,,
506,,prac_atten_color_black,2721731,,,black_plus_sign,,,,,50,,,,,,,,,,,,,,,,,,,,,
null,,prac_atten_color_black,2722664,,,black_plus_sign,,,,,null,,,,,,,,,,,,,,,,,,,,,
null,,prac_atten_color,2723178,,,prac_stop_color,,,,,null,,,,,,,,,,,,,,,,,,,,,
316,,prac_atten_color_black,2725191,,,black_plus_sign,,,,,49,,,,,,,,,,,,,,,,,,,,,
null,,prac_atten_color_black,2726115,,,black_plus_sign,,,,,null,,,,,,,,,,,,,,,,,,,,,
null,,prac_atten_color,2726715,,,prac_stop_color,,,,,null,,,,,,,,,,,,,,,,,,,,,
353,,prac_atten_color_black,2728742,,,black_plus_sign,,,,,49,,,,,,,,,,,,,,,,,,,,,
55674,,attentioncheck_feedback,2784421,,,cross_check_feedback,,,0,,,,,,,,,,,,,,,,,,,,,,,
126317,,last_instruct,2910741,,,instruct,,,,,32,,,,,,,,,,,,,,,,,,,,,
null,,learn_phase(without_color),2913781,,,black_plus_sign,,,,,null,,US_Cities_List/westpalmbeach.png,US_Cities_List/carmel.png,,,,,,,,,,,,,,,,,,
null,,black_cross(without_color),2914766,,,yellow,,,,,null,,US_Cities_List/westpalmbeach.png,US_Cities_List/carmel.png,,,,,,,,,,,,,,,,,,
null,,rt_plussign_withcolor,2915268,,,yellow,,,,,null,,US_Cities_List/westpalmbeach.png,US_Cities_List/carmel.png,,,,,,,,,,,,,,,,,,
1613,,rt_thecrossant_black,2916317,,,black_plus_sign,,,,,50,,,,1,1,,,,,,,,,,,,,,,,
null,,color_black,2916425,,,black_plus_sign,,,,,null,,,,,,,,,,,,,,,,,,,,,
null,,learn_phase(without_color),2919498,,,black_plus_sign,,,,,null,,US_Cities_List/westpalmbeach.png,US_Cities_List/cornwall.png,,,,,,,,,,,,,,,,,,
null,,black_cross(without_color),2920182,,,blue,,,,,null,,US_Cities_List/westpalmbeach.png,US_Cities_List/cornwall.png,,,,,,,,,,,,,,,,,,
null,,rt_plussign_withcolor,2920684,,,blue,,,,,null,,US_Cities_List/westpalmbeach.png,US_Cities_List/cornwall.png,,,,,,,,,,,,,,,,,,
1664,,rt_thecrossant_black,2922032,,,black_plus_sign,,,,,49,,,,1,1,,,,,,,,,,,,,,,,
null,,color_black,2922142,,,black_plus_sign,,,,,null,,,,,,,,,,,,,,,,,,,,,
null,,learn_phase(without_color),2925184,,,black_plus_sign,,,,,null,,US_Cities_List/hanover.png,US_Cities_List/peoria.png,,,,,,,,,,,,,,,,,,
null,,black_cross(without_color),2925950,,,yellow,,,,,null,,US_Cities_List/hanover.png,US_Cities_List/peoria.png,,,,,,,,,,,,,,,,,,
null,,rt_plussign_withcolor,2926466,,,yellow,,,,,null,,US_Cities_List/hanover.png,US_Cities_List/peoria.png,,,,,,,,,,,,,,,,,,
1539,,rt_thecrossant_black,2927719,,,black_plus_sign,,,,,50,,,,1,1,,,,,,,,,,,,,,,,
null,,color_black,2927829,,,black_plus_sign,,,,,null,,,,,,,,,,,,,,,,,,,,,
null,,learn_phase(without_color),2930954,,,black_plus_sign,,,,,null,,US_Cities_List/carmel.png,US_Cities_List/westpalmbeach.png,,,,,,,,,,,,,,,,,,
null,,black_cross(without_color),2931516,,,yellow,,,,,null,,US_Cities_List/carmel.png,US_Cities_List/westpalmbeach.png,,,,,,,,,,,,,,,,,,
null,,rt_plussign_withcolor,2932031,,,yellow,,,,,null,,US_Cities_List/carmel.png,US_Cities_List/westpalmbeach.png,,,,,,,,,,,,,,,,,,
1396,,rt_thecrossant_black,2933493,,,black_plus_sign,,,,,50,,,,1,1,,,,,,,,,,,,,,,,
null,,color_black,2933604,,,black_plus_sign,,,,,null,,,,,,,,,,,,,,,,,,,,,
null,,learn_phase(without_color),2936660,,,black_plus_sign,,,,,null,,US_Cities_List/racine.png,US_Cities_List/newhope.png,,,,,,,,,,,,,,,,,,
null,,black_cross(without_color),2937640,,,yellow,,,,,null,,US_Cities_List/racine.png,US_Cities_List/newhope.png,,,,,,,,,,,,,,,,,,
null,,rt_plussign_withcolor,2938157,,,yellow,,,,,null,,US_Cities_List/racine.png,US_Cities_List/newhope.png,,,,,,,,,,,,,,,,,,
1040,,rt_thecrossant_black,2939207,,,black_plus_sign,,,,,50,,,,1,1,,,,,,,,,,,,,,,,
null,,color_black,2939316,,,black_plus_sign,,,,,null,,,,,,,,,,,,,,,,,,,,,
null,,learn_phase(without_color),2942387,,,black_plus_sign,,,,,null,,US_Cities_List/cornwall.png,US_Cities_List/westpalmbeach.png,,,,,,,,,,,,,,,,,,
null,,black_cross(without_color),2943177,,,blue,,,,,null,,US_Cities_List/cornwall.png,US_Cities_List/westpalmbeach.png,,,,,,,,,,,,,,,,,,
null,,rt_plussign_withcolor,2943692,,,blue,,,,,null,,US_Cities_List/cornwall.png,US_Cities_List/westpalmbeach.png,,,,,,,,,,,,,,,,,,
1558,,rt_thecrossant_black,2944924,,,black_plus_sign,,,,,49,,,,1,1,,,,,,,,,,,,,,,,
null,,color_black,2945033,,,black_plus_sign,,,,,null,,,,,,,,,,,,,,,,,,,,,
null,,learn_phase(without_color),2948073,,,black_plus_sign,,,,,null,,US_Cities_List/huntsville.png,US_Cities_List/gatlinburg.png,,,,,,,,,,,,,,,,,,
null,,black_cross(without_color),2949093,,,yellow,,,,,null,,US_Cities_List/huntsville.png,US_Cities_List/gatlinburg.png,,,,,,,,,,,,,,,,,,
null,,rt_plussign_withcolor,2949595,,,yellow,,,,,null,,US_Cities_List/huntsville.png,US_Cities_List/gatlinburg.png,,,,,,,,,,,,,,,,,,
1274,,rt_thecrossant_black,2950599,,,black_plus_sign,,,,,50,,,,1,1,,,,,,,,,,,,,,,,
null,,color_black,2950709,,,black_plus_sign,,,,,null,,,,,,,,,,,,,,,,,,,,,
null,,learn_phase(without_color),2953775,,,black_plus_sign,,,,,null,,US_Cities_List/westpalmbeach.png,US_Cities_List/peoria.png,,,,,,,,,,,,,,,,,,
null,,black_cross(without_color),2954743,,,yellow,,,,,null,,US_Cities_List/westpalmbeach.png,US_Cities_List/peoria.png,,,,,,,,,,,,,,,,,,
null,,rt_plussign_withcolor,2955255,,,yellow,,,,,null,,US_Cities_List/westpalmbeach.png,US_Cities_List/peoria.png,,,,,,,,,,,,,,,,,,
1505,,rt_thecrossant_black,2956320,,,black_plus_sign,,,,,50,,,,1,1,,,,,,,,,,,,,,,,
null,,color_black,2956435,,,black_plus_sign,,,,,null,,,,,,,,,,,,,,,,,,,,,
null,,learn_phase(without_color),2959479,,,black_plus_sign,,,,,null,,US_Cities_List/boulder.png,US_Cities_List/hanover.png,,,,,,,,,,,,,,,,,,
null,,black_cross(without_color),2960290,,,yellow,,,,,null,,US_Cities_List/boulder.png,US_Cities_List/hanover.png,,,,,,,,,,,,,,,,,,
null,,rt_plussign_withcolor,2960794,,,yellow,,,,,null,,US_Cities_List/boulder.png,US_Cities_List/hanover.png,,,,,,,,,,,,,,,,,,
1312,,rt_thecrossant_black,2962001,,,black_plus_sign,,,,,50,,,,1,1,,,,,,,,,,,,,,,,
null,,color_black,2962112,,,black_plus_sign,,,,,null,,,,,,,,,,,,,,,,,,,,,
null,,learn_phase(without_color),2965176,,,black_plus_sign,,,,,null,,US_Cities_List/gatlinburg.png,US_Cities_List/hanover.png,,,,,,,,,,,,,,,,,,
null,,black_cross(without_color),2965709,,,yellow,,,,,null,,US_Cities_List/gatlinburg.png,US_Cities_List/hanover.png,,,,,,,,,,,,,,,,,,
null,,rt_plussign_withcolor,2966253,,,yellow,,,,,null,,US_Cities_List/gatlinburg.png,US_Cities_List/hanover.png,,,,,,,,,,,,,,,,,,
1184,,rt_thecrossant_black,2967834,,,black_plus_sign,,,,,50,,,,1,1,,,,,,,,,,,,,,,,
null,,color_black,2967943,,,black_plus_sign,,,,,null,,,,,,,,,,,,,,,,,,,,,
null,,learn_phase(without_color),2971294,,,black_plus_sign,,,,,null,,US_Cities_List/westpalmbeach.png,US_Cities_List/cornwall.png,,,,,,,,,,,,,,,,,,
null,,black_cross(without_color),2972269,,,yellow,,,,,null,,US_Cities_List/westpalmbeach.png,US_Cities_List/cornwall.png,,,,,,,,,,,,,,,,,,
null,,rt_plussign_withcolor,2972784,,,yellow,,,,,null,,US_Cities_List/westpalmbeach.png,US_Cities_List/cornwall.png,,,,,,,,,,,,,,,,,,
851,,rt_thecrossant_black,2973842,,,black_plus_sign,,,,,50,,,,1,1,,,,,,,,,,,,,,,,
null,,color_black,2973951,,,black_plus_sign,,,,,null,,,,,,,,,,,,,,,,,,,,,
null,,learn_phase(without_color),2977015,,,black_plus_sign,,,,,null,,US_Cities_List/peoria.png,US_Cities_List/westpalmbeach.png,,,,,,,,,,,,,,,,,,
null,,black_cross(without_color),2977863,,,yellow,,,,,null,,US_Cities_List/peoria.png,US_Cities_List/westpalmbeach.png,,,,,,,,,,,,,,,,,,
null,,rt_plussign_withcolor,2978379,,,yellow,,,,,null,,US_Cities_List/peoria.png,US_Cities_List/westpalmbeach.png,,,,,,,,,,,,,,,,,,
1496,,rt_thecrossant_black,2979547,,,black_plus_sign,,,,,50,,,,1,1,,,,,,,,,,,,,,,,
null,,color_black,2979656,,,black_plus_sign,,,,,null,,,,,,,,,,,,,,,,,,,,,
null,,learn_phase(without_color),2982698,,,black_plus_sign,,,,,null,,US_Cities_List/carmel.png,US_Cities_List/shreveport.png,,,,,,,,,,,,,,,,,,
null,,black_cross(without_color),2983738,,,yellow,,,,,null,,US_Cities_List/carmel.png,US_Cities_List/shreveport.png,,,,,,,,,,,,,,,,,,
null,,rt_plussign_withcolor,2984252,,,yellow,,,,,null,,US_Cities_List/carmel.png,US_Cities_List/shreveport.png,,,,,,,,,,,,,,,,,,
1271,,rt_thecrossant_black,2985298,,,black_plus_sign,,,,,50,,,,1,1,,,,,,,,,,,,,,,,
null,,color_black,2985406,,,black_plus_sign,,,,,null,,,,,,,,,,,,,,,,,,,,,
null,,learn_phase(without_color),2988451,,,black_plus_sign,,,,,null,,US_Cities_List/leesburg.png,US_Cities_List/racine.png,,,,,,,,,,,,,,,,,,
null,,black_cross(without_color),2989001,,,blue,,,,,null,,US_Cities_List/leesburg.png,US_Cities_List/racine.png,,,,,,,,,,,,,,,,,,
null,,rt_plussign_withcolor,2989503,,,blue,,,,,null,,US_Cities_List/leesburg.png,US_Cities_List/racine.png,,,,,,,,,,,,,,,,,,
1574,,rt_thecrossant_black,2990988,,,black_plus_sign,,,,,49,,,,1,1,,,,,,,,,,,,,,,,
null,,color_black,2991097,,,black_plus_sign,,,,,null,,,,,,,,,,,,,,,,,,,,,
null,,learn_phase(without_color),2994189,,,black_plus_sign,,,,,null,,US_Cities_List/hanover.png,US_Cities_List/peoria.png,,,,,,,,,,,,,,,,,,
null,,black_cross(without_color),2994735,,,blue,,,,,null,,US_Cities_List/hanover.png,US_Cities_List/peoria.png,,,,,,,,,,,,,,,,,,
null,,rt_plussign_withcolor,2995248,,,blue,,,,,null,,US_Cities_List/hanover.png,US_Cities_List/peoria.png,,,,,,,,,,,,,,,,,,
1101,,rt_thecrossant_black,2996733,,,black_plus_sign,,,,,49,,,,1,1,,,,,,,,,,,,,,,,
null,,color_black,2996843,,,black_plus_sign,,,,,null,,,,,,,,,,,,,,,,,,,,,
null,,learn_phase(without_color),2999913,,,black_plus_sign,,,,,null,,US_Cities_List/racine.png,US_Cities_List/gatlinburg.png,,,,,,,,,,,,,,,,,,
null,,black_cross(without_color),3000946,,,yellow,,,,,null,,US_Cities_List/racine.png,US_Cities_List/gatlinburg.png,,,,,,,,,,,,,,,,,,
null,,rt_plussign_withcolor,3001462,,,yellow,,,,,null,,US_Cities_List/racine.png,US_Cities_List/gatlinburg.png,,,,,,,,,,,,,,,,,,
1101,,rt_thecrossant_black,3002446,,,black_plus_sign,,,,,50,,,,1,1,,,,,,,,,,,,,,,,
null,,color_black,3002556,,,black_plus_sign,,,,,null,,,,,,,,,,,,,,,,,,,,,
null,,learn_phase(without_color),3005635,,,black_plus_sign,,,,,null,,US_Cities_List/westpalmbeach.png,US_Cities_List/cornwall.png,,,,,,,,,,,,,,,,,,
null,,black_cross(without_color),3006433,,,yellow,,,,,null,,US_Cities_List/westpalmbeach.png,US_Cities_List/cornwall.png,,,,,,,,,,,,,,,,,,
null,,rt_plussign_withcolor,3006943,,,yellow,,,,,null,,US_Cities_List/westpalmbeach.png,US_Cities_List/cornwall.png,,,,,,,,,,,,,,,,,,
1538,,rt_thecrossant_black,3008170,,,black_plus_sign,,,,,50,,,,1,1,,,,,,,,,,,,,,,,
null,,color_black,3008279,,,black_plus_sign,,,,,null,,,,,,,,,,,,,,,,,,,,,
null,,learn_phase(without_color),3011361,,,black_plus_sign,,,,,null,,US_Cities_List/carmel.png,US_Cities_List/cornwall.png,,,,,,,,,,,,,,,,,,
null,,black_cross(without_color),3012457,,,yellow,,,,,null,,US_Cities_List/carmel.png,US_Cities_List/cornwall.png,,,,,,,,,,,,,,,,,,
null,,rt_plussign_withcolor,3012959,,,yellow,,,,,null,,US_Cities_List/carmel.png,US_Cities_List/cornwall.png,,,,,,,,,,,,,,,,,,
1236,,rt_thecrossant_black,3013898,,,black_plus_sign,,,,,50,,,,1,1,,,,,,,,,,,,,,,,
null,,color_black,3014009,,,black_plus_sign,,,,,null,,,,,,,,,,,,,,,,,,,,,
null,,learn_phase(without_color),3017078,,,black_plus_sign,,,,,null,,US_Cities_List/boulder.png,US_Cities_List/carmel.png,,,,,,,,,,,,,,,,,,
null,,black_cross(without_color),3017896,,,yellow,,,,,null,,US_Cities_List/boulder.png,US_Cities_List/carmel.png,,,,,,,,,,,,,,,,,,
null,,rt_plussign_withcolor,3018397,,,yellow,,,,,null,,US_Cities_List/boulder.png,US_Cities_List/carmel.png,,,,,,,,,,,,,,,,,,
1394,,rt_thecrossant_black,3019598,,,black_plus_sign,,,,,50,,,,1,1,,,,,,,,,,,,,,,,
null,,color_black,3019707,,,black_plus_sign,,,,,null,,,,,,,,,,,,,,,,,,,,,
null,,learn_phase(without_color),3022907,,,black_plus_sign,,,,,null,,US_Cities_List/peoria.png,US_Cities_List/hanover.png,,,,,,,,,,,,,,,,,,
null,,black_cross(without_color),3023940,,,yellow,,,,,null,,US_Cities_List/peoria.png,US_Cities_List/hanover.png,,,,,,,,,,,,,,,,,,
null,,rt_plussign_withcolor,3024454,,,yellow,,,,,null,,US_Cities_List/peoria.png,US_Cities_List/hanover.png,,,,,,,,,,,,,,,,,,
1408,,rt_thecrossant_black,3025492,,,black_plus_sign,,,,,50,,,,1,1,,,,,,,,,,,,,,,,
null,,color_black,3025601,,,black_plus_sign,,,,,null,,,,,,,,,,,,,,,,,,,,,
null,,learn_phase(without_color),3028987,,,black_plus_sign,,,,,null,,US_Cities_List/hanover.png,US_Cities_List/boulder.png,,,,,,,,,,,,,,,,,,
null,,black_cross(without_color),3029706,,,yellow,,,,,null,,US_Cities_List/hanover.png,US_Cities_List/boulder.png,,,,,,,,,,,,,,,,,,
null,,rt_plussign_withcolor,3030221,,,yellow,,,,,null,,US_Cities_List/hanover.png,US_Cities_List/boulder.png,,,,,,,,,,,,,,,,,,
1324,,rt_thecrossant_black,3031525,,,black_plus_sign,,,,,50,,,,1,1,,,,,,,,,,,,,,,,
null,,color_black,3031635,,,black_plus_sign,,,,,null,,,,,,,,,,,,,,,,,,,,,
null,,learn_phase(without_color),3034705,,,black_plus_sign,,,,,null,,US_Cities_List/hanover.png,US_Cities_List/peoria.png,,,,,,,,,,,,,,,,,,
null,,black_cross(without_color),3035246,,,yellow,,,,,null,,US_Cities_List/hanover.png,US_Cities_List/peoria.png,,,,,,,,,,,,,,,,,,
null,,rt_plussign_withcolor,3035750,,,yellow,,,,,null,,US_Cities_List/hanover.png,US_Cities_List/peoria.png,,,,,,,,,,,,,,,,,,
1114,,rt_thecrossant_black,3037242,,,black_plus_sign,,,,,50,,,,1,1,,,,,,,,,,,,,,,,
null,,color_black,3037351,,,black_plus_sign,,,,,null,,,,,,,,,,,,,,,,,,,,,
null,,learn_phase(without_color),3040570,,,black_plus_sign,,,,,null,,US_Cities_List/westpalmbeach.png,US_Cities_List/boulder.png,,,,,,,,,,,,,,,,,,
null,,black_cross(without_color),3041213,,,yellow,,,,,null,,US_Cities_List/westpalmbeach.png,US_Cities_List/boulder.png,,,,,,,,,,,,,,,,,,
null,,rt_plussign_withcolor,3041725,,,yellow,,,,,null,,US_Cities_List/westpalmbeach.png,US_Cities_List/boulder.png,,,,,,,,,,,,,,,,,,
876,,rt_thecrossant_black,3043179,,,black_plus_sign,,,,,50,,,,1,1,,,,,,,,,,,,,,,,
null,,color_black,3043289,,,black_plus_sign,,,,,null,,,,,,,,,,,,,,,,,,,,,
null,,learn_phase(without_color),3046356,,,black_plus_sign,,,,,null,,US_Cities_List/racine.png,US_Cities_List/leesburg.png,,,,,,,,,,,,,,,,,,
null,,black_cross(without_color),3047123,,,blue,,,,,null,,US_Cities_List/racine.png,US_Cities_List/leesburg.png,,,,,,,,,,,,,,,,,,
null,,rt_plussign_withcolor,3047625,,,blue,,,,,null,,US_Cities_List/racine.png,US_Cities_List/leesburg.png,,,,,,,,,,,,,,,,,,
1048,,rt_thecrossant_black,3048888,,,black_plus_sign,,,,,49,,,,1,1,,,,,,,,,,,,,,,,
null,,color_black,3048998,,,black_plus_sign,,,,,null,,,,,,,,,,,,,,,,,,,,,
null,,learn_phase(without_color),3052048,,,black_plus_sign,,,,,null,,US_Cities_List/huntsville.png,US_Cities_List/gatlinburg.png,,,,,,,,,,,,,,,,,,
null,,black_cross(without_color),3052831,,,blue,,,,,null,,US_Cities_List/huntsville.png,US_Cities_List/gatlinburg.png,,,,,,,,,,,,,,,,,,
null,,rt_plussign_withcolor,3053337,,,blue,,,,,null,,US_Cities_List/huntsville.png,US_Cities_List/gatlinburg.png,,,,,,,,,,,,,,,,,,
1026,,rt_thecrossant_black,3054592,,,black_plus_sign,,,,,49,,,,1,1,,,,,,,,,,,,,,,,
null,,color_black,3054700,,,black_plus_sign,,,,,null,,,,,,,,,,,,,,,,,,,,,
null,,learn_phase(without_color),3057758,,,black_plus_sign,,,,,null,,US_Cities_List/newhope.png,US_Cities_List/peoria.png,,,,,,,,,,,,,,,,,,
null,,black_cross(without_color),3058231,,,yellow,,,,,null,,US_Cities_List/newhope.png,US_Cities_List/peoria.png,,,,,,,,,,,,,,,,,,
null,,rt_plussign_withcolor,3058747,,,yellow,,,,,null,,US_Cities_List/newhope.png,US_Cities_List/peoria.png,,,,,,,,,,,,,,,,,,
1756,,rt_thecrossant_black,3060304,,,black_plus_sign,,,,,50,,,,1,1,,,,,,,,,,,,,,,,
null,,color_black,3060412,,,black_plus_sign,,,,,null,,,,,,,,,,,,,,,,,,,,,
null,,learn_phase(without_color),3063482,,,black_plus_sign,,,,,null,,US_Cities_List/racine.png,US_Cities_List/newhope.png,,,,,,,,,,,,,,,,,,
null,,black_cross(without_color),3064374,,,blue,,,,,null,,US_Cities_List/racine.png,US_Cities_List/newhope.png,,,,,,,,,,,,,,,,,,
null,,rt_plussign_withcolor,3064889,,,blue,,,,,null,,US_Cities_List/racine.png,US_Cities_List/newhope.png,,,,,,,,,,,,,,,,,,
991,,rt_thecrossant_black,3066034,,,black_plus_sign,,,,,49,,,,1,1,,,,,,,,,,,,,,,,
null,,color_black,3066144,,,black_plus_sign,,,,,null,,,,,,,,,,,,,,,,,,,,,
null,,learn_phase(without_color),3069207,,,black_plus_sign,,,,,null,,US_Cities_List/peoria.png,US_Cities_List/hanover.png,,,,,,,,,,,,,,,,,,
null,,black_cross(without_color),3070149,,,blue,,,,,null,,US_Cities_List/peoria.png,US_Cities_List/hanover.png,,,,,,,,,,,,,,,,,,
null,,rt_plussign_withcolor,3070664,,,blue,,,,,null,,US_Cities_List/peoria.png,US_Cities_List/hanover.png,,,,,,,,,,,,,,,,,,
1576,,rt_thecrossant_black,3071749,,,black_plus_sign,,,,,49,,,,1,1,,,,,,,,,,,,,,,,
null,,color_black,3071858,,,black_plus_sign,,,,,null,,,,,,,,,,,,,,,,,,,,,
null,,learn_phase(without_color),3074930,,,black_plus_sign,,,,,null,,US_Cities_List/carmel.png,US_Cities_List/westpalmbeach.png,,,,,,,,,,,,,,,,,,
null,,black_cross(without_color),3075365,,,blue,,,,,null,,US_Cities_List/carmel.png,US_Cities_List/westpalmbeach.png,,,,,,,,,,,,,,,,,,
null,,rt_plussign_withcolor,3075869,,,blue,,,,,null,,US_Cities_List/carmel.png,US_Cities_List/westpalmbeach.png,,,,,,,,,,,,,,,,,,
1682,,rt_thecrossant_black,3077447,,,black_plus_sign,,,,,49,,,,1,1,,,,,,,,,,,,,,,,
null,,color_black,3077556,,,black_plus_sign,,,,,null,,,,,,,,,,,,,,,,,,,,,
null,,learn_phase(without_color),3080612,,,black_plus_sign,,,,,null,,US_Cities_List/shreveport.png,US_Cities_List/carmel.png,,,,,,,,,,,,,,,,,,
null,,black_cross(without_color),3081713,,,blue,,,,,null,,US_Cities_List/shreveport.png,US_Cities_List/carmel.png,,,,,,,,,,,,,,,,,,
null,,rt_plussign_withcolor,3082216,,,blue,,,,,null,,US_Cities_List/shreveport.png,US_Cities_List/carmel.png,,,,,,,,,,,,,,,,,,
943,,rt_thecrossant_black,3083137,,,black_plus_sign,,,,,49,,,,1,1,,,,,,,,,,,,,,,,
null,,color_black,3083251,,,black_plus_sign,,,,,null,,,,,,,,,,,,,,,,,,,,,
null,,learn_phase(without_color),3086319,,,black_plus_sign,,,,,null,,US_Cities_List/gatlinburg.png,US_Cities_List/racine.png,,,,,,,,,,,,,,,,,,
null,,black_cross(without_color),3086918,,,blue,,,,,null,,US_Cities_List/gatlinburg.png,US_Cities_List/racine.png,,,,,,,,,,,,,,,,,,
null,,rt_plussign_withcolor,3087434,,,blue,,,,,null,,US_Cities_List/gatlinburg.png,US_Cities_List/racine.png,,,,,,,,,,,,,,,,,,
1827,,rt_thecrossant_black,3088867,,,black_plus_sign,,,,,49,,,,1,1,,,,,,,,,,,,,,,,
null,,color_black,3088977,,,black_plus_sign,,,,,null,,,,,,,,,,,,,,,,,,,,,
null,,learn_phase(without_color),3092022,,,black_plus_sign,,,,,null,,US_Cities_List/boulder.png,US_Cities_List/westpalmbeach.png,,,,,,,,,,,,,,,,,,
null,,black_cross(without_color),3092507,,,blue,,,,,null,,US_Cities_List/boulder.png,US_Cities_List/westpalmbeach.png,,,,,,,,,,,,,,,,,,
null,,rt_plussign_withcolor,3093009,,,blue,,,,,null,,US_Cities_List/boulder.png,US_Cities_List/westpalmbeach.png,,,,,,,,,,,,,,,,,,
1335,,rt_thecrossant_black,3094548,,,black_plus_sign,,,,,49,,,,1,1,,,,,,,,,,,,,,,,
null,,color_black,3094660,,,black_plus_sign,,,,,null,,,,,,,,,,,,,,,,,,,,,
null,,learn_phase(without_color),3097725,,,black_plus_sign,,,,,null,,US_Cities_List/peoria.png,US_Cities_List/westpalmbeach.png,,,,,,,,,,,,,,,,,,
null,,black_cross(without_color),3098571,,,yellow,,,,,null,,US_Cities_List/peoria.png,US_Cities_List/westpalmbeach.png,,,,,,,,,,,,,,,,,,
null,,rt_plussign_withcolor,3099073,,,yellow,,,,,null,,US_Cities_List/peoria.png,US_Cities_List/westpalmbeach.png,,,,,,,,,,,,,,,,,,
1117,,rt_thecrossant_black,3100253,,,black_plus_sign,,,,,50,,,,1,1,,,,,,,,,,,,,,,,
null,,color_black,3100360,,,black_plus_sign,,,,,null,,,,,,,,,,,,,,,,,,,,,
null,,learn_phase(without_color),3103410,,,black_plus_sign,,,,,null,,US_Cities_List/gatlinburg.png,US_Cities_List/huntsville.png,,,,,,,,,,,,,,,,,,
null,,black_cross(without_color),3104444,,,yellow,,,,,null,,US_Cities_List/gatlinburg.png,US_Cities_List/huntsville.png,,,,,,,,,,,,,,,,,,
null,,rt_plussign_withcolor,3104957,,,yellow,,,,,null,,US_Cities_List/gatlinburg.png,US_Cities_List/huntsville.png,,,,,,,,,,,,,,,,,,
null,,rt_thecrossant_black,3105958,,,black_plus_sign,,,,,null,,,,,1,,,,,,,,,,,,,,,,
null,,color_black,3106080,,,black_plus_sign,,,,,null,,,,,,,,,,,,,,,,,,,,,
null,,learn_phase(without_color),3109284,,,black_plus_sign,,,,,null,,US_Cities_List/peoria.png,US_Cities_List/hanover.png,,,,,,,,,,,,,,,,,,
null,,black_cross(without_color),3110127,,,yellow,,,,,null,,US_Cities_List/peoria.png,US_Cities_List/hanover.png,,,,,,,,,,,,,,,,,,
null,,rt_plussign_withcolor,3110640,,,yellow,,,,,null,,US_Cities_List/peoria.png,US_Cities_List/hanover.png,,,,,,,,,,,,,,,,,,
1898,,rt_thecrossant_black,3111824,,,black_plus_sign,,,,,50,,,,1,1,,,,,,,,,,,,,,,,
null,,color_black,3111934,,,black_plus_sign,,,,,null,,,,,,,,,,,,,,,,,,,,,
null,,learn_phase(without_color),3115000,,,black_plus_sign,,,,,null,,US_Cities_List/leesburg.png,US_Cities_List/racine.png,,,,,,,,,,,,,,,,,,
null,,black_cross(without_color),3115546,,,blue,,,,,null,,US_Cities_List/leesburg.png,US_Cities_List/racine.png,,,,,,,,,,,,,,,,,,
null,,rt_plussign_withcolor,3116062,,,blue,,,,,null,,US_Cities_List/leesburg.png,US_Cities_List/racine.png,,,,,,,,,,,,,,,,,,
1238,,rt_thecrossant_black,3117548,,,black_plus_sign,,,,,49,,,,1,1,,,,,,,,,,,,,,,,
null,,color_black,3117659,,,black_plus_sign,,,,,null,,,,,,,,,,,,,,,,,,,,,
null,,learn_phase(without_color),3121016,,,black_plus_sign,,,,,null,,US_Cities_List/boulder.png,US_Cities_List/hanover.png,,,,,,,,,,,,,,,,,,
null,,black_cross(without_color),3122051,,,blue,,,,,null,,US_Cities_List/boulder.png,US_Cities_List/hanover.png,,,,,,,,,,,,,,,,,,
null,,rt_plussign_withcolor,3122563,,,blue,,,,,null,,US_Cities_List/boulder.png,US_Cities_List/hanover.png,,,,,,,,,,,,,,,,,,
989,,rt_thecrossant_black,3123555,,,black_plus_sign,,,,,49,,,,1,1,,,,,,,,,,,,,,,,
null,,color_black,3123664,,,black_plus_sign,,,,,null,,,,,,,,,,,,,,,,,,,,,
null,,learn_phase(without_color),3126718,,,black_plus_sign,,,,,null,,US_Cities_List/shreveport.png,US_Cities_List/carmel.png,,,,,,,,,,,,,,,,,,
null,,black_cross(without_color),3127377,,,yellow,,,,,null,,US_Cities_List/shreveport.png,US_Cities_List/carmel.png,,,,,,,,,,,,,,,,,,
null,,rt_plussign_withcolor,3127890,,,yellow,,,,,null,,US_Cities_List/shreveport.png,US_Cities_List/carmel.png,,,,,,,,,,,,,,,,,,
1599,,rt_thecrossant_black,3129252,,,black_plus_sign,,,,,50,,,,1,1,,,,,,,,,,,,,,,,
null,,color_black,3129361,,,black_plus_sign,,,,,null,,,,,,,,,,,,,,,,,,,,,
null,,learn_phase(without_color),3132420,,,black_plus_sign,,,,,null,,US_Cities_List/westpalmbeach.png,US_Cities_List/boulder.png,,,,,,,,,,,,,,,,,,
null,,black_cross(without_color),3132947,,,blue,,,,,null,,US_Cities_List/westpalmbeach.png,US_Cities_List/boulder.png,,,,,,,,,,,,,,,,,,
null,,rt_plussign_withcolor,3133455,,,blue,,,,,null,,US_Cities_List/westpalmbeach.png,US_Cities_List/boulder.png,,,,,,,,,,,,,,,,,,
1221,,rt_thecrossant_black,3134952,,,black_plus_sign,,,,,49,,,,1,1,,,,,,,,,,,,,,,,
null,,color_black,3135061,,,black_plus_sign,,,,,null,,,,,,,,,,,,,,,,,,,,,
null,,learn_phase(without_color),3138127,,,black_plus_sign,,,,,null,,US_Cities_List/newhope.png,US_Cities_List/peoria.png,,,,,,,,,,,,,,,,,,
null,,black_cross(without_color),3138983,,,blue,,,,,null,,US_Cities_List/newhope.png,US_Cities_List/peoria.png,,,,,,,,,,,,,,,,,,
null,,rt_plussign_withcolor,3139488,,,blue,,,,,null,,US_Cities_List/newhope.png,US_Cities_List/peoria.png,,,,,,,,,,,,,,,,,,
1067,,rt_thecrossant_black,3140671,,,black_plus_sign,,,,,49,,,,1,1,,,,,,,,,,,,,,,,
null,,color_black,3140779,,,black_plus_sign,,,,,null,,,,,,,,,,,,,,,,,,,,,
null,,learn_phase(without_color),3143847,,,black_plus_sign,,,,,null,,US_Cities_List/cornwall.png,US_Cities_List/westpalmbeach.png,,,,,,,,,,,,,,,,,,
null,,black_cross(without_color),3144644,,,blue,,,,,null,,US_Cities_List/cornwall.png,US_Cities_List/westpalmbeach.png,,,,,,,,,,,,,,,,,,
null,,rt_plussign_withcolor,3145158,,,blue,,,,,null,,US_Cities_List/cornwall.png,US_Cities_List/westpalmbeach.png,,,,,,,,,,,,,,,,,,
1270,,rt_thecrossant_black,3146395,,,black_plus_sign,,,,,49,,,,1,1,,,,,,,,,,,,,,,,
null,,color_black,3146504,,,black_plus_sign,,,,,null,,,,,,,,,,,,,,,,,,,,,
null,,learn_phase(without_color),3149562,,,black_plus_sign,,,,,null,,US_Cities_List/boulder.png,US_Cities_List/hanover.png,,,,,,,,,,,,,,,,,,
null,,black_cross(without_color),3150094,,,blue,,,,,null,,US_Cities_List/boulder.png,US_Cities_List/hanover.png,,,,,,,,,,,,,,,,,,
null,,rt_plussign_withcolor,3150609,,,blue,,,,,null,,US_Cities_List/boulder.png,US_Cities_List/hanover.png,,,,,,,,,,,,,,,,,,
1166,,rt_thecrossant_black,3152103,,,black_plus_sign,,,,,49,,,,1,1,,,,,,,,,,,,,,,,
null,,color_black,3152216,,,black_plus_sign,,,,,null,,,,,,,,,,,,,,,,,,,,,
null,,learn_phase(without_color),3155287,,,black_plus_sign,,,,,null,,US_Cities_List/newhope.png,US_Cities_List/peoria.png,,,,,,,,,,,,,,,,,,
null,,black_cross(without_color),3156351,,,yellow,,,,,null,,US_Cities_List/newhope.png,US_Cities_List/peoria.png,,,,,,,,,,,,,,,,,,
null,,rt_plussign_withcolor,3156856,,,yellow,,,,,null,,US_Cities_List/newhope.png,US_Cities_List/peoria.png,,,,,,,,,,,,,,,,,,
950,,rt_thecrossant_black,3157906,,,black_plus_sign,,,,,50,,,,1,1,,,,,,,,,,,,,,,,
null,,color_black,3158015,,,black_plus_sign,,,,,null,,,,,,,,,,,,,,,,,,,,,
null,,learn_phase(without_color),3161363,,,black_plus_sign,,,,,null,,US_Cities_List/westpalmbeach.png,US_Cities_List/boulder.png,,,,,,,,,,,,,,,,,,
null,,black_cross(without_color),3162129,,,yellow,,,,,null,,US_Cities_List/westpalmbeach.png,US_Cities_List/boulder.png,,,,,,,,,,,,,,,,,,
null,,rt_plussign_withcolor,3162644,,,yellow,,,,,null,,US_Cities_List/westpalmbeach.png,US_Cities_List/boulder.png,,,,,,,,,,,,,,,,,,
1562,,rt_thecrossant_black,3163895,,,black_plus_sign,,,,,50,,,,1,1,,,,,,,,,,,,,,,,
null,,color_black,3164005,,,black_plus_sign,,,,,null,,,,,,,,,,,,,,,,,,,,,
null,,learn_phase(without_color),3167069,,,black_plus_sign,,,,,null,,US_Cities_List/gatlinburg.png,US_Cities_List/racine.png,,,,,,,,,,,,,,,,,,
null,,black_cross(without_color),3167567,,,yellow,,,,,null,,US_Cities_List/gatlinburg.png,US_Cities_List/racine.png,,,,,,,,,,,,,,,,,,
null,,rt_plussign_withcolor,3168081,,,yellow,,,,,null,,US_Cities_List/gatlinburg.png,US_Cities_List/racine.png,,,,,,,,,,,,,,,,,,
1187,,rt_thecrossant_black,3169615,,,black_plus_sign,,,,,50,,,,1,1,,,,,,,,,,,,,,,,
null,,color_black,3169724,,,black_plus_sign,,,,,null,,,,,,,,,,,,,,,,,,,,,
null,,learn_phase(without_color),3172774,,,black_plus_sign,,,,,null,,US_Cities_List/gatlinburg.png,US_Cities_List/huntsville.png,,,,,,,,,,,,,,,,,,
null,,black_cross(without_color),3173386,,,yellow,,,,,null,,US_Cities_List/gatlinburg.png,US_Cities_List/huntsville.png,,,,,,,,,,,,,,,,,,
null,,rt_plussign_withcolor,3173898,,,yellow,,,,,null,,US_Cities_List/gatlinburg.png,US_Cities_List/huntsville.png,,,,,,,,,,,,,,,,,,
1065,,rt_thecrossant_black,3175421,,,black_plus_sign,,,,,50,,,,1,1,,,,,,,,,,,,,,,,
null,,color_black,3175531,,,black_plus_sign,,,,,null,,,,,,,,,,,,,,,,,,,,,
null,,learn_phase(without_color),3178652,,,black_plus_sign,,,,,null,,US_Cities_List/carmel.png,US_Cities_List/shreveport.png,,,,,,,,,,,,,,,,,,
null,,black_cross(without_color),3179652,,,yellow,,,,,null,,US_Cities_List/carmel.png,US_Cities_List/shreveport.png,,,,,,,,,,,,,,,,,,
null,,rt_plussign_withcolor,3180168,,,yellow,,,,,null,,US_Cities_List/carmel.png,US_Cities_List/shreveport.png,,,,,,,,,,,,,,,,,,
981,,rt_thecrossant_black,3181199,,,black_plus_sign,,,,,50,,,,1,1,,,,,,,,,,,,,,,,
null,,color_black,3181308,,,black_plus_sign,,,,,null,,,,,,,,,,,,,,,,,,,,,
null,,learn_phase(without_color),3184375,,,black_plus_sign,,,,,null,,US_Cities_List/racine.png,US_Cities_List/gatlinburg.png,,,,,,,,,,,,,,,,,,
null,,black_cross(without_color),3185059,,,yellow,,,,,null,,US_Cities_List/racine.png,US_Cities_List/gatlinburg.png,,,,,,,,,,,,,,,,,,
null,,rt_plussign_withcolor,3185575,,,yellow,,,,,null,,US_Cities_List/racine.png,US_Cities_List/gatlinburg.png,,,,,,,,,,,,,,,,,,
1339,,rt_thecrossant_black,3187009,,,black_plus_sign,,,,,50,,,,1,1,,,,,,,,,,,,,,,,
null,,color_black,3187118,,,black_plus_sign,,,,,null,,,,,,,,,,,,,,,,,,,,,
null,,learn_phase(without_color),3190456,,,black_plus_sign,,,,,null,,US_Cities_List/racine.png,US_Cities_List/newhope.png,,,,,,,,,,,,,,,,,,
null,,black_cross(without_color),3191251,,,blue,,,,,null,,US_Cities_List/racine.png,US_Cities_List/newhope.png,,,,,,,,,,,,,,,,,,
null,,rt_plussign_withcolor,3191765,,,blue,,,,,null,,US_Cities_List/racine.png,US_Cities_List/newhope.png,,,,,,,,,,,,,,,,,,
1216,,rt_thecrossant_black,3192994,,,black_plus_sign,,,,,49,,,,1,1,,,,,,,,,,,,,,,,
null,,color_black,3193101,,,black_plus_sign,,,,,null,,,,,,,,,,,,,,,,,,,,,
null,,learn_phase(without_color),3196166,,,black_plus_sign,,,,,null,,US_Cities_List/racine.png,US_Cities_List/gatlinburg.png,,,,,,,,,,,,,,,,,,
null,,black_cross(without_color),3196916,,,yellow,,,,,null,,US_Cities_List/racine.png,US_Cities_List/gatlinburg.png,,,,,,,,,,,,,,,,,,
null,,rt_plussign_withcolor,3197476,,,yellow,,,,,null,,US_Cities_List/racine.png,US_Cities_List/gatlinburg.png,,,,,,,,,,,,,,,,,,
1167,,rt_thecrossant_black,3198756,,,black_plus_sign,,,,,50,,,,1,1,,,,,,,,,,,,,,,,
null,,color_black,3198867,,,black_plus_sign,,,,,null,,,,,,,,,,,,,,,,,,,,,
null,,learn_phase(without_color),3201923,,,black_plus_sign,,,,,null,,US_Cities_List/hanover.png,US_Cities_List/gatlinburg.png,,,,,,,,,,,,,,,,,,
null,,black_cross(without_color),3202552,,,yellow,,,,,null,,US_Cities_List/hanover.png,US_Cities_List/gatlinburg.png,,,,,,,,,,,,,,,,,,
null,,rt_plussign_withcolor,3203068,,,yellow,,,,,null,,US_Cities_List/hanover.png,US_Cities_List/gatlinburg.png,,,,,,,,,,,,,,,,,,
1502,,rt_thecrossant_black,3204463,,,black_plus_sign,,,,,50,,,,1,1,,,,,,,,,,,,,,,,
null,,color_black,3204574,,,black_plus_sign,,,,,null,,,,,,,,,,,,,,,,,,,,,
null,,learn_phase(without_color),3207633,,,black_plus_sign,,,,,null,,US_Cities_List/boulder.png,US_Cities_List/carmel.png,,,,,,,,,,,,,,,,,,
null,,black_cross(without_color),3208102,,,yellow,,,,,null,,US_Cities_List/boulder.png,US_Cities_List/carmel.png,,,,,,,,,,,,,,,,,,
null,,rt_plussign_withcolor,3208617,,,yellow,,,,,null,,US_Cities_List/boulder.png,US_Cities_List/carmel.png,,,,,,,,,,,,,,,,,,
1042,,rt_thecrossant_black,3210178,,,black_plus_sign,,,,,50,,,,1,1,,,,,,,,,,,,,,,,
null,,color_black,3210288,,,black_plus_sign,,,,,null,,,,,,,,,,,,,,,,,,,,,
null,,learn_phase(without_color),3213350,,,black_plus_sign,,,,,null,,US_Cities_List/hotsprings.png,US_Cities_List/cornwall.png,,,,,,,,,,,,,,,,,,
null,,black_cross(without_color),3213993,,,blue,,,,,null,,US_Cities_List/hotsprings.png,US_Cities_List/cornwall.png,,,,,,,,,,,,,,,,,,
null,,rt_plussign_withcolor,3214505,,,blue,,,,,null,,US_Cities_List/hotsprings.png,US_Cities_List/cornwall.png,,,,,,,,,,,,,,,,,,
1228,,rt_thecrossant_black,3215882,,,black_plus_sign,,,,,49,,,,1,1,,,,,,,,,,,,,,,,
null,,color_black,3215992,,,black_plus_sign,,,,,null,,,,,,,,,,,,,,,,,,,,,
null,,learn_phase(without_color),3219139,,,black_plus_sign,,,,,null,,US_Cities_List/carmel.png,US_Cities_List/cornwall.png,,,,,,,,,,,,,,,,,,
null,,black_cross(without_color),3219660,,,yellow,,,,,null,,US_Cities_List/carmel.png,US_Cities_List/cornwall.png,,,,,,,,,,,,,,,,,,
null,,rt_plussign_withcolor,3220164,,,yellow,,,,,null,,US_Cities_List/carmel.png,US_Cities_List/cornwall.png,,,,,,,,,,,,,,,,,,
1144,,rt_thecrossant_black,3221812,,,black_plus_sign,,,,,50,,,,1,1,,,,,,,,,,,,,,,,
null,,color_black,3221921,,,black_plus_sign,,,,,null,,,,,,,,,,,,,,,,,,,,,
null,,learn_phase(without_color),3224977,,,black_plus_sign,,,,,null,,US_Cities_List/peoria.png,US_Cities_List/westpalmbeach.png,,,,,,,,,,,,,,,,,,
null,,black_cross(without_color),3225558,,,blue,,,,,null,,US_Cities_List/peoria.png,US_Cities_List/westpalmbeach.png,,,,,,,,,,,,,,,,,,
null,,rt_plussign_withcolor,3226060,,,blue,,,,,null,,US_Cities_List/peoria.png,US_Cities_List/westpalmbeach.png,,,,,,,,,,,,,,,,,,
1383,,rt_thecrossant_black,3227498,,,black_plus_sign,,,,,49,,,,1,1,,,,,,,,,,,,,,,,
null,,color_black,3227606,,,black_plus_sign,,,,,null,,,,,,,,,,,,,,,,,,,,,
null,,learn_phase(without_color),3230655,,,black_plus_sign,,,,,null,,US_Cities_List/huntsville.png,US_Cities_List/gatlinburg.png,,,,,,,,,,,,,,,,,,
null,,black_cross(without_color),3231483,,,yellow,,,,,null,,US_Cities_List/huntsville.png,US_Cities_List/gatlinburg.png,,,,,,,,,,,,,,,,,,
null,,rt_plussign_withcolor,3231996,,,yellow,,,,,null,,US_Cities_List/huntsville.png,US_Cities_List/gatlinburg.png,,,,,,,,,,,,,,,,,,
1004,,rt_thecrossant_black,3233204,,,black_plus_sign,,,,,50,,,,1,1,,,,,,,,,,,,,,,,
null,,color_black,3233313,,,black_plus_sign,,,,,null,,,,,,,,,,,,,,,,,,,,,
null,,learn_phase(without_color),3236380,,,black_plus_sign,,,,,null,,US_Cities_List/peoria.png,US_Cities_List/newhope.png,,,,,,,,,,,,,,,,,,
null,,black_cross(without_color),3237486,,,blue,,,,,null,,US_Cities_List/peoria.png,US_Cities_List/newhope.png,,,,,,,,,,,,,,,,,,
null,,rt_plussign_withcolor,3237990,,,blue,,,,,null,,US_Cities_List/peoria.png,US_Cities_List/newhope.png,,,,,,,,,,,,,,,,,,
1133,,rt_thecrossant_black,3238915,,,black_plus_sign,,,,,49,,,,1,1,,,,,,,,,,,,,,,,
null,,color_black,3239024,,,black_plus_sign,,,,,null,,,,,,,,,,,,,,,,,,,,,
null,,learn_phase(without_color),3242100,,,black_plus_sign,,,,,null,,US_Cities_List/peoria.png,US_Cities_List/newhope.png,,,,,,,,,,,,,,,,,,
null,,black_cross(without_color),3242692,,,blue,,,,,null,,US_Cities_List/peoria.png,US_Cities_List/newhope.png,,,,,,,,,,,,,,,,,,
null,,rt_plussign_withcolor,3243208,,,blue,,,,,null,,US_Cities_List/peoria.png,US_Cities_List/newhope.png,,,,,,,,,,,,,,,,,,
1246,,rt_thecrossant_black,3244647,,,black_plus_sign,,,,,49,,,,1,1,,,,,,,,,,,,,,,,
null,,color_black,3244756,,,black_plus_sign,,,,,null,,,,,,,,,,,,,,,,,,,,,
null,,learn_phase(without_color),3247797,,,black_plus_sign,,,,,null,,US_Cities_List/hanover.png,US_Cities_List/boulder.png,,,,,,,,,,,,,,,,,,
null,,black_cross(without_color),3248891,,,yellow,,,,,null,,US_Cities_List/hanover.png,US_Cities_List/boulder.png,,,,,,,,,,,,,,,,,,
null,,rt_plussign_withcolor,3249406,,,yellow,,,,,null,,US_Cities_List/hanover.png,US_Cities_List/boulder.png,,,,,,,,,,,,,,,,,,
676,,rt_thecrossant_black,3250343,,,black_plus_sign,,,,,50,,,,1,1,,,,,,,,,,,,,,,,
null,,color_black,3250453,,,black_plus_sign,,,,,null,,,,,,,,,,,,,,,,,,,,,
null,,learn_phase(without_color),3253508,,,black_plus_sign,,,,,null,,US_Cities_List/gatlinburg.png,US_Cities_List/racine.png,,,,,,,,,,,,,,,,,,
null,,black_cross(without_color),3253937,,,blue,,,,,null,,US_Cities_List/gatlinburg.png,US_Cities_List/racine.png,,,,,,,,,,,,,,,,,,
null,,rt_plussign_withcolor,3254446,,,blue,,,,,null,,US_Cities_List/gatlinburg.png,US_Cities_List/racine.png,,,,,,,,,,,,,,,,,,
1626,,rt_thecrossant_black,3256050,,,black_plus_sign,,,,,49,,,,1,1,,,,,,,,,,,,,,,,
null,,color_black,3256158,,,black_plus_sign,,,,,null,,,,,,,,,,,,,,,,,,,,,
null,,learn_phase(without_color),3259224,,,black_plus_sign,,,,,null,,US_Cities_List/westpalmbeach.png,US_Cities_List/peoria.png,,,,,,,,,,,,,,,,,,
null,,black_cross(without_color),3260330,,,yellow,,,,,null,,US_Cities_List/westpalmbeach.png,US_Cities_List/peoria.png,,,,,,,,,,,,,,,,,,
null,,rt_plussign_withcolor,3260843,,,yellow,,,,,null,,US_Cities_List/westpalmbeach.png,US_Cities_List/peoria.png,,,,,,,,,,,,,,,,,,
828,,rt_thecrossant_black,3261770,,,black_plus_sign,,,,,50,,,,1,1,,,,,,,,,,,,,,,,
null,,color_black,3261883,,,black_plus_sign,,,,,null,,,,,,,,,,,,,,,,,,,,,
null,,learn_phase(without_color),3264947,,,black_plus_sign,,,,,null,,US_Cities_List/hotsprings.png,US_Cities_List/cornwall.png,,,,,,,,,,,,,,,,,,
null,,black_cross(without_color),3265446,,,yellow,,,,,null,,US_Cities_List/hotsprings.png,US_Cities_List/cornwall.png,,,,,,,,,,,,,,,,,,
null,,rt_plussign_withcolor,3265959,,,yellow,,,,,null,,US_Cities_List/hotsprings.png,US_Cities_List/cornwall.png,,,,,,,,,,,,,,,,,,
1430,,rt_thecrossant_black,3267489,,,black_plus_sign,,,,,50,,,,1,1,,,,,,,,,,,,,,,,
null,,color_black,3267598,,,black_plus_sign,,,,,null,,,,,,,,,,,,,,,,,,,,,
null,,learn_phase(without_color),3270682,,,black_plus_sign,,,,,null,,US_Cities_List/newhope.png,US_Cities_List/racine.png,,,,,,,,,,,,,,,,,,
null,,black_cross(without_color),3271731,,,yellow,,,,,null,,US_Cities_List/newhope.png,US_Cities_List/racine.png,,,,,,,,,,,,,,,,,,
null,,rt_plussign_withcolor,3272244,,,yellow,,,,,null,,US_Cities_List/newhope.png,US_Cities_List/racine.png,,,,,,,,,,,,,,,,,,
920,,rt_thecrossant_black,3273230,,,black_plus_sign,,,,,50,,,,1,1,,,,,,,,,,,,,,,,
null,,color_black,3273339,,,black_plus_sign,,,,,null,,,,,,,,,,,,,,,,,,,,,
null,,learn_phase(without_color),3276568,,,black_plus_sign,,,,,null,,US_Cities_List/shreveport.png,US_Cities_List/carmel.png,,,,,,,,,,,,,,,,,,
null,,black_cross(without_color),3277463,,,yellow,,,,,null,,US_Cities_List/shreveport.png,US_Cities_List/carmel.png,,,,,,,,,,,,,,,,,,
null,,rt_plussign_withcolor,3277970,,,yellow,,,,,null,,US_Cities_List/shreveport.png,US_Cities_List/carmel.png,,,,,,,,,,,,,,,,,,
1432,,rt_thecrossant_black,3279098,,,black_plus_sign,,,,,50,,,,1,1,,,,,,,,,,,,,,,,
null,,color_black,3279206,,,black_plus_sign,,,,,null,,,,,,,,,,,,,,,,,,,,,
null,,learn_break,3339218,,,learn_break,,,,,null,,,,,,,,,,,,,,,,,,,,,
null,,html-keyboard-response,3340234,,,<p></p>,,,,,null,,,,,,,,,,,,,,,,,,,,,
null,,learn_phase(without_color),3343284,,,black_plus_sign,,,,,null,,US_Cities_List/newhope.png,US_Cities_List/racine.png,,,,,,,,,,,,,,,,,,
null,,black_cross(without_color),3343892,,,blue,,,,,null,,US_Cities_List/newhope.png,US_Cities_List/racine.png,,,,,,,,,,,,,,,,,,
null,,rt_plussign_withcolor,3344409,,,blue,,,,,null,,US_Cities_List/newhope.png,US_Cities_List/racine.png,,,,,,,,,,,,,,,,,,
1204,,rt_thecrossant_black,3345818,,,black_plus_sign,,,,,49,,,,1,1,,,,,,,,,,,,,,,,
null,,color_black,3345928,,,black_plus_sign,,,,,null,,,,,,,,,,,,,,,,,,,,,
null,,learn_phase(without_color),3348996,,,black_plus_sign,,,,,null,,US_Cities_List/cornwall.png,US_Cities_List/hotsprings.png,,,,,,,,,,,,,,,,,,
null,,black_cross(without_color),3350008,,,blue,,,,,null,,US_Cities_List/cornwall.png,US_Cities_List/hotsprings.png,,,,,,,,,,,,,,,,,,
null,,rt_plussign_withcolor,3350511,,,blue,,,,,null,,US_Cities_List/cornwall.png,US_Cities_List/hotsprings.png,,,,,,,,,,,,,,,,,,
1024,,rt_thecrossant_black,3351531,,,black_plus_sign,,,,,49,,,,1,1,,,,,,,,,,,,,,,,
null,,color_black,3351640,,,black_plus_sign,,,,,null,,,,,,,,,,,,,,,,,,,,,
null,,learn_phase(without_color),3354707,,,black_plus_sign,,,,,null,,US_Cities_List/cornwall.png,US_Cities_List/carmel.png,,,,,,,,,,,,,,,,,,
null,,black_cross(without_color),3355331,,,blue,,,,,null,,US_Cities_List/cornwall.png,US_Cities_List/carmel.png,,,,,,,,,,,,,,,,,,
null,,rt_plussign_withcolor,3355838,,,blue,,,,,null,,US_Cities_List/cornwall.png,US_Cities_List/carmel.png,,,,,,,,,,,,,,,,,,
2442,,rt_thecrossant_black,3357231,,,black_plus_sign,,,,,49,,,,1,1,,,,,,,,,,,,,,,,
null,,color_black,3357340,,,black_plus_sign,,,,,null,,,,,,,,,,,,,,,,,,,,,
null,,learn_phase(without_color),3360388,,,black_plus_sign,,,,,null,,US_Cities_List/boulder.png,US_Cities_List/westpalmbeach.png,,,,,,,,,,,,,,,,,,
null,,black_cross(without_color),3361125,,,yellow,,,,,null,,US_Cities_List/boulder.png,US_Cities_List/westpalmbeach.png,,,,,,,,,,,,,,,,,,
null,,rt_plussign_withcolor,3361628,,,yellow,,,,,null,,US_Cities_List/boulder.png,US_Cities_List/westpalmbeach.png,,,,,,,,,,,,,,,,,,
1285,,rt_thecrossant_black,3362922,,,black_plus_sign,,,,,50,,,,1,1,,,,,,,,,,,,,,,,
null,,color_black,3363032,,,black_plus_sign,,,,,null,,,,,,,,,,,,,,,,,,,,,
null,,learn_phase(without_color),3366115,,,black_plus_sign,,,,,null,,US_Cities_List/cornwall.png,US_Cities_List/carmel.png,,,,,,,,,,,,,,,,,,
null,,black_cross(without_color),3366757,,,blue,,,,,null,,US_Cities_List/cornwall.png,US_Cities_List/carmel.png,,,,,,,,,,,,,,,,,,
null,,rt_plussign_withcolor,3367271,,,blue,,,,,null,,US_Cities_List/cornwall.png,US_Cities_List/carmel.png,,,,,,,,,,,,,,,,,,
null,,rt_thecrossant_black,3368666,,,black_plus_sign,,,,,null,,,,,1,,,,,,,,,,,,,,,,
null,,color_black,3368775,,,black_plus_sign,,,,,null,,,,,,,,,,,,,,,,,,,,,
null,,learn_phase(without_color),3371851,,,black_plus_sign,,,,,null,,US_Cities_List/hotsprings.png,US_Cities_List/cornwall.png,,,,,,,,,,,,,,,,,,
null,,black_cross(without_color),3372949,,,yellow,,,,,null,,US_Cities_List/hotsprings.png,US_Cities_List/cornwall.png,,,,,,,,,,,,,,,,,,
null,,rt_plussign_withcolor,3373457,,,yellow,,,,,null,,US_Cities_List/hotsprings.png,US_Cities_List/cornwall.png,,,,,,,,,,,,,,,,,,
1595,,rt_thecrossant_black,3374383,,,black_plus_sign,,,,,50,,,,1,1,,,,,,,,,,,,,,,,
null,,color_black,3374493,,,black_plus_sign,,,,,null,,,,,,,,,,,,,,,,,,,,,
null,,learn_phase(without_color),3377598,,,black_plus_sign,,,,,null,,US_Cities_List/boulder.png,US_Cities_List/hanover.png,,,,,,,,,,,,,,,,,,
null,,black_cross(without_color),3378021,,,yellow,,,,,null,,US_Cities_List/boulder.png,US_Cities_List/hanover.png,,,,,,,,,,,,,,,,,,
null,,rt_plussign_withcolor,3378521,,,yellow,,,,,null,,US_Cities_List/boulder.png,US_Cities_List/hanover.png,,,,,,,,,,,,,,,,,,
1612,,rt_thecrossant_black,3380134,,,black_plus_sign,,,,,50,,,,1,1,,,,,,,,,,,,,,,,
null,,color_black,3380242,,,black_plus_sign,,,,,null,,,,,,,,,,,,,,,,,,,,,
null,,learn_phase(without_color),3383300,,,black_plus_sign,,,,,null,,US_Cities_List/peoria.png,US_Cities_List/hanover.png,,,,,,,,,,,,,,,,,,
null,,black_cross(without_color),3384156,,,blue,,,,,null,,US_Cities_List/peoria.png,US_Cities_List/hanover.png,,,,,,,,,,,,,,,,,,
null,,rt_plussign_withcolor,3384662,,,blue,,,,,null,,US_Cities_List/peoria.png,US_Cities_List/hanover.png,,,,,,,,,,,,,,,,,,
1074,,rt_thecrossant_black,3385834,,,black_plus_sign,,,,,49,,,,1,1,,,,,,,,,,,,,,,,
null,,color_black,3385945,,,black_plus_sign,,,,,null,,,,,,,,,,,,,,,,,,,,,
null,,learn_phase(without_color),3389001,,,black_plus_sign,,,,,null,,US_Cities_List/gatlinburg.png,US_Cities_List/hanover.png,,,,,,,,,,,,,,,,,,
null,,black_cross(without_color),3389532,,,blue,,,,,null,,US_Cities_List/gatlinburg.png,US_Cities_List/hanover.png,,,,,,,,,,,,,,,,,,
null,,rt_plussign_withcolor,3390046,,,blue,,,,,null,,US_Cities_List/gatlinburg.png,US_Cities_List/hanover.png,,,,,,,,,,,,,,,,,,
1541,,rt_thecrossant_black,3391553,,,black_plus_sign,,,,,49,,,,1,1,,,,,,,,,,,,,,,,
null,,color_black,3391667,,,black_plus_sign,,,,,null,,,,,,,,,,,,,,,,,,,,,
null,,learn_phase(without_color),3394725,,,black_plus_sign,,,,,null,,US_Cities_List/hanover.png,US_Cities_List/gatlinburg.png,,,,,,,,,,,,,,,,,,
null,,black_cross(without_color),3395582,,,blue,,,,,null,,US_Cities_List/hanover.png,US_Cities_List/gatlinburg.png,,,,,,,,,,,,,,,,,,
null,,rt_plussign_withcolor,3396099,,,blue,,,,,null,,US_Cities_List/hanover.png,US_Cities_List/gatlinburg.png,,,,,,,,,,,,,,,,,,
1020,,rt_thecrossant_black,3397264,,,black_plus_sign,,,,,49,,,,1,1,,,,,,,,,,,,,,,,
null,,color_black,3397374,,,black_plus_sign,,,,,null,,,,,,,,,,,,,,,,,,,,,
null,,learn_phase(without_color),3400420,,,black_plus_sign,,,,,null,,US_Cities_List/huntsville.png,US_Cities_List/gatlinburg.png,,,,,,,,,,,,,,,,,,
null,,black_cross(without_color),3400951,,,yellow,,,,,null,,US_Cities_List/huntsville.png,US_Cities_List/gatlinburg.png,,,,,,,,,,,,,,,,,,
null,,rt_plussign_withcolor,3401453,,,yellow,,,,,null,,US_Cities_List/huntsville.png,US_Cities_List/gatlinburg.png,,,,,,,,,,,,,,,,,,
1793,,rt_thecrossant_black,3402946,,,black_plus_sign,,,,,50,,,,1,1,,,,,,,,,,,,,,,,
null,,color_black,3403055,,,black_plus_sign,,,,,null,,,,,,,,,,,,,,,,,,,,,
null,,learn_phase(without_color),3406444,,,black_plus_sign,,,,,null,,US_Cities_List/westpalmbeach.png,US_Cities_List/cornwall.png,,,,,,,,,,,,,,,,,,
null,,black_cross(without_color),3407196,,,yellow,,,,,null,,US_Cities_List/westpalmbeach.png,US_Cities_List/cornwall.png,,,,,,,,,,,,,,,,,,
null,,rt_plussign_withcolor,3407700,,,yellow,,,,,null,,US_Cities_List/westpalmbeach.png,US_Cities_List/cornwall.png,,,,,,,,,,,,,,,,,,
1000,,rt_thecrossant_black,3408964,,,black_plus_sign,,,,,50,,,,1,1,,,,,,,,,,,,,,,,
null,,color_black,3409073,,,black_plus_sign,,,,,null,,,,,,,,,,,,,,,,,,,,,
null,,learn_phase(without_color),3412132,,,black_plus_sign,,,,,null,,US_Cities_List/boulder.png,US_Cities_List/westpalmbeach.png,,,,,,,,,,,,,,,,,,
null,,black_cross(without_color),3412982,,,blue,,,,,null,,US_Cities_List/boulder.png,US_Cities_List/westpalmbeach.png,,,,,,,,,,,,,,,,,,
null,,rt_plussign_withcolor,3413483,,,blue,,,,,null,,US_Cities_List/boulder.png,US_Cities_List/westpalmbeach.png,,,,,,,,,,,,,,,,,,
1355,,rt_thecrossant_black,3414698,,,black_plus_sign,,,,,49,,,,1,1,,,,,,,,,,,,,,,,
null,,color_black,3414807,,,black_plus_sign,,,,,null,,,,,,,,,,,,,,,,,,,,,
null,,learn_phase(without_color),3417881,,,black_plus_sign,,,,,null,,US_Cities_List/peoria.png,US_Cities_List/newhope.png,,,,,,,,,,,,,,,,,,
null,,black_cross(without_color),3418958,,,yellow,,,,,null,,US_Cities_List/peoria.png,US_Cities_List/newhope.png,,,,,,,,,,,,,,,,,,
null,,rt_plussign_withcolor,3419460,,,yellow,,,,,null,,US_Cities_List/peoria.png,US_Cities_List/newhope.png,,,,,,,,,,,,,,,,,,
1003,,rt_thecrossant_black,3420419,,,black_plus_sign,,,,,50,,,,1,1,,,,,,,,,,,,,,,,
null,,color_black,3420531,,,black_plus_sign,,,,,null,,,,,,,,,,,,,,,,,,,,,
null,,learn_phase(without_color),3423627,,,black_plus_sign,,,,,null,,US_Cities_List/peoria.png,US_Cities_List/newhope.png,,,,,,,,,,,,,,,,,,
null,,black_cross(without_color),3424313,,,blue,,,,,null,,US_Cities_List/peoria.png,US_Cities_List/newhope.png,,,,,,,,,,,,,,,,,,
null,,rt_plussign_withcolor,3424828,,,blue,,,,,null,,US_Cities_List/peoria.png,US_Cities_List/newhope.png,,,,,,,,,,,,,,,,,,
1669,,rt_thecrossant_black,3426174,,,black_plus_sign,,,,,49,,,,1,1,,,,,,,,,,,,,,,,
null,,color_black,3426283,,,black_plus_sign,,,,,null,,,,,,,,,,,,,,,,,,,,,
null,,learn_phase(without_color),3429348,,,black_plus_sign,,,,,null,,US_Cities_List/boulder.png,US_Cities_List/westpalmbeach.png,,,,,,,,,,,,,,,,,,
null,,black_cross(without_color),3430308,,,blue,,,,,null,,US_Cities_List/boulder.png,US_Cities_List/westpalmbeach.png,,,,,,,,,,,,,,,,,,
null,,rt_plussign_withcolor,3430823,,,blue,,,,,null,,US_Cities_List/boulder.png,US_Cities_List/westpalmbeach.png,,,,,,,,,,,,,,,,,,
1121,,rt_thecrossant_black,3431886,,,black_plus_sign,,,,,49,,,,1,1,,,,,,,,,,,,,,,,
null,,color_black,3431997,,,black_plus_sign,,,,,null,,,,,,,,,,,,,,,,,,,,,
null,,learn_phase(without_color),3435048,,,black_plus_sign,,,,,null,,US_Cities_List/boulder.png,US_Cities_List/carmel.png,,,,,,,,,,,,,,,,,,
null,,black_cross(without_color),3436091,,,yellow,,,,,null,,US_Cities_List/boulder.png,US_Cities_List/carmel.png,,,,,,,,,,,,,,,,,,
null,,rt_plussign_withcolor,3436606,,,yellow,,,,,null,,US_Cities_List/boulder.png,US_Cities_List/carmel.png,,,,,,,,,,,,,,,,,,
null,,rt_thecrossant_black,3437585,,,black_plus_sign,,,,,null,,,,,1,,,,,,,,,,,,,,,,
null,,color_black,3437692,,,black_plus_sign,,,,,null,,,,,,,,,,,,,,,,,,,,,
null,,learn_phase(without_color),3440751,,,black_plus_sign,,,,,null,,US_Cities_List/carmel.png,US_Cities_List/boulder.png,,,,,,,,,,,,,,,,,,
null,,black_cross(without_color),3441460,,,yellow,,,,,null,,US_Cities_List/carmel.png,US_Cities_List/boulder.png,,,,,,,,,,,,,,,,,,
null,,rt_plussign_withcolor,3441977,,,yellow,,,,,null,,US_Cities_List/carmel.png,US_Cities_List/boulder.png,,,,,,,,,,,,,,,,,,
1444,,rt_thecrossant_black,3443287,,,black_plus_sign,,,,,50,,,,1,1,,,,,,,,,,,,,,,,
null,,color_black,3443395,,,black_plus_sign,,,,,null,,,,,,,,,,,,,,,,,,,,,
null,,learn_phase(without_color),3446454,,,black_plus_sign,,,,,null,,US_Cities_List/peoria.png,US_Cities_List/newhope.png,,,,,,,,,,,,,,,,,,
null,,black_cross(without_color),3447125,,,yellow,,,,,null,,US_Cities_List/peoria.png,US_Cities_List/newhope.png,,,,,,,,,,,,,,,,,,
null,,rt_plussign_withcolor,3447639,,,yellow,,,,,null,,US_Cities_List/peoria.png,US_Cities_List/newhope.png,,,,,,,,,,,,,,,,,,
952,,rt_thecrossant_black,3449001,,,black_plus_sign,,,,,50,,,,1,1,,,,,,,,,,,,,,,,
null,,color_black,3449109,,,black_plus_sign,,,,,null,,,,,,,,,,,,,,,,,,,,,
null,,learn_phase(without_color),3452163,,,black_plus_sign,,,,,null,,US_Cities_List/racine.png,US_Cities_List/gatlinburg.png,,,,,,,,,,,,,,,,,,
null,,black_cross(without_color),3453142,,,blue,,,,,null,,US_Cities_List/racine.png,US_Cities_List/gatlinburg.png,,,,,,,,,,,,,,,,,,
null,,rt_plussign_withcolor,3453651,,,blue,,,,,null,,US_Cities_List/racine.png,US_Cities_List/gatlinburg.png,,,,,,,,,,,,,,,,,,
909,,rt_thecrossant_black,3454707,,,black_plus_sign,,,,,49,,,,1,1,,,,,,,,,,,,,,,,
null,,color_black,3454816,,,black_plus_sign,,,,,null,,,,,,,,,,,,,,,,,,,,,
null,,learn_phase(without_color),3457879,,,black_plus_sign,,,,,null,,US_Cities_List/westpalmbeach.png,US_Cities_List/carmel.png,,,,,,,,,,,,,,,,,,
null,,black_cross(without_color),3458976,,,blue,,,,,null,,US_Cities_List/westpalmbeach.png,US_Cities_List/carmel.png,,,,,,,,,,,,,,,,,,
null,,rt_plussign_withcolor,3459479,,,blue,,,,,null,,US_Cities_List/westpalmbeach.png,US_Cities_List/carmel.png,,,,,,,,,,,,,,,,,,
1325,,rt_thecrossant_black,3460427,,,black_plus_sign,,,,,49,,,,1,1,,,,,,,,,,,,,,,,
null,,color_black,3460535,,,black_plus_sign,,,,,null,,,,,,,,,,,,,,,,,,,,,
null,,learn_phase(without_color),3463656,,,black_plus_sign,,,,,null,,US_Cities_List/cornwall.png,US_Cities_List/hotsprings.png,,,,,,,,,,,,,,,,,,
null,,black_cross(without_color),3464317,,,yellow,,,,,null,,US_Cities_List/cornwall.png,US_Cities_List/hotsprings.png,,,,,,,,,,,,,,,,,,
null,,rt_plussign_withcolor,3464819,,,yellow,,,,,null,,US_Cities_List/cornwall.png,US_Cities_List/hotsprings.png,,,,,,,,,,,,,,,,,,
1599,,rt_thecrossant_black,3466332,,,black_plus_sign,,,,,50,,,,1,1,,,,,,,,,,,,,,,,
null,,color_black,3466442,,,black_plus_sign,,,,,null,,,,,,,,,,,,,,,,,,,,,
null,,learn_phase(without_color),3469522,,,black_plus_sign,,,,,null,,US_Cities_List/cornwall.png,US_Cities_List/westpalmbeach.png,,,,,,,,,,,,,,,,,,
null,,black_cross(without_color),3470489,,,blue,,,,,null,,US_Cities_List/cornwall.png,US_Cities_List/westpalmbeach.png,,,,,,,,,,,,,,,,,,
null,,rt_plussign_withcolor,3471002,,,blue,,,,,null,,US_Cities_List/cornwall.png,US_Cities_List/westpalmbeach.png,,,,,,,,,,,,,,,,,,
993,,rt_thecrossant_black,3472047,,,black_plus_sign,,,,,49,,,,1,1,,,,,,,,,,,,,,,,
null,,color_black,3472156,,,black_plus_sign,,,,,null,,,,,,,,,,,,,,,,,,,,,
null,,learn_phase(without_color),3475225,,,black_plus_sign,,,,,null,,US_Cities_List/westpalmbeach.png,US_Cities_List/carmel.png,,,,,,,,,,,,,,,,,,
null,,black_cross(without_color),3475676,,,yellow,,,,,null,,US_Cities_List/westpalmbeach.png,US_Cities_List/carmel.png,,,,,,,,,,,,,,,,,,
null,,rt_plussign_withcolor,3476181,,,yellow,,,,,null,,US_Cities_List/westpalmbeach.png,US_Cities_List/carmel.png,,,,,,,,,,,,,,,,,,
1654,,rt_thecrossant_black,3477752,,,black_plus_sign,,,,,50,,,,1,1,,,,,,,,,,,,,,,,
null,,color_black,3477860,,,black_plus_sign,,,,,null,,,,,,,,,,,,,,,,,,,,,
null,,learn_phase(without_color),3480921,,,black_plus_sign,,,,,null,,US_Cities_List/boulder.png,US_Cities_List/carmel.png,,,,,,,,,,,,,,,,,,
null,,black_cross(without_color),3481948,,,yellow,,,,,null,,US_Cities_List/boulder.png,US_Cities_List/carmel.png,,,,,,,,,,,,,,,,,,
null,,rt_plussign_withcolor,3482461,,,yellow,,,,,null,,US_Cities_List/boulder.png,US_Cities_List/carmel.png,,,,,,,,,,,,,,,,,,
767,,rt_thecrossant_black,3483461,,,black_plus_sign,,,,,50,,,,1,1,,,,,,,,,,,,,,,,
null,,color_black,3483574,,,black_plus_sign,,,,,null,,,,,,,,,,,,,,,,,,,,,
null,,learn_phase(without_color),3486642,,,black_plus_sign,,,,,null,,US_Cities_List/racine.png,US_Cities_List/newhope.png,,,,,,,,,,,,,,,,,,
null,,black_cross(without_color),3487557,,,blue,,,,,null,,US_Cities_List/racine.png,US_Cities_List/newhope.png,,,,,,,,,,,,,,,,,,
null,,rt_plussign_withcolor,3488061,,,blue,,,,,null,,US_Cities_List/racine.png,US_Cities_List/newhope.png,,,,,,,,,,,,,,,,,,
1181,,rt_thecrossant_black,3489170,,,black_plus_sign,,,,,49,,,,1,1,,,,,,,,,,,,,,,,
null,,color_black,3489283,,,black_plus_sign,,,,,null,,,,,,,,,,,,,,,,,,,,,
null,,learn_phase(without_color),3492360,,,black_plus_sign,,,,,null,,US_Cities_List/cornwall.png,US_Cities_List/carmel.png,,,,,,,,,,,,,,,,,,
null,,black_cross(without_color),3493374,,,yellow,,,,,null,,US_Cities_List/cornwall.png,US_Cities_List/carmel.png,,,,,,,,,,,,,,,,,,
null,,rt_plussign_withcolor,3493877,,,yellow,,,,,null,,US_Cities_List/cornwall.png,US_Cities_List/carmel.png,,,,,,,,,,,,,,,,,,
1256,,rt_thecrossant_black,3494882,,,black_plus_sign,,,,,50,,,,1,1,,,,,,,,,,,,,,,,
null,,color_black,3494990,,,black_plus_sign,,,,,null,,,,,,,,,,,,,,,,,,,,,
null,,learn_phase(without_color),3498388,,,black_plus_sign,,,,,null,,US_Cities_List/westpalmbeach.png,US_Cities_List/cornwall.png,,,,,,,,,,,,,,,,,,
null,,black_cross(without_color),3499115,,,yellow,,,,,null,,US_Cities_List/westpalmbeach.png,US_Cities_List/cornwall.png,,,,,,,,,,,,,,,,,,
null,,rt_plussign_withcolor,3499630,,,yellow,,,,,null,,US_Cities_List/westpalmbeach.png,US_Cities_List/cornwall.png,,,,,,,,,,,,,,,,,,
1807,,rt_thecrossant_black,3500925,,,black_plus_sign,,,,,50,,,,1,1,,,,,,,,,,,,,,,,
null,,color_black,3501034,,,black_plus_sign,,,,,null,,,,,,,,,,,,,,,,,,,,,
null,,learn_phase(without_color),3504106,,,black_plus_sign,,,,,null,,US_Cities_List/carmel.png,US_Cities_List/boulder.png,,,,,,,,,,,,,,,,,,
null,,black_cross(without_color),3505004,,,yellow,,,,,null,,US_Cities_List/carmel.png,US_Cities_List/boulder.png,,,,,,,,,,,,,,,,,,
null,,rt_plussign_withcolor,3505516,,,yellow,,,,,null,,US_Cities_List/carmel.png,US_Cities_List/boulder.png,,,,,,,,,,,,,,,,,,
1472,,rt_thecrossant_black,3506645,,,black_plus_sign,,,,,50,,,,1,1,,,,,,,,,,,,,,,,
null,,color_black,3506754,,,black_plus_sign,,,,,null,,,,,,,,,,,,,,,,,,,,,
null,,learn_phase(without_color),3509806,,,black_plus_sign,,,,,null,,US_Cities_List/hanover.png,US_Cities_List/peoria.png,,,,,,,,,,,,,,,,,,
null,,black_cross(without_color),3510653,,,blue,,,,,null,,US_Cities_List/hanover.png,US_Cities_List/peoria.png,,,,,,,,,,,,,,,,,,
null,,rt_plussign_withcolor,3511155,,,blue,,,,,null,,US_Cities_List/hanover.png,US_Cities_List/peoria.png,,,,,,,,,,,,,,,,,,
1420,,rt_thecrossant_black,3512331,,,black_plus_sign,,,,,49,,,,1,1,,,,,,,,,,,,,,,,
null,,color_black,3512438,,,black_plus_sign,,,,,null,,,,,,,,,,,,,,,,,,,,,
null,,learn_phase(without_color),3515562,,,black_plus_sign,,,,,null,,US_Cities_List/carmel.png,US_Cities_List/shreveport.png,,,,,,,,,,,,,,,,,,
null,,black_cross(without_color),3516129,,,yellow,,,,,null,,US_Cities_List/carmel.png,US_Cities_List/shreveport.png,,,,,,,,,,,,,,,,,,
null,,rt_plussign_withcolor,3516633,,,yellow,,,,,null,,US_Cities_List/carmel.png,US_Cities_List/shreveport.png,,,,,,,,,,,,,,,,,,
1551,,rt_thecrossant_black,3518104,,,black_plus_sign,,,,,50,,,,1,1,,,,,,,,,,,,,,,,
null,,color_black,3518214,,,black_plus_sign,,,,,null,,,,,,,,,,,,,,,,,,,,,
null,,learn_phase(without_color),3521282,,,black_plus_sign,,,,,null,,US_Cities_List/cornwall.png,US_Cities_List/hotsprings.png,,,,,,,,,,,,,,,,,,
null,,black_cross(without_color),3521704,,,yellow,,,,,null,,US_Cities_List/cornwall.png,US_Cities_List/hotsprings.png,,,,,,,,,,,,,,,,,,
null,,rt_plussign_withcolor,3522219,,,yellow,,,,,null,,US_Cities_List/cornwall.png,US_Cities_List/hotsprings.png,,,,,,,,,,,,,,,,,,
1160,,rt_thecrossant_black,3523813,,,black_plus_sign,,,,,50,,,,1,1,,,,,,,,,,,,,,,,
null,,color_black,3523922,,,black_plus_sign,,,,,null,,,,,,,,,,,,,,,,,,,,,
null,,learn_phase(without_color),3526979,,,black_plus_sign,,,,,null,,US_Cities_List/boulder.png,US_Cities_List/carmel.png,,,,,,,,,,,,,,,,,,
null,,black_cross(without_color),3527872,,,blue,,,,,null,,US_Cities_List/boulder.png,US_Cities_List/carmel.png,,,,,,,,,,,,,,,,,,
null,,rt_plussign_withcolor,3528383,,,blue,,,,,null,,US_Cities_List/boulder.png,US_Cities_List/carmel.png,,,,,,,,,,,,,,,,,,
868,,rt_thecrossant_black,3529528,,,black_plus_sign,,,,,49,,,,1,1,,,,,,,,,,,,,,,,
null,,color_black,3529635,,,black_plus_sign,,,,,null,,,,,,,,,,,,,,,,,,,,,
null,,learn_phase(without_color),3532690,,,black_plus_sign,,,,,null,,US_Cities_List/boulder.png,US_Cities_List/carmel.png,,,,,,,,,,,,,,,,,,
null,,black_cross(without_color),3533302,,,blue,,,,,null,,US_Cities_List/boulder.png,US_Cities_List/carmel.png,,,,,,,,,,,,,,,,,,
null,,rt_plussign_withcolor,3533833,,,blue,,,,,null,,US_Cities_List/boulder.png,US_Cities_List/carmel.png,,,,,,,,,,,,,,,,,,
1824,,rt_thecrossant_black,3535247,,,black_plus_sign,,,,,49,,,,1,1,,,,,,,,,,,,,,,,
null,,color_black,3535356,,,black_plus_sign,,,,,null,,,,,,,,,,,,,,,,,,,,,
null,,learn_phase(without_color),3538405,,,black_plus_sign,,,,,null,,US_Cities_List/racine.png,US_Cities_List/leesburg.png,,,,,,,,,,,,,,,,,,
null,,black_cross(without_color),3539234,,,yellow,,,,,null,,US_Cities_List/racine.png,US_Cities_List/leesburg.png,,,,,,,,,,,,,,,,,,
null,,rt_plussign_withcolor,3539738,,,yellow,,,,,null,,US_Cities_List/racine.png,US_Cities_List/leesburg.png,,,,,,,,,,,,,,,,,,
1173,,rt_thecrossant_black,3540947,,,black_plus_sign,,,,,50,,,,1,1,,,,,,,,,,,,,,,,
null,,color_black,3541071,,,black_plus_sign,,,,,null,,,,,,,,,,,,,,,,,,,,,
null,,learn_phase(without_color),3544235,,,black_plus_sign,,,,,null,,US_Cities_List/peoria.png,US_Cities_List/westpalmbeach.png,,,,,,,,,,,,,,,,,,
null,,black_cross(without_color),3544852,,,blue,,,,,null,,US_Cities_List/peoria.png,US_Cities_List/westpalmbeach.png,,,,,,,,,,,,,,,,,,
552,,rt_plussign_withcolor,3545420,,,blue,,,,,49,,US_Cities_List/peoria.png,US_Cities_List/westpalmbeach.png,,,,,,,,,,,,,,,,,,
null,,rt_thecrossant_black,3546825,,,black_plus_sign,,,,,null,,,,1,1,,,,,,,,,,,,,,,,
null,,color_black,3546937,,,black_plus_sign,,,,,null,,,,,,,,,,,,,,,,,,,,,
null,,learn_phase(without_color),3549988,,,black_plus_sign,,,,,null,,US_Cities_List/gatlinburg.png,US_Cities_List/hanover.png,,,,,,,,,,,,,,,,,,
null,,black_cross(without_color),3550472,,,yellow,,,,,null,,US_Cities_List/gatlinburg.png,US_Cities_List/hanover.png,,,,,,,,,,,,,,,,,,
null,,rt_plussign_withcolor,3550989,,,yellow,,,,,null,,US_Cities_List/gatlinburg.png,US_Cities_List/hanover.png,,,,,,,,,,,,,,,,,,
1503,,rt_thecrossant_black,3552533,,,black_plus_sign,,,,,50,,,,1,1,,,,,,,,,,,,,,,,
null,,color_black,3552643,,,black_plus_sign,,,,,null,,,,,,,,,,,,,,,,,,,,,
null,,learn_phase(without_color),3555713,,,black_plus_sign,,,,,null,,US_Cities_List/racine.png,US_Cities_List/gatlinburg.png,,,,,,,,,,,,,,,,,,
null,,black_cross(without_color),3556252,,,blue,,,,,null,,US_Cities_List/racine.png,US_Cities_List/gatlinburg.png,,,,,,,,,,,,,,,,,,
null,,rt_plussign_withcolor,3556768,,,blue,,,,,null,,US_Cities_List/racine.png,US_Cities_List/gatlinburg.png,,,,,,,,,,,,,,,,,,
1239,,rt_thecrossant_black,3558253,,,black_plus_sign,,,,,49,,,,1,1,,,,,,,,,,,,,,,,
null,,color_black,3558362,,,black_plus_sign,,,,,null,,,,,,,,,,,,,,,,,,,,,
null,,learn_phase(without_color),3561413,,,black_plus_sign,,,,,null,,US_Cities_List/hanover.png,US_Cities_List/boulder.png,,,,,,,,,,,,,,,,,,
null,,black_cross(without_color),3562386,,,yellow,,,,,null,,US_Cities_List/hanover.png,US_Cities_List/boulder.png,,,,,,,,,,,,,,,,,,
null,,rt_plussign_withcolor,3562889,,,yellow,,,,,null,,US_Cities_List/hanover.png,US_Cities_List/boulder.png,,,,,,,,,,,,,,,,,,
null,,rt_thecrossant_black,3563942,,,black_plus_sign,,,,,null,,,,,1,,,,,,,,,,,,,,,,
null,,color_black,3564064,,,black_plus_sign,,,,,null,,,,,,,,,,,,,,,,,,,,,
null,,learn_phase(without_color),3567135,,,black_plus_sign,,,,,null,,US_Cities_List/newhope.png,US_Cities_List/racine.png,,,,,,,,,,,,,,,,,,
null,,black_cross(without_color),3568122,,,yellow,,,,,null,,US_Cities_List/newhope.png,US_Cities_List/racine.png,,,,,,,,,,,,,,,,,,
null,,rt_plussign_withcolor,3568627,,,yellow,,,,,null,,US_Cities_List/newhope.png,US_Cities_List/racine.png,,,,,,,,,,,,,,,,,,
1352,,rt_thecrossant_black,3569659,,,black_plus_sign,,,,,50,,,,1,1,,,,,,,,,,,,,,,,
null,,color_black,3569768,,,black_plus_sign,,,,,null,,,,,,,,,,,,,,,,,,,,,
null,,learn_phase(without_color),3572833,,,black_plus_sign,,,,,null,,US_Cities_List/boulder.png,US_Cities_List/westpalmbeach.png,,,,,,,,,,,,,,,,,,
null,,black_cross(without_color),3573679,,,blue,,,,,null,,US_Cities_List/boulder.png,US_Cities_List/westpalmbeach.png,,,,,,,,,,,,,,,,,,
null,,rt_plussign_withcolor,3574195,,,blue,,,,,null,,US_Cities_List/boulder.png,US_Cities_List/westpalmbeach.png,,,,,,,,,,,,,,,,,,
1254,,rt_thecrossant_black,3575371,,,black_plus_sign,,,,,49,,,,1,1,,,,,,,,,,,,,,,,
null,,color_black,3575481,,,black_plus_sign,,,,,null,,,,,,,,,,,,,,,,,,,,,
null,,learn_phase(without_color),3578539,,,black_plus_sign,,,,,null,,US_Cities_List/carmel.png,US_Cities_List/cornwall.png,,,,,,,,,,,,,,,,,,
null,,black_cross(without_color),3579513,,,yellow,,,,,null,,US_Cities_List/carmel.png,US_Cities_List/cornwall.png,,,,,,,,,,,,,,,,,,
null,,rt_plussign_withcolor,3580029,,,yellow,,,,,null,,US_Cities_List/carmel.png,US_Cities_List/cornwall.png,,,,,,,,,,,,,,,,,,
1932,,rt_thecrossant_black,3581092,,,black_plus_sign,,,,,50,,,,1,1,,,,,,,,,,,,,,,,
null,,color_black,3581202,,,black_plus_sign,,,,,null,,,,,,,,,,,,,,,,,,,,,
null,,learn_phase(without_color),3584254,,,black_plus_sign,,,,,null,,US_Cities_List/hanover.png,US_Cities_List/gatlinburg.png,,,,,,,,,,,,,,,,,,
null,,black_cross(without_color),3585048,,,blue,,,,,null,,US_Cities_List/hanover.png,US_Cities_List/gatlinburg.png,,,,,,,,,,,,,,,,,,
null,,rt_plussign_withcolor,3585552,,,blue,,,,,null,,US_Cities_List/hanover.png,US_Cities_List/gatlinburg.png,,,,,,,,,,,,,,,,,,
1145,,rt_thecrossant_black,3586788,,,black_plus_sign,,,,,49,,,,1,1,,,,,,,,,,,,,,,,
null,,color_black,3586897,,,black_plus_sign,,,,,null,,,,,,,,,,,,,,,,,,,,,
null,,learn_phase(without_color),3590063,,,black_plus_sign,,,,,null,,US_Cities_List/peoria.png,US_Cities_List/westpalmbeach.png,,,,,,,,,,,,,,,,,,
null,,black_cross(without_color),3591049,,,yellow,,,,,null,,US_Cities_List/peoria.png,US_Cities_List/westpalmbeach.png,,,,,,,,,,,,,,,,,,
484,,rt_plussign_withcolor,3591550,,,yellow,,,,,50,,US_Cities_List/peoria.png,US_Cities_List/westpalmbeach.png,,,,,,,,,,,,,,,,,,
null,,rt_thecrossant_black,3592593,,,black_plus_sign,,,,,null,,,,1,1,,,,,,,,,,,,,,,,
null,,color_black,3592703,,,black_plus_sign,,,,,null,,,,,,,,,,,,,,,,,,,,,
null,,learn_phase(without_color),3595766,,,black_plus_sign,,,,,null,,US_Cities_List/hanover.png,US_Cities_List/gatlinburg.png,,,,,,,,,,,,,,,,,,
null,,black_cross(without_color),3596847,,,blue,,,,,null,,US_Cities_List/hanover.png,US_Cities_List/gatlinburg.png,,,,,,,,,,,,,,,,,,
460,,rt_plussign_withcolor,3597351,,,blue,,,,,49,,US_Cities_List/hanover.png,US_Cities_List/gatlinburg.png,,,,,,,,,,,,,,,,,,
null,,rt_thecrossant_black,3598384,,,black_plus_sign,,,,,null,,,,1,1,,,,,,,,,,,,,,,,
null,,color_black,3598495,,,black_plus_sign,,,,,null,,,,,,,,,,,,,,,,,,,,,
null,,learn_phase(without_color),3601567,,,black_plus_sign,,,,,null,,US_Cities_List/leesburg.png,US_Cities_List/racine.png,,,,,,,,,,,,,,,,,,
null,,black_cross(without_color),3602358,,,yellow,,,,,null,,US_Cities_List/leesburg.png,US_Cities_List/racine.png,,,,,,,,,,,,,,,,,,
null,,rt_plussign_withcolor,3602873,,,yellow,,,,,null,,US_Cities_List/leesburg.png,US_Cities_List/racine.png,,,,,,,,,,,,,,,,,,
1103,,rt_thecrossant_black,3604112,,,black_plus_sign,,,,,50,,,,1,1,,,,,,,,,,,,,,,,
null,,color_black,3604220,,,black_plus_sign,,,,,null,,,,,,,,,,,,,,,,,,,,,
null,,learn_phase(without_color),3607281,,,black_plus_sign,,,,,null,,US_Cities_List/peoria.png,US_Cities_List/westpalmbeach.png,,,,,,,,,,,,,,,,,,
null,,black_cross(without_color),3607861,,,blue,,,,,null,,US_Cities_List/peoria.png,US_Cities_List/westpalmbeach.png,,,,,,,,,,,,,,,,,,
null,,rt_plussign_withcolor,3608364,,,blue,,,,,null,,US_Cities_List/peoria.png,US_Cities_List/westpalmbeach.png,,,,,,,,,,,,,,,,,,
1002,,rt_thecrossant_black,3609809,,,black_plus_sign,,,,,49,,,,1,1,,,,,,,,,,,,,,,,
null,,color_black,3609918,,,black_plus_sign,,,,,null,,,,,,,,,,,,,,,,,,,,,
null,,learn_phase(without_color),3612988,,,black_plus_sign,,,,,null,,US_Cities_List/cornwall.png,US_Cities_List/hotsprings.png,,,,,,,,,,,,,,,,,,
null,,black_cross(without_color),3614066,,,yellow,,,,,null,,US_Cities_List/cornwall.png,US_Cities_List/hotsprings.png,,,,,,,,,,,,,,,,,,
null,,rt_plussign_withcolor,3614582,,,yellow,,,,,null,,US_Cities_List/cornwall.png,US_Cities_List/hotsprings.png,,,,,,,,,,,,,,,,,,
758,,rt_thecrossant_black,3615539,,,black_plus_sign,,,,,50,,,,1,1,,,,,,,,,,,,,,,,
null,,color_black,3615648,,,black_plus_sign,,,,,null,,,,,,,,,,,,,,,,,,,,,
null,,learn_phase(without_color),3618712,,,black_plus_sign,,,,,null,,US_Cities_List/leesburg.png,US_Cities_List/racine.png,,,,,,,,,,,,,,,,,,
null,,black_cross(without_color),3619731,,,yellow,,,,,null,,US_Cities_List/leesburg.png,US_Cities_List/racine.png,,,,,,,,,,,,,,,,,,
null,,rt_plussign_withcolor,3620243,,,yellow,,,,,null,,US_Cities_List/leesburg.png,US_Cities_List/racine.png,,,,,,,,,,,,,,,,,,
1309,,rt_thecrossant_black,3621327,,,black_plus_sign,,,,,50,,,,1,1,,,,,,,,,,,,,,,,
null,,color_black,3621435,,,black_plus_sign,,,,,null,,,,,,,,,,,,,,,,,,,,,
null,,learn_phase(without_color),3624749,,,black_plus_sign,,,,,null,,US_Cities_List/newhope.png,US_Cities_List/racine.png,,,,,,,,,,,,,,,,,,
null,,black_cross(without_color),3625247,,,blue,,,,,null,,US_Cities_List/newhope.png,US_Cities_List/racine.png,,,,,,,,,,,,,,,,,,
null,,rt_plussign_withcolor,3625763,,,blue,,,,,null,,US_Cities_List/newhope.png,US_Cities_List/racine.png,,,,,,,,,,,,,,,,,,
1424,,rt_thecrossant_black,3627282,,,black_plus_sign,,,,,50,,,,0,0.990909090909091,,,,,,,,,,,,,,,,
null,,color_black,3627393,,,black_plus_sign,,,,,null,,,,,,,,,,,,,,,,,,,,,
null,,learn_phase(without_color),3630457,,,black_plus_sign,,,,,null,,US_Cities_List/leesburg.png,US_Cities_List/racine.png,,,,,,,,,,,,,,,,,,
null,,black_cross(without_color),3631098,,,blue,,,,,null,,US_Cities_List/leesburg.png,US_Cities_List/racine.png,,,,,,,,,,,,,,,,,,
null,,rt_plussign_withcolor,3631614,,,blue,,,,,null,,US_Cities_List/leesburg.png,US_Cities_List/racine.png,,,,,,,,,,,,,,,,,,
943,,rt_thecrossant_black,3633001,,,black_plus_sign,,,,,49,,,,1,0.990990990990991,,,,,,,,,,,,,,,,
null,,color_black,3633112,,,black_plus_sign,,,,,null,,,,,,,,,,,,,,,,,,,,,
null,,learn_phase(without_color),3636202,,,black_plus_sign,,,,,null,,US_Cities_List/carmel.png,US_Cities_List/cornwall.png,,,,,,,,,,,,,,,,,,
null,,black_cross(without_color),3636781,,,blue,,,,,null,,US_Cities_List/carmel.png,US_Cities_List/cornwall.png,,,,,,,,,,,,,,,,,,
null,,rt_plussign_withcolor,3637311,,,blue,,,,,null,,US_Cities_List/carmel.png,US_Cities_List/cornwall.png,,,,,,,,,,,,,,,,,,
765,,rt_thecrossant_black,3638747,,,black_plus_sign,,,,,49,,,,1,0.9910714285714286,,,,,,,,,,,,,,,,
null,,color_black,3638856,,,black_plus_sign,,,,,null,,,,,,,,,,,,,,,,,,,,,
null,,learn_phase(without_color),3641921,,,black_plus_sign,,,,,null,,US_Cities_List/carmel.png,US_Cities_List/westpalmbeach.png,,,,,,,,,,,,,,,,,,
null,,black_cross(without_color),3643053,,,blue,,,,,null,,US_Cities_List/carmel.png,US_Cities_List/westpalmbeach.png,,,,,,,,,,,,,,,,,,
null,,rt_plussign_withcolor,3643568,,,blue,,,,,null,,US_Cities_List/carmel.png,US_Cities_List/westpalmbeach.png,,,,,,,,,,,,,,,,,,
831,,rt_thecrossant_black,3644551,,,black_plus_sign,,,,,49,,,,1,0.9911504424778761,,,,,,,,,,,,,,,,
null,,color_black,3644661,,,black_plus_sign,,,,,null,,,,,,,,,,,,,,,,,,,,,
null,,learn_phase(without_color),3647717,,,black_plus_sign,,,,,null,,US_Cities_List/carmel.png,US_Cities_List/shreveport.png,,,,,,,,,,,,,,,,,,
null,,black_cross(without_color),3648580,,,blue,,,,,null,,US_Cities_List/carmel.png,US_Cities_List/shreveport.png,,,,,,,,,,,,,,,,,,
null,,rt_plussign_withcolor,3649084,,,blue,,,,,null,,US_Cities_List/carmel.png,US_Cities_List/shreveport.png,,,,,,,,,,,,,,,,,,
1401,,rt_thecrossant_black,3650331,,,black_plus_sign,,,,,49,,,,1,0.9912280701754386,,,,,,,,,,,,,,,,
null,,color_black,3650441,,,black_plus_sign,,,,,null,,,,,,,,,,,,,,,,,,,,,
null,,learn_phase(without_color),3653487,,,black_plus_sign,,,,,null,,US_Cities_List/boulder.png,US_Cities_List/hanover.png,,,,,,,,,,,,,,,,,,
null,,black_cross(without_color),3654439,,,blue,,,,,null,,US_Cities_List/boulder.png,US_Cities_List/hanover.png,,,,,,,,,,,,,,,,,,
null,,rt_plussign_withcolor,3654954,,,blue,,,,,null,,US_Cities_List/boulder.png,US_Cities_List/hanover.png,,,,,,,,,,,,,,,,,,
1411,,rt_thecrossant_black,3656031,,,black_plus_sign,,,,,49,,,,1,0.991304347826087,,,,,,,,,,,,,,,,
null,,color_black,3656141,,,black_plus_sign,,,,,null,,,,,,,,,,,,,,,,,,,,,
null,,learn_phase(without_color),3659229,,,black_plus_sign,,,,,null,,US_Cities_List/hotsprings.png,US_Cities_List/cornwall.png,,,,,,,,,,,,,,,,,,
null,,black_cross(without_color),3659747,,,yellow,,,,,null,,US_Cities_List/hotsprings.png,US_Cities_List/cornwall.png,,,,,,,,,,,,,,,,,,
null,,rt_plussign_withcolor,3660262,,,yellow,,,,,null,,US_Cities_List/hotsprings.png,US_Cities_List/cornwall.png,,,,,,,,,,,,,,,,,,
1396,,rt_thecrossant_black,3661801,,,black_plus_sign,,,,,50,,,,1,0.9913793103448276,,,,,,,,,,,,,,,,
null,,color_black,3661911,,,black_plus_sign,,,,,null,,,,,,,,,,,,,,,,,,,,,
null,,learn_phase(without_color),3664987,,,black_plus_sign,,,,,null,,US_Cities_List/carmel.png,US_Cities_List/cornwall.png,,,,,,,,,,,,,,,,,,
null,,black_cross(without_color),3665893,,,yellow,,,,,null,,US_Cities_List/carmel.png,US_Cities_List/cornwall.png,,,,,,,,,,,,,,,,,,
null,,rt_plussign_withcolor,3666400,,,yellow,,,,,null,,US_Cities_List/carmel.png,US_Cities_List/cornwall.png,,,,,,,,,,,,,,,,,,
1643,,rt_thecrossant_black,3667515,,,black_plus_sign,,,,,50,,,,1,0.9914529914529915,,,,,,,,,,,,,,,,
null,,color_black,3667623,,,black_plus_sign,,,,,null,,,,,,,,,,,,,,,,,,,,,
null,,learn_phase(without_color),3670836,,,black_plus_sign,,,,,null,,US_Cities_List/racine.png,US_Cities_List/leesburg.png,,,,,,,,,,,,,,,,,,
null,,black_cross(without_color),3671361,,,blue,,,,,null,,US_Cities_List/racine.png,US_Cities_List/leesburg.png,,,,,,,,,,,,,,,,,,
null,,rt_plussign_withcolor,3671876,,,blue,,,,,null,,US_Cities_List/racine.png,US_Cities_List/leesburg.png,,,,,,,,,,,,,,,,,,
1467,,rt_thecrossant_black,3673375,,,black_plus_sign,,,,,49,,,,1,0.9915254237288136,,,,,,,,,,,,,,,,
null,,color_black,3673483,,,black_plus_sign,,,,,null,,,,,,,,,,,,,,,,,,,,,
null,,learn_phase(without_color),3676540,,,black_plus_sign,,,,,null,,US_Cities_List/carmel.png,US_Cities_List/westpalmbeach.png,,,,,,,,,,,,,,,,,,
null,,black_cross(without_color),3677572,,,yellow,,,,,null,,US_Cities_List/carmel.png,US_Cities_List/westpalmbeach.png,,,,,,,,,,,,,,,,,,
null,,rt_plussign_withcolor,3678089,,,yellow,,,,,null,,US_Cities_List/carmel.png,US_Cities_List/westpalmbeach.png,,,,,,,,,,,,,,,,,,
831,,rt_thecrossant_black,3679091,,,black_plus_sign,,,,,50,,,,1,0.9915966386554622,,,,,,,,,,,,,,,,
null,,color_black,3679201,,,black_plus_sign,,,,,null,,,,,,,,,,,,,,,,,,,,,
null,,learn_phase(without_color),3682260,,,black_plus_sign,,,,,null,,US_Cities_List/carmel.png,US_Cities_List/shreveport.png,,,,,,,,,,,,,,,,,,
null,,black_cross(without_color),3682927,,,blue,,,,,null,,US_Cities_List/carmel.png,US_Cities_List/shreveport.png,,,,,,,,,,,,,,,,,,
null,,rt_plussign_withcolor,3683440,,,blue,,,,,null,,US_Cities_List/carmel.png,US_Cities_List/shreveport.png,,,,,,,,,,,,,,,,,,
1372,,rt_thecrossant_black,3684813,,,black_plus_sign,,,,,49,,,,1,0.9916666666666667,,,,,,,,,,,,,,,,
null,,color_black,3684922,,,black_plus_sign,,,,,null,,,,,,,,,,,,,,,,,,,,,
null,,learn_phase(without_color),3688076,,,black_plus_sign,,,,,null,,US_Cities_List/huntsville.png,US_Cities_List/gatlinburg.png,,,,,,,,,,,,,,,,,,
null,,black_cross(without_color),3689050,,,blue,,,,,null,,US_Cities_List/huntsville.png,US_Cities_List/gatlinburg.png,,,,,,,,,,,,,,,,,,
null,,rt_plussign_withcolor,3689563,,,blue,,,,,null,,US_Cities_List/huntsville.png,US_Cities_List/gatlinburg.png,,,,,,,,,,,,,,,,,,
1321,,rt_thecrossant_black,3690611,,,black_plus_sign,,,,,49,,,,1,0.9917355371900827,,,,,,,,,,,,,,,,
null,,color_black,3690721,,,black_plus_sign,,,,,null,,,,,,,,,,,,,,,,,,,,,
null,,learn_phase(without_color),3694133,,,black_plus_sign,,,,,null,,US_Cities_List/westpalmbeach.png,US_Cities_List/carmel.png,,,,,,,,,,,,,,,,,,
null,,black_cross(without_color),3694565,,,blue,,,,,null,,US_Cities_List/westpalmbeach.png,US_Cities_List/carmel.png,,,,,,,,,,,,,,,,,,
null,,rt_plussign_withcolor,3695068,,,blue,,,,,null,,US_Cities_List/westpalmbeach.png,US_Cities_List/carmel.png,,,,,,,,,,,,,,,,,,
1466,,rt_thecrossant_black,3696665,,,black_plus_sign,,,,,49,,,,1,0.9918032786885246,,,,,,,,,,,,,,,,
null,,color_black,3696774,,,black_plus_sign,,,,,null,,,,,,,,,,,,,,,,,,,,,
null,,learn_phase(without_color),3699829,,,black_plus_sign,,,,,null,,US_Cities_List/hanover.png,US_Cities_List/gatlinburg.png,,,,,,,,,,,,,,,,,,
null,,black_cross(without_color),3700878,,,blue,,,,,null,,US_Cities_List/hanover.png,US_Cities_List/gatlinburg.png,,,,,,,,,,,,,,,,,,
null,,rt_plussign_withcolor,3701394,,,blue,,,,,null,,US_Cities_List/hanover.png,US_Cities_List/gatlinburg.png,,,,,,,,,,,,,,,,,,
629,,rt_thecrossant_black,3702399,,,black_plus_sign,,,,,49,,,,1,0.991869918699187,,,,,,,,,,,,,,,,
null,,color_black,3702508,,,black_plus_sign,,,,,null,,,,,,,,,,,,,,,,,,,,,
null,,learn_phase(without_color),3705566,,,black_plus_sign,,,,,null,,US_Cities_List/huntsville.png,US_Cities_List/gatlinburg.png,,,,,,,,,,,,,,,,,,
null,,black_cross(without_color),3706413,,,yellow,,,,,null,,US_Cities_List/huntsville.png,US_Cities_List/gatlinburg.png,,,,,,,,,,,,,,,,,,
null,,rt_plussign_withcolor,3706917,,,yellow,,,,,null,,US_Cities_List/huntsville.png,US_Cities_List/gatlinburg.png,,,,,,,,,,,,,,,,,,
1964,,rt_thecrossant_black,3708105,,,black_plus_sign,,,,,50,,,,1,0.9919354838709677,,,,,,,,,,,,,,,,
null,,color_black,3708213,,,black_plus_sign,,,,,null,,,,,,,,,,,,,,,,,,,,,
null,,learn_break,3768231,,,learn_break,,,,,null,,,,,,,,,,,,,,,,,,,,,
233374,,intro_1,4001608,,,instruct,,,0,,,,,,,,,,,,,,,,,,,,,,,
57629,,intro_2,4059241,,,instruct,,,1,Next,,,,,,,,,,,,,,,,,,,,,,
null,,directmemory_phase,4065779,,,../static/images/US_Cities_List/huntsville.png,,,,,null,,,,0,0,../static/images/US_Cities_List/gatlinburg.png,../static/images/US_Cities_List/leesburg.png,../static/images/US_Cities_List/hanover.png,../static/images/US_Cities_List/gatlinburg.png,../static/images/US_Cities_List/hanover.png,../static/images/US_Cities_List/leesburg.png,0,,,,,,,,,
null,,warning_page,4068792,,,warning,,,,,null,,,,,,,,,,,,,,,,,,,,,
null,,html-keyboard-response,4069800,,,<p></p>,,,,,null,,,,,,,,,,,,,,,,,,,,,
3703,,directmemory_phase,4073585,,,../static/images/US_Cities_List/westpalmbeach.png,,,,,49,,,,0,0,../static/images/US_Cities_List/racine.png,../static/images/US_Cities_List/shreveport.png,../static/images/US_Cities_List/cornwall.png,../static/images/US_Cities_List/cornwall.png,../static/images/US_Cities_List/shreveport.png,../static/images/US_Cities_List/racine.png,0.5,closer,,,,,,,,
null,,html-keyboard-response,4074606,,,<p></p>,,,,,null,,,,,,,,,,,,,,,,,,,,,
4110,,directmemory_phase,4078800,,,../static/images/US_Cities_List/peoria.png,,,,,51,,,,0,0,../static/images/US_Cities_List/racine.png,../static/images/US_Cities_List/hanover.png,../static/images/US_Cities_List/hotsprings.png,../static/images/US_Cities_List/hanover.png,../static/images/US_Cities_List/racine.png,../static/images/US_Cities_List/hotsprings.png,0.5,closer,,,,,,,,
null,,html-keyboard-response,4079813,,,<p></p>,,,,,null,,,,,,,,,,,,,,,,,,,,,
5417,,directmemory_phase,4085324,,,../static/images/US_Cities_List/cornwall.png,,,,,49,,,,1,0.25,../static/images/US_Cities_List/hotsprings.png,../static/images/US_Cities_List/newhope.png,../static/images/US_Cities_List/boulder.png,../static/images/US_Cities_List/hotsprings.png,../static/images/US_Cities_List/boulder.png,../static/images/US_Cities_List/newhope.png,1,,,,,,,,,
null,,html-keyboard-response,4086343,,,<p></p>,,,,,null,,,,,,,,,,,,,,,,,,,,,
5517,,directmemory_phase,4091969,,,../static/images/US_Cities_List/racine.png,,,,,51,,,,0,0.2,../static/images/US_Cities_List/gatlinburg.png,../static/images/US_Cities_List/cornwall.png,../static/images/US_Cities_List/peoria.png,../static/images/US_Cities_List/gatlinburg.png,../static/images/US_Cities_List/peoria.png,../static/images/US_Cities_List/cornwall.png,0.5,closer,,,,,,,,
null,,html-keyboard-response,4092987,,,<p></p>,,,,,null,,,,,,,,,,,,,,,,,,,,,
5006,,directmemory_phase,4098089,,,../static/images/US_Cities_List/hotsprings.png,,,,,49,,,,0,0.16666666666666666,../static/images/US_Cities_List/westpalmbeach.png,../static/images/US_Cities_List/cornwall.png,../static/images/US_Cities_List/shreveport.png,../static/images/US_Cities_List/cornwall.png,../static/images/US_Cities_List/westpalmbeach.png,../static/images/US_Cities_List/shreveport.png,0.5,closer,,,,,,,,
null,,html-keyboard-response,4099106,,,<p></p>,,,,,null,,,,,,,,,,,,,,,,,,,,,
5892,,directmemory_phase,4105083,,,../static/images/US_Cities_List/hanover.png,,,,,49,,,,1,0.2857142857142857,../static/images/US_Cities_List/boulder.png,../static/images/US_Cities_List/cornwall.png,../static/images/US_Cities_List/huntsville.png,../static/images/US_Cities_List/boulder.png,../static/images/US_Cities_List/huntsville.png,../static/images/US_Cities_List/cornwall.png,1,,,,,,,,,
null,,html-keyboard-response,4106090,,,<p></p>,,,,,null,,,,,,,,,,,,,,,,,,,,,
4197,,directmemory_phase,4110373,,,../static/images/US_Cities_List/leesburg.png,,,,,51,,,,1,0.375,../static/images/US_Cities_List/peoria.png,../static/images/US_Cities_List/gatlinburg.png,../static/images/US_Cities_List/racine.png,../static/images/US_Cities_List/racine.png,../static/images/US_Cities_List/gatlinburg.png,../static/images/US_Cities_List/peoria.png,1,,,,,,,,,
null,,html-keyboard-response,4111394,,,<p></p>,,,,,null,,,,,,,,,,,,,,,,,,,,,
3292,,directmemory_phase,4114783,,,../static/images/US_Cities_List/westpalmbeach.png,,,,,51,,,,0,0.3333333333333333,../static/images/US_Cities_List/shreveport.png,../static/images/US_Cities_List/peoria.png,../static/images/US_Cities_List/racine.png,../static/images/US_Cities_List/peoria.png,../static/images/US_Cities_List/shreveport.png,../static/images/US_Cities_List/racine.png,0.5,closer,,,,,,,,
null,,html-keyboard-response,4115826,,,<p></p>,,,,,null,,,,,,,,,,,,,,,,,,,,,
2497,,directmemory_phase,4118418,,,../static/images/US_Cities_List/newhope.png,,,,,49,,,,0,0.3,../static/images/US_Cities_List/hotsprings.png,../static/images/US_Cities_List/leesburg.png,../static/images/US_Cities_List/racine.png,../static/images/US_Cities_List/racine.png,../static/images/US_Cities_List/leesburg.png,../static/images/US_Cities_List/hotsprings.png,0.5,closer,,,,,,,,
null,,html-keyboard-response,4119439,,,<p></p>,,,,,null,,,,,,,,,,,,,,,,,,,,,
5168,,directmemory_phase,4124710,,,../static/images/US_Cities_List/carmel.png,,,,,51,,,,0,0.2727272727272727,../static/images/US_Cities_List/cornwall.png,../static/images/US_Cities_List/racine.png,../static/images/US_Cities_List/peoria.png,../static/images/US_Cities_List/cornwall.png,../static/images/US_Cities_List/peoria.png,../static/images/US_Cities_List/racine.png,0.5,closer,,,,,,,,
null,,html-keyboard-response,4125725,,,<p></p>,,,,,null,,,,,,,,,,,,,,,,,,,,,
4787,,directmemory_phase,4130610,,,../static/images/US_Cities_List/racine.png,,,,,49,,,,0,0.25,../static/images/US_Cities_List/boulder.png,../static/images/US_Cities_List/peoria.png,../static/images/US_Cities_List/leesburg.png,../static/images/US_Cities_List/leesburg.png,../static/images/US_Cities_List/peoria.png,../static/images/US_Cities_List/boulder.png,0.5,closer,,,,,,,,
null,,html-keyboard-response,4131630,,,<p></p>,,,,,null,,,,,,,,,,,,,,,,,,,,,
5354,,directmemory_phase,4137072,,,../static/images/US_Cities_List/carmel.png,,,,,51,,,,0,0.23076923076923078,../static/images/US_Cities_List/shreveport.png,../static/images/US_Cities_List/newhope.png,../static/images/US_Cities_List/peoria.png,../static/images/US_Cities_List/shreveport.png,../static/images/US_Cities_List/peoria.png,../static/images/US_Cities_List/newhope.png,0.5,closer,,,,,,,,
null,,html-keyboard-response,4138120,,,<p></p>,,,,,null,,,,,,,,,,,,,,,,,,,,,
null,,directmemory_phase,4144718,,,../static/images/US_Cities_List/gatlinburg.png,,,,,null,,,,0,0.21428571428571427,../static/images/US_Cities_List/racine.png,../static/images/US_Cities_List/westpalmbeach.png,../static/images/US_Cities_List/peoria.png,../static/images/US_Cities_List/racine.png,../static/images/US_Cities_List/peoria.png,../static/images/US_Cities_List/westpalmbeach.png,0,,,,,,,,,
null,,warning_page,4147735,,,warning,,,,,null,,,,,,,,,,,,,,,,,,,,,
null,,html-keyboard-response,4148802,,,<p></p>,,,,,null,,,,,,,,,,,,,,,,,,,,,
2570,,directmemory_phase,4151476,,,../static/images/US_Cities_List/westpalmbeach.png,,,,,49,,,,0,0.2,../static/images/US_Cities_List/racine.png,../static/images/US_Cities_List/hanover.png,../static/images/US_Cities_List/carmel.png,../static/images/US_Cities_List/carmel.png,../static/images/US_Cities_List/hanover.png,../static/images/US_Cities_List/racine.png,0.5,closer,,,,,,,,
null,,html-keyboard-response,4152493,,,<p></p>,,,,,null,,,,,,,,,,,,,,,,,,,,,
3510,,directmemory_phase,4156091,,,../static/images/US_Cities_List/hanover.png,,,,,50,,,,0,0.1875,../static/images/US_Cities_List/gatlinburg.png,../static/images/US_Cities_List/shreveport.png,../static/images/US_Cities_List/carmel.png,../static/images/US_Cities_List/gatlinburg.png,../static/images/US_Cities_List/carmel.png,../static/images/US_Cities_List/shreveport.png,0.5,closer,,,,,,,,
null,,html-keyboard-response,4157101,,,<p></p>,,,,,null,,,,,,,,,,,,,,,,,,,,,
4023,,directmemory_phase,4161197,,,../static/images/US_Cities_List/westpalmbeach.png,,,,,50,,,,1,0.23529411764705882,../static/images/US_Cities_List/shreveport.png,../static/images/US_Cities_List/boulder.png,../static/images/US_Cities_List/huntsville.png,../static/images/US_Cities_List/boulder.png,../static/images/US_Cities_List/shreveport.png,../static/images/US_Cities_List/huntsville.png,1,,,,,,,,,
null,,html-keyboard-response,4162207,,,<p></p>,,,,,null,,,,,,,,,,,,,,,,,,,,,
3153,,directmemory_phase,4165435,,,../static/images/US_Cities_List/gatlinburg.png,,,,,51,,,,1,0.2777777777777778,../static/images/US_Cities_List/shreveport.png,../static/images/US_Cities_List/leesburg.png,../static/images/US_Cities_List/huntsville.png,../static/images/US_Cities_List/huntsville.png,../static/images/US_Cities_List/leesburg.png,../static/images/US_Cities_List/shreveport.png,1,,,,,,,,,
null,,html-keyboard-response,4166452,,,<p></p>,,,,,null,,,,,,,,,,,,,,,,,,,,,
3378,,directmemory_phase,4169920,,,../static/images/US_Cities_List/carmel.png,,,,,50,,,,1,0.3157894736842105,../static/images/US_Cities_List/peoria.png,../static/images/US_Cities_List/boulder.png,../static/images/US_Cities_List/newhope.png,../static/images/US_Cities_List/boulder.png,../static/images/US_Cities_List/peoria.png,../static/images/US_Cities_List/newhope.png,1,,,,,,,,,
null,,html-keyboard-response,4170937,,,<p></p>,,,,,null,,,,,,,,,,,,,,,,,,,,,
557,,directmemory_phase,4171595,,,../static/images/US_Cities_List/cornwall.png,,,,,50,,,,0,0.3,../static/images/US_Cities_List/newhope.png,../static/images/US_Cities_List/shreveport.png,../static/images/US_Cities_List/westpalmbeach.png,../static/images/US_Cities_List/westpalmbeach.png,../static/images/US_Cities_List/shreveport.png,../static/images/US_Cities_List/newhope.png,0.5,closer,,,,,,,,
null,,html-keyboard-response,4172605,,,<p></p>,,,,,null,,,,,,,,,,,,,,,,,,,,,
2272,,directmemory_phase,4174977,,,../static/images/US_Cities_List/shreveport.png,,,,,49,,,,1,0.3333333333333333,../static/images/US_Cities_List/carmel.png,../static/images/US_Cities_List/newhope.png,../static/images/US_Cities_List/westpalmbeach.png,../static/images/US_Cities_List/carmel.png,../static/images/US_Cities_List/westpalmbeach.png,../static/images/US_Cities_List/newhope.png,1,,,,,,,,,
null,,html-keyboard-response,4175991,,,<p></p>,,,,,null,,,,,,,,,,,,,,,,,,,,,
2126,,directmemory_phase,4178205,,,../static/images/US_Cities_List/hanover.png,,,,,51,,,,0,0.3181818181818182,../static/images/US_Cities_List/peoria.png,../static/images/US_Cities_List/cornwall.png,../static/images/US_Cities_List/huntsville.png,../static/images/US_Cities_List/peoria.png,../static/images/US_Cities_List/huntsville.png,../static/images/US_Cities_List/cornwall.png,0.5,closer,,,,,,,,
null,,html-keyboard-response,4179221,,,<p></p>,,,,,null,,,,,,,,,,,,,,,,,,,,,
3142,,directmemory_phase,4182448,,,../static/images/US_Cities_List/carmel.png,,,,,49,,,,0,0.30434782608695654,../static/images/US_Cities_List/huntsville.png,../static/images/US_Cities_List/hotsprings.png,../static/images/US_Cities_List/westpalmbeach.png,../static/images/US_Cities_List/westpalmbeach.png,../static/images/US_Cities_List/hotsprings.png,../static/images/US_Cities_List/huntsville.png,0.5,closer,,,,,,,,
null,,html-keyboard-response,4183524,,,<p></p>,,,,,null,,,,,,,,,,,,,,,,,,,,,
3550,,directmemory_phase,4187154,,,../static/images/US_Cities_List/gatlinburg.png,,,,,51,,,,0,0.2916666666666667,../static/images/US_Cities_List/hanover.png,../static/images/US_Cities_List/westpalmbeach.png,../static/images/US_Cities_List/boulder.png,../static/images/US_Cities_List/hanover.png,../static/images/US_Cities_List/boulder.png,../static/images/US_Cities_List/westpalmbeach.png,0.5,closer,,,,,,,,
null,,html-keyboard-response,4188172,,,<p></p>,,,,,null,,,,,,,,,,,,,,,,,,,,,
4900,,directmemory_phase,4193175,,,../static/images/US_Cities_List/cornwall.png,,,,,49,,,,0,0.28,../static/images/US_Cities_List/shreveport.png,../static/images/US_Cities_List/carmel.png,../static/images/US_Cities_List/newhope.png,../static/images/US_Cities_List/carmel.png,../static/images/US_Cities_List/shreveport.png,../static/images/US_Cities_List/newhope.png,0.5,closer,,,,,,,,
null,,html-keyboard-response,4194189,,,<p></p>,,,,,null,,,,,,,,,,,,,,,,,,,,,
4949,,directmemory_phase,4199224,,,../static/images/US_Cities_List/peoria.png,,,,,50,,,,0,0.2692307692307692,../static/images/US_Cities_List/huntsville.png,../static/images/US_Cities_List/gatlinburg.png,../static/images/US_Cities_List/newhope.png,../static/images/US_Cities_List/newhope.png,../static/images/US_Cities_List/gatlinburg.png,../static/images/US_Cities_List/huntsville.png,0.5,closer,,,,,,,,
null,,html-keyboard-response,4200238,,,<p></p>,,,,,null,,,,,,,,,,,,,,,,,,,,,
6199,,directmemory_phase,4206521,,,../static/images/US_Cities_List/boulder.png,,,,,51,,,,0,0.25925925925925924,../static/images/US_Cities_List/hanover.png,../static/images/US_Cities_List/hotsprings.png,../static/images/US_Cities_List/gatlinburg.png,../static/images/US_Cities_List/hanover.png,../static/images/US_Cities_List/gatlinburg.png,../static/images/US_Cities_List/hotsprings.png,0.5,closer,,,,,,,,
null,,html-keyboard-response,4207529,,,<p></p>,,,,,null,,,,,,,,,,,,,,,,,,,,,
3458,,directmemory_phase,4211080,,,../static/images/US_Cities_List/peoria.png,,,,,51,,,,1,0.2857142857142857,../static/images/US_Cities_List/hotsprings.png,../static/images/US_Cities_List/carmel.png,../static/images/US_Cities_List/westpalmbeach.png,../static/images/US_Cities_List/westpalmbeach.png,../static/images/US_Cities_List/carmel.png,../static/images/US_Cities_List/hotsprings.png,1,,,,,,,,,
null,,html-keyboard-response,4212095,,,<p></p>,,,,,null,,,,,,,,,,,,,,,,,,,,,
2626,,directmemory_phase,4214799,,,../static/images/US_Cities_List/boulder.png,,,,,50,,,,0,0.27586206896551724,../static/images/US_Cities_List/carmel.png,../static/images/US_Cities_List/hotsprings.png,../static/images/US_Cities_List/shreveport.png,../static/images/US_Cities_List/carmel.png,../static/images/US_Cities_List/shreveport.png,../static/images/US_Cities_List/hotsprings.png,0.5,closer,,,,,,,,
null,,html-keyboard-response,4215817,,,<p></p>,,,,,null,,,,,,,,,,,,,,,,,,,,,
3501,,directmemory_phase,4219404,,,../static/images/US_Cities_List/racine.png,,,,,49,,,,0,0.26666666666666666,../static/images/US_Cities_List/westpalmbeach.png,../static/images/US_Cities_List/hanover.png,../static/images/US_Cities_List/newhope.png,../static/images/US_Cities_List/newhope.png,../static/images/US_Cities_List/hanover.png,../static/images/US_Cities_List/westpalmbeach.png,0.5,closer,,,,,,,,
null,,html-keyboard-response,4220478,,,<p></p>,,,,,null,,,,,,,,,,,,,,,,,,,,,
2947,,directmemory_phase,4223531,,,../static/images/US_Cities_List/boulder.png,,,,,50,,,,0,0.25806451612903225,../static/images/US_Cities_List/racine.png,../static/images/US_Cities_List/cornwall.png,../static/images/US_Cities_List/westpalmbeach.png,../static/images/US_Cities_List/westpalmbeach.png,../static/images/US_Cities_List/cornwall.png,../static/images/US_Cities_List/racine.png,0.5,closer,,,,,,,,
null,,html-keyboard-response,4224550,,,<p></p>,,,,,null,,,,,,,,,,,,,,,,,,,,,
4096,,directmemory_phase,4228740,,,../static/images/US_Cities_List/newhope.png,,,,,50,,,,0,0.25,../static/images/US_Cities_List/peoria.png,../static/images/US_Cities_List/boulder.png,../static/images/US_Cities_List/hanover.png,../static/images/US_Cities_List/peoria.png,../static/images/US_Cities_List/hanover.png,../static/images/US_Cities_List/boulder.png,0.5,closer,,,,,,,,
null,,html-keyboard-response,4229791,,,<p></p>,,,,,null,,,,,,,,,,,,,,,,,,,,,
215230,,intro_1,4445023,,,instruct,,,0,,,,,,,,,,,,,,,,,,,,,,,
24275,,intro_2,4469304,,,instruct,,,1,Next,,,,,,,,,,,,,,,,,,,,,,
19869,,intro_3,4489174,,,instruct,,,1,Next,,,,,,,,,,,,,,,,,,,,,,
23149,,intro_4,4512325,,,instruct,,,1,Next,,,,,,,,,,,,,,,,,,,,,,
65327,,intro_5,4577656,,,instruct,,,1,Next,,,,,,,,,,,,,,,,,,,,,,
12816,,intro_6,4590475,,,instruct,,,1,Next,,,,,,,,,,,,,,,,,,,,,,
9900,,intro_7,4600378,,,instruct,,,1,Next,,,,,,,,,,,,,,,,,,,,,,
42216,,intro_8,4642597,,,instruct,,,1,Next,,,,,,,,,,,,,,,,,,,,,,
23360,,intro_9,4665959,,,instruct,,,1,Next,,,,,,,,,,,,,,,,,,,,,,
62109,,intro_10,4728072,,,instruct,,,1,Next,,,,,,,,,,,,,,,,,,,,,,
145285,,intro_11,4873359,,,instruct,,,1,Next,,,,,,,,,,,,,,,,,,,,,,
3055,,shortestpath_phase,4876457,,,../static/images/US_Cities_List/cornwall.png,,,,,50,,../static/images/US_Cities_List/shreveport.png,../static/images/US_Cities_List/racine.png,0,0,,,,../static/images/US_Cities_List/shreveport.png,,,,,Two Edge Diff,Two Edge Four Edge,,,,,,
null,,html-keyboard-response,4877471,,,<p></p>,,,,,null,,,,,,,,,,,,,,,,,,,,,
2720,,shortestpath_phase,4880225,,,../static/images/US_Cities_List/hotsprings.png,,,,,49,,../static/images/US_Cities_List/newhope.png,../static/images/US_Cities_List/gatlinburg.png,1,0.5,,,,../static/images/US_Cities_List/newhope.png,,,,,One Edge Diff,Four Edge Five Edge,,,,,,
null,,html-keyboard-response,4881241,,,<p></p>,,,,,null,,,,,,,,,,,,,,,,,,,,,
2010,,shortestpath_phase,4883275,,,../static/images/US_Cities_List/huntsville.png,,,,,50,,../static/images/US_Cities_List/racine.png,../static/images/US_Cities_List/shreveport.png,0,0.3333333333333333,,,,../static/images/US_Cities_List/racine.png,,,,,Three Edge Diff,Three Edge Six Edge,,,,,,
null,,html-keyboard-response,4884303,,,<p></p>,,,,,null,,,,,,,,,,,,,,,,,,,,,
1885,,shortestpath_phase,4886220,,,../static/images/US_Cities_List/hotsprings.png,,,,,49,,../static/images/US_Cities_List/leesburg.png,../static/images/US_Cities_List/hanover.png,0,0.25,,,,../static/images/US_Cities_List/hanover.png,,,,,Two Edge Diff,Four Edge Six Edge,,,,,,
null,,html-keyboard-response,4887313,,,<p></p>,,,,,null,,,,,,,,,,,,,,,,,,,,,
2298,,shortestpath_phase,4889657,,,../static/images/US_Cities_List/newhope.png,,,,,49,,../static/images/US_Cities_List/hotsprings.png,../static/images/US_Cities_List/boulder.png,0,0.2,,,,../static/images/US_Cities_List/boulder.png,,,,,One Edge Diff,Three Edge Four Edge,,,,,,
null,,html-keyboard-response,4890668,,,<p></p>,,,,,null,,,,,,,,,,,,,,,,,,,,,
1768,,shortestpath_phase,4892463,,,../static/images/US_Cities_List/shreveport.png,,,,,50,,../static/images/US_Cities_List/cornwall.png,../static/images/US_Cities_List/huntsville.png,0,0.16666666666666666,,,,../static/images/US_Cities_List/cornwall.png,,,,,Three Edge Diff,Three Edge Six Edge,,,,,,
null,,html-keyboard-response,4893482,,,<p></p>,,,,,null,,,,,,,,,,,,,,,,,,,,,
2025,,shortestpath_phase,4895552,,,../static/images/US_Cities_List/hotsprings.png,,,,,49,,../static/images/US_Cities_List/gatlinburg.png,../static/images/US_Cities_List/peoria.png,0,0.14285714285714285,,,,../static/images/US_Cities_List/peoria.png,,,,,Two Edge Diff,Three Edge Five Edge,,,,,,
null,,html-keyboard-response,4896563,,,<p></p>,,,,,null,,,,,,,,,,,,,,,,,,,,,
