rt,responses,trial_type,time_elapsed,image_type,sequence,stimulus,cities,city_images,button_pressed,response,key_press,stimulus_left,stimulus_right,accuracy,cumulative_accuracy,stimulus_down_left,stimulus_down_mid,stimulus_down_right,stimulus_correct,stimulus_short,stimulus_far,weighted_accuracy,missedtrial,condition,specific_pairs,imgL_ID,imgR_ID,linedress,linedressed,detour_trial,linedressed_detor
4796.699999999255,{worker_id:60bff9298f56d55c8ecd9adf},id_enter,4804,fictional,interleaved,flights,Cedarwyn; Sunmere; Baymarsh; Orchard Bend; Claywater; Juniper Creek; Hawthorne Bluffs; Granton Ridge; Riverlyn; Delaro Park; Hollendale; New Verdan; North Arroya,US_Cities_List/huntsville.png; US_Cities_List/hotsprings.png; US_Cities_List/leesburg.png; US_Cities_List/peoria.png; US_Cities_List/boulder.png; US_Cities_List/gatlinburg.png; US_Cities_List/shreveport.png; US_Cities_List/hanover.png; US_Cities_List/westpalmbeach.png; US_Cities_List/cornwall.png; US_Cities_List/carmel.png; US_Cities_List/racine.png; US_Cities_List/newhope.png,,,,,,,,,,,,,,,,,,,,,,,
25134.800000000745,,fullscreen,29948,,,make_fullscreen,,,0,,,,,,,,,,,,,,,,,,,,,,
3463.39999999851,,intro_1,33420,,,instruct,,,0,,,,,,,,,,,,,,,,,,,,,,
17824.20000000298,,intro_2,51247,,,instruct,,,1,Next,,,,,,,,,,,,,,,,,,,,,
5845.300000000745,,intro_3,57095,,,instruct,,,1,Next,,,,,,,,,,,,,,,,,,,,,
6355.199999999255,,intro_4,63453,,,instruct,,,1,Next,,,,,,,,,,,,,,,,,,,,,
6787,,intro_5,70242,,,instruct,,,1,Next,,,,,,,,,,,,,,,,,,,,,
11438.89999999851,,intro_6,81683,,,instruct,,,1,Next,,,,,,,,,,,,,,,,,,,,,
5064.5,,intro_7,86750,,,instruct,,,1,Next,,,,,,,,,,,,,,,,,,,,,
null,,learn_prac_1,89753,,,lean_prac_1,,,,,null,,,,,,,,,,,,,,,,,,,,
null,,html-keyboard-response,90757,,,<p></p>,,,,,null,,,,,,,,,,,,,,,,,,,,
2057.199999999255,,intro_1,92817,,,instruct,,,0,,,,,,,,,,,,,,,,,,,,,,
3920.900000002235,,intro_2,96740,,,instruct,,,1,Next,,,,,,,,,,,,,,,,,,,,,
null,,learn_prac_2,99743,,,lean_prac_2,,,,,null,,,,,,,,,,,,,,,,,,,,
null,,html-keyboard-response,100746,,,<p></p>,,,,,null,,,,,,,,,,,,,,,,,,,,
1492.8999999985099,,intro_1,102241,,,instruct,,,0,,,,,,,,,,,,,,,,,,,,,,
2376.7000000029802,,intro_2,104620,,,instruct,,,1,Next,,,,,,,,,,,,,,,,,,,,,
12506.5,,intro_3,117129,,,instruct,,,1,Next,,,,,,,,,,,,,,,,,,,,,
null,,prac_atten_color_black,117751,,,black_plus_sign,,,,,null,,,,,,,,,,,,,,,,,,,,
463.9000000022352,,prac_atten_color,118533,,,prac_stop_color,,,,,49,,,,,,,,,,,,,,,,,,,,
null,,prac_atten_color_black,120537,,,black_plus_sign,,,,,null,,,,,,,,,,,,,,,,,,,,
null,,prac_atten_color_black,121163,,,black_plus_sign,,,,,null,,,,,,,,,,,,,,,,,,,,
493.8999999985099,,prac_atten_color,122262,,,prac_stop_color,,,,,50,,,,,,,,,,,,,,,,,,,,
null,,prac_atten_color_black,124265,,,black_plus_sign,,,,,null,,,,,,,,,,,,,,,,,,,,
null,,prac_atten_color_black,124571,,,black_plus_sign,,,,,null,,,,,,,,,,,,,,,,,,,,
475.8999999985099,,prac_atten_color,125112,,,prac_stop_color,,,,,50,,,,,,,,,,,,,,,,,,,,
null,,prac_atten_color_black,127115,,,black_plus_sign,,,,,null,,,,,,,,,,,,,,,,,,,,
null,,prac_atten_color_black,127982,,,black_plus_sign,,,,,null,,,,,,,,,,,,,,,,,,,,
402.5999999977648,,prac_atten_color,128409,,,prac_stop_color,,,,,49,,,,,,,,,,,,,,,,,,,,
null,,prac_atten_color_black,130412,,,black_plus_sign,,,,,null,,,,,,,,,,,,,,,,,,,,
null,,prac_atten_color_black,131393,,,black_plus_sign,,,,,null,,,,,,,,,,,,,,,,,,,,
327.0999999977648,,prac_atten_color,131970,,,prac_stop_color,,,,,50,,,,,,,,,,,,,,,,,,,,
null,,prac_atten_color_black,133973,,,black_plus_sign,,,,,null,,,,,,,,,,,,,,,,,,,,
null,,prac_atten_color_black,134802,,,black_plus_sign,,,,,null,,,,,,,,,,,,,,,,,,,,
null,,prac_atten_color,135287,,,prac_stop_color,,,,,null,,,,,,,,,,,,,,,,,,,,
5.400000002235174,,prac_atten_color_black,137290,,,black_plus_sign,,,,,50,,,,,,,,,,,,,,,,,,,,
null,,prac_atten_color_black,138213,,,black_plus_sign,,,,,null,,,,,,,,,,,,,,,,,,,,
416.5,,prac_atten_color,138977,,,prac_stop_color,,,,,49,,,,,,,,,,,,,,,,,,,,
null,,prac_atten_color_black,140981,,,black_plus_sign,,,,,null,,,,,,,,,,,,,,,,,,,,
null,,prac_atten_color_black,141624,,,black_plus_sign,,,,,null,,,,,,,,,,,,,,,,,,,,
464.19999999925494,,prac_atten_color,142530,,,prac_stop_color,,,,,50,,,,,,,,,,,,,,,,,,,,
null,,prac_atten_color_black,144533,,,black_plus_sign,,,,,null,,,,,,,,,,,,,,,,,,,,
null,,prac_atten_color_black,145033,,,black_plus_sign,,,,,null,,,,,,,,,,,,,,,,,,,,
null,,prac_atten_color,145488,,,prac_stop_color,,,,,null,,,,,,,,,,,,,,,,,,,,
97.79999999701977,,prac_atten_color_black,147491,,,black_plus_sign,,,,,49,,,,,,,,,,,,,,,,,,,,
null,,prac_atten_color_black,148443,,,black_plus_sign,,,,,null,,,,,,,,,,,,,,,,,,,,
730.1999999992549,,prac_atten_color,149297,,,prac_stop_color,,,,,49,,,,,,,,,,,,,,,,,,,,
null,,prac_atten_color_black,151300,,,black_plus_sign,,,,,null,,,,,,,,,,,,,,,,,,,,
5152.60000000149,,attentioncheck_feedback,156457,,,cross_check_feedback,,,0,,,,,,,,,,,,,,,,,,,,,,
5130.5,,last_instruct,161589,,,instruct,,,,,32,,,,,,,,,,,,,,,,,,,,
null,,learn_phase(without_color),164624,,,black_plus_sign,,,,,null,US_Cities_List/leesburg.png,US_Cities_List/gatlinburg.png,,,,,,,,,,,,,,,,,,
null,,black_cross(without_color),165407,,,yellow,,,,,null,US_Cities_List/leesburg.png,US_Cities_List/gatlinburg.png,,,,,,,,,,,,,,,,,,
null,,rt_plussign_withcolor,165909,,,yellow,,,,,null,US_Cities_List/leesburg.png,US_Cities_List/gatlinburg.png,,,,,,,,,,,,,,,,,,
1029.699999999255,,rt_thecrossant_black,167133,,,black_plus_sign,,,,,50,,,1,1,,,,,,,,,,,,,,,,
null,,color_black,167237,,,black_plus_sign,,,,,null,,,,,,,,,,,,,,,,,,,,
null,,learn_phase(without_color),170265,,,black_plus_sign,,,,,null,US_Cities_List/huntsville.png,US_Cities_List/hotsprings.png,,,,,,,,,,,,,,,,,,
null,,black_cross(without_color),171033,,,yellow,,,,,null,US_Cities_List/huntsville.png,US_Cities_List/hotsprings.png,,,,,,,,,,,,,,,,,,
null,,rt_plussign_withcolor,171535,,,yellow,,,,,null,US_Cities_List/huntsville.png,US_Cities_List/hotsprings.png,,,,,,,,,,,,,,,,,,
1179.800000000745,,rt_thecrossant_black,172773,,,black_plus_sign,,,,,50,,,1,1,,,,,,,,,,,,,,,,
null,,color_black,172877,,,black_plus_sign,,,,,null,,,,,,,,,,,,,,,,,,,,
null,,learn_phase(without_color),175913,,,black_plus_sign,,,,,null,US_Cities_List/boulder.png,US_Cities_List/peoria.png,,,,,,,,,,,,,,,,,,
null,,black_cross(without_color),176570,,,blue,,,,,null,US_Cities_List/boulder.png,US_Cities_List/peoria.png,,,,,,,,,,,,,,,,,,
null,,rt_plussign_withcolor,177072,,,blue,,,,,null,US_Cities_List/boulder.png,US_Cities_List/peoria.png,,,,,,,,,,,,,,,,,,
925.8000000007451,,rt_thecrossant_black,178422,,,black_plus_sign,,,,,49,,,1,1,,,,,,,,,,,,,,,,
null,,color_black,178526,,,black_plus_sign,,,,,null,,,,,,,,,,,,,,,,,,,,
null,,learn_phase(without_color),181562,,,black_plus_sign,,,,,null,US_Cities_List/hanover.png,US_Cities_List/westpalmbeach.png,,,,,,,,,,,,,,,,,,
null,,black_cross(without_color),182407,,,yellow,,,,,null,US_Cities_List/hanover.png,US_Cities_List/westpalmbeach.png,,,,,,,,,,,,,,,,,,
null,,rt_plussign_withcolor,182909,,,yellow,,,,,null,US_Cities_List/hanover.png,US_Cities_List/westpalmbeach.png,,,,,,,,,,,,,,,,,,
1009,,rt_thecrossant_black,184070,,,black_plus_sign,,,,,49,,,0,0.75,,,,,,,,,,,,,,,,
null,,color_black,184174,,,black_plus_sign,,,,,null,,,,,,,,,,,,,,,,,,,,
null,,learn_phase(without_color),187201,,,black_plus_sign,,,,,null,US_Cities_List/peoria.png,US_Cities_List/boulder.png,,,,,,,,,,,,,,,,,,
null,,black_cross(without_color),188278,,,yellow,,,,,null,US_Cities_List/peoria.png,US_Cities_List/boulder.png,,,,,,,,,,,,,,,,,,
460.80000000074506,,rt_plussign_withcolor,188780,,,yellow,,,,,50,US_Cities_List/peoria.png,US_Cities_List/boulder.png,,,,,,,,,,,,,,,,,,
null,,rt_thecrossant_black,189709,,,black_plus_sign,,,,,null,,,1,0.8,,,,,,,,,,,,,,,,
null,,color_black,189813,,,black_plus_sign,,,,,null,,,,,,,,,,,,,,,,,,,,
null,,learn_phase(without_color),192830,,,black_plus_sign,,,,,null,US_Cities_List/westpalmbeach.png,US_Cities_List/hanover.png,,,,,,,,,,,,,,,,,,
null,,black_cross(without_color),193908,,,blue,,,,,null,US_Cities_List/westpalmbeach.png,US_Cities_List/hanover.png,,,,,,,,,,,,,,,,,,
501.30000000074506,,rt_plussign_withcolor,194413,,,blue,,,,,49,US_Cities_List/westpalmbeach.png,US_Cities_List/hanover.png,,,,,,,,,,,,,,,,,,
null,,rt_thecrossant_black,195342,,,black_plus_sign,,,,,null,,,1,0.8333333333333334,,,,,,,,,,,,,,,,
null,,color_black,195445,,,black_plus_sign,,,,,null,,,,,,,,,,,,,,,,,,,,
null,,learn_phase(without_color),198483,,,black_plus_sign,,,,,null,US_Cities_List/racine.png,US_Cities_List/peoria.png,,,,,,,,,,,,,,,,,,
null,,black_cross(without_color),199455,,,yellow,,,,,null,US_Cities_List/racine.png,US_Cities_List/peoria.png,,,,,,,,,,,,,,,,,,
486.70000000298023,,rt_plussign_withcolor,199957,,,yellow,,,,,50,US_Cities_List/racine.png,US_Cities_List/peoria.png,,,,,,,,,,,,,,,,,,
null,,rt_thecrossant_black,200992,,,black_plus_sign,,,,,null,,,1,0.8571428571428571,,,,,,,,,,,,,,,,
null,,color_black,201095,,,black_plus_sign,,,,,null,,,,,,,,,,,,,,,,,,,,
null,,learn_phase(without_color),204122,,,black_plus_sign,,,,,null,US_Cities_List/hotsprings.png,US_Cities_List/leesburg.png,,,,,,,,,,,,,,,,,,
null,,black_cross(without_color),204840,,,yellow,,,,,null,US_Cities_List/hotsprings.png,US_Cities_List/leesburg.png,,,,,,,,,,,,,,,,,,
null,,rt_plussign_withcolor,205342,,,yellow,,,,,null,US_Cities_List/hotsprings.png,US_Cities_List/leesburg.png,,,,,,,,,,,,,,,,,,
1137.5999999977648,,rt_thecrossant_black,206632,,,black_plus_sign,,,,,50,,,1,0.875,,,,,,,,,,,,,,,,
null,,color_black,206735,,,black_plus_sign,,,,,null,,,,,,,,,,,,,,,,,,,,
null,,learn_phase(without_color),209769,,,black_plus_sign,,,,,null,US_Cities_List/carmel.png,US_Cities_List/westpalmbeach.png,,,,,,,,,,,,,,,,,,
null,,black_cross(without_color),210686,,,blue,,,,,null,US_Cities_List/carmel.png,US_Cities_List/westpalmbeach.png,,,,,,,,,,,,,,,,,,
401.20000000298023,,rt_plussign_withcolor,211188,,,blue,,,,,49,US_Cities_List/carmel.png,US_Cities_List/westpalmbeach.png,,,,,,,,,,,,,,,,,,
null,,rt_thecrossant_black,212278,,,black_plus_sign,,,,,null,,,1,0.8888888888888888,,,,,,,,,,,,,,,,
null,,color_black,212381,,,black_plus_sign,,,,,null,,,,,,,,,,,,,,,,,,,,
null,,learn_phase(without_color),215391,,,black_plus_sign,,,,,null,US_Cities_List/peoria.png,US_Cities_List/boulder.png,,,,,,,,,,,,,,,,,,
null,,black_cross(without_color),216444,,,yellow,,,,,null,US_Cities_List/peoria.png,US_Cities_List/boulder.png,,,,,,,,,,,,,,,,,,
416.6000000014901,,rt_plussign_withcolor,216947,,,yellow,,,,,50,US_Cities_List/peoria.png,US_Cities_List/boulder.png,,,,,,,,,,,,,,,,,,
null,,rt_thecrossant_black,217899,,,black_plus_sign,,,,,null,,,1,0.9,,,,,,,,,,,,,,,,
null,,color_black,218002,,,black_plus_sign,,,,,null,,,,,,,,,,,,,,,,,,,,
null,,learn_phase(without_color),221019,,,black_plus_sign,,,,,null,US_Cities_List/hanover.png,US_Cities_List/shreveport.png,,,,,,,,,,,,,,,,,,
null,,black_cross(without_color),221695,,,yellow,,,,,null,US_Cities_List/hanover.png,US_Cities_List/shreveport.png,,,,,,,,,,,,,,,,,,
null,,rt_plussign_withcolor,222197,,,yellow,,,,,null,US_Cities_List/hanover.png,US_Cities_List/shreveport.png,,,,,,,,,,,,,,,,,,
1261.199999999255,,rt_thecrossant_black,223526,,,black_plus_sign,,,,,50,,,1,0.9090909090909091,,,,,,,,,,,,,,,,
null,,color_black,223630,,,black_plus_sign,,,,,null,,,,,,,,,,,,,,,,,,,,
null,,learn_phase(without_color),226650,,,black_plus_sign,,,,,null,US_Cities_List/hotsprings.png,US_Cities_List/huntsville.png,,,,,,,,,,,,,,,,,,
null,,black_cross(without_color),227455,,,blue,,,,,null,US_Cities_List/hotsprings.png,US_Cities_List/huntsville.png,,,,,,,,,,,,,,,,,,
409.5,,rt_plussign_withcolor,227957,,,blue,,,,,49,US_Cities_List/hotsprings.png,US_Cities_List/huntsville.png,,,,,,,,,,,,,,,,,,
null,,rt_thecrossant_black,229159,,,black_plus_sign,,,,,null,,,1,0.9166666666666666,,,,,,,,,,,,,,,,
null,,color_black,229261,,,black_plus_sign,,,,,null,,,,,,,,,,,,,,,,,,,,
null,,learn_phase(without_color),232290,,,black_plus_sign,,,,,null,US_Cities_List/leesburg.png,US_Cities_List/gatlinburg.png,,,,,,,,,,,,,,,,,,
null,,black_cross(without_color),233107,,,blue,,,,,null,US_Cities_List/leesburg.png,US_Cities_List/gatlinburg.png,,,,,,,,,,,,,,,,,,
362.69999999925494,,rt_plussign_withcolor,233609,,,blue,,,,,49,US_Cities_List/leesburg.png,US_Cities_List/gatlinburg.png,,,,,,,,,,,,,,,,,,
null,,rt_thecrossant_black,234798,,,black_plus_sign,,,,,null,,,1,0.9230769230769231,,,,,,,,,,,,,,,,
null,,color_black,234901,,,black_plus_sign,,,,,null,,,,,,,,,,,,,,,,,,,,
null,,learn_phase(without_color),237929,,,black_plus_sign,,,,,null,US_Cities_List/leesburg.png,US_Cities_List/hotsprings.png,,,,,,,,,,,,,,,,,,
null,,black_cross(without_color),238678,,,yellow,,,,,null,US_Cities_List/leesburg.png,US_Cities_List/hotsprings.png,,,,,,,,,,,,,,,,,,
null,,rt_plussign_withcolor,239181,,,yellow,,,,,null,US_Cities_List/leesburg.png,US_Cities_List/hotsprings.png,,,,,,,,,,,,,,,,,,
1172,,rt_thecrossant_black,240438,,,black_plus_sign,,,,,50,,,1,0.9285714285714286,,,,,,,,,,,,,,,,
null,,color_black,240541,,,black_plus_sign,,,,,null,,,,,,,,,,,,,,,,,,,,
null,,learn_phase(without_color),243563,,,black_plus_sign,,,,,null,US_Cities_List/shreveport.png,US_Cities_List/hanover.png,,,,,,,,,,,,,,,,,,
null,,black_cross(without_color),244005,,,yellow,,,,,null,US_Cities_List/shreveport.png,US_Cities_List/hanover.png,,,,,,,,,,,,,,,,,,
427.80000000074506,,rt_plussign_withcolor,244507,,,yellow,,,,,50,US_Cities_List/shreveport.png,US_Cities_List/hanover.png,,,,,,,,,,,,,,,,,,
null,,rt_thecrossant_black,246073,,,black_plus_sign,,,,,null,,,1,0.9333333333333333,,,,,,,,,,,,,,,,
null,,color_black,246177,,,black_plus_sign,,,,,null,,,,,,,,,,,,,,,,,,,,
null,,learn_phase(without_color),249204,,,black_plus_sign,,,,,null,US_Cities_List/shreveport.png,US_Cities_List/gatlinburg.png,,,,,,,,,,,,,,,,,,
null,,black_cross(without_color),249716,,,yellow,,,,,null,US_Cities_List/shreveport.png,US_Cities_List/gatlinburg.png,,,,,,,,,,,,,,,,,,
null,,rt_plussign_withcolor,250219,,,yellow,,,,,null,US_Cities_List/shreveport.png,US_Cities_List/gatlinburg.png,,,,,,,,,,,,,,,,,,
554.3999999985099,,rt_thecrossant_black,251714,,,black_plus_sign,,,,,50,,,1,0.9375,,,,,,,,,,,,,,,,
null,,color_black,251818,,,black_plus_sign,,,,,null,,,,,,,,,,,,,,,,,,,,
null,,learn_phase(without_color),254849,,,black_plus_sign,,,,,null,US_Cities_List/racine.png,US_Cities_List/carmel.png,,,,,,,,,,,,,,,,,,
null,,black_cross(without_color),255469,,,blue,,,,,null,US_Cities_List/racine.png,US_Cities_List/carmel.png,,,,,,,,,,,,,,,,,,
null,,rt_plussign_withcolor,255970,,,blue,,,,,null,US_Cities_List/racine.png,US_Cities_List/carmel.png,,,,,,,,,,,,,,,,,,
918.3000000007451,,rt_thecrossant_black,257357,,,black_plus_sign,,,,,49,,,1,0.9411764705882353,,,,,,,,,,,,,,,,
null,,color_black,257461,,,black_plus_sign,,,,,null,,,,,,,,,,,,,,,,,,,,
null,,learn_phase(without_color),260478,,,black_plus_sign,,,,,null,US_Cities_List/gatlinburg.png,US_Cities_List/leesburg.png,,,,,,,,,,,,,,,,,,
null,,black_cross(without_color),261110,,,blue,,,,,null,US_Cities_List/gatlinburg.png,US_Cities_List/leesburg.png,,,,,,,,,,,,,,,,,,
null,,rt_plussign_withcolor,261613,,,blue,,,,,null,US_Cities_List/gatlinburg.png,US_Cities_List/leesburg.png,,,,,,,,,,,,,,,,,,
1013.8000000007451,,rt_thecrossant_black,262987,,,black_plus_sign,,,,,49,,,1,0.9444444444444444,,,,,,,,,,,,,,,,
null,,color_black,263090,,,black_plus_sign,,,,,null,,,,,,,,,,,,,,,,,,,,
null,,learn_phase(without_color),266122,,,black_plus_sign,,,,,null,US_Cities_List/racine.png,US_Cities_List/peoria.png,,,,,,,,,,,,,,,,,,
null,,black_cross(without_color),267035,,,blue,,,,,null,US_Cities_List/racine.png,US_Cities_List/peoria.png,,,,,,,,,,,,,,,,,,
null,,rt_plussign_withcolor,267537,,,blue,,,,,null,US_Cities_List/racine.png,US_Cities_List/peoria.png,,,,,,,,,,,,,,,,,,
753.0999999977648,,rt_thecrossant_black,268630,,,black_plus_sign,,,,,49,,,1,0.9473684210526315,,,,,,,,,,,,,,,,
null,,color_black,268734,,,black_plus_sign,,,,,null,,,,,,,,,,,,,,,,,,,,
null,,learn_phase(without_color),271768,,,black_plus_sign,,,,,null,US_Cities_List/shreveport.png,US_Cities_List/newhope.png,,,,,,,,,,,,,,,,,,
null,,black_cross(without_color),272719,,,blue,,,,,null,US_Cities_List/shreveport.png,US_Cities_List/newhope.png,,,,,,,,,,,,,,,,,,
null,,rt_plussign_withcolor,273221,,,blue,,,,,null,US_Cities_List/shreveport.png,US_Cities_List/newhope.png,,,,,,,,,,,,,,,,,,
1275.800000000745,,rt_thecrossant_black,274275,,,black_plus_sign,,,,,49,,,1,0.95,,,,,,,,,,,,,,,,
null,,color_black,274379,,,black_plus_sign,,,,,null,,,,,,,,,,,,,,,,,,,,
null,,learn_phase(without_color),277389,,,black_plus_sign,,,,,null,US_Cities_List/carmel.png,US_Cities_List/westpalmbeach.png,,,,,,,,,,,,,,,,,,
null,,black_cross(without_color),277911,,,yellow,,,,,null,US_Cities_List/carmel.png,US_Cities_List/westpalmbeach.png,,,,,,,,,,,,,,,,,,
432.79999999701977,,rt_plussign_withcolor,278414,,,yellow,,,,,50,US_Cities_List/carmel.png,US_Cities_List/westpalmbeach.png,,,,,,,,,,,,,,,,,,
null,,rt_thecrossant_black,279899,,,black_plus_sign,,,,,null,,,1,0.9523809523809523,,,,,,,,,,,,,,,,
null,,color_black,280003,,,black_plus_sign,,,,,null,,,,,,,,,,,,,,,,,,,,
null,,learn_phase(without_color),283019,,,black_plus_sign,,,,,null,US_Cities_List/hotsprings.png,US_Cities_List/leesburg.png,,,,,,,,,,,,,,,,,,
null,,black_cross(without_color),283482,,,blue,,,,,null,US_Cities_List/hotsprings.png,US_Cities_List/leesburg.png,,,,,,,,,,,,,,,,,,
null,,rt_plussign_withcolor,283985,,,blue,,,,,null,US_Cities_List/hotsprings.png,US_Cities_List/leesburg.png,,,,,,,,,,,,,,,,,,
747.8000000007451,,rt_thecrossant_black,285528,,,black_plus_sign,,,,,49,,,1,0.9545454545454546,,,,,,,,,,,,,,,,
null,,color_black,285631,,,black_plus_sign,,,,,null,,,,,,,,,,,,,,,,,,,,
null,,learn_phase(without_color),288662,,,black_plus_sign,,,,,null,US_Cities_List/racine.png,US_Cities_List/carmel.png,,,,,,,,,,,,,,,,,,
null,,black_cross(without_color),289332,,,blue,,,,,null,US_Cities_List/racine.png,US_Cities_List/carmel.png,,,,,,,,,,,,,,,,,,
468,,rt_plussign_withcolor,289834,,,blue,,,,,49,US_Cities_List/racine.png,US_Cities_List/carmel.png,,,,,,,,,,,,,,,,,,
null,,rt_thecrossant_black,291171,,,black_plus_sign,,,,,null,,,1,0.9565217391304348,,,,,,,,,,,,,,,,
null,,color_black,291275,,,black_plus_sign,,,,,null,,,,,,,,,,,,,,,,,,,,
null,,learn_phase(without_color),294304,,,black_plus_sign,,,,,null,US_Cities_List/leesburg.png,US_Cities_List/carmel.png,,,,,,,,,,,,,,,,,,
null,,black_cross(without_color),295115,,,yellow,,,,,null,US_Cities_List/leesburg.png,US_Cities_List/carmel.png,,,,,,,,,,,,,,,,,,
null,,rt_plussign_withcolor,295617,,,yellow,,,,,null,US_Cities_List/leesburg.png,US_Cities_List/carmel.png,,,,,,,,,,,,,,,,,,
994.1999999992549,,rt_thecrossant_black,296813,,,black_plus_sign,,,,,50,,,1,0.9583333333333334,,,,,,,,,,,,,,,,
null,,color_black,296916,,,black_plus_sign,,,,,null,,,,,,,,,,,,,,,,,,,,
null,,learn_phase(without_color),299937,,,black_plus_sign,,,,,null,US_Cities_List/hotsprings.png,US_Cities_List/peoria.png,,,,,,,,,,,,,,,,,,
null,,black_cross(without_color),300688,,,yellow,,,,,null,US_Cities_List/hotsprings.png,US_Cities_List/peoria.png,,,,,,,,,,,,,,,,,,
null,,rt_plussign_withcolor,301191,,,yellow,,,,,null,US_Cities_List/hotsprings.png,US_Cities_List/peoria.png,,,,,,,,,,,,,,,,,,
990.8999999985099,,rt_thecrossant_black,302446,,,black_plus_sign,,,,,50,,,1,0.96,,,,,,,,,,,,,,,,
null,,color_black,302549,,,black_plus_sign,,,,,null,,,,,,,,,,,,,,,,,,,,
null,,learn_phase(without_color),305565,,,black_plus_sign,,,,,null,US_Cities_List/westpalmbeach.png,US_Cities_List/shreveport.png,,,,,,,,,,,,,,,,,,
null,,black_cross(without_color),306199,,,blue,,,,,null,US_Cities_List/westpalmbeach.png,US_Cities_List/shreveport.png,,,,,,,,,,,,,,,,,,
null,,rt_plussign_withcolor,306701,,,blue,,,,,null,US_Cities_List/westpalmbeach.png,US_Cities_List/shreveport.png,,,,,,,,,,,,,,,,,,
1125.699999999255,,rt_thecrossant_black,308074,,,black_plus_sign,,,,,49,,,1,0.9615384615384616,,,,,,,,,,,,,,,,
null,,color_black,308177,,,black_plus_sign,,,,,null,,,,,,,,,,,,,,,,,,,,
null,,learn_phase(without_color),311201,,,black_plus_sign,,,,,null,US_Cities_List/cornwall.png,US_Cities_List/hanover.png,,,,,,,,,,,,,,,,,,
null,,black_cross(without_color),311919,,,yellow,,,,,null,US_Cities_List/cornwall.png,US_Cities_List/hanover.png,,,,,,,,,,,,,,,,,,
null,,rt_plussign_withcolor,312421,,,yellow,,,,,null,US_Cities_List/cornwall.png,US_Cities_List/hanover.png,,,,,,,,,,,,,,,,,,
1390.199999999255,,rt_thecrossant_black,313710,,,black_plus_sign,,,,,50,,,1,0.9629629629629629,,,,,,,,,,,,,,,,
null,,color_black,313812,,,black_plus_sign,,,,,null,,,,,,,,,,,,,,,,,,,,
null,,learn_phase(without_color),316846,,,black_plus_sign,,,,,null,US_Cities_List/hanover.png,US_Cities_List/cornwall.png,,,,,,,,,,,,,,,,,,
null,,black_cross(without_color),317501,,,blue,,,,,null,US_Cities_List/hanover.png,US_Cities_List/cornwall.png,,,,,,,,,,,,,,,,,,
490.29999999701977,,rt_plussign_withcolor,318004,,,blue,,,,,49,US_Cities_List/hanover.png,US_Cities_List/cornwall.png,,,,,,,,,,,,,,,,,,
null,,rt_thecrossant_black,319355,,,black_plus_sign,,,,,null,,,1,0.9642857142857143,,,,,,,,,,,,,,,,
null,,color_black,319458,,,black_plus_sign,,,,,null,,,,,,,,,,,,,,,,,,,,
null,,learn_phase(without_color),322489,,,black_plus_sign,,,,,null,US_Cities_List/racine.png,US_Cities_List/peoria.png,,,,,,,,,,,,,,,,,,
null,,black_cross(without_color),323423,,,blue,,,,,null,US_Cities_List/racine.png,US_Cities_List/peoria.png,,,,,,,,,,,,,,,,,,
null,,rt_plussign_withcolor,323926,,,blue,,,,,null,US_Cities_List/racine.png,US_Cities_List/peoria.png,,,,,,,,,,,,,,,,,,
853.4000000022352,,rt_thecrossant_black,324998,,,black_plus_sign,,,,,49,,,1,0.9655172413793104,,,,,,,,,,,,,,,,
null,,color_black,325101,,,black_plus_sign,,,,,null,,,,,,,,,,,,,,,,,,,,
null,,learn_phase(without_color),328128,,,black_plus_sign,,,,,null,US_Cities_List/westpalmbeach.png,US_Cities_List/hanover.png,,,,,,,,,,,,,,,,,,
null,,black_cross(without_color),329003,,,blue,,,,,null,US_Cities_List/westpalmbeach.png,US_Cities_List/hanover.png,,,,,,,,,,,,,,,,,,
null,,rt_plussign_withcolor,329506,,,blue,,,,,null,US_Cities_List/westpalmbeach.png,US_Cities_List/hanover.png,,,,,,,,,,,,,,,,,,
1149.8999999985099,,rt_thecrossant_black,330637,,,black_plus_sign,,,,,49,,,1,0.9666666666666667,,,,,,,,,,,,,,,,
null,,color_black,330741,,,black_plus_sign,,,,,null,,,,,,,,,,,,,,,,,,,,
null,,learn_phase(without_color),333767,,,black_plus_sign,,,,,null,US_Cities_List/peoria.png,US_Cities_List/hotsprings.png,,,,,,,,,,,,,,,,,,
null,,black_cross(without_color),334736,,,yellow,,,,,null,US_Cities_List/peoria.png,US_Cities_List/hotsprings.png,,,,,,,,,,,,,,,,,,
482.5,,rt_plussign_withcolor,335239,,,yellow,,,,,50,US_Cities_List/peoria.png,US_Cities_List/hotsprings.png,,,,,,,,,,,,,,,,,,
null,,rt_thecrossant_black,336275,,,black_plus_sign,,,,,null,,,1,0.967741935483871,,,,,,,,,,,,,,,,
null,,color_black,336378,,,black_plus_sign,,,,,null,,,,,,,,,,,,,,,,,,,,
null,,learn_phase(without_color),339406,,,black_plus_sign,,,,,null,US_Cities_List/carmel.png,US_Cities_List/westpalmbeach.png,,,,,,,,,,,,,,,,,,
null,,black_cross(without_color),340275,,,yellow,,,,,null,US_Cities_List/carmel.png,US_Cities_List/westpalmbeach.png,,,,,,,,,,,,,,,,,,
null,,rt_plussign_withcolor,340777,,,yellow,,,,,null,US_Cities_List/carmel.png,US_Cities_List/westpalmbeach.png,,,,,,,,,,,,,,,,,,
1212,,rt_thecrossant_black,341915,,,black_plus_sign,,,,,50,,,1,0.96875,,,,,,,,,,,,,,,,
null,,color_black,342019,,,black_plus_sign,,,,,null,,,,,,,,,,,,,,,,,,,,
null,,learn_phase(without_color),345046,,,black_plus_sign,,,,,null,US_Cities_List/westpalmbeach.png,US_Cities_List/shreveport.png,,,,,,,,,,,,,,,,,,
null,,black_cross(without_color),345649,,,blue,,,,,null,US_Cities_List/westpalmbeach.png,US_Cities_List/shreveport.png,,,,,,,,,,,,,,,,,,
null,,rt_plussign_withcolor,346151,,,blue,,,,,null,US_Cities_List/westpalmbeach.png,US_Cities_List/shreveport.png,,,,,,,,,,,,,,,,,,
1231.0999999977648,,rt_thecrossant_black,347552,,,black_plus_sign,,,,,49,,,1,0.9696969696969697,,,,,,,,,,,,,,,,
null,,color_black,347656,,,black_plus_sign,,,,,null,,,,,,,,,,,,,,,,,,,,
null,,learn_phase(without_color),350683,,,black_plus_sign,,,,,null,US_Cities_List/westpalmbeach.png,US_Cities_List/hanover.png,,,,,,,,,,,,,,,,,,
null,,black_cross(without_color),351469,,,blue,,,,,null,US_Cities_List/westpalmbeach.png,US_Cities_List/hanover.png,,,,,,,,,,,,,,,,,,
316.30000000074506,,rt_plussign_withcolor,351972,,,blue,,,,,49,US_Cities_List/westpalmbeach.png,US_Cities_List/hanover.png,,,,,,,,,,,,,,,,,,
null,,rt_thecrossant_black,353193,,,black_plus_sign,,,,,null,,,1,0.9705882352941176,,,,,,,,,,,,,,,,
null,,color_black,353297,,,black_plus_sign,,,,,null,,,,,,,,,,,,,,,,,,,,
null,,learn_phase(without_color),356323,,,black_plus_sign,,,,,null,US_Cities_List/boulder.png,US_Cities_List/peoria.png,,,,,,,,,,,,,,,,,,
null,,black_cross(without_color),356829,,,blue,,,,,null,US_Cities_List/boulder.png,US_Cities_List/peoria.png,,,,,,,,,,,,,,,,,,
null,,rt_plussign_withcolor,357331,,,blue,,,,,null,US_Cities_List/boulder.png,US_Cities_List/peoria.png,,,,,,,,,,,,,,,,,,
1107.300000000745,,rt_thecrossant_black,358833,,,black_plus_sign,,,,,49,,,1,0.9714285714285714,,,,,,,,,,,,,,,,
null,,color_black,358937,,,black_plus_sign,,,,,null,,,,,,,,,,,,,,,,,,,,
null,,learn_phase(without_color),361965,,,black_plus_sign,,,,,null,US_Cities_List/peoria.png,US_Cities_List/boulder.png,,,,,,,,,,,,,,,,,,
null,,black_cross(without_color),362740,,,yellow,,,,,null,US_Cities_List/peoria.png,US_Cities_List/boulder.png,,,,,,,,,,,,,,,,,,
null,,rt_plussign_withcolor,363243,,,yellow,,,,,null,US_Cities_List/peoria.png,US_Cities_List/boulder.png,,,,,,,,,,,,,,,,,,
851.2000000029802,,rt_thecrossant_black,364475,,,black_plus_sign,,,,,50,,,1,0.9722222222222222,,,,,,,,,,,,,,,,
null,,color_black,364579,,,black_plus_sign,,,,,null,,,,,,,,,,,,,,,,,,,,
null,,learn_phase(without_color),367606,,,black_plus_sign,,,,,null,US_Cities_List/westpalmbeach.png,US_Cities_List/shreveport.png,,,,,,,,,,,,,,,,,,
null,,black_cross(without_color),368228,,,blue,,,,,null,US_Cities_List/westpalmbeach.png,US_Cities_List/shreveport.png,,,,,,,,,,,,,,,,,,
null,,rt_plussign_withcolor,368731,,,blue,,,,,null,US_Cities_List/westpalmbeach.png,US_Cities_List/shreveport.png,,,,,,,,,,,,,,,,,,
1205.699999999255,,rt_thecrossant_black,370116,,,black_plus_sign,,,,,49,,,1,0.972972972972973,,,,,,,,,,,,,,,,
null,,color_black,370219,,,black_plus_sign,,,,,null,,,,,,,,,,,,,,,,,,,,
null,,learn_phase(without_color),373248,,,black_plus_sign,,,,,null,US_Cities_List/leesburg.png,US_Cities_List/carmel.png,,,,,,,,,,,,,,,,,,
null,,black_cross(without_color),373849,,,yellow,,,,,null,US_Cities_List/leesburg.png,US_Cities_List/carmel.png,,,,,,,,,,,,,,,,,,
null,,rt_plussign_withcolor,374351,,,yellow,,,,,null,US_Cities_List/leesburg.png,US_Cities_List/carmel.png,,,,,,,,,,,,,,,,,,
947.6999999992549,,rt_thecrossant_black,375758,,,black_plus_sign,,,,,50,,,1,0.9736842105263158,,,,,,,,,,,,,,,,
null,,color_black,375862,,,black_plus_sign,,,,,null,,,,,,,,,,,,,,,,,,,,
null,,learn_phase(without_color),378897,,,black_plus_sign,,,,,null,US_Cities_List/hanover.png,US_Cities_List/cornwall.png,,,,,,,,,,,,,,,,,,
null,,black_cross(without_color),379736,,,yellow,,,,,null,US_Cities_List/hanover.png,US_Cities_List/cornwall.png,,,,,,,,,,,,,,,,,,
null,,rt_plussign_withcolor,380239,,,yellow,,,,,null,US_Cities_List/hanover.png,US_Cities_List/cornwall.png,,,,,,,,,,,,,,,,,,
870.1999999992549,,rt_thecrossant_black,381408,,,black_plus_sign,,,,,50,,,1,0.9743589743589743,,,,,,,,,,,,,,,,
null,,color_black,381511,,,black_plus_sign,,,,,null,,,,,,,,,,,,,,,,,,,,
null,,learn_phase(without_color),384539,,,black_plus_sign,,,,,null,US_Cities_List/racine.png,US_Cities_List/carmel.png,,,,,,,,,,,,,,,,,,
null,,black_cross(without_color),385034,,,blue,,,,,null,US_Cities_List/racine.png,US_Cities_List/carmel.png,,,,,,,,,,,,,,,,,,
427.19999999925494,,rt_plussign_withcolor,385537,,,blue,,,,,49,US_Cities_List/racine.png,US_Cities_List/carmel.png,,,,,,,,,,,,,,,,,,
null,,rt_thecrossant_black,387049,,,black_plus_sign,,,,,null,,,1,0.975,,,,,,,,,,,,,,,,
null,,color_black,387152,,,black_plus_sign,,,,,null,,,,,,,,,,,,,,,,,,,,
null,,learn_phase(without_color),390181,,,black_plus_sign,,,,,null,US_Cities_List/gatlinburg.png,US_Cities_List/leesburg.png,,,,,,,,,,,,,,,,,,
null,,black_cross(without_color),391027,,,yellow,,,,,null,US_Cities_List/gatlinburg.png,US_Cities_List/leesburg.png,,,,,,,,,,,,,,,,,,
null,,rt_plussign_withcolor,391530,,,yellow,,,,,null,US_Cities_List/gatlinburg.png,US_Cities_List/leesburg.png,,,,,,,,,,,,,,,,,,
874.0999999977648,,rt_thecrossant_black,392691,,,black_plus_sign,,,,,50,,,1,0.975609756097561,,,,,,,,,,,,,,,,
null,,color_black,392794,,,black_plus_sign,,,,,null,,,,,,,,,,,,,,,,,,,,
null,,learn_phase(without_color),395825,,,black_plus_sign,,,,,null,US_Cities_List/racine.png,US_Cities_List/carmel.png,,,,,,,,,,,,,,,,,,
null,,black_cross(without_color),396688,,,yellow,,,,,null,US_Cities_List/racine.png,US_Cities_List/carmel.png,,,,,,,,,,,,,,,,,,
null,,rt_plussign_withcolor,397191,,,yellow,,,,,null,US_Cities_List/racine.png,US_Cities_List/carmel.png,,,,,,,,,,,,,,,,,,
1077.1000000014901,,rt_thecrossant_black,398335,,,black_plus_sign,,,,,50,,,1,0.9761904761904762,,,,,,,,,,,,,,,,
null,,color_black,398438,,,black_plus_sign,,,,,null,,,,,,,,,,,,,,,,,,,,
null,,learn_phase(without_color),401466,,,black_plus_sign,,,,,null,US_Cities_List/newhope.png,US_Cities_List/shreveport.png,,,,,,,,,,,,,,,,,,
null,,black_cross(without_color),402109,,,blue,,,,,null,US_Cities_List/newhope.png,US_Cities_List/shreveport.png,,,,,,,,,,,,,,,,,,
null,,rt_plussign_withcolor,402612,,,blue,,,,,null,US_Cities_List/newhope.png,US_Cities_List/shreveport.png,,,,,,,,,,,,,,,,,,
1298.800000000745,,rt_thecrossant_black,403976,,,black_plus_sign,,,,,49,,,1,0.9767441860465116,,,,,,,,,,,,,,,,
null,,color_black,404079,,,black_plus_sign,,,,,null,,,,,,,,,,,,,,,,,,,,
null,,learn_phase(without_color),407101,,,black_plus_sign,,,,,null,US_Cities_List/hanover.png,US_Cities_List/cornwall.png,,,,,,,,,,,,,,,,,,
null,,black_cross(without_color),407967,,,blue,,,,,null,US_Cities_List/hanover.png,US_Cities_List/cornwall.png,,,,,,,,,,,,,,,,,,
457.8999999985099,,rt_plussign_withcolor,408469,,,blue,,,,,49,US_Cities_List/hanover.png,US_Cities_List/cornwall.png,,,,,,,,,,,,,,,,,,
null,,rt_thecrossant_black,409609,,,black_plus_sign,,,,,null,,,1,0.9772727272727273,,,,,,,,,,,,,,,,
null,,color_black,409712,,,black_plus_sign,,,,,null,,,,,,,,,,,,,,,,,,,,
null,,learn_phase(without_color),412742,,,black_plus_sign,,,,,null,US_Cities_List/gatlinburg.png,US_Cities_List/westpalmbeach.png,,,,,,,,,,,,,,,,,,
null,,black_cross(without_color),413209,,,yellow,,,,,null,US_Cities_List/gatlinburg.png,US_Cities_List/westpalmbeach.png,,,,,,,,,,,,,,,,,,
415.3999999985099,,rt_plussign_withcolor,413712,,,yellow,,,,,50,US_Cities_List/gatlinburg.png,US_Cities_List/westpalmbeach.png,,,,,,,,,,,,,,,,,,
null,,rt_thecrossant_black,415251,,,black_plus_sign,,,,,null,,,1,0.9777777777777777,,,,,,,,,,,,,,,,
null,,color_black,415355,,,black_plus_sign,,,,,null,,,,,,,,,,,,,,,,,,,,
null,,learn_phase(without_color),418365,,,black_plus_sign,,,,,null,US_Cities_List/boulder.png,US_Cities_List/peoria.png,,,,,,,,,,,,,,,,,,
null,,black_cross(without_color),419302,,,blue,,,,,null,US_Cities_List/boulder.png,US_Cities_List/peoria.png,,,,,,,,,,,,,,,,,,
null,,rt_plussign_withcolor,419804,,,blue,,,,,null,US_Cities_List/boulder.png,US_Cities_List/peoria.png,,,,,,,,,,,,,,,,,,
763.1000000014901,,rt_thecrossant_black,420874,,,black_plus_sign,,,,,49,,,1,0.9782608695652174,,,,,,,,,,,,,,,,
null,,color_black,420978,,,black_plus_sign,,,,,null,,,,,,,,,,,,,,,,,,,,
null,,learn_phase(without_color),424007,,,black_plus_sign,,,,,null,US_Cities_List/hotsprings.png,US_Cities_List/leesburg.png,,,,,,,,,,,,,,,,,,
null,,black_cross(without_color),424463,,,yellow,,,,,null,US_Cities_List/hotsprings.png,US_Cities_List/leesburg.png,,,,,,,,,,,,,,,,,,
null,,rt_plussign_withcolor,424965,,,yellow,,,,,null,US_Cities_List/hotsprings.png,US_Cities_List/leesburg.png,,,,,,,,,,,,,,,,,,
1465.800000000745,,rt_thecrossant_black,426517,,,black_plus_sign,,,,,50,,,1,0.9787234042553191,,,,,,,,,,,,,,,,
null,,color_black,426621,,,black_plus_sign,,,,,null,,,,,,,,,,,,,,,,,,,,
null,,learn_phase(without_color),429646,,,black_plus_sign,,,,,null,US_Cities_List/shreveport.png,US_Cities_List/gatlinburg.png,,,,,,,,,,,,,,,,,,
null,,black_cross(without_color),430718,,,blue,,,,,null,US_Cities_List/shreveport.png,US_Cities_List/gatlinburg.png,,,,,,,,,,,,,,,,,,
448.9000000022352,,rt_plussign_withcolor,431223,,,blue,,,,,49,US_Cities_List/shreveport.png,US_Cities_List/gatlinburg.png,,,,,,,,,,,,,,,,,,
null,,rt_thecrossant_black,432161,,,black_plus_sign,,,,,null,,,1,0.9791666666666666,,,,,,,,,,,,,,,,
null,,color_black,432265,,,black_plus_sign,,,,,null,,,,,,,,,,,,,,,,,,,,
null,,learn_phase(without_color),435286,,,black_plus_sign,,,,,null,US_Cities_List/huntsville.png,US_Cities_List/hotsprings.png,,,,,,,,,,,,,,,,,,
null,,black_cross(without_color),436058,,,blue,,,,,null,US_Cities_List/huntsville.png,US_Cities_List/hotsprings.png,,,,,,,,,,,,,,,,,,
null,,rt_plussign_withcolor,436561,,,blue,,,,,null,US_Cities_List/huntsville.png,US_Cities_List/hotsprings.png,,,,,,,,,,,,,,,,,,
1469.5,,rt_thecrossant_black,437796,,,black_plus_sign,,,,,49,,,1,0.9795918367346939,,,,,,,,,,,,,,,,
null,,color_black,437899,,,black_plus_sign,,,,,null,,,,,,,,,,,,,,,,,,,,
null,,learn_phase(without_color),440913,,,black_plus_sign,,,,,null,US_Cities_List/hotsprings.png,US_Cities_List/peoria.png,,,,,,,,,,,,,,,,,,
null,,black_cross(without_color),441934,,,yellow,,,,,null,US_Cities_List/hotsprings.png,US_Cities_List/peoria.png,,,,,,,,,,,,,,,,,,
427.0999999977648,,rt_plussign_withcolor,442437,,,yellow,,,,,50,US_Cities_List/hotsprings.png,US_Cities_List/peoria.png,,,,,,,,,,,,,,,,,,
null,,rt_thecrossant_black,443423,,,black_plus_sign,,,,,null,,,1,0.98,,,,,,,,,,,,,,,,
null,,color_black,443526,,,black_plus_sign,,,,,null,,,,,,,,,,,,,,,,,,,,
null,,learn_phase(without_color),446556,,,black_plus_sign,,,,,null,US_Cities_List/westpalmbeach.png,US_Cities_List/gatlinburg.png,,,,,,,,,,,,,,,,,,
null,,black_cross(without_color),447287,,,yellow,,,,,null,US_Cities_List/westpalmbeach.png,US_Cities_List/gatlinburg.png,,,,,,,,,,,,,,,,,,
478.69999999925494,,rt_plussign_withcolor,447790,,,yellow,,,,,50,US_Cities_List/westpalmbeach.png,US_Cities_List/gatlinburg.png,,,,,,,,,,,,,,,,,,
null,,rt_thecrossant_black,449066,,,black_plus_sign,,,,,null,,,1,0.9803921568627451,,,,,,,,,,,,,,,,
null,,color_black,449170,,,black_plus_sign,,,,,null,,,,,,,,,,,,,,,,,,,,
null,,learn_phase(without_color),452198,,,black_plus_sign,,,,,null,US_Cities_List/newhope.png,US_Cities_List/shreveport.png,,,,,,,,,,,,,,,,,,
null,,black_cross(without_color),452761,,,yellow,,,,,null,US_Cities_List/newhope.png,US_Cities_List/shreveport.png,,,,,,,,,,,,,,,,,,
null,,rt_plussign_withcolor,453264,,,yellow,,,,,null,US_Cities_List/newhope.png,US_Cities_List/shreveport.png,,,,,,,,,,,,,,,,,,
1002.8000000007451,,rt_thecrossant_black,454708,,,black_plus_sign,,,,,50,,,1,0.9807692307692307,,,,,,,,,,,,,,,,
null,,color_black,454812,,,black_plus_sign,,,,,null,,,,,,,,,,,,,,,,,,,,
null,,learn_phase(without_color),457842,,,black_plus_sign,,,,,null,US_Cities_List/carmel.png,US_Cities_List/westpalmbeach.png,,,,,,,,,,,,,,,,,,
null,,black_cross(without_color),458748,,,yellow,,,,,null,US_Cities_List/carmel.png,US_Cities_List/westpalmbeach.png,,,,,,,,,,,,,,,,,,
450.79999999701977,,rt_plussign_withcolor,459251,,,yellow,,,,,50,US_Cities_List/carmel.png,US_Cities_List/westpalmbeach.png,,,,,,,,,,,,,,,,,,
null,,rt_thecrossant_black,460352,,,black_plus_sign,,,,,null,,,1,0.9811320754716981,,,,,,,,,,,,,,,,
null,,color_black,460456,,,black_plus_sign,,,,,null,,,,,,,,,,,,,,,,,,,,
null,,learn_phase(without_color),463478,,,black_plus_sign,,,,,null,US_Cities_List/huntsville.png,US_Cities_List/hotsprings.png,,,,,,,,,,,,,,,,,,
null,,black_cross(without_color),464130,,,blue,,,,,null,US_Cities_List/huntsville.png,US_Cities_List/hotsprings.png,,,,,,,,,,,,,,,,,,
null,,rt_plussign_withcolor,464633,,,blue,,,,,null,US_Cities_List/huntsville.png,US_Cities_List/hotsprings.png,,,,,,,,,,,,,,,,,,
1290.1000000014901,,rt_thecrossant_black,465988,,,black_plus_sign,,,,,49,,,1,0.9814814814814815,,,,,,,,,,,,,,,,
null,,color_black,466092,,,black_plus_sign,,,,,null,,,,,,,,,,,,,,,,,,,,
null,,learn_phase(without_color),469107,,,black_plus_sign,,,,,null,US_Cities_List/gatlinburg.png,US_Cities_List/shreveport.png,,,,,,,,,,,,,,,,,,
null,,black_cross(without_color),469697,,,blue,,,,,null,US_Cities_List/gatlinburg.png,US_Cities_List/shreveport.png,,,,,,,,,,,,,,,,,,
null,,rt_plussign_withcolor,470200,,,blue,,,,,null,US_Cities_List/gatlinburg.png,US_Cities_List/shreveport.png,,,,,,,,,,,,,,,,,,
841.1999999992549,,rt_thecrossant_black,471617,,,black_plus_sign,,,,,49,,,1,0.9818181818181818,,,,,,,,,,,,,,,,
null,,color_black,471721,,,black_plus_sign,,,,,null,,,,,,,,,,,,,,,,,,,,
null,,learn_phase(without_color),474752,,,black_plus_sign,,,,,null,US_Cities_List/racine.png,US_Cities_List/peoria.png,,,,,,,,,,,,,,,,,,
null,,black_cross(without_color),475820,,,blue,,,,,null,US_Cities_List/racine.png,US_Cities_List/peoria.png,,,,,,,,,,,,,,,,,,
null,,rt_plussign_withcolor,476322,,,blue,,,,,null,US_Cities_List/racine.png,US_Cities_List/peoria.png,,,,,,,,,,,,,,,,,,
841.1000000014901,,rt_thecrossant_black,477262,,,black_plus_sign,,,,,49,,,1,0.9821428571428571,,,,,,,,,,,,,,,,
null,,color_black,477368,,,black_plus_sign,,,,,null,,,,,,,,,,,,,,,,,,,,
null,,learn_phase(without_color),480397,,,black_plus_sign,,,,,null,US_Cities_List/newhope.png,US_Cities_List/shreveport.png,,,,,,,,,,,,,,,,,,
null,,black_cross(without_color),481016,,,blue,,,,,null,US_Cities_List/newhope.png,US_Cities_List/shreveport.png,,,,,,,,,,,,,,,,,,
489.5,,rt_plussign_withcolor,481519,,,blue,,,,,49,US_Cities_List/newhope.png,US_Cities_List/shreveport.png,,,,,,,,,,,,,,,,,,
null,,rt_thecrossant_black,482907,,,black_plus_sign,,,,,null,,,1,0.9824561403508771,,,,,,,,,,,,,,,,
null,,color_black,483010,,,black_plus_sign,,,,,null,,,,,,,,,,,,,,,,,,,,
null,,learn_phase(without_color),486040,,,black_plus_sign,,,,,null,US_Cities_List/leesburg.png,US_Cities_List/gatlinburg.png,,,,,,,,,,,,,,,,,,
null,,black_cross(without_color),486612,,,blue,,,,,null,US_Cities_List/leesburg.png,US_Cities_List/gatlinburg.png,,,,,,,,,,,,,,,,,,
null,,rt_plussign_withcolor,487114,,,blue,,,,,null,US_Cities_List/leesburg.png,US_Cities_List/gatlinburg.png,,,,,,,,,,,,,,,,,,
845.1999999992549,,rt_thecrossant_black,488550,,,black_plus_sign,,,,,49,,,1,0.9827586206896551,,,,,,,,,,,,,,,,
null,,color_black,488653,,,black_plus_sign,,,,,null,,,,,,,,,,,,,,,,,,,,
null,,learn_phase(without_color),491674,,,black_plus_sign,,,,,null,US_Cities_List/hotsprings.png,US_Cities_List/huntsville.png,,,,,,,,,,,,,,,,,,
null,,black_cross(without_color),492706,,,blue,,,,,null,US_Cities_List/hotsprings.png,US_Cities_List/huntsville.png,,,,,,,,,,,,,,,,,,
473.19999999925494,,rt_plussign_withcolor,493209,,,blue,,,,,49,US_Cities_List/hotsprings.png,US_Cities_List/huntsville.png,,,,,,,,,,,,,,,,,,
null,,rt_thecrossant_black,494184,,,black_plus_sign,,,,,null,,,1,0.9830508474576272,,,,,,,,,,,,,,,,
null,,color_black,494288,,,black_plus_sign,,,,,null,,,,,,,,,,,,,,,,,,,,
null,,learn_phase(without_color),497316,,,black_plus_sign,,,,,null,US_Cities_List/leesburg.png,US_Cities_List/hotsprings.png,,,,,,,,,,,,,,,,,,
null,,black_cross(without_color),498322,,,blue,,,,,null,US_Cities_List/leesburg.png,US_Cities_List/hotsprings.png,,,,,,,,,,,,,,,,,,
390.19999999925494,,rt_plussign_withcolor,498825,,,blue,,,,,49,US_Cities_List/leesburg.png,US_Cities_List/hotsprings.png,,,,,,,,,,,,,,,,,,
null,,rt_thecrossant_black,499825,,,black_plus_sign,,,,,null,,,1,0.9833333333333333,,,,,,,,,,,,,,,,
null,,color_black,499928,,,black_plus_sign,,,,,null,,,,,,,,,,,,,,,,,,,,
null,,learn_phase(without_color),502940,,,black_plus_sign,,,,,null,US_Cities_List/racine.png,US_Cities_List/peoria.png,,,,,,,,,,,,,,,,,,
null,,black_cross(without_color),503432,,,yellow,,,,,null,US_Cities_List/racine.png,US_Cities_List/peoria.png,,,,,,,,,,,,,,,,,,
307.1000000014901,,rt_plussign_withcolor,503934,,,yellow,,,,,50,US_Cities_List/racine.png,US_Cities_List/peoria.png,,,,,,,,,,,,,,,,,,
null,,rt_thecrossant_black,505449,,,black_plus_sign,,,,,null,,,1,0.9836065573770492,,,,,,,,,,,,,,,,
null,,color_black,505552,,,black_plus_sign,,,,,null,,,,,,,,,,,,,,,,,,,,
null,,learn_phase(without_color),508575,,,black_plus_sign,,,,,null,US_Cities_List/cornwall.png,US_Cities_List/hanover.png,,,,,,,,,,,,,,,,,,
null,,black_cross(without_color),509416,,,yellow,,,,,null,US_Cities_List/cornwall.png,US_Cities_List/hanover.png,,,,,,,,,,,,,,,,,,
null,,rt_plussign_withcolor,509919,,,yellow,,,,,null,US_Cities_List/cornwall.png,US_Cities_List/hanover.png,,,,,,,,,,,,,,,,,,
590.1000000014901,,rt_thecrossant_black,511086,,,black_plus_sign,,,,,50,,,1,0.9838709677419355,,,,,,,,,,,,,,,,
null,,color_black,511190,,,black_plus_sign,,,,,null,,,,,,,,,,,,,,,,,,,,
null,,learn_phase(without_color),514219,,,black_plus_sign,,,,,null,US_Cities_List/gatlinburg.png,US_Cities_List/westpalmbeach.png,,,,,,,,,,,,,,,,,,
null,,black_cross(without_color),514663,,,blue,,,,,null,US_Cities_List/gatlinburg.png,US_Cities_List/westpalmbeach.png,,,,,,,,,,,,,,,,,,
null,,rt_plussign_withcolor,515166,,,blue,,,,,null,US_Cities_List/gatlinburg.png,US_Cities_List/westpalmbeach.png,,,,,,,,,,,,,,,,,,
1071.4000000022352,,rt_thecrossant_black,516729,,,black_plus_sign,,,,,49,,,1,0.9841269841269841,,,,,,,,,,,,,,,,
null,,color_black,516833,,,black_plus_sign,,,,,null,,,,,,,,,,,,,,,,,,,,
null,,learn_phase(without_color),519859,,,black_plus_sign,,,,,null,US_Cities_List/shreveport.png,US_Cities_List/westpalmbeach.png,,,,,,,,,,,,,,,,,,
null,,black_cross(without_color),520895,,,blue,,,,,null,US_Cities_List/shreveport.png,US_Cities_List/westpalmbeach.png,,,,,,,,,,,,,,,,,,
464.1000000014901,,rt_plussign_withcolor,521398,,,blue,,,,,49,US_Cities_List/shreveport.png,US_Cities_List/westpalmbeach.png,,,,,,,,,,,,,,,,,,
null,,rt_thecrossant_black,522369,,,black_plus_sign,,,,,null,,,1,0.984375,,,,,,,,,,,,,,,,
null,,color_black,522473,,,black_plus_sign,,,,,null,,,,,,,,,,,,,,,,,,,,
29923.900000002235,,learn_break,552403,,,learn_break,,,,,32,,,,,,,,,,,,,,,,,,,,
null,,html-keyboard-response,553407,,,<p></p>,,,,,null,,,,,,,,,,,,,,,,,,,,
null,,learn_phase(without_color),556433,,,black_plus_sign,,,,,null,US_Cities_List/shreveport.png,US_Cities_List/newhope.png,,,,,,,,,,,,,,,,,,
null,,black_cross(without_color),557409,,,yellow,,,,,null,US_Cities_List/shreveport.png,US_Cities_List/newhope.png,,,,,,,,,,,,,,,,,,
null,,rt_plussign_withcolor,557911,,,yellow,,,,,null,US_Cities_List/shreveport.png,US_Cities_List/newhope.png,,,,,,,,,,,,,,,,,,
1415.300000000745,,rt_thecrossant_black,558942,,,black_plus_sign,,,,,50,,,1,0.9846153846153847,,,,,,,,,,,,,,,,
null,,color_black,559046,,,black_plus_sign,,,,,null,,,,,,,,,,,,,,,,,,,,
null,,learn_phase(without_color),562065,,,black_plus_sign,,,,,null,US_Cities_List/hanover.png,US_Cities_List/westpalmbeach.png,,,,,,,,,,,,,,,,,,
null,,black_cross(without_color),562988,,,yellow,,,,,null,US_Cities_List/hanover.png,US_Cities_List/westpalmbeach.png,,,,,,,,,,,,,,,,,,
null,,rt_plussign_withcolor,563491,,,yellow,,,,,null,US_Cities_List/hanover.png,US_Cities_List/westpalmbeach.png,,,,,,,,,,,,,,,,,,
1243.800000000745,,rt_thecrossant_black,564575,,,black_plus_sign,,,,,50,,,1,0.9848484848484849,,,,,,,,,,,,,,,,
null,,color_black,564679,,,black_plus_sign,,,,,null,,,,,,,,,,,,,,,,,,,,
null,,learn_phase(without_color),567696,,,black_plus_sign,,,,,null,US_Cities_List/hanover.png,US_Cities_List/shreveport.png,,,,,,,,,,,,,,,,,,
null,,black_cross(without_color),568106,,,blue,,,,,null,US_Cities_List/hanover.png,US_Cities_List/shreveport.png,,,,,,,,,,,,,,,,,,
null,,rt_plussign_withcolor,568608,,,blue,,,,,null,US_Cities_List/hanover.png,US_Cities_List/shreveport.png,,,,,,,,,,,,,,,,,,
1254.6000000014901,,rt_thecrossant_black,570206,,,black_plus_sign,,,,,49,,,1,0.9850746268656716,,,,,,,,,,,,,,,,
null,,color_black,570310,,,black_plus_sign,,,,,null,,,,,,,,,,,,,,,,,,,,
null,,learn_phase(without_color),573329,,,black_plus_sign,,,,,null,US_Cities_List/peoria.png,US_Cities_List/hotsprings.png,,,,,,,,,,,,,,,,,,
null,,black_cross(without_color),574282,,,yellow,,,,,null,US_Cities_List/peoria.png,US_Cities_List/hotsprings.png,,,,,,,,,,,,,,,,,,
null,,rt_plussign_withcolor,574785,,,yellow,,,,,null,US_Cities_List/peoria.png,US_Cities_List/hotsprings.png,,,,,,,,,,,,,,,,,,
539.0999999977648,,rt_thecrossant_black,575838,,,black_plus_sign,,,,,50,,,1,0.9852941176470589,,,,,,,,,,,,,,,,
null,,color_black,575941,,,black_plus_sign,,,,,null,,,,,,,,,,,,,,,,,,,,
null,,learn_phase(without_color),578970,,,black_plus_sign,,,,,null,US_Cities_List/westpalmbeach.png,US_Cities_List/gatlinburg.png,,,,,,,,,,,,,,,,,,
null,,black_cross(without_color),579695,,,blue,,,,,null,US_Cities_List/westpalmbeach.png,US_Cities_List/gatlinburg.png,,,,,,,,,,,,,,,,,,
null,,rt_plussign_withcolor,580197,,,blue,,,,,null,US_Cities_List/westpalmbeach.png,US_Cities_List/gatlinburg.png,,,,,,,,,,,,,,,,,,
1326.1000000014901,,rt_thecrossant_black,581480,,,black_plus_sign,,,,,49,,,1,0.9855072463768116,,,,,,,,,,,,,,,,
null,,color_black,581584,,,black_plus_sign,,,,,null,,,,,,,,,,,,,,,,,,,,
null,,learn_phase(without_color),584615,,,black_plus_sign,,,,,null,US_Cities_List/hotsprings.png,US_Cities_List/peoria.png,,,,,,,,,,,,,,,,,,
null,,black_cross(without_color),585591,,,yellow,,,,,null,US_Cities_List/hotsprings.png,US_Cities_List/peoria.png,,,,,,,,,,,,,,,,,,
null,,rt_plussign_withcolor,586094,,,yellow,,,,,null,US_Cities_List/hotsprings.png,US_Cities_List/peoria.png,,,,,,,,,,,,,,,,,,
1305.800000000745,,rt_thecrossant_black,587126,,,black_plus_sign,,,,,50,,,1,0.9857142857142858,,,,,,,,,,,,,,,,
null,,color_black,587230,,,black_plus_sign,,,,,null,,,,,,,,,,,,,,,,,,,,
null,,learn_phase(without_color),590256,,,black_plus_sign,,,,,null,US_Cities_List/carmel.png,US_Cities_List/racine.png,,,,,,,,,,,,,,,,,,
null,,black_cross(without_color),590776,,,yellow,,,,,null,US_Cities_List/carmel.png,US_Cities_List/racine.png,,,,,,,,,,,,,,,,,,
null,,rt_plussign_withcolor,591278,,,yellow,,,,,null,US_Cities_List/carmel.png,US_Cities_List/racine.png,,,,,,,,,,,,,,,,,,
1655,,rt_thecrossant_black,592765,,,black_plus_sign,,,,,50,,,1,0.9859154929577465,,,,,,,,,,,,,,,,
null,,color_black,592869,,,black_plus_sign,,,,,null,,,,,,,,,,,,,,,,,,,,
null,,learn_phase(without_color),595896,,,black_plus_sign,,,,,null,US_Cities_List/gatlinburg.png,US_Cities_List/shreveport.png,,,,,,,,,,,,,,,,,,
null,,black_cross(without_color),596684,,,yellow,,,,,null,US_Cities_List/gatlinburg.png,US_Cities_List/shreveport.png,,,,,,,,,,,,,,,,,,
403.5999999977648,,rt_plussign_withcolor,597187,,,yellow,,,,,50,US_Cities_List/gatlinburg.png,US_Cities_List/shreveport.png,,,,,,,,,,,,,,,,,,
null,,rt_thecrossant_black,598407,,,black_plus_sign,,,,,null,,,1,0.9861111111111112,,,,,,,,,,,,,,,,
null,,color_black,598512,,,black_plus_sign,,,,,null,,,,,,,,,,,,,,,,,,,,
null,,learn_phase(without_color),601543,,,black_plus_sign,,,,,null,US_Cities_List/carmel.png,US_Cities_List/westpalmbeach.png,,,,,,,,,,,,,,,,,,
null,,black_cross(without_color),602358,,,yellow,,,,,null,US_Cities_List/carmel.png,US_Cities_List/westpalmbeach.png,,,,,,,,,,,,,,,,,,
null,,rt_plussign_withcolor,602861,,,yellow,,,,,null,US_Cities_List/carmel.png,US_Cities_List/westpalmbeach.png,,,,,,,,,,,,,,,,,,
1374.9000000022352,,rt_thecrossant_black,604053,,,black_plus_sign,,,,,50,,,1,0.9863013698630136,,,,,,,,,,,,,,,,
null,,color_black,604157,,,black_plus_sign,,,,,null,,,,,,,,,,,,,,,,,,,,
null,,learn_phase(without_color),607173,,,black_plus_sign,,,,,null,US_Cities_List/peoria.png,US_Cities_List/racine.png,,,,,,,,,,,,,,,,,,
null,,black_cross(without_color),607886,,,yellow,,,,,null,US_Cities_List/peoria.png,US_Cities_List/racine.png,,,,,,,,,,,,,,,,,,
null,,rt_plussign_withcolor,608389,,,yellow,,,,,null,US_Cities_List/peoria.png,US_Cities_List/racine.png,,,,,,,,,,,,,,,,,,
935.0999999977648,,rt_thecrossant_black,609683,,,black_plus_sign,,,,,50,,,1,0.9864864864864865,,,,,,,,,,,,,,,,
null,,color_black,609787,,,black_plus_sign,,,,,null,,,,,,,,,,,,,,,,,,,,
null,,learn_phase(without_color),612819,,,black_plus_sign,,,,,null,US_Cities_List/carmel.png,US_Cities_List/racine.png,,,,,,,,,,,,,,,,,,
null,,black_cross(without_color),613657,,,yellow,,,,,null,US_Cities_List/carmel.png,US_Cities_List/racine.png,,,,,,,,,,,,,,,,,,
492.9000000022352,,rt_plussign_withcolor,614160,,,yellow,,,,,50,US_Cities_List/carmel.png,US_Cities_List/racine.png,,,,,,,,,,,,,,,,,,
null,,rt_thecrossant_black,615329,,,black_plus_sign,,,,,null,,,1,0.9866666666666667,,,,,,,,,,,,,,,,
null,,color_black,615433,,,black_plus_sign,,,,,null,,,,,,,,,,,,,,,,,,,,
null,,learn_phase(without_color),618459,,,black_plus_sign,,,,,null,US_Cities_List/shreveport.png,US_Cities_List/gatlinburg.png,,,,,,,,,,,,,,,,,,
null,,black_cross(without_color),618882,,,blue,,,,,null,US_Cities_List/shreveport.png,US_Cities_List/gatlinburg.png,,,,,,,,,,,,,,,,,,
null,,rt_plussign_withcolor,619385,,,blue,,,,,null,US_Cities_List/shreveport.png,US_Cities_List/gatlinburg.png,,,,,,,,,,,,,,,,,,
1166.5,,rt_thecrossant_black,620969,,,black_plus_sign,,,,,49,,,1,0.9868421052631579,,,,,,,,,,,,,,,,
null,,color_black,621073,,,black_plus_sign,,,,,null,,,,,,,,,,,,,,,,,,,,
null,,learn_phase(without_color),624100,,,black_plus_sign,,,,,null,US_Cities_List/shreveport.png,US_Cities_List/westpalmbeach.png,,,,,,,,,,,,,,,,,,
null,,black_cross(without_color),624812,,,yellow,,,,,null,US_Cities_List/shreveport.png,US_Cities_List/westpalmbeach.png,,,,,,,,,,,,,,,,,,
null,,rt_plussign_withcolor,625315,,,yellow,,,,,null,US_Cities_List/shreveport.png,US_Cities_List/westpalmbeach.png,,,,,,,,,,,,,,,,,,
1191.199999999255,,rt_thecrossant_black,626611,,,black_plus_sign,,,,,50,,,1,0.987012987012987,,,,,,,,,,,,,,,,
null,,color_black,626715,,,black_plus_sign,,,,,null,,,,,,,,,,,,,,,,,,,,
null,,learn_phase(without_color),629743,,,black_plus_sign,,,,,null,US_Cities_List/newhope.png,US_Cities_List/shreveport.png,,,,,,,,,,,,,,,,,,
null,,black_cross(without_color),630371,,,yellow,,,,,null,US_Cities_List/newhope.png,US_Cities_List/shreveport.png,,,,,,,,,,,,,,,,,,
428.20000000298023,,rt_plussign_withcolor,630874,,,yellow,,,,,50,US_Cities_List/newhope.png,US_Cities_List/shreveport.png,,,,,,,,,,,,,,,,,,
null,,rt_thecrossant_black,632254,,,black_plus_sign,,,,,null,,,1,0.9871794871794872,,,,,,,,,,,,,,,,
null,,color_black,632358,,,black_plus_sign,,,,,null,,,,,,,,,,,,,,,,,,,,
null,,learn_phase(without_color),635388,,,black_plus_sign,,,,,null,US_Cities_List/gatlinburg.png,US_Cities_List/leesburg.png,,,,,,,,,,,,,,,,,,
null,,black_cross(without_color),636142,,,yellow,,,,,null,US_Cities_List/gatlinburg.png,US_Cities_List/leesburg.png,,,,,,,,,,,,,,,,,,
299.9000000022352,,rt_plussign_withcolor,636645,,,yellow,,,,,50,US_Cities_List/gatlinburg.png,US_Cities_List/leesburg.png,,,,,,,,,,,,,,,,,,
null,,rt_thecrossant_black,637898,,,black_plus_sign,,,,,null,,,1,0.9873417721518988,,,,,,,,,,,,,,,,
null,,color_black,638002,,,black_plus_sign,,,,,null,,,,,,,,,,,,,,,,,,,,
null,,learn_phase(without_color),641012,,,black_plus_sign,,,,,null,US_Cities_List/hanover.png,US_Cities_List/westpalmbeach.png,,,,,,,,,,,,,,,,,,
null,,black_cross(without_color),641759,,,yellow,,,,,null,US_Cities_List/hanover.png,US_Cities_List/westpalmbeach.png,,,,,,,,,,,,,,,,,,
382.19999999925494,,rt_plussign_withcolor,642262,,,yellow,,,,,50,US_Cities_List/hanover.png,US_Cities_List/westpalmbeach.png,,,,,,,,,,,,,,,,,,
null,,rt_thecrossant_black,643523,,,black_plus_sign,,,,,null,,,1,0.9875,,,,,,,,,,,,,,,,
null,,color_black,643627,,,black_plus_sign,,,,,null,,,,,,,,,,,,,,,,,,,,
null,,learn_phase(without_color),646654,,,black_plus_sign,,,,,null,US_Cities_List/westpalmbeach.png,US_Cities_List/hanover.png,,,,,,,,,,,,,,,,,,
null,,black_cross(without_color),647315,,,blue,,,,,null,US_Cities_List/westpalmbeach.png,US_Cities_List/hanover.png,,,,,,,,,,,,,,,,,,
null,,rt_plussign_withcolor,647818,,,blue,,,,,null,US_Cities_List/westpalmbeach.png,US_Cities_List/hanover.png,,,,,,,,,,,,,,,,,,
929.4000000022352,,rt_thecrossant_black,649164,,,black_plus_sign,,,,,49,,,1,0.9876543209876543,,,,,,,,,,,,,,,,
null,,color_black,649268,,,black_plus_sign,,,,,null,,,,,,,,,,,,,,,,,,,,
null,,learn_phase(without_color),652279,,,black_plus_sign,,,,,null,US_Cities_List/gatlinburg.png,US_Cities_List/leesburg.png,,,,,,,,,,,,,,,,,,
null,,black_cross(without_color),653187,,,blue,,,,,null,US_Cities_List/gatlinburg.png,US_Cities_List/leesburg.png,,,,,,,,,,,,,,,,,,
421.1000000014901,,rt_plussign_withcolor,653689,,,blue,,,,,49,US_Cities_List/gatlinburg.png,US_Cities_List/leesburg.png,,,,,,,,,,,,,,,,,,
null,,rt_thecrossant_black,654789,,,black_plus_sign,,,,,null,,,1,0.9878048780487805,,,,,,,,,,,,,,,,
null,,color_black,654893,,,black_plus_sign,,,,,null,,,,,,,,,,,,,,,,,,,,
null,,learn_phase(without_color),657926,,,black_plus_sign,,,,,null,US_Cities_List/peoria.png,US_Cities_List/racine.png,,,,,,,,,,,,,,,,,,
null,,black_cross(without_color),658641,,,blue,,,,,null,US_Cities_List/peoria.png,US_Cities_List/racine.png,,,,,,,,,,,,,,,,,,
null,,rt_plussign_withcolor,659144,,,blue,,,,,null,US_Cities_List/peoria.png,US_Cities_List/racine.png,,,,,,,,,,,,,,,,,,
1019.6999999992549,,rt_thecrossant_black,660436,,,black_plus_sign,,,,,49,,,1,0.9879518072289156,,,,,,,,,,,,,,,,
null,,color_black,660540,,,black_plus_sign,,,,,null,,,,,,,,,,,,,,,,,,,,
null,,learn_phase(without_color),663569,,,black_plus_sign,,,,,null,US_Cities_List/westpalmbeach.png,US_Cities_List/carmel.png,,,,,,,,,,,,,,,,,,
null,,black_cross(without_color),664144,,,blue,,,,,null,US_Cities_List/westpalmbeach.png,US_Cities_List/carmel.png,,,,,,,,,,,,,,,,,,
null,,rt_plussign_withcolor,664648,,,blue,,,,,null,US_Cities_List/westpalmbeach.png,US_Cities_List/carmel.png,,,,,,,,,,,,,,,,,,
909.4000000022352,,rt_thecrossant_black,666080,,,black_plus_sign,,,,,49,,,1,0.9880952380952381,,,,,,,,,,,,,,,,
null,,color_black,666183,,,black_plus_sign,,,,,null,,,,,,,,,,,,,,,,,,,,
null,,learn_phase(without_color),669207,,,black_plus_sign,,,,,null,US_Cities_List/shreveport.png,US_Cities_List/hanover.png,,,,,,,,,,,,,,,,,,
null,,black_cross(without_color),669925,,,yellow,,,,,null,US_Cities_List/shreveport.png,US_Cities_List/hanover.png,,,,,,,,,,,,,,,,,,
null,,rt_plussign_withcolor,670427,,,yellow,,,,,null,US_Cities_List/shreveport.png,US_Cities_List/hanover.png,,,,,,,,,,,,,,,,,,
936.9000000022352,,rt_thecrossant_black,671718,,,black_plus_sign,,,,,49,,,0,0.9764705882352941,,,,,,,,,,,,,,,,
null,,color_black,671822,,,black_plus_sign,,,,,null,,,,,,,,,,,,,,,,,,,,
null,,learn_phase(without_color),674843,,,black_plus_sign,,,,,null,US_Cities_List/huntsville.png,US_Cities_List/hotsprings.png,,,,,,,,,,,,,,,,,,
null,,black_cross(without_color),675748,,,yellow,,,,,null,US_Cities_List/huntsville.png,US_Cities_List/hotsprings.png,,,,,,,,,,,,,,,,,,
388,,rt_plussign_withcolor,676251,,,yellow,,,,,50,US_Cities_List/huntsville.png,US_Cities_List/hotsprings.png,,,,,,,,,,,,,,,,,,
null,,rt_thecrossant_black,677354,,,black_plus_sign,,,,,null,,,1,0.9767441860465116,,,,,,,,,,,,,,,,
null,,color_black,677458,,,black_plus_sign,,,,,null,,,,,,,,,,,,,,,,,,,,
null,,learn_phase(without_color),680488,,,black_plus_sign,,,,,null,US_Cities_List/hotsprings.png,US_Cities_List/peoria.png,,,,,,,,,,,,,,,,,,
null,,black_cross(without_color),681217,,,yellow,,,,,null,US_Cities_List/hotsprings.png,US_Cities_List/peoria.png,,,,,,,,,,,,,,,,,,
null,,rt_plussign_withcolor,681719,,,yellow,,,,,null,US_Cities_List/hotsprings.png,US_Cities_List/peoria.png,,,,,,,,,,,,,,,,,,
1219.699999999255,,rt_thecrossant_black,682997,,,black_plus_sign,,,,,50,,,1,0.9770114942528736,,,,,,,,,,,,,,,,
null,,color_black,683101,,,black_plus_sign,,,,,null,,,,,,,,,,,,,,,,,,,,
null,,learn_phase(without_color),686113,,,black_plus_sign,,,,,null,US_Cities_List/hotsprings.png,US_Cities_List/peoria.png,,,,,,,,,,,,,,,,,,
null,,black_cross(without_color),687038,,,yellow,,,,,null,US_Cities_List/hotsprings.png,US_Cities_List/peoria.png,,,,,,,,,,,,,,,,,,
null,,rt_plussign_withcolor,687542,,,yellow,,,,,null,US_Cities_List/hotsprings.png,US_Cities_List/peoria.png,,,,,,,,,,,,,,,,,,
965.8999999985099,,rt_thecrossant_black,688621,,,black_plus_sign,,,,,50,,,1,0.9772727272727273,,,,,,,,,,,,,,,,
null,,color_black,688725,,,black_plus_sign,,,,,null,,,,,,,,,,,,,,,,,,,,
null,,learn_phase(without_color),691743,,,black_plus_sign,,,,,null,US_Cities_List/westpalmbeach.png,US_Cities_List/carmel.png,,,,,,,,,,,,,,,,,,
null,,black_cross(without_color),692614,,,blue,,,,,null,US_Cities_List/westpalmbeach.png,US_Cities_List/carmel.png,,,,,,,,,,,,,,,,,,
null,,rt_plussign_withcolor,693117,,,blue,,,,,null,US_Cities_List/westpalmbeach.png,US_Cities_List/carmel.png,,,,,,,,,,,,,,,,,,
1147.4000000022352,,rt_thecrossant_black,694254,,,black_plus_sign,,,,,49,,,1,0.9775280898876404,,,,,,,,,,,,,,,,
null,,color_black,694358,,,black_plus_sign,,,,,null,,,,,,,,,,,,,,,,,,,,
null,,learn_phase(without_color),697387,,,black_plus_sign,,,,,null,US_Cities_List/leesburg.png,US_Cities_List/hotsprings.png,,,,,,,,,,,,,,,,,,
null,,black_cross(without_color),697834,,,yellow,,,,,null,US_Cities_List/leesburg.png,US_Cities_List/hotsprings.png,,,,,,,,,,,,,,,,,,
null,,rt_plussign_withcolor,698337,,,yellow,,,,,null,US_Cities_List/leesburg.png,US_Cities_List/hotsprings.png,,,,,,,,,,,,,,,,,,
1331.699999999255,,rt_thecrossant_black,699898,,,black_plus_sign,,,,,50,,,1,0.9777777777777777,,,,,,,,,,,,,,,,
null,,color_black,700002,,,black_plus_sign,,,,,null,,,,,,,,,,,,,,,,,,,,
null,,learn_phase(without_color),703031,,,black_plus_sign,,,,,null,US_Cities_List/gatlinburg.png,US_Cities_List/westpalmbeach.png,,,,,,,,,,,,,,,,,,
null,,black_cross(without_color),703881,,,blue,,,,,null,US_Cities_List/gatlinburg.png,US_Cities_List/westpalmbeach.png,,,,,,,,,,,,,,,,,,
496,,rt_plussign_withcolor,704383,,,blue,,,,,49,US_Cities_List/gatlinburg.png,US_Cities_List/westpalmbeach.png,,,,,,,,,,,,,,,,,,
null,,rt_thecrossant_black,705541,,,black_plus_sign,,,,,null,,,1,0.978021978021978,,,,,,,,,,,,,,,,
null,,color_black,705645,,,black_plus_sign,,,,,null,,,,,,,,,,,,,,,,,,,,
null,,learn_phase(without_color),708672,,,black_plus_sign,,,,,null,US_Cities_List/newhope.png,US_Cities_List/shreveport.png,,,,,,,,,,,,,,,,,,
null,,black_cross(without_color),709770,,,yellow,,,,,null,US_Cities_List/newhope.png,US_Cities_List/shreveport.png,,,,,,,,,,,,,,,,,,
397.4000000022352,,rt_plussign_withcolor,710273,,,yellow,,,,,50,US_Cities_List/newhope.png,US_Cities_List/shreveport.png,,,,,,,,,,,,,,,,,,
null,,rt_thecrossant_black,711183,,,black_plus_sign,,,,,null,,,1,0.9782608695652174,,,,,,,,,,,,,,,,
null,,color_black,711287,,,black_plus_sign,,,,,null,,,,,,,,,,,,,,,,,,,,
null,,learn_phase(without_color),714314,,,black_plus_sign,,,,,null,US_Cities_List/shreveport.png,US_Cities_List/gatlinburg.png,,,,,,,,,,,,,,,,,,
null,,black_cross(without_color),715261,,,yellow,,,,,null,US_Cities_List/shreveport.png,US_Cities_List/gatlinburg.png,,,,,,,,,,,,,,,,,,
null,,rt_plussign_withcolor,715764,,,yellow,,,,,null,US_Cities_List/shreveport.png,US_Cities_List/gatlinburg.png,,,,,,,,,,,,,,,,,,
1260.8999999985099,,rt_thecrossant_black,716825,,,black_plus_sign,,,,,50,,,1,0.978494623655914,,,,,,,,,,,,,,,,
null,,color_black,716929,,,black_plus_sign,,,,,null,,,,,,,,,,,,,,,,,,,,
null,,learn_phase(without_color),719954,,,black_plus_sign,,,,,null,US_Cities_List/hanover.png,US_Cities_List/shreveport.png,,,,,,,,,,,,,,,,,,
null,,black_cross(without_color),720950,,,blue,,,,,null,US_Cities_List/hanover.png,US_Cities_List/shreveport.png,,,,,,,,,,,,,,,,,,
null,,rt_plussign_withcolor,721453,,,blue,,,,,null,US_Cities_List/hanover.png,US_Cities_List/shreveport.png,,,,,,,,,,,,,,,,,,
1118.5,,rt_thecrossant_black,722464,,,black_plus_sign,,,,,49,,,1,0.9787234042553191,,,,,,,,,,,,,,,,
null,,color_black,722568,,,black_plus_sign,,,,,null,,,,,,,,,,,,,,,,,,,,
null,,learn_phase(without_color),725596,,,black_plus_sign,,,,,null,US_Cities_List/boulder.png,US_Cities_List/peoria.png,,,,,,,,,,,,,,,,,,
null,,black_cross(without_color),726337,,,yellow,,,,,null,US_Cities_List/boulder.png,US_Cities_List/peoria.png,,,,,,,,,,,,,,,,,,
369.5999999977648,,rt_plussign_withcolor,726840,,,yellow,,,,,50,US_Cities_List/boulder.png,US_Cities_List/peoria.png,,,,,,,,,,,,,,,,,,
null,,rt_thecrossant_black,728107,,,black_plus_sign,,,,,null,,,1,0.9789473684210527,,,,,,,,,,,,,,,,
null,,color_black,728211,,,black_plus_sign,,,,,null,,,,,,,,,,,,,,,,,,,,
null,,learn_phase(without_color),731241,,,black_plus_sign,,,,,null,US_Cities_List/carmel.png,US_Cities_List/leesburg.png,,,,,,,,,,,,,,,,,,
null,,black_cross(without_color),732152,,,blue,,,,,null,US_Cities_List/carmel.png,US_Cities_List/leesburg.png,,,,,,,,,,,,,,,,,,
null,,rt_plussign_withcolor,732656,,,blue,,,,,null,US_Cities_List/carmel.png,US_Cities_List/leesburg.png,,,,,,,,,,,,,,,,,,
899.5,,rt_thecrossant_black,733753,,,black_plus_sign,,,,,49,,,1,0.9791666666666666,,,,,,,,,,,,,,,,
null,,color_black,733857,,,black_plus_sign,,,,,null,,,,,,,,,,,,,,,,,,,,
null,,learn_phase(without_color),736886,,,black_plus_sign,,,,,null,US_Cities_List/carmel.png,US_Cities_List/leesburg.png,,,,,,,,,,,,,,,,,,
null,,black_cross(without_color),737519,,,yellow,,,,,null,US_Cities_List/carmel.png,US_Cities_List/leesburg.png,,,,,,,,,,,,,,,,,,
451.3999999985099,,rt_plussign_withcolor,738022,,,yellow,,,,,50,US_Cities_List/carmel.png,US_Cities_List/leesburg.png,,,,,,,,,,,,,,,,,,
null,,rt_thecrossant_black,739397,,,black_plus_sign,,,,,null,,,1,0.979381443298969,,,,,,,,,,,,,,,,
null,,color_black,739501,,,black_plus_sign,,,,,null,,,,,,,,,,,,,,,,,,,,
null,,learn_phase(without_color),742528,,,black_plus_sign,,,,,null,US_Cities_List/peoria.png,US_Cities_List/hotsprings.png,,,,,,,,,,,,,,,,,,
null,,black_cross(without_color),743233,,,yellow,,,,,null,US_Cities_List/peoria.png,US_Cities_List/hotsprings.png,,,,,,,,,,,,,,,,,,
401.29999999701977,,rt_plussign_withcolor,743736,,,yellow,,,,,50,US_Cities_List/peoria.png,US_Cities_List/hotsprings.png,,,,,,,,,,,,,,,,,,
null,,rt_thecrossant_black,745039,,,black_plus_sign,,,,,null,,,1,0.9795918367346939,,,,,,,,,,,,,,,,
null,,color_black,745143,,,black_plus_sign,,,,,null,,,,,,,,,,,,,,,,,,,,
null,,learn_phase(without_color),748171,,,black_plus_sign,,,,,null,US_Cities_List/shreveport.png,US_Cities_List/newhope.png,,,,,,,,,,,,,,,,,,
null,,black_cross(without_color),749189,,,blue,,,,,null,US_Cities_List/shreveport.png,US_Cities_List/newhope.png,,,,,,,,,,,,,,,,,,
null,,rt_plussign_withcolor,749692,,,blue,,,,,null,US_Cities_List/shreveport.png,US_Cities_List/newhope.png,,,,,,,,,,,,,,,,,,
906.8000000007451,,rt_thecrossant_black,750681,,,black_plus_sign,,,,,49,,,1,0.9797979797979798,,,,,,,,,,,,,,,,
null,,color_black,750785,,,black_plus_sign,,,,,null,,,,,,,,,,,,,,,,,,,,
null,,learn_phase(without_color),753809,,,black_plus_sign,,,,,null,US_Cities_List/huntsville.png,US_Cities_List/hotsprings.png,,,,,,,,,,,,,,,,,,
null,,black_cross(without_color),754425,,,blue,,,,,null,US_Cities_List/huntsville.png,US_Cities_List/hotsprings.png,,,,,,,,,,,,,,,,,,
null,,rt_plussign_withcolor,754928,,,blue,,,,,null,US_Cities_List/huntsville.png,US_Cities_List/hotsprings.png,,,,,,,,,,,,,,,,,,
1142.3999999985099,,rt_thecrossant_black,756319,,,black_plus_sign,,,,,49,,,1,0.98,,,,,,,,,,,,,,,,
null,,color_black,756423,,,black_plus_sign,,,,,null,,,,,,,,,,,,,,,,,,,,
null,,learn_phase(without_color),759456,,,black_plus_sign,,,,,null,US_Cities_List/carmel.png,US_Cities_List/racine.png,,,,,,,,,,,,,,,,,,
null,,black_cross(without_color),760335,,,blue,,,,,null,US_Cities_List/carmel.png,US_Cities_List/racine.png,,,,,,,,,,,,,,,,,,
null,,rt_plussign_withcolor,760838,,,blue,,,,,null,US_Cities_List/carmel.png,US_Cities_List/racine.png,,,,,,,,,,,,,,,,,,
743,,rt_thecrossant_black,761967,,,black_plus_sign,,,,,49,,,1,0.9801980198019802,,,,,,,,,,,,,,,,
null,,color_black,762071,,,black_plus_sign,,,,,null,,,,,,,,,,,,,,,,,,,,
null,,learn_phase(without_color),765104,,,black_plus_sign,,,,,null,US_Cities_List/racine.png,US_Cities_List/carmel.png,,,,,,,,,,,,,,,,,,
null,,black_cross(without_color),765999,,,blue,,,,,null,US_Cities_List/racine.png,US_Cities_List/carmel.png,,,,,,,,,,,,,,,,,,
496.69999999925494,,rt_plussign_withcolor,766501,,,blue,,,,,49,US_Cities_List/racine.png,US_Cities_List/carmel.png,,,,,,,,,,,,,,,,,,
null,,rt_thecrossant_black,767612,,,black_plus_sign,,,,,null,,,1,0.9803921568627451,,,,,,,,,,,,,,,,
null,,color_black,767716,,,black_plus_sign,,,,,null,,,,,,,,,,,,,,,,,,,,
null,,learn_phase(without_color),770746,,,black_plus_sign,,,,,null,US_Cities_List/westpalmbeach.png,US_Cities_List/gatlinburg.png,,,,,,,,,,,,,,,,,,
null,,black_cross(without_color),771737,,,yellow,,,,,null,US_Cities_List/westpalmbeach.png,US_Cities_List/gatlinburg.png,,,,,,,,,,,,,,,,,,
326.9000000022352,,rt_plussign_withcolor,772240,,,yellow,,,,,50,US_Cities_List/westpalmbeach.png,US_Cities_List/gatlinburg.png,,,,,,,,,,,,,,,,,,
null,,rt_thecrossant_black,773256,,,black_plus_sign,,,,,null,,,1,0.9805825242718447,,,,,,,,,,,,,,,,
null,,color_black,773360,,,black_plus_sign,,,,,null,,,,,,,,,,,,,,,,,,,,
null,,learn_phase(without_color),776388,,,black_plus_sign,,,,,null,US_Cities_List/westpalmbeach.png,US_Cities_List/shreveport.png,,,,,,,,,,,,,,,,,,
null,,black_cross(without_color),777046,,,blue,,,,,null,US_Cities_List/westpalmbeach.png,US_Cities_List/shreveport.png,,,,,,,,,,,,,,,,,,
null,,rt_plussign_withcolor,777548,,,blue,,,,,null,US_Cities_List/westpalmbeach.png,US_Cities_List/shreveport.png,,,,,,,,,,,,,,,,,,
1132,,rt_thecrossant_black,778896,,,black_plus_sign,,,,,49,,,1,0.9807692307692307,,,,,,,,,,,,,,,,
null,,color_black,779000,,,black_plus_sign,,,,,null,,,,,,,,,,,,,,,,,,,,
null,,learn_phase(without_color),782036,,,black_plus_sign,,,,,null,US_Cities_List/cornwall.png,US_Cities_List/hanover.png,,,,,,,,,,,,,,,,,,
null,,black_cross(without_color),782787,,,yellow,,,,,null,US_Cities_List/cornwall.png,US_Cities_List/hanover.png,,,,,,,,,,,,,,,,,,
470,,rt_plussign_withcolor,783290,,,yellow,,,,,50,US_Cities_List/cornwall.png,US_Cities_List/hanover.png,,,,,,,,,,,,,,,,,,
null,,rt_thecrossant_black,784547,,,black_plus_sign,,,,,null,,,1,0.9809523809523809,,,,,,,,,,,,,,,,
null,,color_black,784651,,,black_plus_sign,,,,,null,,,,,,,,,,,,,,,,,,,,
null,,learn_phase(without_color),787680,,,black_plus_sign,,,,,null,US_Cities_List/westpalmbeach.png,US_Cities_List/gatlinburg.png,,,,,,,,,,,,,,,,,,
null,,black_cross(without_color),788091,,,yellow,,,,,null,US_Cities_List/westpalmbeach.png,US_Cities_List/gatlinburg.png,,,,,,,,,,,,,,,,,,
null,,rt_plussign_withcolor,788593,,,yellow,,,,,null,US_Cities_List/westpalmbeach.png,US_Cities_List/gatlinburg.png,,,,,,,,,,,,,,,,,,
1201.1000000014901,,rt_thecrossant_black,790188,,,black_plus_sign,,,,,50,,,1,0.9811320754716981,,,,,,,,,,,,,,,,
null,,color_black,790292,,,black_plus_sign,,,,,null,,,,,,,,,,,,,,,,,,,,
null,,learn_phase(without_color),793308,,,black_plus_sign,,,,,null,US_Cities_List/westpalmbeach.png,US_Cities_List/shreveport.png,,,,,,,,,,,,,,,,,,
null,,black_cross(without_color),794087,,,blue,,,,,null,US_Cities_List/westpalmbeach.png,US_Cities_List/shreveport.png,,,,,,,,,,,,,,,,,,
313.20000000298023,,rt_plussign_withcolor,794590,,,blue,,,,,49,US_Cities_List/westpalmbeach.png,US_Cities_List/shreveport.png,,,,,,,,,,,,,,,,,,
null,,rt_thecrossant_black,795819,,,black_plus_sign,,,,,null,,,1,0.9813084112149533,,,,,,,,,,,,,,,,
null,,color_black,795923,,,black_plus_sign,,,,,null,,,,,,,,,,,,,,,,,,,,
null,,learn_phase(without_color),798932,,,black_plus_sign,,,,,null,US_Cities_List/hanover.png,US_Cities_List/shreveport.png,,,,,,,,,,,,,,,,,,
null,,black_cross(without_color),799554,,,yellow,,,,,null,US_Cities_List/hanover.png,US_Cities_List/shreveport.png,,,,,,,,,,,,,,,,,,
null,,rt_plussign_withcolor,800057,,,yellow,,,,,null,US_Cities_List/hanover.png,US_Cities_List/shreveport.png,,,,,,,,,,,,,,,,,,
957.2999999970198,,rt_thecrossant_black,801442,,,black_plus_sign,,,,,50,,,1,0.9814814814814815,,,,,,,,,,,,,,,,
null,,color_black,801547,,,black_plus_sign,,,,,null,,,,,,,,,,,,,,,,,,,,
null,,learn_phase(without_color),804562,,,black_plus_sign,,,,,null,US_Cities_List/gatlinburg.png,US_Cities_List/westpalmbeach.png,,,,,,,,,,,,,,,,,,
null,,black_cross(without_color),805241,,,yellow,,,,,null,US_Cities_List/gatlinburg.png,US_Cities_List/westpalmbeach.png,,,,,,,,,,,,,,,,,,
386.0999999977648,,rt_plussign_withcolor,805744,,,yellow,,,,,50,US_Cities_List/gatlinburg.png,US_Cities_List/westpalmbeach.png,,,,,,,,,,,,,,,,,,
null,,rt_thecrossant_black,807072,,,black_plus_sign,,,,,null,,,1,0.981651376146789,,,,,,,,,,,,,,,,
null,,color_black,807177,,,black_plus_sign,,,,,null,,,,,,,,,,,,,,,,,,,,
null,,learn_phase(without_color),810203,,,black_plus_sign,,,,,null,US_Cities_List/carmel.png,US_Cities_List/leesburg.png,,,,,,,,,,,,,,,,,,
null,,black_cross(without_color),811035,,,yellow,,,,,null,US_Cities_List/carmel.png,US_Cities_List/leesburg.png,,,,,,,,,,,,,,,,,,
null,,rt_plussign_withcolor,811540,,,yellow,,,,,null,US_Cities_List/carmel.png,US_Cities_List/leesburg.png,,,,,,,,,,,,,,,,,,
885,,rt_thecrossant_black,812717,,,black_plus_sign,,,,,50,,,1,0.9818181818181818,,,,,,,,,,,,,,,,
null,,color_black,812821,,,black_plus_sign,,,,,null,,,,,,,,,,,,,,,,,,,,
null,,learn_phase(without_color),815838,,,black_plus_sign,,,,,null,US_Cities_List/gatlinburg.png,US_Cities_List/shreveport.png,,,,,,,,,,,,,,,,,,
null,,black_cross(without_color),816818,,,yellow,,,,,null,US_Cities_List/gatlinburg.png,US_Cities_List/shreveport.png,,,,,,,,,,,,,,,,,,
null,,rt_plussign_withcolor,817321,,,yellow,,,,,null,US_Cities_List/gatlinburg.png,US_Cities_List/shreveport.png,,,,,,,,,,,,,,,,,,
941.3000000007451,,rt_thecrossant_black,818349,,,black_plus_sign,,,,,50,,,1,0.9819819819819819,,,,,,,,,,,,,,,,
null,,color_black,818453,,,black_plus_sign,,,,,null,,,,,,,,,,,,,,,,,,,,
null,,learn_phase(without_color),821482,,,black_plus_sign,,,,,null,US_Cities_List/leesburg.png,US_Cities_List/hotsprings.png,,,,,,,,,,,,,,,,,,
null,,black_cross(without_color),822412,,,blue,,,,,null,US_Cities_List/leesburg.png,US_Cities_List/hotsprings.png,,,,,,,,,,,,,,,,,,
null,,rt_plussign_withcolor,822915,,,blue,,,,,null,US_Cities_List/leesburg.png,US_Cities_List/hotsprings.png,,,,,,,,,,,,,,,,,,
1227.5999999977648,,rt_thecrossant_black,823992,,,black_plus_sign,,,,,49,,,1,0.9821428571428571,,,,,,,,,,,,,,,,
null,,color_black,824096,,,black_plus_sign,,,,,null,,,,,,,,,,,,,,,,,,,,
null,,learn_phase(without_color),827118,,,black_plus_sign,,,,,null,US_Cities_List/hotsprings.png,US_Cities_List/huntsville.png,,,,,,,,,,,,,,,,,,
null,,black_cross(without_color),828028,,,blue,,,,,null,US_Cities_List/hotsprings.png,US_Cities_List/huntsville.png,,,,,,,,,,,,,,,,,,
468.80000000074506,,rt_plussign_withcolor,828531,,,blue,,,,,49,US_Cities_List/hotsprings.png,US_Cities_List/huntsville.png,,,,,,,,,,,,,,,,,,
null,,rt_thecrossant_black,829629,,,black_plus_sign,,,,,null,,,1,0.9823008849557522,,,,,,,,,,,,,,,,
null,,color_black,829734,,,black_plus_sign,,,,,null,,,,,,,,,,,,,,,,,,,,
null,,learn_phase(without_color),832765,,,black_plus_sign,,,,,null,US_Cities_List/leesburg.png,US_Cities_List/carmel.png,,,,,,,,,,,,,,,,,,
null,,black_cross(without_color),833236,,,yellow,,,,,null,US_Cities_List/leesburg.png,US_Cities_List/carmel.png,,,,,,,,,,,,,,,,,,
null,,rt_plussign_withcolor,833739,,,yellow,,,,,null,US_Cities_List/leesburg.png,US_Cities_List/carmel.png,,,,,,,,,,,,,,,,,,
1084.1000000014901,,rt_thecrossant_black,835275,,,black_plus_sign,,,,,50,,,1,0.9824561403508771,,,,,,,,,,,,,,,,
null,,color_black,835378,,,black_plus_sign,,,,,null,,,,,,,,,,,,,,,,,,,,
null,,learn_phase(without_color),838402,,,black_plus_sign,,,,,null,US_Cities_List/hanover.png,US_Cities_List/cornwall.png,,,,,,,,,,,,,,,,,,
null,,black_cross(without_color),839013,,,yellow,,,,,null,US_Cities_List/hanover.png,US_Cities_List/cornwall.png,,,,,,,,,,,,,,,,,,
null,,rt_plussign_withcolor,839516,,,yellow,,,,,null,US_Cities_List/hanover.png,US_Cities_List/cornwall.png,,,,,,,,,,,,,,,,,,
732.3000000007451,,rt_thecrossant_black,840913,,,black_plus_sign,,,,,50,,,1,0.9826086956521739,,,,,,,,,,,,,,,,
null,,color_black,841017,,,black_plus_sign,,,,,null,,,,,,,,,,,,,,,,,,,,
null,,learn_phase(without_color),844042,,,black_plus_sign,,,,,null,US_Cities_List/shreveport.png,US_Cities_List/hanover.png,,,,,,,,,,,,,,,,,,
null,,black_cross(without_color),844990,,,blue,,,,,null,US_Cities_List/shreveport.png,US_Cities_List/hanover.png,,,,,,,,,,,,,,,,,,
477.0999999977648,,rt_plussign_withcolor,845493,,,blue,,,,,49,US_Cities_List/shreveport.png,US_Cities_List/hanover.png,,,,,,,,,,,,,,,,,,
null,,rt_thecrossant_black,846554,,,black_plus_sign,,,,,null,,,1,0.9827586206896551,,,,,,,,,,,,,,,,
null,,color_black,846658,,,black_plus_sign,,,,,null,,,,,,,,,,,,,,,,,,,,
null,,learn_phase(without_color),849686,,,black_plus_sign,,,,,null,US_Cities_List/boulder.png,US_Cities_List/peoria.png,,,,,,,,,,,,,,,,,,
null,,black_cross(without_color),850292,,,yellow,,,,,null,US_Cities_List/boulder.png,US_Cities_List/peoria.png,,,,,,,,,,,,,,,,,,
408.19999999925494,,rt_plussign_withcolor,850795,,,yellow,,,,,50,US_Cities_List/boulder.png,US_Cities_List/peoria.png,,,,,,,,,,,,,,,,,,
null,,rt_thecrossant_black,852197,,,black_plus_sign,,,,,null,,,1,0.9829059829059829,,,,,,,,,,,,,,,,
null,,color_black,852301,,,black_plus_sign,,,,,null,,,,,,,,,,,,,,,,,,,,
null,,learn_phase(without_color),855330,,,black_plus_sign,,,,,null,US_Cities_List/carmel.png,US_Cities_List/westpalmbeach.png,,,,,,,,,,,,,,,,,,
null,,black_cross(without_color),856296,,,yellow,,,,,null,US_Cities_List/carmel.png,US_Cities_List/westpalmbeach.png,,,,,,,,,,,,,,,,,,
null,,rt_plussign_withcolor,856799,,,yellow,,,,,null,US_Cities_List/carmel.png,US_Cities_List/westpalmbeach.png,,,,,,,,,,,,,,,,,,
882.5999999977648,,rt_thecrossant_black,857840,,,black_plus_sign,,,,,50,,,1,0.9830508474576272,,,,,,,,,,,,,,,,
null,,color_black,857945,,,black_plus_sign,,,,,null,,,,,,,,,,,,,,,,,,,,
null,,learn_phase(without_color),860970,,,black_plus_sign,,,,,null,US_Cities_List/shreveport.png,US_Cities_List/hanover.png,,,,,,,,,,,,,,,,,,
null,,black_cross(without_color),861540,,,blue,,,,,null,US_Cities_List/shreveport.png,US_Cities_List/hanover.png,,,,,,,,,,,,,,,,,,
null,,rt_plussign_withcolor,862043,,,blue,,,,,null,US_Cities_List/shreveport.png,US_Cities_List/hanover.png,,,,,,,,,,,,,,,,,,
1205.699999999255,,rt_thecrossant_black,863481,,,black_plus_sign,,,,,49,,,1,0.9831932773109243,,,,,,,,,,,,,,,,
null,,color_black,863585,,,black_plus_sign,,,,,null,,,,,,,,,,,,,,,,,,,,
null,,learn_phase(without_color),866615,,,black_plus_sign,,,,,null,US_Cities_List/leesburg.png,US_Cities_List/carmel.png,,,,,,,,,,,,,,,,,,
null,,black_cross(without_color),867675,,,blue,,,,,null,US_Cities_List/leesburg.png,US_Cities_List/carmel.png,,,,,,,,,,,,,,,,,,
374.30000000074506,,rt_plussign_withcolor,868178,,,blue,,,,,49,US_Cities_List/leesburg.png,US_Cities_List/carmel.png,,,,,,,,,,,,,,,,,,
null,,rt_thecrossant_black,869124,,,black_plus_sign,,,,,null,,,1,0.9833333333333333,,,,,,,,,,,,,,,,
null,,color_black,869228,,,black_plus_sign,,,,,null,,,,,,,,,,,,,,,,,,,,
null,,learn_phase(without_color),872258,,,black_plus_sign,,,,,null,US_Cities_List/leesburg.png,US_Cities_List/hotsprings.png,,,,,,,,,,,,,,,,,,
null,,black_cross(without_color),872892,,,yellow,,,,,null,US_Cities_List/leesburg.png,US_Cities_List/hotsprings.png,,,,,,,,,,,,,,,,,,
null,,rt_plussign_withcolor,873395,,,yellow,,,,,null,US_Cities_List/leesburg.png,US_Cities_List/hotsprings.png,,,,,,,,,,,,,,,,,,
1242.699999999255,,rt_thecrossant_black,874769,,,black_plus_sign,,,,,50,,,1,0.9834710743801653,,,,,,,,,,,,,,,,
null,,color_black,874873,,,black_plus_sign,,,,,null,,,,,,,,,,,,,,,,,,,,
null,,learn_phase(without_color),877906,,,black_plus_sign,,,,,null,US_Cities_List/racine.png,US_Cities_List/peoria.png,,,,,,,,,,,,,,,,,,
null,,black_cross(without_color),878588,,,yellow,,,,,null,US_Cities_List/racine.png,US_Cities_List/peoria.png,,,,,,,,,,,,,,,,,,
null,,rt_plussign_withcolor,879091,,,yellow,,,,,null,US_Cities_List/racine.png,US_Cities_List/peoria.png,,,,,,,,,,,,,,,,,,
922.8999999985099,,rt_thecrossant_black,880416,,,black_plus_sign,,,,,50,,,1,0.9836065573770492,,,,,,,,,,,,,,,,
null,,color_black,880519,,,black_plus_sign,,,,,null,,,,,,,,,,,,,,,,,,,,
null,,learn_phase(without_color),883545,,,black_plus_sign,,,,,null,US_Cities_List/westpalmbeach.png,US_Cities_List/hanover.png,,,,,,,,,,,,,,,,,,
null,,black_cross(without_color),884263,,,yellow,,,,,null,US_Cities_List/westpalmbeach.png,US_Cities_List/hanover.png,,,,,,,,,,,,,,,,,,
null,,rt_plussign_withcolor,884766,,,yellow,,,,,null,US_Cities_List/westpalmbeach.png,US_Cities_List/hanover.png,,,,,,,,,,,,,,,,,,
888.7000000029802,,rt_thecrossant_black,886056,,,black_plus_sign,,,,,50,,,1,0.983739837398374,,,,,,,,,,,,,,,,
null,,color_black,886159,,,black_plus_sign,,,,,null,,,,,,,,,,,,,,,,,,,,
null,,learn_phase(without_color),889172,,,black_plus_sign,,,,,null,US_Cities_List/carmel.png,US_Cities_List/leesburg.png,,,,,,,,,,,,,,,,,,
null,,black_cross(without_color),889888,,,blue,,,,,null,US_Cities_List/carmel.png,US_Cities_List/leesburg.png,,,,,,,,,,,,,,,,,,
485.1000000014901,,rt_plussign_withcolor,890391,,,blue,,,,,50,US_Cities_List/carmel.png,US_Cities_List/leesburg.png,,,,,,,,,,,,,,,,,,
null,,rt_thecrossant_black,891682,,,black_plus_sign,,,,,null,,,0,0.9758064516129032,,,,,,,,,,,,,,,,
null,,color_black,891786,,,black_plus_sign,,,,,null,,,,,,,,,,,,,,,,,,,,
null,,learn_phase(without_color),894814,,,black_plus_sign,,,,,null,US_Cities_List/shreveport.png,US_Cities_List/westpalmbeach.png,,,,,,,,,,,,,,,,,,
null,,black_cross(without_color),895631,,,yellow,,,,,null,US_Cities_List/shreveport.png,US_Cities_List/westpalmbeach.png,,,,,,,,,,,,,,,,,,
null,,rt_plussign_withcolor,896134,,,yellow,,,,,null,US_Cities_List/shreveport.png,US_Cities_List/westpalmbeach.png,,,,,,,,,,,,,,,,,,
1047.5,,rt_thecrossant_black,897325,,,black_plus_sign,,,,,50,,,1,0.976,,,,,,,,,,,,,,,,
null,,color_black,897429,,,black_plus_sign,,,,,null,,,,,,,,,,,,,,,,,,,,
null,,learn_phase(without_color),900461,,,black_plus_sign,,,,,null,US_Cities_List/leesburg.png,US_Cities_List/gatlinburg.png,,,,,,,,,,,,,,,,,,
null,,black_cross(without_color),901243,,,yellow,,,,,null,US_Cities_List/leesburg.png,US_Cities_List/gatlinburg.png,,,,,,,,,,,,,,,,,,
488.70000000298023,,rt_plussign_withcolor,901746,,,yellow,,,,,50,US_Cities_List/leesburg.png,US_Cities_List/gatlinburg.png,,,,,,,,,,,,,,,,,,
null,,rt_thecrossant_black,902972,,,black_plus_sign,,,,,null,,,1,0.9761904761904762,,,,,,,,,,,,,,,,
null,,color_black,903076,,,black_plus_sign,,,,,null,,,,,,,,,,,,,,,,,,,,
null,,learn_phase(without_color),906113,,,black_plus_sign,,,,,null,US_Cities_List/cornwall.png,US_Cities_List/hanover.png,,,,,,,,,,,,,,,,,,
null,,black_cross(without_color),907036,,,yellow,,,,,null,US_Cities_List/cornwall.png,US_Cities_List/hanover.png,,,,,,,,,,,,,,,,,,
null,,rt_plussign_withcolor,907539,,,yellow,,,,,null,US_Cities_List/cornwall.png,US_Cities_List/hanover.png,,,,,,,,,,,,,,,,,,
895.1999999992549,,rt_thecrossant_black,908624,,,black_plus_sign,,,,,50,,,1,0.9763779527559056,,,,,,,,,,,,,,,,
null,,color_black,908728,,,black_plus_sign,,,,,null,,,,,,,,,,,,,,,,,,,,
null,,learn_phase(without_color),911756,,,black_plus_sign,,,,,null,US_Cities_List/gatlinburg.png,US_Cities_List/shreveport.png,,,,,,,,,,,,,,,,,,
null,,black_cross(without_color),912306,,,blue,,,,,null,US_Cities_List/gatlinburg.png,US_Cities_List/shreveport.png,,,,,,,,,,,,,,,,,,
316.5,,rt_plussign_withcolor,912809,,,blue,,,,,49,US_Cities_List/gatlinburg.png,US_Cities_List/shreveport.png,,,,,,,,,,,,,,,,,,
null,,rt_thecrossant_black,914267,,,black_plus_sign,,,,,null,,,1,0.9765625,,,,,,,,,,,,,,,,
null,,color_black,914372,,,black_plus_sign,,,,,null,,,,,,,,,,,,,,,,,,,,
18276.5,,learn_break,932654,,,learn_break,,,,,32,,,,,,,,,,,,,,,,,,,,
5311.199999999255,,intro_1,937968,,,instruct,,,0,,,,,,,,,,,,,,,,,,,,,,
8616.800000000745,,intro_2,946587,,,instruct,,,1,Next,,,,,,,,,,,,,,,,,,,,,
5479.5,,directmemory_phase,952084,,,../static/images/US_Cities_List/westpalmbeach.png,,,,,49,,,1,1,../static/images/US_Cities_List/hanover.png,../static/images/US_Cities_List/hotsprings.png,../static/images/US_Cities_List/racine.png,../static/images/US_Cities_List/hanover.png,../static/images/US_Cities_List/racine.png,../static/images/US_Cities_List/hotsprings.png,1,,,,,,,,,
null,,html-keyboard-response,953089,,,<p></p>,,,,,null,,,,,,,,,,,,,,,,,,,,
1661.9000000022352,,directmemory_phase,954764,,,../static/images/US_Cities_List/huntsville.png,,,,,49,,,1,1,../static/images/US_Cities_List/hotsprings.png,../static/images/US_Cities_List/boulder.png,../static/images/US_Cities_List/leesburg.png,../static/images/US_Cities_List/hotsprings.png,../static/images/US_Cities_List/leesburg.png,../static/images/US_Cities_List/boulder.png,1,,,,,,,,,
null,,html-keyboard-response,955769,,,<p></p>,,,,,null,,,,,,,,,,,,,,,,,,,,
1963.199999999255,,directmemory_phase,957747,,,../static/images/US_Cities_List/hanover.png,,,,,51,,,1,1,../static/images/US_Cities_List/hotsprings.png,../static/images/US_Cities_List/gatlinburg.png,../static/images/US_Cities_List/shreveport.png,../static/images/US_Cities_List/shreveport.png,../static/images/US_Cities_List/gatlinburg.png,../static/images/US_Cities_List/hotsprings.png,1,,,,,,,,,
null,,html-keyboard-response,958751,,,<p></p>,,,,,null,,,,,,,,,,,,,,,,,,,,
1578.6000000014901,,directmemory_phase,960345,,,../static/images/US_Cities_List/carmel.png,,,,,49,,,1,1,../static/images/US_Cities_List/westpalmbeach.png,../static/images/US_Cities_List/boulder.png,../static/images/US_Cities_List/peoria.png,../static/images/US_Cities_List/westpalmbeach.png,../static/images/US_Cities_List/peoria.png,../static/images/US_Cities_List/boulder.png,1,,,,,,,,,
null,,html-keyboard-response,961349,,,<p></p>,,,,,null,,,,,,,,,,,,,,,,,,,,
2219.300000000745,,directmemory_phase,963584,,,../static/images/US_Cities_List/hotsprings.png,,,,,49,,,1,1,../static/images/US_Cities_List/leesburg.png,../static/images/US_Cities_List/hanover.png,../static/images/US_Cities_List/carmel.png,../static/images/US_Cities_List/leesburg.png,../static/images/US_Cities_List/carmel.png,../static/images/US_Cities_List/hanover.png,1,,,,,,,,,
null,,html-keyboard-response,964588,,,<p></p>,,,,,null,,,,,,,,,,,,,,,,,,,,
3057.900000002235,,directmemory_phase,967661,,,../static/images/US_Cities_List/peoria.png,,,,,51,,,1,1,../static/images/US_Cities_List/westpalmbeach.png,../static/images/US_Cities_List/huntsville.png,../static/images/US_Cities_List/racine.png,../static/images/US_Cities_List/racine.png,../static/images/US_Cities_List/huntsville.png,../static/images/US_Cities_List/westpalmbeach.png,1,,,,,,,,,
null,,html-keyboard-response,968668,,,<p></p>,,,,,null,,,,,,,,,,,,,,,,,,,,
1336.199999999255,,directmemory_phase,970017,,,../static/images/US_Cities_List/gatlinburg.png,,,,,51,,,1,1,../static/images/US_Cities_List/huntsville.png,../static/images/US_Cities_List/hanover.png,../static/images/US_Cities_List/shreveport.png,../static/images/US_Cities_List/shreveport.png,../static/images/US_Cities_List/hanover.png,../static/images/US_Cities_List/huntsville.png,1,,,,,,,,,
null,,html-keyboard-response,971021,,,<p></p>,,,,,null,,,,,,,,,,,,,,,,,,,,
3325.7000000029802,,directmemory_phase,974362,,,../static/images/US_Cities_List/hotsprings.png,,,,,51,,,1,1,../static/images/US_Cities_List/newhope.png,../static/images/US_Cities_List/boulder.png,../static/images/US_Cities_List/peoria.png,../static/images/US_Cities_List/peoria.png,../static/images/US_Cities_List/boulder.png,../static/images/US_Cities_List/newhope.png,1,,,,,,,,,
null,,html-keyboard-response,975367,,,<p></p>,,,,,null,,,,,,,,,,,,,,,,,,,,
2759.2000000029802,,directmemory_phase,978146,,,../static/images/US_Cities_List/carmel.png,,,,,50,,,0,0.8888888888888888,../static/images/US_Cities_List/cornwall.png,../static/images/US_Cities_List/hotsprings.png,../static/images/US_Cities_List/leesburg.png,../static/images/US_Cities_List/leesburg.png,../static/images/US_Cities_List/hotsprings.png,../static/images/US_Cities_List/cornwall.png,0.5,closer,,,,,,,,
null,,html-keyboard-response,979150,,,<p></p>,,,,,null,,,,,,,,,,,,,,,,,,,,
1723.6000000014901,,directmemory_phase,980887,,,../static/images/US_Cities_List/hotsprings.png,,,,,49,,,1,0.9,../static/images/US_Cities_List/huntsville.png,../static/images/US_Cities_List/westpalmbeach.png,../static/images/US_Cities_List/boulder.png,../static/images/US_Cities_List/huntsville.png,../static/images/US_Cities_List/boulder.png,../static/images/US_Cities_List/westpalmbeach.png,1,,,,,,,,,
null,,html-keyboard-response,981891,,,<p></p>,,,,,null,,,,,,,,,,,,,,,,,,,,
1594.8999999985099,,directmemory_phase,983502,,,../static/images/US_Cities_List/westpalmbeach.png,,,,,51,,,1,0.9090909090909091,../static/images/US_Cities_List/boulder.png,../static/images/US_Cities_List/leesburg.png,../static/images/US_Cities_List/carmel.png,../static/images/US_Cities_List/carmel.png,../static/images/US_Cities_List/leesburg.png,../static/images/US_Cities_List/boulder.png,1,,,,,,,,,
null,,html-keyboard-response,984508,,,<p></p>,,,,,null,,,,,,,,,,,,,,,,,,,,
1821,,directmemory_phase,986348,,,../static/images/US_Cities_List/hanover.png,,,,,51,,,1,0.9166666666666666,../static/images/US_Cities_List/peoria.png,../static/images/US_Cities_List/gatlinburg.png,../static/images/US_Cities_List/cornwall.png,../static/images/US_Cities_List/cornwall.png,../static/images/US_Cities_List/gatlinburg.png,../static/images/US_Cities_List/peoria.png,1,,,,,,,,,
null,,html-keyboard-response,987353,,,<p></p>,,,,,null,,,,,,,,,,,,,,,,,,,,
3660.599999997765,,directmemory_phase,991034,,,../static/images/US_Cities_List/leesburg.png,,,,,51,,,0,0.8461538461538461,../static/images/US_Cities_List/carmel.png,../static/images/US_Cities_List/cornwall.png,../static/images/US_Cities_List/racine.png,../static/images/US_Cities_List/carmel.png,../static/images/US_Cities_List/racine.png,../static/images/US_Cities_List/cornwall.png,0.5,closer,,,,,,,,
null,,html-keyboard-response,992038,,,<p></p>,,,,,null,,,,,,,,,,,,,,,,,,,,
1068.2999999970198,,directmemory_phase,993122,,,../static/images/US_Cities_List/hanover.png,,,,,50,,,1,0.8571428571428571,../static/images/US_Cities_List/carmel.png,../static/images/US_Cities_List/westpalmbeach.png,../static/images/US_Cities_List/leesburg.png,../static/images/US_Cities_List/westpalmbeach.png,../static/images/US_Cities_List/carmel.png,../static/images/US_Cities_List/leesburg.png,1,,,,,,,,,
null,,html-keyboard-response,994127,,,<p></p>,,,,,null,,,,,,,,,,,,,,,,,,,,
2361.800000000745,,directmemory_phase,996504,,,../static/images/US_Cities_List/racine.png,,,,,49,,,0,0.8,../static/images/US_Cities_List/shreveport.png,../static/images/US_Cities_List/boulder.png,../static/images/US_Cities_List/carmel.png,../static/images/US_Cities_List/carmel.png,../static/images/US_Cities_List/boulder.png,../static/images/US_Cities_List/shreveport.png,0.5,closer,,,,,,,,
null,,html-keyboard-response,997508,,,<p></p>,,,,,null,,,,,,,,,,,,,,,,,,,,
1514.6000000014901,,directmemory_phase,999041,,,../static/images/US_Cities_List/gatlinburg.png,,,,,51,,,1,0.8125,../static/images/US_Cities_List/peoria.png,../static/images/US_Cities_List/hotsprings.png,../static/images/US_Cities_List/leesburg.png,../static/images/US_Cities_List/leesburg.png,../static/images/US_Cities_List/hotsprings.png,../static/images/US_Cities_List/peoria.png,1,,,,,,,,,
null,,html-keyboard-response,1000045,,,<p></p>,,,,,null,,,,,,,,,,,,,,,,,,,,
1015.6999999992549,,directmemory_phase,1001077,,,../static/images/US_Cities_List/boulder.png,,,,,51,,,1,0.8235294117647058,../static/images/US_Cities_List/leesburg.png,../static/images/US_Cities_List/hotsprings.png,../static/images/US_Cities_List/peoria.png,../static/images/US_Cities_List/peoria.png,../static/images/US_Cities_List/hotsprings.png,../static/images/US_Cities_List/leesburg.png,1,,,,,,,,,
null,,html-keyboard-response,1002086,,,<p></p>,,,,,null,,,,,,,,,,,,,,,,,,,,
2184.699999999255,,directmemory_phase,1004313,,,../static/images/US_Cities_List/newhope.png,,,,,50,,,0,0.7777777777777778,../static/images/US_Cities_List/carmel.png,../static/images/US_Cities_List/hanover.png,../static/images/US_Cities_List/shreveport.png,../static/images/US_Cities_List/shreveport.png,../static/images/US_Cities_List/hanover.png,../static/images/US_Cities_List/carmel.png,0.5,closer,,,,,,,,
null,,html-keyboard-response,1005320,,,<p></p>,,,,,null,,,,,,,,,,,,,,,,,,,,
2117.099999997765,,directmemory_phase,1007456,,,../static/images/US_Cities_List/cornwall.png,,,,,49,,,1,0.7894736842105263,../static/images/US_Cities_List/hanover.png,../static/images/US_Cities_List/carmel.png,../static/images/US_Cities_List/westpalmbeach.png,../static/images/US_Cities_List/hanover.png,../static/images/US_Cities_List/westpalmbeach.png,../static/images/US_Cities_List/carmel.png,1,,,,,,,,,
null,,html-keyboard-response,1008461,,,<p></p>,,,,,null,,,,,,,,,,,,,,,,,,,,
1663.1000000014901,,directmemory_phase,1010163,,,../static/images/US_Cities_List/shreveport.png,,,,,51,,,1,0.8,../static/images/US_Cities_List/peoria.png,../static/images/US_Cities_List/cornwall.png,../static/images/US_Cities_List/newhope.png,../static/images/US_Cities_List/newhope.png,../static/images/US_Cities_List/cornwall.png,../static/images/US_Cities_List/peoria.png,1,,,,,,,,,
null,,html-keyboard-response,1011172,,,<p></p>,,,,,null,,,,,,,,,,,,,,,,,,,,
2283.199999999255,,directmemory_phase,1013469,,,../static/images/US_Cities_List/gatlinburg.png,,,,,49,,,1,0.8095238095238095,../static/images/US_Cities_List/westpalmbeach.png,../static/images/US_Cities_List/huntsville.png,../static/images/US_Cities_List/carmel.png,../static/images/US_Cities_List/westpalmbeach.png,../static/images/US_Cities_List/carmel.png,../static/images/US_Cities_List/huntsville.png,1,,,,,,,,,
null,,html-keyboard-response,1014481,,,<p></p>,,,,,null,,,,,,,,,,,,,,,,,,,,
2538.699999999255,,directmemory_phase,1017072,,,../static/images/US_Cities_List/shreveport.png,,,,,50,,,1,0.8181818181818182,../static/images/US_Cities_List/cornwall.png,../static/images/US_Cities_List/hanover.png,../static/images/US_Cities_List/racine.png,../static/images/US_Cities_List/hanover.png,../static/images/US_Cities_List/cornwall.png,../static/images/US_Cities_List/racine.png,1,,,,,,,,,
null,,html-keyboard-response,1018081,,,<p></p>,,,,,null,,,,,,,,,,,,,,,,,,,,
897.3000000007451,,directmemory_phase,1019026,,,../static/images/US_Cities_List/peoria.png,,,,,51,,,1,0.8260869565217391,../static/images/US_Cities_List/gatlinburg.png,../static/images/US_Cities_List/leesburg.png,../static/images/US_Cities_List/hotsprings.png,../static/images/US_Cities_List/hotsprings.png,../static/images/US_Cities_List/leesburg.png,../static/images/US_Cities_List/gatlinburg.png,1,,,,,,,,,
null,,html-keyboard-response,1020035,,,<p></p>,,,,,null,,,,,,,,,,,,,,,,,,,,
1331.5999999977648,,directmemory_phase,1021415,,,../static/images/US_Cities_List/shreveport.png,,,,,51,,,1,0.8333333333333334,../static/images/US_Cities_List/racine.png,../static/images/US_Cities_List/leesburg.png,../static/images/US_Cities_List/westpalmbeach.png,../static/images/US_Cities_List/westpalmbeach.png,../static/images/US_Cities_List/leesburg.png,../static/images/US_Cities_List/racine.png,1,,,,,,,,,
null,,html-keyboard-response,1022425,,,<p></p>,,,,,null,,,,,,,,,,,,,,,,,,,,
1522.3999999985099,,directmemory_phase,1023993,,,../static/images/US_Cities_List/leesburg.png,,,,,51,,,1,0.84,../static/images/US_Cities_List/newhope.png,../static/images/US_Cities_List/shreveport.png,../static/images/US_Cities_List/gatlinburg.png,../static/images/US_Cities_List/gatlinburg.png,../static/images/US_Cities_List/shreveport.png,../static/images/US_Cities_List/newhope.png,1,,,,,,,,,
null,,html-keyboard-response,1025003,,,<p></p>,,,,,null,,,,,,,,,,,,,,,,,,,,
1306.5,,directmemory_phase,1026324,,,../static/images/US_Cities_List/peoria.png,,,,,51,,,1,0.8461538461538461,../static/images/US_Cities_List/hanover.png,../static/images/US_Cities_List/carmel.png,../static/images/US_Cities_List/boulder.png,../static/images/US_Cities_List/boulder.png,../static/images/US_Cities_List/carmel.png,../static/images/US_Cities_List/hanover.png,1,,,,,,,,,
null,,html-keyboard-response,1027335,,,<p></p>,,,,,null,,,,,,,,,,,,,,,,,,,,
2231,,directmemory_phase,1029613,,,../static/images/US_Cities_List/westpalmbeach.png,,,,,51,,,1,0.8518518518518519,../static/images/US_Cities_List/peoria.png,../static/images/US_Cities_List/newhope.png,../static/images/US_Cities_List/gatlinburg.png,../static/images/US_Cities_List/gatlinburg.png,../static/images/US_Cities_List/newhope.png,../static/images/US_Cities_List/peoria.png,1,,,,,,,,,
null,,html-keyboard-response,1030623,,,<p></p>,,,,,null,,,,,,,,,,,,,,,,,,,,
1655.7999999970198,,directmemory_phase,1032323,,,../static/images/US_Cities_List/carmel.png,,,,,51,,,1,0.8571428571428571,../static/images/US_Cities_List/huntsville.png,../static/images/US_Cities_List/peoria.png,../static/images/US_Cities_List/racine.png,../static/images/US_Cities_List/racine.png,../static/images/US_Cities_List/peoria.png,../static/images/US_Cities_List/huntsville.png,1,,,,,,,,,
null,,html-keyboard-response,1033332,,,<p></p>,,,,,null,,,,,,,,,,,,,,,,,,,,
1801.6000000014901,,directmemory_phase,1035150,,,../static/images/US_Cities_List/westpalmbeach.png,,,,,49,,,1,0.8620689655172413,../static/images/US_Cities_List/shreveport.png,../static/images/US_Cities_List/huntsville.png,../static/images/US_Cities_List/cornwall.png,../static/images/US_Cities_List/shreveport.png,../static/images/US_Cities_List/cornwall.png,../static/images/US_Cities_List/huntsville.png,1,,,,,,,,,
null,,html-keyboard-response,1036160,,,<p></p>,,,,,null,,,,,,,,,,,,,,,,,,,,
3809.400000002235,,directmemory_phase,1039995,,,../static/images/US_Cities_List/racine.png,,,,,49,,,0,0.8333333333333334,../static/images/US_Cities_List/hotsprings.png,../static/images/US_Cities_List/peoria.png,../static/images/US_Cities_List/gatlinburg.png,../static/images/US_Cities_List/peoria.png,../static/images/US_Cities_List/hotsprings.png,../static/images/US_Cities_List/gatlinburg.png,0.5,closer,,,,,,,,
null,,html-keyboard-response,1041004,,,<p></p>,,,,,null,,,,,,,,,,,,,,,,,,,,
3965.199999999255,,directmemory_phase,1044987,,,../static/images/US_Cities_List/shreveport.png,,,,,51,,,0,0.8064516129032258,../static/images/US_Cities_List/gatlinburg.png,../static/images/US_Cities_List/huntsville.png,../static/images/US_Cities_List/cornwall.png,../static/images/US_Cities_List/gatlinburg.png,../static/images/US_Cities_List/cornwall.png,../static/images/US_Cities_List/huntsville.png,0.5,closer,,,,,,,,
null,,html-keyboard-response,1045995,,,<p></p>,,,,,null,,,,,,,,,,,,,,,,,,,,
2733.39999999851,,directmemory_phase,1048756,,,../static/images/US_Cities_List/leesburg.png,,,,,51,,,1,0.8125,../static/images/US_Cities_List/newhope.png,../static/images/US_Cities_List/shreveport.png,../static/images/US_Cities_List/hotsprings.png,../static/images/US_Cities_List/hotsprings.png,../static/images/US_Cities_List/shreveport.png,../static/images/US_Cities_List/newhope.png,1,,,,,,,,,
null,,html-keyboard-response,1049762,,,<p></p>,,,,,null,,,,,,,,,,,,,,,,,,,,
6884.800000000745,,intro_1,1056650,,,instruct,,,0,,,,,,,,,,,,,,,,,,,,,,
3608.800000000745,,intro_2,1060262,,,instruct,,,1,Next,,,,,,,,,,,,,,,,,,,,,
3897.300000000745,,intro_3,1064162,,,instruct,,,1,Next,,,,,,,,,,,,,,,,,,,,,
5219.699999999255,,intro_4,1069385,,,instruct,,,1,Next,,,,,,,,,,,,,,,,,,,,,
4206.199999999255,,intro_5,1073594,,,instruct,,,1,Next,,,,,,,,,,,,,,,,,,,,,
2054.599999997765,,intro_6,1075652,,,instruct,,,1,Next,,,,,,,,,,,,,,,,,,,,,
4681.699999999255,,intro_7,1080336,,,instruct,,,1,Next,,,,,,,,,,,,,,,,,,,,,
6123.800000000745,,intro_8,1086463,,,instruct,,,1,Next,,,,,,,,,,,,,,,,,,,,,
4991.300000000745,,intro_9,1091457,,,instruct,,,1,Next,,,,,,,,,,,,,,,,,,,,,
12433.800000000745,,intro_10,1103894,,,instruct,,,1,Next,,,,,,,,,,,,,,,,,,,,,
7594.39999999851,,intro_11,1111491,,,instruct,,,1,Next,,,,,,,,,,,,,,,,,,,,,
2549.199999999255,,shortestpath_phase,1114053,,,../static/images/US_Cities_List/hanover.png,,,,,50,../static/images/US_Cities_List/gatlinburg.png,../static/images/US_Cities_List/boulder.png,0,0,,,,../static/images/US_Cities_List/gatlinburg.png,,,,,Three Edge Diff,Two Edge Five Edge,,,,,,
null,,html-keyboard-response,1115057,,,<p></p>,,,,,null,,,,,,,,,,,,,,,,,,,,
2354,,shortestpath_phase,1117423,,,../static/images/US_Cities_List/hotsprings.png,,,,,50,../static/images/US_Cities_List/carmel.png,../static/images/US_Cities_List/westpalmbeach.png,0,0,,,,../static/images/US_Cities_List/carmel.png,,,,,One Edge Diff,Two Edge Three Edge,,,,,,
null,,html-keyboard-response,1118427,,,<p></p>,,,,,null,,,,,,,,,,,,,,,,,,,,
1881.800000000745,,shortestpath_phase,1120321,,,../static/images/US_Cities_List/newhope.png,,,,,50,../static/images/US_Cities_List/boulder.png,../static/images/US_Cities_List/hanover.png,1,0.3333333333333333,,,,../static/images/US_Cities_List/hanover.png,,,,,Four Edge Diff,Two Edge Six Edge,,,,,,
null,,html-keyboard-response,1121325,,,<p></p>,,,,,null,,,,,,,,,,,,,,,,,,,,
1564.5999999977648,,shortestpath_phase,1122904,,,../static/images/US_Cities_List/cornwall.png,,,,,49,../static/images/US_Cities_List/westpalmbeach.png,../static/images/US_Cities_List/boulder.png,1,0.5,,,,../static/images/US_Cities_List/westpalmbeach.png,,,,,Four Edge Diff,Two Edge Six Edge,,,,,,
null,,html-keyboard-response,1123908,,,<p></p>,,,,,null,,,,,,,,,,,,,,,,,,,,
2778.800000000745,,shortestpath_phase,1126697,,,../static/images/US_Cities_List/newhope.png,,,,,50,../static/images/US_Cities_List/huntsville.png,../static/images/US_Cities_List/hanover.png,1,0.6,,,,../static/images/US_Cities_List/hanover.png,,,,,Three Edge Diff,Two Edge Five Edge,,,,,,
null,,html-keyboard-response,1127701,,,<p></p>,,,,,null,,,,,,,,,,,,,,,,,,,,
1824.2999999970198,,shortestpath_phase,1129543,,,../static/images/US_Cities_List/leesburg.png,,,,,49,../static/images/US_Cities_List/cornwall.png,../static/images/US_Cities_List/racine.png,0,0.5,,,,../static/images/US_Cities_List/racine.png,,,,,Two Edge Diff,Two Edge Four Edge,,,,,,
null,,html-keyboard-response,1130547,,,<p></p>,,,,,null,,,,,,,,,,,,,,,,,,,,
3302.199999999255,,shortestpath_phase,1133867,,,../static/images/US_Cities_List/newhope.png,,,,,50,../static/images/US_Cities_List/cornwall.png,../static/images/US_Cities_List/peoria.png,0,0.42857142857142855,,,,../static/images/US_Cities_List/cornwall.png,,,,,Two Edge Diff,Three Edge Five Edge,,,,,,
null,,html-keyboard-response,1134875,,,<p></p>,,,,,null,,,,,,,,,,,,,,,,,,,,
1451.300000000745,,shortestpath_phase,1136365,,,../static/images/US_Cities_List/huntsville.png,,,,,49,../static/images/US_Cities_List/cornwall.png,../static/images/US_Cities_List/peoria.png,0,0.375,,,,../static/images/US_Cities_List/peoria.png,,,,,Four Edge Diff,Two Edge Six Edge,,,,,,
null,,html-keyboard-response,1137375,,,<p></p>,,,,,null,,,,,,,,,,,,,,,,,,,,
1731.3999999985099,,shortestpath_phase,1139136,,,../static/images/US_Cities_List/hanover.png,,,,,49,../static/images/US_Cities_List/hotsprings.png,../static/images/US_Cities_List/newhope.png,0,0.3333333333333333,,,,../static/images/US_Cities_List/newhope.png,,,,,Two Edge Diff,Two Edge Four Edge,,,,,,
null,,html-keyboard-response,1140145,,,<p></p>,,,,,null,,,,,,,,,,,,,,,,,,,,
