rt,responses,trial_type,time_elapsed,image_type,sequence,stimulus,cities,city_images,button_pressed,response,key_press,stimulus_left,stimulus_right,accuracy,cumulative_accuracy,stimulus_down_left,stimulus_down_mid,stimulus_down_right,stimulus_correct,stimulus_short,stimulus_far,weighted_accuracy,missedtrial,condition,specific_pairs,imgL_ID,imgR_ID,linedress,linedressed,detour_trial,linedressed_detor
6944.100000143051,{worker_id:5e3adfc595ff562fbdd130fa},id_enter,6945,fictional,interleaved,flights,Hawthorne Bluffs; Orchard Bend; Juniper Creek; Cedarwyn; Claywater; Sunmere; New Verdan; Delaro Park; Hollendale; Baymarsh; Granton Ridge; Riverlyn; North Arroya,US_Cities_List/shreveport.png; US_Cities_List/peoria.png; US_Cities_List/gatlinburg.png; US_Cities_List/huntsville.png; US_Cities_List/boulder.png; US_Cities_List/hotsprings.png; US_Cities_List/racine.png; US_Cities_List/cornwall.png; US_Cities_List/carmel.png; US_Cities_List/leesburg.png; US_Cities_List/hanover.png; US_Cities_List/westpalmbeach.png; US_Cities_List/newhope.png,,,,,,,,,,,,,,,,,,,,,,,
3099.699999809265,,fullscreen,10048,,,make_fullscreen,,,0,,,,,,,,,,,,,,,,,,,,,,
5245.099999904633,,intro_1,15294,,,instruct,,,0,,,,,,,,,,,,,,,,,,,,,,
8718.700000047684,,intro_2,24013,,,instruct,,,1,Next,,,,,,,,,,,,,,,,,,,,,
10022.5,,intro_3,34036,,,instruct,,,1,Next,,,,,,,,,,,,,,,,,,,,,
6081.599999904633,,intro_4,40119,,,instruct,,,1,Next,,,,,,,,,,,,,,,,,,,,,
233404.40000009537,,intro_5,273523,,,instruct,,,1,Next,,,,,,,,,,,,,,,,,,,,,
20591.89999985695,,intro_6,294116,,,instruct,,,1,Next,,,,,,,,,,,,,,,,,,,,,
8494.600000143051,,intro_7,302611,,,instruct,,,1,Next,,,,,,,,,,,,,,,,,,,,,
null,,learn_prac_1,305613,,,lean_prac_1,,,,,null,,,,,,,,,,,,,,,,,,,,
null,,html-keyboard-response,306615,,,<p></p>,,,,,null,,,,,,,,,,,,,,,,,,,,
9390.400000095367,,intro_1,316006,,,instruct,,,0,,,,,,,,,,,,,,,,,,,,,,
6950.5,,intro_2,322957,,,instruct,,,1,Next,,,,,,,,,,,,,,,,,,,,,
null,,learn_prac_2,325959,,,lean_prac_2,,,,,null,,,,,,,,,,,,,,,,,,,,
null,,html-keyboard-response,326960,,,<p></p>,,,,,null,,,,,,,,,,,,,,,,,,,,
3236.7999999523163,,intro_1,330198,,,instruct,,,0,,,,,,,,,,,,,,,,,,,,,,
5319.700000047684,,intro_2,335518,,,instruct,,,1,Next,,,,,,,,,,,,,,,,,,,,,
24739.799999952316,,intro_3,360258,,,instruct,,,1,Next,,,,,,,,,,,,,,,,,,,,,
null,,prac_atten_color_black,360816,,,black_plus_sign,,,,,null,,,,,,,,,,,,,,,,,,,,
584.3999998569489,,prac_atten_color,361674,,,prac_stop_color,,,,,49,,,,,,,,,,,,,,,,,,,,
1381.9000000953674,,prac_atten_color_black,363676,,,black_plus_sign,,,,,49,,,,,,,,,,,,,,,,,,,,
null,,prac_atten_color_black,364222,,,black_plus_sign,,,,,null,,,,,,,,,,,,,,,,,,,,
null,,prac_atten_color,364957,,,prac_stop_color,,,,,null,,,,,,,,,,,,,,,,,,,,
71.10000014305115,,prac_atten_color_black,366958,,,black_plus_sign,,,,,50,,,,,,,,,,,,,,,,,,,,
null,,prac_atten_color_black,367626,,,black_plus_sign,,,,,null,,,,,,,,,,,,,,,,,,,,
436.2000000476837,,prac_atten_color,368226,,,prac_stop_color,,,,,50,,,,,,,,,,,,,,,,,,,,
null,,prac_atten_color_black,370227,,,black_plus_sign,,,,,null,,,,,,,,,,,,,,,,,,,,
null,,prac_atten_color_black,371042,,,black_plus_sign,,,,,null,,,,,,,,,,,,,,,,,,,,
344.59999990463257,,prac_atten_color,371806,,,prac_stop_color,,,,,49,,,,,,,,,,,,,,,,,,,,
null,,prac_atten_color_black,373806,,,black_plus_sign,,,,,null,,,,,,,,,,,,,,,,,,,,
null,,prac_atten_color_black,374445,,,black_plus_sign,,,,,null,,,,,,,,,,,,,,,,,,,,
462.10000014305115,,prac_atten_color,375351,,,prac_stop_color,,,,,50,,,,,,,,,,,,,,,,,,,,
null,,prac_atten_color_black,377352,,,black_plus_sign,,,,,null,,,,,,,,,,,,,,,,,,,,
null,,prac_atten_color_black,377849,,,black_plus_sign,,,,,null,,,,,,,,,,,,,,,,,,,,
355.7999999523163,,prac_atten_color,378541,,,prac_stop_color,,,,,50,,,,,,,,,,,,,,,,,,,,
null,,prac_atten_color_black,380542,,,black_plus_sign,,,,,null,,,,,,,,,,,,,,,,,,,,
null,,prac_atten_color_black,381253,,,black_plus_sign,,,,,null,,,,,,,,,,,,,,,,,,,,
610.1000001430511,,prac_atten_color,381883,,,prac_stop_color,,,,,49,,,,,,,,,,,,,,,,,,,,
null,,prac_atten_color_black,383885,,,black_plus_sign,,,,,null,,,,,,,,,,,,,,,,,,,,
null,,prac_atten_color_black,384658,,,black_plus_sign,,,,,null,,,,,,,,,,,,,,,,,,,,
397.7000000476837,,prac_atten_color,385756,,,prac_stop_color,,,,,50,,,,,,,,,,,,,,,,,,,,
null,,prac_atten_color_black,387757,,,black_plus_sign,,,,,null,,,,,,,,,,,,,,,,,,,,
null,,prac_atten_color_black,388064,,,black_plus_sign,,,,,null,,,,,,,,,,,,,,,,,,,,
399.7000000476837,,prac_atten_color,388621,,,prac_stop_color,,,,,49,,,,,,,,,,,,,,,,,,,,
null,,prac_atten_color_black,390623,,,black_plus_sign,,,,,null,,,,,,,,,,,,,,,,,,,,
null,,prac_atten_color_black,391469,,,black_plus_sign,,,,,null,,,,,,,,,,,,,,,,,,,,
479.89999985694885,,prac_atten_color,392202,,,prac_stop_color,,,,,49,,,,,,,,,,,,,,,,,,,,
null,,prac_atten_color_black,394203,,,black_plus_sign,,,,,null,,,,,,,,,,,,,,,,,,,,
5925.599999904633,,attentioncheck_feedback,400130,,,cross_check_feedback,,,0,,,,,,,,,,,,,,,,,,,,,,
8546.200000047684,,last_instruct,408676,,,instruct,,,,,32,,,,,,,,,,,,,,,,,,,,
null,,learn_phase(without_color),411682,,,black_plus_sign,,,,,null,US_Cities_List/carmel.png,US_Cities_List/cornwall.png,,,,,,,,,,,,,,,,,,
null,,black_cross(without_color),412540,,,blue,,,,,null,US_Cities_List/carmel.png,US_Cities_List/cornwall.png,,,,,,,,,,,,,,,,,,
null,,rt_plussign_withcolor,413041,,,blue,,,,,null,US_Cities_List/carmel.png,US_Cities_List/cornwall.png,,,,,,,,,,,,,,,,,,
1144.5,,rt_thecrossant_black,414186,,,black_plus_sign,,,,,49,,,1,1,,,,,,,,,,,,,,,,
null,,color_black,414287,,,black_plus_sign,,,,,null,,,,,,,,,,,,,,,,,,,,
null,,learn_phase(without_color),417295,,,black_plus_sign,,,,,null,US_Cities_List/carmel.png,US_Cities_List/cornwall.png,,,,,,,,,,,,,,,,,,
null,,black_cross(without_color),418051,,,blue,,,,,null,US_Cities_List/carmel.png,US_Cities_List/cornwall.png,,,,,,,,,,,,,,,,,,
null,,rt_plussign_withcolor,418552,,,blue,,,,,null,US_Cities_List/carmel.png,US_Cities_List/cornwall.png,,,,,,,,,,,,,,,,,,
962.7000000476837,,rt_thecrossant_black,419800,,,black_plus_sign,,,,,49,,,1,1,,,,,,,,,,,,,,,,
null,,color_black,419902,,,black_plus_sign,,,,,null,,,,,,,,,,,,,,,,,,,,
null,,learn_phase(without_color),422922,,,black_plus_sign,,,,,null,US_Cities_List/carmel.png,US_Cities_List/hotsprings.png,,,,,,,,,,,,,,,,,,
null,,black_cross(without_color),423538,,,blue,,,,,null,US_Cities_List/carmel.png,US_Cities_List/hotsprings.png,,,,,,,,,,,,,,,,,,
null,,rt_plussign_withcolor,424039,,,blue,,,,,null,US_Cities_List/carmel.png,US_Cities_List/hotsprings.png,,,,,,,,,,,,,,,,,,
1005.9000000953674,,rt_thecrossant_black,425426,,,black_plus_sign,,,,,49,,,1,1,,,,,,,,,,,,,,,,
null,,color_black,425527,,,black_plus_sign,,,,,null,,,,,,,,,,,,,,,,,,,,
null,,learn_phase(without_color),428535,,,black_plus_sign,,,,,null,US_Cities_List/carmel.png,US_Cities_List/cornwall.png,,,,,,,,,,,,,,,,,,
null,,black_cross(without_color),429547,,,yellow,,,,,null,US_Cities_List/carmel.png,US_Cities_List/cornwall.png,,,,,,,,,,,,,,,,,,
null,,rt_plussign_withcolor,430049,,,yellow,,,,,null,US_Cities_List/carmel.png,US_Cities_List/cornwall.png,,,,,,,,,,,,,,,,,,
766.4000000953674,,rt_thecrossant_black,431041,,,black_plus_sign,,,,,50,,,1,1,,,,,,,,,,,,,,,,
null,,color_black,431143,,,black_plus_sign,,,,,null,,,,,,,,,,,,,,,,,,,,
null,,learn_phase(without_color),434148,,,black_plus_sign,,,,,null,US_Cities_List/shreveport.png,US_Cities_List/peoria.png,,,,,,,,,,,,,,,,,,
null,,black_cross(without_color),434983,,,yellow,,,,,null,US_Cities_List/shreveport.png,US_Cities_List/peoria.png,,,,,,,,,,,,,,,,,,
null,,rt_plussign_withcolor,435485,,,yellow,,,,,null,US_Cities_List/shreveport.png,US_Cities_List/peoria.png,,,,,,,,,,,,,,,,,,
1265.4000000953674,,rt_thecrossant_black,436654,,,black_plus_sign,,,,,50,,,1,1,,,,,,,,,,,,,,,,
null,,color_black,436756,,,black_plus_sign,,,,,null,,,,,,,,,,,,,,,,,,,,
null,,learn_phase(without_color),439763,,,black_plus_sign,,,,,null,US_Cities_List/cornwall.png,US_Cities_List/leesburg.png,,,,,,,,,,,,,,,,,,
null,,black_cross(without_color),440315,,,yellow,,,,,null,US_Cities_List/cornwall.png,US_Cities_List/leesburg.png,,,,,,,,,,,,,,,,,,
null,,rt_plussign_withcolor,440818,,,yellow,,,,,null,US_Cities_List/cornwall.png,US_Cities_List/leesburg.png,,,,,,,,,,,,,,,,,,
1016.4000000953674,,rt_thecrossant_black,442270,,,black_plus_sign,,,,,50,,,1,1,,,,,,,,,,,,,,,,
null,,color_black,442372,,,black_plus_sign,,,,,null,,,,,,,,,,,,,,,,,,,,
null,,learn_phase(without_color),445380,,,black_plus_sign,,,,,null,US_Cities_List/cornwall.png,US_Cities_List/racine.png,,,,,,,,,,,,,,,,,,
null,,black_cross(without_color),446172,,,yellow,,,,,null,US_Cities_List/cornwall.png,US_Cities_List/racine.png,,,,,,,,,,,,,,,,,,
442.5,,rt_plussign_withcolor,446673,,,yellow,,,,,50,US_Cities_List/cornwall.png,US_Cities_List/racine.png,,,,,,,,,,,,,,,,,,
null,,rt_thecrossant_black,447884,,,black_plus_sign,,,,,null,,,1,1,,,,,,,,,,,,,,,,
null,,color_black,447985,,,black_plus_sign,,,,,null,,,,,,,,,,,,,,,,,,,,
null,,learn_phase(without_color),450992,,,black_plus_sign,,,,,null,US_Cities_List/hotsprings.png,US_Cities_List/racine.png,,,,,,,,,,,,,,,,,,
null,,black_cross(without_color),451832,,,blue,,,,,null,US_Cities_List/hotsprings.png,US_Cities_List/racine.png,,,,,,,,,,,,,,,,,,
null,,rt_plussign_withcolor,452343,,,blue,,,,,null,US_Cities_List/hotsprings.png,US_Cities_List/racine.png,,,,,,,,,,,,,,,,,,
1037.7000000476837,,rt_thecrossant_black,453507,,,black_plus_sign,,,,,49,,,1,1,,,,,,,,,,,,,,,,
null,,color_black,453612,,,black_plus_sign,,,,,null,,,,,,,,,,,,,,,,,,,,
null,,learn_phase(without_color),456616,,,black_plus_sign,,,,,null,US_Cities_List/hanover.png,US_Cities_List/westpalmbeach.png,,,,,,,,,,,,,,,,,,
null,,black_cross(without_color),457045,,,yellow,,,,,null,US_Cities_List/hanover.png,US_Cities_List/westpalmbeach.png,,,,,,,,,,,,,,,,,,
null,,rt_plussign_withcolor,457556,,,yellow,,,,,null,US_Cities_List/hanover.png,US_Cities_List/westpalmbeach.png,,,,,,,,,,,,,,,,,,
1157.4000000953674,,rt_thecrossant_black,459130,,,black_plus_sign,,,,,50,,,1,1,,,,,,,,,,,,,,,,
null,,color_black,459231,,,black_plus_sign,,,,,null,,,,,,,,,,,,,,,,,,,,
null,,learn_phase(without_color),462248,,,black_plus_sign,,,,,null,US_Cities_List/newhope.png,US_Cities_List/racine.png,,,,,,,,,,,,,,,,,,
null,,black_cross(without_color),462951,,,blue,,,,,null,US_Cities_List/newhope.png,US_Cities_List/racine.png,,,,,,,,,,,,,,,,,,
null,,rt_plussign_withcolor,463453,,,blue,,,,,null,US_Cities_List/newhope.png,US_Cities_List/racine.png,,,,,,,,,,,,,,,,,,
784.9000000953674,,rt_thecrossant_black,464752,,,black_plus_sign,,,,,49,,,1,1,,,,,,,,,,,,,,,,
null,,color_black,464854,,,black_plus_sign,,,,,null,,,,,,,,,,,,,,,,,,,,
null,,learn_phase(without_color),467859,,,black_plus_sign,,,,,null,US_Cities_List/gatlinburg.png,US_Cities_List/hanover.png,,,,,,,,,,,,,,,,,,
null,,black_cross(without_color),468439,,,blue,,,,,null,US_Cities_List/gatlinburg.png,US_Cities_List/hanover.png,,,,,,,,,,,,,,,,,,
null,,rt_plussign_withcolor,468940,,,blue,,,,,null,US_Cities_List/gatlinburg.png,US_Cities_List/hanover.png,,,,,,,,,,,,,,,,,,
902.8999998569489,,rt_thecrossant_black,470363,,,black_plus_sign,,,,,49,,,1,1,,,,,,,,,,,,,,,,
null,,color_black,470465,,,black_plus_sign,,,,,null,,,,,,,,,,,,,,,,,,,,
null,,learn_phase(without_color),473470,,,black_plus_sign,,,,,null,US_Cities_List/westpalmbeach.png,US_Cities_List/hanover.png,,,,,,,,,,,,,,,,,,
null,,black_cross(without_color),474031,,,yellow,,,,,null,US_Cities_List/westpalmbeach.png,US_Cities_List/hanover.png,,,,,,,,,,,,,,,,,,
null,,rt_plussign_withcolor,474532,,,yellow,,,,,null,US_Cities_List/westpalmbeach.png,US_Cities_List/hanover.png,,,,,,,,,,,,,,,,,,
746.7999999523163,,rt_thecrossant_black,475974,,,black_plus_sign,,,,,50,,,1,1,,,,,,,,,,,,,,,,
null,,color_black,476076,,,black_plus_sign,,,,,null,,,,,,,,,,,,,,,,,,,,
null,,learn_phase(without_color),479081,,,black_plus_sign,,,,,null,US_Cities_List/carmel.png,US_Cities_List/racine.png,,,,,,,,,,,,,,,,,,
null,,black_cross(without_color),479803,,,yellow,,,,,null,US_Cities_List/carmel.png,US_Cities_List/racine.png,,,,,,,,,,,,,,,,,,
null,,rt_plussign_withcolor,480305,,,yellow,,,,,null,US_Cities_List/carmel.png,US_Cities_List/racine.png,,,,,,,,,,,,,,,,,,
726.5,,rt_thecrossant_black,481591,,,black_plus_sign,,,,,50,,,1,1,,,,,,,,,,,,,,,,
null,,color_black,481692,,,black_plus_sign,,,,,null,,,,,,,,,,,,,,,,,,,,
null,,learn_phase(without_color),484697,,,black_plus_sign,,,,,null,US_Cities_List/huntsville.png,US_Cities_List/peoria.png,,,,,,,,,,,,,,,,,,
null,,black_cross(without_color),485364,,,blue,,,,,null,US_Cities_List/huntsville.png,US_Cities_List/peoria.png,,,,,,,,,,,,,,,,,,
null,,rt_plussign_withcolor,485867,,,blue,,,,,null,US_Cities_List/huntsville.png,US_Cities_List/peoria.png,,,,,,,,,,,,,,,,,,
906.3999998569489,,rt_thecrossant_black,487202,,,black_plus_sign,,,,,49,,,1,1,,,,,,,,,,,,,,,,
null,,color_black,487304,,,black_plus_sign,,,,,null,,,,,,,,,,,,,,,,,,,,
null,,learn_phase(without_color),490310,,,black_plus_sign,,,,,null,US_Cities_List/carmel.png,US_Cities_List/hotsprings.png,,,,,,,,,,,,,,,,,,
null,,black_cross(without_color),491090,,,blue,,,,,null,US_Cities_List/carmel.png,US_Cities_List/hotsprings.png,,,,,,,,,,,,,,,,,,
null,,rt_plussign_withcolor,491598,,,blue,,,,,null,US_Cities_List/carmel.png,US_Cities_List/hotsprings.png,,,,,,,,,,,,,,,,,,
907.2000000476837,,rt_thecrossant_black,492822,,,black_plus_sign,,,,,49,,,1,1,,,,,,,,,,,,,,,,
null,,color_black,492924,,,black_plus_sign,,,,,null,,,,,,,,,,,,,,,,,,,,
null,,learn_phase(without_color),495930,,,black_plus_sign,,,,,null,US_Cities_List/cornwall.png,US_Cities_List/carmel.png,,,,,,,,,,,,,,,,,,
null,,black_cross(without_color),496394,,,blue,,,,,null,US_Cities_List/cornwall.png,US_Cities_List/carmel.png,,,,,,,,,,,,,,,,,,
null,,rt_plussign_withcolor,496896,,,blue,,,,,null,US_Cities_List/cornwall.png,US_Cities_List/carmel.png,,,,,,,,,,,,,,,,,,
1061.0999999046326,,rt_thecrossant_black,498436,,,black_plus_sign,,,,,49,,,1,1,,,,,,,,,,,,,,,,
null,,color_black,498551,,,black_plus_sign,,,,,null,,,,,,,,,,,,,,,,,,,,
null,,learn_phase(without_color),501557,,,black_plus_sign,,,,,null,US_Cities_List/racine.png,US_Cities_List/newhope.png,,,,,,,,,,,,,,,,,,
null,,black_cross(without_color),502029,,,blue,,,,,null,US_Cities_List/racine.png,US_Cities_List/newhope.png,,,,,,,,,,,,,,,,,,
null,,rt_plussign_withcolor,502531,,,blue,,,,,null,US_Cities_List/racine.png,US_Cities_List/newhope.png,,,,,,,,,,,,,,,,,,
588.5,,rt_thecrossant_black,504062,,,black_plus_sign,,,,,49,,,1,1,,,,,,,,,,,,,,,,
null,,color_black,504164,,,black_plus_sign,,,,,null,,,,,,,,,,,,,,,,,,,,
null,,learn_phase(without_color),507168,,,black_plus_sign,,,,,null,US_Cities_List/westpalmbeach.png,US_Cities_List/hanover.png,,,,,,,,,,,,,,,,,,
null,,black_cross(without_color),507596,,,blue,,,,,null,US_Cities_List/westpalmbeach.png,US_Cities_List/hanover.png,,,,,,,,,,,,,,,,,,
null,,rt_plussign_withcolor,508098,,,blue,,,,,null,US_Cities_List/westpalmbeach.png,US_Cities_List/hanover.png,,,,,,,,,,,,,,,,,,
865.2999999523163,,rt_thecrossant_black,509673,,,black_plus_sign,,,,,49,,,1,1,,,,,,,,,,,,,,,,
null,,color_black,509775,,,black_plus_sign,,,,,null,,,,,,,,,,,,,,,,,,,,
null,,learn_phase(without_color),512781,,,black_plus_sign,,,,,null,US_Cities_List/cornwall.png,US_Cities_List/leesburg.png,,,,,,,,,,,,,,,,,,
null,,black_cross(without_color),513391,,,blue,,,,,null,US_Cities_List/cornwall.png,US_Cities_List/leesburg.png,,,,,,,,,,,,,,,,,,
null,,rt_plussign_withcolor,513893,,,blue,,,,,null,US_Cities_List/cornwall.png,US_Cities_List/leesburg.png,,,,,,,,,,,,,,,,,,
660.2000000476837,,rt_thecrossant_black,515287,,,black_plus_sign,,,,,49,,,1,1,,,,,,,,,,,,,,,,
null,,color_black,515388,,,black_plus_sign,,,,,null,,,,,,,,,,,,,,,,,,,,
null,,learn_phase(without_color),518394,,,black_plus_sign,,,,,null,US_Cities_List/gatlinburg.png,US_Cities_List/hanover.png,,,,,,,,,,,,,,,,,,
null,,black_cross(without_color),518999,,,yellow,,,,,null,US_Cities_List/gatlinburg.png,US_Cities_List/hanover.png,,,,,,,,,,,,,,,,,,
null,,rt_plussign_withcolor,519501,,,yellow,,,,,null,US_Cities_List/gatlinburg.png,US_Cities_List/hanover.png,,,,,,,,,,,,,,,,,,
896,,rt_thecrossant_black,520899,,,black_plus_sign,,,,,50,,,1,1,,,,,,,,,,,,,,,,
null,,color_black,521002,,,black_plus_sign,,,,,null,,,,,,,,,,,,,,,,,,,,
null,,learn_phase(without_color),524008,,,black_plus_sign,,,,,null,US_Cities_List/leesburg.png,US_Cities_List/cornwall.png,,,,,,,,,,,,,,,,,,
null,,black_cross(without_color),524750,,,yellow,,,,,null,US_Cities_List/leesburg.png,US_Cities_List/cornwall.png,,,,,,,,,,,,,,,,,,
null,,rt_plussign_withcolor,525252,,,yellow,,,,,null,US_Cities_List/leesburg.png,US_Cities_List/cornwall.png,,,,,,,,,,,,,,,,,,
821.5,,rt_thecrossant_black,526513,,,black_plus_sign,,,,,50,,,1,1,,,,,,,,,,,,,,,,
null,,color_black,526615,,,black_plus_sign,,,,,null,,,,,,,,,,,,,,,,,,,,
null,,learn_phase(without_color),529620,,,black_plus_sign,,,,,null,US_Cities_List/hanover.png,US_Cities_List/carmel.png,,,,,,,,,,,,,,,,,,
null,,black_cross(without_color),530621,,,blue,,,,,null,US_Cities_List/hanover.png,US_Cities_List/carmel.png,,,,,,,,,,,,,,,,,,
null,,rt_plussign_withcolor,531123,,,blue,,,,,null,US_Cities_List/hanover.png,US_Cities_List/carmel.png,,,,,,,,,,,,,,,,,,
1023.2000000476837,,rt_thecrossant_black,532138,,,black_plus_sign,,,,,49,,,1,1,,,,,,,,,,,,,,,,
null,,color_black,532239,,,black_plus_sign,,,,,null,,,,,,,,,,,,,,,,,,,,
null,,learn_phase(without_color),535244,,,black_plus_sign,,,,,null,US_Cities_List/racine.png,US_Cities_List/hotsprings.png,,,,,,,,,,,,,,,,,,
null,,black_cross(without_color),536152,,,yellow,,,,,null,US_Cities_List/racine.png,US_Cities_List/hotsprings.png,,,,,,,,,,,,,,,,,,
null,,rt_plussign_withcolor,536654,,,yellow,,,,,null,US_Cities_List/racine.png,US_Cities_List/hotsprings.png,,,,,,,,,,,,,,,,,,
null,,rt_thecrossant_black,537750,,,black_plus_sign,,,,,null,,,,1,,,,,,,,,,,,,,,,
null,,color_black,537852,,,black_plus_sign,,,,,null,,,,,,,,,,,,,,,,,,,,
null,,learn_phase(without_color),540859,,,black_plus_sign,,,,,null,US_Cities_List/cornwall.png,US_Cities_List/leesburg.png,,,,,,,,,,,,,,,,,,
null,,black_cross(without_color),541503,,,blue,,,,,null,US_Cities_List/cornwall.png,US_Cities_List/leesburg.png,,,,,,,,,,,,,,,,,,
null,,rt_plussign_withcolor,542004,,,blue,,,,,null,US_Cities_List/cornwall.png,US_Cities_List/leesburg.png,,,,,,,,,,,,,,,,,,
1234.5,,rt_thecrossant_black,543363,,,black_plus_sign,,,,,49,,,1,1,,,,,,,,,,,,,,,,
null,,color_black,543465,,,black_plus_sign,,,,,null,,,,,,,,,,,,,,,,,,,,
null,,learn_phase(without_color),546470,,,black_plus_sign,,,,,null,US_Cities_List/carmel.png,US_Cities_List/hotsprings.png,,,,,,,,,,,,,,,,,,
null,,black_cross(without_color),547219,,,blue,,,,,null,US_Cities_List/carmel.png,US_Cities_List/hotsprings.png,,,,,,,,,,,,,,,,,,
null,,rt_plussign_withcolor,547721,,,blue,,,,,null,US_Cities_List/carmel.png,US_Cities_List/hotsprings.png,,,,,,,,,,,,,,,,,,
786.2999999523163,,rt_thecrossant_black,548976,,,black_plus_sign,,,,,49,,,1,1,,,,,,,,,,,,,,,,
null,,color_black,549078,,,black_plus_sign,,,,,null,,,,,,,,,,,,,,,,,,,,
null,,learn_phase(without_color),552082,,,black_plus_sign,,,,,null,US_Cities_List/boulder.png,US_Cities_List/huntsville.png,,,,,,,,,,,,,,,,,,
null,,black_cross(without_color),553153,,,yellow,,,,,null,US_Cities_List/boulder.png,US_Cities_List/huntsville.png,,,,,,,,,,,,,,,,,,
null,,rt_plussign_withcolor,553655,,,yellow,,,,,null,US_Cities_List/boulder.png,US_Cities_List/huntsville.png,,,,,,,,,,,,,,,,,,
1004.2999999523163,,rt_thecrossant_black,554588,,,black_plus_sign,,,,,50,,,1,1,,,,,,,,,,,,,,,,
null,,color_black,554704,,,black_plus_sign,,,,,null,,,,,,,,,,,,,,,,,,,,
null,,learn_phase(without_color),557710,,,black_plus_sign,,,,,null,US_Cities_List/racine.png,US_Cities_List/hotsprings.png,,,,,,,,,,,,,,,,,,
null,,black_cross(without_color),558704,,,yellow,,,,,null,US_Cities_List/racine.png,US_Cities_List/hotsprings.png,,,,,,,,,,,,,,,,,,
456.69999980926514,,rt_plussign_withcolor,559205,,,yellow,,,,,50,US_Cities_List/racine.png,US_Cities_List/hotsprings.png,,,,,,,,,,,,,,,,,,
null,,rt_thecrossant_black,560215,,,black_plus_sign,,,,,null,,,1,1,,,,,,,,,,,,,,,,
null,,color_black,560316,,,black_plus_sign,,,,,null,,,,,,,,,,,,,,,,,,,,
null,,learn_phase(without_color),563323,,,black_plus_sign,,,,,null,US_Cities_List/carmel.png,US_Cities_List/racine.png,,,,,,,,,,,,,,,,,,
null,,black_cross(without_color),564101,,,yellow,,,,,null,US_Cities_List/carmel.png,US_Cities_List/racine.png,,,,,,,,,,,,,,,,,,
null,,rt_plussign_withcolor,564601,,,yellow,,,,,null,US_Cities_List/carmel.png,US_Cities_List/racine.png,,,,,,,,,,,,,,,,,,
1224.2000000476837,,rt_thecrossant_black,565827,,,black_plus_sign,,,,,50,,,1,1,,,,,,,,,,,,,,,,
null,,color_black,565930,,,black_plus_sign,,,,,null,,,,,,,,,,,,,,,,,,,,
null,,learn_phase(without_color),568936,,,black_plus_sign,,,,,null,US_Cities_List/hotsprings.png,US_Cities_List/carmel.png,,,,,,,,,,,,,,,,,,
null,,black_cross(without_color),569872,,,yellow,,,,,null,US_Cities_List/hotsprings.png,US_Cities_List/carmel.png,,,,,,,,,,,,,,,,,,
null,,rt_plussign_withcolor,570373,,,yellow,,,,,null,US_Cities_List/hotsprings.png,US_Cities_List/carmel.png,,,,,,,,,,,,,,,,,,
1035.0999999046326,,rt_thecrossant_black,571441,,,black_plus_sign,,,,,50,,,1,1,,,,,,,,,,,,,,,,
null,,color_black,571542,,,black_plus_sign,,,,,null,,,,,,,,,,,,,,,,,,,,
null,,learn_phase(without_color),574549,,,black_plus_sign,,,,,null,US_Cities_List/hanover.png,US_Cities_List/carmel.png,,,,,,,,,,,,,,,,,,
null,,black_cross(without_color),575337,,,yellow,,,,,null,US_Cities_List/hanover.png,US_Cities_List/carmel.png,,,,,,,,,,,,,,,,,,
null,,rt_plussign_withcolor,575839,,,yellow,,,,,null,US_Cities_List/hanover.png,US_Cities_List/carmel.png,,,,,,,,,,,,,,,,,,
1225.6999998092651,,rt_thecrossant_black,577055,,,black_plus_sign,,,,,50,,,1,1,,,,,,,,,,,,,,,,
null,,color_black,577155,,,black_plus_sign,,,,,null,,,,,,,,,,,,,,,,,,,,
null,,learn_phase(without_color),580161,,,black_plus_sign,,,,,null,US_Cities_List/peoria.png,US_Cities_List/gatlinburg.png,,,,,,,,,,,,,,,,,,
null,,black_cross(without_color),581241,,,yellow,,,,,null,US_Cities_List/peoria.png,US_Cities_List/gatlinburg.png,,,,,,,,,,,,,,,,,,
null,,rt_plussign_withcolor,581743,,,yellow,,,,,null,US_Cities_List/peoria.png,US_Cities_List/gatlinburg.png,,,,,,,,,,,,,,,,,,
966,,rt_thecrossant_black,582665,,,black_plus_sign,,,,,50,,,1,1,,,,,,,,,,,,,,,,
null,,color_black,582767,,,black_plus_sign,,,,,null,,,,,,,,,,,,,,,,,,,,
null,,learn_phase(without_color),585771,,,black_plus_sign,,,,,null,US_Cities_List/huntsville.png,US_Cities_List/peoria.png,,,,,,,,,,,,,,,,,,
null,,black_cross(without_color),586291,,,yellow,,,,,null,US_Cities_List/huntsville.png,US_Cities_List/peoria.png,,,,,,,,,,,,,,,,,,
417,,rt_plussign_withcolor,586800,,,yellow,,,,,50,US_Cities_List/huntsville.png,US_Cities_List/peoria.png,,,,,,,,,,,,,,,,,,
null,,rt_thecrossant_black,588285,,,black_plus_sign,,,,,null,,,1,1,,,,,,,,,,,,,,,,
null,,color_black,588387,,,black_plus_sign,,,,,null,,,,,,,,,,,,,,,,,,,,
null,,learn_phase(without_color),591391,,,black_plus_sign,,,,,null,US_Cities_List/hanover.png,US_Cities_List/westpalmbeach.png,,,,,,,,,,,,,,,,,,
null,,black_cross(without_color),592238,,,blue,,,,,null,US_Cities_List/hanover.png,US_Cities_List/westpalmbeach.png,,,,,,,,,,,,,,,,,,
null,,rt_plussign_withcolor,592741,,,blue,,,,,null,US_Cities_List/hanover.png,US_Cities_List/westpalmbeach.png,,,,,,,,,,,,,,,,,,
803.5,,rt_thecrossant_black,593903,,,black_plus_sign,,,,,49,,,1,1,,,,,,,,,,,,,,,,
null,,color_black,594005,,,black_plus_sign,,,,,null,,,,,,,,,,,,,,,,,,,,
null,,learn_phase(without_color),597010,,,black_plus_sign,,,,,null,US_Cities_List/racine.png,US_Cities_List/newhope.png,,,,,,,,,,,,,,,,,,
null,,black_cross(without_color),597491,,,blue,,,,,null,US_Cities_List/racine.png,US_Cities_List/newhope.png,,,,,,,,,,,,,,,,,,
null,,rt_plussign_withcolor,597993,,,blue,,,,,null,US_Cities_List/racine.png,US_Cities_List/newhope.png,,,,,,,,,,,,,,,,,,
992.0999999046326,,rt_thecrossant_black,599514,,,black_plus_sign,,,,,49,,,1,1,,,,,,,,,,,,,,,,
null,,color_black,599616,,,black_plus_sign,,,,,null,,,,,,,,,,,,,,,,,,,,
null,,learn_phase(without_color),602622,,,black_plus_sign,,,,,null,US_Cities_List/westpalmbeach.png,US_Cities_List/hanover.png,,,,,,,,,,,,,,,,,,
null,,black_cross(without_color),603073,,,blue,,,,,null,US_Cities_List/westpalmbeach.png,US_Cities_List/hanover.png,,,,,,,,,,,,,,,,,,
null,,rt_plussign_withcolor,603574,,,blue,,,,,null,US_Cities_List/westpalmbeach.png,US_Cities_List/hanover.png,,,,,,,,,,,,,,,,,,
745.3999998569489,,rt_thecrossant_black,605127,,,black_plus_sign,,,,,49,,,1,1,,,,,,,,,,,,,,,,
null,,color_black,605242,,,black_plus_sign,,,,,null,,,,,,,,,,,,,,,,,,,,
null,,learn_phase(without_color),608249,,,black_plus_sign,,,,,null,US_Cities_List/gatlinburg.png,US_Cities_List/hanover.png,,,,,,,,,,,,,,,,,,
null,,black_cross(without_color),608939,,,blue,,,,,null,US_Cities_List/gatlinburg.png,US_Cities_List/hanover.png,,,,,,,,,,,,,,,,,,
402.2999999523163,,rt_plussign_withcolor,609440,,,blue,,,,,49,US_Cities_List/gatlinburg.png,US_Cities_List/hanover.png,,,,,,,,,,,,,,,,,,
null,,rt_thecrossant_black,610753,,,black_plus_sign,,,,,null,,,1,1,,,,,,,,,,,,,,,,
null,,color_black,610855,,,black_plus_sign,,,,,null,,,,,,,,,,,,,,,,,,,,
null,,learn_phase(without_color),613860,,,black_plus_sign,,,,,null,US_Cities_List/carmel.png,US_Cities_List/racine.png,,,,,,,,,,,,,,,,,,
null,,black_cross(without_color),614828,,,blue,,,,,null,US_Cities_List/carmel.png,US_Cities_List/racine.png,,,,,,,,,,,,,,,,,,
null,,rt_plussign_withcolor,615331,,,blue,,,,,null,US_Cities_List/carmel.png,US_Cities_List/racine.png,,,,,,,,,,,,,,,,,,
1157.7999999523163,,rt_thecrossant_black,616366,,,black_plus_sign,,,,,49,,,1,1,,,,,,,,,,,,,,,,
null,,color_black,616468,,,black_plus_sign,,,,,null,,,,,,,,,,,,,,,,,,,,
null,,learn_phase(without_color),619472,,,black_plus_sign,,,,,null,US_Cities_List/westpalmbeach.png,US_Cities_List/huntsville.png,,,,,,,,,,,,,,,,,,
null,,black_cross(without_color),620574,,,blue,,,,,null,US_Cities_List/westpalmbeach.png,US_Cities_List/huntsville.png,,,,,,,,,,,,,,,,,,
null,,rt_plussign_withcolor,621075,,,blue,,,,,null,US_Cities_List/westpalmbeach.png,US_Cities_List/huntsville.png,,,,,,,,,,,,,,,,,,
1352.3999998569489,,rt_thecrossant_black,621977,,,black_plus_sign,,,,,49,,,1,1,,,,,,,,,,,,,,,,
null,,color_black,622078,,,black_plus_sign,,,,,null,,,,,,,,,,,,,,,,,,,,
null,,learn_phase(without_color),625082,,,black_plus_sign,,,,,null,US_Cities_List/boulder.png,US_Cities_List/huntsville.png,,,,,,,,,,,,,,,,,,
null,,black_cross(without_color),625894,,,yellow,,,,,null,US_Cities_List/boulder.png,US_Cities_List/huntsville.png,,,,,,,,,,,,,,,,,,
null,,rt_plussign_withcolor,626396,,,yellow,,,,,null,US_Cities_List/boulder.png,US_Cities_List/huntsville.png,,,,,,,,,,,,,,,,,,
1344.2999999523163,,rt_thecrossant_black,627588,,,black_plus_sign,,,,,50,,,1,1,,,,,,,,,,,,,,,,
null,,color_black,627697,,,black_plus_sign,,,,,null,,,,,,,,,,,,,,,,,,,,
null,,learn_phase(without_color),630702,,,black_plus_sign,,,,,null,US_Cities_List/shreveport.png,US_Cities_List/peoria.png,,,,,,,,,,,,,,,,,,
null,,black_cross(without_color),631335,,,blue,,,,,null,US_Cities_List/shreveport.png,US_Cities_List/peoria.png,,,,,,,,,,,,,,,,,,
null,,rt_plussign_withcolor,631836,,,blue,,,,,null,US_Cities_List/shreveport.png,US_Cities_List/peoria.png,,,,,,,,,,,,,,,,,,
1733.8000001907349,,rt_thecrossant_black,633207,,,black_plus_sign,,,,,49,,,1,1,,,,,,,,,,,,,,,,
null,,color_black,633312,,,black_plus_sign,,,,,null,,,,,,,,,,,,,,,,,,,,
null,,learn_phase(without_color),636318,,,black_plus_sign,,,,,null,US_Cities_List/gatlinburg.png,US_Cities_List/hotsprings.png,,,,,,,,,,,,,,,,,,
null,,black_cross(without_color),636869,,,yellow,,,,,null,US_Cities_List/gatlinburg.png,US_Cities_List/hotsprings.png,,,,,,,,,,,,,,,,,,
null,,rt_plussign_withcolor,637371,,,yellow,,,,,null,US_Cities_List/gatlinburg.png,US_Cities_List/hotsprings.png,,,,,,,,,,,,,,,,,,
1007.0999999046326,,rt_thecrossant_black,638824,,,black_plus_sign,,,,,50,,,1,1,,,,,,,,,,,,,,,,
null,,color_black,638925,,,black_plus_sign,,,,,null,,,,,,,,,,,,,,,,,,,,
null,,learn_phase(without_color),641931,,,black_plus_sign,,,,,null,US_Cities_List/peoria.png,US_Cities_List/shreveport.png,,,,,,,,,,,,,,,,,,
null,,black_cross(without_color),642895,,,yellow,,,,,null,US_Cities_List/peoria.png,US_Cities_List/shreveport.png,,,,,,,,,,,,,,,,,,
null,,rt_plussign_withcolor,643397,,,yellow,,,,,null,US_Cities_List/peoria.png,US_Cities_List/shreveport.png,,,,,,,,,,,,,,,,,,
661.7999999523163,,rt_thecrossant_black,644436,,,black_plus_sign,,,,,50,,,1,1,,,,,,,,,,,,,,,,
null,,color_black,644539,,,black_plus_sign,,,,,null,,,,,,,,,,,,,,,,,,,,
null,,learn_phase(without_color),647544,,,black_plus_sign,,,,,null,US_Cities_List/gatlinburg.png,US_Cities_List/hotsprings.png,,,,,,,,,,,,,,,,,,
null,,black_cross(without_color),648417,,,blue,,,,,null,US_Cities_List/gatlinburg.png,US_Cities_List/hotsprings.png,,,,,,,,,,,,,,,,,,
null,,rt_plussign_withcolor,648920,,,blue,,,,,null,US_Cities_List/gatlinburg.png,US_Cities_List/hotsprings.png,,,,,,,,,,,,,,,,,,
1065,,rt_thecrossant_black,650049,,,black_plus_sign,,,,,49,,,1,1,,,,,,,,,,,,,,,,
null,,color_black,650150,,,black_plus_sign,,,,,null,,,,,,,,,,,,,,,,,,,,
null,,learn_phase(without_color),653156,,,black_plus_sign,,,,,null,US_Cities_List/carmel.png,US_Cities_List/racine.png,,,,,,,,,,,,,,,,,,
null,,black_cross(without_color),653762,,,blue,,,,,null,US_Cities_List/carmel.png,US_Cities_List/racine.png,,,,,,,,,,,,,,,,,,
null,,rt_plussign_withcolor,654263,,,blue,,,,,null,US_Cities_List/carmel.png,US_Cities_List/racine.png,,,,,,,,,,,,,,,,,,
1144.5,,rt_thecrossant_black,655660,,,black_plus_sign,,,,,49,,,1,1,,,,,,,,,,,,,,,,
null,,color_black,655761,,,black_plus_sign,,,,,null,,,,,,,,,,,,,,,,,,,,
null,,learn_phase(without_color),658767,,,black_plus_sign,,,,,null,US_Cities_List/gatlinburg.png,US_Cities_List/peoria.png,,,,,,,,,,,,,,,,,,
null,,black_cross(without_color),659787,,,blue,,,,,null,US_Cities_List/gatlinburg.png,US_Cities_List/peoria.png,,,,,,,,,,,,,,,,,,
490.5,,rt_plussign_withcolor,660289,,,blue,,,,,50,US_Cities_List/gatlinburg.png,US_Cities_List/peoria.png,,,,,,,,,,,,,,,,,,
null,,rt_thecrossant_black,661275,,,black_plus_sign,,,,,null,,,0,0.9772727272727273,,,,,,,,,,,,,,,,
null,,color_black,661376,,,black_plus_sign,,,,,null,,,,,,,,,,,,,,,,,,,,
null,,learn_phase(without_color),664382,,,black_plus_sign,,,,,null,US_Cities_List/gatlinburg.png,US_Cities_List/hanover.png,,,,,,,,,,,,,,,,,,
null,,black_cross(without_color),665469,,,yellow,,,,,null,US_Cities_List/gatlinburg.png,US_Cities_List/hanover.png,,,,,,,,,,,,,,,,,,
null,,rt_plussign_withcolor,665971,,,yellow,,,,,null,US_Cities_List/gatlinburg.png,US_Cities_List/hanover.png,,,,,,,,,,,,,,,,,,
1225.2999999523163,,rt_thecrossant_black,666887,,,black_plus_sign,,,,,50,,,1,0.9777777777777777,,,,,,,,,,,,,,,,
null,,color_black,666988,,,black_plus_sign,,,,,null,,,,,,,,,,,,,,,,,,,,
null,,learn_phase(without_color),669993,,,black_plus_sign,,,,,null,US_Cities_List/hotsprings.png,US_Cities_List/racine.png,,,,,,,,,,,,,,,,,,
null,,black_cross(without_color),670783,,,blue,,,,,null,US_Cities_List/hotsprings.png,US_Cities_List/racine.png,,,,,,,,,,,,,,,,,,
null,,rt_plussign_withcolor,671285,,,blue,,,,,null,US_Cities_List/hotsprings.png,US_Cities_List/racine.png,,,,,,,,,,,,,,,,,,
1572.2999999523163,,rt_thecrossant_black,672498,,,black_plus_sign,,,,,49,,,1,0.9782608695652174,,,,,,,,,,,,,,,,
null,,color_black,672606,,,black_plus_sign,,,,,null,,,,,,,,,,,,,,,,,,,,
null,,learn_phase(without_color),675611,,,black_plus_sign,,,,,null,US_Cities_List/hanover.png,US_Cities_List/gatlinburg.png,,,,,,,,,,,,,,,,,,
null,,black_cross(without_color),676356,,,blue,,,,,null,US_Cities_List/hanover.png,US_Cities_List/gatlinburg.png,,,,,,,,,,,,,,,,,,
null,,rt_plussign_withcolor,676857,,,blue,,,,,null,US_Cities_List/hanover.png,US_Cities_List/gatlinburg.png,,,,,,,,,,,,,,,,,,
1019.3000001907349,,rt_thecrossant_black,678117,,,black_plus_sign,,,,,49,,,1,0.9787234042553191,,,,,,,,,,,,,,,,
null,,color_black,678219,,,black_plus_sign,,,,,null,,,,,,,,,,,,,,,,,,,,
null,,learn_phase(without_color),681226,,,black_plus_sign,,,,,null,US_Cities_List/cornwall.png,US_Cities_List/racine.png,,,,,,,,,,,,,,,,,,
null,,black_cross(without_color),681724,,,blue,,,,,null,US_Cities_List/cornwall.png,US_Cities_List/racine.png,,,,,,,,,,,,,,,,,,
null,,rt_plussign_withcolor,682225,,,blue,,,,,null,US_Cities_List/cornwall.png,US_Cities_List/racine.png,,,,,,,,,,,,,,,,,,
1266.3000001907349,,rt_thecrossant_black,683731,,,black_plus_sign,,,,,49,,,1,0.9791666666666666,,,,,,,,,,,,,,,,
null,,color_black,683833,,,black_plus_sign,,,,,null,,,,,,,,,,,,,,,,,,,,
null,,learn_phase(without_color),686839,,,black_plus_sign,,,,,null,US_Cities_List/newhope.png,US_Cities_List/racine.png,,,,,,,,,,,,,,,,,,
null,,black_cross(without_color),687314,,,yellow,,,,,null,US_Cities_List/newhope.png,US_Cities_List/racine.png,,,,,,,,,,,,,,,,,,
null,,rt_plussign_withcolor,687815,,,yellow,,,,,null,US_Cities_List/newhope.png,US_Cities_List/racine.png,,,,,,,,,,,,,,,,,,
792,,rt_thecrossant_black,689343,,,black_plus_sign,,,,,50,,,1,0.9795918367346939,,,,,,,,,,,,,,,,
null,,color_black,689445,,,black_plus_sign,,,,,null,,,,,,,,,,,,,,,,,,,,
null,,learn_phase(without_color),692451,,,black_plus_sign,,,,,null,US_Cities_List/leesburg.png,US_Cities_List/cornwall.png,,,,,,,,,,,,,,,,,,
null,,black_cross(without_color),692857,,,blue,,,,,null,US_Cities_List/leesburg.png,US_Cities_List/cornwall.png,,,,,,,,,,,,,,,,,,
null,,rt_plussign_withcolor,693371,,,blue,,,,,null,US_Cities_List/leesburg.png,US_Cities_List/cornwall.png,,,,,,,,,,,,,,,,,,
835.5,,rt_thecrossant_black,694969,,,black_plus_sign,,,,,49,,,1,0.98,,,,,,,,,,,,,,,,
null,,color_black,695070,,,black_plus_sign,,,,,null,,,,,,,,,,,,,,,,,,,,
null,,learn_phase(without_color),698078,,,black_plus_sign,,,,,null,US_Cities_List/cornwall.png,US_Cities_List/racine.png,,,,,,,,,,,,,,,,,,
null,,black_cross(without_color),699114,,,yellow,,,,,null,US_Cities_List/cornwall.png,US_Cities_List/racine.png,,,,,,,,,,,,,,,,,,
null,,rt_plussign_withcolor,699615,,,yellow,,,,,null,US_Cities_List/cornwall.png,US_Cities_List/racine.png,,,,,,,,,,,,,,,,,,
690.7999999523163,,rt_thecrossant_black,700584,,,black_plus_sign,,,,,50,,,1,0.9803921568627451,,,,,,,,,,,,,,,,
null,,color_black,700686,,,black_plus_sign,,,,,null,,,,,,,,,,,,,,,,,,,,
null,,learn_phase(without_color),703694,,,black_plus_sign,,,,,null,US_Cities_List/cornwall.png,US_Cities_List/leesburg.png,,,,,,,,,,,,,,,,,,
null,,black_cross(without_color),704732,,,blue,,,,,null,US_Cities_List/cornwall.png,US_Cities_List/leesburg.png,,,,,,,,,,,,,,,,,,
null,,rt_plussign_withcolor,705234,,,blue,,,,,null,US_Cities_List/cornwall.png,US_Cities_List/leesburg.png,,,,,,,,,,,,,,,,,,
1248.2000000476837,,rt_thecrossant_black,706198,,,black_plus_sign,,,,,49,,,1,0.9807692307692307,,,,,,,,,,,,,,,,
null,,color_black,706304,,,black_plus_sign,,,,,null,,,,,,,,,,,,,,,,,,,,
null,,learn_phase(without_color),709310,,,black_plus_sign,,,,,null,US_Cities_List/racine.png,US_Cities_List/cornwall.png,,,,,,,,,,,,,,,,,,
null,,black_cross(without_color),709862,,,blue,,,,,null,US_Cities_List/racine.png,US_Cities_List/cornwall.png,,,,,,,,,,,,,,,,,,
null,,rt_plussign_withcolor,710364,,,blue,,,,,null,US_Cities_List/racine.png,US_Cities_List/cornwall.png,,,,,,,,,,,,,,,,,,
1674.3999998569489,,rt_thecrossant_black,711816,,,black_plus_sign,,,,,49,,,1,0.9811320754716981,,,,,,,,,,,,,,,,
null,,color_black,711918,,,black_plus_sign,,,,,null,,,,,,,,,,,,,,,,,,,,
null,,learn_phase(without_color),714923,,,black_plus_sign,,,,,null,US_Cities_List/gatlinburg.png,US_Cities_List/hanover.png,,,,,,,,,,,,,,,,,,
null,,black_cross(without_color),715457,,,yellow,,,,,null,US_Cities_List/gatlinburg.png,US_Cities_List/hanover.png,,,,,,,,,,,,,,,,,,
null,,rt_plussign_withcolor,715959,,,yellow,,,,,null,US_Cities_List/gatlinburg.png,US_Cities_List/hanover.png,,,,,,,,,,,,,,,,,,
774.5,,rt_thecrossant_black,717428,,,black_plus_sign,,,,,50,,,1,0.9814814814814815,,,,,,,,,,,,,,,,
null,,color_black,717530,,,black_plus_sign,,,,,null,,,,,,,,,,,,,,,,,,,,
null,,learn_phase(without_color),720535,,,black_plus_sign,,,,,null,US_Cities_List/peoria.png,US_Cities_List/huntsville.png,,,,,,,,,,,,,,,,,,
null,,black_cross(without_color),721481,,,yellow,,,,,null,US_Cities_List/peoria.png,US_Cities_List/huntsville.png,,,,,,,,,,,,,,,,,,
null,,rt_plussign_withcolor,721983,,,yellow,,,,,null,US_Cities_List/peoria.png,US_Cities_List/huntsville.png,,,,,,,,,,,,,,,,,,
970.6000001430511,,rt_thecrossant_black,723039,,,black_plus_sign,,,,,50,,,1,0.9818181818181818,,,,,,,,,,,,,,,,
null,,color_black,723141,,,black_plus_sign,,,,,null,,,,,,,,,,,,,,,,,,,,
null,,learn_phase(without_color),726145,,,black_plus_sign,,,,,null,US_Cities_List/huntsville.png,US_Cities_List/westpalmbeach.png,,,,,,,,,,,,,,,,,,
null,,black_cross(without_color),726817,,,blue,,,,,null,US_Cities_List/huntsville.png,US_Cities_List/westpalmbeach.png,,,,,,,,,,,,,,,,,,
null,,rt_plussign_withcolor,727318,,,blue,,,,,null,US_Cities_List/huntsville.png,US_Cities_List/westpalmbeach.png,,,,,,,,,,,,,,,,,,
1338.7999999523163,,rt_thecrossant_black,728657,,,black_plus_sign,,,,,49,,,1,0.9821428571428571,,,,,,,,,,,,,,,,
null,,color_black,728758,,,black_plus_sign,,,,,null,,,,,,,,,,,,,,,,,,,,
null,,learn_phase(without_color),731763,,,black_plus_sign,,,,,null,US_Cities_List/peoria.png,US_Cities_List/shreveport.png,,,,,,,,,,,,,,,,,,
null,,black_cross(without_color),732634,,,blue,,,,,null,US_Cities_List/peoria.png,US_Cities_List/shreveport.png,,,,,,,,,,,,,,,,,,
null,,rt_plussign_withcolor,733137,,,blue,,,,,null,US_Cities_List/peoria.png,US_Cities_List/shreveport.png,,,,,,,,,,,,,,,,,,
1038.3999998569489,,rt_thecrossant_black,734269,,,black_plus_sign,,,,,49,,,1,0.9824561403508771,,,,,,,,,,,,,,,,
null,,color_black,734371,,,black_plus_sign,,,,,null,,,,,,,,,,,,,,,,,,,,
null,,learn_phase(without_color),737377,,,black_plus_sign,,,,,null,US_Cities_List/newhope.png,US_Cities_List/racine.png,,,,,,,,,,,,,,,,,,
null,,black_cross(without_color),737951,,,yellow,,,,,null,US_Cities_List/newhope.png,US_Cities_List/racine.png,,,,,,,,,,,,,,,,,,
null,,rt_plussign_withcolor,738452,,,yellow,,,,,null,US_Cities_List/newhope.png,US_Cities_List/racine.png,,,,,,,,,,,,,,,,,,
1259,,rt_thecrossant_black,739882,,,black_plus_sign,,,,,50,,,1,0.9827586206896551,,,,,,,,,,,,,,,,
null,,color_black,739984,,,black_plus_sign,,,,,null,,,,,,,,,,,,,,,,,,,,
null,,learn_phase(without_color),742988,,,black_plus_sign,,,,,null,US_Cities_List/carmel.png,US_Cities_List/hotsprings.png,,,,,,,,,,,,,,,,,,
null,,black_cross(without_color),743485,,,blue,,,,,null,US_Cities_List/carmel.png,US_Cities_List/hotsprings.png,,,,,,,,,,,,,,,,,,
null,,rt_plussign_withcolor,743986,,,blue,,,,,null,US_Cities_List/carmel.png,US_Cities_List/hotsprings.png,,,,,,,,,,,,,,,,,,
941.7000000476837,,rt_thecrossant_black,745492,,,black_plus_sign,,,,,49,,,1,0.9830508474576272,,,,,,,,,,,,,,,,
null,,color_black,745594,,,black_plus_sign,,,,,null,,,,,,,,,,,,,,,,,,,,
null,,learn_phase(without_color),748600,,,black_plus_sign,,,,,null,US_Cities_List/hanover.png,US_Cities_List/westpalmbeach.png,,,,,,,,,,,,,,,,,,
null,,black_cross(without_color),749262,,,blue,,,,,null,US_Cities_List/hanover.png,US_Cities_List/westpalmbeach.png,,,,,,,,,,,,,,,,,,
null,,rt_plussign_withcolor,749764,,,blue,,,,,null,US_Cities_List/hanover.png,US_Cities_List/westpalmbeach.png,,,,,,,,,,,,,,,,,,
862.0999999046326,,rt_thecrossant_black,751107,,,black_plus_sign,,,,,49,,,1,0.9833333333333333,,,,,,,,,,,,,,,,
null,,color_black,751209,,,black_plus_sign,,,,,null,,,,,,,,,,,,,,,,,,,,
null,,learn_phase(without_color),754213,,,black_plus_sign,,,,,null,US_Cities_List/hanover.png,US_Cities_List/carmel.png,,,,,,,,,,,,,,,,,,
null,,black_cross(without_color),754759,,,blue,,,,,null,US_Cities_List/hanover.png,US_Cities_List/carmel.png,,,,,,,,,,,,,,,,,,
null,,rt_plussign_withcolor,755261,,,blue,,,,,null,US_Cities_List/hanover.png,US_Cities_List/carmel.png,,,,,,,,,,,,,,,,,,
931.2000000476837,,rt_thecrossant_black,756717,,,black_plus_sign,,,,,49,,,1,0.9836065573770492,,,,,,,,,,,,,,,,
null,,color_black,756832,,,black_plus_sign,,,,,null,,,,,,,,,,,,,,,,,,,,
null,,learn_phase(without_color),759838,,,black_plus_sign,,,,,null,US_Cities_List/racine.png,US_Cities_List/hotsprings.png,,,,,,,,,,,,,,,,,,
null,,black_cross(without_color),760670,,,yellow,,,,,null,US_Cities_List/racine.png,US_Cities_List/hotsprings.png,,,,,,,,,,,,,,,,,,
null,,rt_plussign_withcolor,761171,,,yellow,,,,,null,US_Cities_List/racine.png,US_Cities_List/hotsprings.png,,,,,,,,,,,,,,,,,,
906.8999998569489,,rt_thecrossant_black,762343,,,black_plus_sign,,,,,50,,,1,0.9838709677419355,,,,,,,,,,,,,,,,
null,,color_black,762446,,,black_plus_sign,,,,,null,,,,,,,,,,,,,,,,,,,,
null,,learn_phase(without_color),765449,,,black_plus_sign,,,,,null,US_Cities_List/peoria.png,US_Cities_List/huntsville.png,,,,,,,,,,,,,,,,,,
null,,black_cross(without_color),766150,,,yellow,,,,,null,US_Cities_List/peoria.png,US_Cities_List/huntsville.png,,,,,,,,,,,,,,,,,,
null,,rt_plussign_withcolor,766651,,,yellow,,,,,null,US_Cities_List/peoria.png,US_Cities_List/huntsville.png,,,,,,,,,,,,,,,,,,
1006.7000000476837,,rt_thecrossant_black,767953,,,black_plus_sign,,,,,50,,,1,0.9841269841269841,,,,,,,,,,,,,,,,
null,,color_black,768055,,,black_plus_sign,,,,,null,,,,,,,,,,,,,,,,,,,,
5175.200000047684,,learn_break,773231,,,learn_break,,,,,32,,,,,,,,,,,,,,,,,,,,
null,,html-keyboard-response,774232,,,<p></p>,,,,,null,,,,,,,,,,,,,,,,,,,,
null,,learn_phase(without_color),777236,,,black_plus_sign,,,,,null,US_Cities_List/huntsville.png,US_Cities_List/westpalmbeach.png,,,,,,,,,,,,,,,,,,
null,,black_cross(without_color),778008,,,blue,,,,,null,US_Cities_List/huntsville.png,US_Cities_List/westpalmbeach.png,,,,,,,,,,,,,,,,,,
null,,rt_plussign_withcolor,778509,,,blue,,,,,null,US_Cities_List/huntsville.png,US_Cities_List/westpalmbeach.png,,,,,,,,,,,,,,,,,,
1046.8000001907349,,rt_thecrossant_black,779741,,,black_plus_sign,,,,,49,,,1,0.984375,,,,,,,,,,,,,,,,
null,,color_black,779842,,,black_plus_sign,,,,,null,,,,,,,,,,,,,,,,,,,,
null,,learn_phase(without_color),782848,,,black_plus_sign,,,,,null,US_Cities_List/carmel.png,US_Cities_List/cornwall.png,,,,,,,,,,,,,,,,,,
null,,black_cross(without_color),783532,,,yellow,,,,,null,US_Cities_List/carmel.png,US_Cities_List/cornwall.png,,,,,,,,,,,,,,,,,,
null,,rt_plussign_withcolor,784034,,,yellow,,,,,null,US_Cities_List/carmel.png,US_Cities_List/cornwall.png,,,,,,,,,,,,,,,,,,
1155.9000000953674,,rt_thecrossant_black,785353,,,black_plus_sign,,,,,50,,,1,0.9846153846153847,,,,,,,,,,,,,,,,
null,,color_black,785454,,,black_plus_sign,,,,,null,,,,,,,,,,,,,,,,,,,,
null,,learn_phase(without_color),788461,,,black_plus_sign,,,,,null,US_Cities_List/cornwall.png,US_Cities_List/carmel.png,,,,,,,,,,,,,,,,,,
null,,black_cross(without_color),789328,,,blue,,,,,null,US_Cities_List/cornwall.png,US_Cities_List/carmel.png,,,,,,,,,,,,,,,,,,
null,,rt_plussign_withcolor,789830,,,blue,,,,,null,US_Cities_List/cornwall.png,US_Cities_List/carmel.png,,,,,,,,,,,,,,,,,,
998.5999999046326,,rt_thecrossant_black,790967,,,black_plus_sign,,,,,49,,,1,0.9848484848484849,,,,,,,,,,,,,,,,
null,,color_black,791069,,,black_plus_sign,,,,,null,,,,,,,,,,,,,,,,,,,,
null,,learn_phase(without_color),794075,,,black_plus_sign,,,,,null,US_Cities_List/hotsprings.png,US_Cities_List/racine.png,,,,,,,,,,,,,,,,,,
null,,black_cross(without_color),794585,,,yellow,,,,,null,US_Cities_List/hotsprings.png,US_Cities_List/racine.png,,,,,,,,,,,,,,,,,,
null,,rt_plussign_withcolor,795087,,,yellow,,,,,null,US_Cities_List/hotsprings.png,US_Cities_List/racine.png,,,,,,,,,,,,,,,,,,
1103.9000000953674,,rt_thecrossant_black,796600,,,black_plus_sign,,,,,50,,,1,0.9850746268656716,,,,,,,,,,,,,,,,
null,,color_black,796702,,,black_plus_sign,,,,,null,,,,,,,,,,,,,,,,,,,,
null,,learn_phase(without_color),799707,,,black_plus_sign,,,,,null,US_Cities_List/westpalmbeach.png,US_Cities_List/hanover.png,,,,,,,,,,,,,,,,,,
null,,black_cross(without_color),800330,,,blue,,,,,null,US_Cities_List/westpalmbeach.png,US_Cities_List/hanover.png,,,,,,,,,,,,,,,,,,
null,,rt_plussign_withcolor,800840,,,blue,,,,,null,US_Cities_List/westpalmbeach.png,US_Cities_List/hanover.png,,,,,,,,,,,,,,,,,,
921.6000001430511,,rt_thecrossant_black,802220,,,black_plus_sign,,,,,49,,,1,0.9852941176470589,,,,,,,,,,,,,,,,
null,,color_black,802322,,,black_plus_sign,,,,,null,,,,,,,,,,,,,,,,,,,,
null,,learn_phase(without_color),805326,,,black_plus_sign,,,,,null,US_Cities_List/peoria.png,US_Cities_List/huntsville.png,,,,,,,,,,,,,,,,,,
null,,black_cross(without_color),806035,,,yellow,,,,,null,US_Cities_List/peoria.png,US_Cities_List/huntsville.png,,,,,,,,,,,,,,,,,,
null,,rt_plussign_withcolor,806537,,,yellow,,,,,null,US_Cities_List/peoria.png,US_Cities_List/huntsville.png,,,,,,,,,,,,,,,,,,
948.4000000953674,,rt_thecrossant_black,807832,,,black_plus_sign,,,,,50,,,1,0.9855072463768116,,,,,,,,,,,,,,,,
null,,color_black,807935,,,black_plus_sign,,,,,null,,,,,,,,,,,,,,,,,,,,
null,,learn_phase(without_color),810942,,,black_plus_sign,,,,,null,US_Cities_List/cornwall.png,US_Cities_List/carmel.png,,,,,,,,,,,,,,,,,,
null,,black_cross(without_color),811450,,,yellow,,,,,null,US_Cities_List/cornwall.png,US_Cities_List/carmel.png,,,,,,,,,,,,,,,,,,
null,,rt_plussign_withcolor,811951,,,yellow,,,,,null,US_Cities_List/cornwall.png,US_Cities_List/carmel.png,,,,,,,,,,,,,,,,,,
1017,,rt_thecrossant_black,813446,,,black_plus_sign,,,,,50,,,1,0.9857142857142858,,,,,,,,,,,,,,,,
null,,color_black,813547,,,black_plus_sign,,,,,null,,,,,,,,,,,,,,,,,,,,
null,,learn_phase(without_color),816552,,,black_plus_sign,,,,,null,US_Cities_List/hotsprings.png,US_Cities_List/gatlinburg.png,,,,,,,,,,,,,,,,,,
null,,black_cross(without_color),817267,,,yellow,,,,,null,US_Cities_List/hotsprings.png,US_Cities_List/gatlinburg.png,,,,,,,,,,,,,,,,,,
null,,rt_plussign_withcolor,817767,,,yellow,,,,,null,US_Cities_List/hotsprings.png,US_Cities_List/gatlinburg.png,,,,,,,,,,,,,,,,,,
795.2000000476837,,rt_thecrossant_black,819057,,,black_plus_sign,,,,,50,,,1,0.9859154929577465,,,,,,,,,,,,,,,,
null,,color_black,819158,,,black_plus_sign,,,,,null,,,,,,,,,,,,,,,,,,,,
null,,learn_phase(without_color),822161,,,black_plus_sign,,,,,null,US_Cities_List/boulder.png,US_Cities_List/huntsville.png,,,,,,,,,,,,,,,,,,
null,,black_cross(without_color),823072,,,blue,,,,,null,US_Cities_List/boulder.png,US_Cities_List/huntsville.png,,,,,,,,,,,,,,,,,,
null,,rt_plussign_withcolor,823578,,,blue,,,,,null,US_Cities_List/boulder.png,US_Cities_List/huntsville.png,,,,,,,,,,,,,,,,,,
976.5999999046326,,rt_thecrossant_black,824670,,,black_plus_sign,,,,,49,,,1,0.9861111111111112,,,,,,,,,,,,,,,,
null,,color_black,824771,,,black_plus_sign,,,,,null,,,,,,,,,,,,,,,,,,,,
null,,learn_phase(without_color),827776,,,black_plus_sign,,,,,null,US_Cities_List/westpalmbeach.png,US_Cities_List/hanover.png,,,,,,,,,,,,,,,,,,
null,,black_cross(without_color),828665,,,blue,,,,,null,US_Cities_List/westpalmbeach.png,US_Cities_List/hanover.png,,,,,,,,,,,,,,,,,,
null,,rt_plussign_withcolor,829167,,,blue,,,,,null,US_Cities_List/westpalmbeach.png,US_Cities_List/hanover.png,,,,,,,,,,,,,,,,,,
1203.9000000953674,,rt_thecrossant_black,830281,,,black_plus_sign,,,,,49,,,1,0.9863013698630136,,,,,,,,,,,,,,,,
null,,color_black,830383,,,black_plus_sign,,,,,null,,,,,,,,,,,,,,,,,,,,
null,,learn_phase(without_color),833388,,,black_plus_sign,,,,,null,US_Cities_List/gatlinburg.png,US_Cities_List/peoria.png,,,,,,,,,,,,,,,,,,
null,,black_cross(without_color),833900,,,blue,,,,,null,US_Cities_List/gatlinburg.png,US_Cities_List/peoria.png,,,,,,,,,,,,,,,,,,
null,,rt_plussign_withcolor,834402,,,blue,,,,,null,US_Cities_List/gatlinburg.png,US_Cities_List/peoria.png,,,,,,,,,,,,,,,,,,
1419.5999999046326,,rt_thecrossant_black,835893,,,black_plus_sign,,,,,49,,,1,0.9864864864864865,,,,,,,,,,,,,,,,
null,,color_black,835995,,,black_plus_sign,,,,,null,,,,,,,,,,,,,,,,,,,,
null,,learn_phase(without_color),839001,,,black_plus_sign,,,,,null,US_Cities_List/huntsville.png,US_Cities_List/westpalmbeach.png,,,,,,,,,,,,,,,,,,
null,,black_cross(without_color),839737,,,yellow,,,,,null,US_Cities_List/huntsville.png,US_Cities_List/westpalmbeach.png,,,,,,,,,,,,,,,,,,
494.7000000476837,,rt_plussign_withcolor,840238,,,yellow,,,,,50,US_Cities_List/huntsville.png,US_Cities_List/westpalmbeach.png,,,,,,,,,,,,,,,,,,
null,,rt_thecrossant_black,841506,,,black_plus_sign,,,,,null,,,1,0.9866666666666667,,,,,,,,,,,,,,,,
null,,color_black,841608,,,black_plus_sign,,,,,null,,,,,,,,,,,,,,,,,,,,
null,,learn_phase(without_color),844613,,,black_plus_sign,,,,,null,US_Cities_List/shreveport.png,US_Cities_List/peoria.png,,,,,,,,,,,,,,,,,,
null,,black_cross(without_color),845430,,,blue,,,,,null,US_Cities_List/shreveport.png,US_Cities_List/peoria.png,,,,,,,,,,,,,,,,,,
null,,rt_plussign_withcolor,845932,,,blue,,,,,null,US_Cities_List/shreveport.png,US_Cities_List/peoria.png,,,,,,,,,,,,,,,,,,
990.7000000476837,,rt_thecrossant_black,847119,,,black_plus_sign,,,,,49,,,1,0.9868421052631579,,,,,,,,,,,,,,,,
null,,color_black,847221,,,black_plus_sign,,,,,null,,,,,,,,,,,,,,,,,,,,
null,,learn_phase(without_color),850226,,,black_plus_sign,,,,,null,US_Cities_List/racine.png,US_Cities_List/carmel.png,,,,,,,,,,,,,,,,,,
null,,black_cross(without_color),851094,,,blue,,,,,null,US_Cities_List/racine.png,US_Cities_List/carmel.png,,,,,,,,,,,,,,,,,,
null,,rt_plussign_withcolor,851595,,,blue,,,,,null,US_Cities_List/racine.png,US_Cities_List/carmel.png,,,,,,,,,,,,,,,,,,
1589.6000001430511,,rt_thecrossant_black,852737,,,black_plus_sign,,,,,49,,,1,0.987012987012987,,,,,,,,,,,,,,,,
null,,color_black,852839,,,black_plus_sign,,,,,null,,,,,,,,,,,,,,,,,,,,
null,,learn_phase(without_color),855845,,,black_plus_sign,,,,,null,US_Cities_List/hotsprings.png,US_Cities_List/gatlinburg.png,,,,,,,,,,,,,,,,,,
null,,black_cross(without_color),856619,,,yellow,,,,,null,US_Cities_List/hotsprings.png,US_Cities_List/gatlinburg.png,,,,,,,,,,,,,,,,,,
null,,rt_plussign_withcolor,857121,,,yellow,,,,,null,US_Cities_List/hotsprings.png,US_Cities_List/gatlinburg.png,,,,,,,,,,,,,,,,,,
1103.2999999523163,,rt_thecrossant_black,858350,,,black_plus_sign,,,,,50,,,1,0.9871794871794872,,,,,,,,,,,,,,,,
null,,color_black,858452,,,black_plus_sign,,,,,null,,,,,,,,,,,,,,,,,,,,
null,,learn_phase(without_color),861459,,,black_plus_sign,,,,,null,US_Cities_List/hanover.png,US_Cities_List/gatlinburg.png,,,,,,,,,,,,,,,,,,
null,,black_cross(without_color),862154,,,blue,,,,,null,US_Cities_List/hanover.png,US_Cities_List/gatlinburg.png,,,,,,,,,,,,,,,,,,
null,,rt_plussign_withcolor,862655,,,blue,,,,,null,US_Cities_List/hanover.png,US_Cities_List/gatlinburg.png,,,,,,,,,,,,,,,,,,
1319.2999999523163,,rt_thecrossant_black,863963,,,black_plus_sign,,,,,49,,,1,0.9873417721518988,,,,,,,,,,,,,,,,
null,,color_black,864064,,,black_plus_sign,,,,,null,,,,,,,,,,,,,,,,,,,,
null,,learn_phase(without_color),867070,,,black_plus_sign,,,,,null,US_Cities_List/hotsprings.png,US_Cities_List/carmel.png,,,,,,,,,,,,,,,,,,
null,,black_cross(without_color),868080,,,yellow,,,,,null,US_Cities_List/hotsprings.png,US_Cities_List/carmel.png,,,,,,,,,,,,,,,,,,
null,,rt_plussign_withcolor,868582,,,yellow,,,,,null,US_Cities_List/hotsprings.png,US_Cities_List/carmel.png,,,,,,,,,,,,,,,,,,
859.7999999523163,,rt_thecrossant_black,869576,,,black_plus_sign,,,,,50,,,1,0.9875,,,,,,,,,,,,,,,,
null,,color_black,869678,,,black_plus_sign,,,,,null,,,,,,,,,,,,,,,,,,,,
null,,learn_phase(without_color),872681,,,black_plus_sign,,,,,null,US_Cities_List/huntsville.png,US_Cities_List/boulder.png,,,,,,,,,,,,,,,,,,
null,,black_cross(without_color),873495,,,blue,,,,,null,US_Cities_List/huntsville.png,US_Cities_List/boulder.png,,,,,,,,,,,,,,,,,,
null,,rt_plussign_withcolor,873996,,,blue,,,,,null,US_Cities_List/huntsville.png,US_Cities_List/boulder.png,,,,,,,,,,,,,,,,,,
1315.9000000953674,,rt_thecrossant_black,875188,,,black_plus_sign,,,,,49,,,1,0.9876543209876543,,,,,,,,,,,,,,,,
null,,color_black,875290,,,black_plus_sign,,,,,null,,,,,,,,,,,,,,,,,,,,
null,,learn_phase(without_color),878295,,,black_plus_sign,,,,,null,US_Cities_List/hanover.png,US_Cities_List/carmel.png,,,,,,,,,,,,,,,,,,
null,,black_cross(without_color),879007,,,yellow,,,,,null,US_Cities_List/hanover.png,US_Cities_List/carmel.png,,,,,,,,,,,,,,,,,,
null,,rt_plussign_withcolor,879509,,,yellow,,,,,null,US_Cities_List/hanover.png,US_Cities_List/carmel.png,,,,,,,,,,,,,,,,,,
1088.5,,rt_thecrossant_black,880799,,,black_plus_sign,,,,,50,,,1,0.9878048780487805,,,,,,,,,,,,,,,,
null,,color_black,880902,,,black_plus_sign,,,,,null,,,,,,,,,,,,,,,,,,,,
null,,learn_phase(without_color),883907,,,black_plus_sign,,,,,null,US_Cities_List/peoria.png,US_Cities_List/gatlinburg.png,,,,,,,,,,,,,,,,,,
null,,black_cross(without_color),884342,,,blue,,,,,null,US_Cities_List/peoria.png,US_Cities_List/gatlinburg.png,,,,,,,,,,,,,,,,,,
null,,rt_plussign_withcolor,884843,,,blue,,,,,null,US_Cities_List/peoria.png,US_Cities_List/gatlinburg.png,,,,,,,,,,,,,,,,,,
1055.2999999523163,,rt_thecrossant_black,886413,,,black_plus_sign,,,,,49,,,1,0.9879518072289156,,,,,,,,,,,,,,,,
null,,color_black,886515,,,black_plus_sign,,,,,null,,,,,,,,,,,,,,,,,,,,
null,,learn_phase(without_color),889522,,,black_plus_sign,,,,,null,US_Cities_List/racine.png,US_Cities_List/newhope.png,,,,,,,,,,,,,,,,,,
null,,black_cross(without_color),890242,,,yellow,,,,,null,US_Cities_List/racine.png,US_Cities_List/newhope.png,,,,,,,,,,,,,,,,,,
null,,rt_plussign_withcolor,890743,,,yellow,,,,,null,US_Cities_List/racine.png,US_Cities_List/newhope.png,,,,,,,,,,,,,,,,,,
629,,rt_thecrossant_black,892025,,,black_plus_sign,,,,,50,,,1,0.9880952380952381,,,,,,,,,,,,,,,,
null,,color_black,892127,,,black_plus_sign,,,,,null,,,,,,,,,,,,,,,,,,,,
null,,learn_phase(without_color),895133,,,black_plus_sign,,,,,null,US_Cities_List/cornwall.png,US_Cities_List/leesburg.png,,,,,,,,,,,,,,,,,,
null,,black_cross(without_color),895831,,,yellow,,,,,null,US_Cities_List/cornwall.png,US_Cities_List/leesburg.png,,,,,,,,,,,,,,,,,,
null,,rt_plussign_withcolor,896333,,,yellow,,,,,null,US_Cities_List/cornwall.png,US_Cities_List/leesburg.png,,,,,,,,,,,,,,,,,,
901.5999999046326,,rt_thecrossant_black,897638,,,black_plus_sign,,,,,50,,,1,0.9882352941176471,,,,,,,,,,,,,,,,
null,,color_black,897748,,,black_plus_sign,,,,,null,,,,,,,,,,,,,,,,,,,,
null,,learn_phase(without_color),900754,,,black_plus_sign,,,,,null,US_Cities_List/gatlinburg.png,US_Cities_List/hotsprings.png,,,,,,,,,,,,,,,,,,
null,,black_cross(without_color),901658,,,yellow,,,,,null,US_Cities_List/gatlinburg.png,US_Cities_List/hotsprings.png,,,,,,,,,,,,,,,,,,
463.30000019073486,,rt_plussign_withcolor,902159,,,yellow,,,,,50,US_Cities_List/gatlinburg.png,US_Cities_List/hotsprings.png,,,,,,,,,,,,,,,,,,
null,,rt_thecrossant_black,903260,,,black_plus_sign,,,,,null,,,1,0.9883720930232558,,,,,,,,,,,,,,,,
null,,color_black,903361,,,black_plus_sign,,,,,null,,,,,,,,,,,,,,,,,,,,
null,,learn_phase(without_color),906365,,,black_plus_sign,,,,,null,US_Cities_List/westpalmbeach.png,US_Cities_List/huntsville.png,,,,,,,,,,,,,,,,,,
null,,black_cross(without_color),907253,,,blue,,,,,null,US_Cities_List/westpalmbeach.png,US_Cities_List/huntsville.png,,,,,,,,,,,,,,,,,,
null,,rt_plussign_withcolor,907754,,,blue,,,,,null,US_Cities_List/westpalmbeach.png,US_Cities_List/huntsville.png,,,,,,,,,,,,,,,,,,
1092.5,,rt_thecrossant_black,908868,,,black_plus_sign,,,,,49,,,1,0.9885057471264368,,,,,,,,,,,,,,,,
null,,color_black,908970,,,black_plus_sign,,,,,null,,,,,,,,,,,,,,,,,,,,
null,,learn_phase(without_color),911976,,,black_plus_sign,,,,,null,US_Cities_List/racine.png,US_Cities_List/hotsprings.png,,,,,,,,,,,,,,,,,,
null,,black_cross(without_color),912903,,,yellow,,,,,null,US_Cities_List/racine.png,US_Cities_List/hotsprings.png,,,,,,,,,,,,,,,,,,
null,,rt_plussign_withcolor,913405,,,yellow,,,,,null,US_Cities_List/racine.png,US_Cities_List/hotsprings.png,,,,,,,,,,,,,,,,,,
1004.1000001430511,,rt_thecrossant_black,914489,,,black_plus_sign,,,,,50,,,1,0.9886363636363636,,,,,,,,,,,,,,,,
null,,color_black,914590,,,black_plus_sign,,,,,null,,,,,,,,,,,,,,,,,,,,
null,,learn_phase(without_color),917594,,,black_plus_sign,,,,,null,US_Cities_List/westpalmbeach.png,US_Cities_List/huntsville.png,,,,,,,,,,,,,,,,,,
null,,black_cross(without_color),918027,,,blue,,,,,null,US_Cities_List/westpalmbeach.png,US_Cities_List/huntsville.png,,,,,,,,,,,,,,,,,,
null,,rt_plussign_withcolor,918529,,,blue,,,,,null,US_Cities_List/westpalmbeach.png,US_Cities_List/huntsville.png,,,,,,,,,,,,,,,,,,
1277.2000000476837,,rt_thecrossant_black,920099,,,black_plus_sign,,,,,49,,,1,0.9887640449438202,,,,,,,,,,,,,,,,
null,,color_black,920202,,,black_plus_sign,,,,,null,,,,,,,,,,,,,,,,,,,,
null,,learn_phase(without_color),923219,,,black_plus_sign,,,,,null,US_Cities_List/huntsville.png,US_Cities_List/westpalmbeach.png,,,,,,,,,,,,,,,,,,
null,,black_cross(without_color),923978,,,blue,,,,,null,US_Cities_List/huntsville.png,US_Cities_List/westpalmbeach.png,,,,,,,,,,,,,,,,,,
447.40000009536743,,rt_plussign_withcolor,924480,,,blue,,,,,49,US_Cities_List/huntsville.png,US_Cities_List/westpalmbeach.png,,,,,,,,,,,,,,,,,,
null,,rt_thecrossant_black,925726,,,black_plus_sign,,,,,null,,,1,0.9888888888888889,,,,,,,,,,,,,,,,
null,,color_black,925827,,,black_plus_sign,,,,,null,,,,,,,,,,,,,,,,,,,,
null,,learn_phase(without_color),928831,,,black_plus_sign,,,,,null,US_Cities_List/peoria.png,US_Cities_List/huntsville.png,,,,,,,,,,,,,,,,,,
null,,black_cross(without_color),929329,,,blue,,,,,null,US_Cities_List/peoria.png,US_Cities_List/huntsville.png,,,,,,,,,,,,,,,,,,
null,,rt_plussign_withcolor,929830,,,blue,,,,,null,US_Cities_List/peoria.png,US_Cities_List/huntsville.png,,,,,,,,,,,,,,,,,,
924.9000000953674,,rt_thecrossant_black,931336,,,black_plus_sign,,,,,49,,,1,0.989010989010989,,,,,,,,,,,,,,,,
null,,color_black,931436,,,black_plus_sign,,,,,null,,,,,,,,,,,,,,,,,,,,
null,,learn_phase(without_color),934441,,,black_plus_sign,,,,,null,US_Cities_List/hanover.png,US_Cities_List/carmel.png,,,,,,,,,,,,,,,,,,
null,,black_cross(without_color),935202,,,blue,,,,,null,US_Cities_List/hanover.png,US_Cities_List/carmel.png,,,,,,,,,,,,,,,,,,
null,,rt_plussign_withcolor,935704,,,blue,,,,,null,US_Cities_List/hanover.png,US_Cities_List/carmel.png,,,,,,,,,,,,,,,,,,
737.7999999523163,,rt_thecrossant_black,936946,,,black_plus_sign,,,,,49,,,1,0.9891304347826086,,,,,,,,,,,,,,,,
null,,color_black,937048,,,black_plus_sign,,,,,null,,,,,,,,,,,,,,,,,,,,
null,,learn_phase(without_color),940059,,,black_plus_sign,,,,,null,US_Cities_List/westpalmbeach.png,US_Cities_List/huntsville.png,,,,,,,,,,,,,,,,,,
null,,black_cross(without_color),940841,,,yellow,,,,,null,US_Cities_List/westpalmbeach.png,US_Cities_List/huntsville.png,,,,,,,,,,,,,,,,,,
null,,rt_plussign_withcolor,941343,,,yellow,,,,,null,US_Cities_List/westpalmbeach.png,US_Cities_List/huntsville.png,,,,,,,,,,,,,,,,,,
989.2999999523163,,rt_thecrossant_black,942565,,,black_plus_sign,,,,,50,,,1,0.989247311827957,,,,,,,,,,,,,,,,
null,,color_black,942666,,,black_plus_sign,,,,,null,,,,,,,,,,,,,,,,,,,,
null,,learn_phase(without_color),945672,,,black_plus_sign,,,,,null,US_Cities_List/peoria.png,US_Cities_List/shreveport.png,,,,,,,,,,,,,,,,,,
null,,black_cross(without_color),946093,,,yellow,,,,,null,US_Cities_List/peoria.png,US_Cities_List/shreveport.png,,,,,,,,,,,,,,,,,,
null,,rt_plussign_withcolor,946597,,,yellow,,,,,null,US_Cities_List/peoria.png,US_Cities_List/shreveport.png,,,,,,,,,,,,,,,,,,
1100.6999998092651,,rt_thecrossant_black,948178,,,black_plus_sign,,,,,50,,,1,0.9893617021276596,,,,,,,,,,,,,,,,
null,,color_black,948280,,,black_plus_sign,,,,,null,,,,,,,,,,,,,,,,,,,,
null,,learn_phase(without_color),951286,,,black_plus_sign,,,,,null,US_Cities_List/racine.png,US_Cities_List/cornwall.png,,,,,,,,,,,,,,,,,,
null,,black_cross(without_color),952339,,,yellow,,,,,null,US_Cities_List/racine.png,US_Cities_List/cornwall.png,,,,,,,,,,,,,,,,,,
null,,rt_plussign_withcolor,952841,,,yellow,,,,,null,US_Cities_List/racine.png,US_Cities_List/cornwall.png,,,,,,,,,,,,,,,,,,
734,,rt_thecrossant_black,953793,,,black_plus_sign,,,,,50,,,1,0.9894736842105263,,,,,,,,,,,,,,,,
null,,color_black,953896,,,black_plus_sign,,,,,null,,,,,,,,,,,,,,,,,,,,
null,,learn_phase(without_color),956904,,,black_plus_sign,,,,,null,US_Cities_List/cornwall.png,US_Cities_List/racine.png,,,,,,,,,,,,,,,,,,
null,,black_cross(without_color),957790,,,yellow,,,,,null,US_Cities_List/cornwall.png,US_Cities_List/racine.png,,,,,,,,,,,,,,,,,,
null,,rt_plussign_withcolor,958292,,,yellow,,,,,null,US_Cities_List/cornwall.png,US_Cities_List/racine.png,,,,,,,,,,,,,,,,,,
1405.8999998569489,,rt_thecrossant_black,959409,,,black_plus_sign,,,,,50,,,1,0.9895833333333334,,,,,,,,,,,,,,,,
null,,color_black,959511,,,black_plus_sign,,,,,null,,,,,,,,,,,,,,,,,,,,
null,,learn_phase(without_color),962517,,,black_plus_sign,,,,,null,US_Cities_List/newhope.png,US_Cities_List/racine.png,,,,,,,,,,,,,,,,,,
null,,black_cross(without_color),963462,,,yellow,,,,,null,US_Cities_List/newhope.png,US_Cities_List/racine.png,,,,,,,,,,,,,,,,,,
437.19999980926514,,rt_plussign_withcolor,963964,,,yellow,,,,,50,US_Cities_List/newhope.png,US_Cities_List/racine.png,,,,,,,,,,,,,,,,,,
null,,rt_thecrossant_black,965022,,,black_plus_sign,,,,,null,,,1,0.9896907216494846,,,,,,,,,,,,,,,,
null,,color_black,965123,,,black_plus_sign,,,,,null,,,,,,,,,,,,,,,,,,,,
null,,learn_phase(without_color),968127,,,black_plus_sign,,,,,null,US_Cities_List/huntsville.png,US_Cities_List/boulder.png,,,,,,,,,,,,,,,,,,
null,,black_cross(without_color),969203,,,yellow,,,,,null,US_Cities_List/huntsville.png,US_Cities_List/boulder.png,,,,,,,,,,,,,,,,,,
419.2999999523163,,rt_plussign_withcolor,969704,,,yellow,,,,,50,US_Cities_List/huntsville.png,US_Cities_List/boulder.png,,,,,,,,,,,,,,,,,,
null,,rt_thecrossant_black,970637,,,black_plus_sign,,,,,null,,,1,0.9897959183673469,,,,,,,,,,,,,,,,
null,,color_black,970746,,,black_plus_sign,,,,,null,,,,,,,,,,,,,,,,,,,,
null,,learn_phase(without_color),973751,,,black_plus_sign,,,,,null,US_Cities_List/racine.png,US_Cities_List/carmel.png,,,,,,,,,,,,,,,,,,
null,,black_cross(without_color),974806,,,yellow,,,,,null,US_Cities_List/racine.png,US_Cities_List/carmel.png,,,,,,,,,,,,,,,,,,
null,,rt_plussign_withcolor,975308,,,yellow,,,,,null,US_Cities_List/racine.png,US_Cities_List/carmel.png,,,,,,,,,,,,,,,,,,
1242.2999999523163,,rt_thecrossant_black,976256,,,black_plus_sign,,,,,50,,,1,0.98989898989899,,,,,,,,,,,,,,,,
null,,color_black,976358,,,black_plus_sign,,,,,null,,,,,,,,,,,,,,,,,,,,
null,,learn_phase(without_color),979363,,,black_plus_sign,,,,,null,US_Cities_List/peoria.png,US_Cities_List/gatlinburg.png,,,,,,,,,,,,,,,,,,
null,,black_cross(without_color),980171,,,blue,,,,,null,US_Cities_List/peoria.png,US_Cities_List/gatlinburg.png,,,,,,,,,,,,,,,,,,
null,,rt_plussign_withcolor,980672,,,blue,,,,,null,US_Cities_List/peoria.png,US_Cities_List/gatlinburg.png,,,,,,,,,,,,,,,,,,
1536.5999999046326,,rt_thecrossant_black,981866,,,black_plus_sign,,,,,49,,,1,0.99,,,,,,,,,,,,,,,,
null,,color_black,981969,,,black_plus_sign,,,,,null,,,,,,,,,,,,,,,,,,,,
null,,learn_phase(without_color),984974,,,black_plus_sign,,,,,null,US_Cities_List/carmel.png,US_Cities_List/hotsprings.png,,,,,,,,,,,,,,,,,,
null,,black_cross(without_color),985381,,,yellow,,,,,null,US_Cities_List/carmel.png,US_Cities_List/hotsprings.png,,,,,,,,,,,,,,,,,,
494.2999999523163,,rt_plussign_withcolor,985882,,,yellow,,,,,50,US_Cities_List/carmel.png,US_Cities_List/hotsprings.png,,,,,,,,,,,,,,,,,,
null,,rt_thecrossant_black,987479,,,black_plus_sign,,,,,null,,,1,0.9900990099009901,,,,,,,,,,,,,,,,
null,,color_black,987580,,,black_plus_sign,,,,,null,,,,,,,,,,,,,,,,,,,,
null,,learn_phase(without_color),990586,,,black_plus_sign,,,,,null,US_Cities_List/carmel.png,US_Cities_List/cornwall.png,,,,,,,,,,,,,,,,,,
null,,black_cross(without_color),991299,,,yellow,,,,,null,US_Cities_List/carmel.png,US_Cities_List/cornwall.png,,,,,,,,,,,,,,,,,,
null,,rt_plussign_withcolor,991801,,,yellow,,,,,null,US_Cities_List/carmel.png,US_Cities_List/cornwall.png,,,,,,,,,,,,,,,,,,
681.7000000476837,,rt_thecrossant_black,993100,,,black_plus_sign,,,,,50,,,1,0.9901960784313726,,,,,,,,,,,,,,,,
null,,color_black,993201,,,black_plus_sign,,,,,null,,,,,,,,,,,,,,,,,,,,
null,,learn_phase(without_color),996208,,,black_plus_sign,,,,,null,US_Cities_List/gatlinburg.png,US_Cities_List/hotsprings.png,,,,,,,,,,,,,,,,,,
null,,black_cross(without_color),996815,,,blue,,,,,null,US_Cities_List/gatlinburg.png,US_Cities_List/hotsprings.png,,,,,,,,,,,,,,,,,,
null,,rt_plussign_withcolor,997317,,,blue,,,,,null,US_Cities_List/gatlinburg.png,US_Cities_List/hotsprings.png,,,,,,,,,,,,,,,,,,
1078.1000001430511,,rt_thecrossant_black,998714,,,black_plus_sign,,,,,49,,,1,0.9902912621359223,,,,,,,,,,,,,,,,
null,,color_black,998816,,,black_plus_sign,,,,,null,,,,,,,,,,,,,,,,,,,,
null,,learn_phase(without_color),1001822,,,black_plus_sign,,,,,null,US_Cities_List/newhope.png,US_Cities_List/racine.png,,,,,,,,,,,,,,,,,,
null,,black_cross(without_color),1002814,,,yellow,,,,,null,US_Cities_List/newhope.png,US_Cities_List/racine.png,,,,,,,,,,,,,,,,,,
null,,rt_plussign_withcolor,1003316,,,yellow,,,,,null,US_Cities_List/newhope.png,US_Cities_List/racine.png,,,,,,,,,,,,,,,,,,
781.5,,rt_thecrossant_black,1004330,,,black_plus_sign,,,,,50,,,1,0.9903846153846154,,,,,,,,,,,,,,,,
null,,color_black,1004432,,,black_plus_sign,,,,,null,,,,,,,,,,,,,,,,,,,,
null,,learn_phase(without_color),1007438,,,black_plus_sign,,,,,null,US_Cities_List/carmel.png,US_Cities_List/hotsprings.png,,,,,,,,,,,,,,,,,,
null,,black_cross(without_color),1007965,,,blue,,,,,null,US_Cities_List/carmel.png,US_Cities_List/hotsprings.png,,,,,,,,,,,,,,,,,,
null,,rt_plussign_withcolor,1008469,,,blue,,,,,null,US_Cities_List/carmel.png,US_Cities_List/hotsprings.png,,,,,,,,,,,,,,,,,,
1430.7999999523163,,rt_thecrossant_black,1009946,,,black_plus_sign,,,,,49,,,1,0.9904761904761905,,,,,,,,,,,,,,,,
null,,color_black,1010048,,,black_plus_sign,,,,,null,,,,,,,,,,,,,,,,,,,,
null,,learn_phase(without_color),1013054,,,black_plus_sign,,,,,null,US_Cities_List/hotsprings.png,US_Cities_List/racine.png,,,,,,,,,,,,,,,,,,
null,,black_cross(without_color),1013636,,,blue,,,,,null,US_Cities_List/hotsprings.png,US_Cities_List/racine.png,,,,,,,,,,,,,,,,,,
null,,rt_plussign_withcolor,1014137,,,blue,,,,,null,US_Cities_List/hotsprings.png,US_Cities_List/racine.png,,,,,,,,,,,,,,,,,,
798.3999998569489,,rt_thecrossant_black,1015558,,,black_plus_sign,,,,,49,,,1,0.9905660377358491,,,,,,,,,,,,,,,,
null,,color_black,1015660,,,black_plus_sign,,,,,null,,,,,,,,,,,,,,,,,,,,
null,,learn_phase(without_color),1018665,,,black_plus_sign,,,,,null,US_Cities_List/huntsville.png,US_Cities_List/peoria.png,,,,,,,,,,,,,,,,,,
null,,black_cross(without_color),1019379,,,blue,,,,,null,US_Cities_List/huntsville.png,US_Cities_List/peoria.png,,,,,,,,,,,,,,,,,,
null,,rt_plussign_withcolor,1019881,,,blue,,,,,null,US_Cities_List/huntsville.png,US_Cities_List/peoria.png,,,,,,,,,,,,,,,,,,
976,,rt_thecrossant_black,1021171,,,black_plus_sign,,,,,49,,,1,0.9906542056074766,,,,,,,,,,,,,,,,
null,,color_black,1021272,,,black_plus_sign,,,,,null,,,,,,,,,,,,,,,,,,,,
null,,learn_phase(without_color),1024278,,,black_plus_sign,,,,,null,US_Cities_List/hotsprings.png,US_Cities_List/gatlinburg.png,,,,,,,,,,,,,,,,,,
null,,black_cross(without_color),1025356,,,yellow,,,,,null,US_Cities_List/hotsprings.png,US_Cities_List/gatlinburg.png,,,,,,,,,,,,,,,,,,
null,,rt_plussign_withcolor,1025858,,,yellow,,,,,null,US_Cities_List/hotsprings.png,US_Cities_List/gatlinburg.png,,,,,,,,,,,,,,,,,,
860.7000000476837,,rt_thecrossant_black,1026797,,,black_plus_sign,,,,,50,,,1,0.9907407407407407,,,,,,,,,,,,,,,,
null,,color_black,1026904,,,black_plus_sign,,,,,null,,,,,,,,,,,,,,,,,,,,
null,,learn_phase(without_color),1029908,,,black_plus_sign,,,,,null,US_Cities_List/carmel.png,US_Cities_List/hanover.png,,,,,,,,,,,,,,,,,,
null,,black_cross(without_color),1030544,,,blue,,,,,null,US_Cities_List/carmel.png,US_Cities_List/hanover.png,,,,,,,,,,,,,,,,,,
null,,rt_plussign_withcolor,1031046,,,blue,,,,,null,US_Cities_List/carmel.png,US_Cities_List/hanover.png,,,,,,,,,,,,,,,,,,
1344.7999999523163,,rt_thecrossant_black,1032415,,,black_plus_sign,,,,,49,,,1,0.9908256880733946,,,,,,,,,,,,,,,,
null,,color_black,1032517,,,black_plus_sign,,,,,null,,,,,,,,,,,,,,,,,,,,
null,,learn_phase(without_color),1035521,,,black_plus_sign,,,,,null,US_Cities_List/huntsville.png,US_Cities_List/boulder.png,,,,,,,,,,,,,,,,,,
null,,black_cross(without_color),1036255,,,yellow,,,,,null,US_Cities_List/huntsville.png,US_Cities_List/boulder.png,,,,,,,,,,,,,,,,,,
null,,rt_plussign_withcolor,1036771,,,yellow,,,,,null,US_Cities_List/huntsville.png,US_Cities_List/boulder.png,,,,,,,,,,,,,,,,,,
1196.8999998569489,,rt_thecrossant_black,1038041,,,black_plus_sign,,,,,50,,,1,0.990909090909091,,,,,,,,,,,,,,,,
null,,color_black,1038143,,,black_plus_sign,,,,,null,,,,,,,,,,,,,,,,,,,,
null,,learn_phase(without_color),1041162,,,black_plus_sign,,,,,null,US_Cities_List/shreveport.png,US_Cities_List/peoria.png,,,,,,,,,,,,,,,,,,
null,,black_cross(without_color),1041980,,,yellow,,,,,null,US_Cities_List/shreveport.png,US_Cities_List/peoria.png,,,,,,,,,,,,,,,,,,
453.2999999523163,,rt_plussign_withcolor,1042482,,,yellow,,,,,50,US_Cities_List/shreveport.png,US_Cities_List/peoria.png,,,,,,,,,,,,,,,,,,
null,,rt_thecrossant_black,1043667,,,black_plus_sign,,,,,null,,,1,0.990990990990991,,,,,,,,,,,,,,,,
null,,color_black,1043769,,,black_plus_sign,,,,,null,,,,,,,,,,,,,,,,,,,,
null,,learn_phase(without_color),1046776,,,black_plus_sign,,,,,null,US_Cities_List/carmel.png,US_Cities_List/hanover.png,,,,,,,,,,,,,,,,,,
null,,black_cross(without_color),1047844,,,blue,,,,,null,US_Cities_List/carmel.png,US_Cities_List/hanover.png,,,,,,,,,,,,,,,,,,
null,,rt_plussign_withcolor,1048345,,,blue,,,,,null,US_Cities_List/carmel.png,US_Cities_List/hanover.png,,,,,,,,,,,,,,,,,,
1040.6999998092651,,rt_thecrossant_black,1049286,,,black_plus_sign,,,,,49,,,1,0.9910714285714286,,,,,,,,,,,,,,,,
null,,color_black,1049387,,,black_plus_sign,,,,,null,,,,,,,,,,,,,,,,,,,,
null,,learn_phase(without_color),1052394,,,black_plus_sign,,,,,null,US_Cities_List/peoria.png,US_Cities_List/gatlinburg.png,,,,,,,,,,,,,,,,,,
null,,black_cross(without_color),1053035,,,yellow,,,,,null,US_Cities_List/peoria.png,US_Cities_List/gatlinburg.png,,,,,,,,,,,,,,,,,,
459.30000019073486,,rt_plussign_withcolor,1053537,,,yellow,,,,,50,US_Cities_List/peoria.png,US_Cities_List/gatlinburg.png,,,,,,,,,,,,,,,,,,
null,,rt_thecrossant_black,1054900,,,black_plus_sign,,,,,null,,,1,0.9911504424778761,,,,,,,,,,,,,,,,
null,,color_black,1055001,,,black_plus_sign,,,,,null,,,,,,,,,,,,,,,,,,,,
null,,learn_phase(without_color),1058006,,,black_plus_sign,,,,,null,US_Cities_List/racine.png,US_Cities_List/carmel.png,,,,,,,,,,,,,,,,,,
null,,black_cross(without_color),1058577,,,blue,,,,,null,US_Cities_List/racine.png,US_Cities_List/carmel.png,,,,,,,,,,,,,,,,,,
null,,rt_plussign_withcolor,1059080,,,blue,,,,,null,US_Cities_List/racine.png,US_Cities_List/carmel.png,,,,,,,,,,,,,,,,,,
991.3000001907349,,rt_thecrossant_black,1060512,,,black_plus_sign,,,,,49,,,1,0.9912280701754386,,,,,,,,,,,,,,,,
null,,color_black,1060614,,,black_plus_sign,,,,,null,,,,,,,,,,,,,,,,,,,,
null,,learn_phase(without_color),1063620,,,black_plus_sign,,,,,null,US_Cities_List/hotsprings.png,US_Cities_List/gatlinburg.png,,,,,,,,,,,,,,,,,,
null,,black_cross(without_color),1064154,,,yellow,,,,,null,US_Cities_List/hotsprings.png,US_Cities_List/gatlinburg.png,,,,,,,,,,,,,,,,,,
null,,rt_plussign_withcolor,1064656,,,yellow,,,,,null,US_Cities_List/hotsprings.png,US_Cities_List/gatlinburg.png,,,,,,,,,,,,,,,,,,
777,,rt_thecrossant_black,1066124,,,black_plus_sign,,,,,50,,,1,0.991304347826087,,,,,,,,,,,,,,,,
null,,color_black,1066226,,,black_plus_sign,,,,,null,,,,,,,,,,,,,,,,,,,,
null,,learn_phase(without_color),1069233,,,black_plus_sign,,,,,null,US_Cities_List/gatlinburg.png,US_Cities_List/hanover.png,,,,,,,,,,,,,,,,,,
null,,black_cross(without_color),1069796,,,yellow,,,,,null,US_Cities_List/gatlinburg.png,US_Cities_List/hanover.png,,,,,,,,,,,,,,,,,,
null,,rt_plussign_withcolor,1070298,,,yellow,,,,,null,US_Cities_List/gatlinburg.png,US_Cities_List/hanover.png,,,,,,,,,,,,,,,,,,
855.1000001430511,,rt_thecrossant_black,1071740,,,black_plus_sign,,,,,50,,,1,0.9913793103448276,,,,,,,,,,,,,,,,
null,,color_black,1071841,,,black_plus_sign,,,,,null,,,,,,,,,,,,,,,,,,,,
null,,learn_phase(without_color),1074848,,,black_plus_sign,,,,,null,US_Cities_List/peoria.png,US_Cities_List/gatlinburg.png,,,,,,,,,,,,,,,,,,
null,,black_cross(without_color),1075625,,,yellow,,,,,null,US_Cities_List/peoria.png,US_Cities_List/gatlinburg.png,,,,,,,,,,,,,,,,,,
440.30000019073486,,rt_plussign_withcolor,1076126,,,yellow,,,,,50,US_Cities_List/peoria.png,US_Cities_List/gatlinburg.png,,,,,,,,,,,,,,,,,,
null,,rt_thecrossant_black,1077353,,,black_plus_sign,,,,,null,,,1,0.9914529914529915,,,,,,,,,,,,,,,,
null,,color_black,1077456,,,black_plus_sign,,,,,null,,,,,,,,,,,,,,,,,,,,
null,,learn_phase(without_color),1080463,,,black_plus_sign,,,,,null,US_Cities_List/racine.png,US_Cities_List/cornwall.png,,,,,,,,,,,,,,,,,,
null,,black_cross(without_color),1081386,,,blue,,,,,null,US_Cities_List/racine.png,US_Cities_List/cornwall.png,,,,,,,,,,,,,,,,,,
null,,rt_plussign_withcolor,1081887,,,blue,,,,,null,US_Cities_List/racine.png,US_Cities_List/cornwall.png,,,,,,,,,,,,,,,,,,
1313.7999999523163,,rt_thecrossant_black,1082969,,,black_plus_sign,,,,,49,,,1,0.9915254237288136,,,,,,,,,,,,,,,,
null,,color_black,1083072,,,black_plus_sign,,,,,null,,,,,,,,,,,,,,,,,,,,
null,,learn_phase(without_color),1086080,,,black_plus_sign,,,,,null,US_Cities_List/cornwall.png,US_Cities_List/leesburg.png,,,,,,,,,,,,,,,,,,
null,,black_cross(without_color),1086792,,,blue,,,,,null,US_Cities_List/cornwall.png,US_Cities_List/leesburg.png,,,,,,,,,,,,,,,,,,
null,,rt_plussign_withcolor,1087298,,,blue,,,,,null,US_Cities_List/cornwall.png,US_Cities_List/leesburg.png,,,,,,,,,,,,,,,,,,
1389.9000000953674,,rt_thecrossant_black,1088602,,,black_plus_sign,,,,,49,,,1,0.9915966386554622,,,,,,,,,,,,,,,,
null,,color_black,1088704,,,black_plus_sign,,,,,null,,,,,,,,,,,,,,,,,,,,
null,,learn_phase(without_color),1091710,,,black_plus_sign,,,,,null,US_Cities_List/carmel.png,US_Cities_List/racine.png,,,,,,,,,,,,,,,,,,
null,,black_cross(without_color),1092584,,,yellow,,,,,null,US_Cities_List/carmel.png,US_Cities_List/racine.png,,,,,,,,,,,,,,,,,,
null,,rt_plussign_withcolor,1093085,,,yellow,,,,,null,US_Cities_List/carmel.png,US_Cities_List/racine.png,,,,,,,,,,,,,,,,,,
1233.1999998092651,,rt_thecrossant_black,1094214,,,black_plus_sign,,,,,50,,,1,0.9916666666666667,,,,,,,,,,,,,,,,
null,,color_black,1094316,,,black_plus_sign,,,,,null,,,,,,,,,,,,,,,,,,,,
null,,learn_phase(without_color),1097320,,,black_plus_sign,,,,,null,US_Cities_List/huntsville.png,US_Cities_List/boulder.png,,,,,,,,,,,,,,,,,,
null,,black_cross(without_color),1098004,,,yellow,,,,,null,US_Cities_List/huntsville.png,US_Cities_List/boulder.png,,,,,,,,,,,,,,,,,,
null,,rt_plussign_withcolor,1098507,,,yellow,,,,,null,US_Cities_List/huntsville.png,US_Cities_List/boulder.png,,,,,,,,,,,,,,,,,,
1000.5,,rt_thecrossant_black,1099829,,,black_plus_sign,,,,,50,,,1,0.9917355371900827,,,,,,,,,,,,,,,,
null,,color_black,1099931,,,black_plus_sign,,,,,null,,,,,,,,,,,,,,,,,,,,
null,,learn_phase(without_color),1102936,,,black_plus_sign,,,,,null,US_Cities_List/huntsville.png,US_Cities_List/peoria.png,,,,,,,,,,,,,,,,,,
null,,black_cross(without_color),1104024,,,yellow,,,,,null,US_Cities_List/huntsville.png,US_Cities_List/peoria.png,,,,,,,,,,,,,,,,,,
467.59999990463257,,rt_plussign_withcolor,1104526,,,yellow,,,,,50,US_Cities_List/huntsville.png,US_Cities_List/peoria.png,,,,,,,,,,,,,,,,,,
null,,rt_thecrossant_black,1105441,,,black_plus_sign,,,,,null,,,1,0.9918032786885246,,,,,,,,,,,,,,,,
null,,color_black,1105542,,,black_plus_sign,,,,,null,,,,,,,,,,,,,,,,,,,,
null,,learn_phase(without_color),1108551,,,black_plus_sign,,,,,null,US_Cities_List/shreveport.png,US_Cities_List/peoria.png,,,,,,,,,,,,,,,,,,
null,,black_cross(without_color),1109016,,,yellow,,,,,null,US_Cities_List/shreveport.png,US_Cities_List/peoria.png,,,,,,,,,,,,,,,,,,
411.2999999523163,,rt_plussign_withcolor,1109530,,,yellow,,,,,50,US_Cities_List/shreveport.png,US_Cities_List/peoria.png,,,,,,,,,,,,,,,,,,
null,,rt_thecrossant_black,1111070,,,black_plus_sign,,,,,null,,,1,0.991869918699187,,,,,,,,,,,,,,,,
null,,color_black,1111171,,,black_plus_sign,,,,,null,,,,,,,,,,,,,,,,,,,,
null,,learn_phase(without_color),1114180,,,black_plus_sign,,,,,null,US_Cities_List/cornwall.png,US_Cities_List/racine.png,,,,,,,,,,,,,,,,,,
null,,black_cross(without_color),1115202,,,blue,,,,,null,US_Cities_List/cornwall.png,US_Cities_List/racine.png,,,,,,,,,,,,,,,,,,
400.09999990463257,,rt_plussign_withcolor,1115703,,,blue,,,,,49,US_Cities_List/cornwall.png,US_Cities_List/racine.png,,,,,,,,,,,,,,,,,,
null,,rt_thecrossant_black,1116686,,,black_plus_sign,,,,,null,,,1,0.9919354838709677,,,,,,,,,,,,,,,,
null,,color_black,1116788,,,black_plus_sign,,,,,null,,,,,,,,,,,,,,,,,,,,
null,,learn_phase(without_color),1119794,,,black_plus_sign,,,,,null,US_Cities_List/hanover.png,US_Cities_List/carmel.png,,,,,,,,,,,,,,,,,,
null,,black_cross(without_color),1120454,,,yellow,,,,,null,US_Cities_List/hanover.png,US_Cities_List/carmel.png,,,,,,,,,,,,,,,,,,
null,,rt_plussign_withcolor,1120955,,,yellow,,,,,null,US_Cities_List/hanover.png,US_Cities_List/carmel.png,,,,,,,,,,,,,,,,,,
1313.7000000476837,,rt_thecrossant_black,1122299,,,black_plus_sign,,,,,50,,,1,0.992,,,,,,,,,,,,,,,,
null,,color_black,1122401,,,black_plus_sign,,,,,null,,,,,,,,,,,,,,,,,,,,
null,,learn_phase(without_color),1125408,,,black_plus_sign,,,,,null,US_Cities_List/gatlinburg.png,US_Cities_List/peoria.png,,,,,,,,,,,,,,,,,,
null,,black_cross(without_color),1126006,,,blue,,,,,null,US_Cities_List/gatlinburg.png,US_Cities_List/peoria.png,,,,,,,,,,,,,,,,,,
null,,rt_plussign_withcolor,1126508,,,blue,,,,,null,US_Cities_List/gatlinburg.png,US_Cities_List/peoria.png,,,,,,,,,,,,,,,,,,
822.2999999523163,,rt_thecrossant_black,1127914,,,black_plus_sign,,,,,49,,,1,0.9920634920634921,,,,,,,,,,,,,,,,
null,,color_black,1128016,,,black_plus_sign,,,,,null,,,,,,,,,,,,,,,,,,,,
null,,learn_phase(without_color),1131020,,,black_plus_sign,,,,,null,US_Cities_List/boulder.png,US_Cities_List/huntsville.png,,,,,,,,,,,,,,,,,,
null,,black_cross(without_color),1131941,,,blue,,,,,null,US_Cities_List/boulder.png,US_Cities_List/huntsville.png,,,,,,,,,,,,,,,,,,
null,,rt_plussign_withcolor,1132442,,,blue,,,,,null,US_Cities_List/boulder.png,US_Cities_List/huntsville.png,,,,,,,,,,,,,,,,,,
893,,rt_thecrossant_black,1133526,,,black_plus_sign,,,,,49,,,1,0.9921259842519685,,,,,,,,,,,,,,,,
null,,color_black,1133627,,,black_plus_sign,,,,,null,,,,,,,,,,,,,,,,,,,,
15525.900000095367,,learn_break,1149154,,,learn_break,,,,,32,,,,,,,,,,,,,,,,,,,,
5286,,intro_1,1154440,,,instruct,,,0,,,,,,,,,,,,,,,,,,,,,,
8087.400000095367,,intro_2,1162528,,,instruct,,,1,Next,,,,,,,,,,,,,,,,,,,,,
3069.4000000953674,,directmemory_phase,1165605,,,../static/images/US_Cities_List/huntsville.png,,,,,51,,,1,1,../static/images/US_Cities_List/cornwall.png,../static/images/US_Cities_List/gatlinburg.png,../static/images/US_Cities_List/westpalmbeach.png,../static/images/US_Cities_List/westpalmbeach.png,../static/images/US_Cities_List/gatlinburg.png,../static/images/US_Cities_List/cornwall.png,1,,,,,,,,,
null,,html-keyboard-response,1166614,,,<p></p>,,,,,null,,,,,,,,,,,,,,,,,,,,
2147.5,,directmemory_phase,1168769,,,../static/images/US_Cities_List/racine.png,,,,,51,,,1,1,../static/images/US_Cities_List/westpalmbeach.png,../static/images/US_Cities_List/leesburg.png,../static/images/US_Cities_List/hotsprings.png,../static/images/US_Cities_List/hotsprings.png,../static/images/US_Cities_List/leesburg.png,../static/images/US_Cities_List/westpalmbeach.png,1,,,,,,,,,
null,,html-keyboard-response,1169776,,,<p></p>,,,,,null,,,,,,,,,,,,,,,,,,,,
2712.7000000476837,,directmemory_phase,1172495,,,../static/images/US_Cities_List/westpalmbeach.png,,,,,51,,,1,1,../static/images/US_Cities_List/hotsprings.png,../static/images/US_Cities_List/peoria.png,../static/images/US_Cities_List/huntsville.png,../static/images/US_Cities_List/huntsville.png,../static/images/US_Cities_List/peoria.png,../static/images/US_Cities_List/hotsprings.png,1,,,,,,,,,
null,,html-keyboard-response,1173497,,,<p></p>,,,,,null,,,,,,,,,,,,,,,,,,,,
1837.4000000953674,,directmemory_phase,1175343,,,../static/images/US_Cities_List/hotsprings.png,,,,,51,,,1,1,../static/images/US_Cities_List/leesburg.png,../static/images/US_Cities_List/peoria.png,../static/images/US_Cities_List/gatlinburg.png,../static/images/US_Cities_List/gatlinburg.png,../static/images/US_Cities_List/peoria.png,../static/images/US_Cities_List/leesburg.png,1,,,,,,,,,
null,,html-keyboard-response,1176345,,,<p></p>,,,,,null,,,,,,,,,,,,,,,,,,,,
2620.600000143051,,directmemory_phase,1178975,,,../static/images/US_Cities_List/racine.png,,,,,51,,,1,1,../static/images/US_Cities_List/westpalmbeach.png,../static/images/US_Cities_List/leesburg.png,../static/images/US_Cities_List/cornwall.png,../static/images/US_Cities_List/cornwall.png,../static/images/US_Cities_List/leesburg.png,../static/images/US_Cities_List/westpalmbeach.png,1,,,,,,,,,
null,,html-keyboard-response,1179977,,,<p></p>,,,,,null,,,,,,,,,,,,,,,,,,,,
2156.7000000476837,,directmemory_phase,1182141,,,../static/images/US_Cities_List/gatlinburg.png,,,,,51,,,1,1,../static/images/US_Cities_List/newhope.png,../static/images/US_Cities_List/westpalmbeach.png,../static/images/US_Cities_List/hanover.png,../static/images/US_Cities_List/hanover.png,../static/images/US_Cities_List/westpalmbeach.png,../static/images/US_Cities_List/newhope.png,1,,,,,,,,,
null,,html-keyboard-response,1183144,,,<p></p>,,,,,null,,,,,,,,,,,,,,,,,,,,
1883.1999998092651,,directmemory_phase,1185033,,,../static/images/US_Cities_List/hotsprings.png,,,,,49,,,1,1,../static/images/US_Cities_List/racine.png,../static/images/US_Cities_List/shreveport.png,../static/images/US_Cities_List/peoria.png,../static/images/US_Cities_List/racine.png,../static/images/US_Cities_List/peoria.png,../static/images/US_Cities_List/shreveport.png,1,,,,,,,,,
null,,html-keyboard-response,1186036,,,<p></p>,,,,,null,,,,,,,,,,,,,,,,,,,,
1532.7999999523163,,directmemory_phase,1187577,,,../static/images/US_Cities_List/peoria.png,,,,,49,,,1,1,../static/images/US_Cities_List/shreveport.png,../static/images/US_Cities_List/racine.png,../static/images/US_Cities_List/hanover.png,../static/images/US_Cities_List/shreveport.png,../static/images/US_Cities_List/hanover.png,../static/images/US_Cities_List/racine.png,1,,,,,,,,,
null,,html-keyboard-response,1188579,,,<p></p>,,,,,null,,,,,,,,,,,,,,,,,,,,
1591.6000001430511,,directmemory_phase,1190179,,,../static/images/US_Cities_List/racine.png,,,,,51,,,1,1,../static/images/US_Cities_List/peoria.png,../static/images/US_Cities_List/hanover.png,../static/images/US_Cities_List/newhope.png,../static/images/US_Cities_List/newhope.png,../static/images/US_Cities_List/hanover.png,../static/images/US_Cities_List/peoria.png,1,,,,,,,,,
null,,html-keyboard-response,1191182,,,<p></p>,,,,,null,,,,,,,,,,,,,,,,,,,,
1855.5999999046326,,directmemory_phase,1193046,,,../static/images/US_Cities_List/hanover.png,,,,,49,,,1,1,../static/images/US_Cities_List/gatlinburg.png,../static/images/US_Cities_List/leesburg.png,../static/images/US_Cities_List/peoria.png,../static/images/US_Cities_List/gatlinburg.png,../static/images/US_Cities_List/peoria.png,../static/images/US_Cities_List/leesburg.png,1,,,,,,,,,
null,,html-keyboard-response,1194057,,,<p></p>,,,,,null,,,,,,,,,,,,,,,,,,,,
1220.6000001430511,,directmemory_phase,1195287,,,../static/images/US_Cities_List/cornwall.png,,,,,50,,,1,1,../static/images/US_Cities_List/newhope.png,../static/images/US_Cities_List/racine.png,../static/images/US_Cities_List/peoria.png,../static/images/US_Cities_List/racine.png,../static/images/US_Cities_List/newhope.png,../static/images/US_Cities_List/peoria.png,1,,,,,,,,,
null,,html-keyboard-response,1196290,,,<p></p>,,,,,null,,,,,,,,,,,,,,,,,,,,
2915.7999999523163,,directmemory_phase,1199214,,,../static/images/US_Cities_List/peoria.png,,,,,50,,,1,1,../static/images/US_Cities_List/hotsprings.png,../static/images/US_Cities_List/huntsville.png,../static/images/US_Cities_List/cornwall.png,../static/images/US_Cities_List/huntsville.png,../static/images/US_Cities_List/hotsprings.png,../static/images/US_Cities_List/cornwall.png,1,,,,,,,,,
null,,html-keyboard-response,1200216,,,<p></p>,,,,,null,,,,,,,,,,,,,,,,,,,,
1886,,directmemory_phase,1202111,,,../static/images/US_Cities_List/carmel.png,,,,,51,,,1,1,../static/images/US_Cities_List/shreveport.png,../static/images/US_Cities_List/leesburg.png,../static/images/US_Cities_List/racine.png,../static/images/US_Cities_List/racine.png,../static/images/US_Cities_List/leesburg.png,../static/images/US_Cities_List/shreveport.png,1,,,,,,,,,
null,,html-keyboard-response,1203112,,,<p></p>,,,,,null,,,,,,,,,,,,,,,,,,,,
3266.5,,directmemory_phase,1206384,,,../static/images/US_Cities_List/huntsville.png,,,,,49,,,1,1,../static/images/US_Cities_List/boulder.png,../static/images/US_Cities_List/racine.png,../static/images/US_Cities_List/hanover.png,../static/images/US_Cities_List/boulder.png,../static/images/US_Cities_List/hanover.png,../static/images/US_Cities_List/racine.png,1,,,,,,,,,
null,,html-keyboard-response,1207387,,,<p></p>,,,,,null,,,,,,,,,,,,,,,,,,,,
4074.2999999523163,,directmemory_phase,1211469,,,../static/images/US_Cities_List/cornwall.png,,,,,50,,,1,1,../static/images/US_Cities_List/hanover.png,../static/images/US_Cities_List/carmel.png,../static/images/US_Cities_List/westpalmbeach.png,../static/images/US_Cities_List/carmel.png,../static/images/US_Cities_List/hanover.png,../static/images/US_Cities_List/westpalmbeach.png,1,,,,,,,,,
null,,html-keyboard-response,1212471,,,<p></p>,,,,,null,,,,,,,,,,,,,,,,,,,,
1663.2000000476837,,directmemory_phase,1214142,,,../static/images/US_Cities_List/newhope.png,,,,,51,,,1,1,../static/images/US_Cities_List/westpalmbeach.png,../static/images/US_Cities_List/hotsprings.png,../static/images/US_Cities_List/racine.png,../static/images/US_Cities_List/racine.png,../static/images/US_Cities_List/hotsprings.png,../static/images/US_Cities_List/westpalmbeach.png,1,,,,,,,,,
null,,html-keyboard-response,1215144,,,<p></p>,,,,,null,,,,,,,,,,,,,,,,,,,,
1240,,directmemory_phase,1216389,,,../static/images/US_Cities_List/boulder.png,,,,,51,,,1,1,../static/images/US_Cities_List/gatlinburg.png,../static/images/US_Cities_List/peoria.png,../static/images/US_Cities_List/huntsville.png,../static/images/US_Cities_List/huntsville.png,../static/images/US_Cities_List/peoria.png,../static/images/US_Cities_List/gatlinburg.png,1,,,,,,,,,
null,,html-keyboard-response,1217391,,,<p></p>,,,,,null,,,,,,,,,,,,,,,,,,,,
4676.5,,directmemory_phase,1222075,,,../static/images/US_Cities_List/hanover.png,,,,,49,,,1,1,../static/images/US_Cities_List/westpalmbeach.png,../static/images/US_Cities_List/leesburg.png,../static/images/US_Cities_List/racine.png,../static/images/US_Cities_List/westpalmbeach.png,../static/images/US_Cities_List/racine.png,../static/images/US_Cities_List/leesburg.png,1,,,,,,,,,
null,,html-keyboard-response,1223076,,,<p></p>,,,,,null,,,,,,,,,,,,,,,,,,,,
1898.0999999046326,,directmemory_phase,1224985,,,../static/images/US_Cities_List/carmel.png,,,,,51,,,1,1,../static/images/US_Cities_List/peoria.png,../static/images/US_Cities_List/newhope.png,../static/images/US_Cities_List/cornwall.png,../static/images/US_Cities_List/cornwall.png,../static/images/US_Cities_List/newhope.png,../static/images/US_Cities_List/peoria.png,1,,,,,,,,,
null,,html-keyboard-response,1225986,,,<p></p>,,,,,null,,,,,,,,,,,,,,,,,,,,
1872.9000000953674,,directmemory_phase,1227867,,,../static/images/US_Cities_List/peoria.png,,,,,51,,,1,1,../static/images/US_Cities_List/carmel.png,../static/images/US_Cities_List/hanover.png,../static/images/US_Cities_List/gatlinburg.png,../static/images/US_Cities_List/gatlinburg.png,../static/images/US_Cities_List/hanover.png,../static/images/US_Cities_List/carmel.png,1,,,,,,,,,
null,,html-keyboard-response,1228870,,,<p></p>,,,,,null,,,,,,,,,,,,,,,,,,,,
1530.0999999046326,,directmemory_phase,1230408,,,../static/images/US_Cities_List/racine.png,,,,,49,,,1,1,../static/images/US_Cities_List/carmel.png,../static/images/US_Cities_List/peoria.png,../static/images/US_Cities_List/leesburg.png,../static/images/US_Cities_List/carmel.png,../static/images/US_Cities_List/leesburg.png,../static/images/US_Cities_List/peoria.png,1,,,,,,,,,
null,,html-keyboard-response,1231410,,,<p></p>,,,,,null,,,,,,,,,,,,,,,,,,,,
1697.0999999046326,,directmemory_phase,1233116,,,../static/images/US_Cities_List/gatlinburg.png,,,,,51,,,1,1,../static/images/US_Cities_List/leesburg.png,../static/images/US_Cities_List/racine.png,../static/images/US_Cities_List/hotsprings.png,../static/images/US_Cities_List/hotsprings.png,../static/images/US_Cities_List/racine.png,../static/images/US_Cities_List/leesburg.png,1,,,,,,,,,
null,,html-keyboard-response,1234119,,,<p></p>,,,,,null,,,,,,,,,,,,,,,,,,,,
1553,,directmemory_phase,1235679,,,../static/images/US_Cities_List/huntsville.png,,,,,50,,,1,1,../static/images/US_Cities_List/hanover.png,../static/images/US_Cities_List/peoria.png,../static/images/US_Cities_List/racine.png,../static/images/US_Cities_List/peoria.png,../static/images/US_Cities_List/hanover.png,../static/images/US_Cities_List/racine.png,1,,,,,,,,,
null,,html-keyboard-response,1236682,,,<p></p>,,,,,null,,,,,,,,,,,,,,,,,,,,
5311.200000047684,,directmemory_phase,1241999,,,../static/images/US_Cities_List/carmel.png,,,,,50,,,1,1,../static/images/US_Cities_List/westpalmbeach.png,../static/images/US_Cities_List/hanover.png,../static/images/US_Cities_List/boulder.png,../static/images/US_Cities_List/hanover.png,../static/images/US_Cities_List/westpalmbeach.png,../static/images/US_Cities_List/boulder.png,1,,,,,,,,,
null,,html-keyboard-response,1243000,,,<p></p>,,,,,null,,,,,,,,,,,,,,,,,,,,
1480.5,,directmemory_phase,1244486,,,../static/images/US_Cities_List/shreveport.png,,,,,49,,,1,1,../static/images/US_Cities_List/peoria.png,../static/images/US_Cities_List/hotsprings.png,../static/images/US_Cities_List/huntsville.png,../static/images/US_Cities_List/peoria.png,../static/images/US_Cities_List/huntsville.png,../static/images/US_Cities_List/hotsprings.png,1,,,,,,,,,
null,,html-keyboard-response,1245488,,,<p></p>,,,,,null,,,,,,,,,,,,,,,,,,,,
3361.899999856949,,directmemory_phase,1248857,,,../static/images/US_Cities_List/carmel.png,,,,,50,,,1,1,../static/images/US_Cities_List/gatlinburg.png,../static/images/US_Cities_List/hotsprings.png,../static/images/US_Cities_List/shreveport.png,../static/images/US_Cities_List/hotsprings.png,../static/images/US_Cities_List/gatlinburg.png,../static/images/US_Cities_List/shreveport.png,1,,,,,,,,,
null,,html-keyboard-response,1249863,,,<p></p>,,,,,null,,,,,,,,,,,,,,,,,,,,
5328.899999856949,,directmemory_phase,1255199,,,../static/images/US_Cities_List/westpalmbeach.png,,,,,50,,,0,0.9629629629629629,../static/images/US_Cities_List/newhope.png,../static/images/US_Cities_List/carmel.png,../static/images/US_Cities_List/hanover.png,../static/images/US_Cities_List/hanover.png,../static/images/US_Cities_List/carmel.png,../static/images/US_Cities_List/newhope.png,0.5,closer,,,,,,,,
null,,html-keyboard-response,1256201,,,<p></p>,,,,,null,,,,,,,,,,,,,,,,,,,,
2346.399999856949,,directmemory_phase,1258557,,,../static/images/US_Cities_List/hotsprings.png,,,,,49,,,1,0.9642857142857143,../static/images/US_Cities_List/carmel.png,../static/images/US_Cities_List/westpalmbeach.png,../static/images/US_Cities_List/cornwall.png,../static/images/US_Cities_List/carmel.png,../static/images/US_Cities_List/cornwall.png,../static/images/US_Cities_List/westpalmbeach.png,1,,,,,,,,,
null,,html-keyboard-response,1259559,,,<p></p>,,,,,null,,,,,,,,,,,,,,,,,,,,
960.5999999046326,,directmemory_phase,1260529,,,../static/images/US_Cities_List/leesburg.png,,,,,49,,,1,0.9655172413793104,../static/images/US_Cities_List/cornwall.png,../static/images/US_Cities_List/newhope.png,../static/images/US_Cities_List/carmel.png,../static/images/US_Cities_List/cornwall.png,../static/images/US_Cities_List/carmel.png,../static/images/US_Cities_List/newhope.png,1,,,,,,,,,
null,,html-keyboard-response,1261532,,,<p></p>,,,,,null,,,,,,,,,,,,,,,,,,,,
2199,,directmemory_phase,1263739,,,../static/images/US_Cities_List/hanover.png,,,,,51,,,1,0.9666666666666667,../static/images/US_Cities_List/leesburg.png,../static/images/US_Cities_List/peoria.png,../static/images/US_Cities_List/carmel.png,../static/images/US_Cities_List/carmel.png,../static/images/US_Cities_List/peoria.png,../static/images/US_Cities_List/leesburg.png,1,,,,,,,,,
null,,html-keyboard-response,1264741,,,<p></p>,,,,,null,,,,,,,,,,,,,,,,,,,,
1281.1000001430511,,directmemory_phase,1266031,,,../static/images/US_Cities_List/cornwall.png,,,,,50,,,1,0.967741935483871,../static/images/US_Cities_List/hanover.png,../static/images/US_Cities_List/leesburg.png,../static/images/US_Cities_List/gatlinburg.png,../static/images/US_Cities_List/leesburg.png,../static/images/US_Cities_List/hanover.png,../static/images/US_Cities_List/gatlinburg.png,1,,,,,,,,,
null,,html-keyboard-response,1267033,,,<p></p>,,,,,null,,,,,,,,,,,,,,,,,,,,
1833.8999998569489,,directmemory_phase,1268874,,,../static/images/US_Cities_List/gatlinburg.png,,,,,50,,,1,0.96875,../static/images/US_Cities_List/shreveport.png,../static/images/US_Cities_List/peoria.png,../static/images/US_Cities_List/boulder.png,../static/images/US_Cities_List/peoria.png,../static/images/US_Cities_List/shreveport.png,../static/images/US_Cities_List/boulder.png,1,,,,,,,,,
null,,html-keyboard-response,1269876,,,<p></p>,,,,,null,,,,,,,,,,,,,,,,,,,,
10388.899999856949,,intro_1,1280266,,,instruct,,,0,,,,,,,,,,,,,,,,,,,,,,
11839.400000095367,,intro_2,1292106,,,instruct,,,1,Next,,,,,,,,,,,,,,,,,,,,,
4159.299999952316,,intro_3,1296266,,,instruct,,,1,Next,,,,,,,,,,,,,,,,,,,,,
7390.400000095367,,intro_4,1303657,,,instruct,,,1,Next,,,,,,,,,,,,,,,,,,,,,
2603.2000000476837,,intro_5,1306261,,,instruct,,,1,Next,,,,,,,,,,,,,,,,,,,,,
3847.5999999046326,,intro_6,1310110,,,instruct,,,1,Next,,,,,,,,,,,,,,,,,,,,,
3981,,intro_7,1314092,,,instruct,,,1,Next,,,,,,,,,,,,,,,,,,,,,
8050.099999904633,,intro_8,1322143,,,instruct,,,1,Next,,,,,,,,,,,,,,,,,,,,,
5552.099999904633,,intro_9,1327696,,,instruct,,,1,Next,,,,,,,,,,,,,,,,,,,,,
1704.2999999523163,,intro_10,1329401,,,instruct,,,1,Next,,,,,,,,,,,,,,,,,,,,,
9742.5,,intro_11,1339144,,,instruct,,,1,Next,,,,,,,,,,,,,,,,,,,,,
4949,,shortestpath_phase,1344098,,,../static/images/US_Cities_List/huntsville.png,,,,,49,../static/images/US_Cities_List/shreveport.png,../static/images/US_Cities_List/newhope.png,1,1,,,,../static/images/US_Cities_List/shreveport.png,,,,,Three Edge Diff,Three Edge Six Edge,,,,,,
null,,html-keyboard-response,1345100,,,<p></p>,,,,,null,,,,,,,,,,,,,,,,,,,,
6893.399999856949,,shortestpath_phase,1351997,,,../static/images/US_Cities_List/racine.png,,,,,49,../static/images/US_Cities_List/hanover.png,../static/images/US_Cities_List/huntsville.png,1,1,,,,../static/images/US_Cities_List/hanover.png,,,,,Two Edge Diff,Two Edge Four Edge,,,,,,
null,,html-keyboard-response,1353000,,,<p></p>,,,,,null,,,,,,,,,,,,,,,,,,,,
null,,shortestpath_phase,1360505,,,../static/images/US_Cities_List/shreveport.png,,,,,null,../static/images/US_Cities_List/carmel.png,../static/images/US_Cities_List/leesburg.png,0,0.6666666666666666,,,,../static/images/US_Cities_List/carmel.png,,,,,Two Edge Diff,Four Edge Six Edge,,,,,,
null,,warning_page,1363507,,,warning,,,,,null,,,,,,,,,,,,,,,,,,,,
null,,html-keyboard-response,1364508,,,<p></p>,,,,,null,,,,,,,,,,,,,,,,,,,,
2377.199999809265,,shortestpath_phase,1366891,,,../static/images/US_Cities_List/westpalmbeach.png,,,,,49,../static/images/US_Cities_List/gatlinburg.png,../static/images/US_Cities_List/newhope.png,1,0.75,,,,../static/images/US_Cities_List/gatlinburg.png,,,,,Two Edge Diff,Two Edge Four Edge,,,,,,
null,,html-keyboard-response,1367900,,,<p></p>,,,,,null,,,,,,,,,,,,,,,,,,,,
1892,,shortestpath_phase,1369798,,,../static/images/US_Cities_List/carmel.png,,,,,49,../static/images/US_Cities_List/leesburg.png,../static/images/US_Cities_List/shreveport.png,1,0.8,,,,../static/images/US_Cities_List/leesburg.png,,,,,Two Edge Diff,Two Edge Four Edge,,,,,,
null,,html-keyboard-response,1370800,,,<p></p>,,,,,null,,,,,,,,,,,,,,,,,,,,
1823.2999999523163,,shortestpath_phase,1372629,,,../static/images/US_Cities_List/boulder.png,,,,,49,../static/images/US_Cities_List/westpalmbeach.png,../static/images/US_Cities_List/racine.png,1,0.8333333333333334,,,,../static/images/US_Cities_List/westpalmbeach.png,,,,,Three Edge Diff,Two Edge Five Edge,,,,,,
null,,html-keyboard-response,1373638,,,<p></p>,,,,,null,,,,,,,,,,,,,,,,,,,,
2894.2000000476837,,shortestpath_phase,1376538,,,../static/images/US_Cities_List/newhope.png,,,,,50,../static/images/US_Cities_List/peoria.png,../static/images/US_Cities_List/boulder.png,0,0.7142857142857143,,,,../static/images/US_Cities_List/peoria.png,,,,,Two Edge Diff,Four Edge Six Edge,,,,,,
null,,html-keyboard-response,1377540,,,<p></p>,,,,,null,,,,,,,,,,,,,,,,,,,,
2878.0999999046326,,shortestpath_phase,1380423,,,../static/images/US_Cities_List/boulder.png,,,,,50,../static/images/US_Cities_List/carmel.png,../static/images/US_Cities_List/leesburg.png,0,0.625,,,,../static/images/US_Cities_List/carmel.png,,,,,Two Edge Diff,Four Edge Six Edge,,,,,,
null,,html-keyboard-response,1381424,,,<p></p>,,,,,null,,,,,,,,,,,,,,,,,,,,
2952.7999999523163,,shortestpath_phase,1384383,,,../static/images/US_Cities_List/newhope.png,,,,,50,../static/images/US_Cities_List/boulder.png,../static/images/US_Cities_List/westpalmbeach.png,1,0.6666666666666666,,,,../static/images/US_Cities_List/westpalmbeach.png,,,,,Two Edge Diff,Four Edge Six Edge,,,,,,
null,,html-keyboard-response,1385385,,,<p></p>,,,,,null,,,,,,,,,,,,,,,,,,,,
2140.4000000953674,,shortestpath_phase,1387530,,,../static/images/US_Cities_List/peoria.png,,,,,50,../static/images/US_Cities_List/leesburg.png,../static/images/US_Cities_List/boulder.png,1,0.7,,,,../static/images/US_Cities_List/boulder.png,,,,,Three Edge Diff,Three Edge Six Edge,,,,,,
null,,html-keyboard-response,1388532,,,<p></p>,,,,,null,,,,,,,,,,,,,,,,,,,,
3083.7000000476837,,shortestpath_phase,1391621,,,../static/images/US_Cities_List/cornwall.png,,,,,50,../static/images/US_Cities_List/shreveport.png,../static/images/US_Cities_List/hanover.png,1,0.7272727272727273,,,,../static/images/US_Cities_List/hanover.png,,,,,Three Edge Diff,Two Edge Five Edge,,,,,,
null,,html-keyboard-response,1392623,,,<p></p>,,,,,null,,,,,,,,,,,,,,,,,,,,
2020.5999999046326,,shortestpath_phase,1394650,,,../static/images/US_Cities_List/boulder.png,,,,,50,../static/images/US_Cities_List/racine.png,../static/images/US_Cities_List/peoria.png,1,0.75,,,,../static/images/US_Cities_List/peoria.png,,,,,Three Edge Diff,Three Edge Six Edge,,,,,,
null,,html-keyboard-response,1395652,,,<p></p>,,,,,null,,,,,,,,,,,,,,,,,,,,
