rt,responses,trial_type,time_elapsed,image_type,sequence,stimulus,cities,city_images,button_pressed,response,key_press,stimulus_left,stimulus_right,cumulative_accuracy,accuracy,stimulus_down_left,stimulus_down_mid,stimulus_down_right,stimulus_correct,stimulus_short,stimulus_far,weighted_accuracy,missedtrial,condition,specific_pairs,imgL_ID,imgR_ID,linedress,linedressed,linedressed_detor,detour_trial
11503.699999999255,{worker_id:6151e479b4ee16668948c7f2},id_enter,11505,fictional,interleaved,flights,Hollendale; Baymarsh; New Verdan; Riverlyn; Orchard Bend; Cedarwyn; Hawthorne Bluffs; Delaro Park; Juniper Creek; Claywater; Sunmere; North Arroya; Granton Ridge,US_Cities_List/carmel.png; US_Cities_List/leesburg.png; US_Cities_List/racine.png; US_Cities_List/westpalmbeach.png; US_Cities_List/peoria.png; US_Cities_List/huntsville.png; US_Cities_List/shreveport.png; US_Cities_List/cornwall.png; US_Cities_List/gatlinburg.png; US_Cities_List/boulder.png; US_Cities_List/hotsprings.png; US_Cities_List/newhope.png; US_Cities_List/hanover.png,,,,,,,,,,,,,,,,,,,,,,,
1453702.6999999993,,fullscreen,1465175,,,make_fullscreen,,,0,,,,,,,,,,,,,,,,,,,,,,
18957.300000000745,,intro_1,1484134,,,instruct,,,0,,,,,,,,,,,,,,,,,,,,,,
13557.900000002235,,intro_2,1497694,,,instruct,,,1,Next,,,,,,,,,,,,,,,,,,,,,
16917.199999999255,,intro_3,1514613,,,instruct,,,1,Next,,,,,,,,,,,,,,,,,,,,,
14114.39999999851,,intro_4,1528730,,,instruct,,,1,Next,,,,,,,,,,,,,,,,,,,,,
36972.800000000745,,intro_5,1565704,,,instruct,,,1,Next,,,,,,,,,,,,,,,,,,,,,
72734.10000000149,,intro_6,1638439,,,instruct,,,1,Next,,,,,,,,,,,,,,,,,,,,,
9569.20000000298,,intro_7,1648010,,,instruct,,,1,Next,,,,,,,,,,,,,,,,,,,,,
null,,learn_prac_1,1651014,,,lean_prac_1,,,,,null,,,,,,,,,,,,,,,,,,,,
null,,html-keyboard-response,1652019,,,<p></p>,,,,,null,,,,,,,,,,,,,,,,,,,,
15970,,intro_1,1667990,,,instruct,,,0,,,,,,,,,,,,,,,,,,,,,,
21251.10000000149,,intro_2,1689243,,,instruct,,,1,Next,,,,,,,,,,,,,,,,,,,,,
null,,learn_prac_2,1692246,,,lean_prac_2,,,,,null,,,,,,,,,,,,,,,,,,,,
null,,html-keyboard-response,1693249,,,<p></p>,,,,,null,,,,,,,,,,,,,,,,,,,,
11142,,intro_1,1704392,,,instruct,,,0,,,,,,,,,,,,,,,,,,,,,,
6823.400000002235,,intro_2,1711217,,,instruct,,,1,Next,,,,,,,,,,,,,,,,,,,,,
56174.099999997765,,intro_3,1767392,,,instruct,,,1,Next,,,,,,,,,,,,,,,,,,,,,
null,,prac_atten_color_black,1768146,,,black_plus_sign,,,,,null,,,,,,,,,,,,,,,,,,,,
null,,prac_atten_color,1768800,,,prac_stop_color,,,,,null,,,,,,,,,,,,,,,,,,,,
1370,,prac_atten_color_black,1770804,,,black_plus_sign,,,,,49,,,,,,,,,,,,,,,,,,,,
null,,prac_atten_color_black,1771558,,,black_plus_sign,,,,,null,,,,,,,,,,,,,,,,,,,,
null,,prac_atten_color,1772376,,,prac_stop_color,,,,,null,,,,,,,,,,,,,,,,,,,,
321.0999999977648,,prac_atten_color_black,1774380,,,black_plus_sign,,,,,50,,,,,,,,,,,,,,,,,,,,
null,,prac_atten_color_black,1774969,,,black_plus_sign,,,,,null,,,,,,,,,,,,,,,,,,,,
null,,prac_atten_color,1775539,,,prac_stop_color,,,,,null,,,,,,,,,,,,,,,,,,,,
494.29999999701977,,prac_atten_color_black,1777543,,,black_plus_sign,,,,,50,,,,,,,,,,,,,,,,,,,,
null,,prac_atten_color_black,1778380,,,black_plus_sign,,,,,null,,,,,,,,,,,,,,,,,,,,
524.3000000007451,,prac_atten_color,1779367,,,prac_stop_color,,,,,49,,,,,,,,,,,,,,,,,,,,
null,,prac_atten_color_black,1781370,,,black_plus_sign,,,,,null,,,,,,,,,,,,,,,,,,,,
null,,prac_atten_color_black,1781790,,,black_plus_sign,,,,,null,,,,,,,,,,,,,,,,,,,,
738.5999999977648,,prac_atten_color,1782641,,,prac_stop_color,,,,,50,,,,,,,,,,,,,,,,,,,,
null,,prac_atten_color_black,1784644,,,black_plus_sign,,,,,null,,,,,,,,,,,,,,,,,,,,
null,,prac_atten_color_black,1785200,,,black_plus_sign,,,,,null,,,,,,,,,,,,,,,,,,,,
849.0999999977648,,prac_atten_color,1786194,,,prac_stop_color,,,,,50,,,,,,,,,,,,,,,,,,,,
null,,prac_atten_color_black,1788197,,,black_plus_sign,,,,,null,,,,,,,,,,,,,,,,,,,,
null,,prac_atten_color_black,1788610,,,black_plus_sign,,,,,null,,,,,,,,,,,,,,,,,,,,
671.3999999985099,,prac_atten_color,1789412,,,prac_stop_color,,,,,49,,,,,,,,,,,,,,,,,,,,
null,,prac_atten_color_black,1791415,,,black_plus_sign,,,,,null,,,,,,,,,,,,,,,,,,,,
null,,prac_atten_color_black,1792022,,,black_plus_sign,,,,,null,,,,,,,,,,,,,,,,,,,,
null,,prac_atten_color,1792554,,,prac_stop_color,,,,,null,,,,,,,,,,,,,,,,,,,,
128.09999999776483,,prac_atten_color_black,1794556,,,black_plus_sign,,,,,50,,,,,,,,,,,,,,,,,,,,
null,,prac_atten_color_black,1795432,,,black_plus_sign,,,,,null,,,,,,,,,,,,,,,,,,,,
null,,prac_atten_color,1796057,,,prac_stop_color,,,,,null,,,,,,,,,,,,,,,,,,,,
552,,prac_atten_color_black,1798061,,,black_plus_sign,,,,,49,,,,,,,,,,,,,,,,,,,,
null,,prac_atten_color_black,1798844,,,black_plus_sign,,,,,null,,,,,,,,,,,,,,,,,,,,
693.1999999992549,,prac_atten_color,1799589,,,prac_stop_color,,,,,49,,,,,,,,,,,,,,,,,,,,
null,,prac_atten_color_black,1801593,,,black_plus_sign,,,,,null,,,,,,,,,,,,,,,,,,,,
14636.800000000745,,attentioncheck_feedback,1816232,,,cross_check_feedback,,,0,,,,,,,,,,,,,,,,,,,,,,
16241.900000002235,,last_instruct,1832475,,,instruct,,,,,32,,,,,,,,,,,,,,,,,,,,
null,,learn_phase(without_color),1835490,,,black_plus_sign,,,,,null,US_Cities_List/gatlinburg.png,US_Cities_List/hotsprings.png,,,,,,,,,,,,,,,,,,
null,,black_cross(without_color),1836144,,,blue,,,,,null,US_Cities_List/gatlinburg.png,US_Cities_List/hotsprings.png,,,,,,,,,,,,,,,,,,
null,,rt_plussign_withcolor,1836647,,,blue,,,,,null,US_Cities_List/gatlinburg.png,US_Cities_List/hotsprings.png,,,,,,,,,,,,,,,,,,
null,,rt_thecrossant_black,1838001,,,black_plus_sign,,,,,null,,,NaN,,,,,,,,,,,,,,,,,
null,,color_black,1838105,,,black_plus_sign,,,,,null,,,,,,,,,,,,,,,,,,,,
null,,learn_phase(without_color),1841130,,,black_plus_sign,,,,,null,US_Cities_List/newhope.png,US_Cities_List/hotsprings.png,,,,,,,,,,,,,,,,,,
null,,black_cross(without_color),1842103,,,blue,,,,,null,US_Cities_List/newhope.png,US_Cities_List/hotsprings.png,,,,,,,,,,,,,,,,,,
null,,rt_plussign_withcolor,1842606,,,blue,,,,,null,US_Cities_List/newhope.png,US_Cities_List/hotsprings.png,,,,,,,,,,,,,,,,,,
null,,rt_thecrossant_black,1843640,,,black_plus_sign,,,,,null,,,NaN,,,,,,,,,,,,,,,,,
null,,warning_page,1846644,,,warning,,,,,null,,,,,,,,,,,,,,,,,,,,
null,,color_black,1846747,,,black_plus_sign,,,,,null,,,,,,,,,,,,,,,,,,,,
null,,learn_phase(without_color),1849767,,,black_plus_sign,,,,,null,US_Cities_List/cornwall.png,US_Cities_List/boulder.png,,,,,,,,,,,,,,,,,,
null,,black_cross(without_color),1850362,,,blue,,,,,null,US_Cities_List/cornwall.png,US_Cities_List/boulder.png,,,,,,,,,,,,,,,,,,
null,,rt_plussign_withcolor,1850865,,,blue,,,,,null,US_Cities_List/cornwall.png,US_Cities_List/boulder.png,,,,,,,,,,,,,,,,,,
1508.699999999255,,rt_thecrossant_black,1852277,,,black_plus_sign,,,,,49,,,1,1,,,,,,,,,,,,,,,,
null,,color_black,1852381,,,black_plus_sign,,,,,null,,,,,,,,,,,,,,,,,,,,
null,,learn_phase(without_color),1855400,,,black_plus_sign,,,,,null,US_Cities_List/westpalmbeach.png,US_Cities_List/leesburg.png,,,,,,,,,,,,,,,,,,
null,,black_cross(without_color),1855835,,,blue,,,,,null,US_Cities_List/westpalmbeach.png,US_Cities_List/leesburg.png,,,,,,,,,,,,,,,,,,
null,,rt_plussign_withcolor,1856338,,,blue,,,,,null,US_Cities_List/westpalmbeach.png,US_Cities_List/leesburg.png,,,,,,,,,,,,,,,,,,
1091.199999999255,,rt_thecrossant_black,1857909,,,black_plus_sign,,,,,49,,,1,1,,,,,,,,,,,,,,,,
null,,color_black,1858013,,,black_plus_sign,,,,,null,,,,,,,,,,,,,,,,,,,,
null,,learn_phase(without_color),1861031,,,black_plus_sign,,,,,null,US_Cities_List/newhope.png,US_Cities_List/hotsprings.png,,,,,,,,,,,,,,,,,,
null,,black_cross(without_color),1862079,,,yellow,,,,,null,US_Cities_List/newhope.png,US_Cities_List/hotsprings.png,,,,,,,,,,,,,,,,,,
null,,rt_plussign_withcolor,1862581,,,yellow,,,,,null,US_Cities_List/newhope.png,US_Cities_List/hotsprings.png,,,,,,,,,,,,,,,,,,
null,,rt_thecrossant_black,1863541,,,black_plus_sign,,,,,null,,,1,,,,,,,,,,,,,,,,,
null,,color_black,1863644,,,black_plus_sign,,,,,null,,,,,,,,,,,,,,,,,,,,
null,,learn_phase(without_color),1866667,,,black_plus_sign,,,,,null,US_Cities_List/racine.png,US_Cities_List/leesburg.png,,,,,,,,,,,,,,,,,,
null,,black_cross(without_color),1867143,,,yellow,,,,,null,US_Cities_List/racine.png,US_Cities_List/leesburg.png,,,,,,,,,,,,,,,,,,
null,,rt_plussign_withcolor,1867646,,,yellow,,,,,null,US_Cities_List/racine.png,US_Cities_List/leesburg.png,,,,,,,,,,,,,,,,,,
2227.39999999851,,rt_thecrossant_black,1869176,,,black_plus_sign,,,,,50,,,1,1,,,,,,,,,,,,,,,,
null,,color_black,1869280,,,black_plus_sign,,,,,null,,,,,,,,,,,,,,,,,,,,
null,,learn_phase(without_color),1872303,,,black_plus_sign,,,,,null,US_Cities_List/newhope.png,US_Cities_List/hotsprings.png,,,,,,,,,,,,,,,,,,
null,,black_cross(without_color),1872810,,,yellow,,,,,null,US_Cities_List/newhope.png,US_Cities_List/hotsprings.png,,,,,,,,,,,,,,,,,,
null,,rt_plussign_withcolor,1873312,,,yellow,,,,,null,US_Cities_List/newhope.png,US_Cities_List/hotsprings.png,,,,,,,,,,,,,,,,,,
1261.800000000745,,rt_thecrossant_black,1874812,,,black_plus_sign,,,,,50,,,1,1,,,,,,,,,,,,,,,,
null,,color_black,1874915,,,black_plus_sign,,,,,null,,,,,,,,,,,,,,,,,,,,
null,,learn_phase(without_color),1877931,,,black_plus_sign,,,,,null,US_Cities_List/shreveport.png,US_Cities_List/gatlinburg.png,,,,,,,,,,,,,,,,,,
null,,black_cross(without_color),1878492,,,yellow,,,,,null,US_Cities_List/shreveport.png,US_Cities_List/gatlinburg.png,,,,,,,,,,,,,,,,,,
null,,rt_plussign_withcolor,1878995,,,yellow,,,,,null,US_Cities_List/shreveport.png,US_Cities_List/gatlinburg.png,,,,,,,,,,,,,,,,,,
1306,,rt_thecrossant_black,1880441,,,black_plus_sign,,,,,50,,,1,1,,,,,,,,,,,,,,,,
null,,color_black,1880544,,,black_plus_sign,,,,,null,,,,,,,,,,,,,,,,,,,,
null,,learn_phase(without_color),1883571,,,black_plus_sign,,,,,null,US_Cities_List/racine.png,US_Cities_List/hotsprings.png,,,,,,,,,,,,,,,,,,
null,,black_cross(without_color),1884624,,,blue,,,,,null,US_Cities_List/racine.png,US_Cities_List/hotsprings.png,,,,,,,,,,,,,,,,,,
null,,rt_plussign_withcolor,1885126,,,blue,,,,,null,US_Cities_List/racine.png,US_Cities_List/hotsprings.png,,,,,,,,,,,,,,,,,,
989.6000000014901,,rt_thecrossant_black,1886080,,,black_plus_sign,,,,,49,,,1,1,,,,,,,,,,,,,,,,
null,,color_black,1886183,,,black_plus_sign,,,,,null,,,,,,,,,,,,,,,,,,,,
null,,learn_phase(without_color),1889208,,,black_plus_sign,,,,,null,US_Cities_List/racine.png,US_Cities_List/leesburg.png,,,,,,,,,,,,,,,,,,
null,,black_cross(without_color),1890287,,,yellow,,,,,null,US_Cities_List/racine.png,US_Cities_List/leesburg.png,,,,,,,,,,,,,,,,,,
null,,rt_plussign_withcolor,1890790,,,yellow,,,,,null,US_Cities_List/racine.png,US_Cities_List/leesburg.png,,,,,,,,,,,,,,,,,,
1552.9000000022352,,rt_thecrossant_black,1891718,,,black_plus_sign,,,,,50,,,1,1,,,,,,,,,,,,,,,,
null,,color_black,1891821,,,black_plus_sign,,,,,null,,,,,,,,,,,,,,,,,,,,
null,,learn_phase(without_color),1894851,,,black_plus_sign,,,,,null,US_Cities_List/gatlinburg.png,US_Cities_List/cornwall.png,,,,,,,,,,,,,,,,,,
null,,black_cross(without_color),1895526,,,blue,,,,,null,US_Cities_List/gatlinburg.png,US_Cities_List/cornwall.png,,,,,,,,,,,,,,,,,,
null,,rt_plussign_withcolor,1896029,,,blue,,,,,null,US_Cities_List/gatlinburg.png,US_Cities_List/cornwall.png,,,,,,,,,,,,,,,,,,
1315.5999999977648,,rt_thecrossant_black,1897362,,,black_plus_sign,,,,,49,,,1,1,,,,,,,,,,,,,,,,
null,,color_black,1897466,,,black_plus_sign,,,,,null,,,,,,,,,,,,,,,,,,,,
null,,learn_phase(without_color),1900484,,,black_plus_sign,,,,,null,US_Cities_List/westpalmbeach.png,US_Cities_List/leesburg.png,,,,,,,,,,,,,,,,,,
null,,black_cross(without_color),1901240,,,blue,,,,,null,US_Cities_List/westpalmbeach.png,US_Cities_List/leesburg.png,,,,,,,,,,,,,,,,,,
null,,rt_plussign_withcolor,1901743,,,blue,,,,,null,US_Cities_List/westpalmbeach.png,US_Cities_List/leesburg.png,,,,,,,,,,,,,,,,,,
1020.6000000014901,,rt_thecrossant_black,1902995,,,black_plus_sign,,,,,49,,,1,1,,,,,,,,,,,,,,,,
null,,color_black,1903099,,,black_plus_sign,,,,,null,,,,,,,,,,,,,,,,,,,,
null,,learn_phase(without_color),1906119,,,black_plus_sign,,,,,null,US_Cities_List/westpalmbeach.png,US_Cities_List/newhope.png,,,,,,,,,,,,,,,,,,
null,,black_cross(without_color),1906885,,,blue,,,,,null,US_Cities_List/westpalmbeach.png,US_Cities_List/newhope.png,,,,,,,,,,,,,,,,,,
null,,rt_plussign_withcolor,1907387,,,blue,,,,,null,US_Cities_List/westpalmbeach.png,US_Cities_List/newhope.png,,,,,,,,,,,,,,,,,,
1426.0999999977648,,rt_thecrossant_black,1908628,,,black_plus_sign,,,,,49,,,1,1,,,,,,,,,,,,,,,,
null,,color_black,1908732,,,black_plus_sign,,,,,null,,,,,,,,,,,,,,,,,,,,
null,,learn_phase(without_color),1911755,,,black_plus_sign,,,,,null,US_Cities_List/westpalmbeach.png,US_Cities_List/peoria.png,,,,,,,,,,,,,,,,,,
null,,black_cross(without_color),1912259,,,blue,,,,,null,US_Cities_List/westpalmbeach.png,US_Cities_List/peoria.png,,,,,,,,,,,,,,,,,,
null,,rt_plussign_withcolor,1912760,,,blue,,,,,null,US_Cities_List/westpalmbeach.png,US_Cities_List/peoria.png,,,,,,,,,,,,,,,,,,
1063.300000000745,,rt_thecrossant_black,1914263,,,black_plus_sign,,,,,49,,,1,1,,,,,,,,,,,,,,,,
null,,color_black,1914367,,,black_plus_sign,,,,,null,,,,,,,,,,,,,,,,,,,,
null,,learn_phase(without_color),1917385,,,black_plus_sign,,,,,null,US_Cities_List/huntsville.png,US_Cities_List/gatlinburg.png,,,,,,,,,,,,,,,,,,
null,,black_cross(without_color),1917829,,,yellow,,,,,null,US_Cities_List/huntsville.png,US_Cities_List/gatlinburg.png,,,,,,,,,,,,,,,,,,
null,,rt_plussign_withcolor,1918332,,,yellow,,,,,null,US_Cities_List/huntsville.png,US_Cities_List/gatlinburg.png,,,,,,,,,,,,,,,,,,
693.6999999992549,,rt_thecrossant_black,1919894,,,black_plus_sign,,,,,50,,,1,1,,,,,,,,,,,,,,,,
null,,color_black,1919998,,,black_plus_sign,,,,,null,,,,,,,,,,,,,,,,,,,,
null,,learn_phase(without_color),1923013,,,black_plus_sign,,,,,null,US_Cities_List/huntsville.png,US_Cities_List/shreveport.png,,,,,,,,,,,,,,,,,,
null,,black_cross(without_color),1923819,,,yellow,,,,,null,US_Cities_List/huntsville.png,US_Cities_List/shreveport.png,,,,,,,,,,,,,,,,,,
null,,rt_plussign_withcolor,1924322,,,yellow,,,,,null,US_Cities_List/huntsville.png,US_Cities_List/shreveport.png,,,,,,,,,,,,,,,,,,
843.3999999985099,,rt_thecrossant_black,1925523,,,black_plus_sign,,,,,50,,,1,1,,,,,,,,,,,,,,,,
null,,color_black,1925627,,,black_plus_sign,,,,,null,,,,,,,,,,,,,,,,,,,,
null,,learn_phase(without_color),1928653,,,black_plus_sign,,,,,null,US_Cities_List/boulder.png,US_Cities_List/cornwall.png,,,,,,,,,,,,,,,,,,
null,,black_cross(without_color),1929738,,,yellow,,,,,null,US_Cities_List/boulder.png,US_Cities_List/cornwall.png,,,,,,,,,,,,,,,,,,
null,,rt_plussign_withcolor,1930240,,,yellow,,,,,null,US_Cities_List/boulder.png,US_Cities_List/cornwall.png,,,,,,,,,,,,,,,,,,
1279.800000000745,,rt_thecrossant_black,1931162,,,black_plus_sign,,,,,50,,,1,1,,,,,,,,,,,,,,,,
null,,color_black,1931266,,,black_plus_sign,,,,,null,,,,,,,,,,,,,,,,,,,,
null,,learn_phase(without_color),1934290,,,black_plus_sign,,,,,null,US_Cities_List/peoria.png,US_Cities_List/westpalmbeach.png,,,,,,,,,,,,,,,,,,
null,,black_cross(without_color),1934925,,,blue,,,,,null,US_Cities_List/peoria.png,US_Cities_List/westpalmbeach.png,,,,,,,,,,,,,,,,,,
null,,rt_plussign_withcolor,1935427,,,blue,,,,,null,US_Cities_List/peoria.png,US_Cities_List/westpalmbeach.png,,,,,,,,,,,,,,,,,,
1747.7999999970198,,rt_thecrossant_black,1936799,,,black_plus_sign,,,,,49,,,1,1,,,,,,,,,,,,,,,,
null,,color_black,1936901,,,black_plus_sign,,,,,null,,,,,,,,,,,,,,,,,,,,
null,,learn_phase(without_color),1939932,,,black_plus_sign,,,,,null,US_Cities_List/gatlinburg.png,US_Cities_List/cornwall.png,,,,,,,,,,,,,,,,,,
null,,black_cross(without_color),1940387,,,blue,,,,,null,US_Cities_List/gatlinburg.png,US_Cities_List/cornwall.png,,,,,,,,,,,,,,,,,,
null,,rt_plussign_withcolor,1940890,,,blue,,,,,null,US_Cities_List/gatlinburg.png,US_Cities_List/cornwall.png,,,,,,,,,,,,,,,,,,
2218.89999999851,,rt_thecrossant_black,1942441,,,black_plus_sign,,,,,49,,,1,1,,,,,,,,,,,,,,,,
null,,color_black,1942545,,,black_plus_sign,,,,,null,,,,,,,,,,,,,,,,,,,,
null,,learn_phase(without_color),1945558,,,black_plus_sign,,,,,null,US_Cities_List/shreveport.png,US_Cities_List/hanover.png,,,,,,,,,,,,,,,,,,
null,,black_cross(without_color),1946621,,,yellow,,,,,null,US_Cities_List/shreveport.png,US_Cities_List/hanover.png,,,,,,,,,,,,,,,,,,
null,,rt_plussign_withcolor,1947125,,,yellow,,,,,null,US_Cities_List/shreveport.png,US_Cities_List/hanover.png,,,,,,,,,,,,,,,,,,
1067.5,,rt_thecrossant_black,1948070,,,black_plus_sign,,,,,50,,,1,1,,,,,,,,,,,,,,,,
null,,color_black,1948173,,,black_plus_sign,,,,,null,,,,,,,,,,,,,,,,,,,,
null,,learn_phase(without_color),1951197,,,black_plus_sign,,,,,null,US_Cities_List/shreveport.png,US_Cities_List/cornwall.png,,,,,,,,,,,,,,,,,,
null,,black_cross(without_color),1951951,,,yellow,,,,,null,US_Cities_List/shreveport.png,US_Cities_List/cornwall.png,,,,,,,,,,,,,,,,,,
null,,rt_plussign_withcolor,1952454,,,yellow,,,,,null,US_Cities_List/shreveport.png,US_Cities_List/cornwall.png,,,,,,,,,,,,,,,,,,
1426,,rt_thecrossant_black,1953708,,,black_plus_sign,,,,,50,,,1,1,,,,,,,,,,,,,,,,
null,,color_black,1953812,,,black_plus_sign,,,,,null,,,,,,,,,,,,,,,,,,,,
null,,learn_phase(without_color),1956831,,,black_plus_sign,,,,,null,US_Cities_List/racine.png,US_Cities_List/hotsprings.png,,,,,,,,,,,,,,,,,,
null,,black_cross(without_color),1957633,,,yellow,,,,,null,US_Cities_List/racine.png,US_Cities_List/hotsprings.png,,,,,,,,,,,,,,,,,,
null,,rt_plussign_withcolor,1958137,,,yellow,,,,,null,US_Cities_List/racine.png,US_Cities_List/hotsprings.png,,,,,,,,,,,,,,,,,,
1073.800000000745,,rt_thecrossant_black,1959341,,,black_plus_sign,,,,,50,,,1,1,,,,,,,,,,,,,,,,
null,,color_black,1959445,,,black_plus_sign,,,,,null,,,,,,,,,,,,,,,,,,,,
null,,learn_phase(without_color),1962467,,,black_plus_sign,,,,,null,US_Cities_List/gatlinburg.png,US_Cities_List/cornwall.png,,,,,,,,,,,,,,,,,,
null,,black_cross(without_color),1963240,,,yellow,,,,,null,US_Cities_List/gatlinburg.png,US_Cities_List/cornwall.png,,,,,,,,,,,,,,,,,,
null,,rt_plussign_withcolor,1963744,,,yellow,,,,,null,US_Cities_List/gatlinburg.png,US_Cities_List/cornwall.png,,,,,,,,,,,,,,,,,,
1140.3999999985099,,rt_thecrossant_black,1964978,,,black_plus_sign,,,,,50,,,1,1,,,,,,,,,,,,,,,,
null,,color_black,1965082,,,black_plus_sign,,,,,null,,,,,,,,,,,,,,,,,,,,
null,,learn_phase(without_color),1968100,,,black_plus_sign,,,,,null,US_Cities_List/westpalmbeach.png,US_Cities_List/newhope.png,,,,,,,,,,,,,,,,,,
null,,black_cross(without_color),1969007,,,yellow,,,,,null,US_Cities_List/westpalmbeach.png,US_Cities_List/newhope.png,,,,,,,,,,,,,,,,,,
null,,rt_plussign_withcolor,1969510,,,yellow,,,,,null,US_Cities_List/westpalmbeach.png,US_Cities_List/newhope.png,,,,,,,,,,,,,,,,,,
1223.199999999255,,rt_thecrossant_black,1970610,,,black_plus_sign,,,,,50,,,1,1,,,,,,,,,,,,,,,,
null,,color_black,1970714,,,black_plus_sign,,,,,null,,,,,,,,,,,,,,,,,,,,
null,,learn_phase(without_color),1973740,,,black_plus_sign,,,,,null,US_Cities_List/hotsprings.png,US_Cities_List/racine.png,,,,,,,,,,,,,,,,,,
null,,black_cross(without_color),1974374,,,blue,,,,,null,US_Cities_List/hotsprings.png,US_Cities_List/racine.png,,,,,,,,,,,,,,,,,,
null,,rt_plussign_withcolor,1974877,,,blue,,,,,null,US_Cities_List/hotsprings.png,US_Cities_List/racine.png,,,,,,,,,,,,,,,,,,
1616.4000000022352,,rt_thecrossant_black,1976250,,,black_plus_sign,,,,,49,,,1,1,,,,,,,,,,,,,,,,
null,,color_black,1976353,,,black_plus_sign,,,,,null,,,,,,,,,,,,,,,,,,,,
null,,learn_phase(without_color),1979374,,,black_plus_sign,,,,,null,US_Cities_List/westpalmbeach.png,US_Cities_List/peoria.png,,,,,,,,,,,,,,,,,,
null,,black_cross(without_color),1980007,,,blue,,,,,null,US_Cities_List/westpalmbeach.png,US_Cities_List/peoria.png,,,,,,,,,,,,,,,,,,
null,,rt_plussign_withcolor,1980510,,,blue,,,,,null,US_Cities_List/westpalmbeach.png,US_Cities_List/peoria.png,,,,,,,,,,,,,,,,,,
1195.5,,rt_thecrossant_black,1981885,,,black_plus_sign,,,,,49,,,1,1,,,,,,,,,,,,,,,,
null,,color_black,1981988,,,black_plus_sign,,,,,null,,,,,,,,,,,,,,,,,,,,
null,,learn_phase(without_color),1985010,,,black_plus_sign,,,,,null,US_Cities_List/shreveport.png,US_Cities_List/gatlinburg.png,,,,,,,,,,,,,,,,,,
null,,black_cross(without_color),1985564,,,blue,,,,,null,US_Cities_List/shreveport.png,US_Cities_List/gatlinburg.png,,,,,,,,,,,,,,,,,,
null,,rt_plussign_withcolor,1986067,,,blue,,,,,null,US_Cities_List/shreveport.png,US_Cities_List/gatlinburg.png,,,,,,,,,,,,,,,,,,
1135.5999999977648,,rt_thecrossant_black,1987521,,,black_plus_sign,,,,,49,,,1,1,,,,,,,,,,,,,,,,
null,,color_black,1987625,,,black_plus_sign,,,,,null,,,,,,,,,,,,,,,,,,,,
null,,learn_phase(without_color),1990653,,,black_plus_sign,,,,,null,US_Cities_List/cornwall.png,US_Cities_List/shreveport.png,,,,,,,,,,,,,,,,,,
null,,black_cross(without_color),1991203,,,yellow,,,,,null,US_Cities_List/cornwall.png,US_Cities_List/shreveport.png,,,,,,,,,,,,,,,,,,
null,,rt_plussign_withcolor,1991705,,,yellow,,,,,null,US_Cities_List/cornwall.png,US_Cities_List/shreveport.png,,,,,,,,,,,,,,,,,,
1057,,rt_thecrossant_black,1993163,,,black_plus_sign,,,,,50,,,1,1,,,,,,,,,,,,,,,,
null,,color_black,1993267,,,black_plus_sign,,,,,null,,,,,,,,,,,,,,,,,,,,
null,,learn_phase(without_color),1996292,,,black_plus_sign,,,,,null,US_Cities_List/newhope.png,US_Cities_List/westpalmbeach.png,,,,,,,,,,,,,,,,,,
null,,black_cross(without_color),1997180,,,blue,,,,,null,US_Cities_List/newhope.png,US_Cities_List/westpalmbeach.png,,,,,,,,,,,,,,,,,,
null,,rt_plussign_withcolor,1997683,,,blue,,,,,null,US_Cities_List/newhope.png,US_Cities_List/westpalmbeach.png,,,,,,,,,,,,,,,,,,
691.9000000022352,,rt_thecrossant_black,1998802,,,black_plus_sign,,,,,49,,,1,1,,,,,,,,,,,,,,,,
null,,color_black,1998905,,,black_plus_sign,,,,,null,,,,,,,,,,,,,,,,,,,,
null,,learn_phase(without_color),2001921,,,black_plus_sign,,,,,null,US_Cities_List/racine.png,US_Cities_List/huntsville.png,,,,,,,,,,,,,,,,,,
null,,black_cross(without_color),2002358,,,blue,,,,,null,US_Cities_List/racine.png,US_Cities_List/huntsville.png,,,,,,,,,,,,,,,,,,
null,,rt_plussign_withcolor,2002861,,,blue,,,,,null,US_Cities_List/racine.png,US_Cities_List/huntsville.png,,,,,,,,,,,,,,,,,,
1323.699999999255,,rt_thecrossant_black,2004432,,,black_plus_sign,,,,,49,,,1,1,,,,,,,,,,,,,,,,
null,,color_black,2004536,,,black_plus_sign,,,,,null,,,,,,,,,,,,,,,,,,,,
null,,learn_phase(without_color),2007553,,,black_plus_sign,,,,,null,US_Cities_List/gatlinburg.png,US_Cities_List/shreveport.png,,,,,,,,,,,,,,,,,,
null,,black_cross(without_color),2008224,,,blue,,,,,null,US_Cities_List/gatlinburg.png,US_Cities_List/shreveport.png,,,,,,,,,,,,,,,,,,
null,,rt_plussign_withcolor,2008727,,,blue,,,,,null,US_Cities_List/gatlinburg.png,US_Cities_List/shreveport.png,,,,,,,,,,,,,,,,,,
718.6000000014901,,rt_thecrossant_black,2010063,,,black_plus_sign,,,,,49,,,1,1,,,,,,,,,,,,,,,,
null,,color_black,2010167,,,black_plus_sign,,,,,null,,,,,,,,,,,,,,,,,,,,
null,,learn_phase(without_color),2013190,,,black_plus_sign,,,,,null,US_Cities_List/racine.png,US_Cities_List/leesburg.png,,,,,,,,,,,,,,,,,,
null,,black_cross(without_color),2013701,,,blue,,,,,null,US_Cities_List/racine.png,US_Cities_List/leesburg.png,,,,,,,,,,,,,,,,,,
null,,rt_plussign_withcolor,2014205,,,blue,,,,,null,US_Cities_List/racine.png,US_Cities_List/leesburg.png,,,,,,,,,,,,,,,,,,
987.3000000007451,,rt_thecrossant_black,2015700,,,black_plus_sign,,,,,49,,,1,1,,,,,,,,,,,,,,,,
null,,color_black,2015804,,,black_plus_sign,,,,,null,,,,,,,,,,,,,,,,,,,,
null,,learn_phase(without_color),2018825,,,black_plus_sign,,,,,null,US_Cities_List/racine.png,US_Cities_List/huntsville.png,,,,,,,,,,,,,,,,,,
null,,black_cross(without_color),2019902,,,yellow,,,,,null,US_Cities_List/racine.png,US_Cities_List/huntsville.png,,,,,,,,,,,,,,,,,,
null,,rt_plussign_withcolor,2020405,,,yellow,,,,,null,US_Cities_List/racine.png,US_Cities_List/huntsville.png,,,,,,,,,,,,,,,,,,
955.3000000007451,,rt_thecrossant_black,2021335,,,black_plus_sign,,,,,50,,,1,1,,,,,,,,,,,,,,,,
null,,color_black,2021438,,,black_plus_sign,,,,,null,,,,,,,,,,,,,,,,,,,,
null,,learn_phase(without_color),2024458,,,black_plus_sign,,,,,null,US_Cities_List/boulder.png,US_Cities_List/cornwall.png,,,,,,,,,,,,,,,,,,
null,,black_cross(without_color),2025445,,,yellow,,,,,null,US_Cities_List/boulder.png,US_Cities_List/cornwall.png,,,,,,,,,,,,,,,,,,
null,,rt_plussign_withcolor,2025948,,,yellow,,,,,null,US_Cities_List/boulder.png,US_Cities_List/cornwall.png,,,,,,,,,,,,,,,,,,
1321.9000000022352,,rt_thecrossant_black,2026969,,,black_plus_sign,,,,,50,,,1,1,,,,,,,,,,,,,,,,
null,,color_black,2027073,,,black_plus_sign,,,,,null,,,,,,,,,,,,,,,,,,,,
null,,learn_phase(without_color),2030090,,,black_plus_sign,,,,,null,US_Cities_List/shreveport.png,US_Cities_List/hanover.png,,,,,,,,,,,,,,,,,,
null,,black_cross(without_color),2030548,,,blue,,,,,null,US_Cities_List/shreveport.png,US_Cities_List/hanover.png,,,,,,,,,,,,,,,,,,
null,,rt_plussign_withcolor,2031051,,,blue,,,,,null,US_Cities_List/shreveport.png,US_Cities_List/hanover.png,,,,,,,,,,,,,,,,,,
1712.699999999255,,rt_thecrossant_black,2032601,,,black_plus_sign,,,,,49,,,1,1,,,,,,,,,,,,,,,,
null,,color_black,2032705,,,black_plus_sign,,,,,null,,,,,,,,,,,,,,,,,,,,
null,,learn_phase(without_color),2035729,,,black_plus_sign,,,,,null,US_Cities_List/leesburg.png,US_Cities_List/westpalmbeach.png,,,,,,,,,,,,,,,,,,
null,,black_cross(without_color),2036573,,,yellow,,,,,null,US_Cities_List/leesburg.png,US_Cities_List/westpalmbeach.png,,,,,,,,,,,,,,,,,,
null,,rt_plussign_withcolor,2037076,,,yellow,,,,,null,US_Cities_List/leesburg.png,US_Cities_List/westpalmbeach.png,,,,,,,,,,,,,,,,,,
580.8999999985099,,rt_thecrossant_black,2038240,,,black_plus_sign,,,,,50,,,1,1,,,,,,,,,,,,,,,,
null,,color_black,2038343,,,black_plus_sign,,,,,null,,,,,,,,,,,,,,,,,,,,
null,,learn_phase(without_color),2041367,,,black_plus_sign,,,,,null,US_Cities_List/shreveport.png,US_Cities_List/gatlinburg.png,,,,,,,,,,,,,,,,,,
null,,black_cross(without_color),2042413,,,yellow,,,,,null,US_Cities_List/shreveport.png,US_Cities_List/gatlinburg.png,,,,,,,,,,,,,,,,,,
null,,rt_plussign_withcolor,2042917,,,yellow,,,,,null,US_Cities_List/shreveport.png,US_Cities_List/gatlinburg.png,,,,,,,,,,,,,,,,,,
1153.5,,rt_thecrossant_black,2043877,,,black_plus_sign,,,,,50,,,1,1,,,,,,,,,,,,,,,,
null,,color_black,2043980,,,black_plus_sign,,,,,null,,,,,,,,,,,,,,,,,,,,
null,,learn_phase(without_color),2046996,,,black_plus_sign,,,,,null,US_Cities_List/shreveport.png,US_Cities_List/hanover.png,,,,,,,,,,,,,,,,,,
null,,black_cross(without_color),2047564,,,yellow,,,,,null,US_Cities_List/shreveport.png,US_Cities_List/hanover.png,,,,,,,,,,,,,,,,,,
null,,rt_plussign_withcolor,2048067,,,yellow,,,,,null,US_Cities_List/shreveport.png,US_Cities_List/hanover.png,,,,,,,,,,,,,,,,,,
1340.6000000014901,,rt_thecrossant_black,2049507,,,black_plus_sign,,,,,50,,,1,1,,,,,,,,,,,,,,,,
null,,color_black,2049610,,,black_plus_sign,,,,,null,,,,,,,,,,,,,,,,,,,,
null,,learn_phase(without_color),2052630,,,black_plus_sign,,,,,null,US_Cities_List/shreveport.png,US_Cities_List/hanover.png,,,,,,,,,,,,,,,,,,
null,,black_cross(without_color),2053664,,,yellow,,,,,null,US_Cities_List/shreveport.png,US_Cities_List/hanover.png,,,,,,,,,,,,,,,,,,
null,,rt_plussign_withcolor,2054168,,,yellow,,,,,null,US_Cities_List/shreveport.png,US_Cities_List/hanover.png,,,,,,,,,,,,,,,,,,
761,,rt_thecrossant_black,2055139,,,black_plus_sign,,,,,50,,,1,1,,,,,,,,,,,,,,,,
null,,color_black,2055243,,,black_plus_sign,,,,,null,,,,,,,,,,,,,,,,,,,,
null,,learn_phase(without_color),2058263,,,black_plus_sign,,,,,null,US_Cities_List/hotsprings.png,US_Cities_List/racine.png,,,,,,,,,,,,,,,,,,
null,,black_cross(without_color),2059167,,,blue,,,,,null,US_Cities_List/hotsprings.png,US_Cities_List/racine.png,,,,,,,,,,,,,,,,,,
null,,rt_plussign_withcolor,2059669,,,blue,,,,,null,US_Cities_List/hotsprings.png,US_Cities_List/racine.png,,,,,,,,,,,,,,,,,,
1270.5999999977648,,rt_thecrossant_black,2060773,,,black_plus_sign,,,,,49,,,1,1,,,,,,,,,,,,,,,,
null,,color_black,2060877,,,black_plus_sign,,,,,null,,,,,,,,,,,,,,,,,,,,
null,,learn_phase(without_color),2063894,,,black_plus_sign,,,,,null,US_Cities_List/shreveport.png,US_Cities_List/huntsville.png,,,,,,,,,,,,,,,,,,
null,,black_cross(without_color),2064850,,,yellow,,,,,null,US_Cities_List/shreveport.png,US_Cities_List/huntsville.png,,,,,,,,,,,,,,,,,,
null,,rt_plussign_withcolor,2065353,,,yellow,,,,,null,US_Cities_List/shreveport.png,US_Cities_List/huntsville.png,,,,,,,,,,,,,,,,,,
1167.800000000745,,rt_thecrossant_black,2066405,,,black_plus_sign,,,,,50,,,1,1,,,,,,,,,,,,,,,,
null,,color_black,2066509,,,black_plus_sign,,,,,null,,,,,,,,,,,,,,,,,,,,
null,,learn_phase(without_color),2069528,,,black_plus_sign,,,,,null,US_Cities_List/leesburg.png,US_Cities_List/carmel.png,,,,,,,,,,,,,,,,,,
null,,black_cross(without_color),2070215,,,yellow,,,,,null,US_Cities_List/leesburg.png,US_Cities_List/carmel.png,,,,,,,,,,,,,,,,,,
null,,rt_plussign_withcolor,2070717,,,yellow,,,,,null,US_Cities_List/leesburg.png,US_Cities_List/carmel.png,,,,,,,,,,,,,,,,,,
1758.4000000022352,,rt_thecrossant_black,2072038,,,black_plus_sign,,,,,50,,,1,1,,,,,,,,,,,,,,,,
null,,color_black,2072142,,,black_plus_sign,,,,,null,,,,,,,,,,,,,,,,,,,,
null,,learn_phase(without_color),2075165,,,black_plus_sign,,,,,null,US_Cities_List/gatlinburg.png,US_Cities_List/cornwall.png,,,,,,,,,,,,,,,,,,
null,,black_cross(without_color),2075801,,,yellow,,,,,null,US_Cities_List/gatlinburg.png,US_Cities_List/cornwall.png,,,,,,,,,,,,,,,,,,
null,,rt_plussign_withcolor,2076304,,,yellow,,,,,null,US_Cities_List/gatlinburg.png,US_Cities_List/cornwall.png,,,,,,,,,,,,,,,,,,
1223.3999999985099,,rt_thecrossant_black,2077677,,,black_plus_sign,,,,,50,,,1,1,,,,,,,,,,,,,,,,
null,,color_black,2077781,,,black_plus_sign,,,,,null,,,,,,,,,,,,,,,,,,,,
null,,learn_phase(without_color),2080801,,,black_plus_sign,,,,,null,US_Cities_List/racine.png,US_Cities_List/huntsville.png,,,,,,,,,,,,,,,,,,
null,,black_cross(without_color),2081621,,,yellow,,,,,null,US_Cities_List/racine.png,US_Cities_List/huntsville.png,,,,,,,,,,,,,,,,,,
null,,rt_plussign_withcolor,2082125,,,yellow,,,,,null,US_Cities_List/racine.png,US_Cities_List/huntsville.png,,,,,,,,,,,,,,,,,,
823.1999999992549,,rt_thecrossant_black,2083312,,,black_plus_sign,,,,,50,,,1,1,,,,,,,,,,,,,,,,
null,,color_black,2083416,,,black_plus_sign,,,,,null,,,,,,,,,,,,,,,,,,,,
null,,learn_phase(without_color),2086449,,,black_plus_sign,,,,,null,US_Cities_List/cornwall.png,US_Cities_List/gatlinburg.png,,,,,,,,,,,,,,,,,,
null,,black_cross(without_color),2087490,,,yellow,,,,,null,US_Cities_List/cornwall.png,US_Cities_List/gatlinburg.png,,,,,,,,,,,,,,,,,,
null,,rt_plussign_withcolor,2087993,,,yellow,,,,,null,US_Cities_List/cornwall.png,US_Cities_List/gatlinburg.png,,,,,,,,,,,,,,,,,,
1260.4000000022352,,rt_thecrossant_black,2088959,,,black_plus_sign,,,,,50,,,1,1,,,,,,,,,,,,,,,,
null,,color_black,2089063,,,black_plus_sign,,,,,null,,,,,,,,,,,,,,,,,,,,
null,,learn_phase(without_color),2092080,,,black_plus_sign,,,,,null,US_Cities_List/shreveport.png,US_Cities_List/huntsville.png,,,,,,,,,,,,,,,,,,
null,,black_cross(without_color),2092741,,,yellow,,,,,null,US_Cities_List/shreveport.png,US_Cities_List/huntsville.png,,,,,,,,,,,,,,,,,,
null,,rt_plussign_withcolor,2093245,,,yellow,,,,,null,US_Cities_List/shreveport.png,US_Cities_List/huntsville.png,,,,,,,,,,,,,,,,,,
1709.199999999255,,rt_thecrossant_black,2094591,,,black_plus_sign,,,,,50,,,1,1,,,,,,,,,,,,,,,,
null,,color_black,2094695,,,black_plus_sign,,,,,null,,,,,,,,,,,,,,,,,,,,
null,,learn_phase(without_color),2097714,,,black_plus_sign,,,,,null,US_Cities_List/peoria.png,US_Cities_List/westpalmbeach.png,,,,,,,,,,,,,,,,,,
null,,black_cross(without_color),2098193,,,blue,,,,,null,US_Cities_List/peoria.png,US_Cities_List/westpalmbeach.png,,,,,,,,,,,,,,,,,,
null,,rt_plussign_withcolor,2098697,,,blue,,,,,null,US_Cities_List/peoria.png,US_Cities_List/westpalmbeach.png,,,,,,,,,,,,,,,,,,
1013.8000000007451,,rt_thecrossant_black,2100225,,,black_plus_sign,,,,,49,,,1,1,,,,,,,,,,,,,,,,
null,,color_black,2100329,,,black_plus_sign,,,,,null,,,,,,,,,,,,,,,,,,,,
null,,learn_phase(without_color),2103347,,,black_plus_sign,,,,,null,US_Cities_List/racine.png,US_Cities_List/hotsprings.png,,,,,,,,,,,,,,,,,,
null,,black_cross(without_color),2104221,,,blue,,,,,null,US_Cities_List/racine.png,US_Cities_List/hotsprings.png,,,,,,,,,,,,,,,,,,
null,,rt_plussign_withcolor,2104724,,,blue,,,,,null,US_Cities_List/racine.png,US_Cities_List/hotsprings.png,,,,,,,,,,,,,,,,,,
892.1999999992549,,rt_thecrossant_black,2105856,,,black_plus_sign,,,,,49,,,1,1,,,,,,,,,,,,,,,,
null,,color_black,2105961,,,black_plus_sign,,,,,null,,,,,,,,,,,,,,,,,,,,
null,,learn_phase(without_color),2108983,,,black_plus_sign,,,,,null,US_Cities_List/westpalmbeach.png,US_Cities_List/peoria.png,,,,,,,,,,,,,,,,,,
null,,black_cross(without_color),2109626,,,blue,,,,,null,US_Cities_List/westpalmbeach.png,US_Cities_List/peoria.png,,,,,,,,,,,,,,,,,,
null,,rt_plussign_withcolor,2110129,,,blue,,,,,null,US_Cities_List/westpalmbeach.png,US_Cities_List/peoria.png,,,,,,,,,,,,,,,,,,
1450.6000000014901,,rt_thecrossant_black,2111494,,,black_plus_sign,,,,,49,,,1,1,,,,,,,,,,,,,,,,
null,,color_black,2111597,,,black_plus_sign,,,,,null,,,,,,,,,,,,,,,,,,,,
null,,learn_phase(without_color),2114617,,,black_plus_sign,,,,,null,US_Cities_List/westpalmbeach.png,US_Cities_List/leesburg.png,,,,,,,,,,,,,,,,,,
null,,black_cross(without_color),2115380,,,blue,,,,,null,US_Cities_List/westpalmbeach.png,US_Cities_List/leesburg.png,,,,,,,,,,,,,,,,,,
null,,rt_plussign_withcolor,2115884,,,blue,,,,,null,US_Cities_List/westpalmbeach.png,US_Cities_List/leesburg.png,,,,,,,,,,,,,,,,,,
1215,,rt_thecrossant_black,2117128,,,black_plus_sign,,,,,49,,,1,1,,,,,,,,,,,,,,,,
null,,color_black,2117232,,,black_plus_sign,,,,,null,,,,,,,,,,,,,,,,,,,,
null,,learn_phase(without_color),2120252,,,black_plus_sign,,,,,null,US_Cities_List/cornwall.png,US_Cities_List/boulder.png,,,,,,,,,,,,,,,,,,
null,,black_cross(without_color),2121033,,,yellow,,,,,null,US_Cities_List/cornwall.png,US_Cities_List/boulder.png,,,,,,,,,,,,,,,,,,
null,,rt_plussign_withcolor,2121537,,,yellow,,,,,null,US_Cities_List/cornwall.png,US_Cities_List/boulder.png,,,,,,,,,,,,,,,,,,
1243.5999999977648,,rt_thecrossant_black,2122763,,,black_plus_sign,,,,,50,,,1,1,,,,,,,,,,,,,,,,
null,,color_black,2122867,,,black_plus_sign,,,,,null,,,,,,,,,,,,,,,,,,,,
null,,learn_phase(without_color),2125895,,,black_plus_sign,,,,,null,US_Cities_List/boulder.png,US_Cities_List/cornwall.png,,,,,,,,,,,,,,,,,,
null,,black_cross(without_color),2126561,,,blue,,,,,null,US_Cities_List/boulder.png,US_Cities_List/cornwall.png,,,,,,,,,,,,,,,,,,
null,,rt_plussign_withcolor,2127064,,,blue,,,,,null,US_Cities_List/boulder.png,US_Cities_List/cornwall.png,,,,,,,,,,,,,,,,,,
1317.8999999985099,,rt_thecrossant_black,2128406,,,black_plus_sign,,,,,49,,,1,1,,,,,,,,,,,,,,,,
null,,color_black,2128510,,,black_plus_sign,,,,,null,,,,,,,,,,,,,,,,,,,,
null,,learn_phase(without_color),2131523,,,black_plus_sign,,,,,null,US_Cities_List/huntsville.png,US_Cities_List/shreveport.png,,,,,,,,,,,,,,,,,,
null,,black_cross(without_color),2132219,,,yellow,,,,,null,US_Cities_List/huntsville.png,US_Cities_List/shreveport.png,,,,,,,,,,,,,,,,,,
null,,rt_plussign_withcolor,2132723,,,yellow,,,,,null,US_Cities_List/huntsville.png,US_Cities_List/shreveport.png,,,,,,,,,,,,,,,,,,
1951.5,,rt_thecrossant_black,2134034,,,black_plus_sign,,,,,50,,,1,1,,,,,,,,,,,,,,,,
null,,color_black,2134138,,,black_plus_sign,,,,,null,,,,,,,,,,,,,,,,,,,,
null,,learn_phase(without_color),2137161,,,black_plus_sign,,,,,null,US_Cities_List/hotsprings.png,US_Cities_List/newhope.png,,,,,,,,,,,,,,,,,,
null,,black_cross(without_color),2138241,,,yellow,,,,,null,US_Cities_List/hotsprings.png,US_Cities_List/newhope.png,,,,,,,,,,,,,,,,,,
null,,rt_plussign_withcolor,2138744,,,yellow,,,,,null,US_Cities_List/hotsprings.png,US_Cities_List/newhope.png,,,,,,,,,,,,,,,,,,
1392.5999999977648,,rt_thecrossant_black,2139673,,,black_plus_sign,,,,,50,,,1,1,,,,,,,,,,,,,,,,
null,,color_black,2139777,,,black_plus_sign,,,,,null,,,,,,,,,,,,,,,,,,,,
null,,learn_phase(without_color),2142804,,,black_plus_sign,,,,,null,US_Cities_List/cornwall.png,US_Cities_List/gatlinburg.png,,,,,,,,,,,,,,,,,,
null,,black_cross(without_color),2143820,,,blue,,,,,null,US_Cities_List/cornwall.png,US_Cities_List/gatlinburg.png,,,,,,,,,,,,,,,,,,
null,,rt_plussign_withcolor,2144324,,,blue,,,,,null,US_Cities_List/cornwall.png,US_Cities_List/gatlinburg.png,,,,,,,,,,,,,,,,,,
1708.5999999977648,,rt_thecrossant_black,2145316,,,black_plus_sign,,,,,49,,,1,1,,,,,,,,,,,,,,,,
null,,color_black,2145419,,,black_plus_sign,,,,,null,,,,,,,,,,,,,,,,,,,,
null,,learn_phase(without_color),2148435,,,black_plus_sign,,,,,null,US_Cities_List/racine.png,US_Cities_List/huntsville.png,,,,,,,,,,,,,,,,,,
null,,black_cross(without_color),2148931,,,blue,,,,,null,US_Cities_List/racine.png,US_Cities_List/huntsville.png,,,,,,,,,,,,,,,,,,
null,,rt_plussign_withcolor,2149435,,,blue,,,,,null,US_Cities_List/racine.png,US_Cities_List/huntsville.png,,,,,,,,,,,,,,,,,,
1649.800000000745,,rt_thecrossant_black,2150946,,,black_plus_sign,,,,,49,,,1,1,,,,,,,,,,,,,,,,
null,,color_black,2151051,,,black_plus_sign,,,,,null,,,,,,,,,,,,,,,,,,,,
null,,learn_phase(without_color),2154068,,,black_plus_sign,,,,,null,US_Cities_List/leesburg.png,US_Cities_List/westpalmbeach.png,,,,,,,,,,,,,,,,,,
null,,black_cross(without_color),2154944,,,yellow,,,,,null,US_Cities_List/leesburg.png,US_Cities_List/westpalmbeach.png,,,,,,,,,,,,,,,,,,
null,,rt_plussign_withcolor,2155448,,,yellow,,,,,null,US_Cities_List/leesburg.png,US_Cities_List/westpalmbeach.png,,,,,,,,,,,,,,,,,,
1608.5,,rt_thecrossant_black,2156580,,,black_plus_sign,,,,,50,,,1,1,,,,,,,,,,,,,,,,
null,,color_black,2156684,,,black_plus_sign,,,,,null,,,,,,,,,,,,,,,,,,,,
null,,learn_phase(without_color),2159705,,,black_plus_sign,,,,,null,US_Cities_List/hotsprings.png,US_Cities_List/newhope.png,,,,,,,,,,,,,,,,,,
null,,black_cross(without_color),2160397,,,blue,,,,,null,US_Cities_List/hotsprings.png,US_Cities_List/newhope.png,,,,,,,,,,,,,,,,,,
null,,rt_plussign_withcolor,2160901,,,blue,,,,,null,US_Cities_List/hotsprings.png,US_Cities_List/newhope.png,,,,,,,,,,,,,,,,,,
1823,,rt_thecrossant_black,2162217,,,black_plus_sign,,,,,49,,,1,1,,,,,,,,,,,,,,,,
null,,color_black,2162321,,,black_plus_sign,,,,,null,,,,,,,,,,,,,,,,,,,,
null,,learn_phase(without_color),2165336,,,black_plus_sign,,,,,null,US_Cities_List/huntsville.png,US_Cities_List/racine.png,,,,,,,,,,,,,,,,,,
null,,black_cross(without_color),2165791,,,blue,,,,,null,US_Cities_List/huntsville.png,US_Cities_List/racine.png,,,,,,,,,,,,,,,,,,
null,,rt_plussign_withcolor,2166295,,,blue,,,,,null,US_Cities_List/huntsville.png,US_Cities_List/racine.png,,,,,,,,,,,,,,,,,,
892.5,,rt_thecrossant_black,2167848,,,black_plus_sign,,,,,49,,,1,1,,,,,,,,,,,,,,,,
null,,color_black,2167952,,,black_plus_sign,,,,,null,,,,,,,,,,,,,,,,,,,,
null,,learn_phase(without_color),2170973,,,black_plus_sign,,,,,null,US_Cities_List/carmel.png,US_Cities_List/leesburg.png,,,,,,,,,,,,,,,,,,
null,,black_cross(without_color),2171989,,,yellow,,,,,null,US_Cities_List/carmel.png,US_Cities_List/leesburg.png,,,,,,,,,,,,,,,,,,
null,,rt_plussign_withcolor,2172491,,,yellow,,,,,null,US_Cities_List/carmel.png,US_Cities_List/leesburg.png,,,,,,,,,,,,,,,,,,
906.3999999985099,,rt_thecrossant_black,2173485,,,black_plus_sign,,,,,50,,,1,1,,,,,,,,,,,,,,,,
null,,color_black,2173589,,,black_plus_sign,,,,,null,,,,,,,,,,,,,,,,,,,,
null,,learn_phase(without_color),2176608,,,black_plus_sign,,,,,null,US_Cities_List/gatlinburg.png,US_Cities_List/shreveport.png,,,,,,,,,,,,,,,,,,
null,,black_cross(without_color),2177022,,,blue,,,,,null,US_Cities_List/gatlinburg.png,US_Cities_List/shreveport.png,,,,,,,,,,,,,,,,,,
null,,rt_plussign_withcolor,2177525,,,blue,,,,,null,US_Cities_List/gatlinburg.png,US_Cities_List/shreveport.png,,,,,,,,,,,,,,,,,,
1465.800000000745,,rt_thecrossant_black,2179118,,,black_plus_sign,,,,,49,,,1,1,,,,,,,,,,,,,,,,
null,,color_black,2179221,,,black_plus_sign,,,,,null,,,,,,,,,,,,,,,,,,,,
null,,learn_phase(without_color),2182243,,,black_plus_sign,,,,,null,US_Cities_List/peoria.png,US_Cities_List/westpalmbeach.png,,,,,,,,,,,,,,,,,,
null,,black_cross(without_color),2183341,,,blue,,,,,null,US_Cities_List/peoria.png,US_Cities_List/westpalmbeach.png,,,,,,,,,,,,,,,,,,
null,,rt_plussign_withcolor,2183845,,,blue,,,,,null,US_Cities_List/peoria.png,US_Cities_List/westpalmbeach.png,,,,,,,,,,,,,,,,,,
714.5,,rt_thecrossant_black,2184754,,,black_plus_sign,,,,,49,,,1,1,,,,,,,,,,,,,,,,
null,,color_black,2184858,,,black_plus_sign,,,,,null,,,,,,,,,,,,,,,,,,,,
null,,learn_phase(without_color),2187879,,,black_plus_sign,,,,,null,US_Cities_List/gatlinburg.png,US_Cities_List/huntsville.png,,,,,,,,,,,,,,,,,,
null,,black_cross(without_color),2188546,,,blue,,,,,null,US_Cities_List/gatlinburg.png,US_Cities_List/huntsville.png,,,,,,,,,,,,,,,,,,
null,,rt_plussign_withcolor,2189049,,,blue,,,,,null,US_Cities_List/gatlinburg.png,US_Cities_List/huntsville.png,,,,,,,,,,,,,,,,,,
1601.6000000014901,,rt_thecrossant_black,2190390,,,black_plus_sign,,,,,49,,,1,1,,,,,,,,,,,,,,,,
null,,color_black,2190494,,,black_plus_sign,,,,,null,,,,,,,,,,,,,,,,,,,,
null,,learn_phase(without_color),2193513,,,black_plus_sign,,,,,null,US_Cities_List/shreveport.png,US_Cities_List/huntsville.png,,,,,,,,,,,,,,,,,,
null,,black_cross(without_color),2194221,,,blue,,,,,null,US_Cities_List/shreveport.png,US_Cities_List/huntsville.png,,,,,,,,,,,,,,,,,,
null,,rt_plussign_withcolor,2194724,,,blue,,,,,null,US_Cities_List/shreveport.png,US_Cities_List/huntsville.png,,,,,,,,,,,,,,,,,,
1527.5,,rt_thecrossant_black,2196024,,,black_plus_sign,,,,,49,,,1,1,,,,,,,,,,,,,,,,
null,,color_black,2196128,,,black_plus_sign,,,,,null,,,,,,,,,,,,,,,,,,,,
null,,learn_break,2256131,,,learn_break,,,,,null,,,,,,,,,,,,,,,,,,,,
null,,html-keyboard-response,2257134,,,<p></p>,,,,,null,,,,,,,,,,,,,,,,,,,,
null,,learn_phase(without_color),2260153,,,black_plus_sign,,,,,null,US_Cities_List/gatlinburg.png,US_Cities_List/shreveport.png,,,,,,,,,,,,,,,,,,
null,,black_cross(without_color),2260865,,,blue,,,,,null,US_Cities_List/gatlinburg.png,US_Cities_List/shreveport.png,,,,,,,,,,,,,,,,,,
null,,rt_plussign_withcolor,2261368,,,blue,,,,,null,US_Cities_List/gatlinburg.png,US_Cities_List/shreveport.png,,,,,,,,,,,,,,,,,,
1267.0999999977648,,rt_thecrossant_black,2262664,,,black_plus_sign,,,,,49,,,1,1,,,,,,,,,,,,,,,,
null,,color_black,2262768,,,black_plus_sign,,,,,null,,,,,,,,,,,,,,,,,,,,
null,,learn_phase(without_color),2265791,,,black_plus_sign,,,,,null,US_Cities_List/hotsprings.png,US_Cities_List/gatlinburg.png,,,,,,,,,,,,,,,,,,
null,,black_cross(without_color),2266690,,,yellow,,,,,null,US_Cities_List/hotsprings.png,US_Cities_List/gatlinburg.png,,,,,,,,,,,,,,,,,,
null,,rt_plussign_withcolor,2267194,,,yellow,,,,,null,US_Cities_List/hotsprings.png,US_Cities_List/gatlinburg.png,,,,,,,,,,,,,,,,,,
null,,rt_thecrossant_black,2268302,,,black_plus_sign,,,,,null,,,1,,,,,,,,,,,,,,,,,
null,,color_black,2268406,,,black_plus_sign,,,,,null,,,,,,,,,,,,,,,,,,,,
null,,learn_phase(without_color),2271424,,,black_plus_sign,,,,,null,US_Cities_List/leesburg.png,US_Cities_List/westpalmbeach.png,,,,,,,,,,,,,,,,,,
null,,black_cross(without_color),2271966,,,blue,,,,,null,US_Cities_List/leesburg.png,US_Cities_List/westpalmbeach.png,,,,,,,,,,,,,,,,,,
null,,rt_plussign_withcolor,2272470,,,blue,,,,,null,US_Cities_List/leesburg.png,US_Cities_List/westpalmbeach.png,,,,,,,,,,,,,,,,,,
1325.8999999985099,,rt_thecrossant_black,2273935,,,black_plus_sign,,,,,49,,,1,1,,,,,,,,,,,,,,,,
null,,color_black,2274039,,,black_plus_sign,,,,,null,,,,,,,,,,,,,,,,,,,,
null,,learn_phase(without_color),2277060,,,black_plus_sign,,,,,null,US_Cities_List/newhope.png,US_Cities_List/westpalmbeach.png,,,,,,,,,,,,,,,,,,
null,,black_cross(without_color),2277620,,,yellow,,,,,null,US_Cities_List/newhope.png,US_Cities_List/westpalmbeach.png,,,,,,,,,,,,,,,,,,
null,,rt_plussign_withcolor,2278124,,,yellow,,,,,null,US_Cities_List/newhope.png,US_Cities_List/westpalmbeach.png,,,,,,,,,,,,,,,,,,
1154.699999999255,,rt_thecrossant_black,2279571,,,black_plus_sign,,,,,50,,,1,1,,,,,,,,,,,,,,,,
null,,color_black,2279675,,,black_plus_sign,,,,,null,,,,,,,,,,,,,,,,,,,,
null,,learn_phase(without_color),2282693,,,black_plus_sign,,,,,null,US_Cities_List/shreveport.png,US_Cities_List/hanover.png,,,,,,,,,,,,,,,,,,
null,,black_cross(without_color),2283607,,,yellow,,,,,null,US_Cities_List/shreveport.png,US_Cities_List/hanover.png,,,,,,,,,,,,,,,,,,
null,,rt_plussign_withcolor,2284111,,,yellow,,,,,null,US_Cities_List/shreveport.png,US_Cities_List/hanover.png,,,,,,,,,,,,,,,,,,
754.5,,rt_thecrossant_black,2285205,,,black_plus_sign,,,,,50,,,1,1,,,,,,,,,,,,,,,,
null,,color_black,2285309,,,black_plus_sign,,,,,null,,,,,,,,,,,,,,,,,,,,
null,,learn_phase(without_color),2288331,,,black_plus_sign,,,,,null,US_Cities_List/shreveport.png,US_Cities_List/hanover.png,,,,,,,,,,,,,,,,,,
null,,black_cross(without_color),2288908,,,blue,,,,,null,US_Cities_List/shreveport.png,US_Cities_List/hanover.png,,,,,,,,,,,,,,,,,,
null,,rt_plussign_withcolor,2289412,,,blue,,,,,null,US_Cities_List/shreveport.png,US_Cities_List/hanover.png,,,,,,,,,,,,,,,,,,
1381.800000000745,,rt_thecrossant_black,2290842,,,black_plus_sign,,,,,49,,,1,1,,,,,,,,,,,,,,,,
null,,color_black,2290946,,,black_plus_sign,,,,,null,,,,,,,,,,,,,,,,,,,,
null,,learn_phase(without_color),2293969,,,black_plus_sign,,,,,null,US_Cities_List/hotsprings.png,US_Cities_List/racine.png,,,,,,,,,,,,,,,,,,
null,,black_cross(without_color),2294665,,,yellow,,,,,null,US_Cities_List/hotsprings.png,US_Cities_List/racine.png,,,,,,,,,,,,,,,,,,
null,,rt_plussign_withcolor,2295169,,,yellow,,,,,null,US_Cities_List/hotsprings.png,US_Cities_List/racine.png,,,,,,,,,,,,,,,,,,
865,,rt_thecrossant_black,2296480,,,black_plus_sign,,,,,50,,,1,1,,,,,,,,,,,,,,,,
null,,color_black,2296583,,,black_plus_sign,,,,,null,,,,,,,,,,,,,,,,,,,,
null,,learn_phase(without_color),2299605,,,black_plus_sign,,,,,null,US_Cities_List/huntsville.png,US_Cities_List/racine.png,,,,,,,,,,,,,,,,,,
null,,black_cross(without_color),2300708,,,yellow,,,,,null,US_Cities_List/huntsville.png,US_Cities_List/racine.png,,,,,,,,,,,,,,,,,,
null,,rt_plussign_withcolor,2301211,,,yellow,,,,,null,US_Cities_List/huntsville.png,US_Cities_List/racine.png,,,,,,,,,,,,,,,,,,
801.5999999977648,,rt_thecrossant_black,2302116,,,black_plus_sign,,,,,50,,,1,1,,,,,,,,,,,,,,,,
null,,color_black,2302220,,,black_plus_sign,,,,,null,,,,,,,,,,,,,,,,,,,,
null,,learn_phase(without_color),2305241,,,black_plus_sign,,,,,null,US_Cities_List/cornwall.png,US_Cities_List/boulder.png,,,,,,,,,,,,,,,,,,
null,,black_cross(without_color),2306064,,,yellow,,,,,null,US_Cities_List/cornwall.png,US_Cities_List/boulder.png,,,,,,,,,,,,,,,,,,
null,,rt_plussign_withcolor,2306567,,,yellow,,,,,null,US_Cities_List/cornwall.png,US_Cities_List/boulder.png,,,,,,,,,,,,,,,,,,
1552.300000000745,,rt_thecrossant_black,2307753,,,black_plus_sign,,,,,50,,,1,1,,,,,,,,,,,,,,,,
null,,color_black,2307857,,,black_plus_sign,,,,,null,,,,,,,,,,,,,,,,,,,,
null,,learn_phase(without_color),2310878,,,black_plus_sign,,,,,null,US_Cities_List/hotsprings.png,US_Cities_List/newhope.png,,,,,,,,,,,,,,,,,,
null,,black_cross(without_color),2311532,,,blue,,,,,null,US_Cities_List/hotsprings.png,US_Cities_List/newhope.png,,,,,,,,,,,,,,,,,,
null,,rt_plussign_withcolor,2312035,,,blue,,,,,null,US_Cities_List/hotsprings.png,US_Cities_List/newhope.png,,,,,,,,,,,,,,,,,,
2250.10000000149,,rt_thecrossant_black,2313389,,,black_plus_sign,,,,,49,,,1,1,,,,,,,,,,,,,,,,
null,,color_black,2313492,,,black_plus_sign,,,,,null,,,,,,,,,,,,,,,,,,,,
null,,learn_phase(without_color),2316509,,,black_plus_sign,,,,,null,US_Cities_List/leesburg.png,US_Cities_List/carmel.png,,,,,,,,,,,,,,,,,,
null,,black_cross(without_color),2317360,,,yellow,,,,,null,US_Cities_List/leesburg.png,US_Cities_List/carmel.png,,,,,,,,,,,,,,,,,,
null,,rt_plussign_withcolor,2317864,,,yellow,,,,,null,US_Cities_List/leesburg.png,US_Cities_List/carmel.png,,,,,,,,,,,,,,,,,,
null,,rt_thecrossant_black,2319021,,,black_plus_sign,,,,,null,,,1,,,,,,,,,,,,,,,,,
null,,color_black,2319125,,,black_plus_sign,,,,,null,,,,,,,,,,,,,,,,,,,,
null,,learn_phase(without_color),2322148,,,black_plus_sign,,,,,null,US_Cities_List/leesburg.png,US_Cities_List/carmel.png,,,,,,,,,,,,,,,,,,
null,,black_cross(without_color),2322761,,,blue,,,,,null,US_Cities_List/leesburg.png,US_Cities_List/carmel.png,,,,,,,,,,,,,,,,,,
null,,rt_plussign_withcolor,2323264,,,blue,,,,,null,US_Cities_List/leesburg.png,US_Cities_List/carmel.png,,,,,,,,,,,,,,,,,,
1136.300000000745,,rt_thecrossant_black,2324660,,,black_plus_sign,,,,,49,,,1,1,,,,,,,,,,,,,,,,
null,,color_black,2324763,,,black_plus_sign,,,,,null,,,,,,,,,,,,,,,,,,,,
null,,learn_phase(without_color),2327786,,,black_plus_sign,,,,,null,US_Cities_List/gatlinburg.png,US_Cities_List/hotsprings.png,,,,,,,,,,,,,,,,,,
null,,black_cross(without_color),2328400,,,blue,,,,,null,US_Cities_List/gatlinburg.png,US_Cities_List/hotsprings.png,,,,,,,,,,,,,,,,,,
null,,rt_plussign_withcolor,2328903,,,blue,,,,,null,US_Cities_List/gatlinburg.png,US_Cities_List/hotsprings.png,,,,,,,,,,,,,,,,,,
null,,rt_thecrossant_black,2330298,,,black_plus_sign,,,,,null,,,1,,,,,,,,,,,,,,,,,
null,,color_black,2330402,,,black_plus_sign,,,,,null,,,,,,,,,,,,,,,,,,,,
null,,learn_phase(without_color),2333428,,,black_plus_sign,,,,,null,US_Cities_List/hotsprings.png,US_Cities_List/gatlinburg.png,,,,,,,,,,,,,,,,,,
null,,black_cross(without_color),2334121,,,blue,,,,,null,US_Cities_List/hotsprings.png,US_Cities_List/gatlinburg.png,,,,,,,,,,,,,,,,,,
null,,rt_plussign_withcolor,2334624,,,blue,,,,,null,US_Cities_List/hotsprings.png,US_Cities_List/gatlinburg.png,,,,,,,,,,,,,,,,,,
null,,rt_thecrossant_black,2335939,,,black_plus_sign,,,,,null,,,1,,,,,,,,,,,,,,,,,
null,,warning_page,2338944,,,warning,,,,,null,,,,,,,,,,,,,,,,,,,,
null,,color_black,2339047,,,black_plus_sign,,,,,null,,,,,,,,,,,,,,,,,,,,
null,,learn_phase(without_color),2342070,,,black_plus_sign,,,,,null,US_Cities_List/leesburg.png,US_Cities_List/racine.png,,,,,,,,,,,,,,,,,,
null,,black_cross(without_color),2342514,,,yellow,,,,,null,US_Cities_List/leesburg.png,US_Cities_List/racine.png,,,,,,,,,,,,,,,,,,
null,,rt_plussign_withcolor,2343018,,,yellow,,,,,null,US_Cities_List/leesburg.png,US_Cities_List/racine.png,,,,,,,,,,,,,,,,,,
970.2999999970198,,rt_thecrossant_black,2344581,,,black_plus_sign,,,,,50,,,1,1,,,,,,,,,,,,,,,,
null,,color_black,2344685,,,black_plus_sign,,,,,null,,,,,,,,,,,,,,,,,,,,
null,,learn_phase(without_color),2347706,,,black_plus_sign,,,,,null,US_Cities_List/shreveport.png,US_Cities_List/cornwall.png,,,,,,,,,,,,,,,,,,
null,,black_cross(without_color),2348247,,,blue,,,,,null,US_Cities_List/shreveport.png,US_Cities_List/cornwall.png,,,,,,,,,,,,,,,,,,
null,,rt_plussign_withcolor,2348750,,,blue,,,,,null,US_Cities_List/shreveport.png,US_Cities_List/cornwall.png,,,,,,,,,,,,,,,,,,
1262.2000000029802,,rt_thecrossant_black,2350217,,,black_plus_sign,,,,,49,,,1,1,,,,,,,,,,,,,,,,
null,,color_black,2350321,,,black_plus_sign,,,,,null,,,,,,,,,,,,,,,,,,,,
null,,learn_phase(without_color),2353337,,,black_plus_sign,,,,,null,US_Cities_List/huntsville.png,US_Cities_List/shreveport.png,,,,,,,,,,,,,,,,,,
null,,black_cross(without_color),2353941,,,yellow,,,,,null,US_Cities_List/huntsville.png,US_Cities_List/shreveport.png,,,,,,,,,,,,,,,,,,
null,,rt_plussign_withcolor,2354445,,,yellow,,,,,null,US_Cities_List/huntsville.png,US_Cities_List/shreveport.png,,,,,,,,,,,,,,,,,,
1368.2000000029802,,rt_thecrossant_black,2355848,,,black_plus_sign,,,,,50,,,1,1,,,,,,,,,,,,,,,,
null,,color_black,2355952,,,black_plus_sign,,,,,null,,,,,,,,,,,,,,,,,,,,
null,,learn_phase(without_color),2358968,,,black_plus_sign,,,,,null,US_Cities_List/huntsville.png,US_Cities_List/gatlinburg.png,,,,,,,,,,,,,,,,,,
null,,black_cross(without_color),2359764,,,yellow,,,,,null,US_Cities_List/huntsville.png,US_Cities_List/gatlinburg.png,,,,,,,,,,,,,,,,,,
null,,rt_plussign_withcolor,2360268,,,yellow,,,,,null,US_Cities_List/huntsville.png,US_Cities_List/gatlinburg.png,,,,,,,,,,,,,,,,,,
1039.699999999255,,rt_thecrossant_black,2361480,,,black_plus_sign,,,,,50,,,1,1,,,,,,,,,,,,,,,,
null,,color_black,2361584,,,black_plus_sign,,,,,null,,,,,,,,,,,,,,,,,,,,
null,,learn_phase(without_color),2364603,,,black_plus_sign,,,,,null,US_Cities_List/leesburg.png,US_Cities_List/racine.png,,,,,,,,,,,,,,,,,,
null,,black_cross(without_color),2365545,,,yellow,,,,,null,US_Cities_List/leesburg.png,US_Cities_List/racine.png,,,,,,,,,,,,,,,,,,
null,,rt_plussign_withcolor,2366048,,,yellow,,,,,null,US_Cities_List/leesburg.png,US_Cities_List/racine.png,,,,,,,,,,,,,,,,,,
939.8000000007451,,rt_thecrossant_black,2367114,,,black_plus_sign,,,,,50,,,1,1,,,,,,,,,,,,,,,,
null,,color_black,2367218,,,black_plus_sign,,,,,null,,,,,,,,,,,,,,,,,,,,
null,,learn_phase(without_color),2370240,,,black_plus_sign,,,,,null,US_Cities_List/hotsprings.png,US_Cities_List/gatlinburg.png,,,,,,,,,,,,,,,,,,
null,,black_cross(without_color),2371073,,,yellow,,,,,null,US_Cities_List/hotsprings.png,US_Cities_List/gatlinburg.png,,,,,,,,,,,,,,,,,,
null,,rt_plussign_withcolor,2371577,,,yellow,,,,,null,US_Cities_List/hotsprings.png,US_Cities_List/gatlinburg.png,,,,,,,,,,,,,,,,,,
1148.199999999255,,rt_thecrossant_black,2372752,,,black_plus_sign,,,,,50,,,1,1,,,,,,,,,,,,,,,,
null,,color_black,2372856,,,black_plus_sign,,,,,null,,,,,,,,,,,,,,,,,,,,
null,,learn_phase(without_color),2375874,,,black_plus_sign,,,,,null,US_Cities_List/westpalmbeach.png,US_Cities_List/peoria.png,,,,,,,,,,,,,,,,,,
null,,black_cross(without_color),2376676,,,yellow,,,,,null,US_Cities_List/westpalmbeach.png,US_Cities_List/peoria.png,,,,,,,,,,,,,,,,,,
null,,rt_plussign_withcolor,2377179,,,yellow,,,,,null,US_Cities_List/westpalmbeach.png,US_Cities_List/peoria.png,,,,,,,,,,,,,,,,,,
1029.6000000014901,,rt_thecrossant_black,2378385,,,black_plus_sign,,,,,50,,,1,1,,,,,,,,,,,,,,,,
null,,color_black,2378489,,,black_plus_sign,,,,,null,,,,,,,,,,,,,,,,,,,,
null,,learn_phase(without_color),2381511,,,black_plus_sign,,,,,null,US_Cities_List/hotsprings.png,US_Cities_List/newhope.png,,,,,,,,,,,,,,,,,,
null,,black_cross(without_color),2381935,,,blue,,,,,null,US_Cities_List/hotsprings.png,US_Cities_List/newhope.png,,,,,,,,,,,,,,,,,,
null,,rt_plussign_withcolor,2382438,,,blue,,,,,null,US_Cities_List/hotsprings.png,US_Cities_List/newhope.png,,,,,,,,,,,,,,,,,,
1123.199999999255,,rt_thecrossant_black,2384023,,,black_plus_sign,,,,,49,,,1,1,,,,,,,,,,,,,,,,
null,,color_black,2384126,,,black_plus_sign,,,,,null,,,,,,,,,,,,,,,,,,,,
null,,learn_phase(without_color),2387153,,,black_plus_sign,,,,,null,US_Cities_List/cornwall.png,US_Cities_List/gatlinburg.png,,,,,,,,,,,,,,,,,,
null,,black_cross(without_color),2387883,,,yellow,,,,,null,US_Cities_List/cornwall.png,US_Cities_List/gatlinburg.png,,,,,,,,,,,,,,,,,,
null,,rt_plussign_withcolor,2388386,,,yellow,,,,,null,US_Cities_List/cornwall.png,US_Cities_List/gatlinburg.png,,,,,,,,,,,,,,,,,,
629.1999999992549,,rt_thecrossant_black,2389664,,,black_plus_sign,,,,,50,,,1,1,,,,,,,,,,,,,,,,
null,,color_black,2389768,,,black_plus_sign,,,,,null,,,,,,,,,,,,,,,,,,,,
null,,learn_phase(without_color),2392790,,,black_plus_sign,,,,,null,US_Cities_List/leesburg.png,US_Cities_List/carmel.png,,,,,,,,,,,,,,,,,,
null,,black_cross(without_color),2393415,,,blue,,,,,null,US_Cities_List/leesburg.png,US_Cities_List/carmel.png,,,,,,,,,,,,,,,,,,
null,,rt_plussign_withcolor,2393919,,,blue,,,,,null,US_Cities_List/leesburg.png,US_Cities_List/carmel.png,,,,,,,,,,,,,,,,,,
1234.5,,rt_thecrossant_black,2395302,,,black_plus_sign,,,,,49,,,1,1,,,,,,,,,,,,,,,,
null,,color_black,2395406,,,black_plus_sign,,,,,null,,,,,,,,,,,,,,,,,,,,
null,,learn_phase(without_color),2398431,,,black_plus_sign,,,,,null,US_Cities_List/newhope.png,US_Cities_List/westpalmbeach.png,,,,,,,,,,,,,,,,,,
null,,black_cross(without_color),2399070,,,blue,,,,,null,US_Cities_List/newhope.png,US_Cities_List/westpalmbeach.png,,,,,,,,,,,,,,,,,,
null,,rt_plussign_withcolor,2399573,,,blue,,,,,null,US_Cities_List/newhope.png,US_Cities_List/westpalmbeach.png,,,,,,,,,,,,,,,,,,
1235.9000000022352,,rt_thecrossant_black,2400942,,,black_plus_sign,,,,,49,,,1,1,,,,,,,,,,,,,,,,
null,,color_black,2401046,,,black_plus_sign,,,,,null,,,,,,,,,,,,,,,,,,,,
null,,learn_phase(without_color),2404066,,,black_plus_sign,,,,,null,US_Cities_List/hotsprings.png,US_Cities_List/gatlinburg.png,,,,,,,,,,,,,,,,,,
null,,black_cross(without_color),2404961,,,blue,,,,,null,US_Cities_List/hotsprings.png,US_Cities_List/gatlinburg.png,,,,,,,,,,,,,,,,,,
null,,rt_plussign_withcolor,2405465,,,blue,,,,,null,US_Cities_List/hotsprings.png,US_Cities_List/gatlinburg.png,,,,,,,,,,,,,,,,,,
1029.2999999970198,,rt_thecrossant_black,2406579,,,black_plus_sign,,,,,49,,,1,1,,,,,,,,,,,,,,,,
null,,color_black,2406683,,,black_plus_sign,,,,,null,,,,,,,,,,,,,,,,,,,,
null,,learn_phase(without_color),2409701,,,black_plus_sign,,,,,null,US_Cities_List/shreveport.png,US_Cities_List/gatlinburg.png,,,,,,,,,,,,,,,,,,
null,,black_cross(without_color),2410515,,,yellow,,,,,null,US_Cities_List/shreveport.png,US_Cities_List/gatlinburg.png,,,,,,,,,,,,,,,,,,
null,,rt_plussign_withcolor,2411019,,,yellow,,,,,null,US_Cities_List/shreveport.png,US_Cities_List/gatlinburg.png,,,,,,,,,,,,,,,,,,
1164.5,,rt_thecrossant_black,2412212,,,black_plus_sign,,,,,50,,,1,1,,,,,,,,,,,,,,,,
null,,color_black,2412315,,,black_plus_sign,,,,,null,,,,,,,,,,,,,,,,,,,,
null,,learn_phase(without_color),2415341,,,black_plus_sign,,,,,null,US_Cities_List/cornwall.png,US_Cities_List/shreveport.png,,,,,,,,,,,,,,,,,,
null,,black_cross(without_color),2415927,,,yellow,,,,,null,US_Cities_List/cornwall.png,US_Cities_List/shreveport.png,,,,,,,,,,,,,,,,,,
null,,rt_plussign_withcolor,2416431,,,yellow,,,,,null,US_Cities_List/cornwall.png,US_Cities_List/shreveport.png,,,,,,,,,,,,,,,,,,
1014.8000000007451,,rt_thecrossant_black,2417852,,,black_plus_sign,,,,,50,,,1,1,,,,,,,,,,,,,,,,
null,,color_black,2417956,,,black_plus_sign,,,,,null,,,,,,,,,,,,,,,,,,,,
null,,learn_phase(without_color),2420978,,,black_plus_sign,,,,,null,US_Cities_List/gatlinburg.png,US_Cities_List/hotsprings.png,,,,,,,,,,,,,,,,,,
null,,black_cross(without_color),2421901,,,blue,,,,,null,US_Cities_List/gatlinburg.png,US_Cities_List/hotsprings.png,,,,,,,,,,,,,,,,,,
null,,rt_plussign_withcolor,2422405,,,blue,,,,,null,US_Cities_List/gatlinburg.png,US_Cities_List/hotsprings.png,,,,,,,,,,,,,,,,,,
901.8999999985099,,rt_thecrossant_black,2423490,,,black_plus_sign,,,,,49,,,1,1,,,,,,,,,,,,,,,,
null,,color_black,2423594,,,black_plus_sign,,,,,null,,,,,,,,,,,,,,,,,,,,
null,,learn_phase(without_color),2426625,,,black_plus_sign,,,,,null,US_Cities_List/gatlinburg.png,US_Cities_List/cornwall.png,,,,,,,,,,,,,,,,,,
null,,black_cross(without_color),2427385,,,blue,,,,,null,US_Cities_List/gatlinburg.png,US_Cities_List/cornwall.png,,,,,,,,,,,,,,,,,,
null,,rt_plussign_withcolor,2427888,,,blue,,,,,null,US_Cities_List/gatlinburg.png,US_Cities_List/cornwall.png,,,,,,,,,,,,,,,,,,
1618.1000000014901,,rt_thecrossant_black,2429137,,,black_plus_sign,,,,,49,,,1,1,,,,,,,,,,,,,,,,
null,,color_black,2429241,,,black_plus_sign,,,,,null,,,,,,,,,,,,,,,,,,,,
null,,learn_phase(without_color),2432266,,,black_plus_sign,,,,,null,US_Cities_List/hotsprings.png,US_Cities_List/gatlinburg.png,,,,,,,,,,,,,,,,,,
null,,black_cross(without_color),2433141,,,blue,,,,,null,US_Cities_List/hotsprings.png,US_Cities_List/gatlinburg.png,,,,,,,,,,,,,,,,,,
null,,rt_plussign_withcolor,2433644,,,blue,,,,,null,US_Cities_List/hotsprings.png,US_Cities_List/gatlinburg.png,,,,,,,,,,,,,,,,,,
1052.3999999985099,,rt_thecrossant_black,2434777,,,black_plus_sign,,,,,49,,,1,1,,,,,,,,,,,,,,,,
null,,color_black,2434881,,,black_plus_sign,,,,,null,,,,,,,,,,,,,,,,,,,,
null,,learn_phase(without_color),2437901,,,black_plus_sign,,,,,null,US_Cities_List/racine.png,US_Cities_List/leesburg.png,,,,,,,,,,,,,,,,,,
null,,black_cross(without_color),2438445,,,blue,,,,,null,US_Cities_List/racine.png,US_Cities_List/leesburg.png,,,,,,,,,,,,,,,,,,
null,,rt_plussign_withcolor,2438948,,,blue,,,,,null,US_Cities_List/racine.png,US_Cities_List/leesburg.png,,,,,,,,,,,,,,,,,,
1166.2999999970198,,rt_thecrossant_black,2440412,,,black_plus_sign,,,,,49,,,1,1,,,,,,,,,,,,,,,,
null,,color_black,2440516,,,black_plus_sign,,,,,null,,,,,,,,,,,,,,,,,,,,
null,,learn_phase(without_color),2443534,,,black_plus_sign,,,,,null,US_Cities_List/peoria.png,US_Cities_List/westpalmbeach.png,,,,,,,,,,,,,,,,,,
null,,black_cross(without_color),2444265,,,blue,,,,,null,US_Cities_List/peoria.png,US_Cities_List/westpalmbeach.png,,,,,,,,,,,,,,,,,,
null,,rt_plussign_withcolor,2444768,,,blue,,,,,null,US_Cities_List/peoria.png,US_Cities_List/westpalmbeach.png,,,,,,,,,,,,,,,,,,
679.1000000014901,,rt_thecrossant_black,2446046,,,black_plus_sign,,,,,49,,,1,1,,,,,,,,,,,,,,,,
null,,color_black,2446149,,,black_plus_sign,,,,,null,,,,,,,,,,,,,,,,,,,,
null,,learn_phase(without_color),2449163,,,black_plus_sign,,,,,null,US_Cities_List/gatlinburg.png,US_Cities_List/huntsville.png,,,,,,,,,,,,,,,,,,
null,,black_cross(without_color),2449681,,,yellow,,,,,null,US_Cities_List/gatlinburg.png,US_Cities_List/huntsville.png,,,,,,,,,,,,,,,,,,
null,,rt_plussign_withcolor,2450184,,,yellow,,,,,null,US_Cities_List/gatlinburg.png,US_Cities_List/huntsville.png,,,,,,,,,,,,,,,,,,
1225.699999999255,,rt_thecrossant_black,2451673,,,black_plus_sign,,,,,50,,,1,1,,,,,,,,,,,,,,,,
null,,color_black,2451778,,,black_plus_sign,,,,,null,,,,,,,,,,,,,,,,,,,,
null,,learn_phase(without_color),2454799,,,black_plus_sign,,,,,null,US_Cities_List/cornwall.png,US_Cities_List/shreveport.png,,,,,,,,,,,,,,,,,,
null,,black_cross(without_color),2455697,,,blue,,,,,null,US_Cities_List/cornwall.png,US_Cities_List/shreveport.png,,,,,,,,,,,,,,,,,,
null,,rt_plussign_withcolor,2456200,,,blue,,,,,null,US_Cities_List/cornwall.png,US_Cities_List/shreveport.png,,,,,,,,,,,,,,,,,,
733.6999999992549,,rt_thecrossant_black,2457310,,,black_plus_sign,,,,,49,,,1,1,,,,,,,,,,,,,,,,
null,,color_black,2457414,,,black_plus_sign,,,,,null,,,,,,,,,,,,,,,,,,,,
null,,learn_phase(without_color),2460443,,,black_plus_sign,,,,,null,US_Cities_List/cornwall.png,US_Cities_List/shreveport.png,,,,,,,,,,,,,,,,,,
null,,black_cross(without_color),2461270,,,blue,,,,,null,US_Cities_List/cornwall.png,US_Cities_List/shreveport.png,,,,,,,,,,,,,,,,,,
null,,rt_plussign_withcolor,2461774,,,blue,,,,,null,US_Cities_List/cornwall.png,US_Cities_List/shreveport.png,,,,,,,,,,,,,,,,,,
1620,,rt_thecrossant_black,2462955,,,black_plus_sign,,,,,49,,,1,1,,,,,,,,,,,,,,,,
null,,color_black,2463059,,,black_plus_sign,,,,,null,,,,,,,,,,,,,,,,,,,,
null,,learn_phase(without_color),2466080,,,black_plus_sign,,,,,null,US_Cities_List/gatlinburg.png,US_Cities_List/huntsville.png,,,,,,,,,,,,,,,,,,
null,,black_cross(without_color),2467161,,,yellow,,,,,null,US_Cities_List/gatlinburg.png,US_Cities_List/huntsville.png,,,,,,,,,,,,,,,,,,
null,,rt_plussign_withcolor,2467664,,,yellow,,,,,null,US_Cities_List/gatlinburg.png,US_Cities_List/huntsville.png,,,,,,,,,,,,,,,,,,
1187,,rt_thecrossant_black,2468590,,,black_plus_sign,,,,,50,,,1,1,,,,,,,,,,,,,,,,
null,,color_black,2468694,,,black_plus_sign,,,,,null,,,,,,,,,,,,,,,,,,,,
null,,learn_phase(without_color),2471712,,,black_plus_sign,,,,,null,US_Cities_List/huntsville.png,US_Cities_List/racine.png,,,,,,,,,,,,,,,,,,
null,,black_cross(without_color),2472218,,,blue,,,,,null,US_Cities_List/huntsville.png,US_Cities_List/racine.png,,,,,,,,,,,,,,,,,,
null,,rt_plussign_withcolor,2472721,,,blue,,,,,null,US_Cities_List/huntsville.png,US_Cities_List/racine.png,,,,,,,,,,,,,,,,,,
null,,rt_thecrossant_black,2474223,,,black_plus_sign,,,,,null,,,1,,,,,,,,,,,,,,,,,
null,,color_black,2474328,,,black_plus_sign,,,,,null,,,,,,,,,,,,,,,,,,,,
null,,learn_phase(without_color),2477346,,,black_plus_sign,,,,,null,US_Cities_List/leesburg.png,US_Cities_List/carmel.png,,,,,,,,,,,,,,,,,,
null,,black_cross(without_color),2478128,,,blue,,,,,null,US_Cities_List/leesburg.png,US_Cities_List/carmel.png,,,,,,,,,,,,,,,,,,
null,,rt_plussign_withcolor,2478632,,,blue,,,,,null,US_Cities_List/leesburg.png,US_Cities_List/carmel.png,,,,,,,,,,,,,,,,,,
794.1000000014901,,rt_thecrossant_black,2479857,,,black_plus_sign,,,,,49,,,1,1,,,,,,,,,,,,,,,,
null,,color_black,2479961,,,black_plus_sign,,,,,null,,,,,,,,,,,,,,,,,,,,
null,,learn_phase(without_color),2482991,,,black_plus_sign,,,,,null,US_Cities_List/shreveport.png,US_Cities_List/cornwall.png,,,,,,,,,,,,,,,,,,
null,,black_cross(without_color),2483453,,,yellow,,,,,null,US_Cities_List/shreveport.png,US_Cities_List/cornwall.png,,,,,,,,,,,,,,,,,,
null,,rt_plussign_withcolor,2483957,,,yellow,,,,,null,US_Cities_List/shreveport.png,US_Cities_List/cornwall.png,,,,,,,,,,,,,,,,,,
1297.7999999970198,,rt_thecrossant_black,2485501,,,black_plus_sign,,,,,50,,,1,1,,,,,,,,,,,,,,,,
null,,color_black,2485605,,,black_plus_sign,,,,,null,,,,,,,,,,,,,,,,,,,,
null,,learn_phase(without_color),2488631,,,black_plus_sign,,,,,null,US_Cities_List/racine.png,US_Cities_List/leesburg.png,,,,,,,,,,,,,,,,,,
null,,black_cross(without_color),2489077,,,yellow,,,,,null,US_Cities_List/racine.png,US_Cities_List/leesburg.png,,,,,,,,,,,,,,,,,,
null,,rt_plussign_withcolor,2489581,,,yellow,,,,,null,US_Cities_List/racine.png,US_Cities_List/leesburg.png,,,,,,,,,,,,,,,,,,
699,,rt_thecrossant_black,2491141,,,black_plus_sign,,,,,50,,,1,1,,,,,,,,,,,,,,,,
null,,color_black,2491245,,,black_plus_sign,,,,,null,,,,,,,,,,,,,,,,,,,,
null,,learn_phase(without_color),2494264,,,black_plus_sign,,,,,null,US_Cities_List/hotsprings.png,US_Cities_List/newhope.png,,,,,,,,,,,,,,,,,,
null,,black_cross(without_color),2495219,,,blue,,,,,null,US_Cities_List/hotsprings.png,US_Cities_List/newhope.png,,,,,,,,,,,,,,,,,,
null,,rt_plussign_withcolor,2495722,,,blue,,,,,null,US_Cities_List/hotsprings.png,US_Cities_List/newhope.png,,,,,,,,,,,,,,,,,,
695.6999999992549,,rt_thecrossant_black,2496776,,,black_plus_sign,,,,,49,,,1,1,,,,,,,,,,,,,,,,
null,,color_black,2496880,,,black_plus_sign,,,,,null,,,,,,,,,,,,,,,,,,,,
null,,learn_phase(without_color),2499897,,,black_plus_sign,,,,,null,US_Cities_List/shreveport.png,US_Cities_List/huntsville.png,,,,,,,,,,,,,,,,,,
null,,black_cross(without_color),2500573,,,yellow,,,,,null,US_Cities_List/shreveport.png,US_Cities_List/huntsville.png,,,,,,,,,,,,,,,,,,
null,,rt_plussign_withcolor,2501077,,,yellow,,,,,null,US_Cities_List/shreveport.png,US_Cities_List/huntsville.png,,,,,,,,,,,,,,,,,,
1165,,rt_thecrossant_black,2502408,,,black_plus_sign,,,,,50,,,1,1,,,,,,,,,,,,,,,,
null,,color_black,2502512,,,black_plus_sign,,,,,null,,,,,,,,,,,,,,,,,,,,
null,,learn_phase(without_color),2505530,,,black_plus_sign,,,,,null,US_Cities_List/westpalmbeach.png,US_Cities_List/leesburg.png,,,,,,,,,,,,,,,,,,
null,,black_cross(without_color),2505944,,,yellow,,,,,null,US_Cities_List/westpalmbeach.png,US_Cities_List/leesburg.png,,,,,,,,,,,,,,,,,,
null,,rt_plussign_withcolor,2506447,,,yellow,,,,,null,US_Cities_List/westpalmbeach.png,US_Cities_List/leesburg.png,,,,,,,,,,,,,,,,,,
916.8000000007451,,rt_thecrossant_black,2508041,,,black_plus_sign,,,,,50,,,1,1,,,,,,,,,,,,,,,,
null,,color_black,2508145,,,black_plus_sign,,,,,null,,,,,,,,,,,,,,,,,,,,
null,,learn_phase(without_color),2511165,,,black_plus_sign,,,,,null,US_Cities_List/cornwall.png,US_Cities_List/shreveport.png,,,,,,,,,,,,,,,,,,
null,,black_cross(without_color),2511637,,,yellow,,,,,null,US_Cities_List/cornwall.png,US_Cities_List/shreveport.png,,,,,,,,,,,,,,,,,,
null,,rt_plussign_withcolor,2512139,,,yellow,,,,,null,US_Cities_List/cornwall.png,US_Cities_List/shreveport.png,,,,,,,,,,,,,,,,,,
570.8000000007451,,rt_thecrossant_black,2513676,,,black_plus_sign,,,,,50,,,1,1,,,,,,,,,,,,,,,,
null,,color_black,2513781,,,black_plus_sign,,,,,null,,,,,,,,,,,,,,,,,,,,
null,,learn_phase(without_color),2516799,,,black_plus_sign,,,,,null,US_Cities_List/leesburg.png,US_Cities_List/racine.png,,,,,,,,,,,,,,,,,,
null,,black_cross(without_color),2517632,,,yellow,,,,,null,US_Cities_List/leesburg.png,US_Cities_List/racine.png,,,,,,,,,,,,,,,,,,
null,,rt_plussign_withcolor,2518136,,,yellow,,,,,null,US_Cities_List/leesburg.png,US_Cities_List/racine.png,,,,,,,,,,,,,,,,,,
767.6000000014901,,rt_thecrossant_black,2519311,,,black_plus_sign,,,,,50,,,1,1,,,,,,,,,,,,,,,,
null,,color_black,2519415,,,black_plus_sign,,,,,null,,,,,,,,,,,,,,,,,,,,
null,,learn_phase(without_color),2522437,,,black_plus_sign,,,,,null,US_Cities_List/westpalmbeach.png,US_Cities_List/leesburg.png,,,,,,,,,,,,,,,,,,
null,,black_cross(without_color),2523456,,,yellow,,,,,null,US_Cities_List/westpalmbeach.png,US_Cities_List/leesburg.png,,,,,,,,,,,,,,,,,,
null,,rt_plussign_withcolor,2523960,,,yellow,,,,,null,US_Cities_List/westpalmbeach.png,US_Cities_List/leesburg.png,,,,,,,,,,,,,,,,,,
992.8000000007451,,rt_thecrossant_black,2524949,,,black_plus_sign,,,,,50,,,1,1,,,,,,,,,,,,,,,,
null,,color_black,2525053,,,black_plus_sign,,,,,null,,,,,,,,,,,,,,,,,,,,
null,,learn_phase(without_color),2528072,,,black_plus_sign,,,,,null,US_Cities_List/hanover.png,US_Cities_List/shreveport.png,,,,,,,,,,,,,,,,,,
null,,black_cross(without_color),2528956,,,blue,,,,,null,US_Cities_List/hanover.png,US_Cities_List/shreveport.png,,,,,,,,,,,,,,,,,,
null,,rt_plussign_withcolor,2529459,,,blue,,,,,null,US_Cities_List/hanover.png,US_Cities_List/shreveport.png,,,,,,,,,,,,,,,,,,
1350.5,,rt_thecrossant_black,2530585,,,black_plus_sign,,,,,49,,,1,1,,,,,,,,,,,,,,,,
null,,color_black,2530689,,,black_plus_sign,,,,,null,,,,,,,,,,,,,,,,,,,,
null,,learn_phase(without_color),2533711,,,black_plus_sign,,,,,null,US_Cities_List/hanover.png,US_Cities_List/shreveport.png,,,,,,,,,,,,,,,,,,
null,,black_cross(without_color),2534383,,,yellow,,,,,null,US_Cities_List/hanover.png,US_Cities_List/shreveport.png,,,,,,,,,,,,,,,,,,
null,,rt_plussign_withcolor,2534887,,,yellow,,,,,null,US_Cities_List/hanover.png,US_Cities_List/shreveport.png,,,,,,,,,,,,,,,,,,
1243.699999999255,,rt_thecrossant_black,2536223,,,black_plus_sign,,,,,50,,,1,1,,,,,,,,,,,,,,,,
null,,color_black,2536328,,,black_plus_sign,,,,,null,,,,,,,,,,,,,,,,,,,,
null,,learn_phase(without_color),2539354,,,black_plus_sign,,,,,null,US_Cities_List/cornwall.png,US_Cities_List/boulder.png,,,,,,,,,,,,,,,,,,
null,,black_cross(without_color),2540065,,,blue,,,,,null,US_Cities_List/cornwall.png,US_Cities_List/boulder.png,,,,,,,,,,,,,,,,,,
null,,rt_plussign_withcolor,2540569,,,blue,,,,,null,US_Cities_List/cornwall.png,US_Cities_List/boulder.png,,,,,,,,,,,,,,,,,,
990.3000000007451,,rt_thecrossant_black,2541866,,,black_plus_sign,,,,,49,,,1,1,,,,,,,,,,,,,,,,
null,,color_black,2541970,,,black_plus_sign,,,,,null,,,,,,,,,,,,,,,,,,,,
null,,learn_phase(without_color),2544993,,,black_plus_sign,,,,,null,US_Cities_List/hotsprings.png,US_Cities_List/racine.png,,,,,,,,,,,,,,,,,,
null,,black_cross(without_color),2545813,,,yellow,,,,,null,US_Cities_List/hotsprings.png,US_Cities_List/racine.png,,,,,,,,,,,,,,,,,,
null,,rt_plussign_withcolor,2546317,,,yellow,,,,,null,US_Cities_List/hotsprings.png,US_Cities_List/racine.png,,,,,,,,,,,,,,,,,,
937.6999999992549,,rt_thecrossant_black,2547504,,,black_plus_sign,,,,,50,,,1,1,,,,,,,,,,,,,,,,
null,,color_black,2547608,,,black_plus_sign,,,,,null,,,,,,,,,,,,,,,,,,,,
null,,learn_phase(without_color),2550629,,,black_plus_sign,,,,,null,US_Cities_List/shreveport.png,US_Cities_List/gatlinburg.png,,,,,,,,,,,,,,,,,,
null,,black_cross(without_color),2551122,,,blue,,,,,null,US_Cities_List/shreveport.png,US_Cities_List/gatlinburg.png,,,,,,,,,,,,,,,,,,
null,,rt_plussign_withcolor,2551625,,,blue,,,,,null,US_Cities_List/shreveport.png,US_Cities_List/gatlinburg.png,,,,,,,,,,,,,,,,,,
1793.7999999970198,,rt_thecrossant_black,2553141,,,black_plus_sign,,,,,49,,,1,1,,,,,,,,,,,,,,,,
null,,color_black,2553245,,,black_plus_sign,,,,,null,,,,,,,,,,,,,,,,,,,,
null,,learn_phase(without_color),2556273,,,black_plus_sign,,,,,null,US_Cities_List/boulder.png,US_Cities_List/cornwall.png,,,,,,,,,,,,,,,,,,
null,,black_cross(without_color),2557017,,,yellow,,,,,null,US_Cities_List/boulder.png,US_Cities_List/cornwall.png,,,,,,,,,,,,,,,,,,
494.8999999985099,,rt_plussign_withcolor,2557521,,,yellow,,,,,50,US_Cities_List/boulder.png,US_Cities_List/cornwall.png,,,,,,,,,,,,,,,,,,
null,,rt_thecrossant_black,2558785,,,black_plus_sign,,,,,null,,,1,1,,,,,,,,,,,,,,,,
null,,color_black,2558889,,,black_plus_sign,,,,,null,,,,,,,,,,,,,,,,,,,,
null,,learn_phase(without_color),2561911,,,black_plus_sign,,,,,null,US_Cities_List/carmel.png,US_Cities_List/leesburg.png,,,,,,,,,,,,,,,,,,
null,,black_cross(without_color),2562834,,,yellow,,,,,null,US_Cities_List/carmel.png,US_Cities_List/leesburg.png,,,,,,,,,,,,,,,,,,
null,,rt_plussign_withcolor,2563338,,,yellow,,,,,null,US_Cities_List/carmel.png,US_Cities_List/leesburg.png,,,,,,,,,,,,,,,,,,
868.1999999992549,,rt_thecrossant_black,2564423,,,black_plus_sign,,,,,50,,,1,1,,,,,,,,,,,,,,,,
null,,color_black,2564527,,,black_plus_sign,,,,,null,,,,,,,,,,,,,,,,,,,,
null,,learn_phase(without_color),2567542,,,black_plus_sign,,,,,null,US_Cities_List/gatlinburg.png,US_Cities_List/huntsville.png,,,,,,,,,,,,,,,,,,
null,,black_cross(without_color),2568548,,,blue,,,,,null,US_Cities_List/gatlinburg.png,US_Cities_List/huntsville.png,,,,,,,,,,,,,,,,,,
null,,rt_plussign_withcolor,2569052,,,blue,,,,,null,US_Cities_List/gatlinburg.png,US_Cities_List/huntsville.png,,,,,,,,,,,,,,,,,,
1198.8999999985099,,rt_thecrossant_black,2570054,,,black_plus_sign,,,,,49,,,1,1,,,,,,,,,,,,,,,,
null,,color_black,2570158,,,black_plus_sign,,,,,null,,,,,,,,,,,,,,,,,,,,
null,,learn_phase(without_color),2573178,,,black_plus_sign,,,,,null,US_Cities_List/westpalmbeach.png,US_Cities_List/newhope.png,,,,,,,,,,,,,,,,,,
null,,black_cross(without_color),2574074,,,blue,,,,,null,US_Cities_List/westpalmbeach.png,US_Cities_List/newhope.png,,,,,,,,,,,,,,,,,,
null,,rt_plussign_withcolor,2574577,,,blue,,,,,null,US_Cities_List/westpalmbeach.png,US_Cities_List/newhope.png,,,,,,,,,,,,,,,,,,
1292.1000000014901,,rt_thecrossant_black,2575689,,,black_plus_sign,,,,,49,,,1,1,,,,,,,,,,,,,,,,
null,,color_black,2575792,,,black_plus_sign,,,,,null,,,,,,,,,,,,,,,,,,,,
null,,learn_phase(without_color),2578817,,,black_plus_sign,,,,,null,US_Cities_List/newhope.png,US_Cities_List/westpalmbeach.png,,,,,,,,,,,,,,,,,,
null,,black_cross(without_color),2579322,,,yellow,,,,,null,US_Cities_List/newhope.png,US_Cities_List/westpalmbeach.png,,,,,,,,,,,,,,,,,,
null,,rt_plussign_withcolor,2579825,,,yellow,,,,,null,US_Cities_List/newhope.png,US_Cities_List/westpalmbeach.png,,,,,,,,,,,,,,,,,,
1020.3000000007451,,rt_thecrossant_black,2581329,,,black_plus_sign,,,,,50,,,1,1,,,,,,,,,,,,,,,,
null,,color_black,2581433,,,black_plus_sign,,,,,null,,,,,,,,,,,,,,,,,,,,
null,,learn_phase(without_color),2584458,,,black_plus_sign,,,,,null,US_Cities_List/leesburg.png,US_Cities_List/carmel.png,,,,,,,,,,,,,,,,,,
null,,black_cross(without_color),2585042,,,yellow,,,,,null,US_Cities_List/leesburg.png,US_Cities_List/carmel.png,,,,,,,,,,,,,,,,,,
null,,rt_plussign_withcolor,2585546,,,yellow,,,,,null,US_Cities_List/leesburg.png,US_Cities_List/carmel.png,,,,,,,,,,,,,,,,,,
941.8000000007451,,rt_thecrossant_black,2586971,,,black_plus_sign,,,,,50,,,1,1,,,,,,,,,,,,,,,,
null,,color_black,2587075,,,black_plus_sign,,,,,null,,,,,,,,,,,,,,,,,,,,
null,,learn_phase(without_color),2590090,,,black_plus_sign,,,,,null,US_Cities_List/huntsville.png,US_Cities_List/shreveport.png,,,,,,,,,,,,,,,,,,
null,,black_cross(without_color),2590881,,,blue,,,,,null,US_Cities_List/huntsville.png,US_Cities_List/shreveport.png,,,,,,,,,,,,,,,,,,
null,,rt_plussign_withcolor,2591384,,,blue,,,,,null,US_Cities_List/huntsville.png,US_Cities_List/shreveport.png,,,,,,,,,,,,,,,,,,
1007.6999999992549,,rt_thecrossant_black,2592601,,,black_plus_sign,,,,,49,,,1,1,,,,,,,,,,,,,,,,
null,,color_black,2592705,,,black_plus_sign,,,,,null,,,,,,,,,,,,,,,,,,,,
null,,learn_phase(without_color),2595726,,,black_plus_sign,,,,,null,US_Cities_List/gatlinburg.png,US_Cities_List/huntsville.png,,,,,,,,,,,,,,,,,,
null,,black_cross(without_color),2596816,,,blue,,,,,null,US_Cities_List/gatlinburg.png,US_Cities_List/huntsville.png,,,,,,,,,,,,,,,,,,
null,,rt_plussign_withcolor,2597319,,,blue,,,,,null,US_Cities_List/gatlinburg.png,US_Cities_List/huntsville.png,,,,,,,,,,,,,,,,,,
1126.6000000014901,,rt_thecrossant_black,2598237,,,black_plus_sign,,,,,49,,,1,1,,,,,,,,,,,,,,,,
null,,color_black,2598341,,,black_plus_sign,,,,,null,,,,,,,,,,,,,,,,,,,,
null,,learn_phase(without_color),2601360,,,black_plus_sign,,,,,null,US_Cities_List/hotsprings.png,US_Cities_List/racine.png,,,,,,,,,,,,,,,,,,
null,,black_cross(without_color),2601766,,,blue,,,,,null,US_Cities_List/hotsprings.png,US_Cities_List/racine.png,,,,,,,,,,,,,,,,,,
490.5,,rt_plussign_withcolor,2602269,,,blue,,,,,49,US_Cities_List/hotsprings.png,US_Cities_List/racine.png,,,,,,,,,,,,,,,,,,
null,,rt_thecrossant_black,2603871,,,black_plus_sign,,,,,null,,,1,1,,,,,,,,,,,,,,,,
null,,color_black,2603975,,,black_plus_sign,,,,,null,,,,,,,,,,,,,,,,,,,,
null,,learn_phase(without_color),2606996,,,black_plus_sign,,,,,null,US_Cities_List/gatlinburg.png,US_Cities_List/huntsville.png,,,,,,,,,,,,,,,,,,
null,,black_cross(without_color),2607674,,,blue,,,,,null,US_Cities_List/gatlinburg.png,US_Cities_List/huntsville.png,,,,,,,,,,,,,,,,,,
null,,rt_plussign_withcolor,2608178,,,blue,,,,,null,US_Cities_List/gatlinburg.png,US_Cities_List/huntsville.png,,,,,,,,,,,,,,,,,,
1131.1000000014901,,rt_thecrossant_black,2609507,,,black_plus_sign,,,,,49,,,1,1,,,,,,,,,,,,,,,,
null,,color_black,2609611,,,black_plus_sign,,,,,null,,,,,,,,,,,,,,,,,,,,
null,,learn_phase(without_color),2612632,,,black_plus_sign,,,,,null,US_Cities_List/huntsville.png,US_Cities_List/racine.png,,,,,,,,,,,,,,,,,,
null,,black_cross(without_color),2613529,,,yellow,,,,,null,US_Cities_List/huntsville.png,US_Cities_List/racine.png,,,,,,,,,,,,,,,,,,
null,,rt_plussign_withcolor,2614032,,,yellow,,,,,null,US_Cities_List/huntsville.png,US_Cities_List/racine.png,,,,,,,,,,,,,,,,,,
845.8999999985099,,rt_thecrossant_black,2615143,,,black_plus_sign,,,,,50,,,1,1,,,,,,,,,,,,,,,,
null,,color_black,2615247,,,black_plus_sign,,,,,null,,,,,,,,,,,,,,,,,,,,
null,,learn_phase(without_color),2618273,,,black_plus_sign,,,,,null,US_Cities_List/westpalmbeach.png,US_Cities_List/newhope.png,,,,,,,,,,,,,,,,,,
null,,black_cross(without_color),2618711,,,blue,,,,,null,US_Cities_List/westpalmbeach.png,US_Cities_List/newhope.png,,,,,,,,,,,,,,,,,,
null,,rt_plussign_withcolor,2619214,,,blue,,,,,null,US_Cities_List/westpalmbeach.png,US_Cities_List/newhope.png,,,,,,,,,,,,,,,,,,
1721.800000000745,,rt_thecrossant_black,2620784,,,black_plus_sign,,,,,49,,,1,1,,,,,,,,,,,,,,,,
null,,color_black,2620888,,,black_plus_sign,,,,,null,,,,,,,,,,,,,,,,,,,,
null,,learn_break,2680891,,,learn_break,,,,,null,,,,,,,,,,,,,,,,,,,,
11740.900000002235,,intro_1,2692635,,,instruct,,,0,,,,,,,,,,,,,,,,,,,,,,
49557.89999999851,,intro_2,2742195,,,instruct,,,1,Next,,,,,,,,,,,,,,,,,,,,,
3818,,directmemory_phase,2746041,,,../static/images/US_Cities_List/racine.png,,,,,50,,,1,1,../static/images/US_Cities_List/gatlinburg.png,../static/images/US_Cities_List/leesburg.png,../static/images/US_Cities_List/boulder.png,../static/images/US_Cities_List/leesburg.png,../static/images/US_Cities_List/gatlinburg.png,../static/images/US_Cities_List/boulder.png,1,,,,,,,,,
null,,html-keyboard-response,2747047,,,<p></p>,,,,,null,,,,,,,,,,,,,,,,,,,,
3211.39999999851,,directmemory_phase,2750289,,,../static/images/US_Cities_List/huntsville.png,,,,,50,,,0.5,0,../static/images/US_Cities_List/peoria.png,../static/images/US_Cities_List/cornwall.png,../static/images/US_Cities_List/gatlinburg.png,../static/images/US_Cities_List/gatlinburg.png,../static/images/US_Cities_List/cornwall.png,../static/images/US_Cities_List/peoria.png,0.5,closer,,,,,,,,
null,,html-keyboard-response,2751295,,,<p></p>,,,,,null,,,,,,,,,,,,,,,,,,,,
2534.800000000745,,directmemory_phase,2753857,,,../static/images/US_Cities_List/hotsprings.png,,,,,49,,,0.3333333333333333,0,../static/images/US_Cities_List/westpalmbeach.png,../static/images/US_Cities_List/newhope.png,../static/images/US_Cities_List/boulder.png,../static/images/US_Cities_List/newhope.png,../static/images/US_Cities_List/westpalmbeach.png,../static/images/US_Cities_List/boulder.png,0.5,closer,,,,,,,,
null,,html-keyboard-response,2754863,,,<p></p>,,,,,null,,,,,,,,,,,,,,,,,,,,
2371.800000000745,,directmemory_phase,2757265,,,../static/images/US_Cities_List/shreveport.png,,,,,51,,,0.25,0,../static/images/US_Cities_List/huntsville.png,../static/images/US_Cities_List/newhope.png,../static/images/US_Cities_List/hotsprings.png,../static/images/US_Cities_List/huntsville.png,../static/images/US_Cities_List/hotsprings.png,../static/images/US_Cities_List/newhope.png,0.5,closer,,,,,,,,
null,,html-keyboard-response,2758272,,,<p></p>,,,,,null,,,,,,,,,,,,,,,,,,,,
2018.5,,directmemory_phase,2760329,,,../static/images/US_Cities_List/gatlinburg.png,,,,,51,,,0.4,1,../static/images/US_Cities_List/peoria.png,../static/images/US_Cities_List/newhope.png,../static/images/US_Cities_List/hotsprings.png,../static/images/US_Cities_List/hotsprings.png,../static/images/US_Cities_List/newhope.png,../static/images/US_Cities_List/peoria.png,1,,,,,,,,,
null,,html-keyboard-response,2761335,,,<p></p>,,,,,null,,,,,,,,,,,,,,,,,,,,
2796.60000000149,,directmemory_phase,2764170,,,../static/images/US_Cities_List/racine.png,,,,,51,,,0.5,1,../static/images/US_Cities_List/cornwall.png,../static/images/US_Cities_List/shreveport.png,../static/images/US_Cities_List/huntsville.png,../static/images/US_Cities_List/huntsville.png,../static/images/US_Cities_List/shreveport.png,../static/images/US_Cities_List/cornwall.png,1,,,,,,,,,
null,,html-keyboard-response,2765175,,,<p></p>,,,,,null,,,,,,,,,,,,,,,,,,,,
2489.60000000149,,directmemory_phase,2767705,,,../static/images/US_Cities_List/hotsprings.png,,,,,49,,,0.5714285714285714,1,../static/images/US_Cities_List/gatlinburg.png,../static/images/US_Cities_List/carmel.png,../static/images/US_Cities_List/cornwall.png,../static/images/US_Cities_List/gatlinburg.png,../static/images/US_Cities_List/cornwall.png,../static/images/US_Cities_List/carmel.png,1,,,,,,,,,
null,,html-keyboard-response,2768710,,,<p></p>,,,,,null,,,,,,,,,,,,,,,,,,,,
2882.7999999970198,,directmemory_phase,2771617,,,../static/images/US_Cities_List/huntsville.png,,,,,51,,,0.625,1,../static/images/US_Cities_List/westpalmbeach.png,../static/images/US_Cities_List/leesburg.png,../static/images/US_Cities_List/racine.png,../static/images/US_Cities_List/racine.png,../static/images/US_Cities_List/leesburg.png,../static/images/US_Cities_List/westpalmbeach.png,1,,,,,,,,,
null,,html-keyboard-response,2772623,,,<p></p>,,,,,null,,,,,,,,,,,,,,,,,,,,
2692.900000002235,,directmemory_phase,2775346,,,../static/images/US_Cities_List/gatlinburg.png,,,,,51,,,0.6666666666666666,1,../static/images/US_Cities_List/carmel.png,../static/images/US_Cities_List/boulder.png,../static/images/US_Cities_List/cornwall.png,../static/images/US_Cities_List/cornwall.png,../static/images/US_Cities_List/boulder.png,../static/images/US_Cities_List/carmel.png,1,,,,,,,,,
null,,html-keyboard-response,2776352,,,<p></p>,,,,,null,,,,,,,,,,,,,,,,,,,,
1837,,directmemory_phase,2778216,,,../static/images/US_Cities_List/hanover.png,,,,,51,,,0.7,1,../static/images/US_Cities_List/racine.png,../static/images/US_Cities_List/cornwall.png,../static/images/US_Cities_List/shreveport.png,../static/images/US_Cities_List/shreveport.png,../static/images/US_Cities_List/cornwall.png,../static/images/US_Cities_List/racine.png,1,,,,,,,,,
null,,html-keyboard-response,2779222,,,<p></p>,,,,,null,,,,,,,,,,,,,,,,,,,,
3239.300000000745,,directmemory_phase,2782489,,,../static/images/US_Cities_List/gatlinburg.png,,,,,49,,,0.7272727272727273,1,../static/images/US_Cities_List/huntsville.png,../static/images/US_Cities_List/westpalmbeach.png,../static/images/US_Cities_List/racine.png,../static/images/US_Cities_List/huntsville.png,../static/images/US_Cities_List/racine.png,../static/images/US_Cities_List/westpalmbeach.png,1,,,,,,,,,
null,,html-keyboard-response,2783496,,,<p></p>,,,,,null,,,,,,,,,,,,,,,,,,,,
1698.5999999977648,,directmemory_phase,2785225,,,../static/images/US_Cities_List/leesburg.png,,,,,50,,,0.75,1,../static/images/US_Cities_List/huntsville.png,../static/images/US_Cities_List/carmel.png,../static/images/US_Cities_List/gatlinburg.png,../static/images/US_Cities_List/carmel.png,../static/images/US_Cities_List/huntsville.png,../static/images/US_Cities_List/gatlinburg.png,1,,,,,,,,,
null,,html-keyboard-response,2786230,,,<p></p>,,,,,null,,,,,,,,,,,,,,,,,,,,
1780.300000000745,,directmemory_phase,2788049,,,../static/images/US_Cities_List/newhope.png,,,,,49,,,0.7692307692307693,1,../static/images/US_Cities_List/hotsprings.png,../static/images/US_Cities_List/cornwall.png,../static/images/US_Cities_List/leesburg.png,../static/images/US_Cities_List/hotsprings.png,../static/images/US_Cities_List/leesburg.png,../static/images/US_Cities_List/cornwall.png,1,,,,,,,,,
null,,html-keyboard-response,2789056,,,<p></p>,,,,,null,,,,,,,,,,,,,,,,,,,,
3905.699999999255,,directmemory_phase,2793001,,,../static/images/US_Cities_List/leesburg.png,,,,,51,,,0.7142857142857143,0,../static/images/US_Cities_List/racine.png,../static/images/US_Cities_List/gatlinburg.png,../static/images/US_Cities_List/newhope.png,../static/images/US_Cities_List/racine.png,../static/images/US_Cities_List/newhope.png,../static/images/US_Cities_List/gatlinburg.png,0.5,closer,,,,,,,,
null,,html-keyboard-response,2794006,,,<p></p>,,,,,null,,,,,,,,,,,,,,,,,,,,
2717.60000000149,,directmemory_phase,2796761,,,../static/images/US_Cities_List/newhope.png,,,,,51,,,0.7333333333333333,1,../static/images/US_Cities_List/hanover.png,../static/images/US_Cities_List/gatlinburg.png,../static/images/US_Cities_List/westpalmbeach.png,../static/images/US_Cities_List/westpalmbeach.png,../static/images/US_Cities_List/gatlinburg.png,../static/images/US_Cities_List/hanover.png,1,,,,,,,,,
null,,html-keyboard-response,2797767,,,<p></p>,,,,,null,,,,,,,,,,,,,,,,,,,,
2392.89999999851,,directmemory_phase,2800202,,,../static/images/US_Cities_List/hotsprings.png,,,,,50,,,0.75,1,../static/images/US_Cities_List/cornwall.png,../static/images/US_Cities_List/racine.png,../static/images/US_Cities_List/hanover.png,../static/images/US_Cities_List/racine.png,../static/images/US_Cities_List/cornwall.png,../static/images/US_Cities_List/hanover.png,1,,,,,,,,,
null,,html-keyboard-response,2801207,,,<p></p>,,,,,null,,,,,,,,,,,,,,,,,,,,
2532.400000002235,,directmemory_phase,2803777,,,../static/images/US_Cities_List/westpalmbeach.png,,,,,51,,,0.7647058823529411,1,../static/images/US_Cities_List/gatlinburg.png,../static/images/US_Cities_List/hotsprings.png,../static/images/US_Cities_List/leesburg.png,../static/images/US_Cities_List/leesburg.png,../static/images/US_Cities_List/hotsprings.png,../static/images/US_Cities_List/gatlinburg.png,1,,,,,,,,,
null,,html-keyboard-response,2804783,,,<p></p>,,,,,null,,,,,,,,,,,,,,,,,,,,
3177.300000000745,,directmemory_phase,2807985,,,../static/images/US_Cities_List/boulder.png,,,,,50,,,0.7222222222222222,0,../static/images/US_Cities_List/hanover.png,../static/images/US_Cities_List/shreveport.png,../static/images/US_Cities_List/cornwall.png,../static/images/US_Cities_List/cornwall.png,../static/images/US_Cities_List/shreveport.png,../static/images/US_Cities_List/hanover.png,0.5,closer,,,,,,,,
null,,html-keyboard-response,2808990,,,<p></p>,,,,,null,,,,,,,,,,,,,,,,,,,,
3307.599999997765,,directmemory_phase,2812322,,,../static/images/US_Cities_List/westpalmbeach.png,,,,,51,,,0.6842105263157895,0,../static/images/US_Cities_List/newhope.png,../static/images/US_Cities_List/huntsville.png,../static/images/US_Cities_List/carmel.png,../static/images/US_Cities_List/newhope.png,../static/images/US_Cities_List/carmel.png,../static/images/US_Cities_List/huntsville.png,0.5,closer,,,,,,,,
null,,html-keyboard-response,2813327,,,<p></p>,,,,,null,,,,,,,,,,,,,,,,,,,,
2431,,directmemory_phase,2815785,,,../static/images/US_Cities_List/shreveport.png,,,,,51,,,0.7,1,../static/images/US_Cities_List/westpalmbeach.png,../static/images/US_Cities_List/racine.png,../static/images/US_Cities_List/gatlinburg.png,../static/images/US_Cities_List/gatlinburg.png,../static/images/US_Cities_List/racine.png,../static/images/US_Cities_List/westpalmbeach.png,1,,,,,,,,,
null,,html-keyboard-response,2816790,,,<p></p>,,,,,null,,,,,,,,,,,,,,,,,,,,
2798.300000000745,,directmemory_phase,2819617,,,../static/images/US_Cities_List/peoria.png,,,,,49,,,0.7142857142857143,1,../static/images/US_Cities_List/westpalmbeach.png,../static/images/US_Cities_List/carmel.png,../static/images/US_Cities_List/leesburg.png,../static/images/US_Cities_List/westpalmbeach.png,../static/images/US_Cities_List/leesburg.png,../static/images/US_Cities_List/carmel.png,1,,,,,,,,,
null,,html-keyboard-response,2820623,,,<p></p>,,,,,null,,,,,,,,,,,,,,,,,,,,
2609.800000000745,,directmemory_phase,2823258,,,../static/images/US_Cities_List/huntsville.png,,,,,51,,,0.7272727272727273,1,../static/images/US_Cities_List/newhope.png,../static/images/US_Cities_List/hanover.png,../static/images/US_Cities_List/shreveport.png,../static/images/US_Cities_List/shreveport.png,../static/images/US_Cities_List/hanover.png,../static/images/US_Cities_List/newhope.png,1,,,,,,,,,
null,,html-keyboard-response,2824264,,,<p></p>,,,,,null,,,,,,,,,,,,,,,,,,,,
1863.5,,directmemory_phase,2826161,,,../static/images/US_Cities_List/racine.png,,,,,51,,,0.7391304347826086,1,../static/images/US_Cities_List/hanover.png,../static/images/US_Cities_List/westpalmbeach.png,../static/images/US_Cities_List/hotsprings.png,../static/images/US_Cities_List/hotsprings.png,../static/images/US_Cities_List/westpalmbeach.png,../static/images/US_Cities_List/hanover.png,1,,,,,,,,,
null,,html-keyboard-response,2827166,,,<p></p>,,,,,null,,,,,,,,,,,,,,,,,,,,
2119,,directmemory_phase,2829321,,,../static/images/US_Cities_List/shreveport.png,,,,,49,,,0.75,1,../static/images/US_Cities_List/hanover.png,../static/images/US_Cities_List/leesburg.png,../static/images/US_Cities_List/racine.png,../static/images/US_Cities_List/hanover.png,../static/images/US_Cities_List/racine.png,../static/images/US_Cities_List/leesburg.png,1,,,,,,,,,
null,,html-keyboard-response,2830327,,,<p></p>,,,,,null,,,,,,,,,,,,,,,,,,,,
2627.60000000149,,directmemory_phase,2832985,,,../static/images/US_Cities_List/cornwall.png,,,,,49,,,0.76,1,../static/images/US_Cities_List/boulder.png,../static/images/US_Cities_List/racine.png,../static/images/US_Cities_List/huntsville.png,../static/images/US_Cities_List/boulder.png,../static/images/US_Cities_List/huntsville.png,../static/images/US_Cities_List/racine.png,1,,,,,,,,,
null,,html-keyboard-response,2833992,,,<p></p>,,,,,null,,,,,,,,,,,,,,,,,,,,
2695.60000000149,,directmemory_phase,2836722,,,../static/images/US_Cities_List/gatlinburg.png,,,,,51,,,0.7692307692307693,1,../static/images/US_Cities_List/leesburg.png,../static/images/US_Cities_List/boulder.png,../static/images/US_Cities_List/shreveport.png,../static/images/US_Cities_List/shreveport.png,../static/images/US_Cities_List/boulder.png,../static/images/US_Cities_List/leesburg.png,1,,,,,,,,,
null,,html-keyboard-response,2837725,,,<p></p>,,,,,null,,,,,,,,,,,,,,,,,,,,
2067.7000000029802,,directmemory_phase,2839825,,,../static/images/US_Cities_List/westpalmbeach.png,,,,,51,,,0.7777777777777778,1,../static/images/US_Cities_List/huntsville.png,../static/images/US_Cities_List/carmel.png,../static/images/US_Cities_List/peoria.png,../static/images/US_Cities_List/peoria.png,../static/images/US_Cities_List/carmel.png,../static/images/US_Cities_List/huntsville.png,1,,,,,,,,,
null,,html-keyboard-response,2840831,,,<p></p>,,,,,null,,,,,,,,,,,,,,,,,,,,
2024.1000000014901,,directmemory_phase,2842897,,,../static/images/US_Cities_List/cornwall.png,,,,,49,,,0.7857142857142857,1,../static/images/US_Cities_List/gatlinburg.png,../static/images/US_Cities_List/leesburg.png,../static/images/US_Cities_List/hotsprings.png,../static/images/US_Cities_List/gatlinburg.png,../static/images/US_Cities_List/hotsprings.png,../static/images/US_Cities_List/leesburg.png,1,,,,,,,,,
null,,html-keyboard-response,2843904,,,<p></p>,,,,,null,,,,,,,,,,,,,,,,,,,,
1728.7000000029802,,directmemory_phase,2845673,,,../static/images/US_Cities_List/leesburg.png,,,,,51,,,0.7931034482758621,1,../static/images/US_Cities_List/cornwall.png,../static/images/US_Cities_List/hotsprings.png,../static/images/US_Cities_List/westpalmbeach.png,../static/images/US_Cities_List/westpalmbeach.png,../static/images/US_Cities_List/hotsprings.png,../static/images/US_Cities_List/cornwall.png,1,,,,,,,,,
null,,html-keyboard-response,2846679,,,<p></p>,,,,,null,,,,,,,,,,,,,,,,,,,,
3790.300000000745,,directmemory_phase,2850505,,,../static/images/US_Cities_List/shreveport.png,,,,,49,,,0.7666666666666667,0,../static/images/US_Cities_List/leesburg.png,../static/images/US_Cities_List/racine.png,../static/images/US_Cities_List/cornwall.png,../static/images/US_Cities_List/cornwall.png,../static/images/US_Cities_List/racine.png,../static/images/US_Cities_List/leesburg.png,0.5,closer,,,,,,,,
null,,html-keyboard-response,2851512,,,<p></p>,,,,,null,,,,,,,,,,,,,,,,,,,,
2665.300000000745,,directmemory_phase,2854208,,,../static/images/US_Cities_List/carmel.png,,,,,51,,,0.7419354838709677,0,../static/images/US_Cities_List/leesburg.png,../static/images/US_Cities_List/gatlinburg.png,../static/images/US_Cities_List/westpalmbeach.png,../static/images/US_Cities_List/leesburg.png,../static/images/US_Cities_List/westpalmbeach.png,../static/images/US_Cities_List/gatlinburg.png,0.5,closer,,,,,,,,
null,,html-keyboard-response,2855212,,,<p></p>,,,,,null,,,,,,,,,,,,,,,,,,,,
3246.7999999970198,,directmemory_phase,2858489,,,../static/images/US_Cities_List/cornwall.png,,,,,49,,,0.75,1,../static/images/US_Cities_List/shreveport.png,../static/images/US_Cities_List/racine.png,../static/images/US_Cities_List/hanover.png,../static/images/US_Cities_List/shreveport.png,../static/images/US_Cities_List/hanover.png,../static/images/US_Cities_List/racine.png,1,,,,,,,,,
null,,html-keyboard-response,2859494,,,<p></p>,,,,,null,,,,,,,,,,,,,,,,,,,,
103318.69999999925,,intro_1,2962814,,,instruct,,,0,,,,,,,,,,,,,,,,,,,,,,
45357.699999999255,,intro_2,3008174,,,instruct,,,1,Next,,,,,,,,,,,,,,,,,,,,,
20726.400000002235,,intro_3,3028904,,,instruct,,,1,Next,,,,,,,,,,,,,,,,,,,,,
15476.400000002235,,intro_4,3044404,,,instruct,,,1,Next,,,,,,,,,,,,,,,,,,,,,
21745.400000002235,,intro_5,3066165,,,instruct,,,1,Next,,,,,,,,,,,,,,,,,,,,,
11184.5,,intro_6,3077355,,,instruct,,,1,Next,,,,,,,,,,,,,,,,,,,,,
62520.300000000745,,intro_7,3139879,,,instruct,,,1,Next,,,,,,,,,,,,,,,,,,,,,
93195.5,,intro_8,3233077,,,instruct,,,1,Next,,,,,,,,,,,,,,,,,,,,,
126776.80000000075,,intro_9,3359856,,,instruct,,,1,Next,,,,,,,,,,,,,,,,,,,,,
21537.20000000298,,intro_10,3381396,,,instruct,,,1,Next,,,,,,,,,,,,,,,,,,,,,
27258.300000000745,,intro_11,3408657,,,instruct,,,1,Next,,,,,,,,,,,,,,,,,,,,,
null,,shortestpath_phase,3416178,,,../static/images/US_Cities_List/peoria.png,,,,,null,../static/images/US_Cities_List/leesburg.png,../static/images/US_Cities_List/boulder.png,0,0,,,,../static/images/US_Cities_List/leesburg.png,,,,,Four Edge Diff,Two Edge Six Edge,,,,,,
null,,warning_page,3419184,,,warning,,,,,null,,,,,,,,,,,,,,,,,,,,
null,,html-keyboard-response,3420186,,,<p></p>,,,,,null,,,,,,,,,,,,,,,,,,,,
2850.60000000149,,shortestpath_phase,3423071,,,../static/images/US_Cities_List/carmel.png,,,,,50,../static/images/US_Cities_List/racine.png,../static/images/US_Cities_List/cornwall.png,0,0,,,,../static/images/US_Cities_List/racine.png,,,,,Three Edge Diff,Three Edge Six Edge,,,,,,
null,,html-keyboard-response,3424075,,,<p></p>,,,,,null,,,,,,,,,,,,,,,,,,,,
3817.300000000745,,shortestpath_phase,3427919,,,../static/images/US_Cities_List/peoria.png,,,,,50,../static/images/US_Cities_List/hanover.png,../static/images/US_Cities_List/shreveport.png,0.3333333333333333,1,,,,../static/images/US_Cities_List/shreveport.png,,,,,One Edge Diff,Five Edge Six Edge,,,,,,
null,,html-keyboard-response,3428924,,,<p></p>,,,,,null,,,,,,,,,,,,,,,,,,,,
3057.400000002235,,shortestpath_phase,3432015,,,../static/images/US_Cities_List/cornwall.png,,,,,49,../static/images/US_Cities_List/peoria.png,../static/images/US_Cities_List/newhope.png,0.25,0,,,,../static/images/US_Cities_List/newhope.png,,,,,Two Edge Diff,Three Edge Five Edge,,,,,,
null,,html-keyboard-response,3433021,,,<p></p>,,,,,null,,,,,,,,,,,,,,,,,,,,
2609.5,,shortestpath_phase,3435656,,,../static/images/US_Cities_List/boulder.png,,,,,49,../static/images/US_Cities_List/shreveport.png,../static/images/US_Cities_List/peoria.png,0.4,1,,,,../static/images/US_Cities_List/shreveport.png,,,,,Four Edge Diff,Two Edge Six Edge,,,,,,
null,,html-keyboard-response,3436662,,,<p></p>,,,,,null,,,,,,,,,,,,,,,,,,,,
3185.39999999851,,shortestpath_phase,3439880,,,../static/images/US_Cities_List/peoria.png,,,,,50,../static/images/US_Cities_List/boulder.png,../static/images/US_Cities_List/cornwall.png,0.5,1,,,,../static/images/US_Cities_List/cornwall.png,,,,,One Edge Diff,Five Edge Six Edge,,,,,,
null,,html-keyboard-response,3440885,,,<p></p>,,,,,null,,,,,,,,,,,,,,,,,,,,
3564.599999997765,,shortestpath_phase,3444479,,,../static/images/US_Cities_List/hanover.png,,,,,49,../static/images/US_Cities_List/peoria.png,../static/images/US_Cities_List/newhope.png,0.42857142857142855,0,,,,../static/images/US_Cities_List/newhope.png,,,,,Two Edge Diff,Four Edge Six Edge,,,,,,
null,,html-keyboard-response,3445485,,,<p></p>,,,,,null,,,,,,,,,,,,,,,,,,,,
2990.599999997765,,shortestpath_phase,3448504,,,../static/images/US_Cities_List/westpalmbeach.png,,,,,50,../static/images/US_Cities_List/cornwall.png,../static/images/US_Cities_List/gatlinburg.png,0.5,1,,,,../static/images/US_Cities_List/gatlinburg.png,,,,,One Edge Diff,Three Edge Four Edge,,,,,,
null,,html-keyboard-response,3449510,,,<p></p>,,,,,null,,,,,,,,,,,,,,,,,,,,
3882.199999999255,,shortestpath_phase,3453421,,,../static/images/US_Cities_List/leesburg.png,,,,,49,../static/images/US_Cities_List/newhope.png,../static/images/US_Cities_List/boulder.png,0.5555555555555556,1,,,,../static/images/US_Cities_List/newhope.png,,,,,Three Edge Diff,Two Edge Five Edge,,,,,,
null,,html-keyboard-response,3454425,,,<p></p>,,,,,null,,,,,,,,,,,,,,,,,,,,
3328.60000000149,,shortestpath_phase,3457784,,,../static/images/US_Cities_List/boulder.png,,,,,50,../static/images/US_Cities_List/peoria.png,../static/images/US_Cities_List/racine.png,0.6,1,,,,../static/images/US_Cities_List/racine.png,,,,,Two Edge Diff,Four Edge Six Edge,,,,,,
null,,html-keyboard-response,3458790,,,<p></p>,,,,,null,,,,,,,,,,,,,,,,,,,,
3374.10000000149,,shortestpath_phase,3462184,,,../static/images/US_Cities_List/leesburg.png,,,,,49,../static/images/US_Cities_List/shreveport.png,../static/images/US_Cities_List/hanover.png,0.6363636363636364,1,,,,../static/images/US_Cities_List/shreveport.png,,,,,One Edge Diff,Three Edge Four Edge,,,,,,
null,,html-keyboard-response,3463190,,,<p></p>,,,,,null,,,,,,,,,,,,,,,,,,,,
