rt,responses,trial_type,time_elapsed,image_type,sequence,stimulus,cities,city_images,button_pressed,response,key_press,stimulus_left,stimulus_right,accuracy,cumulative_accuracy,stimulus_down_left,stimulus_down_mid,stimulus_down_right,stimulus_correct,stimulus_short,stimulus_far,weighted_accuracy,missedtrial,condition,specific_pairs,imgL_ID,imgR_ID,linedress,linedressed,detour_trial,linedressed_detor
11999.199999999255,{worker_id:5a8b61fcf1408d000176b02f},id_enter,12004,fictional,interleaved,flights,Juniper Creek; New Verdan; Cedarwyn; Orchard Bend; Riverlyn; Claywater; North Arroya; Granton Ridge; Delaro Park; Sunmere; Baymarsh; Hollendale; Hawthorne Bluffs,US_Cities_List/gatlinburg.png; US_Cities_List/racine.png; US_Cities_List/huntsville.png; US_Cities_List/peoria.png; US_Cities_List/westpalmbeach.png; US_Cities_List/boulder.png; US_Cities_List/newhope.png; US_Cities_List/hanover.png; US_Cities_List/cornwall.png; US_Cities_List/hotsprings.png; US_Cities_List/leesburg.png; US_Cities_List/carmel.png; US_Cities_List/shreveport.png,,,,,,,,,,,,,,,,,,,,,,,
18163.60000000149,,fullscreen,30177,,,make_fullscreen,,,0,,,,,,,,,,,,,,,,,,,,,,
10852.39999999851,,intro_1,41037,,,instruct,,,0,,,,,,,,,,,,,,,,,,,,,,
15850.10000000149,,intro_2,56893,,,instruct,,,1,Next,,,,,,,,,,,,,,,,,,,,,
29266.29999999702,,intro_3,86166,,,instruct,,,1,Next,,,,,,,,,,,,,,,,,,,,,
55693.199999999255,,intro_4,141864,,,instruct,,,1,Next,,,,,,,,,,,,,,,,,,,,,
39702.60000000149,,intro_5,181571,,,instruct,,,1,Next,,,,,,,,,,,,,,,,,,,,,
45593.79999999702,,intro_6,227172,,,instruct,,,1,Next,,,,,,,,,,,,,,,,,,,,,
12293,,intro_7,239470,,,instruct,,,1,Next,,,,,,,,,,,,,,,,,,,,,
null,,learn_prac_1,242475,,,lean_prac_1,,,,,null,,,,,,,,,,,,,,,,,,,,
null,,html-keyboard-response,243477,,,<p></p>,,,,,null,,,,,,,,,,,,,,,,,,,,
44267.39999999851,,intro_1,287747,,,instruct,,,0,,,,,,,,,,,,,,,,,,,,,,
10186,,intro_2,297938,,,instruct,,,1,Next,,,,,,,,,,,,,,,,,,,,,
null,,learn_prac_2,300942,,,lean_prac_2,,,,,null,,,,,,,,,,,,,,,,,,,,
null,,html-keyboard-response,301946,,,<p></p>,,,,,null,,,,,,,,,,,,,,,,,,,,
7192.699999999255,,intro_1,309141,,,instruct,,,0,,,,,,,,,,,,,,,,,,,,,,
5764.10000000149,,intro_2,314909,,,instruct,,,1,Next,,,,,,,,,,,,,,,,,,,,,
26889.5,,intro_3,341803,,,instruct,,,1,Next,,,,,,,,,,,,,,,,,,,,,
null,,prac_atten_color_black,342156,,,black_plus_sign,,,,,null,,,,,,,,,,,,,,,,,,,,
545.6000000014901,,prac_atten_color,343213,,,prac_stop_color,,,,,49,,,,,,,,,,,,,,,,,,,,
null,,prac_atten_color_black,345215,,,black_plus_sign,,,,,null,,,,,,,,,,,,,,,,,,,,
null,,prac_atten_color_black,345568,,,black_plus_sign,,,,,null,,,,,,,,,,,,,,,,,,,,
null,,prac_atten_color,346001,,,prac_stop_color,,,,,null,,,,,,,,,,,,,,,,,,,,
198.29999999701977,,prac_atten_color_black,348004,,,black_plus_sign,,,,,50,,,,,,,,,,,,,,,,,,,,
null,,prac_atten_color_black,348977,,,black_plus_sign,,,,,null,,,,,,,,,,,,,,,,,,,,
null,,prac_atten_color,349462,,,prac_stop_color,,,,,null,,,,,,,,,,,,,,,,,,,,
139.10000000149012,,prac_atten_color_black,351464,,,black_plus_sign,,,,,50,,,,,,,,,,,,,,,,,,,,
null,,prac_atten_color_black,352385,,,black_plus_sign,,,,,null,,,,,,,,,,,,,,,,,,,,
437.80000000074506,,prac_atten_color,353153,,,prac_stop_color,,,,,49,,,,,,,,,,,,,,,,,,,,
null,,prac_atten_color_black,355156,,,black_plus_sign,,,,,null,,,,,,,,,,,,,,,,,,,,
null,,prac_atten_color_black,355796,,,black_plus_sign,,,,,null,,,,,,,,,,,,,,,,,,,,
330.80000000074506,,prac_atten_color,356536,,,prac_stop_color,,,,,50,,,,,,,,,,,,,,,,,,,,
null,,prac_atten_color_black,358539,,,black_plus_sign,,,,,null,,,,,,,,,,,,,,,,,,,,
null,,prac_atten_color_black,359206,,,black_plus_sign,,,,,null,,,,,,,,,,,,,,,,,,,,
515.9000000022352,,prac_atten_color,360154,,,prac_stop_color,,,,,50,,,,,,,,,,,,,,,,,,,,
null,,prac_atten_color_black,362156,,,black_plus_sign,,,,,null,,,,,,,,,,,,,,,,,,,,
null,,prac_atten_color_black,362615,,,black_plus_sign,,,,,null,,,,,,,,,,,,,,,,,,,,
null,,prac_atten_color,363086,,,prac_stop_color,,,,,null,,,,,,,,,,,,,,,,,,,,
151,,prac_atten_color_black,365088,,,black_plus_sign,,,,,49,,,,,,,,,,,,,,,,,,,,
null,,prac_atten_color_black,366024,,,black_plus_sign,,,,,null,,,,,,,,,,,,,,,,,,,,
373.19999999925494,,prac_atten_color,366858,,,prac_stop_color,,,,,50,,,,,,,,,,,,,,,,,,,,
null,,prac_atten_color_black,368861,,,black_plus_sign,,,,,null,,,,,,,,,,,,,,,,,,,,
null,,prac_atten_color_black,369434,,,black_plus_sign,,,,,null,,,,,,,,,,,,,,,,,,,,
569.8000000007451,,prac_atten_color,370191,,,prac_stop_color,,,,,49,,,,,,,,,,,,,,,,,,,,
null,,prac_atten_color_black,372194,,,black_plus_sign,,,,,null,,,,,,,,,,,,,,,,,,,,
null,,prac_atten_color_black,372843,,,black_plus_sign,,,,,null,,,,,,,,,,,,,,,,,,,,
null,,prac_atten_color,373732,,,prac_stop_color,,,,,null,,,,,,,,,,,,,,,,,,,,
111.90000000223517,,prac_atten_color_black,375735,,,black_plus_sign,,,,,49,,,,,,,,,,,,,,,,,,,,
35265,,attentioncheck_feedback,411004,,,cross_check_feedback,,,0,,,,,,,,,,,,,,,,,,,,,,
16410.800000000745,,last_instruct,427418,,,instruct,,,,,32,,,,,,,,,,,,,,,,,,,,
null,,learn_phase(without_color),430446,,,black_plus_sign,,,,,null,US_Cities_List/leesburg.png,US_Cities_List/huntsville.png,,,,,,,,,,,,,,,,,,
null,,black_cross(without_color),431502,,,yellow,,,,,null,US_Cities_List/leesburg.png,US_Cities_List/huntsville.png,,,,,,,,,,,,,,,,,,
null,,rt_plussign_withcolor,432005,,,yellow,,,,,null,US_Cities_List/leesburg.png,US_Cities_List/huntsville.png,,,,,,,,,,,,,,,,,,
2058.89999999851,,rt_thecrossant_black,432957,,,black_plus_sign,,,,,50,,,1,1,,,,,,,,,,,,,,,,
null,,color_black,433061,,,black_plus_sign,,,,,null,,,,,,,,,,,,,,,,,,,,
null,,learn_phase(without_color),436103,,,black_plus_sign,,,,,null,US_Cities_List/peoria.png,US_Cities_List/westpalmbeach.png,,,,,,,,,,,,,,,,,,
null,,black_cross(without_color),436874,,,blue,,,,,null,US_Cities_List/peoria.png,US_Cities_List/westpalmbeach.png,,,,,,,,,,,,,,,,,,
null,,rt_plussign_withcolor,437377,,,blue,,,,,null,US_Cities_List/peoria.png,US_Cities_List/westpalmbeach.png,,,,,,,,,,,,,,,,,,
784.9000000022352,,rt_thecrossant_black,438613,,,black_plus_sign,,,,,49,,,1,1,,,,,,,,,,,,,,,,
null,,color_black,438716,,,black_plus_sign,,,,,null,,,,,,,,,,,,,,,,,,,,
null,,learn_phase(without_color),441744,,,black_plus_sign,,,,,null,US_Cities_List/boulder.png,US_Cities_List/huntsville.png,,,,,,,,,,,,,,,,,,
null,,black_cross(without_color),442527,,,blue,,,,,null,US_Cities_List/boulder.png,US_Cities_List/huntsville.png,,,,,,,,,,,,,,,,,,
null,,rt_plussign_withcolor,443029,,,blue,,,,,null,US_Cities_List/boulder.png,US_Cities_List/huntsville.png,,,,,,,,,,,,,,,,,,
1769.0999999977648,,rt_thecrossant_black,444252,,,black_plus_sign,,,,,49,,,1,1,,,,,,,,,,,,,,,,
null,,color_black,444356,,,black_plus_sign,,,,,null,,,,,,,,,,,,,,,,,,,,
null,,learn_phase(without_color),447411,,,black_plus_sign,,,,,null,US_Cities_List/leesburg.png,US_Cities_List/cornwall.png,,,,,,,,,,,,,,,,,,
null,,black_cross(without_color),448218,,,blue,,,,,null,US_Cities_List/leesburg.png,US_Cities_List/cornwall.png,,,,,,,,,,,,,,,,,,
null,,rt_plussign_withcolor,448720,,,blue,,,,,null,US_Cities_List/leesburg.png,US_Cities_List/cornwall.png,,,,,,,,,,,,,,,,,,
1529.2000000029802,,rt_thecrossant_black,449921,,,black_plus_sign,,,,,49,,,1,1,,,,,,,,,,,,,,,,
null,,color_black,450024,,,black_plus_sign,,,,,null,,,,,,,,,,,,,,,,,,,,
null,,learn_phase(without_color),453087,,,black_plus_sign,,,,,null,US_Cities_List/cornwall.png,US_Cities_List/leesburg.png,,,,,,,,,,,,,,,,,,
null,,black_cross(without_color),454006,,,yellow,,,,,null,US_Cities_List/cornwall.png,US_Cities_List/leesburg.png,,,,,,,,,,,,,,,,,,
null,,rt_plussign_withcolor,454508,,,yellow,,,,,null,US_Cities_List/cornwall.png,US_Cities_List/leesburg.png,,,,,,,,,,,,,,,,,,
1253.199999999255,,rt_thecrossant_black,455596,,,black_plus_sign,,,,,50,,,1,1,,,,,,,,,,,,,,,,
null,,color_black,455699,,,black_plus_sign,,,,,null,,,,,,,,,,,,,,,,,,,,
null,,learn_phase(without_color),458747,,,black_plus_sign,,,,,null,US_Cities_List/cornwall.png,US_Cities_List/hanover.png,,,,,,,,,,,,,,,,,,
null,,black_cross(without_color),459753,,,blue,,,,,null,US_Cities_List/cornwall.png,US_Cities_List/hanover.png,,,,,,,,,,,,,,,,,,
null,,rt_plussign_withcolor,460256,,,blue,,,,,null,US_Cities_List/cornwall.png,US_Cities_List/hanover.png,,,,,,,,,,,,,,,,,,
1265.199999999255,,rt_thecrossant_black,461256,,,black_plus_sign,,,,,49,,,1,1,,,,,,,,,,,,,,,,
null,,color_black,461360,,,black_plus_sign,,,,,null,,,,,,,,,,,,,,,,,,,,
null,,learn_phase(without_color),464405,,,black_plus_sign,,,,,null,US_Cities_List/leesburg.png,US_Cities_List/carmel.png,,,,,,,,,,,,,,,,,,
null,,black_cross(without_color),464852,,,yellow,,,,,null,US_Cities_List/leesburg.png,US_Cities_List/carmel.png,,,,,,,,,,,,,,,,,,
null,,rt_plussign_withcolor,465354,,,yellow,,,,,null,US_Cities_List/leesburg.png,US_Cities_List/carmel.png,,,,,,,,,,,,,,,,,,
2407.5,,rt_thecrossant_black,466914,,,black_plus_sign,,,,,50,,,1,1,,,,,,,,,,,,,,,,
null,,color_black,467017,,,black_plus_sign,,,,,null,,,,,,,,,,,,,,,,,,,,
null,,learn_phase(without_color),470031,,,black_plus_sign,,,,,null,US_Cities_List/huntsville.png,US_Cities_List/racine.png,,,,,,,,,,,,,,,,,,
null,,black_cross(without_color),470739,,,yellow,,,,,null,US_Cities_List/huntsville.png,US_Cities_List/racine.png,,,,,,,,,,,,,,,,,,
null,,rt_plussign_withcolor,471241,,,yellow,,,,,null,US_Cities_List/huntsville.png,US_Cities_List/racine.png,,,,,,,,,,,,,,,,,,
952.8999999985099,,rt_thecrossant_black,472538,,,black_plus_sign,,,,,50,,,1,1,,,,,,,,,,,,,,,,
null,,color_black,472642,,,black_plus_sign,,,,,null,,,,,,,,,,,,,,,,,,,,
null,,learn_phase(without_color),475689,,,black_plus_sign,,,,,null,US_Cities_List/cornwall.png,US_Cities_List/leesburg.png,,,,,,,,,,,,,,,,,,
null,,black_cross(without_color),476164,,,blue,,,,,null,US_Cities_List/cornwall.png,US_Cities_List/leesburg.png,,,,,,,,,,,,,,,,,,
null,,rt_plussign_withcolor,476666,,,blue,,,,,null,US_Cities_List/cornwall.png,US_Cities_List/leesburg.png,,,,,,,,,,,,,,,,,,
950.4000000022352,,rt_thecrossant_black,478197,,,black_plus_sign,,,,,49,,,1,1,,,,,,,,,,,,,,,,
null,,color_black,478301,,,black_plus_sign,,,,,null,,,,,,,,,,,,,,,,,,,,
null,,learn_phase(without_color),481349,,,black_plus_sign,,,,,null,US_Cities_List/peoria.png,US_Cities_List/racine.png,,,,,,,,,,,,,,,,,,
null,,black_cross(without_color),481926,,,blue,,,,,null,US_Cities_List/peoria.png,US_Cities_List/racine.png,,,,,,,,,,,,,,,,,,
null,,rt_plussign_withcolor,482428,,,blue,,,,,null,US_Cities_List/peoria.png,US_Cities_List/racine.png,,,,,,,,,,,,,,,,,,
997.8999999985099,,rt_thecrossant_black,483857,,,black_plus_sign,,,,,49,,,1,1,,,,,,,,,,,,,,,,
null,,color_black,483959,,,black_plus_sign,,,,,null,,,,,,,,,,,,,,,,,,,,
null,,learn_phase(without_color),486976,,,black_plus_sign,,,,,null,US_Cities_List/carmel.png,US_Cities_List/peoria.png,,,,,,,,,,,,,,,,,,
null,,black_cross(without_color),487709,,,blue,,,,,null,US_Cities_List/carmel.png,US_Cities_List/peoria.png,,,,,,,,,,,,,,,,,,
null,,rt_plussign_withcolor,488211,,,blue,,,,,null,US_Cities_List/carmel.png,US_Cities_List/peoria.png,,,,,,,,,,,,,,,,,,
817.9000000022352,,rt_thecrossant_black,489485,,,black_plus_sign,,,,,49,,,1,1,,,,,,,,,,,,,,,,
null,,color_black,489588,,,black_plus_sign,,,,,null,,,,,,,,,,,,,,,,,,,,
null,,learn_phase(without_color),492645,,,black_plus_sign,,,,,null,US_Cities_List/cornwall.png,US_Cities_List/boulder.png,,,,,,,,,,,,,,,,,,
null,,black_cross(without_color),493079,,,yellow,,,,,null,US_Cities_List/cornwall.png,US_Cities_List/boulder.png,,,,,,,,,,,,,,,,,,
null,,rt_plussign_withcolor,493581,,,yellow,,,,,null,US_Cities_List/cornwall.png,US_Cities_List/boulder.png,,,,,,,,,,,,,,,,,,
1547.1000000014901,,rt_thecrossant_black,495154,,,black_plus_sign,,,,,50,,,1,1,,,,,,,,,,,,,,,,
null,,color_black,495257,,,black_plus_sign,,,,,null,,,,,,,,,,,,,,,,,,,,
null,,learn_phase(without_color),498304,,,black_plus_sign,,,,,null,US_Cities_List/racine.png,US_Cities_List/gatlinburg.png,,,,,,,,,,,,,,,,,,
null,,black_cross(without_color),498877,,,yellow,,,,,null,US_Cities_List/racine.png,US_Cities_List/gatlinburg.png,,,,,,,,,,,,,,,,,,
null,,rt_plussign_withcolor,499378,,,yellow,,,,,null,US_Cities_List/racine.png,US_Cities_List/gatlinburg.png,,,,,,,,,,,,,,,,,,
1186.7000000029802,,rt_thecrossant_black,500811,,,black_plus_sign,,,,,50,,,1,1,,,,,,,,,,,,,,,,
null,,color_black,500915,,,black_plus_sign,,,,,null,,,,,,,,,,,,,,,,,,,,
null,,learn_phase(without_color),503950,,,black_plus_sign,,,,,null,US_Cities_List/hanover.png,US_Cities_List/hotsprings.png,,,,,,,,,,,,,,,,,,
null,,black_cross(without_color),504784,,,yellow,,,,,null,US_Cities_List/hanover.png,US_Cities_List/hotsprings.png,,,,,,,,,,,,,,,,,,
null,,rt_plussign_withcolor,505286,,,yellow,,,,,null,US_Cities_List/hanover.png,US_Cities_List/hotsprings.png,,,,,,,,,,,,,,,,,,
1200.699999999255,,rt_thecrossant_black,506458,,,black_plus_sign,,,,,50,,,1,1,,,,,,,,,,,,,,,,
null,,color_black,506561,,,black_plus_sign,,,,,null,,,,,,,,,,,,,,,,,,,,
null,,learn_phase(without_color),509602,,,black_plus_sign,,,,,null,US_Cities_List/boulder.png,US_Cities_List/newhope.png,,,,,,,,,,,,,,,,,,
null,,black_cross(without_color),510489,,,blue,,,,,null,US_Cities_List/boulder.png,US_Cities_List/newhope.png,,,,,,,,,,,,,,,,,,
null,,rt_plussign_withcolor,510992,,,blue,,,,,null,US_Cities_List/boulder.png,US_Cities_List/newhope.png,,,,,,,,,,,,,,,,,,
1145.2000000029802,,rt_thecrossant_black,512111,,,black_plus_sign,,,,,49,,,1,1,,,,,,,,,,,,,,,,
null,,color_black,512215,,,black_plus_sign,,,,,null,,,,,,,,,,,,,,,,,,,,
null,,learn_phase(without_color),515233,,,black_plus_sign,,,,,null,US_Cities_List/leesburg.png,US_Cities_List/carmel.png,,,,,,,,,,,,,,,,,,
null,,black_cross(without_color),516212,,,yellow,,,,,null,US_Cities_List/leesburg.png,US_Cities_List/carmel.png,,,,,,,,,,,,,,,,,,
null,,rt_plussign_withcolor,516714,,,yellow,,,,,null,US_Cities_List/leesburg.png,US_Cities_List/carmel.png,,,,,,,,,,,,,,,,,,
1775.699999999255,,rt_thecrossant_black,517742,,,black_plus_sign,,,,,50,,,1,1,,,,,,,,,,,,,,,,
null,,color_black,517845,,,black_plus_sign,,,,,null,,,,,,,,,,,,,,,,,,,,
null,,learn_phase(without_color),520859,,,black_plus_sign,,,,,null,US_Cities_List/carmel.png,US_Cities_List/peoria.png,,,,,,,,,,,,,,,,,,
null,,black_cross(without_color),521293,,,yellow,,,,,null,US_Cities_List/carmel.png,US_Cities_List/peoria.png,,,,,,,,,,,,,,,,,,
null,,rt_plussign_withcolor,521796,,,yellow,,,,,null,US_Cities_List/carmel.png,US_Cities_List/peoria.png,,,,,,,,,,,,,,,,,,
1777.8999999985099,,rt_thecrossant_black,523370,,,black_plus_sign,,,,,50,,,1,1,,,,,,,,,,,,,,,,
null,,color_black,523473,,,black_plus_sign,,,,,null,,,,,,,,,,,,,,,,,,,,
null,,learn_phase(without_color),526513,,,black_plus_sign,,,,,null,US_Cities_List/peoria.png,US_Cities_List/westpalmbeach.png,,,,,,,,,,,,,,,,,,
null,,black_cross(without_color),527075,,,yellow,,,,,null,US_Cities_List/peoria.png,US_Cities_List/westpalmbeach.png,,,,,,,,,,,,,,,,,,
null,,rt_plussign_withcolor,527578,,,yellow,,,,,null,US_Cities_List/peoria.png,US_Cities_List/westpalmbeach.png,,,,,,,,,,,,,,,,,,
872.6999999992549,,rt_thecrossant_black,529023,,,black_plus_sign,,,,,50,,,1,1,,,,,,,,,,,,,,,,
null,,color_black,529127,,,black_plus_sign,,,,,null,,,,,,,,,,,,,,,,,,,,
null,,learn_phase(without_color),532166,,,black_plus_sign,,,,,null,US_Cities_List/newhope.png,US_Cities_List/shreveport.png,,,,,,,,,,,,,,,,,,
null,,black_cross(without_color),532900,,,yellow,,,,,null,US_Cities_List/newhope.png,US_Cities_List/shreveport.png,,,,,,,,,,,,,,,,,,
null,,rt_plussign_withcolor,533402,,,yellow,,,,,null,US_Cities_List/newhope.png,US_Cities_List/shreveport.png,,,,,,,,,,,,,,,,,,
1312.800000000745,,rt_thecrossant_black,534676,,,black_plus_sign,,,,,50,,,1,1,,,,,,,,,,,,,,,,
null,,color_black,534779,,,black_plus_sign,,,,,null,,,,,,,,,,,,,,,,,,,,
null,,learn_phase(without_color),537823,,,black_plus_sign,,,,,null,US_Cities_List/boulder.png,US_Cities_List/newhope.png,,,,,,,,,,,,,,,,,,
null,,black_cross(without_color),538640,,,blue,,,,,null,US_Cities_List/boulder.png,US_Cities_List/newhope.png,,,,,,,,,,,,,,,,,,
null,,rt_plussign_withcolor,539142,,,blue,,,,,null,US_Cities_List/boulder.png,US_Cities_List/newhope.png,,,,,,,,,,,,,,,,,,
900.4000000022352,,rt_thecrossant_black,540332,,,black_plus_sign,,,,,49,,,1,1,,,,,,,,,,,,,,,,
null,,color_black,540435,,,black_plus_sign,,,,,null,,,,,,,,,,,,,,,,,,,,
null,,learn_phase(without_color),543482,,,black_plus_sign,,,,,null,US_Cities_List/westpalmbeach.png,US_Cities_List/peoria.png,,,,,,,,,,,,,,,,,,
null,,black_cross(without_color),544235,,,blue,,,,,null,US_Cities_List/westpalmbeach.png,US_Cities_List/peoria.png,,,,,,,,,,,,,,,,,,
null,,rt_plussign_withcolor,544738,,,blue,,,,,null,US_Cities_List/westpalmbeach.png,US_Cities_List/peoria.png,,,,,,,,,,,,,,,,,,
1371.800000000745,,rt_thecrossant_black,545991,,,black_plus_sign,,,,,49,,,1,1,,,,,,,,,,,,,,,,
null,,color_black,546094,,,black_plus_sign,,,,,null,,,,,,,,,,,,,,,,,,,,
null,,learn_phase(without_color),549143,,,black_plus_sign,,,,,null,US_Cities_List/peoria.png,US_Cities_List/westpalmbeach.png,,,,,,,,,,,,,,,,,,
null,,black_cross(without_color),549859,,,blue,,,,,null,US_Cities_List/peoria.png,US_Cities_List/westpalmbeach.png,,,,,,,,,,,,,,,,,,
null,,rt_plussign_withcolor,550362,,,blue,,,,,null,US_Cities_List/peoria.png,US_Cities_List/westpalmbeach.png,,,,,,,,,,,,,,,,,,
975.6000000014901,,rt_thecrossant_black,551653,,,black_plus_sign,,,,,49,,,1,1,,,,,,,,,,,,,,,,
null,,color_black,551756,,,black_plus_sign,,,,,null,,,,,,,,,,,,,,,,,,,,
null,,learn_phase(without_color),554805,,,black_plus_sign,,,,,null,US_Cities_List/racine.png,US_Cities_List/peoria.png,,,,,,,,,,,,,,,,,,
null,,black_cross(without_color),555312,,,yellow,,,,,null,US_Cities_List/racine.png,US_Cities_List/peoria.png,,,,,,,,,,,,,,,,,,
null,,rt_plussign_withcolor,555815,,,yellow,,,,,null,US_Cities_List/racine.png,US_Cities_List/peoria.png,,,,,,,,,,,,,,,,,,
1129.5,,rt_thecrossant_black,557315,,,black_plus_sign,,,,,50,,,1,1,,,,,,,,,,,,,,,,
null,,color_black,557418,,,black_plus_sign,,,,,null,,,,,,,,,,,,,,,,,,,,
null,,learn_phase(without_color),560471,,,black_plus_sign,,,,,null,US_Cities_List/boulder.png,US_Cities_List/cornwall.png,,,,,,,,,,,,,,,,,,
null,,black_cross(without_color),561322,,,yellow,,,,,null,US_Cities_List/boulder.png,US_Cities_List/cornwall.png,,,,,,,,,,,,,,,,,,
null,,rt_plussign_withcolor,561825,,,yellow,,,,,null,US_Cities_List/boulder.png,US_Cities_List/cornwall.png,,,,,,,,,,,,,,,,,,
887.8999999985099,,rt_thecrossant_black,562981,,,black_plus_sign,,,,,50,,,1,1,,,,,,,,,,,,,,,,
null,,color_black,563084,,,black_plus_sign,,,,,null,,,,,,,,,,,,,,,,,,,,
null,,learn_phase(without_color),566146,,,black_plus_sign,,,,,null,US_Cities_List/cornwall.png,US_Cities_List/newhope.png,,,,,,,,,,,,,,,,,,
null,,black_cross(without_color),567122,,,blue,,,,,null,US_Cities_List/cornwall.png,US_Cities_List/newhope.png,,,,,,,,,,,,,,,,,,
null,,rt_plussign_withcolor,567624,,,blue,,,,,null,US_Cities_List/cornwall.png,US_Cities_List/newhope.png,,,,,,,,,,,,,,,,,,
1604.300000000745,,rt_thecrossant_black,568656,,,black_plus_sign,,,,,49,,,1,1,,,,,,,,,,,,,,,,
null,,color_black,568758,,,black_plus_sign,,,,,null,,,,,,,,,,,,,,,,,,,,
null,,learn_phase(without_color),571804,,,black_plus_sign,,,,,null,US_Cities_List/gatlinburg.png,US_Cities_List/racine.png,,,,,,,,,,,,,,,,,,
null,,black_cross(without_color),572727,,,yellow,,,,,null,US_Cities_List/gatlinburg.png,US_Cities_List/racine.png,,,,,,,,,,,,,,,,,,
null,,rt_plussign_withcolor,573229,,,yellow,,,,,null,US_Cities_List/gatlinburg.png,US_Cities_List/racine.png,,,,,,,,,,,,,,,,,,
1642.4000000022352,,rt_thecrossant_black,574314,,,black_plus_sign,,,,,50,,,1,1,,,,,,,,,,,,,,,,
null,,color_black,574417,,,black_plus_sign,,,,,null,,,,,,,,,,,,,,,,,,,,
null,,learn_phase(without_color),577456,,,black_plus_sign,,,,,null,US_Cities_List/racine.png,US_Cities_List/huntsville.png,,,,,,,,,,,,,,,,,,
null,,black_cross(without_color),578291,,,blue,,,,,null,US_Cities_List/racine.png,US_Cities_List/huntsville.png,,,,,,,,,,,,,,,,,,
null,,rt_plussign_withcolor,578794,,,blue,,,,,null,US_Cities_List/racine.png,US_Cities_List/huntsville.png,,,,,,,,,,,,,,,,,,
1311.699999999255,,rt_thecrossant_black,579966,,,black_plus_sign,,,,,49,,,1,1,,,,,,,,,,,,,,,,
null,,color_black,580069,,,black_plus_sign,,,,,null,,,,,,,,,,,,,,,,,,,,
null,,learn_phase(without_color),583125,,,black_plus_sign,,,,,null,US_Cities_List/cornwall.png,US_Cities_List/hanover.png,,,,,,,,,,,,,,,,,,
null,,black_cross(without_color),583764,,,yellow,,,,,null,US_Cities_List/cornwall.png,US_Cities_List/hanover.png,,,,,,,,,,,,,,,,,,
null,,rt_plussign_withcolor,584266,,,yellow,,,,,null,US_Cities_List/cornwall.png,US_Cities_List/hanover.png,,,,,,,,,,,,,,,,,,
1881.5,,rt_thecrossant_black,585633,,,black_plus_sign,,,,,50,,,1,1,,,,,,,,,,,,,,,,
null,,color_black,585737,,,black_plus_sign,,,,,null,,,,,,,,,,,,,,,,,,,,
null,,learn_phase(without_color),588783,,,black_plus_sign,,,,,null,US_Cities_List/shreveport.png,US_Cities_List/newhope.png,,,,,,,,,,,,,,,,,,
null,,black_cross(without_color),589871,,,blue,,,,,null,US_Cities_List/shreveport.png,US_Cities_List/newhope.png,,,,,,,,,,,,,,,,,,
null,,rt_plussign_withcolor,590373,,,blue,,,,,null,US_Cities_List/shreveport.png,US_Cities_List/newhope.png,,,,,,,,,,,,,,,,,,
1064.6000000014901,,rt_thecrossant_black,591293,,,black_plus_sign,,,,,49,,,1,1,,,,,,,,,,,,,,,,
null,,color_black,591396,,,black_plus_sign,,,,,null,,,,,,,,,,,,,,,,,,,,
null,,learn_phase(without_color),594449,,,black_plus_sign,,,,,null,US_Cities_List/gatlinburg.png,US_Cities_List/racine.png,,,,,,,,,,,,,,,,,,
null,,black_cross(without_color),595360,,,yellow,,,,,null,US_Cities_List/gatlinburg.png,US_Cities_List/racine.png,,,,,,,,,,,,,,,,,,
null,,rt_plussign_withcolor,595862,,,yellow,,,,,null,US_Cities_List/gatlinburg.png,US_Cities_List/racine.png,,,,,,,,,,,,,,,,,,
1545.8999999985099,,rt_thecrossant_black,596957,,,black_plus_sign,,,,,50,,,1,1,,,,,,,,,,,,,,,,
null,,color_black,597060,,,black_plus_sign,,,,,null,,,,,,,,,,,,,,,,,,,,
null,,learn_phase(without_color),600078,,,black_plus_sign,,,,,null,US_Cities_List/carmel.png,US_Cities_List/peoria.png,,,,,,,,,,,,,,,,,,
null,,black_cross(without_color),600745,,,yellow,,,,,null,US_Cities_List/carmel.png,US_Cities_List/peoria.png,,,,,,,,,,,,,,,,,,
null,,rt_plussign_withcolor,601247,,,yellow,,,,,null,US_Cities_List/carmel.png,US_Cities_List/peoria.png,,,,,,,,,,,,,,,,,,
1215.5999999977648,,rt_thecrossant_black,602588,,,black_plus_sign,,,,,50,,,1,1,,,,,,,,,,,,,,,,
null,,color_black,602692,,,black_plus_sign,,,,,null,,,,,,,,,,,,,,,,,,,,
null,,learn_phase(without_color),605747,,,black_plus_sign,,,,,null,US_Cities_List/cornwall.png,US_Cities_List/leesburg.png,,,,,,,,,,,,,,,,,,
null,,black_cross(without_color),606261,,,yellow,,,,,null,US_Cities_List/cornwall.png,US_Cities_List/leesburg.png,,,,,,,,,,,,,,,,,,
null,,rt_plussign_withcolor,606764,,,yellow,,,,,null,US_Cities_List/cornwall.png,US_Cities_List/leesburg.png,,,,,,,,,,,,,,,,,,
1099.3999999985099,,rt_thecrossant_black,608256,,,black_plus_sign,,,,,50,,,1,1,,,,,,,,,,,,,,,,
null,,color_black,608360,,,black_plus_sign,,,,,null,,,,,,,,,,,,,,,,,,,,
null,,learn_phase(without_color),611417,,,black_plus_sign,,,,,null,US_Cities_List/boulder.png,US_Cities_List/cornwall.png,,,,,,,,,,,,,,,,,,
null,,black_cross(without_color),612425,,,yellow,,,,,null,US_Cities_List/boulder.png,US_Cities_List/cornwall.png,,,,,,,,,,,,,,,,,,
null,,rt_plussign_withcolor,612927,,,yellow,,,,,null,US_Cities_List/boulder.png,US_Cities_List/cornwall.png,,,,,,,,,,,,,,,,,,
794.5,,rt_thecrossant_black,613927,,,black_plus_sign,,,,,50,,,1,1,,,,,,,,,,,,,,,,
null,,color_black,614030,,,black_plus_sign,,,,,null,,,,,,,,,,,,,,,,,,,,
null,,learn_phase(without_color),617088,,,black_plus_sign,,,,,null,US_Cities_List/boulder.png,US_Cities_List/cornwall.png,,,,,,,,,,,,,,,,,,
null,,black_cross(without_color),618160,,,blue,,,,,null,US_Cities_List/boulder.png,US_Cities_List/cornwall.png,,,,,,,,,,,,,,,,,,
null,,rt_plussign_withcolor,618663,,,blue,,,,,null,US_Cities_List/boulder.png,US_Cities_List/cornwall.png,,,,,,,,,,,,,,,,,,
1975.3999999985099,,rt_thecrossant_black,619598,,,black_plus_sign,,,,,49,,,1,1,,,,,,,,,,,,,,,,
null,,color_black,619702,,,black_plus_sign,,,,,null,,,,,,,,,,,,,,,,,,,,
null,,learn_phase(without_color),622718,,,black_plus_sign,,,,,null,US_Cities_List/boulder.png,US_Cities_List/huntsville.png,,,,,,,,,,,,,,,,,,
null,,black_cross(without_color),623284,,,yellow,,,,,null,US_Cities_List/boulder.png,US_Cities_List/huntsville.png,,,,,,,,,,,,,,,,,,
null,,rt_plussign_withcolor,623786,,,yellow,,,,,null,US_Cities_List/boulder.png,US_Cities_List/huntsville.png,,,,,,,,,,,,,,,,,,
1577.4000000022352,,rt_thecrossant_black,625225,,,black_plus_sign,,,,,50,,,1,1,,,,,,,,,,,,,,,,
null,,color_black,625328,,,black_plus_sign,,,,,null,,,,,,,,,,,,,,,,,,,,
null,,learn_phase(without_color),628361,,,black_plus_sign,,,,,null,US_Cities_List/hotsprings.png,US_Cities_List/hanover.png,,,,,,,,,,,,,,,,,,
null,,black_cross(without_color),628780,,,yellow,,,,,null,US_Cities_List/hotsprings.png,US_Cities_List/hanover.png,,,,,,,,,,,,,,,,,,
null,,rt_plussign_withcolor,629282,,,yellow,,,,,null,US_Cities_List/hotsprings.png,US_Cities_List/hanover.png,,,,,,,,,,,,,,,,,,
1359.3999999985099,,rt_thecrossant_black,630871,,,black_plus_sign,,,,,50,,,1,1,,,,,,,,,,,,,,,,
null,,color_black,630974,,,black_plus_sign,,,,,null,,,,,,,,,,,,,,,,,,,,
null,,learn_phase(without_color),634014,,,black_plus_sign,,,,,null,US_Cities_List/westpalmbeach.png,US_Cities_List/peoria.png,,,,,,,,,,,,,,,,,,
null,,black_cross(without_color),634442,,,blue,,,,,null,US_Cities_List/westpalmbeach.png,US_Cities_List/peoria.png,,,,,,,,,,,,,,,,,,
null,,rt_plussign_withcolor,634944,,,blue,,,,,null,US_Cities_List/westpalmbeach.png,US_Cities_List/peoria.png,,,,,,,,,,,,,,,,,,
1566.800000000745,,rt_thecrossant_black,636523,,,black_plus_sign,,,,,49,,,1,1,,,,,,,,,,,,,,,,
null,,color_black,636626,,,black_plus_sign,,,,,null,,,,,,,,,,,,,,,,,,,,
null,,learn_phase(without_color),639670,,,black_plus_sign,,,,,null,US_Cities_List/cornwall.png,US_Cities_List/leesburg.png,,,,,,,,,,,,,,,,,,
null,,black_cross(without_color),640174,,,blue,,,,,null,US_Cities_List/cornwall.png,US_Cities_List/leesburg.png,,,,,,,,,,,,,,,,,,
null,,rt_plussign_withcolor,640677,,,blue,,,,,null,US_Cities_List/cornwall.png,US_Cities_List/leesburg.png,,,,,,,,,,,,,,,,,,
1614.8999999985099,,rt_thecrossant_black,642180,,,black_plus_sign,,,,,49,,,1,1,,,,,,,,,,,,,,,,
null,,color_black,642283,,,black_plus_sign,,,,,null,,,,,,,,,,,,,,,,,,,,
null,,learn_phase(without_color),645312,,,black_plus_sign,,,,,null,US_Cities_List/hanover.png,US_Cities_List/hotsprings.png,,,,,,,,,,,,,,,,,,
null,,black_cross(without_color),645905,,,blue,,,,,null,US_Cities_List/hanover.png,US_Cities_List/hotsprings.png,,,,,,,,,,,,,,,,,,
null,,rt_plussign_withcolor,646407,,,blue,,,,,null,US_Cities_List/hanover.png,US_Cities_List/hotsprings.png,,,,,,,,,,,,,,,,,,
1076.2999999970198,,rt_thecrossant_black,647822,,,black_plus_sign,,,,,49,,,1,1,,,,,,,,,,,,,,,,
null,,color_black,647925,,,black_plus_sign,,,,,null,,,,,,,,,,,,,,,,,,,,
null,,learn_phase(without_color),650965,,,black_plus_sign,,,,,null,US_Cities_List/leesburg.png,US_Cities_List/carmel.png,,,,,,,,,,,,,,,,,,
null,,black_cross(without_color),651652,,,yellow,,,,,null,US_Cities_List/leesburg.png,US_Cities_List/carmel.png,,,,,,,,,,,,,,,,,,
null,,rt_plussign_withcolor,652154,,,yellow,,,,,null,US_Cities_List/leesburg.png,US_Cities_List/carmel.png,,,,,,,,,,,,,,,,,,
770.1000000014901,,rt_thecrossant_black,653475,,,black_plus_sign,,,,,50,,,1,1,,,,,,,,,,,,,,,,
null,,color_black,653578,,,black_plus_sign,,,,,null,,,,,,,,,,,,,,,,,,,,
null,,learn_phase(without_color),656632,,,black_plus_sign,,,,,null,US_Cities_List/newhope.png,US_Cities_List/cornwall.png,,,,,,,,,,,,,,,,,,
null,,black_cross(without_color),657707,,,yellow,,,,,null,US_Cities_List/newhope.png,US_Cities_List/cornwall.png,,,,,,,,,,,,,,,,,,
null,,rt_plussign_withcolor,658209,,,yellow,,,,,null,US_Cities_List/newhope.png,US_Cities_List/cornwall.png,,,,,,,,,,,,,,,,,,
944.3999999985099,,rt_thecrossant_black,659142,,,black_plus_sign,,,,,50,,,1,1,,,,,,,,,,,,,,,,
null,,color_black,659246,,,black_plus_sign,,,,,null,,,,,,,,,,,,,,,,,,,,
null,,learn_phase(without_color),662279,,,black_plus_sign,,,,,null,US_Cities_List/huntsville.png,US_Cities_List/racine.png,,,,,,,,,,,,,,,,,,
null,,black_cross(without_color),662786,,,blue,,,,,null,US_Cities_List/huntsville.png,US_Cities_List/racine.png,,,,,,,,,,,,,,,,,,
null,,rt_plussign_withcolor,663289,,,blue,,,,,null,US_Cities_List/huntsville.png,US_Cities_List/racine.png,,,,,,,,,,,,,,,,,,
1902.300000000745,,rt_thecrossant_black,664789,,,black_plus_sign,,,,,49,,,1,1,,,,,,,,,,,,,,,,
null,,color_black,664893,,,black_plus_sign,,,,,null,,,,,,,,,,,,,,,,,,,,
null,,learn_phase(without_color),667936,,,black_plus_sign,,,,,null,US_Cities_List/cornwall.png,US_Cities_List/leesburg.png,,,,,,,,,,,,,,,,,,
null,,black_cross(without_color),668520,,,yellow,,,,,null,US_Cities_List/cornwall.png,US_Cities_List/leesburg.png,,,,,,,,,,,,,,,,,,
null,,rt_plussign_withcolor,669022,,,yellow,,,,,null,US_Cities_List/cornwall.png,US_Cities_List/leesburg.png,,,,,,,,,,,,,,,,,,
784.2999999970198,,rt_thecrossant_black,670446,,,black_plus_sign,,,,,50,,,1,1,,,,,,,,,,,,,,,,
null,,color_black,670549,,,black_plus_sign,,,,,null,,,,,,,,,,,,,,,,,,,,
null,,learn_phase(without_color),673578,,,black_plus_sign,,,,,null,US_Cities_List/boulder.png,US_Cities_List/huntsville.png,,,,,,,,,,,,,,,,,,
null,,black_cross(without_color),674333,,,yellow,,,,,null,US_Cities_List/boulder.png,US_Cities_List/huntsville.png,,,,,,,,,,,,,,,,,,
null,,rt_plussign_withcolor,674836,,,yellow,,,,,null,US_Cities_List/boulder.png,US_Cities_List/huntsville.png,,,,,,,,,,,,,,,,,,
1645.3999999985099,,rt_thecrossant_black,676088,,,black_plus_sign,,,,,50,,,1,1,,,,,,,,,,,,,,,,
null,,color_black,676191,,,black_plus_sign,,,,,null,,,,,,,,,,,,,,,,,,,,
null,,learn_phase(without_color),679226,,,black_plus_sign,,,,,null,US_Cities_List/boulder.png,US_Cities_List/cornwall.png,,,,,,,,,,,,,,,,,,
null,,black_cross(without_color),680316,,,blue,,,,,null,US_Cities_List/boulder.png,US_Cities_List/cornwall.png,,,,,,,,,,,,,,,,,,
null,,rt_plussign_withcolor,680819,,,blue,,,,,null,US_Cities_List/boulder.png,US_Cities_List/cornwall.png,,,,,,,,,,,,,,,,,,
1466.0999999977648,,rt_thecrossant_black,681735,,,black_plus_sign,,,,,49,,,1,1,,,,,,,,,,,,,,,,
null,,color_black,681839,,,black_plus_sign,,,,,null,,,,,,,,,,,,,,,,,,,,
null,,learn_phase(without_color),684882,,,black_plus_sign,,,,,null,US_Cities_List/newhope.png,US_Cities_List/shreveport.png,,,,,,,,,,,,,,,,,,
null,,black_cross(without_color),685894,,,blue,,,,,null,US_Cities_List/newhope.png,US_Cities_List/shreveport.png,,,,,,,,,,,,,,,,,,
null,,rt_plussign_withcolor,686396,,,blue,,,,,null,US_Cities_List/newhope.png,US_Cities_List/shreveport.png,,,,,,,,,,,,,,,,,,
1735.2999999970198,,rt_thecrossant_black,687392,,,black_plus_sign,,,,,49,,,1,1,,,,,,,,,,,,,,,,
null,,color_black,687496,,,black_plus_sign,,,,,null,,,,,,,,,,,,,,,,,,,,
null,,learn_phase(without_color),690537,,,black_plus_sign,,,,,null,US_Cities_List/racine.png,US_Cities_List/huntsville.png,,,,,,,,,,,,,,,,,,
null,,black_cross(without_color),691493,,,yellow,,,,,null,US_Cities_List/racine.png,US_Cities_List/huntsville.png,,,,,,,,,,,,,,,,,,
null,,rt_plussign_withcolor,691995,,,yellow,,,,,null,US_Cities_List/racine.png,US_Cities_List/huntsville.png,,,,,,,,,,,,,,,,,,
1200.1000000014901,,rt_thecrossant_black,693046,,,black_plus_sign,,,,,50,,,1,1,,,,,,,,,,,,,,,,
null,,color_black,693148,,,black_plus_sign,,,,,null,,,,,,,,,,,,,,,,,,,,
null,,learn_phase(without_color),696187,,,black_plus_sign,,,,,null,US_Cities_List/carmel.png,US_Cities_List/leesburg.png,,,,,,,,,,,,,,,,,,
null,,black_cross(without_color),696611,,,blue,,,,,null,US_Cities_List/carmel.png,US_Cities_List/leesburg.png,,,,,,,,,,,,,,,,,,
null,,rt_plussign_withcolor,697113,,,blue,,,,,null,US_Cities_List/carmel.png,US_Cities_List/leesburg.png,,,,,,,,,,,,,,,,,,
1656.3999999985099,,rt_thecrossant_black,698698,,,black_plus_sign,,,,,49,,,1,1,,,,,,,,,,,,,,,,
null,,color_black,698800,,,black_plus_sign,,,,,null,,,,,,,,,,,,,,,,,,,,
null,,learn_phase(without_color),701814,,,black_plus_sign,,,,,null,US_Cities_List/shreveport.png,US_Cities_List/newhope.png,,,,,,,,,,,,,,,,,,
null,,black_cross(without_color),702856,,,yellow,,,,,null,US_Cities_List/shreveport.png,US_Cities_List/newhope.png,,,,,,,,,,,,,,,,,,
null,,rt_plussign_withcolor,703357,,,yellow,,,,,null,US_Cities_List/shreveport.png,US_Cities_List/newhope.png,,,,,,,,,,,,,,,,,,
782.5,,rt_thecrossant_black,704319,,,black_plus_sign,,,,,50,,,1,1,,,,,,,,,,,,,,,,
null,,color_black,704421,,,black_plus_sign,,,,,null,,,,,,,,,,,,,,,,,,,,
null,,learn_phase(without_color),707431,,,black_plus_sign,,,,,null,US_Cities_List/huntsville.png,US_Cities_List/boulder.png,,,,,,,,,,,,,,,,,,
null,,black_cross(without_color),707999,,,blue,,,,,null,US_Cities_List/huntsville.png,US_Cities_List/boulder.png,,,,,,,,,,,,,,,,,,
null,,rt_plussign_withcolor,708501,,,blue,,,,,null,US_Cities_List/huntsville.png,US_Cities_List/boulder.png,,,,,,,,,,,,,,,,,,
1637.5999999977648,,rt_thecrossant_black,709939,,,black_plus_sign,,,,,49,,,1,1,,,,,,,,,,,,,,,,
null,,color_black,710042,,,black_plus_sign,,,,,null,,,,,,,,,,,,,,,,,,,,
null,,learn_phase(without_color),713063,,,black_plus_sign,,,,,null,US_Cities_List/newhope.png,US_Cities_List/boulder.png,,,,,,,,,,,,,,,,,,
null,,black_cross(without_color),713667,,,blue,,,,,null,US_Cities_List/newhope.png,US_Cities_List/boulder.png,,,,,,,,,,,,,,,,,,
null,,rt_plussign_withcolor,714169,,,blue,,,,,null,US_Cities_List/newhope.png,US_Cities_List/boulder.png,,,,,,,,,,,,,,,,,,
1792.800000000745,,rt_thecrossant_black,715573,,,black_plus_sign,,,,,49,,,1,1,,,,,,,,,,,,,,,,
null,,color_black,715677,,,black_plus_sign,,,,,null,,,,,,,,,,,,,,,,,,,,
null,,learn_phase(without_color),718728,,,black_plus_sign,,,,,null,US_Cities_List/cornwall.png,US_Cities_List/hanover.png,,,,,,,,,,,,,,,,,,
null,,black_cross(without_color),719582,,,yellow,,,,,null,US_Cities_List/cornwall.png,US_Cities_List/hanover.png,,,,,,,,,,,,,,,,,,
null,,rt_plussign_withcolor,720085,,,yellow,,,,,null,US_Cities_List/cornwall.png,US_Cities_List/hanover.png,,,,,,,,,,,,,,,,,,
1741.699999999255,,rt_thecrossant_black,721238,,,black_plus_sign,,,,,50,,,1,1,,,,,,,,,,,,,,,,
null,,color_black,721342,,,black_plus_sign,,,,,null,,,,,,,,,,,,,,,,,,,,
null,,learn_phase(without_color),724366,,,black_plus_sign,,,,,null,US_Cities_List/huntsville.png,US_Cities_List/racine.png,,,,,,,,,,,,,,,,,,
null,,black_cross(without_color),725213,,,blue,,,,,null,US_Cities_List/huntsville.png,US_Cities_List/racine.png,,,,,,,,,,,,,,,,,,
null,,rt_plussign_withcolor,725715,,,blue,,,,,null,US_Cities_List/huntsville.png,US_Cities_List/racine.png,,,,,,,,,,,,,,,,,,
967.1999999992549,,rt_thecrossant_black,726872,,,black_plus_sign,,,,,49,,,1,1,,,,,,,,,,,,,,,,
null,,color_black,726974,,,black_plus_sign,,,,,null,,,,,,,,,,,,,,,,,,,,
null,,learn_phase(without_color),729997,,,black_plus_sign,,,,,null,US_Cities_List/peoria.png,US_Cities_List/racine.png,,,,,,,,,,,,,,,,,,
null,,black_cross(without_color),730929,,,blue,,,,,null,US_Cities_List/peoria.png,US_Cities_List/racine.png,,,,,,,,,,,,,,,,,,
null,,rt_plussign_withcolor,731431,,,blue,,,,,null,US_Cities_List/peoria.png,US_Cities_List/racine.png,,,,,,,,,,,,,,,,,,
1365.7999999970198,,rt_thecrossant_black,732507,,,black_plus_sign,,,,,49,,,1,1,,,,,,,,,,,,,,,,
null,,color_black,732610,,,black_plus_sign,,,,,null,,,,,,,,,,,,,,,,,,,,
null,,learn_phase(without_color),735641,,,black_plus_sign,,,,,null,US_Cities_List/hanover.png,US_Cities_List/hotsprings.png,,,,,,,,,,,,,,,,,,
null,,black_cross(without_color),736058,,,blue,,,,,null,US_Cities_List/hanover.png,US_Cities_List/hotsprings.png,,,,,,,,,,,,,,,,,,
null,,rt_plussign_withcolor,736561,,,blue,,,,,null,US_Cities_List/hanover.png,US_Cities_List/hotsprings.png,,,,,,,,,,,,,,,,,,
1466.5,,rt_thecrossant_black,738151,,,black_plus_sign,,,,,49,,,1,1,,,,,,,,,,,,,,,,
null,,color_black,738255,,,black_plus_sign,,,,,null,,,,,,,,,,,,,,,,,,,,
null,,learn_phase(without_color),741306,,,black_plus_sign,,,,,null,US_Cities_List/racine.png,US_Cities_List/peoria.png,,,,,,,,,,,,,,,,,,
null,,black_cross(without_color),742257,,,yellow,,,,,null,US_Cities_List/racine.png,US_Cities_List/peoria.png,,,,,,,,,,,,,,,,,,
null,,rt_plussign_withcolor,742760,,,yellow,,,,,null,US_Cities_List/racine.png,US_Cities_List/peoria.png,,,,,,,,,,,,,,,,,,
672.6999999992549,,rt_thecrossant_black,743814,,,black_plus_sign,,,,,50,,,1,1,,,,,,,,,,,,,,,,
null,,color_black,743918,,,black_plus_sign,,,,,null,,,,,,,,,,,,,,,,,,,,
null,,learn_phase(without_color),746958,,,black_plus_sign,,,,,null,US_Cities_List/hotsprings.png,US_Cities_List/hanover.png,,,,,,,,,,,,,,,,,,
null,,black_cross(without_color),747449,,,blue,,,,,null,US_Cities_List/hotsprings.png,US_Cities_List/hanover.png,,,,,,,,,,,,,,,,,,
null,,rt_plussign_withcolor,747952,,,blue,,,,,null,US_Cities_List/hotsprings.png,US_Cities_List/hanover.png,,,,,,,,,,,,,,,,,,
1426.800000000745,,rt_thecrossant_black,749467,,,black_plus_sign,,,,,50,,,0,0.9824561403508771,,,,,,,,,,,,,,,,
null,,color_black,749571,,,black_plus_sign,,,,,null,,,,,,,,,,,,,,,,,,,,
null,,learn_phase(without_color),752627,,,black_plus_sign,,,,,null,US_Cities_List/newhope.png,US_Cities_List/cornwall.png,,,,,,,,,,,,,,,,,,
null,,black_cross(without_color),753152,,,yellow,,,,,null,US_Cities_List/newhope.png,US_Cities_List/cornwall.png,,,,,,,,,,,,,,,,,,
null,,rt_plussign_withcolor,753655,,,yellow,,,,,null,US_Cities_List/newhope.png,US_Cities_List/cornwall.png,,,,,,,,,,,,,,,,,,
1033.6000000014901,,rt_thecrossant_black,755136,,,black_plus_sign,,,,,50,,,1,0.9827586206896551,,,,,,,,,,,,,,,,
null,,color_black,755240,,,black_plus_sign,,,,,null,,,,,,,,,,,,,,,,,,,,
null,,learn_phase(without_color),758288,,,black_plus_sign,,,,,null,US_Cities_List/newhope.png,US_Cities_List/hanover.png,,,,,,,,,,,,,,,,,,
null,,black_cross(without_color),758772,,,blue,,,,,null,US_Cities_List/newhope.png,US_Cities_List/hanover.png,,,,,,,,,,,,,,,,,,
null,,rt_plussign_withcolor,759275,,,blue,,,,,null,US_Cities_List/newhope.png,US_Cities_List/hanover.png,,,,,,,,,,,,,,,,,,
741.0999999977648,,rt_thecrossant_black,760797,,,black_plus_sign,,,,,49,,,1,0.9830508474576272,,,,,,,,,,,,,,,,
null,,color_black,760901,,,black_plus_sign,,,,,null,,,,,,,,,,,,,,,,,,,,
null,,learn_phase(without_color),763959,,,black_plus_sign,,,,,null,US_Cities_List/cornwall.png,US_Cities_List/hanover.png,,,,,,,,,,,,,,,,,,
null,,black_cross(without_color),764688,,,yellow,,,,,null,US_Cities_List/cornwall.png,US_Cities_List/hanover.png,,,,,,,,,,,,,,,,,,
430.29999999701977,,rt_plussign_withcolor,765190,,,yellow,,,,,50,US_Cities_List/cornwall.png,US_Cities_List/hanover.png,,,,,,,,,,,,,,,,,,
null,,rt_thecrossant_black,766469,,,black_plus_sign,,,,,null,,,1,0.9833333333333333,,,,,,,,,,,,,,,,
null,,color_black,766574,,,black_plus_sign,,,,,null,,,,,,,,,,,,,,,,,,,,
null,,learn_phase(without_color),769625,,,black_plus_sign,,,,,null,US_Cities_List/newhope.png,US_Cities_List/hanover.png,,,,,,,,,,,,,,,,,,
null,,black_cross(without_color),770469,,,yellow,,,,,null,US_Cities_List/newhope.png,US_Cities_List/hanover.png,,,,,,,,,,,,,,,,,,
null,,rt_plussign_withcolor,770971,,,yellow,,,,,null,US_Cities_List/newhope.png,US_Cities_List/hanover.png,,,,,,,,,,,,,,,,,,
962,,rt_thecrossant_black,772133,,,black_plus_sign,,,,,50,,,1,0.9836065573770492,,,,,,,,,,,,,,,,
null,,color_black,772236,,,black_plus_sign,,,,,null,,,,,,,,,,,,,,,,,,,,
null,,learn_phase(without_color),775277,,,black_plus_sign,,,,,null,US_Cities_List/westpalmbeach.png,US_Cities_List/peoria.png,,,,,,,,,,,,,,,,,,
null,,black_cross(without_color),776290,,,yellow,,,,,null,US_Cities_List/westpalmbeach.png,US_Cities_List/peoria.png,,,,,,,,,,,,,,,,,,
null,,rt_plussign_withcolor,776792,,,yellow,,,,,null,US_Cities_List/westpalmbeach.png,US_Cities_List/peoria.png,,,,,,,,,,,,,,,,,,
1081.7000000029802,,rt_thecrossant_black,777784,,,black_plus_sign,,,,,50,,,1,0.9838709677419355,,,,,,,,,,,,,,,,
null,,color_black,777888,,,black_plus_sign,,,,,null,,,,,,,,,,,,,,,,,,,,
null,,learn_phase(without_color),780903,,,black_plus_sign,,,,,null,US_Cities_List/huntsville.png,US_Cities_List/leesburg.png,,,,,,,,,,,,,,,,,,
null,,black_cross(without_color),781594,,,yellow,,,,,null,US_Cities_List/huntsville.png,US_Cities_List/leesburg.png,,,,,,,,,,,,,,,,,,
null,,rt_plussign_withcolor,782096,,,yellow,,,,,null,US_Cities_List/huntsville.png,US_Cities_List/leesburg.png,,,,,,,,,,,,,,,,,,
1326.300000000745,,rt_thecrossant_black,783409,,,black_plus_sign,,,,,50,,,1,0.9841269841269841,,,,,,,,,,,,,,,,
null,,color_black,783513,,,black_plus_sign,,,,,null,,,,,,,,,,,,,,,,,,,,
null,,learn_phase(without_color),786545,,,black_plus_sign,,,,,null,US_Cities_List/leesburg.png,US_Cities_List/huntsville.png,,,,,,,,,,,,,,,,,,
null,,black_cross(without_color),787490,,,yellow,,,,,null,US_Cities_List/leesburg.png,US_Cities_List/huntsville.png,,,,,,,,,,,,,,,,,,
null,,rt_plussign_withcolor,787992,,,yellow,,,,,null,US_Cities_List/leesburg.png,US_Cities_List/huntsville.png,,,,,,,,,,,,,,,,,,
888.9000000022352,,rt_thecrossant_black,789055,,,black_plus_sign,,,,,50,,,1,0.984375,,,,,,,,,,,,,,,,
null,,color_black,789159,,,black_plus_sign,,,,,null,,,,,,,,,,,,,,,,,,,,
null,,learn_break,849165,,,learn_break,,,,,null,,,,,,,,,,,,,,,,,,,,
null,,html-keyboard-response,850169,,,<p></p>,,,,,null,,,,,,,,,,,,,,,,,,,,
null,,learn_phase(without_color),853199,,,black_plus_sign,,,,,null,US_Cities_List/hotsprings.png,US_Cities_List/hanover.png,,,,,,,,,,,,,,,,,,
null,,black_cross(without_color),853909,,,yellow,,,,,null,US_Cities_List/hotsprings.png,US_Cities_List/hanover.png,,,,,,,,,,,,,,,,,,
null,,rt_plussign_withcolor,854412,,,yellow,,,,,null,US_Cities_List/hotsprings.png,US_Cities_List/hanover.png,,,,,,,,,,,,,,,,,,
2216.800000000745,,rt_thecrossant_black,855707,,,black_plus_sign,,,,,50,,,1,0.9846153846153847,,,,,,,,,,,,,,,,
null,,color_black,855811,,,black_plus_sign,,,,,null,,,,,,,,,,,,,,,,,,,,
null,,learn_phase(without_color),858851,,,black_plus_sign,,,,,null,US_Cities_List/newhope.png,US_Cities_List/shreveport.png,,,,,,,,,,,,,,,,,,
null,,black_cross(without_color),859673,,,blue,,,,,null,US_Cities_List/newhope.png,US_Cities_List/shreveport.png,,,,,,,,,,,,,,,,,,
null,,rt_plussign_withcolor,860176,,,blue,,,,,null,US_Cities_List/newhope.png,US_Cities_List/shreveport.png,,,,,,,,,,,,,,,,,,
null,,rt_thecrossant_black,861360,,,black_plus_sign,,,,,null,,,,0.9846153846153847,,,,,,,,,,,,,,,,
null,,color_black,861464,,,black_plus_sign,,,,,null,,,,,,,,,,,,,,,,,,,,
null,,learn_phase(without_color),864515,,,black_plus_sign,,,,,null,US_Cities_List/boulder.png,US_Cities_List/cornwall.png,,,,,,,,,,,,,,,,,,
null,,black_cross(without_color),865533,,,yellow,,,,,null,US_Cities_List/boulder.png,US_Cities_List/cornwall.png,,,,,,,,,,,,,,,,,,
null,,rt_plussign_withcolor,866035,,,yellow,,,,,null,US_Cities_List/boulder.png,US_Cities_List/cornwall.png,,,,,,,,,,,,,,,,,,
1803.3999999985099,,rt_thecrossant_black,867025,,,black_plus_sign,,,,,50,,,1,0.9848484848484849,,,,,,,,,,,,,,,,
null,,color_black,867129,,,black_plus_sign,,,,,null,,,,,,,,,,,,,,,,,,,,
null,,learn_phase(without_color),870169,,,black_plus_sign,,,,,null,US_Cities_List/leesburg.png,US_Cities_List/carmel.png,,,,,,,,,,,,,,,,,,
null,,black_cross(without_color),870965,,,yellow,,,,,null,US_Cities_List/leesburg.png,US_Cities_List/carmel.png,,,,,,,,,,,,,,,,,,
null,,rt_plussign_withcolor,871468,,,yellow,,,,,null,US_Cities_List/leesburg.png,US_Cities_List/carmel.png,,,,,,,,,,,,,,,,,,
null,,rt_thecrossant_black,872679,,,black_plus_sign,,,,,null,,,,0.9848484848484849,,,,,,,,,,,,,,,,
null,,color_black,872783,,,black_plus_sign,,,,,null,,,,,,,,,,,,,,,,,,,,
null,,learn_phase(without_color),875826,,,black_plus_sign,,,,,null,US_Cities_List/racine.png,US_Cities_List/peoria.png,,,,,,,,,,,,,,,,,,
null,,black_cross(without_color),876840,,,yellow,,,,,null,US_Cities_List/racine.png,US_Cities_List/peoria.png,,,,,,,,,,,,,,,,,,
null,,rt_plussign_withcolor,877343,,,yellow,,,,,null,US_Cities_List/racine.png,US_Cities_List/peoria.png,,,,,,,,,,,,,,,,,,
1245.5,,rt_thecrossant_black,878336,,,black_plus_sign,,,,,50,,,1,0.9850746268656716,,,,,,,,,,,,,,,,
null,,color_black,878440,,,black_plus_sign,,,,,null,,,,,,,,,,,,,,,,,,,,
null,,learn_phase(without_color),881457,,,black_plus_sign,,,,,null,US_Cities_List/racine.png,US_Cities_List/huntsville.png,,,,,,,,,,,,,,,,,,
null,,black_cross(without_color),882232,,,yellow,,,,,null,US_Cities_List/racine.png,US_Cities_List/huntsville.png,,,,,,,,,,,,,,,,,,
null,,rt_plussign_withcolor,882735,,,yellow,,,,,null,US_Cities_List/racine.png,US_Cities_List/huntsville.png,,,,,,,,,,,,,,,,,,
1781.8999999985099,,rt_thecrossant_black,883967,,,black_plus_sign,,,,,50,,,1,0.9852941176470589,,,,,,,,,,,,,,,,
null,,color_black,884071,,,black_plus_sign,,,,,null,,,,,,,,,,,,,,,,,,,,
null,,learn_phase(without_color),887117,,,black_plus_sign,,,,,null,US_Cities_List/boulder.png,US_Cities_List/newhope.png,,,,,,,,,,,,,,,,,,
null,,black_cross(without_color),887550,,,blue,,,,,null,US_Cities_List/boulder.png,US_Cities_List/newhope.png,,,,,,,,,,,,,,,,,,
null,,rt_plussign_withcolor,888053,,,blue,,,,,null,US_Cities_List/boulder.png,US_Cities_List/newhope.png,,,,,,,,,,,,,,,,,,
1693.5,,rt_thecrossant_black,889627,,,black_plus_sign,,,,,49,,,1,0.9855072463768116,,,,,,,,,,,,,,,,
null,,color_black,889731,,,black_plus_sign,,,,,null,,,,,,,,,,,,,,,,,,,,
null,,learn_phase(without_color),892768,,,black_plus_sign,,,,,null,US_Cities_List/leesburg.png,US_Cities_List/huntsville.png,,,,,,,,,,,,,,,,,,
null,,black_cross(without_color),893239,,,blue,,,,,null,US_Cities_List/leesburg.png,US_Cities_List/huntsville.png,,,,,,,,,,,,,,,,,,
null,,rt_plussign_withcolor,893742,,,blue,,,,,null,US_Cities_List/leesburg.png,US_Cities_List/huntsville.png,,,,,,,,,,,,,,,,,,
1847.199999999255,,rt_thecrossant_black,895279,,,black_plus_sign,,,,,49,,,1,0.9857142857142858,,,,,,,,,,,,,,,,
null,,color_black,895382,,,black_plus_sign,,,,,null,,,,,,,,,,,,,,,,,,,,
null,,learn_phase(without_color),898422,,,black_plus_sign,,,,,null,US_Cities_List/boulder.png,US_Cities_List/newhope.png,,,,,,,,,,,,,,,,,,
null,,black_cross(without_color),899370,,,yellow,,,,,null,US_Cities_List/boulder.png,US_Cities_List/newhope.png,,,,,,,,,,,,,,,,,,
null,,rt_plussign_withcolor,899872,,,yellow,,,,,null,US_Cities_List/boulder.png,US_Cities_List/newhope.png,,,,,,,,,,,,,,,,,,
916.8999999985099,,rt_thecrossant_black,900932,,,black_plus_sign,,,,,50,,,1,0.9859154929577465,,,,,,,,,,,,,,,,
null,,color_black,901036,,,black_plus_sign,,,,,null,,,,,,,,,,,,,,,,,,,,
null,,learn_phase(without_color),904080,,,black_plus_sign,,,,,null,US_Cities_List/carmel.png,US_Cities_List/leesburg.png,,,,,,,,,,,,,,,,,,
null,,black_cross(without_color),904641,,,blue,,,,,null,US_Cities_List/carmel.png,US_Cities_List/leesburg.png,,,,,,,,,,,,,,,,,,
null,,rt_plussign_withcolor,905144,,,blue,,,,,null,US_Cities_List/carmel.png,US_Cities_List/leesburg.png,,,,,,,,,,,,,,,,,,
1649.199999999255,,rt_thecrossant_black,906589,,,black_plus_sign,,,,,49,,,1,0.9861111111111112,,,,,,,,,,,,,,,,
null,,color_black,906693,,,black_plus_sign,,,,,null,,,,,,,,,,,,,,,,,,,,
null,,learn_phase(without_color),909730,,,black_plus_sign,,,,,null,US_Cities_List/huntsville.png,US_Cities_List/leesburg.png,,,,,,,,,,,,,,,,,,
null,,black_cross(without_color),910637,,,yellow,,,,,null,US_Cities_List/huntsville.png,US_Cities_List/leesburg.png,,,,,,,,,,,,,,,,,,
null,,rt_plussign_withcolor,911140,,,yellow,,,,,null,US_Cities_List/huntsville.png,US_Cities_List/leesburg.png,,,,,,,,,,,,,,,,,,
866.0999999977648,,rt_thecrossant_black,912240,,,black_plus_sign,,,,,50,,,1,0.9863013698630136,,,,,,,,,,,,,,,,
null,,color_black,912344,,,black_plus_sign,,,,,null,,,,,,,,,,,,,,,,,,,,
null,,learn_phase(without_color),915389,,,black_plus_sign,,,,,null,US_Cities_List/shreveport.png,US_Cities_List/newhope.png,,,,,,,,,,,,,,,,,,
null,,black_cross(without_color),915837,,,yellow,,,,,null,US_Cities_List/shreveport.png,US_Cities_List/newhope.png,,,,,,,,,,,,,,,,,,
null,,rt_plussign_withcolor,916339,,,yellow,,,,,null,US_Cities_List/shreveport.png,US_Cities_List/newhope.png,,,,,,,,,,,,,,,,,,
1990.7000000029802,,rt_thecrossant_black,917899,,,black_plus_sign,,,,,50,,,1,0.9864864864864865,,,,,,,,,,,,,,,,
null,,color_black,918003,,,black_plus_sign,,,,,null,,,,,,,,,,,,,,,,,,,,
null,,learn_phase(without_color),921053,,,black_plus_sign,,,,,null,US_Cities_List/leesburg.png,US_Cities_List/carmel.png,,,,,,,,,,,,,,,,,,
null,,black_cross(without_color),922007,,,yellow,,,,,null,US_Cities_List/leesburg.png,US_Cities_List/carmel.png,,,,,,,,,,,,,,,,,,
null,,rt_plussign_withcolor,922509,,,yellow,,,,,null,US_Cities_List/leesburg.png,US_Cities_List/carmel.png,,,,,,,,,,,,,,,,,,
544.5,,rt_thecrossant_black,923564,,,black_plus_sign,,,,,50,,,1,0.9866666666666667,,,,,,,,,,,,,,,,
null,,color_black,923668,,,black_plus_sign,,,,,null,,,,,,,,,,,,,,,,,,,,
null,,learn_phase(without_color),926716,,,black_plus_sign,,,,,null,US_Cities_List/cornwall.png,US_Cities_List/boulder.png,,,,,,,,,,,,,,,,,,
null,,black_cross(without_color),927617,,,blue,,,,,null,US_Cities_List/cornwall.png,US_Cities_List/boulder.png,,,,,,,,,,,,,,,,,,
null,,rt_plussign_withcolor,928120,,,blue,,,,,null,US_Cities_List/cornwall.png,US_Cities_List/boulder.png,,,,,,,,,,,,,,,,,,
1522.800000000745,,rt_thecrossant_black,929226,,,black_plus_sign,,,,,49,,,1,0.9868421052631579,,,,,,,,,,,,,,,,
null,,color_black,929330,,,black_plus_sign,,,,,null,,,,,,,,,,,,,,,,,,,,
null,,learn_phase(without_color),932394,,,black_plus_sign,,,,,null,US_Cities_List/cornwall.png,US_Cities_List/newhope.png,,,,,,,,,,,,,,,,,,
null,,black_cross(without_color),933162,,,yellow,,,,,null,US_Cities_List/cornwall.png,US_Cities_List/newhope.png,,,,,,,,,,,,,,,,,,
null,,rt_plussign_withcolor,933665,,,yellow,,,,,null,US_Cities_List/cornwall.png,US_Cities_List/newhope.png,,,,,,,,,,,,,,,,,,
1123.3999999985099,,rt_thecrossant_black,934904,,,black_plus_sign,,,,,50,,,1,0.987012987012987,,,,,,,,,,,,,,,,
null,,color_black,935008,,,black_plus_sign,,,,,null,,,,,,,,,,,,,,,,,,,,
null,,learn_phase(without_color),938049,,,black_plus_sign,,,,,null,US_Cities_List/peoria.png,US_Cities_List/westpalmbeach.png,,,,,,,,,,,,,,,,,,
null,,black_cross(without_color),938516,,,yellow,,,,,null,US_Cities_List/peoria.png,US_Cities_List/westpalmbeach.png,,,,,,,,,,,,,,,,,,
null,,rt_plussign_withcolor,939018,,,yellow,,,,,null,US_Cities_List/peoria.png,US_Cities_List/westpalmbeach.png,,,,,,,,,,,,,,,,,,
979.9000000022352,,rt_thecrossant_black,940559,,,black_plus_sign,,,,,50,,,1,0.9871794871794872,,,,,,,,,,,,,,,,
null,,color_black,940663,,,black_plus_sign,,,,,null,,,,,,,,,,,,,,,,,,,,
null,,learn_phase(without_color),943712,,,black_plus_sign,,,,,null,US_Cities_List/hanover.png,US_Cities_List/cornwall.png,,,,,,,,,,,,,,,,,,
null,,black_cross(without_color),944611,,,yellow,,,,,null,US_Cities_List/hanover.png,US_Cities_List/cornwall.png,,,,,,,,,,,,,,,,,,
null,,rt_plussign_withcolor,945114,,,yellow,,,,,null,US_Cities_List/hanover.png,US_Cities_List/cornwall.png,,,,,,,,,,,,,,,,,,
714.1999999992549,,rt_thecrossant_black,946224,,,black_plus_sign,,,,,50,,,1,0.9873417721518988,,,,,,,,,,,,,,,,
null,,color_black,946327,,,black_plus_sign,,,,,null,,,,,,,,,,,,,,,,,,,,
null,,learn_phase(without_color),949343,,,black_plus_sign,,,,,null,US_Cities_List/huntsville.png,US_Cities_List/leesburg.png,,,,,,,,,,,,,,,,,,
null,,black_cross(without_color),949980,,,blue,,,,,null,US_Cities_List/huntsville.png,US_Cities_List/leesburg.png,,,,,,,,,,,,,,,,,,
null,,rt_plussign_withcolor,950482,,,blue,,,,,null,US_Cities_List/huntsville.png,US_Cities_List/leesburg.png,,,,,,,,,,,,,,,,,,
1455,,rt_thecrossant_black,951850,,,black_plus_sign,,,,,49,,,1,0.9875,,,,,,,,,,,,,,,,
null,,color_black,951954,,,black_plus_sign,,,,,null,,,,,,,,,,,,,,,,,,,,
null,,learn_phase(without_color),954983,,,black_plus_sign,,,,,null,US_Cities_List/huntsville.png,US_Cities_List/boulder.png,,,,,,,,,,,,,,,,,,
null,,black_cross(without_color),955773,,,blue,,,,,null,US_Cities_List/huntsville.png,US_Cities_List/boulder.png,,,,,,,,,,,,,,,,,,
null,,rt_plussign_withcolor,956276,,,blue,,,,,null,US_Cities_List/huntsville.png,US_Cities_List/boulder.png,,,,,,,,,,,,,,,,,,
977.3000000007451,,rt_thecrossant_black,957493,,,black_plus_sign,,,,,49,,,1,0.9876543209876543,,,,,,,,,,,,,,,,
null,,color_black,957596,,,black_plus_sign,,,,,null,,,,,,,,,,,,,,,,,,,,
null,,learn_phase(without_color),960626,,,black_plus_sign,,,,,null,US_Cities_List/boulder.png,US_Cities_List/huntsville.png,,,,,,,,,,,,,,,,,,
null,,black_cross(without_color),961535,,,yellow,,,,,null,US_Cities_List/boulder.png,US_Cities_List/huntsville.png,,,,,,,,,,,,,,,,,,
null,,rt_plussign_withcolor,962037,,,yellow,,,,,null,US_Cities_List/boulder.png,US_Cities_List/huntsville.png,,,,,,,,,,,,,,,,,,
899.6000000014901,,rt_thecrossant_black,963136,,,black_plus_sign,,,,,50,,,1,0.9878048780487805,,,,,,,,,,,,,,,,
null,,color_black,963240,,,black_plus_sign,,,,,null,,,,,,,,,,,,,,,,,,,,
null,,learn_phase(without_color),966284,,,black_plus_sign,,,,,null,US_Cities_List/gatlinburg.png,US_Cities_List/racine.png,,,,,,,,,,,,,,,,,,
null,,black_cross(without_color),966849,,,yellow,,,,,null,US_Cities_List/gatlinburg.png,US_Cities_List/racine.png,,,,,,,,,,,,,,,,,,
null,,rt_plussign_withcolor,967352,,,yellow,,,,,null,US_Cities_List/gatlinburg.png,US_Cities_List/racine.png,,,,,,,,,,,,,,,,,,
1190.0999999977648,,rt_thecrossant_black,968795,,,black_plus_sign,,,,,50,,,1,0.9879518072289156,,,,,,,,,,,,,,,,
null,,color_black,968899,,,black_plus_sign,,,,,null,,,,,,,,,,,,,,,,,,,,
null,,learn_phase(without_color),971954,,,black_plus_sign,,,,,null,US_Cities_List/newhope.png,US_Cities_List/cornwall.png,,,,,,,,,,,,,,,,,,
null,,black_cross(without_color),972555,,,yellow,,,,,null,US_Cities_List/newhope.png,US_Cities_List/cornwall.png,,,,,,,,,,,,,,,,,,
null,,rt_plussign_withcolor,973058,,,yellow,,,,,null,US_Cities_List/newhope.png,US_Cities_List/cornwall.png,,,,,,,,,,,,,,,,,,
673.2000000029802,,rt_thecrossant_black,974465,,,black_plus_sign,,,,,50,,,1,0.9880952380952381,,,,,,,,,,,,,,,,
null,,color_black,974568,,,black_plus_sign,,,,,null,,,,,,,,,,,,,,,,,,,,
null,,learn_phase(without_color),977603,,,black_plus_sign,,,,,null,US_Cities_List/leesburg.png,US_Cities_List/huntsville.png,,,,,,,,,,,,,,,,,,
null,,black_cross(without_color),978688,,,yellow,,,,,null,US_Cities_List/leesburg.png,US_Cities_List/huntsville.png,,,,,,,,,,,,,,,,,,
null,,rt_plussign_withcolor,979191,,,yellow,,,,,null,US_Cities_List/leesburg.png,US_Cities_List/huntsville.png,,,,,,,,,,,,,,,,,,
708.5,,rt_thecrossant_black,980113,,,black_plus_sign,,,,,50,,,1,0.9882352941176471,,,,,,,,,,,,,,,,
null,,color_black,980217,,,black_plus_sign,,,,,null,,,,,,,,,,,,,,,,,,,,
null,,learn_phase(without_color),983271,,,black_plus_sign,,,,,null,US_Cities_List/cornwall.png,US_Cities_List/hanover.png,,,,,,,,,,,,,,,,,,
null,,black_cross(without_color),984225,,,blue,,,,,null,US_Cities_List/cornwall.png,US_Cities_List/hanover.png,,,,,,,,,,,,,,,,,,
null,,rt_plussign_withcolor,984728,,,blue,,,,,null,US_Cities_List/cornwall.png,US_Cities_List/hanover.png,,,,,,,,,,,,,,,,,,
1689.1000000014901,,rt_thecrossant_black,985782,,,black_plus_sign,,,,,49,,,1,0.9883720930232558,,,,,,,,,,,,,,,,
null,,color_black,985886,,,black_plus_sign,,,,,null,,,,,,,,,,,,,,,,,,,,
null,,learn_phase(without_color),988925,,,black_plus_sign,,,,,null,US_Cities_List/hanover.png,US_Cities_List/hotsprings.png,,,,,,,,,,,,,,,,,,
null,,black_cross(without_color),989851,,,blue,,,,,null,US_Cities_List/hanover.png,US_Cities_List/hotsprings.png,,,,,,,,,,,,,,,,,,
null,,rt_plussign_withcolor,990354,,,blue,,,,,null,US_Cities_List/hanover.png,US_Cities_List/hotsprings.png,,,,,,,,,,,,,,,,,,
1348.1000000014901,,rt_thecrossant_black,991435,,,black_plus_sign,,,,,49,,,1,0.9885057471264368,,,,,,,,,,,,,,,,
null,,color_black,991538,,,black_plus_sign,,,,,null,,,,,,,,,,,,,,,,,,,,
null,,learn_phase(without_color),994597,,,black_plus_sign,,,,,null,US_Cities_List/cornwall.png,US_Cities_List/hanover.png,,,,,,,,,,,,,,,,,,
null,,black_cross(without_color),995538,,,yellow,,,,,null,US_Cities_List/cornwall.png,US_Cities_List/hanover.png,,,,,,,,,,,,,,,,,,
null,,rt_plussign_withcolor,996040,,,yellow,,,,,null,US_Cities_List/cornwall.png,US_Cities_List/hanover.png,,,,,,,,,,,,,,,,,,
1067.199999999255,,rt_thecrossant_black,997106,,,black_plus_sign,,,,,50,,,1,0.9886363636363636,,,,,,,,,,,,,,,,
null,,color_black,997210,,,black_plus_sign,,,,,null,,,,,,,,,,,,,,,,,,,,
null,,learn_phase(without_color),1000250,,,black_plus_sign,,,,,null,US_Cities_List/shreveport.png,US_Cities_List/newhope.png,,,,,,,,,,,,,,,,,,
null,,black_cross(without_color),1000683,,,yellow,,,,,null,US_Cities_List/shreveport.png,US_Cities_List/newhope.png,,,,,,,,,,,,,,,,,,
null,,rt_plussign_withcolor,1001186,,,yellow,,,,,null,US_Cities_List/shreveport.png,US_Cities_List/newhope.png,,,,,,,,,,,,,,,,,,
1493.199999999255,,rt_thecrossant_black,1002760,,,black_plus_sign,,,,,50,,,1,0.9887640449438202,,,,,,,,,,,,,,,,
null,,color_black,1002864,,,black_plus_sign,,,,,null,,,,,,,,,,,,,,,,,,,,
null,,learn_phase(without_color),1005886,,,black_plus_sign,,,,,null,US_Cities_List/racine.png,US_Cities_List/peoria.png,,,,,,,,,,,,,,,,,,
null,,black_cross(without_color),1006549,,,yellow,,,,,null,US_Cities_List/racine.png,US_Cities_List/peoria.png,,,,,,,,,,,,,,,,,,
null,,rt_plussign_withcolor,1007052,,,yellow,,,,,null,US_Cities_List/racine.png,US_Cities_List/peoria.png,,,,,,,,,,,,,,,,,,
1032.1000000014901,,rt_thecrossant_black,1008396,,,black_plus_sign,,,,,50,,,1,0.9888888888888889,,,,,,,,,,,,,,,,
null,,color_black,1008500,,,black_plus_sign,,,,,null,,,,,,,,,,,,,,,,,,,,
null,,learn_phase(without_color),1011538,,,black_plus_sign,,,,,null,US_Cities_List/racine.png,US_Cities_List/gatlinburg.png,,,,,,,,,,,,,,,,,,
null,,black_cross(without_color),1012285,,,blue,,,,,null,US_Cities_List/racine.png,US_Cities_List/gatlinburg.png,,,,,,,,,,,,,,,,,,
null,,rt_plussign_withcolor,1012788,,,blue,,,,,null,US_Cities_List/racine.png,US_Cities_List/gatlinburg.png,,,,,,,,,,,,,,,,,,
1521.7000000029802,,rt_thecrossant_black,1014048,,,black_plus_sign,,,,,49,,,1,0.989010989010989,,,,,,,,,,,,,,,,
null,,color_black,1014152,,,black_plus_sign,,,,,null,,,,,,,,,,,,,,,,,,,,
null,,learn_phase(without_color),1017215,,,black_plus_sign,,,,,null,US_Cities_List/newhope.png,US_Cities_List/cornwall.png,,,,,,,,,,,,,,,,,,
null,,black_cross(without_color),1017888,,,yellow,,,,,null,US_Cities_List/newhope.png,US_Cities_List/cornwall.png,,,,,,,,,,,,,,,,,,
null,,rt_plussign_withcolor,1018391,,,yellow,,,,,null,US_Cities_List/newhope.png,US_Cities_List/cornwall.png,,,,,,,,,,,,,,,,,,
null,,rt_thecrossant_black,1019726,,,black_plus_sign,,,,,null,,,,0.989010989010989,,,,,,,,,,,,,,,,
null,,color_black,1019830,,,black_plus_sign,,,,,null,,,,,,,,,,,,,,,,,,,,
null,,learn_phase(without_color),1022873,,,black_plus_sign,,,,,null,US_Cities_List/newhope.png,US_Cities_List/boulder.png,,,,,,,,,,,,,,,,,,
null,,black_cross(without_color),1023717,,,blue,,,,,null,US_Cities_List/newhope.png,US_Cities_List/boulder.png,,,,,,,,,,,,,,,,,,
null,,rt_plussign_withcolor,1024220,,,blue,,,,,null,US_Cities_List/newhope.png,US_Cities_List/boulder.png,,,,,,,,,,,,,,,,,,
1040.800000000745,,rt_thecrossant_black,1025383,,,black_plus_sign,,,,,49,,,1,0.9891304347826086,,,,,,,,,,,,,,,,
null,,color_black,1025487,,,black_plus_sign,,,,,null,,,,,,,,,,,,,,,,,,,,
null,,learn_phase(without_color),1028512,,,black_plus_sign,,,,,null,US_Cities_List/hanover.png,US_Cities_List/cornwall.png,,,,,,,,,,,,,,,,,,
null,,black_cross(without_color),1029475,,,yellow,,,,,null,US_Cities_List/hanover.png,US_Cities_List/cornwall.png,,,,,,,,,,,,,,,,,,
426.19999999925494,,rt_plussign_withcolor,1029978,,,yellow,,,,,50,US_Cities_List/hanover.png,US_Cities_List/cornwall.png,,,,,,,,,,,,,,,,,,
null,,rt_thecrossant_black,1031022,,,black_plus_sign,,,,,null,,,1,0.989247311827957,,,,,,,,,,,,,,,,
null,,color_black,1031126,,,black_plus_sign,,,,,null,,,,,,,,,,,,,,,,,,,,
null,,learn_phase(without_color),1034180,,,black_plus_sign,,,,,null,US_Cities_List/peoria.png,US_Cities_List/racine.png,,,,,,,,,,,,,,,,,,
null,,black_cross(without_color),1034645,,,yellow,,,,,null,US_Cities_List/peoria.png,US_Cities_List/racine.png,,,,,,,,,,,,,,,,,,
null,,rt_plussign_withcolor,1035147,,,yellow,,,,,null,US_Cities_List/peoria.png,US_Cities_List/racine.png,,,,,,,,,,,,,,,,,,
1484.8999999985099,,rt_thecrossant_black,1036690,,,black_plus_sign,,,,,50,,,1,0.9893617021276596,,,,,,,,,,,,,,,,
null,,color_black,1036794,,,black_plus_sign,,,,,null,,,,,,,,,,,,,,,,,,,,
null,,learn_phase(without_color),1039840,,,black_plus_sign,,,,,null,US_Cities_List/newhope.png,US_Cities_List/hanover.png,,,,,,,,,,,,,,,,,,
null,,black_cross(without_color),1040841,,,yellow,,,,,null,US_Cities_List/newhope.png,US_Cities_List/hanover.png,,,,,,,,,,,,,,,,,,
null,,rt_plussign_withcolor,1041344,,,yellow,,,,,null,US_Cities_List/newhope.png,US_Cities_List/hanover.png,,,,,,,,,,,,,,,,,,
575.9000000022352,,rt_thecrossant_black,1042350,,,black_plus_sign,,,,,50,,,1,0.9894736842105263,,,,,,,,,,,,,,,,
null,,color_black,1042454,,,black_plus_sign,,,,,null,,,,,,,,,,,,,,,,,,,,
null,,learn_phase(without_color),1045502,,,black_plus_sign,,,,,null,US_Cities_List/newhope.png,US_Cities_List/hanover.png,,,,,,,,,,,,,,,,,,
null,,black_cross(without_color),1046233,,,blue,,,,,null,US_Cities_List/newhope.png,US_Cities_List/hanover.png,,,,,,,,,,,,,,,,,,
null,,rt_plussign_withcolor,1046737,,,blue,,,,,null,US_Cities_List/newhope.png,US_Cities_List/hanover.png,,,,,,,,,,,,,,,,,,
1434.5,,rt_thecrossant_black,1048014,,,black_plus_sign,,,,,49,,,1,0.9895833333333334,,,,,,,,,,,,,,,,
null,,color_black,1048119,,,black_plus_sign,,,,,null,,,,,,,,,,,,,,,,,,,,
null,,learn_phase(without_color),1051164,,,black_plus_sign,,,,,null,US_Cities_List/gatlinburg.png,US_Cities_List/racine.png,,,,,,,,,,,,,,,,,,
null,,black_cross(without_color),1051626,,,yellow,,,,,null,US_Cities_List/gatlinburg.png,US_Cities_List/racine.png,,,,,,,,,,,,,,,,,,
null,,rt_plussign_withcolor,1052129,,,yellow,,,,,null,US_Cities_List/gatlinburg.png,US_Cities_List/racine.png,,,,,,,,,,,,,,,,,,
1202.2000000029802,,rt_thecrossant_black,1053677,,,black_plus_sign,,,,,50,,,1,0.9896907216494846,,,,,,,,,,,,,,,,
null,,color_black,1053781,,,black_plus_sign,,,,,null,,,,,,,,,,,,,,,,,,,,
null,,learn_phase(without_color),1056823,,,black_plus_sign,,,,,null,US_Cities_List/carmel.png,US_Cities_List/peoria.png,,,,,,,,,,,,,,,,,,
null,,black_cross(without_color),1057511,,,yellow,,,,,null,US_Cities_List/carmel.png,US_Cities_List/peoria.png,,,,,,,,,,,,,,,,,,
null,,rt_plussign_withcolor,1058014,,,yellow,,,,,null,US_Cities_List/carmel.png,US_Cities_List/peoria.png,,,,,,,,,,,,,,,,,,
851.5,,rt_thecrossant_black,1059335,,,black_plus_sign,,,,,50,,,1,0.9897959183673469,,,,,,,,,,,,,,,,
null,,color_black,1059440,,,black_plus_sign,,,,,null,,,,,,,,,,,,,,,,,,,,
null,,learn_phase(without_color),1062482,,,black_plus_sign,,,,,null,US_Cities_List/westpalmbeach.png,US_Cities_List/peoria.png,,,,,,,,,,,,,,,,,,
null,,black_cross(without_color),1063385,,,blue,,,,,null,US_Cities_List/westpalmbeach.png,US_Cities_List/peoria.png,,,,,,,,,,,,,,,,,,
null,,rt_plussign_withcolor,1063888,,,blue,,,,,null,US_Cities_List/westpalmbeach.png,US_Cities_List/peoria.png,,,,,,,,,,,,,,,,,,
1683.7999999970198,,rt_thecrossant_black,1064993,,,black_plus_sign,,,,,49,,,1,0.98989898989899,,,,,,,,,,,,,,,,
null,,color_black,1065097,,,black_plus_sign,,,,,null,,,,,,,,,,,,,,,,,,,,
null,,learn_phase(without_color),1068151,,,black_plus_sign,,,,,null,US_Cities_List/gatlinburg.png,US_Cities_List/racine.png,,,,,,,,,,,,,,,,,,
null,,black_cross(without_color),1069157,,,blue,,,,,null,US_Cities_List/gatlinburg.png,US_Cities_List/racine.png,,,,,,,,,,,,,,,,,,
null,,rt_plussign_withcolor,1069660,,,blue,,,,,null,US_Cities_List/gatlinburg.png,US_Cities_List/racine.png,,,,,,,,,,,,,,,,,,
1502.300000000745,,rt_thecrossant_black,1070662,,,black_plus_sign,,,,,49,,,1,0.99,,,,,,,,,,,,,,,,
null,,color_black,1070765,,,black_plus_sign,,,,,null,,,,,,,,,,,,,,,,,,,,
null,,learn_phase(without_color),1073821,,,black_plus_sign,,,,,null,US_Cities_List/cornwall.png,US_Cities_List/newhope.png,,,,,,,,,,,,,,,,,,
null,,black_cross(without_color),1074277,,,yellow,,,,,null,US_Cities_List/cornwall.png,US_Cities_List/newhope.png,,,,,,,,,,,,,,,,,,
null,,rt_plussign_withcolor,1074779,,,yellow,,,,,null,US_Cities_List/cornwall.png,US_Cities_List/newhope.png,,,,,,,,,,,,,,,,,,
1201.2000000029802,,rt_thecrossant_black,1076332,,,black_plus_sign,,,,,50,,,1,0.9900990099009901,,,,,,,,,,,,,,,,
null,,color_black,1076436,,,black_plus_sign,,,,,null,,,,,,,,,,,,,,,,,,,,
null,,learn_phase(without_color),1079478,,,black_plus_sign,,,,,null,US_Cities_List/newhope.png,US_Cities_List/boulder.png,,,,,,,,,,,,,,,,,,
null,,black_cross(without_color),1080179,,,yellow,,,,,null,US_Cities_List/newhope.png,US_Cities_List/boulder.png,,,,,,,,,,,,,,,,,,
441.19999999925494,,rt_plussign_withcolor,1080682,,,yellow,,,,,50,US_Cities_List/newhope.png,US_Cities_List/boulder.png,,,,,,,,,,,,,,,,,,
null,,rt_thecrossant_black,1081989,,,black_plus_sign,,,,,null,,,1,0.9901960784313726,,,,,,,,,,,,,,,,
null,,color_black,1082093,,,black_plus_sign,,,,,null,,,,,,,,,,,,,,,,,,,,
null,,learn_phase(without_color),1085137,,,black_plus_sign,,,,,null,US_Cities_List/hanover.png,US_Cities_List/newhope.png,,,,,,,,,,,,,,,,,,
null,,black_cross(without_color),1085627,,,blue,,,,,null,US_Cities_List/hanover.png,US_Cities_List/newhope.png,,,,,,,,,,,,,,,,,,
null,,rt_plussign_withcolor,1086130,,,blue,,,,,null,US_Cities_List/hanover.png,US_Cities_List/newhope.png,,,,,,,,,,,,,,,,,,
1322.800000000745,,rt_thecrossant_black,1087648,,,black_plus_sign,,,,,49,,,1,0.9902912621359223,,,,,,,,,,,,,,,,
null,,color_black,1087752,,,black_plus_sign,,,,,null,,,,,,,,,,,,,,,,,,,,
null,,learn_phase(without_color),1090805,,,black_plus_sign,,,,,null,US_Cities_List/racine.png,US_Cities_List/peoria.png,,,,,,,,,,,,,,,,,,
null,,black_cross(without_color),1091394,,,blue,,,,,null,US_Cities_List/racine.png,US_Cities_List/peoria.png,,,,,,,,,,,,,,,,,,
437.5,,rt_plussign_withcolor,1091897,,,blue,,,,,49,US_Cities_List/racine.png,US_Cities_List/peoria.png,,,,,,,,,,,,,,,,,,
null,,rt_thecrossant_black,1093316,,,black_plus_sign,,,,,null,,,1,0.9903846153846154,,,,,,,,,,,,,,,,
null,,color_black,1093419,,,black_plus_sign,,,,,null,,,,,,,,,,,,,,,,,,,,
null,,learn_phase(without_color),1096457,,,black_plus_sign,,,,,null,US_Cities_List/huntsville.png,US_Cities_List/racine.png,,,,,,,,,,,,,,,,,,
null,,black_cross(without_color),1097455,,,blue,,,,,null,US_Cities_List/huntsville.png,US_Cities_List/racine.png,,,,,,,,,,,,,,,,,,
null,,rt_plussign_withcolor,1097957,,,blue,,,,,null,US_Cities_List/huntsville.png,US_Cities_List/racine.png,,,,,,,,,,,,,,,,,,
755.1000000014901,,rt_thecrossant_black,1098966,,,black_plus_sign,,,,,49,,,1,0.9904761904761905,,,,,,,,,,,,,,,,
null,,color_black,1099070,,,black_plus_sign,,,,,null,,,,,,,,,,,,,,,,,,,,
null,,learn_phase(without_color),1102123,,,black_plus_sign,,,,,null,US_Cities_List/leesburg.png,US_Cities_List/cornwall.png,,,,,,,,,,,,,,,,,,
null,,black_cross(without_color),1102865,,,yellow,,,,,null,US_Cities_List/leesburg.png,US_Cities_List/cornwall.png,,,,,,,,,,,,,,,,,,
null,,rt_plussign_withcolor,1103367,,,yellow,,,,,null,US_Cities_List/leesburg.png,US_Cities_List/cornwall.png,,,,,,,,,,,,,,,,,,
1295.3999999985099,,rt_thecrossant_black,1104631,,,black_plus_sign,,,,,50,,,1,0.9905660377358491,,,,,,,,,,,,,,,,
null,,color_black,1104735,,,black_plus_sign,,,,,null,,,,,,,,,,,,,,,,,,,,
null,,learn_phase(without_color),1107763,,,black_plus_sign,,,,,null,US_Cities_List/boulder.png,US_Cities_List/huntsville.png,,,,,,,,,,,,,,,,,,
null,,black_cross(without_color),1108203,,,yellow,,,,,null,US_Cities_List/boulder.png,US_Cities_List/huntsville.png,,,,,,,,,,,,,,,,,,
413.19999999925494,,rt_plussign_withcolor,1108706,,,yellow,,,,,50,US_Cities_List/boulder.png,US_Cities_List/huntsville.png,,,,,,,,,,,,,,,,,,
null,,rt_thecrossant_black,1110273,,,black_plus_sign,,,,,null,,,1,0.9906542056074766,,,,,,,,,,,,,,,,
null,,color_black,1110377,,,black_plus_sign,,,,,null,,,,,,,,,,,,,,,,,,,,
null,,learn_phase(without_color),1113417,,,black_plus_sign,,,,,null,US_Cities_List/newhope.png,US_Cities_List/hanover.png,,,,,,,,,,,,,,,,,,
null,,black_cross(without_color),1114085,,,yellow,,,,,null,US_Cities_List/newhope.png,US_Cities_List/hanover.png,,,,,,,,,,,,,,,,,,
null,,rt_plussign_withcolor,1114588,,,yellow,,,,,null,US_Cities_List/newhope.png,US_Cities_List/hanover.png,,,,,,,,,,,,,,,,,,
700.5,,rt_thecrossant_black,1115927,,,black_plus_sign,,,,,50,,,1,0.9907407407407407,,,,,,,,,,,,,,,,
null,,color_black,1116031,,,black_plus_sign,,,,,null,,,,,,,,,,,,,,,,,,,,
null,,learn_phase(without_color),1119094,,,black_plus_sign,,,,,null,US_Cities_List/cornwall.png,US_Cities_List/leesburg.png,,,,,,,,,,,,,,,,,,
null,,black_cross(without_color),1120037,,,blue,,,,,null,US_Cities_List/cornwall.png,US_Cities_List/leesburg.png,,,,,,,,,,,,,,,,,,
null,,rt_plussign_withcolor,1120540,,,blue,,,,,null,US_Cities_List/cornwall.png,US_Cities_List/leesburg.png,,,,,,,,,,,,,,,,,,
1056,,rt_thecrossant_black,1121604,,,black_plus_sign,,,,,49,,,1,0.9908256880733946,,,,,,,,,,,,,,,,
null,,color_black,1121707,,,black_plus_sign,,,,,null,,,,,,,,,,,,,,,,,,,,
null,,learn_phase(without_color),1124724,,,black_plus_sign,,,,,null,US_Cities_List/newhope.png,US_Cities_List/hanover.png,,,,,,,,,,,,,,,,,,
null,,black_cross(without_color),1125215,,,blue,,,,,null,US_Cities_List/newhope.png,US_Cities_List/hanover.png,,,,,,,,,,,,,,,,,,
null,,rt_plussign_withcolor,1125718,,,blue,,,,,null,US_Cities_List/newhope.png,US_Cities_List/hanover.png,,,,,,,,,,,,,,,,,,
1091.6000000014901,,rt_thecrossant_black,1127234,,,black_plus_sign,,,,,49,,,1,0.990909090909091,,,,,,,,,,,,,,,,
null,,color_black,1127338,,,black_plus_sign,,,,,null,,,,,,,,,,,,,,,,,,,,
null,,learn_phase(without_color),1130388,,,black_plus_sign,,,,,null,US_Cities_List/newhope.png,US_Cities_List/hanover.png,,,,,,,,,,,,,,,,,,
null,,black_cross(without_color),1130798,,,yellow,,,,,null,US_Cities_List/newhope.png,US_Cities_List/hanover.png,,,,,,,,,,,,,,,,,,
null,,rt_plussign_withcolor,1131301,,,yellow,,,,,null,US_Cities_List/newhope.png,US_Cities_List/hanover.png,,,,,,,,,,,,,,,,,,
863.0999999977648,,rt_thecrossant_black,1132898,,,black_plus_sign,,,,,50,,,1,0.990990990990991,,,,,,,,,,,,,,,,
null,,color_black,1133000,,,black_plus_sign,,,,,null,,,,,,,,,,,,,,,,,,,,
null,,learn_phase(without_color),1136017,,,black_plus_sign,,,,,null,US_Cities_List/leesburg.png,US_Cities_List/carmel.png,,,,,,,,,,,,,,,,,,
null,,black_cross(without_color),1136843,,,yellow,,,,,null,US_Cities_List/leesburg.png,US_Cities_List/carmel.png,,,,,,,,,,,,,,,,,,
424.1000000014901,,rt_plussign_withcolor,1137346,,,yellow,,,,,50,US_Cities_List/leesburg.png,US_Cities_List/carmel.png,,,,,,,,,,,,,,,,,,
null,,rt_thecrossant_black,1138528,,,black_plus_sign,,,,,null,,,1,0.9910714285714286,,,,,,,,,,,,,,,,
null,,color_black,1138632,,,black_plus_sign,,,,,null,,,,,,,,,,,,,,,,,,,,
null,,learn_phase(without_color),1141680,,,black_plus_sign,,,,,null,US_Cities_List/gatlinburg.png,US_Cities_List/racine.png,,,,,,,,,,,,,,,,,,
null,,black_cross(without_color),1142310,,,yellow,,,,,null,US_Cities_List/gatlinburg.png,US_Cities_List/racine.png,,,,,,,,,,,,,,,,,,
null,,rt_plussign_withcolor,1142815,,,yellow,,,,,null,US_Cities_List/gatlinburg.png,US_Cities_List/racine.png,,,,,,,,,,,,,,,,,,
922.8000000007451,,rt_thecrossant_black,1144193,,,black_plus_sign,,,,,50,,,1,0.9911504424778761,,,,,,,,,,,,,,,,
null,,color_black,1144298,,,black_plus_sign,,,,,null,,,,,,,,,,,,,,,,,,,,
null,,learn_phase(without_color),1147359,,,black_plus_sign,,,,,null,US_Cities_List/boulder.png,US_Cities_List/cornwall.png,,,,,,,,,,,,,,,,,,
null,,black_cross(without_color),1148381,,,blue,,,,,null,US_Cities_List/boulder.png,US_Cities_List/cornwall.png,,,,,,,,,,,,,,,,,,
null,,rt_plussign_withcolor,1148885,,,blue,,,,,null,US_Cities_List/boulder.png,US_Cities_List/cornwall.png,,,,,,,,,,,,,,,,,,
1212.300000000745,,rt_thecrossant_black,1149872,,,black_plus_sign,,,,,49,,,1,0.9912280701754386,,,,,,,,,,,,,,,,
null,,color_black,1149977,,,black_plus_sign,,,,,null,,,,,,,,,,,,,,,,,,,,
null,,learn_phase(without_color),1153019,,,black_plus_sign,,,,,null,US_Cities_List/peoria.png,US_Cities_List/carmel.png,,,,,,,,,,,,,,,,,,
null,,black_cross(without_color),1153921,,,blue,,,,,null,US_Cities_List/peoria.png,US_Cities_List/carmel.png,,,,,,,,,,,,,,,,,,
null,,rt_plussign_withcolor,1154425,,,blue,,,,,null,US_Cities_List/peoria.png,US_Cities_List/carmel.png,,,,,,,,,,,,,,,,,,
1603.5,,rt_thecrossant_black,1155531,,,black_plus_sign,,,,,49,,,1,0.991304347826087,,,,,,,,,,,,,,,,
null,,color_black,1155634,,,black_plus_sign,,,,,null,,,,,,,,,,,,,,,,,,,,
null,,learn_phase(without_color),1158677,,,black_plus_sign,,,,,null,US_Cities_List/shreveport.png,US_Cities_List/newhope.png,,,,,,,,,,,,,,,,,,
null,,black_cross(without_color),1159224,,,yellow,,,,,null,US_Cities_List/shreveport.png,US_Cities_List/newhope.png,,,,,,,,,,,,,,,,,,
null,,rt_plussign_withcolor,1159727,,,yellow,,,,,null,US_Cities_List/shreveport.png,US_Cities_List/newhope.png,,,,,,,,,,,,,,,,,,
1090.4000000022352,,rt_thecrossant_black,1161188,,,black_plus_sign,,,,,50,,,1,0.9913793103448276,,,,,,,,,,,,,,,,
null,,color_black,1161291,,,black_plus_sign,,,,,null,,,,,,,,,,,,,,,,,,,,
null,,learn_phase(without_color),1164310,,,black_plus_sign,,,,,null,US_Cities_List/huntsville.png,US_Cities_List/boulder.png,,,,,,,,,,,,,,,,,,
null,,black_cross(without_color),1165148,,,blue,,,,,null,US_Cities_List/huntsville.png,US_Cities_List/boulder.png,,,,,,,,,,,,,,,,,,
null,,rt_plussign_withcolor,1165650,,,blue,,,,,null,US_Cities_List/huntsville.png,US_Cities_List/boulder.png,,,,,,,,,,,,,,,,,,
1230.3999999985099,,rt_thecrossant_black,1166821,,,black_plus_sign,,,,,49,,,1,0.9914529914529915,,,,,,,,,,,,,,,,
null,,color_black,1166925,,,black_plus_sign,,,,,null,,,,,,,,,,,,,,,,,,,,
null,,learn_phase(without_color),1169971,,,black_plus_sign,,,,,null,US_Cities_List/carmel.png,US_Cities_List/peoria.png,,,,,,,,,,,,,,,,,,
null,,black_cross(without_color),1170609,,,blue,,,,,null,US_Cities_List/carmel.png,US_Cities_List/peoria.png,,,,,,,,,,,,,,,,,,
null,,rt_plussign_withcolor,1171112,,,blue,,,,,null,US_Cities_List/carmel.png,US_Cities_List/peoria.png,,,,,,,,,,,,,,,,,,
949.1000000014901,,rt_thecrossant_black,1172483,,,black_plus_sign,,,,,49,,,1,0.9915254237288136,,,,,,,,,,,,,,,,
null,,color_black,1172586,,,black_plus_sign,,,,,null,,,,,,,,,,,,,,,,,,,,
null,,learn_phase(without_color),1175605,,,black_plus_sign,,,,,null,US_Cities_List/hotsprings.png,US_Cities_List/hanover.png,,,,,,,,,,,,,,,,,,
null,,black_cross(without_color),1176380,,,yellow,,,,,null,US_Cities_List/hotsprings.png,US_Cities_List/hanover.png,,,,,,,,,,,,,,,,,,
null,,rt_plussign_withcolor,1176884,,,yellow,,,,,null,US_Cities_List/hotsprings.png,US_Cities_List/hanover.png,,,,,,,,,,,,,,,,,,
915.7999999970198,,rt_thecrossant_black,1178116,,,black_plus_sign,,,,,50,,,1,0.9915966386554622,,,,,,,,,,,,,,,,
null,,color_black,1178220,,,black_plus_sign,,,,,null,,,,,,,,,,,,,,,,,,,,
null,,learn_phase(without_color),1181240,,,black_plus_sign,,,,,null,US_Cities_List/peoria.png,US_Cities_List/carmel.png,,,,,,,,,,,,,,,,,,
null,,black_cross(without_color),1181943,,,blue,,,,,null,US_Cities_List/peoria.png,US_Cities_List/carmel.png,,,,,,,,,,,,,,,,,,
null,,rt_plussign_withcolor,1182446,,,blue,,,,,null,US_Cities_List/peoria.png,US_Cities_List/carmel.png,,,,,,,,,,,,,,,,,,
1228.6000000014901,,rt_thecrossant_black,1183750,,,black_plus_sign,,,,,49,,,1,0.9916666666666667,,,,,,,,,,,,,,,,
null,,color_black,1183854,,,black_plus_sign,,,,,null,,,,,,,,,,,,,,,,,,,,
null,,learn_phase(without_color),1186901,,,black_plus_sign,,,,,null,US_Cities_List/peoria.png,US_Cities_List/carmel.png,,,,,,,,,,,,,,,,,,
null,,black_cross(without_color),1187598,,,yellow,,,,,null,US_Cities_List/peoria.png,US_Cities_List/carmel.png,,,,,,,,,,,,,,,,,,
null,,rt_plussign_withcolor,1188101,,,yellow,,,,,null,US_Cities_List/peoria.png,US_Cities_List/carmel.png,,,,,,,,,,,,,,,,,,
1004,,rt_thecrossant_black,1189410,,,black_plus_sign,,,,,50,,,1,0.9917355371900827,,,,,,,,,,,,,,,,
null,,color_black,1189514,,,black_plus_sign,,,,,null,,,,,,,,,,,,,,,,,,,,
null,,learn_phase(without_color),1192549,,,black_plus_sign,,,,,null,US_Cities_List/leesburg.png,US_Cities_List/huntsville.png,,,,,,,,,,,,,,,,,,
null,,black_cross(without_color),1193319,,,blue,,,,,null,US_Cities_List/leesburg.png,US_Cities_List/huntsville.png,,,,,,,,,,,,,,,,,,
null,,rt_plussign_withcolor,1193821,,,blue,,,,,null,US_Cities_List/leesburg.png,US_Cities_List/huntsville.png,,,,,,,,,,,,,,,,,,
884.5999999977648,,rt_thecrossant_black,1195059,,,black_plus_sign,,,,,49,,,1,0.9918032786885246,,,,,,,,,,,,,,,,
null,,color_black,1195163,,,black_plus_sign,,,,,null,,,,,,,,,,,,,,,,,,,,
null,,learn_phase(without_color),1198200,,,black_plus_sign,,,,,null,US_Cities_List/huntsville.png,US_Cities_List/racine.png,,,,,,,,,,,,,,,,,,
null,,black_cross(without_color),1199189,,,blue,,,,,null,US_Cities_List/huntsville.png,US_Cities_List/racine.png,,,,,,,,,,,,,,,,,,
null,,rt_plussign_withcolor,1199692,,,blue,,,,,null,US_Cities_List/huntsville.png,US_Cities_List/racine.png,,,,,,,,,,,,,,,,,,
1310.4000000022352,,rt_thecrossant_black,1200711,,,black_plus_sign,,,,,49,,,1,0.991869918699187,,,,,,,,,,,,,,,,
null,,color_black,1200814,,,black_plus_sign,,,,,null,,,,,,,,,,,,,,,,,,,,
null,,learn_phase(without_color),1203863,,,black_plus_sign,,,,,null,US_Cities_List/boulder.png,US_Cities_List/newhope.png,,,,,,,,,,,,,,,,,,
null,,black_cross(without_color),1204715,,,blue,,,,,null,US_Cities_List/boulder.png,US_Cities_List/newhope.png,,,,,,,,,,,,,,,,,,
null,,rt_plussign_withcolor,1205218,,,blue,,,,,null,US_Cities_List/boulder.png,US_Cities_List/newhope.png,,,,,,,,,,,,,,,,,,
1243.0999999977648,,rt_thecrossant_black,1206374,,,black_plus_sign,,,,,49,,,1,0.9919354838709677,,,,,,,,,,,,,,,,
null,,color_black,1206478,,,black_plus_sign,,,,,null,,,,,,,,,,,,,,,,,,,,
null,,learn_phase(without_color),1209537,,,black_plus_sign,,,,,null,US_Cities_List/cornwall.png,US_Cities_List/newhope.png,,,,,,,,,,,,,,,,,,
null,,black_cross(without_color),1210012,,,blue,,,,,null,US_Cities_List/cornwall.png,US_Cities_List/newhope.png,,,,,,,,,,,,,,,,,,
null,,rt_plussign_withcolor,1210515,,,blue,,,,,null,US_Cities_List/cornwall.png,US_Cities_List/newhope.png,,,,,,,,,,,,,,,,,,
1291.199999999255,,rt_thecrossant_black,1212047,,,black_plus_sign,,,,,49,,,1,0.992,,,,,,,,,,,,,,,,
null,,color_black,1212151,,,black_plus_sign,,,,,null,,,,,,,,,,,,,,,,,,,,
null,,learn_break,1272156,,,learn_break,,,,,null,,,,,,,,,,,,,,,,,,,,
39969.699999999255,,intro_1,1312130,,,instruct,,,0,,,,,,,,,,,,,,,,,,,,,,
52342.699999999255,,intro_2,1364480,,,instruct,,,1,Next,,,,,,,,,,,,,,,,,,,,,
null,,directmemory_phase,1371041,,,../static/images/US_Cities_List/newhope.png,,,,,null,,,0,0,../static/images/US_Cities_List/huntsville.png,../static/images/US_Cities_List/hanover.png,../static/images/US_Cities_List/carmel.png,../static/images/US_Cities_List/hanover.png,../static/images/US_Cities_List/huntsville.png,../static/images/US_Cities_List/carmel.png,0,,,,,,,,,
null,,warning_page,1374057,,,warning,,,,,null,,,,,,,,,,,,,,,,,,,,
null,,html-keyboard-response,1375060,,,<p></p>,,,,,null,,,,,,,,,,,,,,,,,,,,
3662.599999997765,,directmemory_phase,1378768,,,../static/images/US_Cities_List/huntsville.png,,,,,50,,,1,0.5,../static/images/US_Cities_List/gatlinburg.png,../static/images/US_Cities_List/boulder.png,../static/images/US_Cities_List/westpalmbeach.png,../static/images/US_Cities_List/boulder.png,../static/images/US_Cities_List/gatlinburg.png,../static/images/US_Cities_List/westpalmbeach.png,1,,,,,,,,,
null,,html-keyboard-response,1379788,,,<p></p>,,,,,null,,,,,,,,,,,,,,,,,,,,
3286.300000000745,,directmemory_phase,1383149,,,../static/images/US_Cities_List/racine.png,,,,,51,,,1,0.6666666666666666,../static/images/US_Cities_List/newhope.png,../static/images/US_Cities_List/boulder.png,../static/images/US_Cities_List/peoria.png,../static/images/US_Cities_List/peoria.png,../static/images/US_Cities_List/boulder.png,../static/images/US_Cities_List/newhope.png,1,,,,,,,,,
null,,html-keyboard-response,1384156,,,<p></p>,,,,,null,,,,,,,,,,,,,,,,,,,,
3533.2000000029802,,directmemory_phase,1387738,,,../static/images/US_Cities_List/shreveport.png,,,,,49,,,1,0.75,../static/images/US_Cities_List/newhope.png,../static/images/US_Cities_List/hotsprings.png,../static/images/US_Cities_List/boulder.png,../static/images/US_Cities_List/newhope.png,../static/images/US_Cities_List/boulder.png,../static/images/US_Cities_List/hotsprings.png,1,,,,,,,,,
null,,html-keyboard-response,1388744,,,<p></p>,,,,,null,,,,,,,,,,,,,,,,,,,,
3944.2000000029802,,directmemory_phase,1392742,,,../static/images/US_Cities_List/boulder.png,,,,,51,,,1,0.8,../static/images/US_Cities_List/hotsprings.png,../static/images/US_Cities_List/racine.png,../static/images/US_Cities_List/cornwall.png,../static/images/US_Cities_List/cornwall.png,../static/images/US_Cities_List/racine.png,../static/images/US_Cities_List/hotsprings.png,1,,,,,,,,,
null,,html-keyboard-response,1393748,,,<p></p>,,,,,null,,,,,,,,,,,,,,,,,,,,
4370.79999999702,,directmemory_phase,1398168,,,../static/images/US_Cities_List/westpalmbeach.png,,,,,50,,,1,0.8333333333333334,../static/images/US_Cities_List/carmel.png,../static/images/US_Cities_List/peoria.png,../static/images/US_Cities_List/boulder.png,../static/images/US_Cities_List/peoria.png,../static/images/US_Cities_List/carmel.png,../static/images/US_Cities_List/boulder.png,1,,,,,,,,,
null,,html-keyboard-response,1399179,,,<p></p>,,,,,null,,,,,,,,,,,,,,,,,,,,
4616.800000000745,,directmemory_phase,1403870,,,../static/images/US_Cities_List/cornwall.png,,,,,49,,,1,0.8571428571428571,../static/images/US_Cities_List/hanover.png,../static/images/US_Cities_List/racine.png,../static/images/US_Cities_List/carmel.png,../static/images/US_Cities_List/hanover.png,../static/images/US_Cities_List/carmel.png,../static/images/US_Cities_List/racine.png,1,,,,,,,,,
null,,html-keyboard-response,1404877,,,<p></p>,,,,,null,,,,,,,,,,,,,,,,,,,,
4248.099999997765,,directmemory_phase,1409188,,,../static/images/US_Cities_List/peoria.png,,,,,50,,,0,0.75,../static/images/US_Cities_List/newhope.png,../static/images/US_Cities_List/gatlinburg.png,../static/images/US_Cities_List/racine.png,../static/images/US_Cities_List/racine.png,../static/images/US_Cities_List/gatlinburg.png,../static/images/US_Cities_List/newhope.png,0.5,closer,,,,,,,,
null,,html-keyboard-response,1410199,,,<p></p>,,,,,null,,,,,,,,,,,,,,,,,,,,
3879.89999999851,,directmemory_phase,1414151,,,../static/images/US_Cities_List/huntsville.png,,,,,50,,,1,0.7777777777777778,../static/images/US_Cities_List/cornwall.png,../static/images/US_Cities_List/leesburg.png,../static/images/US_Cities_List/shreveport.png,../static/images/US_Cities_List/leesburg.png,../static/images/US_Cities_List/cornwall.png,../static/images/US_Cities_List/shreveport.png,1,,,,,,,,,
null,,html-keyboard-response,1415160,,,<p></p>,,,,,null,,,,,,,,,,,,,,,,,,,,
4065.199999999255,,directmemory_phase,1419285,,,../static/images/US_Cities_List/cornwall.png,,,,,49,,,0,0.7,../static/images/US_Cities_List/gatlinburg.png,../static/images/US_Cities_List/carmel.png,../static/images/US_Cities_List/newhope.png,../static/images/US_Cities_List/newhope.png,../static/images/US_Cities_List/carmel.png,../static/images/US_Cities_List/gatlinburg.png,0.5,closer,,,,,,,,
null,,html-keyboard-response,1420292,,,<p></p>,,,,,null,,,,,,,,,,,,,,,,,,,,
3448,,directmemory_phase,1423794,,,../static/images/US_Cities_List/racine.png,,,,,51,,,1,0.7272727272727273,../static/images/US_Cities_List/cornwall.png,../static/images/US_Cities_List/boulder.png,../static/images/US_Cities_List/huntsville.png,../static/images/US_Cities_List/huntsville.png,../static/images/US_Cities_List/boulder.png,../static/images/US_Cities_List/cornwall.png,1,,,,,,,,,
null,,html-keyboard-response,1424803,,,<p></p>,,,,,null,,,,,,,,,,,,,,,,,,,,
4241.39999999851,,directmemory_phase,1429109,,,../static/images/US_Cities_List/leesburg.png,,,,,50,,,0,0.6666666666666666,../static/images/US_Cities_List/carmel.png,../static/images/US_Cities_List/gatlinburg.png,../static/images/US_Cities_List/racine.png,../static/images/US_Cities_List/carmel.png,../static/images/US_Cities_List/racine.png,../static/images/US_Cities_List/gatlinburg.png,0.5,closer,,,,,,,,
null,,html-keyboard-response,1430118,,,<p></p>,,,,,null,,,,,,,,,,,,,,,,,,,,
3743.699999999255,,directmemory_phase,1433926,,,../static/images/US_Cities_List/hanover.png,,,,,49,,,1,0.6923076923076923,../static/images/US_Cities_List/cornwall.png,../static/images/US_Cities_List/peoria.png,../static/images/US_Cities_List/boulder.png,../static/images/US_Cities_List/cornwall.png,../static/images/US_Cities_List/boulder.png,../static/images/US_Cities_List/peoria.png,1,,,,,,,,,
null,,html-keyboard-response,1434936,,,<p></p>,,,,,null,,,,,,,,,,,,,,,,,,,,
3006.800000000745,,directmemory_phase,1437982,,,../static/images/US_Cities_List/huntsville.png,,,,,49,,,1,0.7142857142857143,../static/images/US_Cities_List/racine.png,../static/images/US_Cities_List/shreveport.png,../static/images/US_Cities_List/cornwall.png,../static/images/US_Cities_List/racine.png,../static/images/US_Cities_List/cornwall.png,../static/images/US_Cities_List/shreveport.png,1,,,,,,,,,
null,,html-keyboard-response,1438987,,,<p></p>,,,,,null,,,,,,,,,,,,,,,,,,,,
3516.800000000745,,directmemory_phase,1442525,,,../static/images/US_Cities_List/carmel.png,,,,,49,,,0,0.6666666666666666,../static/images/US_Cities_List/hanover.png,../static/images/US_Cities_List/westpalmbeach.png,../static/images/US_Cities_List/leesburg.png,../static/images/US_Cities_List/leesburg.png,../static/images/US_Cities_List/westpalmbeach.png,../static/images/US_Cities_List/hanover.png,0.5,closer,,,,,,,,
null,,html-keyboard-response,1443535,,,<p></p>,,,,,null,,,,,,,,,,,,,,,,,,,,
3267.699999999255,,directmemory_phase,1446872,,,../static/images/US_Cities_List/racine.png,,,,,50,,,1,0.6875,../static/images/US_Cities_List/westpalmbeach.png,../static/images/US_Cities_List/gatlinburg.png,../static/images/US_Cities_List/newhope.png,../static/images/US_Cities_List/gatlinburg.png,../static/images/US_Cities_List/westpalmbeach.png,../static/images/US_Cities_List/newhope.png,1,,,,,,,,,
null,,html-keyboard-response,1447883,,,<p></p>,,,,,null,,,,,,,,,,,,,,,,,,,,
3544.300000000745,,directmemory_phase,1451505,,,../static/images/US_Cities_List/leesburg.png,,,,,51,,,0,0.6470588235294118,../static/images/US_Cities_List/cornwall.png,../static/images/US_Cities_List/shreveport.png,../static/images/US_Cities_List/newhope.png,../static/images/US_Cities_List/cornwall.png,../static/images/US_Cities_List/newhope.png,../static/images/US_Cities_List/shreveport.png,0.5,closer,,,,,,,,
null,,html-keyboard-response,1452516,,,<p></p>,,,,,null,,,,,,,,,,,,,,,,,,,,
4945.29999999702,,directmemory_phase,1457525,,,../static/images/US_Cities_List/gatlinburg.png,,,,,51,,,1,0.6666666666666666,../static/images/US_Cities_List/newhope.png,../static/images/US_Cities_List/peoria.png,../static/images/US_Cities_List/racine.png,../static/images/US_Cities_List/racine.png,../static/images/US_Cities_List/peoria.png,../static/images/US_Cities_List/newhope.png,1,,,,,,,,,
null,,html-keyboard-response,1458534,,,<p></p>,,,,,null,,,,,,,,,,,,,,,,,,,,
3871.5,,directmemory_phase,1462454,,,../static/images/US_Cities_List/cornwall.png,,,,,49,,,1,0.6842105263157895,../static/images/US_Cities_List/leesburg.png,../static/images/US_Cities_List/racine.png,../static/images/US_Cities_List/shreveport.png,../static/images/US_Cities_List/leesburg.png,../static/images/US_Cities_List/shreveport.png,../static/images/US_Cities_List/racine.png,1,,,,,,,,,
null,,html-keyboard-response,1463462,,,<p></p>,,,,,null,,,,,,,,,,,,,,,,,,,,
4600.800000000745,,directmemory_phase,1468132,,,../static/images/US_Cities_List/boulder.png,,,,,50,,,0,0.65,../static/images/US_Cities_List/newhope.png,../static/images/US_Cities_List/gatlinburg.png,../static/images/US_Cities_List/hanover.png,../static/images/US_Cities_List/newhope.png,../static/images/US_Cities_List/hanover.png,../static/images/US_Cities_List/gatlinburg.png,0.5,closer,,,,,,,,
null,,html-keyboard-response,1469140,,,<p></p>,,,,,null,,,,,,,,,,,,,,,,,,,,
4175.199999999255,,directmemory_phase,1473363,,,../static/images/US_Cities_List/leesburg.png,,,,,50,,,0,0.6190476190476191,../static/images/US_Cities_List/huntsville.png,../static/images/US_Cities_List/shreveport.png,../static/images/US_Cities_List/racine.png,../static/images/US_Cities_List/huntsville.png,../static/images/US_Cities_List/racine.png,../static/images/US_Cities_List/shreveport.png,0.5,closer,,,,,,,,
null,,html-keyboard-response,1474371,,,<p></p>,,,,,null,,,,,,,,,,,,,,,,,,,,
4035.300000000745,,directmemory_phase,1478474,,,../static/images/US_Cities_List/hanover.png,,,,,49,,,0,0.5909090909090909,../static/images/US_Cities_List/leesburg.png,../static/images/US_Cities_List/newhope.png,../static/images/US_Cities_List/huntsville.png,../static/images/US_Cities_List/newhope.png,../static/images/US_Cities_List/leesburg.png,../static/images/US_Cities_List/huntsville.png,0.5,closer,,,,,,,,
null,,html-keyboard-response,1479482,,,<p></p>,,,,,null,,,,,,,,,,,,,,,,,,,,
4055.099999997765,,directmemory_phase,1483601,,,../static/images/US_Cities_List/boulder.png,,,,,51,,,0,0.5652173913043478,../static/images/US_Cities_List/huntsville.png,../static/images/US_Cities_List/carmel.png,../static/images/US_Cities_List/leesburg.png,../static/images/US_Cities_List/huntsville.png,../static/images/US_Cities_List/leesburg.png,../static/images/US_Cities_List/carmel.png,0.5,closer,,,,,,,,
null,,html-keyboard-response,1484609,,,<p></p>,,,,,null,,,,,,,,,,,,,,,,,,,,
3602.60000000149,,directmemory_phase,1488277,,,../static/images/US_Cities_List/peoria.png,,,,,49,,,1,0.5833333333333334,../static/images/US_Cities_List/westpalmbeach.png,../static/images/US_Cities_List/hanover.png,../static/images/US_Cities_List/huntsville.png,../static/images/US_Cities_List/westpalmbeach.png,../static/images/US_Cities_List/huntsville.png,../static/images/US_Cities_List/hanover.png,1,,,,,,,,,
null,,html-keyboard-response,1489285,,,<p></p>,,,,,null,,,,,,,,,,,,,,,,,,,,
5294.800000000745,,directmemory_phase,1494603,,,../static/images/US_Cities_List/newhope.png,,,,,49,,,0,0.56,../static/images/US_Cities_List/peoria.png,../static/images/US_Cities_List/huntsville.png,../static/images/US_Cities_List/shreveport.png,../static/images/US_Cities_List/shreveport.png,../static/images/US_Cities_List/huntsville.png,../static/images/US_Cities_List/peoria.png,0.5,closer,,,,,,,,
null,,html-keyboard-response,1495611,,,<p></p>,,,,,null,,,,,,,,,,,,,,,,,,,,
4481.900000002235,,directmemory_phase,1500156,,,../static/images/US_Cities_List/hanover.png,,,,,50,,,0,0.5384615384615384,../static/images/US_Cities_List/hotsprings.png,../static/images/US_Cities_List/carmel.png,../static/images/US_Cities_List/shreveport.png,../static/images/US_Cities_List/hotsprings.png,../static/images/US_Cities_List/shreveport.png,../static/images/US_Cities_List/carmel.png,0.5,closer,,,,,,,,
null,,html-keyboard-response,1501166,,,<p></p>,,,,,null,,,,,,,,,,,,,,,,,,,,
5196,,directmemory_phase,1506444,,,../static/images/US_Cities_List/newhope.png,,,,,51,,,1,0.5555555555555556,../static/images/US_Cities_List/racine.png,../static/images/US_Cities_List/hotsprings.png,../static/images/US_Cities_List/cornwall.png,../static/images/US_Cities_List/cornwall.png,../static/images/US_Cities_List/hotsprings.png,../static/images/US_Cities_List/racine.png,1,,,,,,,,,
null,,html-keyboard-response,1507453,,,<p></p>,,,,,null,,,,,,,,,,,,,,,,,,,,
5652.39999999851,,directmemory_phase,1513175,,,../static/images/US_Cities_List/carmel.png,,,,,50,,,0,0.5357142857142857,../static/images/US_Cities_List/peoria.png,../static/images/US_Cities_List/hotsprings.png,../static/images/US_Cities_List/westpalmbeach.png,../static/images/US_Cities_List/peoria.png,../static/images/US_Cities_List/westpalmbeach.png,../static/images/US_Cities_List/hotsprings.png,0.5,closer,,,,,,,,
null,,html-keyboard-response,1514184,,,<p></p>,,,,,null,,,,,,,,,,,,,,,,,,,,
3521.60000000149,,directmemory_phase,1517777,,,../static/images/US_Cities_List/newhope.png,,,,,49,,,0,0.5172413793103449,../static/images/US_Cities_List/leesburg.png,../static/images/US_Cities_List/boulder.png,../static/images/US_Cities_List/carmel.png,../static/images/US_Cities_List/boulder.png,../static/images/US_Cities_List/leesburg.png,../static/images/US_Cities_List/carmel.png,0.5,closer,,,,,,,,
null,,html-keyboard-response,1518782,,,<p></p>,,,,,null,,,,,,,,,,,,,,,,,,,,
2716.60000000149,,directmemory_phase,1521551,,,../static/images/US_Cities_List/hotsprings.png,,,,,51,,,1,0.5333333333333333,../static/images/US_Cities_List/boulder.png,../static/images/US_Cities_List/cornwall.png,../static/images/US_Cities_List/hanover.png,../static/images/US_Cities_List/hanover.png,../static/images/US_Cities_List/cornwall.png,../static/images/US_Cities_List/boulder.png,1,,,,,,,,,
null,,html-keyboard-response,1522562,,,<p></p>,,,,,null,,,,,,,,,,,,,,,,,,,,
2661.199999999255,,directmemory_phase,1525302,,,../static/images/US_Cities_List/cornwall.png,,,,,49,,,1,0.5483870967741935,../static/images/US_Cities_List/boulder.png,../static/images/US_Cities_List/peoria.png,../static/images/US_Cities_List/carmel.png,../static/images/US_Cities_List/boulder.png,../static/images/US_Cities_List/carmel.png,../static/images/US_Cities_List/peoria.png,1,,,,,,,,,
null,,html-keyboard-response,1526312,,,<p></p>,,,,,null,,,,,,,,,,,,,,,,,,,,
2498.10000000149,,directmemory_phase,1528884,,,../static/images/US_Cities_List/peoria.png,,,,,51,,,1,0.5625,../static/images/US_Cities_List/newhope.png,../static/images/US_Cities_List/leesburg.png,../static/images/US_Cities_List/carmel.png,../static/images/US_Cities_List/carmel.png,../static/images/US_Cities_List/leesburg.png,../static/images/US_Cities_List/newhope.png,1,,,,,,,,,
null,,html-keyboard-response,1529890,,,<p></p>,,,,,null,,,,,,,,,,,,,,,,,,,,
20535.60000000149,,intro_1,1550430,,,instruct,,,0,,,,,,,,,,,,,,,,,,,,,,
12201,,intro_2,1562638,,,instruct,,,1,Next,,,,,,,,,,,,,,,,,,,,,
27167.89999999851,,intro_3,1589812,,,instruct,,,1,Next,,,,,,,,,,,,,,,,,,,,,
20877.400000002235,,intro_4,1610694,,,instruct,,,1,Next,,,,,,,,,,,,,,,,,,,,,
11265.70000000298,,intro_5,1621968,,,instruct,,,1,Next,,,,,,,,,,,,,,,,,,,,,
7054.900000002235,,intro_6,1629030,,,instruct,,,1,Next,,,,,,,,,,,,,,,,,,,,,
15302.900000002235,,intro_7,1644341,,,instruct,,,1,Next,,,,,,,,,,,,,,,,,,,,,
34759.39999999851,,intro_8,1679108,,,instruct,,,1,Next,,,,,,,,,,,,,,,,,,,,,
16582.099999997765,,intro_9,1695698,,,instruct,,,1,Next,,,,,,,,,,,,,,,,,,,,,
30181,,intro_10,1725884,,,instruct,,,1,Next,,,,,,,,,,,,,,,,,,,,,
19177.20000000298,,intro_11,1745070,,,instruct,,,1,Next,,,,,,,,,,,,,,,,,,,,,
5694.5,,shortestpath_phase,1750811,,,../static/images/US_Cities_List/westpalmbeach.png,,,,,50,../static/images/US_Cities_List/shreveport.png,../static/images/US_Cities_List/hanover.png,1,1,,,,../static/images/US_Cities_List/hanover.png,,,,,One Edge Diff,Five Edge Six Edge,,,,,,
null,,html-keyboard-response,1751816,,,<p></p>,,,,,null,,,,,,,,,,,,,,,,,,,,
3074.099999997765,,shortestpath_phase,1754929,,,../static/images/US_Cities_List/racine.png,,,,,49,../static/images/US_Cities_List/carmel.png,../static/images/US_Cities_List/hotsprings.png,1,1,,,,../static/images/US_Cities_List/carmel.png,,,,,Three Edge Diff,Two Edge Five Edge,,,,,,
null,,html-keyboard-response,1755937,,,<p></p>,,,,,null,,,,,,,,,,,,,,,,,,,,
5498,,shortestpath_phase,1761490,,,../static/images/US_Cities_List/gatlinburg.png,,,,,50,../static/images/US_Cities_List/peoria.png,../static/images/US_Cities_List/westpalmbeach.png,0,0.6666666666666666,,,,../static/images/US_Cities_List/peoria.png,,,,,One Edge Diff,Two Edge Three Edge,,,,,,
null,,html-keyboard-response,1762494,,,<p></p>,,,,,null,,,,,,,,,,,,,,,,,,,,
4245,,shortestpath_phase,1766757,,,../static/images/US_Cities_List/shreveport.png,,,,,50,../static/images/US_Cities_List/boulder.png,../static/images/US_Cities_List/westpalmbeach.png,0,0.5,,,,../static/images/US_Cities_List/boulder.png,,,,,Four Edge Diff,Two Edge Six Edge,,,,,,
null,,html-keyboard-response,1767765,,,<p></p>,,,,,null,,,,,,,,,,,,,,,,,,,,
null,,shortestpath_phase,1775324,,,../static/images/US_Cities_List/peoria.png,,,,,null,../static/images/US_Cities_List/cornwall.png,../static/images/US_Cities_List/huntsville.png,0,0.4,,,,../static/images/US_Cities_List/huntsville.png,,,,,One Edge Diff,Two Edge Three Edge,,,,,,
null,,warning_page,1778332,,,warning,,,,,null,,,,,,,,,,,,,,,,,,,,
null,,html-keyboard-response,1779336,,,<p></p>,,,,,null,,,,,,,,,,,,,,,,,,,,
968.3000000007451,,shortestpath_phase,1780378,,,../static/images/US_Cities_List/hotsprings.png,,,,,49,../static/images/US_Cities_List/cornwall.png,../static/images/US_Cities_List/racine.png,1,0.5,,,,../static/images/US_Cities_List/cornwall.png,,,,,Three Edge Diff,Three Edge Six Edge,,,,,,
null,,html-keyboard-response,1781386,,,<p></p>,,,,,null,,,,,,,,,,,,,,,,,,,,
2558.5,,shortestpath_phase,1784001,,,../static/images/US_Cities_List/gatlinburg.png,,,,,50,../static/images/US_Cities_List/newhope.png,../static/images/US_Cities_List/westpalmbeach.png,1,0.5714285714285714,,,,../static/images/US_Cities_List/westpalmbeach.png,,,,,One Edge Diff,Three Edge Four Edge,,,,,,
null,,html-keyboard-response,1785011,,,<p></p>,,,,,null,,,,,,,,,,,,,,,,,,,,
1933.5,,shortestpath_phase,1786991,,,../static/images/US_Cities_List/racine.png,,,,,49,../static/images/US_Cities_List/cornwall.png,../static/images/US_Cities_List/shreveport.png,1,0.625,,,,../static/images/US_Cities_List/cornwall.png,,,,,One Edge Diff,Three Edge Four Edge,,,,,,
null,,html-keyboard-response,1787994,,,<p></p>,,,,,null,,,,,,,,,,,,,,,,,,,,
3454,,shortestpath_phase,1791469,,,../static/images/US_Cities_List/westpalmbeach.png,,,,,50,../static/images/US_Cities_List/huntsville.png,../static/images/US_Cities_List/hanover.png,0,0.5555555555555556,,,,../static/images/US_Cities_List/huntsville.png,,,,,Two Edge Diff,Three Edge Five Edge,,,,,,
null,,html-keyboard-response,1792476,,,<p></p>,,,,,null,,,,,,,,,,,,,,,,,,,,
2277.400000002235,,shortestpath_phase,1794804,,,../static/images/US_Cities_List/peoria.png,,,,,50,../static/images/US_Cities_List/shreveport.png,../static/images/US_Cities_List/gatlinburg.png,1,0.6,,,,../static/images/US_Cities_List/gatlinburg.png,,,,,Three Edge Diff,Two Edge Five Edge,,,,,,
null,,html-keyboard-response,1795812,,,<p></p>,,,,,null,,,,,,,,,,,,,,,,,,,,
2382.900000002235,,shortestpath_phase,1798256,,,../static/images/US_Cities_List/westpalmbeach.png,,,,,49,../static/images/US_Cities_List/cornwall.png,../static/images/US_Cities_List/shreveport.png,1,0.6363636363636364,,,,../static/images/US_Cities_List/cornwall.png,,,,,Two Edge Diff,Four Edge Six Edge,,,,,,
null,,html-keyboard-response,1799261,,,<p></p>,,,,,null,,,,,,,,,,,,,,,,,,,,
2419.89999999851,,shortestpath_phase,1801730,,,../static/images/US_Cities_List/gatlinburg.png,,,,,50,../static/images/US_Cities_List/hotsprings.png,../static/images/US_Cities_List/newhope.png,1,0.6666666666666666,,,,../static/images/US_Cities_List/newhope.png,,,,,Two Edge Diff,Four Edge Six Edge,,,,,,
null,,html-keyboard-response,1802737,,,<p></p>,,,,,null,,,,,,,,,,,,,,,,,,,,
