rt,responses,trial_type,time_elapsed,image_type,sequence,stimulus,cities,city_images,button_pressed,response,key_press,stimulus_left,stimulus_right,accuracy,cumulative_accuracy,stimulus_down_left,stimulus_down_mid,stimulus_down_right,stimulus_correct,stimulus_short,stimulus_far,weighted_accuracy,missedtrial,condition,specific_pairs,imgL_ID,imgR_ID,linedress,linedressed,detour_trial,linedressed_detor
12384.5,{worker_id:5b8c611e4cd6dd0001bec307},id_enter,12388,fictional,interleaved,flights,Hawthorne Bluffs; Delaro Park; North Arroya; Sunmere; Riverlyn; Baymarsh; Claywater; Cedarwyn; Orchard Bend; New Verdan; Juniper Creek; Hollendale; Granton Ridge,US_Cities_List/shreveport.png; US_Cities_List/cornwall.png; US_Cities_List/newhope.png; US_Cities_List/hotsprings.png; US_Cities_List/westpalmbeach.png; US_Cities_List/leesburg.png; US_Cities_List/boulder.png; US_Cities_List/huntsville.png; US_Cities_List/peoria.png; US_Cities_List/racine.png; US_Cities_List/gatlinburg.png; US_Cities_List/carmel.png; US_Cities_List/hanover.png,,,,,,,,,,,,,,,,,,,,,,,
40119.200000000186,,fullscreen,52514,,,make_fullscreen,,,0,,,,,,,,,,,,,,,,,,,,,,
29623.59999999986,,intro_1,82141,,,instruct,,,0,,,,,,,,,,,,,,,,,,,,,,
17894.09999999986,,intro_2,100038,,,instruct,,,1,Next,,,,,,,,,,,,,,,,,,,,,
24434.100000000093,,intro_3,124476,,,instruct,,,1,Next,,,,,,,,,,,,,,,,,,,,,
2627.899999999907,,intro_4,127106,,,instruct,,,1,Next,,,,,,,,,,,,,,,,,,,,,
21063.5,,intro_5,148171,,,instruct,,,1,Next,,,,,,,,,,,,,,,,,,,,,
49831.39999999991,,intro_6,198005,,,instruct,,,1,Next,,,,,,,,,,,,,,,,,,,,,
16592.200000000186,,intro_7,214600,,,instruct,,,1,Next,,,,,,,,,,,,,,,,,,,,,
null,,learn_prac_1,217610,,,lean_prac_1,,,,,null,,,,,,,,,,,,,,,,,,,,
null,,html-keyboard-response,218616,,,<p></p>,,,,,null,,,,,,,,,,,,,,,,,,,,
10602.100000000093,,intro_1,229220,,,instruct,,,0,,,,,,,,,,,,,,,,,,,,,,
10213.899999999907,,intro_2,239437,,,instruct,,,1,Next,,,,,,,,,,,,,,,,,,,,,
null,,learn_prac_2,242443,,,lean_prac_2,,,,,null,,,,,,,,,,,,,,,,,,,,
null,,html-keyboard-response,243459,,,<p></p>,,,,,null,,,,,,,,,,,,,,,,,,,,
9962.299999999814,,intro_1,253423,,,instruct,,,0,,,,,,,,,,,,,,,,,,,,,,
7517.199999999721,,intro_2,260942,,,instruct,,,1,Next,,,,,,,,,,,,,,,,,,,,,
38996,,intro_3,299941,,,instruct,,,1,Next,,,,,,,,,,,,,,,,,,,,,
null,,prac_atten_color_black,300614,,,black_plus_sign,,,,,null,,,,,,,,,,,,,,,,,,,,
null,,prac_atten_color,301359,,,prac_stop_color,,,,,null,,,,,,,,,,,,,,,,,,,,
null,,prac_atten_color_black,303361,,,black_plus_sign,,,,,null,,,,,,,,,,,,,,,,,,,,
9540.399999999907,,attentioncheck_help,312904,,,instruct,,,,,32,,,,,,,,,,,,,,,,,,,,
null,,prac_atten_color_black,313574,,,black_plus_sign,,,,,null,,,,,,,,,,,,,,,,,,,,
null,,prac_atten_color,314026,,,prac_stop_color,,,,,null,,,,,,,,,,,,,,,,,,,,
273.10000000009313,,prac_atten_color_black,316030,,,black_plus_sign,,,,,50,,,,,,,,,,,,,,,,,,,,
null,,prac_atten_color_black,316992,,,black_plus_sign,,,,,null,,,,,,,,,,,,,,,,,,,,
null,,prac_atten_color,317575,,,prac_stop_color,,,,,null,,,,,,,,,,,,,,,,,,,,
414.5,,prac_atten_color_black,319576,,,black_plus_sign,,,,,50,,,,,,,,,,,,,,,,,,,,
null,,prac_atten_color_black,320409,,,black_plus_sign,,,,,null,,,,,,,,,,,,,,,,,,,,
null,,prac_atten_color,320900,,,prac_stop_color,,,,,null,,,,,,,,,,,,,,,,,,,,
376.79999999981374,,prac_atten_color_black,322907,,,black_plus_sign,,,,,49,,,,,,,,,,,,,,,,,,,,
null,,prac_atten_color_black,323837,,,black_plus_sign,,,,,null,,,,,,,,,,,,,,,,,,,,
761.6999999997206,,prac_atten_color,324729,,,prac_stop_color,,,,,50,,,,,,,,,,,,,,,,,,,,
null,,prac_atten_color_black,326737,,,black_plus_sign,,,,,null,,,,,,,,,,,,,,,,,,,,
null,,prac_atten_color_black,327257,,,black_plus_sign,,,,,null,,,,,,,,,,,,,,,,,,,,
574.6999999997206,,prac_atten_color,327995,,,prac_stop_color,,,,,50,,,,,,,,,,,,,,,,,,,,
null,,prac_atten_color_black,329998,,,black_plus_sign,,,,,null,,,,,,,,,,,,,,,,,,,,
null,,prac_atten_color_black,330674,,,black_plus_sign,,,,,null,,,,,,,,,,,,,,,,,,,,
531.1999999997206,,prac_atten_color,331343,,,prac_stop_color,,,,,49,,,,,,,,,,,,,,,,,,,,
null,,prac_atten_color_black,333345,,,black_plus_sign,,,,,null,,,,,,,,,,,,,,,,,,,,
null,,prac_atten_color_black,334099,,,black_plus_sign,,,,,null,,,,,,,,,,,,,,,,,,,,
null,,prac_atten_color,334528,,,prac_stop_color,,,,,null,,,,,,,,,,,,,,,,,,,,
36.799999999813735,,prac_atten_color_black,336545,,,black_plus_sign,,,,,50,,,,,,,,,,,,,,,,,,,,
null,,prac_atten_color_black,337528,,,black_plus_sign,,,,,null,,,,,,,,,,,,,,,,,,,,
401,,prac_atten_color,337970,,,prac_stop_color,,,,,50,,,,,,,,,,,,,,,,,,,,
null,,prac_atten_color_black,339978,,,black_plus_sign,,,,,null,,,,,,,,,,,,,,,,,,,,
7358.799999999814,,attentioncheck_help,347339,,,instruct,,,,,32,,,,,,,,,,,,,,,,,,,,
null,,prac_atten_color_black,348309,,,black_plus_sign,,,,,null,,,,,,,,,,,,,,,,,,,,
762.5,,prac_atten_color,349222,,,prac_stop_color,,,,,49,,,,,,,,,,,,,,,,,,,,
null,,prac_atten_color_black,351230,,,black_plus_sign,,,,,null,,,,,,,,,,,,,,,,,,,,
12161.19999999972,,attentioncheck_feedback,363394,,,cross_check_feedback,,,0,,,,,,,,,,,,,,,,,,,,,,
11722.599999999627,,last_instruct,375117,,,instruct,,,,,32,,,,,,,,,,,,,,,,,,,,
null,,learn_phase(without_color),378130,,,black_plus_sign,,,,,null,US_Cities_List/peoria.png,US_Cities_List/boulder.png,,,,,,,,,,,,,,,,,,
null,,black_cross(without_color),378870,,,yellow,,,,,null,US_Cities_List/peoria.png,US_Cities_List/boulder.png,,,,,,,,,,,,,,,,,,
null,,rt_plussign_withcolor,379380,,,yellow,,,,,null,US_Cities_List/peoria.png,US_Cities_List/boulder.png,,,,,,,,,,,,,,,,,,
1505.6999999997206,,rt_thecrossant_black,380645,,,black_plus_sign,,,,,50,,,1,1,,,,,,,,,,,,,,,,
null,,color_black,380752,,,black_plus_sign,,,,,null,,,,,,,,,,,,,,,,,,,,
null,,learn_phase(without_color),383769,,,black_plus_sign,,,,,null,US_Cities_List/boulder.png,US_Cities_List/hanover.png,,,,,,,,,,,,,,,,,,
null,,black_cross(without_color),384568,,,blue,,,,,null,US_Cities_List/boulder.png,US_Cities_List/hanover.png,,,,,,,,,,,,,,,,,,
null,,rt_plussign_withcolor,385072,,,blue,,,,,null,US_Cities_List/boulder.png,US_Cities_List/hanover.png,,,,,,,,,,,,,,,,,,
782.5999999996275,,rt_thecrossant_black,386284,,,black_plus_sign,,,,,49,,,1,1,,,,,,,,,,,,,,,,
null,,color_black,386393,,,black_plus_sign,,,,,null,,,,,,,,,,,,,,,,,,,,
null,,learn_phase(without_color),389409,,,black_plus_sign,,,,,null,US_Cities_List/racine.png,US_Cities_List/huntsville.png,,,,,,,,,,,,,,,,,,
null,,black_cross(without_color),390193,,,blue,,,,,null,US_Cities_List/racine.png,US_Cities_List/huntsville.png,,,,,,,,,,,,,,,,,,
null,,rt_plussign_withcolor,390696,,,blue,,,,,null,US_Cities_List/racine.png,US_Cities_List/huntsville.png,,,,,,,,,,,,,,,,,,
1234.2000000001863,,rt_thecrossant_black,391922,,,black_plus_sign,,,,,49,,,1,1,,,,,,,,,,,,,,,,
null,,color_black,392028,,,black_plus_sign,,,,,null,,,,,,,,,,,,,,,,,,,,
null,,learn_phase(without_color),395047,,,black_plus_sign,,,,,null,US_Cities_List/leesburg.png,US_Cities_List/peoria.png,,,,,,,,,,,,,,,,,,
null,,black_cross(without_color),395721,,,yellow,,,,,null,US_Cities_List/leesburg.png,US_Cities_List/peoria.png,,,,,,,,,,,,,,,,,,
null,,rt_plussign_withcolor,396231,,,yellow,,,,,null,US_Cities_List/leesburg.png,US_Cities_List/peoria.png,,,,,,,,,,,,,,,,,,
1238.4000000003725,,rt_thecrossant_black,397574,,,black_plus_sign,,,,,50,,,1,1,,,,,,,,,,,,,,,,
null,,color_black,397679,,,black_plus_sign,,,,,null,,,,,,,,,,,,,,,,,,,,
null,,learn_phase(without_color),400695,,,black_plus_sign,,,,,null,US_Cities_List/hotsprings.png,US_Cities_List/cornwall.png,,,,,,,,,,,,,,,,,,
null,,black_cross(without_color),401740,,,yellow,,,,,null,US_Cities_List/hotsprings.png,US_Cities_List/cornwall.png,,,,,,,,,,,,,,,,,,
null,,rt_plussign_withcolor,402243,,,yellow,,,,,null,US_Cities_List/hotsprings.png,US_Cities_List/cornwall.png,,,,,,,,,,,,,,,,,,
1076.8999999999069,,rt_thecrossant_black,403212,,,black_plus_sign,,,,,50,,,1,1,,,,,,,,,,,,,,,,
null,,color_black,403329,,,black_plus_sign,,,,,null,,,,,,,,,,,,,,,,,,,,
null,,learn_phase(without_color),406348,,,black_plus_sign,,,,,null,US_Cities_List/peoria.png,US_Cities_List/gatlinburg.png,,,,,,,,,,,,,,,,,,
null,,black_cross(without_color),407061,,,yellow,,,,,null,US_Cities_List/peoria.png,US_Cities_List/gatlinburg.png,,,,,,,,,,,,,,,,,,
null,,rt_plussign_withcolor,407564,,,yellow,,,,,null,US_Cities_List/peoria.png,US_Cities_List/gatlinburg.png,,,,,,,,,,,,,,,,,,
1737.2000000001863,,rt_thecrossant_black,408859,,,black_plus_sign,,,,,50,,,1,1,,,,,,,,,,,,,,,,
null,,color_black,408968,,,black_plus_sign,,,,,null,,,,,,,,,,,,,,,,,,,,
null,,learn_phase(without_color),411990,,,black_plus_sign,,,,,null,US_Cities_List/carmel.png,US_Cities_List/gatlinburg.png,,,,,,,,,,,,,,,,,,
null,,black_cross(without_color),412635,,,blue,,,,,null,US_Cities_List/carmel.png,US_Cities_List/gatlinburg.png,,,,,,,,,,,,,,,,,,
null,,rt_plussign_withcolor,413146,,,blue,,,,,null,US_Cities_List/carmel.png,US_Cities_List/gatlinburg.png,,,,,,,,,,,,,,,,,,
1260.3000000002794,,rt_thecrossant_black,414510,,,black_plus_sign,,,,,49,,,1,1,,,,,,,,,,,,,,,,
null,,color_black,414627,,,black_plus_sign,,,,,null,,,,,,,,,,,,,,,,,,,,
null,,learn_phase(without_color),417645,,,black_plus_sign,,,,,null,US_Cities_List/gatlinburg.png,US_Cities_List/peoria.png,,,,,,,,,,,,,,,,,,
null,,black_cross(without_color),418750,,,yellow,,,,,null,US_Cities_List/gatlinburg.png,US_Cities_List/peoria.png,,,,,,,,,,,,,,,,,,
null,,rt_plussign_withcolor,419254,,,yellow,,,,,null,US_Cities_List/gatlinburg.png,US_Cities_List/peoria.png,,,,,,,,,,,,,,,,,,
1437.7000000001863,,rt_thecrossant_black,420159,,,black_plus_sign,,,,,50,,,1,1,,,,,,,,,,,,,,,,
null,,color_black,420264,,,black_plus_sign,,,,,null,,,,,,,,,,,,,,,,,,,,
null,,learn_phase(without_color),423277,,,black_plus_sign,,,,,null,US_Cities_List/boulder.png,US_Cities_List/huntsville.png,,,,,,,,,,,,,,,,,,
null,,black_cross(without_color),423889,,,yellow,,,,,null,US_Cities_List/boulder.png,US_Cities_List/huntsville.png,,,,,,,,,,,,,,,,,,
null,,rt_plussign_withcolor,424396,,,yellow,,,,,null,US_Cities_List/boulder.png,US_Cities_List/huntsville.png,,,,,,,,,,,,,,,,,,
2114,,rt_thecrossant_black,425798,,,black_plus_sign,,,,,50,,,1,1,,,,,,,,,,,,,,,,
null,,color_black,425908,,,black_plus_sign,,,,,null,,,,,,,,,,,,,,,,,,,,
null,,learn_phase(without_color),428929,,,black_plus_sign,,,,,null,US_Cities_List/gatlinburg.png,US_Cities_List/carmel.png,,,,,,,,,,,,,,,,,,
null,,black_cross(without_color),429382,,,yellow,,,,,null,US_Cities_List/gatlinburg.png,US_Cities_List/carmel.png,,,,,,,,,,,,,,,,,,
null,,rt_plussign_withcolor,429889,,,yellow,,,,,null,US_Cities_List/gatlinburg.png,US_Cities_List/carmel.png,,,,,,,,,,,,,,,,,,
1155.1999999997206,,rt_thecrossant_black,431443,,,black_plus_sign,,,,,50,,,1,1,,,,,,,,,,,,,,,,
null,,color_black,431547,,,black_plus_sign,,,,,null,,,,,,,,,,,,,,,,,,,,
null,,learn_phase(without_color),434568,,,black_plus_sign,,,,,null,US_Cities_List/hotsprings.png,US_Cities_List/cornwall.png,,,,,,,,,,,,,,,,,,
null,,black_cross(without_color),435538,,,blue,,,,,null,US_Cities_List/hotsprings.png,US_Cities_List/cornwall.png,,,,,,,,,,,,,,,,,,
null,,rt_plussign_withcolor,436045,,,blue,,,,,null,US_Cities_List/hotsprings.png,US_Cities_List/cornwall.png,,,,,,,,,,,,,,,,,,
1455.2000000001863,,rt_thecrossant_black,437084,,,black_plus_sign,,,,,49,,,1,1,,,,,,,,,,,,,,,,
null,,color_black,437191,,,black_plus_sign,,,,,null,,,,,,,,,,,,,,,,,,,,
null,,learn_phase(without_color),440224,,,black_plus_sign,,,,,null,US_Cities_List/newhope.png,US_Cities_List/cornwall.png,,,,,,,,,,,,,,,,,,
null,,black_cross(without_color),440931,,,yellow,,,,,null,US_Cities_List/newhope.png,US_Cities_List/cornwall.png,,,,,,,,,,,,,,,,,,
null,,rt_plussign_withcolor,441441,,,yellow,,,,,null,US_Cities_List/newhope.png,US_Cities_List/cornwall.png,,,,,,,,,,,,,,,,,,
1278.2999999998137,,rt_thecrossant_black,442747,,,black_plus_sign,,,,,50,,,1,1,,,,,,,,,,,,,,,,
null,,color_black,442863,,,black_plus_sign,,,,,null,,,,,,,,,,,,,,,,,,,,
null,,learn_phase(without_color),445881,,,black_plus_sign,,,,,null,US_Cities_List/peoria.png,US_Cities_List/huntsville.png,,,,,,,,,,,,,,,,,,
null,,black_cross(without_color),446462,,,yellow,,,,,null,US_Cities_List/peoria.png,US_Cities_List/huntsville.png,,,,,,,,,,,,,,,,,,
null,,rt_plussign_withcolor,446966,,,yellow,,,,,null,US_Cities_List/peoria.png,US_Cities_List/huntsville.png,,,,,,,,,,,,,,,,,,
1268.3000000002794,,rt_thecrossant_black,448403,,,black_plus_sign,,,,,50,,,1,1,,,,,,,,,,,,,,,,
null,,color_black,448514,,,black_plus_sign,,,,,null,,,,,,,,,,,,,,,,,,,,
null,,learn_phase(without_color),451539,,,black_plus_sign,,,,,null,US_Cities_List/huntsville.png,US_Cities_List/peoria.png,,,,,,,,,,,,,,,,,,
null,,black_cross(without_color),452268,,,blue,,,,,null,US_Cities_List/huntsville.png,US_Cities_List/peoria.png,,,,,,,,,,,,,,,,,,
null,,rt_plussign_withcolor,452772,,,blue,,,,,null,US_Cities_List/huntsville.png,US_Cities_List/peoria.png,,,,,,,,,,,,,,,,,,
1175.2000000001863,,rt_thecrossant_black,454048,,,black_plus_sign,,,,,49,,,1,1,,,,,,,,,,,,,,,,
null,,color_black,454162,,,black_plus_sign,,,,,null,,,,,,,,,,,,,,,,,,,,
null,,learn_phase(without_color),457181,,,black_plus_sign,,,,,null,US_Cities_List/peoria.png,US_Cities_List/gatlinburg.png,,,,,,,,,,,,,,,,,,
null,,black_cross(without_color),458273,,,blue,,,,,null,US_Cities_List/peoria.png,US_Cities_List/gatlinburg.png,,,,,,,,,,,,,,,,,,
null,,rt_plussign_withcolor,458788,,,blue,,,,,null,US_Cities_List/peoria.png,US_Cities_List/gatlinburg.png,,,,,,,,,,,,,,,,,,
1676.8999999999069,,rt_thecrossant_black,459711,,,black_plus_sign,,,,,49,,,1,1,,,,,,,,,,,,,,,,
null,,color_black,459818,,,black_plus_sign,,,,,null,,,,,,,,,,,,,,,,,,,,
null,,learn_phase(without_color),462838,,,black_plus_sign,,,,,null,US_Cities_List/newhope.png,US_Cities_List/cornwall.png,,,,,,,,,,,,,,,,,,
null,,black_cross(without_color),463655,,,yellow,,,,,null,US_Cities_List/newhope.png,US_Cities_List/cornwall.png,,,,,,,,,,,,,,,,,,
null,,rt_plussign_withcolor,464158,,,yellow,,,,,null,US_Cities_List/newhope.png,US_Cities_List/cornwall.png,,,,,,,,,,,,,,,,,,
1462.5999999996275,,rt_thecrossant_black,465363,,,black_plus_sign,,,,,50,,,1,1,,,,,,,,,,,,,,,,
null,,color_black,465472,,,black_plus_sign,,,,,null,,,,,,,,,,,,,,,,,,,,
null,,learn_phase(without_color),468489,,,black_plus_sign,,,,,null,US_Cities_List/boulder.png,US_Cities_List/peoria.png,,,,,,,,,,,,,,,,,,
null,,black_cross(without_color),469429,,,yellow,,,,,null,US_Cities_List/boulder.png,US_Cities_List/peoria.png,,,,,,,,,,,,,,,,,,
null,,rt_plussign_withcolor,469934,,,yellow,,,,,null,US_Cities_List/boulder.png,US_Cities_List/peoria.png,,,,,,,,,,,,,,,,,,
1196.3999999999069,,rt_thecrossant_black,471010,,,black_plus_sign,,,,,50,,,1,1,,,,,,,,,,,,,,,,
null,,color_black,471119,,,black_plus_sign,,,,,null,,,,,,,,,,,,,,,,,,,,
null,,learn_phase(without_color),474137,,,black_plus_sign,,,,,null,US_Cities_List/peoria.png,US_Cities_List/leesburg.png,,,,,,,,,,,,,,,,,,
null,,black_cross(without_color),474921,,,blue,,,,,null,US_Cities_List/peoria.png,US_Cities_List/leesburg.png,,,,,,,,,,,,,,,,,,
null,,rt_plussign_withcolor,475428,,,blue,,,,,null,US_Cities_List/peoria.png,US_Cities_List/leesburg.png,,,,,,,,,,,,,,,,,,
1209.3999999999069,,rt_thecrossant_black,476660,,,black_plus_sign,,,,,49,,,1,1,,,,,,,,,,,,,,,,
null,,color_black,476770,,,black_plus_sign,,,,,null,,,,,,,,,,,,,,,,,,,,
null,,learn_phase(without_color),479790,,,black_plus_sign,,,,,null,US_Cities_List/carmel.png,US_Cities_List/hotsprings.png,,,,,,,,,,,,,,,,,,
null,,black_cross(without_color),480590,,,blue,,,,,null,US_Cities_List/carmel.png,US_Cities_List/hotsprings.png,,,,,,,,,,,,,,,,,,
null,,rt_plussign_withcolor,481095,,,blue,,,,,null,US_Cities_List/carmel.png,US_Cities_List/hotsprings.png,,,,,,,,,,,,,,,,,,
1217.2000000001863,,rt_thecrossant_black,482309,,,black_plus_sign,,,,,49,,,1,1,,,,,,,,,,,,,,,,
null,,color_black,482419,,,black_plus_sign,,,,,null,,,,,,,,,,,,,,,,,,,,
null,,learn_phase(without_color),485442,,,black_plus_sign,,,,,null,US_Cities_List/leesburg.png,US_Cities_List/newhope.png,,,,,,,,,,,,,,,,,,
null,,black_cross(without_color),486545,,,blue,,,,,null,US_Cities_List/leesburg.png,US_Cities_List/newhope.png,,,,,,,,,,,,,,,,,,
null,,rt_plussign_withcolor,487047,,,blue,,,,,null,US_Cities_List/leesburg.png,US_Cities_List/newhope.png,,,,,,,,,,,,,,,,,,
1221.8999999999069,,rt_thecrossant_black,487959,,,black_plus_sign,,,,,49,,,1,1,,,,,,,,,,,,,,,,
null,,color_black,488067,,,black_plus_sign,,,,,null,,,,,,,,,,,,,,,,,,,,
null,,learn_phase(without_color),491083,,,black_plus_sign,,,,,null,US_Cities_List/gatlinburg.png,US_Cities_List/newhope.png,,,,,,,,,,,,,,,,,,
null,,black_cross(without_color),491828,,,yellow,,,,,null,US_Cities_List/gatlinburg.png,US_Cities_List/newhope.png,,,,,,,,,,,,,,,,,,
null,,rt_plussign_withcolor,492341,,,yellow,,,,,null,US_Cities_List/gatlinburg.png,US_Cities_List/newhope.png,,,,,,,,,,,,,,,,,,
2021.1000000000931,,rt_thecrossant_black,493601,,,black_plus_sign,,,,,50,,,1,1,,,,,,,,,,,,,,,,
null,,color_black,493715,,,black_plus_sign,,,,,null,,,,,,,,,,,,,,,,,,,,
null,,learn_phase(without_color),496725,,,black_plus_sign,,,,,null,US_Cities_List/huntsville.png,US_Cities_List/racine.png,,,,,,,,,,,,,,,,,,
null,,black_cross(without_color),497470,,,blue,,,,,null,US_Cities_List/huntsville.png,US_Cities_List/racine.png,,,,,,,,,,,,,,,,,,
null,,rt_plussign_withcolor,497980,,,blue,,,,,null,US_Cities_List/huntsville.png,US_Cities_List/racine.png,,,,,,,,,,,,,,,,,,
1083.3000000002794,,rt_thecrossant_black,499247,,,black_plus_sign,,,,,49,,,1,1,,,,,,,,,,,,,,,,
null,,color_black,499350,,,black_plus_sign,,,,,null,,,,,,,,,,,,,,,,,,,,
null,,learn_phase(without_color),502372,,,black_plus_sign,,,,,null,US_Cities_List/newhope.png,US_Cities_List/cornwall.png,,,,,,,,,,,,,,,,,,
null,,black_cross(without_color),503093,,,yellow,,,,,null,US_Cities_List/newhope.png,US_Cities_List/cornwall.png,,,,,,,,,,,,,,,,,,
null,,rt_plussign_withcolor,503596,,,yellow,,,,,null,US_Cities_List/newhope.png,US_Cities_List/cornwall.png,,,,,,,,,,,,,,,,,,
1516.8000000002794,,rt_thecrossant_black,504888,,,black_plus_sign,,,,,50,,,1,1,,,,,,,,,,,,,,,,
null,,color_black,505007,,,black_plus_sign,,,,,null,,,,,,,,,,,,,,,,,,,,
null,,learn_phase(without_color),508019,,,black_plus_sign,,,,,null,US_Cities_List/peoria.png,US_Cities_List/huntsville.png,,,,,,,,,,,,,,,,,,
null,,black_cross(without_color),508629,,,yellow,,,,,null,US_Cities_List/peoria.png,US_Cities_List/huntsville.png,,,,,,,,,,,,,,,,,,
null,,rt_plussign_withcolor,509136,,,yellow,,,,,null,US_Cities_List/peoria.png,US_Cities_List/huntsville.png,,,,,,,,,,,,,,,,,,
1117.9000000003725,,rt_thecrossant_black,510543,,,black_plus_sign,,,,,50,,,1,1,,,,,,,,,,,,,,,,
null,,color_black,510660,,,black_plus_sign,,,,,null,,,,,,,,,,,,,,,,,,,,
null,,learn_phase(without_color),513679,,,black_plus_sign,,,,,null,US_Cities_List/boulder.png,US_Cities_List/peoria.png,,,,,,,,,,,,,,,,,,
null,,black_cross(without_color),514450,,,yellow,,,,,null,US_Cities_List/boulder.png,US_Cities_List/peoria.png,,,,,,,,,,,,,,,,,,
null,,rt_plussign_withcolor,514956,,,yellow,,,,,null,US_Cities_List/boulder.png,US_Cities_List/peoria.png,,,,,,,,,,,,,,,,,,
1562.1999999997206,,rt_thecrossant_black,516194,,,black_plus_sign,,,,,50,,,1,1,,,,,,,,,,,,,,,,
null,,color_black,516303,,,black_plus_sign,,,,,null,,,,,,,,,,,,,,,,,,,,
null,,learn_phase(without_color),519323,,,black_plus_sign,,,,,null,US_Cities_List/carmel.png,US_Cities_List/gatlinburg.png,,,,,,,,,,,,,,,,,,
null,,black_cross(without_color),519795,,,yellow,,,,,null,US_Cities_List/carmel.png,US_Cities_List/gatlinburg.png,,,,,,,,,,,,,,,,,,
null,,rt_plussign_withcolor,520299,,,yellow,,,,,null,US_Cities_List/carmel.png,US_Cities_List/gatlinburg.png,,,,,,,,,,,,,,,,,,
1072.2000000001863,,rt_thecrossant_black,521841,,,black_plus_sign,,,,,50,,,1,1,,,,,,,,,,,,,,,,
null,,color_black,521948,,,black_plus_sign,,,,,null,,,,,,,,,,,,,,,,,,,,
null,,learn_phase(without_color),524964,,,black_plus_sign,,,,,null,US_Cities_List/peoria.png,US_Cities_List/huntsville.png,,,,,,,,,,,,,,,,,,
null,,black_cross(without_color),525588,,,blue,,,,,null,US_Cities_List/peoria.png,US_Cities_List/huntsville.png,,,,,,,,,,,,,,,,,,
null,,rt_plussign_withcolor,526092,,,blue,,,,,null,US_Cities_List/peoria.png,US_Cities_List/huntsville.png,,,,,,,,,,,,,,,,,,
1217.5,,rt_thecrossant_black,527491,,,black_plus_sign,,,,,50,,,0,0.9629629629629629,,,,,,,,,,,,,,,,
null,,color_black,527599,,,black_plus_sign,,,,,null,,,,,,,,,,,,,,,,,,,,
null,,learn_phase(without_color),530624,,,black_plus_sign,,,,,null,US_Cities_List/cornwall.png,US_Cities_List/shreveport.png,,,,,,,,,,,,,,,,,,
null,,black_cross(without_color),531340,,,blue,,,,,null,US_Cities_List/cornwall.png,US_Cities_List/shreveport.png,,,,,,,,,,,,,,,,,,
null,,rt_plussign_withcolor,531851,,,blue,,,,,null,US_Cities_List/cornwall.png,US_Cities_List/shreveport.png,,,,,,,,,,,,,,,,,,
1042.3000000002794,,rt_thecrossant_black,533154,,,black_plus_sign,,,,,49,,,1,0.9642857142857143,,,,,,,,,,,,,,,,
null,,color_black,533269,,,black_plus_sign,,,,,null,,,,,,,,,,,,,,,,,,,,
null,,learn_phase(without_color),536298,,,black_plus_sign,,,,,null,US_Cities_List/carmel.png,US_Cities_List/gatlinburg.png,,,,,,,,,,,,,,,,,,
null,,black_cross(without_color),537210,,,blue,,,,,null,US_Cities_List/carmel.png,US_Cities_List/gatlinburg.png,,,,,,,,,,,,,,,,,,
null,,rt_plussign_withcolor,537714,,,blue,,,,,null,US_Cities_List/carmel.png,US_Cities_List/gatlinburg.png,,,,,,,,,,,,,,,,,,
1225.6000000000931,,rt_thecrossant_black,538816,,,black_plus_sign,,,,,49,,,1,0.9655172413793104,,,,,,,,,,,,,,,,
null,,color_black,538923,,,black_plus_sign,,,,,null,,,,,,,,,,,,,,,,,,,,
null,,learn_phase(without_color),541945,,,black_plus_sign,,,,,null,US_Cities_List/cornwall.png,US_Cities_List/newhope.png,,,,,,,,,,,,,,,,,,
null,,black_cross(without_color),542853,,,blue,,,,,null,US_Cities_List/cornwall.png,US_Cities_List/newhope.png,,,,,,,,,,,,,,,,,,
null,,rt_plussign_withcolor,543359,,,blue,,,,,null,US_Cities_List/cornwall.png,US_Cities_List/newhope.png,,,,,,,,,,,,,,,,,,
1419,,rt_thecrossant_black,544469,,,black_plus_sign,,,,,49,,,1,0.9666666666666667,,,,,,,,,,,,,,,,
null,,color_black,544577,,,black_plus_sign,,,,,null,,,,,,,,,,,,,,,,,,,,
null,,learn_phase(without_color),547589,,,black_plus_sign,,,,,null,US_Cities_List/boulder.png,US_Cities_List/huntsville.png,,,,,,,,,,,,,,,,,,
null,,black_cross(without_color),548452,,,blue,,,,,null,US_Cities_List/boulder.png,US_Cities_List/huntsville.png,,,,,,,,,,,,,,,,,,
null,,rt_plussign_withcolor,548958,,,blue,,,,,null,US_Cities_List/boulder.png,US_Cities_List/huntsville.png,,,,,,,,,,,,,,,,,,
1173.2000000001863,,rt_thecrossant_black,550117,,,black_plus_sign,,,,,49,,,1,0.967741935483871,,,,,,,,,,,,,,,,
null,,color_black,550232,,,black_plus_sign,,,,,null,,,,,,,,,,,,,,,,,,,,
null,,learn_phase(without_color),553249,,,black_plus_sign,,,,,null,US_Cities_List/gatlinburg.png,US_Cities_List/carmel.png,,,,,,,,,,,,,,,,,,
null,,black_cross(without_color),553686,,,blue,,,,,null,US_Cities_List/gatlinburg.png,US_Cities_List/carmel.png,,,,,,,,,,,,,,,,,,
null,,rt_plussign_withcolor,554192,,,blue,,,,,null,US_Cities_List/gatlinburg.png,US_Cities_List/carmel.png,,,,,,,,,,,,,,,,,,
1260.6000000000931,,rt_thecrossant_black,555777,,,black_plus_sign,,,,,49,,,1,0.96875,,,,,,,,,,,,,,,,
null,,color_black,555884,,,black_plus_sign,,,,,null,,,,,,,,,,,,,,,,,,,,
null,,learn_phase(without_color),558900,,,black_plus_sign,,,,,null,US_Cities_List/carmel.png,US_Cities_List/hotsprings.png,,,,,,,,,,,,,,,,,,
null,,black_cross(without_color),559575,,,yellow,,,,,null,US_Cities_List/carmel.png,US_Cities_List/hotsprings.png,,,,,,,,,,,,,,,,,,
null,,rt_plussign_withcolor,560082,,,yellow,,,,,null,US_Cities_List/carmel.png,US_Cities_List/hotsprings.png,,,,,,,,,,,,,,,,,,
1273.8000000002794,,rt_thecrossant_black,561415,,,black_plus_sign,,,,,50,,,1,0.9696969696969697,,,,,,,,,,,,,,,,
null,,color_black,561522,,,black_plus_sign,,,,,null,,,,,,,,,,,,,,,,,,,,
null,,learn_phase(without_color),564537,,,black_plus_sign,,,,,null,US_Cities_List/peoria.png,US_Cities_List/boulder.png,,,,,,,,,,,,,,,,,,
null,,black_cross(without_color),565524,,,yellow,,,,,null,US_Cities_List/peoria.png,US_Cities_List/boulder.png,,,,,,,,,,,,,,,,,,
null,,rt_plussign_withcolor,566031,,,yellow,,,,,null,US_Cities_List/peoria.png,US_Cities_List/boulder.png,,,,,,,,,,,,,,,,,,
938.2000000001863,,rt_thecrossant_black,567066,,,black_plus_sign,,,,,50,,,1,0.9705882352941176,,,,,,,,,,,,,,,,
null,,color_black,567171,,,black_plus_sign,,,,,null,,,,,,,,,,,,,,,,,,,,
null,,learn_phase(without_color),570191,,,black_plus_sign,,,,,null,US_Cities_List/racine.png,US_Cities_List/huntsville.png,,,,,,,,,,,,,,,,,,
null,,black_cross(without_color),571295,,,blue,,,,,null,US_Cities_List/racine.png,US_Cities_List/huntsville.png,,,,,,,,,,,,,,,,,,
null,,rt_plussign_withcolor,571796,,,blue,,,,,null,US_Cities_List/racine.png,US_Cities_List/huntsville.png,,,,,,,,,,,,,,,,,,
1458.5,,rt_thecrossant_black,572701,,,black_plus_sign,,,,,49,,,1,0.9714285714285714,,,,,,,,,,,,,,,,
null,,color_black,572816,,,black_plus_sign,,,,,null,,,,,,,,,,,,,,,,,,,,
null,,learn_phase(without_color),575842,,,black_plus_sign,,,,,null,US_Cities_List/newhope.png,US_Cities_List/cornwall.png,,,,,,,,,,,,,,,,,,
null,,black_cross(without_color),576731,,,blue,,,,,null,US_Cities_List/newhope.png,US_Cities_List/cornwall.png,,,,,,,,,,,,,,,,,,
null,,rt_plussign_withcolor,577240,,,blue,,,,,null,US_Cities_List/newhope.png,US_Cities_List/cornwall.png,,,,,,,,,,,,,,,,,,
1379.8000000002794,,rt_thecrossant_black,578361,,,black_plus_sign,,,,,49,,,1,0.9722222222222222,,,,,,,,,,,,,,,,
null,,color_black,578468,,,black_plus_sign,,,,,null,,,,,,,,,,,,,,,,,,,,
null,,learn_phase(without_color),581490,,,black_plus_sign,,,,,null,US_Cities_List/peoria.png,US_Cities_List/huntsville.png,,,,,,,,,,,,,,,,,,
null,,black_cross(without_color),582331,,,blue,,,,,null,US_Cities_List/peoria.png,US_Cities_List/huntsville.png,,,,,,,,,,,,,,,,,,
null,,rt_plussign_withcolor,582838,,,blue,,,,,null,US_Cities_List/peoria.png,US_Cities_List/huntsville.png,,,,,,,,,,,,,,,,,,
1384.1000000000931,,rt_thecrossant_black,584008,,,black_plus_sign,,,,,49,,,1,0.972972972972973,,,,,,,,,,,,,,,,
null,,color_black,584117,,,black_plus_sign,,,,,null,,,,,,,,,,,,,,,,,,,,
null,,learn_phase(without_color),587134,,,black_plus_sign,,,,,null,US_Cities_List/boulder.png,US_Cities_List/hanover.png,,,,,,,,,,,,,,,,,,
null,,black_cross(without_color),587825,,,blue,,,,,null,US_Cities_List/boulder.png,US_Cities_List/hanover.png,,,,,,,,,,,,,,,,,,
null,,rt_plussign_withcolor,588332,,,blue,,,,,null,US_Cities_List/boulder.png,US_Cities_List/hanover.png,,,,,,,,,,,,,,,,,,
1932.6000000000931,,rt_thecrossant_black,589656,,,black_plus_sign,,,,,49,,,1,0.9736842105263158,,,,,,,,,,,,,,,,
null,,color_black,589764,,,black_plus_sign,,,,,null,,,,,,,,,,,,,,,,,,,,
null,,learn_phase(without_color),592777,,,black_plus_sign,,,,,null,US_Cities_List/leesburg.png,US_Cities_List/boulder.png,,,,,,,,,,,,,,,,,,
null,,black_cross(without_color),593283,,,blue,,,,,null,US_Cities_List/leesburg.png,US_Cities_List/boulder.png,,,,,,,,,,,,,,,,,,
null,,rt_plussign_withcolor,593795,,,blue,,,,,null,US_Cities_List/leesburg.png,US_Cities_List/boulder.png,,,,,,,,,,,,,,,,,,
1091.6000000000931,,rt_thecrossant_black,595301,,,black_plus_sign,,,,,49,,,1,0.9743589743589743,,,,,,,,,,,,,,,,
null,,color_black,595403,,,black_plus_sign,,,,,null,,,,,,,,,,,,,,,,,,,,
null,,learn_phase(without_color),598418,,,black_plus_sign,,,,,null,US_Cities_List/leesburg.png,US_Cities_List/newhope.png,,,,,,,,,,,,,,,,,,
null,,black_cross(without_color),599319,,,blue,,,,,null,US_Cities_List/leesburg.png,US_Cities_List/newhope.png,,,,,,,,,,,,,,,,,,
null,,rt_plussign_withcolor,599827,,,blue,,,,,null,US_Cities_List/leesburg.png,US_Cities_List/newhope.png,,,,,,,,,,,,,,,,,,
977.7000000001863,,rt_thecrossant_black,600936,,,black_plus_sign,,,,,49,,,1,0.975,,,,,,,,,,,,,,,,
null,,color_black,601045,,,black_plus_sign,,,,,null,,,,,,,,,,,,,,,,,,,,
null,,learn_phase(without_color),604067,,,black_plus_sign,,,,,null,US_Cities_List/newhope.png,US_Cities_List/leesburg.png,,,,,,,,,,,,,,,,,,
null,,black_cross(without_color),604923,,,yellow,,,,,null,US_Cities_List/newhope.png,US_Cities_List/leesburg.png,,,,,,,,,,,,,,,,,,
null,,rt_plussign_withcolor,605429,,,yellow,,,,,null,US_Cities_List/newhope.png,US_Cities_List/leesburg.png,,,,,,,,,,,,,,,,,,
1387.6000000000931,,rt_thecrossant_black,606580,,,black_plus_sign,,,,,50,,,1,0.975609756097561,,,,,,,,,,,,,,,,
null,,color_black,606686,,,black_plus_sign,,,,,null,,,,,,,,,,,,,,,,,,,,
null,,learn_phase(without_color),609701,,,black_plus_sign,,,,,null,US_Cities_List/peoria.png,US_Cities_List/gatlinburg.png,,,,,,,,,,,,,,,,,,
null,,black_cross(without_color),610140,,,yellow,,,,,null,US_Cities_List/peoria.png,US_Cities_List/gatlinburg.png,,,,,,,,,,,,,,,,,,
null,,rt_plussign_withcolor,610645,,,yellow,,,,,null,US_Cities_List/peoria.png,US_Cities_List/gatlinburg.png,,,,,,,,,,,,,,,,,,
1900.7000000001863,,rt_thecrossant_black,612212,,,black_plus_sign,,,,,50,,,1,0.9761904761904762,,,,,,,,,,,,,,,,
null,,color_black,612328,,,black_plus_sign,,,,,null,,,,,,,,,,,,,,,,,,,,
null,,learn_phase(without_color),615342,,,black_plus_sign,,,,,null,US_Cities_List/hanover.png,US_Cities_List/boulder.png,,,,,,,,,,,,,,,,,,
null,,black_cross(without_color),616228,,,blue,,,,,null,US_Cities_List/hanover.png,US_Cities_List/boulder.png,,,,,,,,,,,,,,,,,,
null,,rt_plussign_withcolor,616737,,,blue,,,,,null,US_Cities_List/hanover.png,US_Cities_List/boulder.png,,,,,,,,,,,,,,,,,,
null,,rt_thecrossant_black,617872,,,black_plus_sign,,,,,null,,,,0.9761904761904762,,,,,,,,,,,,,,,,
null,,color_black,617976,,,black_plus_sign,,,,,null,,,,,,,,,,,,,,,,,,,,
null,,learn_phase(without_color),620997,,,black_plus_sign,,,,,null,US_Cities_List/hotsprings.png,US_Cities_List/cornwall.png,,,,,,,,,,,,,,,,,,
null,,black_cross(without_color),621439,,,yellow,,,,,null,US_Cities_List/hotsprings.png,US_Cities_List/cornwall.png,,,,,,,,,,,,,,,,,,
null,,rt_plussign_withcolor,621943,,,yellow,,,,,null,US_Cities_List/hotsprings.png,US_Cities_List/cornwall.png,,,,,,,,,,,,,,,,,,
1407.8999999999069,,rt_thecrossant_black,623510,,,black_plus_sign,,,,,50,,,1,0.9767441860465116,,,,,,,,,,,,,,,,
null,,color_black,623613,,,black_plus_sign,,,,,null,,,,,,,,,,,,,,,,,,,,
null,,learn_phase(without_color),626633,,,black_plus_sign,,,,,null,US_Cities_List/shreveport.png,US_Cities_List/cornwall.png,,,,,,,,,,,,,,,,,,
null,,black_cross(without_color),627068,,,blue,,,,,null,US_Cities_List/shreveport.png,US_Cities_List/cornwall.png,,,,,,,,,,,,,,,,,,
null,,rt_plussign_withcolor,627575,,,blue,,,,,null,US_Cities_List/shreveport.png,US_Cities_List/cornwall.png,,,,,,,,,,,,,,,,,,
1596.2999999998137,,rt_thecrossant_black,629147,,,black_plus_sign,,,,,49,,,1,0.9772727272727273,,,,,,,,,,,,,,,,
null,,color_black,629250,,,black_plus_sign,,,,,null,,,,,,,,,,,,,,,,,,,,
null,,learn_phase(without_color),632264,,,black_plus_sign,,,,,null,US_Cities_List/westpalmbeach.png,US_Cities_List/hotsprings.png,,,,,,,,,,,,,,,,,,
null,,black_cross(without_color),633108,,,yellow,,,,,null,US_Cities_List/westpalmbeach.png,US_Cities_List/hotsprings.png,,,,,,,,,,,,,,,,,,
null,,rt_plussign_withcolor,633617,,,yellow,,,,,null,US_Cities_List/westpalmbeach.png,US_Cities_List/hotsprings.png,,,,,,,,,,,,,,,,,,
1068.7000000001863,,rt_thecrossant_black,634789,,,black_plus_sign,,,,,50,,,1,0.9777777777777777,,,,,,,,,,,,,,,,
null,,color_black,634906,,,black_plus_sign,,,,,null,,,,,,,,,,,,,,,,,,,,
null,,learn_phase(without_color),637921,,,black_plus_sign,,,,,null,US_Cities_List/hotsprings.png,US_Cities_List/westpalmbeach.png,,,,,,,,,,,,,,,,,,
null,,black_cross(without_color),638341,,,blue,,,,,null,US_Cities_List/hotsprings.png,US_Cities_List/westpalmbeach.png,,,,,,,,,,,,,,,,,,
null,,rt_plussign_withcolor,638849,,,blue,,,,,null,US_Cities_List/hotsprings.png,US_Cities_List/westpalmbeach.png,,,,,,,,,,,,,,,,,,
1518.5999999996275,,rt_thecrossant_black,640440,,,black_plus_sign,,,,,49,,,1,0.9782608695652174,,,,,,,,,,,,,,,,
null,,color_black,640549,,,black_plus_sign,,,,,null,,,,,,,,,,,,,,,,,,,,
null,,learn_phase(without_color),643561,,,black_plus_sign,,,,,null,US_Cities_List/peoria.png,US_Cities_List/huntsville.png,,,,,,,,,,,,,,,,,,
null,,black_cross(without_color),644617,,,blue,,,,,null,US_Cities_List/peoria.png,US_Cities_List/huntsville.png,,,,,,,,,,,,,,,,,,
null,,rt_plussign_withcolor,645124,,,blue,,,,,null,US_Cities_List/peoria.png,US_Cities_List/huntsville.png,,,,,,,,,,,,,,,,,,
1456.6999999997206,,rt_thecrossant_black,646075,,,black_plus_sign,,,,,49,,,1,0.9787234042553191,,,,,,,,,,,,,,,,
null,,color_black,646184,,,black_plus_sign,,,,,null,,,,,,,,,,,,,,,,,,,,
null,,learn_phase(without_color),649199,,,black_plus_sign,,,,,null,US_Cities_List/westpalmbeach.png,US_Cities_List/hotsprings.png,,,,,,,,,,,,,,,,,,
null,,black_cross(without_color),650154,,,blue,,,,,null,US_Cities_List/westpalmbeach.png,US_Cities_List/hotsprings.png,,,,,,,,,,,,,,,,,,
null,,rt_plussign_withcolor,650661,,,blue,,,,,null,US_Cities_List/westpalmbeach.png,US_Cities_List/hotsprings.png,,,,,,,,,,,,,,,,,,
1433.3999999999069,,rt_thecrossant_black,651721,,,black_plus_sign,,,,,49,,,1,0.9791666666666666,,,,,,,,,,,,,,,,
null,,color_black,651830,,,black_plus_sign,,,,,null,,,,,,,,,,,,,,,,,,,,
null,,learn_phase(without_color),654849,,,black_plus_sign,,,,,null,US_Cities_List/boulder.png,US_Cities_List/huntsville.png,,,,,,,,,,,,,,,,,,
null,,black_cross(without_color),655712,,,blue,,,,,null,US_Cities_List/boulder.png,US_Cities_List/huntsville.png,,,,,,,,,,,,,,,,,,
null,,rt_plussign_withcolor,656219,,,blue,,,,,null,US_Cities_List/boulder.png,US_Cities_List/huntsville.png,,,,,,,,,,,,,,,,,,
1487.7999999998137,,rt_thecrossant_black,657372,,,black_plus_sign,,,,,49,,,1,0.9795918367346939,,,,,,,,,,,,,,,,
null,,color_black,657481,,,black_plus_sign,,,,,null,,,,,,,,,,,,,,,,,,,,
null,,learn_phase(without_color),660499,,,black_plus_sign,,,,,null,US_Cities_List/huntsville.png,US_Cities_List/peoria.png,,,,,,,,,,,,,,,,,,
null,,black_cross(without_color),661224,,,yellow,,,,,null,US_Cities_List/huntsville.png,US_Cities_List/peoria.png,,,,,,,,,,,,,,,,,,
null,,rt_plussign_withcolor,661729,,,yellow,,,,,null,US_Cities_List/huntsville.png,US_Cities_List/peoria.png,,,,,,,,,,,,,,,,,,
1456.3000000002794,,rt_thecrossant_black,663020,,,black_plus_sign,,,,,50,,,1,0.98,,,,,,,,,,,,,,,,
null,,color_black,663129,,,black_plus_sign,,,,,null,,,,,,,,,,,,,,,,,,,,
null,,learn_phase(without_color),666148,,,black_plus_sign,,,,,null,US_Cities_List/cornwall.png,US_Cities_List/shreveport.png,,,,,,,,,,,,,,,,,,
null,,black_cross(without_color),667064,,,blue,,,,,null,US_Cities_List/cornwall.png,US_Cities_List/shreveport.png,,,,,,,,,,,,,,,,,,
425.3000000002794,,rt_plussign_withcolor,667568,,,blue,,,,,49,US_Cities_List/cornwall.png,US_Cities_List/shreveport.png,,,,,,,,,,,,,,,,,,
null,,rt_thecrossant_black,668663,,,black_plus_sign,,,,,null,,,1,0.9803921568627451,,,,,,,,,,,,,,,,
null,,color_black,668767,,,black_plus_sign,,,,,null,,,,,,,,,,,,,,,,,,,,
null,,learn_phase(without_color),671790,,,black_plus_sign,,,,,null,US_Cities_List/newhope.png,US_Cities_List/cornwall.png,,,,,,,,,,,,,,,,,,
null,,black_cross(without_color),672649,,,yellow,,,,,null,US_Cities_List/newhope.png,US_Cities_List/cornwall.png,,,,,,,,,,,,,,,,,,
null,,rt_plussign_withcolor,673159,,,yellow,,,,,null,US_Cities_List/newhope.png,US_Cities_List/cornwall.png,,,,,,,,,,,,,,,,,,
1809.3999999999069,,rt_thecrossant_black,674309,,,black_plus_sign,,,,,50,,,1,0.9807692307692307,,,,,,,,,,,,,,,,
null,,color_black,674412,,,black_plus_sign,,,,,null,,,,,,,,,,,,,,,,,,,,
null,,learn_phase(without_color),677436,,,black_plus_sign,,,,,null,US_Cities_List/cornwall.png,US_Cities_List/hotsprings.png,,,,,,,,,,,,,,,,,,
null,,black_cross(without_color),678030,,,yellow,,,,,null,US_Cities_List/cornwall.png,US_Cities_List/hotsprings.png,,,,,,,,,,,,,,,,,,
null,,rt_plussign_withcolor,678537,,,yellow,,,,,null,US_Cities_List/cornwall.png,US_Cities_List/hotsprings.png,,,,,,,,,,,,,,,,,,
1349.7000000001863,,rt_thecrossant_black,679958,,,black_plus_sign,,,,,50,,,1,0.9811320754716981,,,,,,,,,,,,,,,,
null,,color_black,680059,,,black_plus_sign,,,,,null,,,,,,,,,,,,,,,,,,,,
null,,learn_phase(without_color),683082,,,black_plus_sign,,,,,null,US_Cities_List/hotsprings.png,US_Cities_List/westpalmbeach.png,,,,,,,,,,,,,,,,,,
null,,black_cross(without_color),684018,,,yellow,,,,,null,US_Cities_List/hotsprings.png,US_Cities_List/westpalmbeach.png,,,,,,,,,,,,,,,,,,
null,,rt_plussign_withcolor,684523,,,yellow,,,,,null,US_Cities_List/hotsprings.png,US_Cities_List/westpalmbeach.png,,,,,,,,,,,,,,,,,,
1002.2999999998137,,rt_thecrossant_black,685599,,,black_plus_sign,,,,,50,,,1,0.9814814814814815,,,,,,,,,,,,,,,,
null,,color_black,685708,,,black_plus_sign,,,,,null,,,,,,,,,,,,,,,,,,,,
null,,learn_phase(without_color),688733,,,black_plus_sign,,,,,null,US_Cities_List/newhope.png,US_Cities_List/cornwall.png,,,,,,,,,,,,,,,,,,
null,,black_cross(without_color),689792,,,blue,,,,,null,US_Cities_List/newhope.png,US_Cities_List/cornwall.png,,,,,,,,,,,,,,,,,,
null,,rt_plussign_withcolor,690297,,,blue,,,,,null,US_Cities_List/newhope.png,US_Cities_List/cornwall.png,,,,,,,,,,,,,,,,,,
1360.7000000001863,,rt_thecrossant_black,691249,,,black_plus_sign,,,,,49,,,1,0.9818181818181818,,,,,,,,,,,,,,,,
null,,color_black,691360,,,black_plus_sign,,,,,null,,,,,,,,,,,,,,,,,,,,
null,,learn_phase(without_color),694393,,,black_plus_sign,,,,,null,US_Cities_List/cornwall.png,US_Cities_List/hotsprings.png,,,,,,,,,,,,,,,,,,
null,,black_cross(without_color),695290,,,yellow,,,,,null,US_Cities_List/cornwall.png,US_Cities_List/hotsprings.png,,,,,,,,,,,,,,,,,,
null,,rt_plussign_withcolor,695796,,,yellow,,,,,null,US_Cities_List/cornwall.png,US_Cities_List/hotsprings.png,,,,,,,,,,,,,,,,,,
1297.2999999998137,,rt_thecrossant_black,696919,,,black_plus_sign,,,,,50,,,1,0.9821428571428571,,,,,,,,,,,,,,,,
null,,color_black,697028,,,black_plus_sign,,,,,null,,,,,,,,,,,,,,,,,,,,
null,,learn_phase(without_color),700048,,,black_plus_sign,,,,,null,US_Cities_List/boulder.png,US_Cities_List/leesburg.png,,,,,,,,,,,,,,,,,,
null,,black_cross(without_color),700832,,,yellow,,,,,null,US_Cities_List/boulder.png,US_Cities_List/leesburg.png,,,,,,,,,,,,,,,,,,
null,,rt_plussign_withcolor,701339,,,yellow,,,,,null,US_Cities_List/boulder.png,US_Cities_List/leesburg.png,,,,,,,,,,,,,,,,,,
1311.5,,rt_thecrossant_black,702581,,,black_plus_sign,,,,,50,,,1,0.9824561403508771,,,,,,,,,,,,,,,,
null,,color_black,702687,,,black_plus_sign,,,,,null,,,,,,,,,,,,,,,,,,,,
null,,learn_phase(without_color),705710,,,black_plus_sign,,,,,null,US_Cities_List/newhope.png,US_Cities_List/leesburg.png,,,,,,,,,,,,,,,,,,
null,,black_cross(without_color),706514,,,blue,,,,,null,US_Cities_List/newhope.png,US_Cities_List/leesburg.png,,,,,,,,,,,,,,,,,,
null,,rt_plussign_withcolor,707015,,,blue,,,,,null,US_Cities_List/newhope.png,US_Cities_List/leesburg.png,,,,,,,,,,,,,,,,,,
null,,rt_thecrossant_black,708220,,,black_plus_sign,,,,,null,,,,0.9824561403508771,,,,,,,,,,,,,,,,
null,,color_black,708327,,,black_plus_sign,,,,,null,,,,,,,,,,,,,,,,,,,,
null,,learn_phase(without_color),711345,,,black_plus_sign,,,,,null,US_Cities_List/carmel.png,US_Cities_List/hotsprings.png,,,,,,,,,,,,,,,,,,
null,,black_cross(without_color),711974,,,blue,,,,,null,US_Cities_List/carmel.png,US_Cities_List/hotsprings.png,,,,,,,,,,,,,,,,,,
null,,rt_plussign_withcolor,712483,,,blue,,,,,null,US_Cities_List/carmel.png,US_Cities_List/hotsprings.png,,,,,,,,,,,,,,,,,,
1160.2999999998137,,rt_thecrossant_black,713872,,,black_plus_sign,,,,,49,,,1,0.9827586206896551,,,,,,,,,,,,,,,,
null,,color_black,713981,,,black_plus_sign,,,,,null,,,,,,,,,,,,,,,,,,,,
null,,learn_phase(without_color),717002,,,black_plus_sign,,,,,null,US_Cities_List/leesburg.png,US_Cities_List/peoria.png,,,,,,,,,,,,,,,,,,
null,,black_cross(without_color),717885,,,blue,,,,,null,US_Cities_List/leesburg.png,US_Cities_List/peoria.png,,,,,,,,,,,,,,,,,,
null,,rt_plussign_withcolor,718393,,,blue,,,,,null,US_Cities_List/leesburg.png,US_Cities_List/peoria.png,,,,,,,,,,,,,,,,,,
941.2999999998137,,rt_thecrossant_black,719529,,,black_plus_sign,,,,,49,,,1,0.9830508474576272,,,,,,,,,,,,,,,,
null,,color_black,719641,,,black_plus_sign,,,,,null,,,,,,,,,,,,,,,,,,,,
null,,learn_phase(without_color),722657,,,black_plus_sign,,,,,null,US_Cities_List/boulder.png,US_Cities_List/leesburg.png,,,,,,,,,,,,,,,,,,
null,,black_cross(without_color),723109,,,blue,,,,,null,US_Cities_List/boulder.png,US_Cities_List/leesburg.png,,,,,,,,,,,,,,,,,,
null,,rt_plussign_withcolor,723615,,,blue,,,,,null,US_Cities_List/boulder.png,US_Cities_List/leesburg.png,,,,,,,,,,,,,,,,,,
1627.2000000001863,,rt_thecrossant_black,725183,,,black_plus_sign,,,,,49,,,1,0.9833333333333333,,,,,,,,,,,,,,,,
null,,color_black,725295,,,black_plus_sign,,,,,null,,,,,,,,,,,,,,,,,,,,
null,,learn_phase(without_color),728321,,,black_plus_sign,,,,,null,US_Cities_List/leesburg.png,US_Cities_List/peoria.png,,,,,,,,,,,,,,,,,,
null,,black_cross(without_color),729000,,,yellow,,,,,null,US_Cities_List/leesburg.png,US_Cities_List/peoria.png,,,,,,,,,,,,,,,,,,
null,,rt_plussign_withcolor,729507,,,yellow,,,,,null,US_Cities_List/leesburg.png,US_Cities_List/peoria.png,,,,,,,,,,,,,,,,,,
1430.2000000001863,,rt_thecrossant_black,730838,,,black_plus_sign,,,,,50,,,1,0.9836065573770492,,,,,,,,,,,,,,,,
null,,color_black,730947,,,black_plus_sign,,,,,null,,,,,,,,,,,,,,,,,,,,
null,,learn_phase(without_color),733965,,,black_plus_sign,,,,,null,US_Cities_List/hotsprings.png,US_Cities_List/westpalmbeach.png,,,,,,,,,,,,,,,,,,
null,,black_cross(without_color),734742,,,yellow,,,,,null,US_Cities_List/hotsprings.png,US_Cities_List/westpalmbeach.png,,,,,,,,,,,,,,,,,,
null,,rt_plussign_withcolor,735245,,,yellow,,,,,null,US_Cities_List/hotsprings.png,US_Cities_List/westpalmbeach.png,,,,,,,,,,,,,,,,,,
1135.1000000000931,,rt_thecrossant_black,736486,,,black_plus_sign,,,,,50,,,1,0.9838709677419355,,,,,,,,,,,,,,,,
null,,color_black,736589,,,black_plus_sign,,,,,null,,,,,,,,,,,,,,,,,,,,
37197.5,,learn_break,773790,,,learn_break,,,,,32,,,,,,,,,,,,,,,,,,,,
null,,html-keyboard-response,774793,,,<p></p>,,,,,null,,,,,,,,,,,,,,,,,,,,
null,,learn_phase(without_color),777808,,,black_plus_sign,,,,,null,US_Cities_List/boulder.png,US_Cities_List/huntsville.png,,,,,,,,,,,,,,,,,,
null,,black_cross(without_color),778444,,,blue,,,,,null,US_Cities_List/boulder.png,US_Cities_List/huntsville.png,,,,,,,,,,,,,,,,,,
null,,rt_plussign_withcolor,778953,,,blue,,,,,null,US_Cities_List/boulder.png,US_Cities_List/huntsville.png,,,,,,,,,,,,,,,,,,
1160.3999999999069,,rt_thecrossant_black,780326,,,black_plus_sign,,,,,49,,,1,0.9841269841269841,,,,,,,,,,,,,,,,
null,,color_black,780434,,,black_plus_sign,,,,,null,,,,,,,,,,,,,,,,,,,,
null,,learn_phase(without_color),783450,,,black_plus_sign,,,,,null,US_Cities_List/hanover.png,US_Cities_List/boulder.png,,,,,,,,,,,,,,,,,,
null,,black_cross(without_color),784521,,,yellow,,,,,null,US_Cities_List/hanover.png,US_Cities_List/boulder.png,,,,,,,,,,,,,,,,,,
null,,rt_plussign_withcolor,785024,,,yellow,,,,,null,US_Cities_List/hanover.png,US_Cities_List/boulder.png,,,,,,,,,,,,,,,,,,
988.8000000002794,,rt_thecrossant_black,785973,,,black_plus_sign,,,,,50,,,1,0.984375,,,,,,,,,,,,,,,,
null,,color_black,786084,,,black_plus_sign,,,,,null,,,,,,,,,,,,,,,,,,,,
null,,learn_phase(without_color),789106,,,black_plus_sign,,,,,null,US_Cities_List/leesburg.png,US_Cities_List/boulder.png,,,,,,,,,,,,,,,,,,
null,,black_cross(without_color),789809,,,yellow,,,,,null,US_Cities_List/leesburg.png,US_Cities_List/boulder.png,,,,,,,,,,,,,,,,,,
null,,rt_plussign_withcolor,790314,,,yellow,,,,,null,US_Cities_List/leesburg.png,US_Cities_List/boulder.png,,,,,,,,,,,,,,,,,,
1546.8999999999069,,rt_thecrossant_black,791624,,,black_plus_sign,,,,,50,,,1,0.9846153846153847,,,,,,,,,,,,,,,,
null,,color_black,791742,,,black_plus_sign,,,,,null,,,,,,,,,,,,,,,,,,,,
null,,learn_phase(without_color),794760,,,black_plus_sign,,,,,null,US_Cities_List/newhope.png,US_Cities_List/gatlinburg.png,,,,,,,,,,,,,,,,,,
null,,black_cross(without_color),795205,,,blue,,,,,null,US_Cities_List/newhope.png,US_Cities_List/gatlinburg.png,,,,,,,,,,,,,,,,,,
null,,rt_plussign_withcolor,795707,,,blue,,,,,null,US_Cities_List/newhope.png,US_Cities_List/gatlinburg.png,,,,,,,,,,,,,,,,,,
1064.2000000001863,,rt_thecrossant_black,797269,,,black_plus_sign,,,,,49,,,1,0.9848484848484849,,,,,,,,,,,,,,,,
null,,color_black,797387,,,black_plus_sign,,,,,null,,,,,,,,,,,,,,,,,,,,
null,,learn_phase(without_color),800403,,,black_plus_sign,,,,,null,US_Cities_List/hotsprings.png,US_Cities_List/westpalmbeach.png,,,,,,,,,,,,,,,,,,
null,,black_cross(without_color),801084,,,yellow,,,,,null,US_Cities_List/hotsprings.png,US_Cities_List/westpalmbeach.png,,,,,,,,,,,,,,,,,,
null,,rt_plussign_withcolor,801589,,,yellow,,,,,null,US_Cities_List/hotsprings.png,US_Cities_List/westpalmbeach.png,,,,,,,,,,,,,,,,,,
753.7999999998137,,rt_thecrossant_black,802925,,,black_plus_sign,,,,,50,,,1,0.9850746268656716,,,,,,,,,,,,,,,,
null,,color_black,803028,,,black_plus_sign,,,,,null,,,,,,,,,,,,,,,,,,,,
null,,learn_phase(without_color),806052,,,black_plus_sign,,,,,null,US_Cities_List/shreveport.png,US_Cities_List/cornwall.png,,,,,,,,,,,,,,,,,,
null,,black_cross(without_color),806734,,,yellow,,,,,null,US_Cities_List/shreveport.png,US_Cities_List/cornwall.png,,,,,,,,,,,,,,,,,,
null,,rt_plussign_withcolor,807244,,,yellow,,,,,null,US_Cities_List/shreveport.png,US_Cities_List/cornwall.png,,,,,,,,,,,,,,,,,,
1093.4000000003725,,rt_thecrossant_black,808571,,,black_plus_sign,,,,,50,,,1,0.9852941176470589,,,,,,,,,,,,,,,,
null,,color_black,808681,,,black_plus_sign,,,,,null,,,,,,,,,,,,,,,,,,,,
null,,learn_phase(without_color),811698,,,black_plus_sign,,,,,null,US_Cities_List/newhope.png,US_Cities_List/gatlinburg.png,,,,,,,,,,,,,,,,,,
null,,black_cross(without_color),812398,,,blue,,,,,null,US_Cities_List/newhope.png,US_Cities_List/gatlinburg.png,,,,,,,,,,,,,,,,,,
null,,rt_plussign_withcolor,812904,,,blue,,,,,null,US_Cities_List/newhope.png,US_Cities_List/gatlinburg.png,,,,,,,,,,,,,,,,,,
982.2000000001863,,rt_thecrossant_black,814223,,,black_plus_sign,,,,,49,,,1,0.9855072463768116,,,,,,,,,,,,,,,,
null,,color_black,814332,,,black_plus_sign,,,,,null,,,,,,,,,,,,,,,,,,,,
null,,learn_phase(without_color),817357,,,black_plus_sign,,,,,null,US_Cities_List/hotsprings.png,US_Cities_List/cornwall.png,,,,,,,,,,,,,,,,,,
null,,black_cross(without_color),818021,,,yellow,,,,,null,US_Cities_List/hotsprings.png,US_Cities_List/cornwall.png,,,,,,,,,,,,,,,,,,
null,,rt_plussign_withcolor,818525,,,yellow,,,,,null,US_Cities_List/hotsprings.png,US_Cities_List/cornwall.png,,,,,,,,,,,,,,,,,,
1264.1999999997206,,rt_thecrossant_black,819874,,,black_plus_sign,,,,,50,,,1,0.9857142857142858,,,,,,,,,,,,,,,,
null,,color_black,819977,,,black_plus_sign,,,,,null,,,,,,,,,,,,,,,,,,,,
null,,learn_phase(without_color),823004,,,black_plus_sign,,,,,null,US_Cities_List/gatlinburg.png,US_Cities_List/newhope.png,,,,,,,,,,,,,,,,,,
null,,black_cross(without_color),823517,,,yellow,,,,,null,US_Cities_List/gatlinburg.png,US_Cities_List/newhope.png,,,,,,,,,,,,,,,,,,
null,,rt_plussign_withcolor,824023,,,yellow,,,,,null,US_Cities_List/gatlinburg.png,US_Cities_List/newhope.png,,,,,,,,,,,,,,,,,,
1132.8000000002794,,rt_thecrossant_black,825523,,,black_plus_sign,,,,,50,,,1,0.9859154929577465,,,,,,,,,,,,,,,,
null,,color_black,825631,,,black_plus_sign,,,,,null,,,,,,,,,,,,,,,,,,,,
null,,learn_phase(without_color),828651,,,black_plus_sign,,,,,null,US_Cities_List/boulder.png,US_Cities_List/leesburg.png,,,,,,,,,,,,,,,,,,
null,,black_cross(without_color),829124,,,blue,,,,,null,US_Cities_List/boulder.png,US_Cities_List/leesburg.png,,,,,,,,,,,,,,,,,,
null,,rt_plussign_withcolor,829634,,,blue,,,,,null,US_Cities_List/boulder.png,US_Cities_List/leesburg.png,,,,,,,,,,,,,,,,,,
1386,,rt_thecrossant_black,831181,,,black_plus_sign,,,,,49,,,1,0.9861111111111112,,,,,,,,,,,,,,,,
null,,color_black,831289,,,black_plus_sign,,,,,null,,,,,,,,,,,,,,,,,,,,
null,,learn_phase(without_color),834306,,,black_plus_sign,,,,,null,US_Cities_List/newhope.png,US_Cities_List/cornwall.png,,,,,,,,,,,,,,,,,,
null,,black_cross(without_color),835155,,,yellow,,,,,null,US_Cities_List/newhope.png,US_Cities_List/cornwall.png,,,,,,,,,,,,,,,,,,
null,,rt_plussign_withcolor,835665,,,yellow,,,,,null,US_Cities_List/newhope.png,US_Cities_List/cornwall.png,,,,,,,,,,,,,,,,,,
1324.2000000001863,,rt_thecrossant_black,836827,,,black_plus_sign,,,,,50,,,1,0.9863013698630136,,,,,,,,,,,,,,,,
null,,color_black,836937,,,black_plus_sign,,,,,null,,,,,,,,,,,,,,,,,,,,
null,,learn_phase(without_color),839947,,,black_plus_sign,,,,,null,US_Cities_List/huntsville.png,US_Cities_List/boulder.png,,,,,,,,,,,,,,,,,,
null,,black_cross(without_color),840982,,,yellow,,,,,null,US_Cities_List/huntsville.png,US_Cities_List/boulder.png,,,,,,,,,,,,,,,,,,
null,,rt_plussign_withcolor,841485,,,yellow,,,,,null,US_Cities_List/huntsville.png,US_Cities_List/boulder.png,,,,,,,,,,,,,,,,,,
1199.5999999996275,,rt_thecrossant_black,842464,,,black_plus_sign,,,,,50,,,1,0.9864864864864865,,,,,,,,,,,,,,,,
null,,color_black,842572,,,black_plus_sign,,,,,null,,,,,,,,,,,,,,,,,,,,
null,,learn_phase(without_color),845585,,,black_plus_sign,,,,,null,US_Cities_List/gatlinburg.png,US_Cities_List/carmel.png,,,,,,,,,,,,,,,,,,
null,,black_cross(without_color),846527,,,blue,,,,,null,US_Cities_List/gatlinburg.png,US_Cities_List/carmel.png,,,,,,,,,,,,,,,,,,
null,,rt_plussign_withcolor,847036,,,blue,,,,,null,US_Cities_List/gatlinburg.png,US_Cities_List/carmel.png,,,,,,,,,,,,,,,,,,
1314.3999999999069,,rt_thecrossant_black,848109,,,black_plus_sign,,,,,49,,,1,0.9866666666666667,,,,,,,,,,,,,,,,
null,,color_black,848219,,,black_plus_sign,,,,,null,,,,,,,,,,,,,,,,,,,,
null,,learn_phase(without_color),851246,,,black_plus_sign,,,,,null,US_Cities_List/hotsprings.png,US_Cities_List/carmel.png,,,,,,,,,,,,,,,,,,
null,,black_cross(without_color),852170,,,yellow,,,,,null,US_Cities_List/hotsprings.png,US_Cities_List/carmel.png,,,,,,,,,,,,,,,,,,
null,,rt_plussign_withcolor,852680,,,yellow,,,,,null,US_Cities_List/hotsprings.png,US_Cities_List/carmel.png,,,,,,,,,,,,,,,,,,
1221,,rt_thecrossant_black,853775,,,black_plus_sign,,,,,50,,,1,0.9868421052631579,,,,,,,,,,,,,,,,
null,,color_black,853879,,,black_plus_sign,,,,,null,,,,,,,,,,,,,,,,,,,,
null,,learn_phase(without_color),856899,,,black_plus_sign,,,,,null,US_Cities_List/leesburg.png,US_Cities_List/peoria.png,,,,,,,,,,,,,,,,,,
null,,black_cross(without_color),857570,,,yellow,,,,,null,US_Cities_List/leesburg.png,US_Cities_List/peoria.png,,,,,,,,,,,,,,,,,,
null,,rt_plussign_withcolor,858076,,,yellow,,,,,null,US_Cities_List/leesburg.png,US_Cities_List/peoria.png,,,,,,,,,,,,,,,,,,
1205.8000000002794,,rt_thecrossant_black,859415,,,black_plus_sign,,,,,50,,,1,0.987012987012987,,,,,,,,,,,,,,,,
null,,color_black,859519,,,black_plus_sign,,,,,null,,,,,,,,,,,,,,,,,,,,
null,,learn_phase(without_color),862533,,,black_plus_sign,,,,,null,US_Cities_List/huntsville.png,US_Cities_List/racine.png,,,,,,,,,,,,,,,,,,
null,,black_cross(without_color),863360,,,blue,,,,,null,US_Cities_List/huntsville.png,US_Cities_List/racine.png,,,,,,,,,,,,,,,,,,
null,,rt_plussign_withcolor,863863,,,blue,,,,,null,US_Cities_List/huntsville.png,US_Cities_List/racine.png,,,,,,,,,,,,,,,,,,
895.1999999997206,,rt_thecrossant_black,865043,,,black_plus_sign,,,,,49,,,1,0.9871794871794872,,,,,,,,,,,,,,,,
null,,color_black,865163,,,black_plus_sign,,,,,null,,,,,,,,,,,,,,,,,,,,
null,,learn_phase(without_color),868182,,,black_plus_sign,,,,,null,US_Cities_List/huntsville.png,US_Cities_List/racine.png,,,,,,,,,,,,,,,,,,
null,,black_cross(without_color),869119,,,yellow,,,,,null,US_Cities_List/huntsville.png,US_Cities_List/racine.png,,,,,,,,,,,,,,,,,,
null,,rt_plussign_withcolor,869624,,,yellow,,,,,null,US_Cities_List/huntsville.png,US_Cities_List/racine.png,,,,,,,,,,,,,,,,,,
1150.7000000001863,,rt_thecrossant_black,870698,,,black_plus_sign,,,,,50,,,1,0.9873417721518988,,,,,,,,,,,,,,,,
null,,color_black,870811,,,black_plus_sign,,,,,null,,,,,,,,,,,,,,,,,,,,
null,,learn_phase(without_color),873832,,,black_plus_sign,,,,,null,US_Cities_List/gatlinburg.png,US_Cities_List/newhope.png,,,,,,,,,,,,,,,,,,
null,,black_cross(without_color),874581,,,blue,,,,,null,US_Cities_List/gatlinburg.png,US_Cities_List/newhope.png,,,,,,,,,,,,,,,,,,
null,,rt_plussign_withcolor,875086,,,blue,,,,,null,US_Cities_List/gatlinburg.png,US_Cities_List/newhope.png,,,,,,,,,,,,,,,,,,
1162.7000000001863,,rt_thecrossant_black,876348,,,black_plus_sign,,,,,49,,,1,0.9875,,,,,,,,,,,,,,,,
null,,color_black,876466,,,black_plus_sign,,,,,null,,,,,,,,,,,,,,,,,,,,
null,,learn_phase(without_color),879482,,,black_plus_sign,,,,,null,US_Cities_List/newhope.png,US_Cities_List/leesburg.png,,,,,,,,,,,,,,,,,,
null,,black_cross(without_color),880168,,,blue,,,,,null,US_Cities_List/newhope.png,US_Cities_List/leesburg.png,,,,,,,,,,,,,,,,,,
456.1999999997206,,rt_plussign_withcolor,880673,,,blue,,,,,49,US_Cities_List/newhope.png,US_Cities_List/leesburg.png,,,,,,,,,,,,,,,,,,
null,,rt_thecrossant_black,881999,,,black_plus_sign,,,,,null,,,1,0.9876543209876543,,,,,,,,,,,,,,,,
null,,color_black,882111,,,black_plus_sign,,,,,null,,,,,,,,,,,,,,,,,,,,
null,,learn_phase(without_color),885129,,,black_plus_sign,,,,,null,US_Cities_List/hotsprings.png,US_Cities_List/cornwall.png,,,,,,,,,,,,,,,,,,
null,,black_cross(without_color),885880,,,yellow,,,,,null,US_Cities_List/hotsprings.png,US_Cities_List/cornwall.png,,,,,,,,,,,,,,,,,,
null,,rt_plussign_withcolor,886387,,,yellow,,,,,null,US_Cities_List/hotsprings.png,US_Cities_List/cornwall.png,,,,,,,,,,,,,,,,,,
961.7999999998137,,rt_thecrossant_black,887641,,,black_plus_sign,,,,,50,,,1,0.9878048780487805,,,,,,,,,,,,,,,,
null,,color_black,887742,,,black_plus_sign,,,,,null,,,,,,,,,,,,,,,,,,,,
null,,learn_phase(without_color),890764,,,black_plus_sign,,,,,null,US_Cities_List/hotsprings.png,US_Cities_List/carmel.png,,,,,,,,,,,,,,,,,,
null,,black_cross(without_color),891240,,,yellow,,,,,null,US_Cities_List/hotsprings.png,US_Cities_List/carmel.png,,,,,,,,,,,,,,,,,,
null,,rt_plussign_withcolor,891749,,,yellow,,,,,null,US_Cities_List/hotsprings.png,US_Cities_List/carmel.png,,,,,,,,,,,,,,,,,,
1073.8999999999069,,rt_thecrossant_black,893288,,,black_plus_sign,,,,,50,,,1,0.9879518072289156,,,,,,,,,,,,,,,,
null,,color_black,893404,,,black_plus_sign,,,,,null,,,,,,,,,,,,,,,,,,,,
null,,learn_phase(without_color),896422,,,black_plus_sign,,,,,null,US_Cities_List/boulder.png,US_Cities_List/hanover.png,,,,,,,,,,,,,,,,,,
null,,black_cross(without_color),896931,,,yellow,,,,,null,US_Cities_List/boulder.png,US_Cities_List/hanover.png,,,,,,,,,,,,,,,,,,
null,,rt_plussign_withcolor,897436,,,yellow,,,,,null,US_Cities_List/boulder.png,US_Cities_List/hanover.png,,,,,,,,,,,,,,,,,,
693.3999999999069,,rt_thecrossant_black,898941,,,black_plus_sign,,,,,50,,,1,0.9880952380952381,,,,,,,,,,,,,,,,
null,,color_black,899049,,,black_plus_sign,,,,,null,,,,,,,,,,,,,,,,,,,,
null,,learn_phase(without_color),902067,,,black_plus_sign,,,,,null,US_Cities_List/peoria.png,US_Cities_List/leesburg.png,,,,,,,,,,,,,,,,,,
null,,black_cross(without_color),903153,,,blue,,,,,null,US_Cities_List/peoria.png,US_Cities_List/leesburg.png,,,,,,,,,,,,,,,,,,
null,,rt_plussign_withcolor,903662,,,blue,,,,,null,US_Cities_List/peoria.png,US_Cities_List/leesburg.png,,,,,,,,,,,,,,,,,,
666.7999999998137,,rt_thecrossant_black,904583,,,black_plus_sign,,,,,49,,,1,0.9882352941176471,,,,,,,,,,,,,,,,
null,,color_black,904686,,,black_plus_sign,,,,,null,,,,,,,,,,,,,,,,,,,,
null,,learn_phase(without_color),907705,,,black_plus_sign,,,,,null,US_Cities_List/leesburg.png,US_Cities_List/boulder.png,,,,,,,,,,,,,,,,,,
null,,black_cross(without_color),908808,,,yellow,,,,,null,US_Cities_List/leesburg.png,US_Cities_List/boulder.png,,,,,,,,,,,,,,,,,,
null,,rt_plussign_withcolor,909315,,,yellow,,,,,null,US_Cities_List/leesburg.png,US_Cities_List/boulder.png,,,,,,,,,,,,,,,,,,
1416.5,,rt_thecrossant_black,910228,,,black_plus_sign,,,,,50,,,1,0.9883720930232558,,,,,,,,,,,,,,,,
null,,color_black,910338,,,black_plus_sign,,,,,null,,,,,,,,,,,,,,,,,,,,
null,,learn_phase(without_color),913352,,,black_plus_sign,,,,,null,US_Cities_List/leesburg.png,US_Cities_List/peoria.png,,,,,,,,,,,,,,,,,,
null,,black_cross(without_color),914259,,,blue,,,,,null,US_Cities_List/leesburg.png,US_Cities_List/peoria.png,,,,,,,,,,,,,,,,,,
null,,rt_plussign_withcolor,914761,,,blue,,,,,null,US_Cities_List/leesburg.png,US_Cities_List/peoria.png,,,,,,,,,,,,,,,,,,
1317.7999999998137,,rt_thecrossant_black,915866,,,black_plus_sign,,,,,49,,,1,0.9885057471264368,,,,,,,,,,,,,,,,
null,,color_black,915976,,,black_plus_sign,,,,,null,,,,,,,,,,,,,,,,,,,,
null,,learn_phase(without_color),918989,,,black_plus_sign,,,,,null,US_Cities_List/huntsville.png,US_Cities_List/boulder.png,,,,,,,,,,,,,,,,,,
null,,black_cross(without_color),919769,,,blue,,,,,null,US_Cities_List/huntsville.png,US_Cities_List/boulder.png,,,,,,,,,,,,,,,,,,
null,,rt_plussign_withcolor,920278,,,blue,,,,,null,US_Cities_List/huntsville.png,US_Cities_List/boulder.png,,,,,,,,,,,,,,,,,,
1186.2999999998137,,rt_thecrossant_black,921516,,,black_plus_sign,,,,,49,,,1,0.9886363636363636,,,,,,,,,,,,,,,,
null,,color_black,921623,,,black_plus_sign,,,,,null,,,,,,,,,,,,,,,,,,,,
null,,learn_phase(without_color),924643,,,black_plus_sign,,,,,null,US_Cities_List/peoria.png,US_Cities_List/boulder.png,,,,,,,,,,,,,,,,,,
null,,black_cross(without_color),925463,,,blue,,,,,null,US_Cities_List/peoria.png,US_Cities_List/boulder.png,,,,,,,,,,,,,,,,,,
477.10000000009313,,rt_plussign_withcolor,925968,,,blue,,,,,49,US_Cities_List/peoria.png,US_Cities_List/boulder.png,,,,,,,,,,,,,,,,,,
null,,rt_thecrossant_black,927159,,,black_plus_sign,,,,,null,,,1,0.9887640449438202,,,,,,,,,,,,,,,,
null,,color_black,927268,,,black_plus_sign,,,,,null,,,,,,,,,,,,,,,,,,,,
null,,learn_phase(without_color),930282,,,black_plus_sign,,,,,null,US_Cities_List/leesburg.png,US_Cities_List/boulder.png,,,,,,,,,,,,,,,,,,
null,,black_cross(without_color),930947,,,yellow,,,,,null,US_Cities_List/leesburg.png,US_Cities_List/boulder.png,,,,,,,,,,,,,,,,,,
null,,rt_plussign_withcolor,931456,,,yellow,,,,,null,US_Cities_List/leesburg.png,US_Cities_List/boulder.png,,,,,,,,,,,,,,,,,,
1081.5999999996275,,rt_thecrossant_black,932803,,,black_plus_sign,,,,,50,,,1,0.9888888888888889,,,,,,,,,,,,,,,,
null,,color_black,932915,,,black_plus_sign,,,,,null,,,,,,,,,,,,,,,,,,,,
null,,learn_phase(without_color),935930,,,black_plus_sign,,,,,null,US_Cities_List/racine.png,US_Cities_List/huntsville.png,,,,,,,,,,,,,,,,,,
null,,black_cross(without_color),937003,,,yellow,,,,,null,US_Cities_List/racine.png,US_Cities_List/huntsville.png,,,,,,,,,,,,,,,,,,
null,,rt_plussign_withcolor,937506,,,yellow,,,,,null,US_Cities_List/racine.png,US_Cities_List/huntsville.png,,,,,,,,,,,,,,,,,,
1142.2000000001863,,rt_thecrossant_black,938448,,,black_plus_sign,,,,,50,,,1,0.989010989010989,,,,,,,,,,,,,,,,
null,,color_black,938551,,,black_plus_sign,,,,,null,,,,,,,,,,,,,,,,,,,,
null,,learn_phase(without_color),941573,,,black_plus_sign,,,,,null,US_Cities_List/gatlinburg.png,US_Cities_List/newhope.png,,,,,,,,,,,,,,,,,,
null,,black_cross(without_color),942597,,,yellow,,,,,null,US_Cities_List/gatlinburg.png,US_Cities_List/newhope.png,,,,,,,,,,,,,,,,,,
null,,rt_plussign_withcolor,943106,,,yellow,,,,,null,US_Cities_List/gatlinburg.png,US_Cities_List/newhope.png,,,,,,,,,,,,,,,,,,
1287.8000000002794,,rt_thecrossant_black,944093,,,black_plus_sign,,,,,50,,,1,0.9891304347826086,,,,,,,,,,,,,,,,
null,,color_black,944202,,,black_plus_sign,,,,,null,,,,,,,,,,,,,,,,,,,,
null,,learn_phase(without_color),947220,,,black_plus_sign,,,,,null,US_Cities_List/gatlinburg.png,US_Cities_List/peoria.png,,,,,,,,,,,,,,,,,,
null,,black_cross(without_color),947956,,,blue,,,,,null,US_Cities_List/gatlinburg.png,US_Cities_List/peoria.png,,,,,,,,,,,,,,,,,,
null,,rt_plussign_withcolor,948465,,,blue,,,,,null,US_Cities_List/gatlinburg.png,US_Cities_List/peoria.png,,,,,,,,,,,,,,,,,,
1199.7000000001863,,rt_thecrossant_black,949753,,,black_plus_sign,,,,,49,,,1,0.989247311827957,,,,,,,,,,,,,,,,
null,,color_black,949856,,,black_plus_sign,,,,,null,,,,,,,,,,,,,,,,,,,,
null,,learn_phase(without_color),952873,,,black_plus_sign,,,,,null,US_Cities_List/hanover.png,US_Cities_List/boulder.png,,,,,,,,,,,,,,,,,,
null,,black_cross(without_color),953705,,,blue,,,,,null,US_Cities_List/hanover.png,US_Cities_List/boulder.png,,,,,,,,,,,,,,,,,,
null,,rt_plussign_withcolor,954210,,,blue,,,,,null,US_Cities_List/hanover.png,US_Cities_List/boulder.png,,,,,,,,,,,,,,,,,,
905,,rt_thecrossant_black,955387,,,black_plus_sign,,,,,49,,,1,0.9893617021276596,,,,,,,,,,,,,,,,
null,,color_black,955498,,,black_plus_sign,,,,,null,,,,,,,,,,,,,,,,,,,,
null,,learn_phase(without_color),958518,,,black_plus_sign,,,,,null,US_Cities_List/peoria.png,US_Cities_List/leesburg.png,,,,,,,,,,,,,,,,,,
null,,black_cross(without_color),958969,,,blue,,,,,null,US_Cities_List/peoria.png,US_Cities_List/leesburg.png,,,,,,,,,,,,,,,,,,
null,,rt_plussign_withcolor,959479,,,blue,,,,,null,US_Cities_List/peoria.png,US_Cities_List/leesburg.png,,,,,,,,,,,,,,,,,,
1167.5999999996275,,rt_thecrossant_black,961040,,,black_plus_sign,,,,,49,,,1,0.9894736842105263,,,,,,,,,,,,,,,,
null,,color_black,961158,,,black_plus_sign,,,,,null,,,,,,,,,,,,,,,,,,,,
null,,learn_phase(without_color),964174,,,black_plus_sign,,,,,null,US_Cities_List/gatlinburg.png,US_Cities_List/carmel.png,,,,,,,,,,,,,,,,,,
null,,black_cross(without_color),964790,,,yellow,,,,,null,US_Cities_List/gatlinburg.png,US_Cities_List/carmel.png,,,,,,,,,,,,,,,,,,
null,,rt_plussign_withcolor,965299,,,yellow,,,,,null,US_Cities_List/gatlinburg.png,US_Cities_List/carmel.png,,,,,,,,,,,,,,,,,,
803.3999999999069,,rt_thecrossant_black,966688,,,black_plus_sign,,,,,50,,,1,0.9895833333333334,,,,,,,,,,,,,,,,
null,,color_black,966806,,,black_plus_sign,,,,,null,,,,,,,,,,,,,,,,,,,,
null,,learn_phase(without_color),969829,,,black_plus_sign,,,,,null,US_Cities_List/hotsprings.png,US_Cities_List/carmel.png,,,,,,,,,,,,,,,,,,
null,,black_cross(without_color),970624,,,yellow,,,,,null,US_Cities_List/hotsprings.png,US_Cities_List/carmel.png,,,,,,,,,,,,,,,,,,
null,,rt_plussign_withcolor,971130,,,yellow,,,,,null,US_Cities_List/hotsprings.png,US_Cities_List/carmel.png,,,,,,,,,,,,,,,,,,
1293.2000000001863,,rt_thecrossant_black,972343,,,black_plus_sign,,,,,50,,,1,0.9896907216494846,,,,,,,,,,,,,,,,
null,,color_black,972452,,,black_plus_sign,,,,,null,,,,,,,,,,,,,,,,,,,,
null,,learn_phase(without_color),975469,,,black_plus_sign,,,,,null,US_Cities_List/hotsprings.png,US_Cities_List/westpalmbeach.png,,,,,,,,,,,,,,,,,,
null,,black_cross(without_color),976282,,,blue,,,,,null,US_Cities_List/hotsprings.png,US_Cities_List/westpalmbeach.png,,,,,,,,,,,,,,,,,,
null,,rt_plussign_withcolor,976787,,,blue,,,,,null,US_Cities_List/hotsprings.png,US_Cities_List/westpalmbeach.png,,,,,,,,,,,,,,,,,,
1530.1000000000931,,rt_thecrossant_black,977989,,,black_plus_sign,,,,,49,,,1,0.9897959183673469,,,,,,,,,,,,,,,,
null,,color_black,978098,,,black_plus_sign,,,,,null,,,,,,,,,,,,,,,,,,,,
null,,learn_phase(without_color),981117,,,black_plus_sign,,,,,null,US_Cities_List/shreveport.png,US_Cities_List/cornwall.png,,,,,,,,,,,,,,,,,,
null,,black_cross(without_color),982161,,,blue,,,,,null,US_Cities_List/shreveport.png,US_Cities_List/cornwall.png,,,,,,,,,,,,,,,,,,
null,,rt_plussign_withcolor,982665,,,blue,,,,,null,US_Cities_List/shreveport.png,US_Cities_List/cornwall.png,,,,,,,,,,,,,,,,,,
1124.6000000000931,,rt_thecrossant_black,983629,,,black_plus_sign,,,,,49,,,1,0.98989898989899,,,,,,,,,,,,,,,,
null,,color_black,983738,,,black_plus_sign,,,,,null,,,,,,,,,,,,,,,,,,,,
null,,learn_phase(without_color),986760,,,black_plus_sign,,,,,null,US_Cities_List/shreveport.png,US_Cities_List/cornwall.png,,,,,,,,,,,,,,,,,,
null,,black_cross(without_color),987774,,,blue,,,,,null,US_Cities_List/shreveport.png,US_Cities_List/cornwall.png,,,,,,,,,,,,,,,,,,
null,,rt_plussign_withcolor,988282,,,blue,,,,,null,US_Cities_List/shreveport.png,US_Cities_List/cornwall.png,,,,,,,,,,,,,,,,,,
1454.8999999999069,,rt_thecrossant_black,989282,,,black_plus_sign,,,,,49,,,1,0.99,,,,,,,,,,,,,,,,
null,,color_black,989391,,,black_plus_sign,,,,,null,,,,,,,,,,,,,,,,,,,,
null,,learn_phase(without_color),992404,,,black_plus_sign,,,,,null,US_Cities_List/boulder.png,US_Cities_List/leesburg.png,,,,,,,,,,,,,,,,,,
null,,black_cross(without_color),993055,,,yellow,,,,,null,US_Cities_List/boulder.png,US_Cities_List/leesburg.png,,,,,,,,,,,,,,,,,,
null,,rt_plussign_withcolor,993564,,,yellow,,,,,null,US_Cities_List/boulder.png,US_Cities_List/leesburg.png,,,,,,,,,,,,,,,,,,
1394.6999999997206,,rt_thecrossant_black,994927,,,black_plus_sign,,,,,50,,,1,0.9900990099009901,,,,,,,,,,,,,,,,
null,,color_black,995037,,,black_plus_sign,,,,,null,,,,,,,,,,,,,,,,,,,,
null,,learn_phase(without_color),998057,,,black_plus_sign,,,,,null,US_Cities_List/hanover.png,US_Cities_List/boulder.png,,,,,,,,,,,,,,,,,,
null,,black_cross(without_color),998600,,,yellow,,,,,null,US_Cities_List/hanover.png,US_Cities_List/boulder.png,,,,,,,,,,,,,,,,,,
null,,rt_plussign_withcolor,999107,,,yellow,,,,,null,US_Cities_List/hanover.png,US_Cities_List/boulder.png,,,,,,,,,,,,,,,,,,
901.9000000003725,,rt_thecrossant_black,1000575,,,black_plus_sign,,,,,50,,,1,0.9901960784313726,,,,,,,,,,,,,,,,
null,,color_black,1000685,,,black_plus_sign,,,,,null,,,,,,,,,,,,,,,,,,,,
null,,learn_phase(without_color),1003705,,,black_plus_sign,,,,,null,US_Cities_List/hotsprings.png,US_Cities_List/carmel.png,,,,,,,,,,,,,,,,,,
null,,black_cross(without_color),1004117,,,yellow,,,,,null,US_Cities_List/hotsprings.png,US_Cities_List/carmel.png,,,,,,,,,,,,,,,,,,
null,,rt_plussign_withcolor,1004626,,,yellow,,,,,null,US_Cities_List/hotsprings.png,US_Cities_List/carmel.png,,,,,,,,,,,,,,,,,,
940.6999999997206,,rt_thecrossant_black,1006229,,,black_plus_sign,,,,,50,,,1,0.9902912621359223,,,,,,,,,,,,,,,,
null,,color_black,1006340,,,black_plus_sign,,,,,null,,,,,,,,,,,,,,,,,,,,
null,,learn_phase(without_color),1009362,,,black_plus_sign,,,,,null,US_Cities_List/gatlinburg.png,US_Cities_List/peoria.png,,,,,,,,,,,,,,,,,,
null,,black_cross(without_color),1009839,,,yellow,,,,,null,US_Cities_List/gatlinburg.png,US_Cities_List/peoria.png,,,,,,,,,,,,,,,,,,
null,,rt_plussign_withcolor,1010344,,,yellow,,,,,null,US_Cities_List/gatlinburg.png,US_Cities_List/peoria.png,,,,,,,,,,,,,,,,,,
606.8000000002794,,rt_thecrossant_black,1011879,,,black_plus_sign,,,,,50,,,1,0.9903846153846154,,,,,,,,,,,,,,,,
null,,color_black,1011996,,,black_plus_sign,,,,,null,,,,,,,,,,,,,,,,,,,,
null,,learn_phase(without_color),1015020,,,black_plus_sign,,,,,null,US_Cities_List/cornwall.png,US_Cities_List/hotsprings.png,,,,,,,,,,,,,,,,,,
null,,black_cross(without_color),1015972,,,blue,,,,,null,US_Cities_List/cornwall.png,US_Cities_List/hotsprings.png,,,,,,,,,,,,,,,,,,
null,,rt_plussign_withcolor,1016478,,,blue,,,,,null,US_Cities_List/cornwall.png,US_Cities_List/hotsprings.png,,,,,,,,,,,,,,,,,,
989.0999999996275,,rt_thecrossant_black,1017536,,,black_plus_sign,,,,,49,,,1,0.9904761904761905,,,,,,,,,,,,,,,,
null,,color_black,1017644,,,black_plus_sign,,,,,null,,,,,,,,,,,,,,,,,,,,
null,,learn_phase(without_color),1020665,,,black_plus_sign,,,,,null,US_Cities_List/shreveport.png,US_Cities_List/cornwall.png,,,,,,,,,,,,,,,,,,
null,,black_cross(without_color),1021487,,,blue,,,,,null,US_Cities_List/shreveport.png,US_Cities_List/cornwall.png,,,,,,,,,,,,,,,,,,
null,,rt_plussign_withcolor,1021993,,,blue,,,,,null,US_Cities_List/shreveport.png,US_Cities_List/cornwall.png,,,,,,,,,,,,,,,,,,
1414.8000000002794,,rt_thecrossant_black,1023181,,,black_plus_sign,,,,,49,,,1,0.9905660377358491,,,,,,,,,,,,,,,,
null,,color_black,1023286,,,black_plus_sign,,,,,null,,,,,,,,,,,,,,,,,,,,
null,,learn_phase(without_color),1026299,,,black_plus_sign,,,,,null,US_Cities_List/racine.png,US_Cities_List/huntsville.png,,,,,,,,,,,,,,,,,,
null,,black_cross(without_color),1027269,,,blue,,,,,null,US_Cities_List/racine.png,US_Cities_List/huntsville.png,,,,,,,,,,,,,,,,,,
null,,rt_plussign_withcolor,1027771,,,blue,,,,,null,US_Cities_List/racine.png,US_Cities_List/huntsville.png,,,,,,,,,,,,,,,,,,
1042.1999999997206,,rt_thecrossant_black,1028808,,,black_plus_sign,,,,,49,,,1,0.9906542056074766,,,,,,,,,,,,,,,,
null,,color_black,1028911,,,black_plus_sign,,,,,null,,,,,,,,,,,,,,,,,,,,
null,,learn_phase(without_color),1031936,,,black_plus_sign,,,,,null,US_Cities_List/shreveport.png,US_Cities_List/cornwall.png,,,,,,,,,,,,,,,,,,
null,,black_cross(without_color),1032852,,,blue,,,,,null,US_Cities_List/shreveport.png,US_Cities_List/cornwall.png,,,,,,,,,,,,,,,,,,
null,,rt_plussign_withcolor,1033356,,,blue,,,,,null,US_Cities_List/shreveport.png,US_Cities_List/cornwall.png,,,,,,,,,,,,,,,,,,
1986.2000000001863,,rt_thecrossant_black,1034461,,,black_plus_sign,,,,,49,,,1,0.9907407407407407,,,,,,,,,,,,,,,,
null,,color_black,1034571,,,black_plus_sign,,,,,null,,,,,,,,,,,,,,,,,,,,
null,,learn_phase(without_color),1037591,,,black_plus_sign,,,,,null,US_Cities_List/gatlinburg.png,US_Cities_List/peoria.png,,,,,,,,,,,,,,,,,,
null,,black_cross(without_color),1038096,,,yellow,,,,,null,US_Cities_List/gatlinburg.png,US_Cities_List/peoria.png,,,,,,,,,,,,,,,,,,
null,,rt_plussign_withcolor,1038599,,,yellow,,,,,null,US_Cities_List/gatlinburg.png,US_Cities_List/peoria.png,,,,,,,,,,,,,,,,,,
1131.7999999998137,,rt_thecrossant_black,1040108,,,black_plus_sign,,,,,50,,,1,0.9908256880733946,,,,,,,,,,,,,,,,
null,,color_black,1040216,,,black_plus_sign,,,,,null,,,,,,,,,,,,,,,,,,,,
null,,learn_phase(without_color),1043243,,,black_plus_sign,,,,,null,US_Cities_List/gatlinburg.png,US_Cities_List/carmel.png,,,,,,,,,,,,,,,,,,
null,,black_cross(without_color),1044326,,,yellow,,,,,null,US_Cities_List/gatlinburg.png,US_Cities_List/carmel.png,,,,,,,,,,,,,,,,,,
null,,rt_plussign_withcolor,1044835,,,yellow,,,,,null,US_Cities_List/gatlinburg.png,US_Cities_List/carmel.png,,,,,,,,,,,,,,,,,,
963.9000000003725,,rt_thecrossant_black,1045769,,,black_plus_sign,,,,,50,,,1,0.990909090909091,,,,,,,,,,,,,,,,
null,,color_black,1045880,,,black_plus_sign,,,,,null,,,,,,,,,,,,,,,,,,,,
null,,learn_phase(without_color),1048898,,,black_plus_sign,,,,,null,US_Cities_List/racine.png,US_Cities_List/huntsville.png,,,,,,,,,,,,,,,,,,
null,,black_cross(without_color),1049593,,,yellow,,,,,null,US_Cities_List/racine.png,US_Cities_List/huntsville.png,,,,,,,,,,,,,,,,,,
null,,rt_plussign_withcolor,1050106,,,yellow,,,,,null,US_Cities_List/racine.png,US_Cities_List/huntsville.png,,,,,,,,,,,,,,,,,,
1306.8999999999069,,rt_thecrossant_black,1051422,,,black_plus_sign,,,,,50,,,1,0.990990990990991,,,,,,,,,,,,,,,,
null,,color_black,1051528,,,black_plus_sign,,,,,null,,,,,,,,,,,,,,,,,,,,
null,,learn_phase(without_color),1054542,,,black_plus_sign,,,,,null,US_Cities_List/leesburg.png,US_Cities_List/newhope.png,,,,,,,,,,,,,,,,,,
null,,black_cross(without_color),1054999,,,blue,,,,,null,US_Cities_List/leesburg.png,US_Cities_List/newhope.png,,,,,,,,,,,,,,,,,,
null,,rt_plussign_withcolor,1055507,,,blue,,,,,null,US_Cities_List/leesburg.png,US_Cities_List/newhope.png,,,,,,,,,,,,,,,,,,
1506.1999999997206,,rt_thecrossant_black,1057060,,,black_plus_sign,,,,,49,,,1,0.9910714285714286,,,,,,,,,,,,,,,,
null,,color_black,1057168,,,black_plus_sign,,,,,null,,,,,,,,,,,,,,,,,,,,
null,,learn_phase(without_color),1060185,,,black_plus_sign,,,,,null,US_Cities_List/newhope.png,US_Cities_List/gatlinburg.png,,,,,,,,,,,,,,,,,,
null,,black_cross(without_color),1061130,,,yellow,,,,,null,US_Cities_List/newhope.png,US_Cities_List/gatlinburg.png,,,,,,,,,,,,,,,,,,
null,,rt_plussign_withcolor,1061636,,,yellow,,,,,null,US_Cities_List/newhope.png,US_Cities_List/gatlinburg.png,,,,,,,,,,,,,,,,,,
1226.7999999998137,,rt_thecrossant_black,1062712,,,black_plus_sign,,,,,50,,,1,0.9911504424778761,,,,,,,,,,,,,,,,
null,,color_black,1062821,,,black_plus_sign,,,,,null,,,,,,,,,,,,,,,,,,,,
null,,learn_phase(without_color),1065835,,,black_plus_sign,,,,,null,US_Cities_List/peoria.png,US_Cities_List/huntsville.png,,,,,,,,,,,,,,,,,,
null,,black_cross(without_color),1066364,,,yellow,,,,,null,US_Cities_List/peoria.png,US_Cities_List/huntsville.png,,,,,,,,,,,,,,,,,,
null,,rt_plussign_withcolor,1066867,,,yellow,,,,,null,US_Cities_List/peoria.png,US_Cities_List/huntsville.png,,,,,,,,,,,,,,,,,,
1199.6000000000931,,rt_thecrossant_black,1068357,,,black_plus_sign,,,,,50,,,1,0.9912280701754386,,,,,,,,,,,,,,,,
null,,color_black,1068467,,,black_plus_sign,,,,,null,,,,,,,,,,,,,,,,,,,,
null,,learn_phase(without_color),1071496,,,black_plus_sign,,,,,null,US_Cities_List/newhope.png,US_Cities_List/leesburg.png,,,,,,,,,,,,,,,,,,
null,,black_cross(without_color),1071971,,,yellow,,,,,null,US_Cities_List/newhope.png,US_Cities_List/leesburg.png,,,,,,,,,,,,,,,,,,
null,,rt_plussign_withcolor,1072477,,,yellow,,,,,null,US_Cities_List/newhope.png,US_Cities_List/leesburg.png,,,,,,,,,,,,,,,,,,
1160.1000000000931,,rt_thecrossant_black,1074008,,,black_plus_sign,,,,,50,,,1,0.991304347826087,,,,,,,,,,,,,,,,
null,,color_black,1074111,,,black_plus_sign,,,,,null,,,,,,,,,,,,,,,,,,,,
null,,learn_phase(without_color),1077130,,,black_plus_sign,,,,,null,US_Cities_List/peoria.png,US_Cities_List/boulder.png,,,,,,,,,,,,,,,,,,
null,,black_cross(without_color),1077947,,,yellow,,,,,null,US_Cities_List/peoria.png,US_Cities_List/boulder.png,,,,,,,,,,,,,,,,,,
null,,rt_plussign_withcolor,1078449,,,yellow,,,,,null,US_Cities_List/peoria.png,US_Cities_List/boulder.png,,,,,,,,,,,,,,,,,,
910.5,,rt_thecrossant_black,1079643,,,black_plus_sign,,,,,50,,,1,0.9913793103448276,,,,,,,,,,,,,,,,
null,,color_black,1079751,,,black_plus_sign,,,,,null,,,,,,,,,,,,,,,,,,,,
null,,learn_phase(without_color),1082768,,,black_plus_sign,,,,,null,US_Cities_List/carmel.png,US_Cities_List/hotsprings.png,,,,,,,,,,,,,,,,,,
null,,black_cross(without_color),1083479,,,yellow,,,,,null,US_Cities_List/carmel.png,US_Cities_List/hotsprings.png,,,,,,,,,,,,,,,,,,
null,,rt_plussign_withcolor,1083987,,,yellow,,,,,null,US_Cities_List/carmel.png,US_Cities_List/hotsprings.png,,,,,,,,,,,,,,,,,,
1058,,rt_thecrossant_black,1085286,,,black_plus_sign,,,,,50,,,1,0.9914529914529915,,,,,,,,,,,,,,,,
null,,color_black,1085389,,,black_plus_sign,,,,,null,,,,,,,,,,,,,,,,,,,,
null,,learn_phase(without_color),1088407,,,black_plus_sign,,,,,null,US_Cities_List/leesburg.png,US_Cities_List/newhope.png,,,,,,,,,,,,,,,,,,
null,,black_cross(without_color),1088874,,,yellow,,,,,null,US_Cities_List/leesburg.png,US_Cities_List/newhope.png,,,,,,,,,,,,,,,,,,
null,,rt_plussign_withcolor,1089378,,,yellow,,,,,null,US_Cities_List/leesburg.png,US_Cities_List/newhope.png,,,,,,,,,,,,,,,,,,
819.8999999999069,,rt_thecrossant_black,1090928,,,black_plus_sign,,,,,50,,,1,0.9915254237288136,,,,,,,,,,,,,,,,
null,,color_black,1091030,,,black_plus_sign,,,,,null,,,,,,,,,,,,,,,,,,,,
null,,learn_phase(without_color),1094050,,,black_plus_sign,,,,,null,US_Cities_List/peoria.png,US_Cities_List/boulder.png,,,,,,,,,,,,,,,,,,
null,,black_cross(without_color),1094864,,,yellow,,,,,null,US_Cities_List/peoria.png,US_Cities_List/boulder.png,,,,,,,,,,,,,,,,,,
null,,rt_plussign_withcolor,1095369,,,yellow,,,,,null,US_Cities_List/peoria.png,US_Cities_List/boulder.png,,,,,,,,,,,,,,,,,,
971.1000000000931,,rt_thecrossant_black,1096565,,,black_plus_sign,,,,,50,,,1,0.9915966386554622,,,,,,,,,,,,,,,,
null,,color_black,1096670,,,black_plus_sign,,,,,null,,,,,,,,,,,,,,,,,,,,
null,,learn_phase(without_color),1099689,,,black_plus_sign,,,,,null,US_Cities_List/hanover.png,US_Cities_List/boulder.png,,,,,,,,,,,,,,,,,,
null,,black_cross(without_color),1100113,,,blue,,,,,null,US_Cities_List/hanover.png,US_Cities_List/boulder.png,,,,,,,,,,,,,,,,,,
null,,rt_plussign_withcolor,1100615,,,blue,,,,,null,US_Cities_List/hanover.png,US_Cities_List/boulder.png,,,,,,,,,,,,,,,,,,
1937.8999999999069,,rt_thecrossant_black,1102200,,,black_plus_sign,,,,,49,,,1,0.9916666666666667,,,,,,,,,,,,,,,,
null,,color_black,1102309,,,black_plus_sign,,,,,null,,,,,,,,,,,,,,,,,,,,
null,,learn_phase(without_color),1105336,,,black_plus_sign,,,,,null,US_Cities_List/boulder.png,US_Cities_List/peoria.png,,,,,,,,,,,,,,,,,,
null,,black_cross(without_color),1106129,,,blue,,,,,null,US_Cities_List/boulder.png,US_Cities_List/peoria.png,,,,,,,,,,,,,,,,,,
null,,rt_plussign_withcolor,1106634,,,blue,,,,,null,US_Cities_List/boulder.png,US_Cities_List/peoria.png,,,,,,,,,,,,,,,,,,
876.8999999999069,,rt_thecrossant_black,1107848,,,black_plus_sign,,,,,49,,,1,0.9917355371900827,,,,,,,,,,,,,,,,
null,,color_black,1107950,,,black_plus_sign,,,,,null,,,,,,,,,,,,,,,,,,,,
null,,learn_phase(without_color),1110973,,,black_plus_sign,,,,,null,US_Cities_List/boulder.png,US_Cities_List/huntsville.png,,,,,,,,,,,,,,,,,,
null,,black_cross(without_color),1111570,,,yellow,,,,,null,US_Cities_List/boulder.png,US_Cities_List/huntsville.png,,,,,,,,,,,,,,,,,,
null,,rt_plussign_withcolor,1112078,,,yellow,,,,,null,US_Cities_List/boulder.png,US_Cities_List/huntsville.png,,,,,,,,,,,,,,,,,,
1169.3000000002794,,rt_thecrossant_black,1113503,,,black_plus_sign,,,,,50,,,1,0.9918032786885246,,,,,,,,,,,,,,,,
null,,color_black,1113611,,,black_plus_sign,,,,,null,,,,,,,,,,,,,,,,,,,,
null,,learn_phase(without_color),1116626,,,black_plus_sign,,,,,null,US_Cities_List/boulder.png,US_Cities_List/huntsville.png,,,,,,,,,,,,,,,,,,
null,,black_cross(without_color),1117301,,,blue,,,,,null,US_Cities_List/boulder.png,US_Cities_List/huntsville.png,,,,,,,,,,,,,,,,,,
469.20000000018626,,rt_plussign_withcolor,1117806,,,blue,,,,,49,US_Cities_List/boulder.png,US_Cities_List/huntsville.png,,,,,,,,,,,,,,,,,,
null,,rt_thecrossant_black,1119141,,,black_plus_sign,,,,,null,,,1,0.991869918699187,,,,,,,,,,,,,,,,
null,,color_black,1119251,,,black_plus_sign,,,,,null,,,,,,,,,,,,,,,,,,,,
null,,learn_phase(without_color),1122267,,,black_plus_sign,,,,,null,US_Cities_List/westpalmbeach.png,US_Cities_List/hotsprings.png,,,,,,,,,,,,,,,,,,
null,,black_cross(without_color),1123039,,,blue,,,,,null,US_Cities_List/westpalmbeach.png,US_Cities_List/hotsprings.png,,,,,,,,,,,,,,,,,,
null,,rt_plussign_withcolor,1123547,,,blue,,,,,null,US_Cities_List/westpalmbeach.png,US_Cities_List/hotsprings.png,,,,,,,,,,,,,,,,,,
1260.8999999999069,,rt_thecrossant_black,1124800,,,black_plus_sign,,,,,49,,,1,0.9919354838709677,,,,,,,,,,,,,,,,
null,,color_black,1124910,,,black_plus_sign,,,,,null,,,,,,,,,,,,,,,,,,,,
null,,learn_phase(without_color),1127925,,,black_plus_sign,,,,,null,US_Cities_List/peoria.png,US_Cities_List/gatlinburg.png,,,,,,,,,,,,,,,,,,
null,,black_cross(without_color),1128850,,,blue,,,,,null,US_Cities_List/peoria.png,US_Cities_List/gatlinburg.png,,,,,,,,,,,,,,,,,,
null,,rt_plussign_withcolor,1129358,,,blue,,,,,null,US_Cities_List/peoria.png,US_Cities_List/gatlinburg.png,,,,,,,,,,,,,,,,,,
1182.2999999998137,,rt_thecrossant_black,1130451,,,black_plus_sign,,,,,49,,,1,0.992,,,,,,,,,,,,,,,,
null,,color_black,1130560,,,black_plus_sign,,,,,null,,,,,,,,,,,,,,,,,,,,
null,,learn_phase(without_color),1133588,,,black_plus_sign,,,,,null,US_Cities_List/gatlinburg.png,US_Cities_List/newhope.png,,,,,,,,,,,,,,,,,,
null,,black_cross(without_color),1134035,,,yellow,,,,,null,US_Cities_List/gatlinburg.png,US_Cities_List/newhope.png,,,,,,,,,,,,,,,,,,
null,,rt_plussign_withcolor,1134538,,,yellow,,,,,null,US_Cities_List/gatlinburg.png,US_Cities_List/newhope.png,,,,,,,,,,,,,,,,,,
1215.7999999998137,,rt_thecrossant_black,1136100,,,black_plus_sign,,,,,50,,,1,0.9920634920634921,,,,,,,,,,,,,,,,
null,,color_black,1136217,,,black_plus_sign,,,,,null,,,,,,,,,,,,,,,,,,,,
13600.799999999814,,learn_break,1149820,,,learn_break,,,,,32,,,,,,,,,,,,,,,,,,,,
16137.19999999972,,intro_1,1165959,,,instruct,,,0,,,,,,,,,,,,,,,,,,,,,,
42320.700000000186,,intro_2,1208283,,,instruct,,,1,Next,,,,,,,,,,,,,,,,,,,,,
4653.300000000279,,directmemory_phase,1212955,,,../static/images/US_Cities_List/boulder.png,,,,,49,,,1,1,../static/images/US_Cities_List/huntsville.png,../static/images/US_Cities_List/shreveport.png,../static/images/US_Cities_List/racine.png,../static/images/US_Cities_List/huntsville.png,../static/images/US_Cities_List/racine.png,../static/images/US_Cities_List/shreveport.png,1,,,,,,,,,
null,,html-keyboard-response,1213962,,,<p></p>,,,,,null,,,,,,,,,,,,,,,,,,,,
3094.899999999907,,directmemory_phase,1217082,,,../static/images/US_Cities_List/cornwall.png,,,,,51,,,1,1,../static/images/US_Cities_List/peoria.png,../static/images/US_Cities_List/leesburg.png,../static/images/US_Cities_List/hotsprings.png,../static/images/US_Cities_List/hotsprings.png,../static/images/US_Cities_List/leesburg.png,../static/images/US_Cities_List/peoria.png,1,,,,,,,,,
null,,html-keyboard-response,1218095,,,<p></p>,,,,,null,,,,,,,,,,,,,,,,,,,,
3995.3000000002794,,directmemory_phase,1222114,,,../static/images/US_Cities_List/peoria.png,,,,,50,,,1,1,../static/images/US_Cities_List/carmel.png,../static/images/US_Cities_List/huntsville.png,../static/images/US_Cities_List/cornwall.png,../static/images/US_Cities_List/huntsville.png,../static/images/US_Cities_List/carmel.png,../static/images/US_Cities_List/cornwall.png,1,,,,,,,,,
null,,html-keyboard-response,1223125,,,<p></p>,,,,,null,,,,,,,,,,,,,,,,,,,,
2323.5,,directmemory_phase,1225472,,,../static/images/US_Cities_List/hotsprings.png,,,,,49,,,1,1,../static/images/US_Cities_List/carmel.png,../static/images/US_Cities_List/leesburg.png,../static/images/US_Cities_List/gatlinburg.png,../static/images/US_Cities_List/carmel.png,../static/images/US_Cities_List/gatlinburg.png,../static/images/US_Cities_List/leesburg.png,1,,,,,,,,,
null,,html-keyboard-response,1226484,,,<p></p>,,,,,null,,,,,,,,,,,,,,,,,,,,
2919.7999999998137,,directmemory_phase,1229422,,,../static/images/US_Cities_List/leesburg.png,,,,,50,,,1,1,../static/images/US_Cities_List/gatlinburg.png,../static/images/US_Cities_List/peoria.png,../static/images/US_Cities_List/westpalmbeach.png,../static/images/US_Cities_List/peoria.png,../static/images/US_Cities_List/gatlinburg.png,../static/images/US_Cities_List/westpalmbeach.png,1,,,,,,,,,
null,,html-keyboard-response,1230429,,,<p></p>,,,,,null,,,,,,,,,,,,,,,,,,,,
1915.8999999999069,,directmemory_phase,1232367,,,../static/images/US_Cities_List/gatlinburg.png,,,,,50,,,1,1,../static/images/US_Cities_List/leesburg.png,../static/images/US_Cities_List/newhope.png,../static/images/US_Cities_List/westpalmbeach.png,../static/images/US_Cities_List/newhope.png,../static/images/US_Cities_List/leesburg.png,../static/images/US_Cities_List/westpalmbeach.png,1,,,,,,,,,
null,,html-keyboard-response,1233371,,,<p></p>,,,,,null,,,,,,,,,,,,,,,,,,,,
1635.3999999999069,,directmemory_phase,1235029,,,../static/images/US_Cities_List/westpalmbeach.png,,,,,49,,,1,1,../static/images/US_Cities_List/hotsprings.png,../static/images/US_Cities_List/leesburg.png,../static/images/US_Cities_List/carmel.png,../static/images/US_Cities_List/hotsprings.png,../static/images/US_Cities_List/carmel.png,../static/images/US_Cities_List/leesburg.png,1,,,,,,,,,
null,,html-keyboard-response,1236035,,,<p></p>,,,,,null,,,,,,,,,,,,,,,,,,,,
2800.5,,directmemory_phase,1238854,,,../static/images/US_Cities_List/gatlinburg.png,,,,,51,,,1,1,../static/images/US_Cities_List/hanover.png,../static/images/US_Cities_List/huntsville.png,../static/images/US_Cities_List/peoria.png,../static/images/US_Cities_List/peoria.png,../static/images/US_Cities_List/huntsville.png,../static/images/US_Cities_List/hanover.png,1,,,,,,,,,
null,,html-keyboard-response,1239858,,,<p></p>,,,,,null,,,,,,,,,,,,,,,,,,,,
3304.1999999997206,,directmemory_phase,1243185,,,../static/images/US_Cities_List/boulder.png,,,,,50,,,1,1,../static/images/US_Cities_List/racine.png,../static/images/US_Cities_List/leesburg.png,../static/images/US_Cities_List/cornwall.png,../static/images/US_Cities_List/leesburg.png,../static/images/US_Cities_List/racine.png,../static/images/US_Cities_List/cornwall.png,1,,,,,,,,,
null,,html-keyboard-response,1244199,,,<p></p>,,,,,null,,,,,,,,,,,,,,,,,,,,
1929.2999999998137,,directmemory_phase,1246152,,,../static/images/US_Cities_List/peoria.png,,,,,49,,,1,1,../static/images/US_Cities_List/gatlinburg.png,../static/images/US_Cities_List/westpalmbeach.png,../static/images/US_Cities_List/racine.png,../static/images/US_Cities_List/gatlinburg.png,../static/images/US_Cities_List/racine.png,../static/images/US_Cities_List/westpalmbeach.png,1,,,,,,,,,
null,,html-keyboard-response,1247162,,,<p></p>,,,,,null,,,,,,,,,,,,,,,,,,,,
3129.600000000093,,directmemory_phase,1250312,,,../static/images/US_Cities_List/newhope.png,,,,,51,,,1,1,../static/images/US_Cities_List/westpalmbeach.png,../static/images/US_Cities_List/hotsprings.png,../static/images/US_Cities_List/leesburg.png,../static/images/US_Cities_List/leesburg.png,../static/images/US_Cities_List/hotsprings.png,../static/images/US_Cities_List/westpalmbeach.png,1,,,,,,,,,
null,,html-keyboard-response,1251332,,,<p></p>,,,,,null,,,,,,,,,,,,,,,,,,,,
2770.5,,directmemory_phase,1254124,,,../static/images/US_Cities_List/huntsville.png,,,,,51,,,1,1,../static/images/US_Cities_List/newhope.png,../static/images/US_Cities_List/gatlinburg.png,../static/images/US_Cities_List/peoria.png,../static/images/US_Cities_List/peoria.png,../static/images/US_Cities_List/gatlinburg.png,../static/images/US_Cities_List/newhope.png,1,,,,,,,,,
null,,html-keyboard-response,1255135,,,<p></p>,,,,,null,,,,,,,,,,,,,,,,,,,,
2511,,directmemory_phase,1257674,,,../static/images/US_Cities_List/hotsprings.png,,,,,49,,,1,1,../static/images/US_Cities_List/westpalmbeach.png,../static/images/US_Cities_List/leesburg.png,../static/images/US_Cities_List/gatlinburg.png,../static/images/US_Cities_List/westpalmbeach.png,../static/images/US_Cities_List/gatlinburg.png,../static/images/US_Cities_List/leesburg.png,1,,,,,,,,,
null,,html-keyboard-response,1258681,,,<p></p>,,,,,null,,,,,,,,,,,,,,,,,,,,
1370.6999999997206,,directmemory_phase,1260080,,,../static/images/US_Cities_List/shreveport.png,,,,,49,,,1,1,../static/images/US_Cities_List/cornwall.png,../static/images/US_Cities_List/gatlinburg.png,../static/images/US_Cities_List/newhope.png,../static/images/US_Cities_List/cornwall.png,../static/images/US_Cities_List/newhope.png,../static/images/US_Cities_List/gatlinburg.png,1,,,,,,,,,
null,,html-keyboard-response,1261095,,,<p></p>,,,,,null,,,,,,,,,,,,,,,,,,,,
2884.2000000001863,,directmemory_phase,1264001,,,../static/images/US_Cities_List/carmel.png,,,,,51,,,1,1,../static/images/US_Cities_List/boulder.png,../static/images/US_Cities_List/westpalmbeach.png,../static/images/US_Cities_List/gatlinburg.png,../static/images/US_Cities_List/gatlinburg.png,../static/images/US_Cities_List/westpalmbeach.png,../static/images/US_Cities_List/boulder.png,1,,,,,,,,,
null,,html-keyboard-response,1265005,,,<p></p>,,,,,null,,,,,,,,,,,,,,,,,,,,
4800.4000000003725,,directmemory_phase,1269825,,,../static/images/US_Cities_List/huntsville.png,,,,,49,,,0,0.9375,../static/images/US_Cities_List/gatlinburg.png,../static/images/US_Cities_List/racine.png,../static/images/US_Cities_List/newhope.png,../static/images/US_Cities_List/racine.png,../static/images/US_Cities_List/gatlinburg.png,../static/images/US_Cities_List/newhope.png,0.5,closer,,,,,,,,
null,,html-keyboard-response,1270828,,,<p></p>,,,,,null,,,,,,,,,,,,,,,,,,,,
2377.1999999997206,,directmemory_phase,1273225,,,../static/images/US_Cities_List/carmel.png,,,,,51,,,1,0.9411764705882353,../static/images/US_Cities_List/racine.png,../static/images/US_Cities_List/westpalmbeach.png,../static/images/US_Cities_List/hotsprings.png,../static/images/US_Cities_List/hotsprings.png,../static/images/US_Cities_List/westpalmbeach.png,../static/images/US_Cities_List/racine.png,1,,,,,,,,,
null,,html-keyboard-response,1274234,,,<p></p>,,,,,null,,,,,,,,,,,,,,,,,,,,
2588,,directmemory_phase,1276841,,,../static/images/US_Cities_List/newhope.png,,,,,49,,,1,0.9444444444444444,../static/images/US_Cities_List/cornwall.png,../static/images/US_Cities_List/huntsville.png,../static/images/US_Cities_List/boulder.png,../static/images/US_Cities_List/cornwall.png,../static/images/US_Cities_List/boulder.png,../static/images/US_Cities_List/huntsville.png,1,,,,,,,,,
null,,html-keyboard-response,1277849,,,<p></p>,,,,,null,,,,,,,,,,,,,,,,,,,,
5050.399999999907,,directmemory_phase,1282923,,,../static/images/US_Cities_List/boulder.png,,,,,51,,,1,0.9473684210526315,../static/images/US_Cities_List/carmel.png,../static/images/US_Cities_List/newhope.png,../static/images/US_Cities_List/peoria.png,../static/images/US_Cities_List/peoria.png,../static/images/US_Cities_List/newhope.png,../static/images/US_Cities_List/carmel.png,1,,,,,,,,,
null,,html-keyboard-response,1283933,,,<p></p>,,,,,null,,,,,,,,,,,,,,,,,,,,
3394.2000000001863,,directmemory_phase,1287354,,,../static/images/US_Cities_List/cornwall.png,,,,,49,,,1,0.95,../static/images/US_Cities_List/shreveport.png,../static/images/US_Cities_List/boulder.png,../static/images/US_Cities_List/westpalmbeach.png,../static/images/US_Cities_List/shreveport.png,../static/images/US_Cities_List/westpalmbeach.png,../static/images/US_Cities_List/boulder.png,1,,,,,,,,,
null,,html-keyboard-response,1288373,,,<p></p>,,,,,null,,,,,,,,,,,,,,,,,,,,
2202.899999999907,,directmemory_phase,1290604,,,../static/images/US_Cities_List/peoria.png,,,,,51,,,1,0.9523809523809523,../static/images/US_Cities_List/cornwall.png,../static/images/US_Cities_List/racine.png,../static/images/US_Cities_List/boulder.png,../static/images/US_Cities_List/boulder.png,../static/images/US_Cities_List/racine.png,../static/images/US_Cities_List/cornwall.png,1,,,,,,,,,
null,,html-keyboard-response,1291614,,,<p></p>,,,,,null,,,,,,,,,,,,,,,,,,,,
3797.7000000001863,,directmemory_phase,1295438,,,../static/images/US_Cities_List/cornwall.png,,,,,50,,,1,0.9545454545454546,../static/images/US_Cities_List/gatlinburg.png,../static/images/US_Cities_List/newhope.png,../static/images/US_Cities_List/huntsville.png,../static/images/US_Cities_List/newhope.png,../static/images/US_Cities_List/gatlinburg.png,../static/images/US_Cities_List/huntsville.png,1,,,,,,,,,
null,,html-keyboard-response,1296449,,,<p></p>,,,,,null,,,,,,,,,,,,,,,,,,,,
2595.100000000093,,directmemory_phase,1299063,,,../static/images/US_Cities_List/leesburg.png,,,,,51,,,1,0.9565217391304348,../static/images/US_Cities_List/carmel.png,../static/images/US_Cities_List/hanover.png,../static/images/US_Cities_List/boulder.png,../static/images/US_Cities_List/boulder.png,../static/images/US_Cities_List/hanover.png,../static/images/US_Cities_List/carmel.png,1,,,,,,,,,
null,,html-keyboard-response,1300069,,,<p></p>,,,,,null,,,,,,,,,,,,,,,,,,,,
2648.8000000002794,,directmemory_phase,1302737,,,../static/images/US_Cities_List/racine.png,,,,,49,,,1,0.9583333333333334,../static/images/US_Cities_List/huntsville.png,../static/images/US_Cities_List/gatlinburg.png,../static/images/US_Cities_List/boulder.png,../static/images/US_Cities_List/huntsville.png,../static/images/US_Cities_List/boulder.png,../static/images/US_Cities_List/gatlinburg.png,1,,,,,,,,,
null,,html-keyboard-response,1303749,,,<p></p>,,,,,null,,,,,,,,,,,,,,,,,,,,
2923.5,,directmemory_phase,1306700,,,../static/images/US_Cities_List/hotsprings.png,,,,,49,,,1,0.96,../static/images/US_Cities_List/cornwall.png,../static/images/US_Cities_List/peoria.png,../static/images/US_Cities_List/gatlinburg.png,../static/images/US_Cities_List/cornwall.png,../static/images/US_Cities_List/gatlinburg.png,../static/images/US_Cities_List/peoria.png,1,,,,,,,,,
null,,html-keyboard-response,1307707,,,<p></p>,,,,,null,,,,,,,,,,,,,,,,,,,,
1715,,directmemory_phase,1309439,,,../static/images/US_Cities_List/hanover.png,,,,,50,,,1,0.9615384615384616,../static/images/US_Cities_List/peoria.png,../static/images/US_Cities_List/boulder.png,../static/images/US_Cities_List/gatlinburg.png,../static/images/US_Cities_List/boulder.png,../static/images/US_Cities_List/peoria.png,../static/images/US_Cities_List/gatlinburg.png,1,,,,,,,,,
null,,html-keyboard-response,1310449,,,<p></p>,,,,,null,,,,,,,,,,,,,,,,,,,,
4842.399999999907,,directmemory_phase,1315316,,,../static/images/US_Cities_List/leesburg.png,,,,,51,,,1,0.9629629629629629,../static/images/US_Cities_List/westpalmbeach.png,../static/images/US_Cities_List/cornwall.png,../static/images/US_Cities_List/newhope.png,../static/images/US_Cities_List/newhope.png,../static/images/US_Cities_List/cornwall.png,../static/images/US_Cities_List/westpalmbeach.png,1,,,,,,,,,
null,,html-keyboard-response,1316325,,,<p></p>,,,,,null,,,,,,,,,,,,,,,,,,,,
1648.6000000000931,,directmemory_phase,1317989,,,../static/images/US_Cities_List/gatlinburg.png,,,,,49,,,0,0.9285714285714286,../static/images/US_Cities_List/huntsville.png,../static/images/US_Cities_List/carmel.png,../static/images/US_Cities_List/westpalmbeach.png,../static/images/US_Cities_List/carmel.png,../static/images/US_Cities_List/huntsville.png,../static/images/US_Cities_List/westpalmbeach.png,0.5,closer,,,,,,,,
null,,html-keyboard-response,1318998,,,<p></p>,,,,,null,,,,,,,,,,,,,,,,,,,,
5848.699999999721,,directmemory_phase,1324867,,,../static/images/US_Cities_List/peoria.png,,,,,49,,,1,0.9310344827586207,../static/images/US_Cities_List/leesburg.png,../static/images/US_Cities_List/hotsprings.png,../static/images/US_Cities_List/racine.png,../static/images/US_Cities_List/leesburg.png,../static/images/US_Cities_List/racine.png,../static/images/US_Cities_List/hotsprings.png,1,,,,,,,,,
null,,html-keyboard-response,1325874,,,<p></p>,,,,,null,,,,,,,,,,,,,,,,,,,,
1719.5,,directmemory_phase,1327612,,,../static/images/US_Cities_List/huntsville.png,,,,,51,,,1,0.9333333333333333,../static/images/US_Cities_List/hotsprings.png,../static/images/US_Cities_List/leesburg.png,../static/images/US_Cities_List/boulder.png,../static/images/US_Cities_List/boulder.png,../static/images/US_Cities_List/leesburg.png,../static/images/US_Cities_List/hotsprings.png,1,,,,,,,,,
null,,html-keyboard-response,1328619,,,<p></p>,,,,,null,,,,,,,,,,,,,,,,,,,,
1990,,directmemory_phase,1330630,,,../static/images/US_Cities_List/newhope.png,,,,,50,,,1,0.9354838709677419,../static/images/US_Cities_List/peoria.png,../static/images/US_Cities_List/gatlinburg.png,../static/images/US_Cities_List/hanover.png,../static/images/US_Cities_List/gatlinburg.png,../static/images/US_Cities_List/peoria.png,../static/images/US_Cities_List/hanover.png,1,,,,,,,,,
null,,html-keyboard-response,1331636,,,<p></p>,,,,,null,,,,,,,,,,,,,,,,,,,,
3107,,directmemory_phase,1334764,,,../static/images/US_Cities_List/boulder.png,,,,,51,,,1,0.9375,../static/images/US_Cities_List/shreveport.png,../static/images/US_Cities_List/newhope.png,../static/images/US_Cities_List/hanover.png,../static/images/US_Cities_List/hanover.png,../static/images/US_Cities_List/newhope.png,../static/images/US_Cities_List/shreveport.png,1,,,,,,,,,
null,,html-keyboard-response,1335774,,,<p></p>,,,,,null,,,,,,,,,,,,,,,,,,,,
26439.799999999814,,intro_1,1362215,,,instruct,,,0,,,,,,,,,,,,,,,,,,,,,,
15335,,intro_2,1377553,,,instruct,,,1,Next,,,,,,,,,,,,,,,,,,,,,
7800.5,,intro_3,1385356,,,instruct,,,1,Next,,,,,,,,,,,,,,,,,,,,,
12607.899999999907,,intro_4,1397967,,,instruct,,,1,Next,,,,,,,,,,,,,,,,,,,,,
5893.399999999907,,intro_5,1403864,,,instruct,,,1,Next,,,,,,,,,,,,,,,,,,,,,
9796.100000000093,,intro_6,1413663,,,instruct,,,1,Next,,,,,,,,,,,,,,,,,,,,,
14437.200000000186,,intro_7,1428103,,,instruct,,,1,Next,,,,,,,,,,,,,,,,,,,,,
18766.600000000093,,intro_8,1446872,,,instruct,,,1,Next,,,,,,,,,,,,,,,,,,,,,
12682.899999999907,,intro_9,1459559,,,instruct,,,1,Next,,,,,,,,,,,,,,,,,,,,,
18478.200000000186,,intro_10,1478040,,,instruct,,,1,Next,,,,,,,,,,,,,,,,,,,,,
12999,,intro_11,1491043,,,instruct,,,1,Next,,,,,,,,,,,,,,,,,,,,,
7195.300000000279,,shortestpath_phase,1498260,,,../static/images/US_Cities_List/cornwall.png,,,,,49,../static/images/US_Cities_List/boulder.png,../static/images/US_Cities_List/racine.png,1,1,,,,../static/images/US_Cities_List/boulder.png,,,,,Two Edge Diff,Three Edge Five Edge,,,,,,
null,,html-keyboard-response,1499264,,,<p></p>,,,,,null,,,,,,,,,,,,,,,,,,,,
7415.200000000186,,shortestpath_phase,1506696,,,../static/images/US_Cities_List/carmel.png,,,,,49,../static/images/US_Cities_List/huntsville.png,../static/images/US_Cities_List/hanover.png,1,1,,,,../static/images/US_Cities_List/huntsville.png,,,,,One Edge Diff,Three Edge Four Edge,,,,,,
null,,html-keyboard-response,1507704,,,<p></p>,,,,,null,,,,,,,,,,,,,,,,,,,,
5339.700000000186,,shortestpath_phase,1513062,,,../static/images/US_Cities_List/shreveport.png,,,,,50,../static/images/US_Cities_List/hanover.png,../static/images/US_Cities_List/newhope.png,1,1,,,,../static/images/US_Cities_List/newhope.png,,,,,Three Edge Diff,Three Edge Six Edge,,,,,,
null,,html-keyboard-response,1514067,,,<p></p>,,,,,null,,,,,,,,,,,,,,,,,,,,
null,,shortestpath_phase,1521589,,,../static/images/US_Cities_List/westpalmbeach.png,,,,,null,../static/images/US_Cities_List/peoria.png,../static/images/US_Cities_List/huntsville.png,0,0.75,,,,../static/images/US_Cities_List/peoria.png,,,,,One Edge Diff,Four Edge Five Edge,,,,,,
null,,warning_page,1524601,,,warning,,,,,null,,,,,,,,,,,,,,,,,,,,
null,,html-keyboard-response,1525615,,,<p></p>,,,,,null,,,,,,,,,,,,,,,,,,,,
2503.899999999907,,shortestpath_phase,1528138,,,../static/images/US_Cities_List/newhope.png,,,,,49,../static/images/US_Cities_List/hanover.png,../static/images/US_Cities_List/racine.png,1,0.8,,,,../static/images/US_Cities_List/hanover.png,,,,,One Edge Diff,Three Edge Four Edge,,,,,,
null,,html-keyboard-response,1529149,,,<p></p>,,,,,null,,,,,,,,,,,,,,,,,,,,
3243.600000000093,,shortestpath_phase,1532410,,,../static/images/US_Cities_List/westpalmbeach.png,,,,,50,../static/images/US_Cities_List/racine.png,../static/images/US_Cities_List/boulder.png,1,0.8333333333333334,,,,../static/images/US_Cities_List/boulder.png,,,,,One Edge Diff,Five Edge Six Edge,,,,,,
null,,html-keyboard-response,1533419,,,<p></p>,,,,,null,,,,,,,,,,,,,,,,,,,,
2178.2000000001863,,shortestpath_phase,1535609,,,../static/images/US_Cities_List/hanover.png,,,,,50,../static/images/US_Cities_List/westpalmbeach.png,../static/images/US_Cities_List/huntsville.png,1,0.8571428571428571,,,,../static/images/US_Cities_List/huntsville.png,,,,,Four Edge Diff,Two Edge Six Edge,,,,,,
null,,html-keyboard-response,1536615,,,<p></p>,,,,,null,,,,,,,,,,,,,,,,,,,,
3202.600000000093,,shortestpath_phase,1539837,,,../static/images/US_Cities_List/westpalmbeach.png,,,,,50,../static/images/US_Cities_List/hanover.png,../static/images/US_Cities_List/cornwall.png,1,0.875,,,,../static/images/US_Cities_List/cornwall.png,,,,,Four Edge Diff,Two Edge Six Edge,,,,,,
null,,html-keyboard-response,1540844,,,<p></p>,,,,,null,,,,,,,,,,,,,,,,,,,,
1639.1000000000931,,shortestpath_phase,1542497,,,../static/images/US_Cities_List/shreveport.png,,,,,50,../static/images/US_Cities_List/racine.png,../static/images/US_Cities_List/boulder.png,1,0.8888888888888888,,,,../static/images/US_Cities_List/boulder.png,,,,,Two Edge Diff,Four Edge Six Edge,,,,,,
null,,html-keyboard-response,1543501,,,<p></p>,,,,,null,,,,,,,,,,,,,,,,,,,,
3591.7999999998137,,shortestpath_phase,1547106,,,../static/images/US_Cities_List/westpalmbeach.png,,,,,50,../static/images/US_Cities_List/huntsville.png,../static/images/US_Cities_List/hanover.png,0,0.8,,,,../static/images/US_Cities_List/huntsville.png,,,,,One Edge Diff,Five Edge Six Edge,,,,,,
null,,html-keyboard-response,1548112,,,<p></p>,,,,,null,,,,,,,,,,,,,,,,,,,,
