rt,responses,trial_type,time_elapsed,image_type,sequence,stimulus,cities,city_images,button_pressed,response,key_press,stimulus_left,stimulus_right,accuracy,cumulative_accuracy,stimulus_down_left,stimulus_down_mid,stimulus_down_right,stimulus_correct,stimulus_short,stimulus_far,weighted_accuracy,missedtrial,condition,specific_pairs,imgL_ID,imgR_ID,linedress,linedressed,detour_trial,linedressed_detor
4062.9000000953674,{worker_id:61074792728f0f9e791ad083},id_enter,4070,fictional,interleaved,flights,Hollendale; Riverlyn; Claywater; Hawthorne Bluffs; North Arroya; Orchard Bend; Granton Ridge; Sunmere; New Verdan; Baymarsh; Cedarwyn; Delaro Park; Juniper Creek,US_Cities_List/carmel.png; US_Cities_List/westpalmbeach.png; US_Cities_List/boulder.png; US_Cities_List/shreveport.png; US_Cities_List/newhope.png; US_Cities_List/peoria.png; US_Cities_List/hanover.png; US_Cities_List/hotsprings.png; US_Cities_List/racine.png; US_Cities_List/leesburg.png; US_Cities_List/huntsville.png; US_Cities_List/cornwall.png; US_Cities_List/gatlinburg.png,,,,,,,,,,,,,,,,,,,,,,,
3352,,fullscreen,7431,,,make_fullscreen,,,0,,,,,,,,,,,,,,,,,,,,,,
6488.899999976158,,intro_1,13922,,,instruct,,,0,,,,,,,,,,,,,,,,,,,,,,
7196.700000047684,,intro_2,21120,,,instruct,,,1,Next,,,,,,,,,,,,,,,,,,,,,
12091,,intro_3,33213,,,instruct,,,1,Next,,,,,,,,,,,,,,,,,,,,,
4890.200000047684,,intro_4,38105,,,instruct,,,1,Next,,,,,,,,,,,,,,,,,,,,,
8989.899999976158,,intro_5,47097,,,instruct,,,1,Next,,,,,,,,,,,,,,,,,,,,,
14794.199999928474,,intro_6,61894,,,instruct,,,1,Next,,,,,,,,,,,,,,,,,,,,,
8160.100000023842,,intro_7,70056,,,instruct,,,1,Next,,,,,,,,,,,,,,,,,,,,,
null,,learn_prac_1,73058,,,lean_prac_1,,,,,null,,,,,,,,,,,,,,,,,,,,
null,,html-keyboard-response,74073,,,<p></p>,,,,,null,,,,,,,,,,,,,,,,,,,,
1815.5,,intro_1,75890,,,instruct,,,0,,,,,,,,,,,,,,,,,,,,,,
7001.300000071526,,intro_2,82894,,,instruct,,,1,Next,,,,,,,,,,,,,,,,,,,,,
null,,learn_prac_2,85897,,,lean_prac_2,,,,,null,,,,,,,,,,,,,,,,,,,,
null,,html-keyboard-response,86900,,,<p></p>,,,,,null,,,,,,,,,,,,,,,,,,,,
1145.1000000238419,,intro_1,88047,,,instruct,,,0,,,,,,,,,,,,,,,,,,,,,,
930.3999999761581,,intro_2,88978,,,instruct,,,1,Next,,,,,,,,,,,,,,,,,,,,,
19998.799999952316,,intro_3,108979,,,instruct,,,1,Next,,,,,,,,,,,,,,,,,,,,,
null,,prac_atten_color_black,109337,,,black_plus_sign,,,,,null,,,,,,,,,,,,,,,,,,,,
544.8999999761581,,prac_atten_color,110384,,,prac_stop_color,,,,,49,,,,,,,,,,,,,,,,,,,,
409.59999990463257,,prac_atten_color_black,112387,,,black_plus_sign,,,,,49,,,,,,,,,,,,,,,,,,,,
null,,prac_atten_color_black,112747,,,black_plus_sign,,,,,null,,,,,,,,,,,,,,,,,,,,
770.2000000476837,,prac_atten_color,113579,,,prac_stop_color,,,,,50,,,,,,,,,,,,,,,,,,,,
null,,prac_atten_color_black,115583,,,black_plus_sign,,,,,null,,,,,,,,,,,,,,,,,,,,
null,,prac_atten_color_black,116156,,,black_plus_sign,,,,,null,,,,,,,,,,,,,,,,,,,,
597.6999999284744,,prac_atten_color,117232,,,prac_stop_color,,,,,50,,,,,,,,,,,,,,,,,,,,
null,,prac_atten_color_black,119234,,,black_plus_sign,,,,,null,,,,,,,,,,,,,,,,,,,,
null,,prac_atten_color_black,119563,,,black_plus_sign,,,,,null,,,,,,,,,,,,,,,,,,,,
null,,prac_atten_color,120139,,,prac_stop_color,,,,,null,,,,,,,,,,,,,,,,,,,,
16.200000047683716,,prac_atten_color_black,122142,,,black_plus_sign,,,,,49,,,,,,,,,,,,,,,,,,,,
null,,prac_atten_color_black,122971,,,black_plus_sign,,,,,null,,,,,,,,,,,,,,,,,,,,
535,,prac_atten_color,123821,,,prac_stop_color,,,,,50,,,,,,,,,,,,,,,,,,,,
null,,prac_atten_color_black,125824,,,black_plus_sign,,,,,null,,,,,,,,,,,,,,,,,,,,
null,,prac_atten_color_black,126381,,,black_plus_sign,,,,,null,,,,,,,,,,,,,,,,,,,,
472.39999997615814,,prac_atten_color,127268,,,prac_stop_color,,,,,50,,,,,,,,,,,,,,,,,,,,
null,,prac_atten_color_black,129271,,,black_plus_sign,,,,,null,,,,,,,,,,,,,,,,,,,,
null,,prac_atten_color_black,129791,,,black_plus_sign,,,,,null,,,,,,,,,,,,,,,,,,,,
437.10000002384186,,prac_atten_color,130459,,,prac_stop_color,,,,,49,,,,,,,,,,,,,,,,,,,,
null,,prac_atten_color_black,132461,,,black_plus_sign,,,,,null,,,,,,,,,,,,,,,,,,,,
null,,prac_atten_color_black,133200,,,black_plus_sign,,,,,null,,,,,,,,,,,,,,,,,,,,
481.8000000715256,,prac_atten_color,134030,,,prac_stop_color,,,,,50,,,,,,,,,,,,,,,,,,,,
null,,prac_atten_color_black,136032,,,black_plus_sign,,,,,null,,,,,,,,,,,,,,,,,,,,
null,,prac_atten_color_black,136608,,,black_plus_sign,,,,,null,,,,,,,,,,,,,,,,,,,,
522.1000000238419,,prac_atten_color,137498,,,prac_stop_color,,,,,49,,,,,,,,,,,,,,,,,,,,
null,,prac_atten_color_black,139500,,,black_plus_sign,,,,,null,,,,,,,,,,,,,,,,,,,,
null,,prac_atten_color_black,140016,,,black_plus_sign,,,,,null,,,,,,,,,,,,,,,,,,,,
585.3000000715256,,prac_atten_color,141011,,,prac_stop_color,,,,,49,,,,,,,,,,,,,,,,,,,,
null,,prac_atten_color_black,143013,,,black_plus_sign,,,,,null,,,,,,,,,,,,,,,,,,,,
4575.200000047684,,attentioncheck_feedback,147590,,,cross_check_feedback,,,0,,,,,,,,,,,,,,,,,,,,,,
3484.2999999523163,,last_instruct,151075,,,instruct,,,,,32,,,,,,,,,,,,,,,,,,,,
null,,learn_phase(without_color),154102,,,black_plus_sign,,,,,null,US_Cities_List/racine.png,US_Cities_List/hotsprings.png,,,,,,,,,,,,,,,,,,
null,,black_cross(without_color),155148,,,blue,,,,,null,US_Cities_List/racine.png,US_Cities_List/hotsprings.png,,,,,,,,,,,,,,,,,,
497.09999990463257,,rt_plussign_withcolor,155650,,,blue,,,,,49,US_Cities_List/racine.png,US_Cities_List/hotsprings.png,,,,,,,,,,,,,,,,,,
null,,rt_thecrossant_black,156610,,,black_plus_sign,,,,,null,,,1,1,,,,,,,,,,,,,,,,
null,,color_black,156712,,,black_plus_sign,,,,,null,,,,,,,,,,,,,,,,,,,,
null,,learn_phase(without_color),159746,,,black_plus_sign,,,,,null,US_Cities_List/hotsprings.png,US_Cities_List/racine.png,,,,,,,,,,,,,,,,,,
null,,black_cross(without_color),160711,,,blue,,,,,null,US_Cities_List/hotsprings.png,US_Cities_List/racine.png,,,,,,,,,,,,,,,,,,
null,,rt_plussign_withcolor,161213,,,blue,,,,,null,US_Cities_List/hotsprings.png,US_Cities_List/racine.png,,,,,,,,,,,,,,,,,,
964.8999999761581,,rt_thecrossant_black,162254,,,black_plus_sign,,,,,49,,,1,1,,,,,,,,,,,,,,,,
null,,color_black,162357,,,black_plus_sign,,,,,null,,,,,,,,,,,,,,,,,,,,
null,,learn_phase(without_color),165382,,,black_plus_sign,,,,,null,US_Cities_List/westpalmbeach.png,US_Cities_List/shreveport.png,,,,,,,,,,,,,,,,,,
null,,black_cross(without_color),165827,,,blue,,,,,null,US_Cities_List/westpalmbeach.png,US_Cities_List/shreveport.png,,,,,,,,,,,,,,,,,,
null,,rt_plussign_withcolor,166329,,,blue,,,,,null,US_Cities_List/westpalmbeach.png,US_Cities_List/shreveport.png,,,,,,,,,,,,,,,,,,
1117.8999999761581,,rt_thecrossant_black,167889,,,black_plus_sign,,,,,49,,,1,1,,,,,,,,,,,,,,,,
null,,color_black,167991,,,black_plus_sign,,,,,null,,,,,,,,,,,,,,,,,,,,
null,,learn_phase(without_color),171018,,,black_plus_sign,,,,,null,US_Cities_List/boulder.png,US_Cities_List/peoria.png,,,,,,,,,,,,,,,,,,
null,,black_cross(without_color),171437,,,blue,,,,,null,US_Cities_List/boulder.png,US_Cities_List/peoria.png,,,,,,,,,,,,,,,,,,
458.2000000476837,,rt_plussign_withcolor,171939,,,blue,,,,,49,US_Cities_List/boulder.png,US_Cities_List/peoria.png,,,,,,,,,,,,,,,,,,
null,,rt_thecrossant_black,173524,,,black_plus_sign,,,,,null,,,1,1,,,,,,,,,,,,,,,,
null,,color_black,173627,,,black_plus_sign,,,,,null,,,,,,,,,,,,,,,,,,,,
null,,learn_phase(without_color),176663,,,black_plus_sign,,,,,null,US_Cities_List/shreveport.png,US_Cities_List/cornwall.png,,,,,,,,,,,,,,,,,,
null,,black_cross(without_color),177220,,,yellow,,,,,null,US_Cities_List/shreveport.png,US_Cities_List/cornwall.png,,,,,,,,,,,,,,,,,,
null,,rt_plussign_withcolor,177722,,,yellow,,,,,null,US_Cities_List/shreveport.png,US_Cities_List/cornwall.png,,,,,,,,,,,,,,,,,,
588.2000000476837,,rt_thecrossant_black,179171,,,black_plus_sign,,,,,50,,,1,1,,,,,,,,,,,,,,,,
null,,color_black,179274,,,black_plus_sign,,,,,null,,,,,,,,,,,,,,,,,,,,
null,,learn_phase(without_color),182309,,,black_plus_sign,,,,,null,US_Cities_List/racine.png,US_Cities_List/peoria.png,,,,,,,,,,,,,,,,,,
null,,black_cross(without_color),183268,,,yellow,,,,,null,US_Cities_List/racine.png,US_Cities_List/peoria.png,,,,,,,,,,,,,,,,,,
null,,rt_plussign_withcolor,183770,,,yellow,,,,,null,US_Cities_List/racine.png,US_Cities_List/peoria.png,,,,,,,,,,,,,,,,,,
838.8999999761581,,rt_thecrossant_black,184817,,,black_plus_sign,,,,,50,,,1,1,,,,,,,,,,,,,,,,
null,,color_black,184919,,,black_plus_sign,,,,,null,,,,,,,,,,,,,,,,,,,,
null,,learn_phase(without_color),187942,,,black_plus_sign,,,,,null,US_Cities_List/boulder.png,US_Cities_List/westpalmbeach.png,,,,,,,,,,,,,,,,,,
null,,black_cross(without_color),188603,,,blue,,,,,null,US_Cities_List/boulder.png,US_Cities_List/westpalmbeach.png,,,,,,,,,,,,,,,,,,
null,,rt_plussign_withcolor,189106,,,blue,,,,,null,US_Cities_List/boulder.png,US_Cities_List/westpalmbeach.png,,,,,,,,,,,,,,,,,,
1094.6000000238419,,rt_thecrossant_black,190450,,,black_plus_sign,,,,,49,,,1,1,,,,,,,,,,,,,,,,
null,,color_black,190553,,,black_plus_sign,,,,,null,,,,,,,,,,,,,,,,,,,,
null,,learn_phase(without_color),193584,,,black_plus_sign,,,,,null,US_Cities_List/hotsprings.png,US_Cities_List/racine.png,,,,,,,,,,,,,,,,,,
null,,black_cross(without_color),194575,,,blue,,,,,null,US_Cities_List/hotsprings.png,US_Cities_List/racine.png,,,,,,,,,,,,,,,,,,
455.90000009536743,,rt_plussign_withcolor,195077,,,blue,,,,,49,US_Cities_List/hotsprings.png,US_Cities_List/racine.png,,,,,,,,,,,,,,,,,,
null,,rt_thecrossant_black,196091,,,black_plus_sign,,,,,null,,,1,1,,,,,,,,,,,,,,,,
null,,color_black,196194,,,black_plus_sign,,,,,null,,,,,,,,,,,,,,,,,,,,
null,,learn_phase(without_color),199230,,,black_plus_sign,,,,,null,US_Cities_List/racine.png,US_Cities_List/hotsprings.png,,,,,,,,,,,,,,,,,,
null,,black_cross(without_color),199943,,,blue,,,,,null,US_Cities_List/racine.png,US_Cities_List/hotsprings.png,,,,,,,,,,,,,,,,,,
null,,rt_plussign_withcolor,200445,,,blue,,,,,null,US_Cities_List/racine.png,US_Cities_List/hotsprings.png,,,,,,,,,,,,,,,,,,
1094,,rt_thecrossant_black,201737,,,black_plus_sign,,,,,49,,,1,1,,,,,,,,,,,,,,,,
null,,color_black,201840,,,black_plus_sign,,,,,null,,,,,,,,,,,,,,,,,,,,
null,,learn_phase(without_color),204870,,,black_plus_sign,,,,,null,US_Cities_List/shreveport.png,US_Cities_List/cornwall.png,,,,,,,,,,,,,,,,,,
null,,black_cross(without_color),205614,,,blue,,,,,null,US_Cities_List/shreveport.png,US_Cities_List/cornwall.png,,,,,,,,,,,,,,,,,,
469.5,,rt_plussign_withcolor,206117,,,blue,,,,,49,US_Cities_List/shreveport.png,US_Cities_List/cornwall.png,,,,,,,,,,,,,,,,,,
null,,rt_thecrossant_black,207377,,,black_plus_sign,,,,,null,,,1,1,,,,,,,,,,,,,,,,
null,,color_black,207479,,,black_plus_sign,,,,,null,,,,,,,,,,,,,,,,,,,,
null,,learn_phase(without_color),210510,,,black_plus_sign,,,,,null,US_Cities_List/hanover.png,US_Cities_List/gatlinburg.png,,,,,,,,,,,,,,,,,,
null,,black_cross(without_color),211060,,,blue,,,,,null,US_Cities_List/hanover.png,US_Cities_List/gatlinburg.png,,,,,,,,,,,,,,,,,,
434.3000000715256,,rt_plussign_withcolor,211562,,,blue,,,,,49,US_Cities_List/hanover.png,US_Cities_List/gatlinburg.png,,,,,,,,,,,,,,,,,,
null,,rt_thecrossant_black,213017,,,black_plus_sign,,,,,null,,,1,1,,,,,,,,,,,,,,,,
null,,color_black,213119,,,black_plus_sign,,,,,null,,,,,,,,,,,,,,,,,,,,
null,,learn_phase(without_color),216157,,,black_plus_sign,,,,,null,US_Cities_List/gatlinburg.png,US_Cities_List/hanover.png,,,,,,,,,,,,,,,,,,
null,,black_cross(without_color),217125,,,blue,,,,,null,US_Cities_List/gatlinburg.png,US_Cities_List/hanover.png,,,,,,,,,,,,,,,,,,
358,,rt_plussign_withcolor,217627,,,blue,,,,,49,US_Cities_List/gatlinburg.png,US_Cities_List/hanover.png,,,,,,,,,,,,,,,,,,
null,,rt_thecrossant_black,218665,,,black_plus_sign,,,,,null,,,1,1,,,,,,,,,,,,,,,,
null,,color_black,218774,,,black_plus_sign,,,,,null,,,,,,,,,,,,,,,,,,,,
null,,learn_phase(without_color),221798,,,black_plus_sign,,,,,null,US_Cities_List/huntsville.png,US_Cities_List/boulder.png,,,,,,,,,,,,,,,,,,
null,,black_cross(without_color),222579,,,yellow,,,,,null,US_Cities_List/huntsville.png,US_Cities_List/boulder.png,,,,,,,,,,,,,,,,,,
null,,rt_plussign_withcolor,223081,,,yellow,,,,,null,US_Cities_List/huntsville.png,US_Cities_List/boulder.png,,,,,,,,,,,,,,,,,,
1095.8000000715256,,rt_thecrossant_black,224305,,,black_plus_sign,,,,,50,,,1,1,,,,,,,,,,,,,,,,
null,,color_black,224408,,,black_plus_sign,,,,,null,,,,,,,,,,,,,,,,,,,,
null,,learn_phase(without_color),227434,,,black_plus_sign,,,,,null,US_Cities_List/boulder.png,US_Cities_List/huntsville.png,,,,,,,,,,,,,,,,,,
null,,black_cross(without_color),228531,,,yellow,,,,,null,US_Cities_List/boulder.png,US_Cities_List/huntsville.png,,,,,,,,,,,,,,,,,,
492.5,,rt_plussign_withcolor,229033,,,yellow,,,,,50,US_Cities_List/boulder.png,US_Cities_List/huntsville.png,,,,,,,,,,,,,,,,,,
null,,rt_thecrossant_black,229941,,,black_plus_sign,,,,,null,,,1,1,,,,,,,,,,,,,,,,
null,,color_black,230042,,,black_plus_sign,,,,,null,,,,,,,,,,,,,,,,,,,,
null,,learn_phase(without_color),233076,,,black_plus_sign,,,,,null,US_Cities_List/cornwall.png,US_Cities_List/huntsville.png,,,,,,,,,,,,,,,,,,
null,,black_cross(without_color),234087,,,yellow,,,,,null,US_Cities_List/cornwall.png,US_Cities_List/huntsville.png,,,,,,,,,,,,,,,,,,
null,,rt_plussign_withcolor,234590,,,yellow,,,,,null,US_Cities_List/cornwall.png,US_Cities_List/huntsville.png,,,,,,,,,,,,,,,,,,
1380.6999999284744,,rt_thecrossant_black,235591,,,black_plus_sign,,,,,50,,,1,1,,,,,,,,,,,,,,,,
null,,color_black,235693,,,black_plus_sign,,,,,null,,,,,,,,,,,,,,,,,,,,
null,,learn_phase(without_color),238723,,,black_plus_sign,,,,,null,US_Cities_List/hanover.png,US_Cities_List/hotsprings.png,,,,,,,,,,,,,,,,,,
null,,black_cross(without_color),239431,,,yellow,,,,,null,US_Cities_List/hanover.png,US_Cities_List/hotsprings.png,,,,,,,,,,,,,,,,,,
null,,rt_plussign_withcolor,239933,,,yellow,,,,,null,US_Cities_List/hanover.png,US_Cities_List/hotsprings.png,,,,,,,,,,,,,,,,,,
1128.1000000238419,,rt_thecrossant_black,241230,,,black_plus_sign,,,,,50,,,1,1,,,,,,,,,,,,,,,,
null,,color_black,241333,,,black_plus_sign,,,,,null,,,,,,,,,,,,,,,,,,,,
null,,learn_phase(without_color),244367,,,black_plus_sign,,,,,null,US_Cities_List/hotsprings.png,US_Cities_List/hanover.png,,,,,,,,,,,,,,,,,,
null,,black_cross(without_color),244836,,,blue,,,,,null,US_Cities_List/hotsprings.png,US_Cities_List/hanover.png,,,,,,,,,,,,,,,,,,
486.5,,rt_plussign_withcolor,245338,,,blue,,,,,49,US_Cities_List/hotsprings.png,US_Cities_List/hanover.png,,,,,,,,,,,,,,,,,,
null,,rt_thecrossant_black,246873,,,black_plus_sign,,,,,null,,,1,1,,,,,,,,,,,,,,,,
null,,color_black,246976,,,black_plus_sign,,,,,null,,,,,,,,,,,,,,,,,,,,
null,,learn_phase(without_color),250008,,,black_plus_sign,,,,,null,US_Cities_List/cornwall.png,US_Cities_List/huntsville.png,,,,,,,,,,,,,,,,,,
null,,black_cross(without_color),250497,,,blue,,,,,null,US_Cities_List/cornwall.png,US_Cities_List/huntsville.png,,,,,,,,,,,,,,,,,,
327,,rt_plussign_withcolor,250999,,,blue,,,,,49,US_Cities_List/cornwall.png,US_Cities_List/huntsville.png,,,,,,,,,,,,,,,,,,
null,,rt_thecrossant_black,252514,,,black_plus_sign,,,,,null,,,1,1,,,,,,,,,,,,,,,,
null,,color_black,252617,,,black_plus_sign,,,,,null,,,,,,,,,,,,,,,,,,,,
null,,learn_phase(without_color),255649,,,black_plus_sign,,,,,null,US_Cities_List/hanover.png,US_Cities_List/racine.png,,,,,,,,,,,,,,,,,,
null,,black_cross(without_color),256418,,,yellow,,,,,null,US_Cities_List/hanover.png,US_Cities_List/racine.png,,,,,,,,,,,,,,,,,,
337,,rt_plussign_withcolor,256921,,,yellow,,,,,50,US_Cities_List/hanover.png,US_Cities_List/racine.png,,,,,,,,,,,,,,,,,,
null,,rt_thecrossant_black,258157,,,black_plus_sign,,,,,null,,,1,1,,,,,,,,,,,,,,,,
null,,color_black,258259,,,black_plus_sign,,,,,null,,,,,,,,,,,,,,,,,,,,
null,,learn_phase(without_color),261287,,,black_plus_sign,,,,,null,US_Cities_List/boulder.png,US_Cities_List/peoria.png,,,,,,,,,,,,,,,,,,
null,,black_cross(without_color),262346,,,yellow,,,,,null,US_Cities_List/boulder.png,US_Cities_List/peoria.png,,,,,,,,,,,,,,,,,,
470.5,,rt_plussign_withcolor,262848,,,yellow,,,,,50,US_Cities_List/boulder.png,US_Cities_List/peoria.png,,,,,,,,,,,,,,,,,,
null,,rt_thecrossant_black,263794,,,black_plus_sign,,,,,null,,,1,1,,,,,,,,,,,,,,,,
null,,color_black,263897,,,black_plus_sign,,,,,null,,,,,,,,,,,,,,,,,,,,
null,,learn_phase(without_color),266936,,,black_plus_sign,,,,,null,US_Cities_List/shreveport.png,US_Cities_List/cornwall.png,,,,,,,,,,,,,,,,,,
null,,black_cross(without_color),267757,,,yellow,,,,,null,US_Cities_List/shreveport.png,US_Cities_List/cornwall.png,,,,,,,,,,,,,,,,,,
329.60000002384186,,rt_plussign_withcolor,268259,,,yellow,,,,,50,US_Cities_List/shreveport.png,US_Cities_List/cornwall.png,,,,,,,,,,,,,,,,,,
null,,rt_thecrossant_black,269444,,,black_plus_sign,,,,,null,,,1,1,,,,,,,,,,,,,,,,
null,,color_black,269547,,,black_plus_sign,,,,,null,,,,,,,,,,,,,,,,,,,,
null,,learn_phase(without_color),272580,,,black_plus_sign,,,,,null,US_Cities_List/peoria.png,US_Cities_List/racine.png,,,,,,,,,,,,,,,,,,
null,,black_cross(without_color),273251,,,yellow,,,,,null,US_Cities_List/peoria.png,US_Cities_List/racine.png,,,,,,,,,,,,,,,,,,
null,,rt_plussign_withcolor,273753,,,yellow,,,,,null,US_Cities_List/peoria.png,US_Cities_List/racine.png,,,,,,,,,,,,,,,,,,
1024.5,,rt_thecrossant_black,275087,,,black_plus_sign,,,,,50,,,1,1,,,,,,,,,,,,,,,,
null,,color_black,275190,,,black_plus_sign,,,,,null,,,,,,,,,,,,,,,,,,,,
null,,learn_phase(without_color),278219,,,black_plus_sign,,,,,null,US_Cities_List/hotsprings.png,US_Cities_List/hanover.png,,,,,,,,,,,,,,,,,,
null,,black_cross(without_color),279065,,,blue,,,,,null,US_Cities_List/hotsprings.png,US_Cities_List/hanover.png,,,,,,,,,,,,,,,,,,
374.1999999284744,,rt_plussign_withcolor,279567,,,blue,,,,,49,US_Cities_List/hotsprings.png,US_Cities_List/hanover.png,,,,,,,,,,,,,,,,,,
null,,rt_thecrossant_black,280727,,,black_plus_sign,,,,,null,,,1,1,,,,,,,,,,,,,,,,
null,,color_black,280829,,,black_plus_sign,,,,,null,,,,,,,,,,,,,,,,,,,,
null,,learn_phase(without_color),283868,,,black_plus_sign,,,,,null,US_Cities_List/peoria.png,US_Cities_List/hanover.png,,,,,,,,,,,,,,,,,,
null,,black_cross(without_color),284659,,,yellow,,,,,null,US_Cities_List/peoria.png,US_Cities_List/hanover.png,,,,,,,,,,,,,,,,,,
372,,rt_plussign_withcolor,285161,,,yellow,,,,,50,US_Cities_List/peoria.png,US_Cities_List/hanover.png,,,,,,,,,,,,,,,,,,
null,,rt_thecrossant_black,286376,,,black_plus_sign,,,,,null,,,1,1,,,,,,,,,,,,,,,,
null,,color_black,286480,,,black_plus_sign,,,,,null,,,,,,,,,,,,,,,,,,,,
null,,learn_phase(without_color),289506,,,black_plus_sign,,,,,null,US_Cities_List/westpalmbeach.png,US_Cities_List/boulder.png,,,,,,,,,,,,,,,,,,
null,,black_cross(without_color),290607,,,blue,,,,,null,US_Cities_List/westpalmbeach.png,US_Cities_List/boulder.png,,,,,,,,,,,,,,,,,,
null,,rt_plussign_withcolor,291109,,,blue,,,,,null,US_Cities_List/westpalmbeach.png,US_Cities_List/boulder.png,,,,,,,,,,,,,,,,,,
890.6000000238419,,rt_thecrossant_black,292013,,,black_plus_sign,,,,,49,,,1,1,,,,,,,,,,,,,,,,
null,,color_black,292115,,,black_plus_sign,,,,,null,,,,,,,,,,,,,,,,,,,,
null,,learn_phase(without_color),295154,,,black_plus_sign,,,,,null,US_Cities_List/shreveport.png,US_Cities_List/cornwall.png,,,,,,,,,,,,,,,,,,
null,,black_cross(without_color),295668,,,blue,,,,,null,US_Cities_List/shreveport.png,US_Cities_List/cornwall.png,,,,,,,,,,,,,,,,,,
472.1999999284744,,rt_plussign_withcolor,296171,,,blue,,,,,49,US_Cities_List/shreveport.png,US_Cities_List/cornwall.png,,,,,,,,,,,,,,,,,,
null,,rt_thecrossant_black,297661,,,black_plus_sign,,,,,null,,,1,1,,,,,,,,,,,,,,,,
null,,color_black,297764,,,black_plus_sign,,,,,null,,,,,,,,,,,,,,,,,,,,
null,,learn_phase(without_color),300797,,,black_plus_sign,,,,,null,US_Cities_List/westpalmbeach.png,US_Cities_List/carmel.png,,,,,,,,,,,,,,,,,,
null,,black_cross(without_color),301293,,,blue,,,,,null,US_Cities_List/westpalmbeach.png,US_Cities_List/carmel.png,,,,,,,,,,,,,,,,,,
null,,rt_plussign_withcolor,301795,,,blue,,,,,null,US_Cities_List/westpalmbeach.png,US_Cities_List/carmel.png,,,,,,,,,,,,,,,,,,
675.2999999523163,,rt_thecrossant_black,303303,,,black_plus_sign,,,,,49,,,1,1,,,,,,,,,,,,,,,,
null,,color_black,303407,,,black_plus_sign,,,,,null,,,,,,,,,,,,,,,,,,,,
null,,learn_phase(without_color),306440,,,black_plus_sign,,,,,null,US_Cities_List/shreveport.png,US_Cities_List/newhope.png,,,,,,,,,,,,,,,,,,
null,,black_cross(without_color),307015,,,yellow,,,,,null,US_Cities_List/shreveport.png,US_Cities_List/newhope.png,,,,,,,,,,,,,,,,,,
null,,rt_plussign_withcolor,307517,,,yellow,,,,,null,US_Cities_List/shreveport.png,US_Cities_List/newhope.png,,,,,,,,,,,,,,,,,,
835.7999999523163,,rt_thecrossant_black,308947,,,black_plus_sign,,,,,50,,,1,1,,,,,,,,,,,,,,,,
null,,color_black,309050,,,black_plus_sign,,,,,null,,,,,,,,,,,,,,,,,,,,
null,,learn_phase(without_color),312081,,,black_plus_sign,,,,,null,US_Cities_List/racine.png,US_Cities_List/peoria.png,,,,,,,,,,,,,,,,,,
null,,black_cross(without_color),312839,,,blue,,,,,null,US_Cities_List/racine.png,US_Cities_List/peoria.png,,,,,,,,,,,,,,,,,,
null,,rt_plussign_withcolor,313342,,,blue,,,,,null,US_Cities_List/racine.png,US_Cities_List/peoria.png,,,,,,,,,,,,,,,,,,
815.8000000715256,,rt_thecrossant_black,314589,,,black_plus_sign,,,,,49,,,1,1,,,,,,,,,,,,,,,,
null,,color_black,314692,,,black_plus_sign,,,,,null,,,,,,,,,,,,,,,,,,,,
null,,learn_phase(without_color),317723,,,black_plus_sign,,,,,null,US_Cities_List/carmel.png,US_Cities_List/westpalmbeach.png,,,,,,,,,,,,,,,,,,
null,,black_cross(without_color),318794,,,blue,,,,,null,US_Cities_List/carmel.png,US_Cities_List/westpalmbeach.png,,,,,,,,,,,,,,,,,,
336.8000000715256,,rt_plussign_withcolor,319296,,,blue,,,,,49,US_Cities_List/carmel.png,US_Cities_List/westpalmbeach.png,,,,,,,,,,,,,,,,,,
null,,rt_thecrossant_black,320230,,,black_plus_sign,,,,,null,,,1,1,,,,,,,,,,,,,,,,
null,,color_black,320332,,,black_plus_sign,,,,,null,,,,,,,,,,,,,,,,,,,,
null,,learn_phase(without_color),323361,,,black_plus_sign,,,,,null,US_Cities_List/racine.png,US_Cities_List/huntsville.png,,,,,,,,,,,,,,,,,,
null,,black_cross(without_color),323837,,,yellow,,,,,null,US_Cities_List/racine.png,US_Cities_List/huntsville.png,,,,,,,,,,,,,,,,,,
null,,rt_plussign_withcolor,324340,,,yellow,,,,,null,US_Cities_List/racine.png,US_Cities_List/huntsville.png,,,,,,,,,,,,,,,,,,
1177.2999999523163,,rt_thecrossant_black,325868,,,black_plus_sign,,,,,50,,,1,1,,,,,,,,,,,,,,,,
null,,color_black,325971,,,black_plus_sign,,,,,null,,,,,,,,,,,,,,,,,,,,
null,,learn_phase(without_color),328997,,,black_plus_sign,,,,,null,US_Cities_List/huntsville.png,US_Cities_List/boulder.png,,,,,,,,,,,,,,,,,,
null,,black_cross(without_color),330073,,,yellow,,,,,null,US_Cities_List/huntsville.png,US_Cities_List/boulder.png,,,,,,,,,,,,,,,,,,
null,,rt_plussign_withcolor,330575,,,yellow,,,,,null,US_Cities_List/huntsville.png,US_Cities_List/boulder.png,,,,,,,,,,,,,,,,,,
663.2999999523163,,rt_thecrossant_black,331504,,,black_plus_sign,,,,,50,,,1,1,,,,,,,,,,,,,,,,
null,,color_black,331607,,,black_plus_sign,,,,,null,,,,,,,,,,,,,,,,,,,,
null,,learn_phase(without_color),334638,,,black_plus_sign,,,,,null,US_Cities_List/newhope.png,US_Cities_List/shreveport.png,,,,,,,,,,,,,,,,,,
null,,black_cross(without_color),335190,,,blue,,,,,null,US_Cities_List/newhope.png,US_Cities_List/shreveport.png,,,,,,,,,,,,,,,,,,
455.10000002384186,,rt_plussign_withcolor,335693,,,blue,,,,,49,US_Cities_List/newhope.png,US_Cities_List/shreveport.png,,,,,,,,,,,,,,,,,,
null,,rt_thecrossant_black,337147,,,black_plus_sign,,,,,null,,,1,1,,,,,,,,,,,,,,,,
null,,color_black,337250,,,black_plus_sign,,,,,null,,,,,,,,,,,,,,,,,,,,
null,,learn_phase(without_color),340281,,,black_plus_sign,,,,,null,US_Cities_List/racine.png,US_Cities_List/hotsprings.png,,,,,,,,,,,,,,,,,,
null,,black_cross(without_color),341316,,,blue,,,,,null,US_Cities_List/racine.png,US_Cities_List/hotsprings.png,,,,,,,,,,,,,,,,,,
464.60000002384186,,rt_plussign_withcolor,341818,,,blue,,,,,49,US_Cities_List/racine.png,US_Cities_List/hotsprings.png,,,,,,,,,,,,,,,,,,
null,,rt_thecrossant_black,342788,,,black_plus_sign,,,,,null,,,1,1,,,,,,,,,,,,,,,,
null,,color_black,342891,,,black_plus_sign,,,,,null,,,,,,,,,,,,,,,,,,,,
null,,learn_phase(without_color),345917,,,black_plus_sign,,,,,null,US_Cities_List/shreveport.png,US_Cities_List/westpalmbeach.png,,,,,,,,,,,,,,,,,,
null,,black_cross(without_color),346876,,,blue,,,,,null,US_Cities_List/shreveport.png,US_Cities_List/westpalmbeach.png,,,,,,,,,,,,,,,,,,
465.7999999523163,,rt_plussign_withcolor,347379,,,blue,,,,,49,US_Cities_List/shreveport.png,US_Cities_List/westpalmbeach.png,,,,,,,,,,,,,,,,,,
null,,rt_thecrossant_black,348424,,,black_plus_sign,,,,,null,,,1,1,,,,,,,,,,,,,,,,
null,,color_black,348529,,,black_plus_sign,,,,,null,,,,,,,,,,,,,,,,,,,,
null,,learn_phase(without_color),351559,,,black_plus_sign,,,,,null,US_Cities_List/huntsville.png,US_Cities_List/cornwall.png,,,,,,,,,,,,,,,,,,
null,,black_cross(without_color),352598,,,yellow,,,,,null,US_Cities_List/huntsville.png,US_Cities_List/cornwall.png,,,,,,,,,,,,,,,,,,
375.8000000715256,,rt_plussign_withcolor,353101,,,yellow,,,,,49,US_Cities_List/huntsville.png,US_Cities_List/cornwall.png,,,,,,,,,,,,,,,,,,
null,,rt_thecrossant_black,354067,,,black_plus_sign,,,,,50,,,0,0.9722222222222222,,,,,,,,,,,,,,,,
null,,color_black,354169,,,black_plus_sign,,,,,null,,,,,,,,,,,,,,,,,,,,
null,,learn_phase(without_color),357198,,,black_plus_sign,,,,,null,US_Cities_List/racine.png,US_Cities_List/huntsville.png,,,,,,,,,,,,,,,,,,
null,,black_cross(without_color),358135,,,yellow,,,,,null,US_Cities_List/racine.png,US_Cities_List/huntsville.png,,,,,,,,,,,,,,,,,,
null,,rt_plussign_withcolor,358637,,,yellow,,,,,null,US_Cities_List/racine.png,US_Cities_List/huntsville.png,,,,,,,,,,,,,,,,,,
1216.2000000476837,,rt_thecrossant_black,359713,,,black_plus_sign,,,,,50,,,1,0.972972972972973,,,,,,,,,,,,,,,,
null,,color_black,359817,,,black_plus_sign,,,,,null,,,,,,,,,,,,,,,,,,,,
null,,learn_phase(without_color),362844,,,black_plus_sign,,,,,null,US_Cities_List/carmel.png,US_Cities_List/westpalmbeach.png,,,,,,,,,,,,,,,,,,
null,,black_cross(without_color),363874,,,yellow,,,,,null,US_Cities_List/carmel.png,US_Cities_List/westpalmbeach.png,,,,,,,,,,,,,,,,,,
null,,rt_plussign_withcolor,364377,,,yellow,,,,,null,US_Cities_List/carmel.png,US_Cities_List/westpalmbeach.png,,,,,,,,,,,,,,,,,,
1137.7000000476837,,rt_thecrossant_black,365353,,,black_plus_sign,,,,,50,,,1,0.9736842105263158,,,,,,,,,,,,,,,,
null,,color_black,365456,,,black_plus_sign,,,,,null,,,,,,,,,,,,,,,,,,,,
null,,learn_phase(without_color),368496,,,black_plus_sign,,,,,null,US_Cities_List/huntsville.png,US_Cities_List/cornwall.png,,,,,,,,,,,,,,,,,,
null,,black_cross(without_color),369488,,,blue,,,,,null,US_Cities_List/huntsville.png,US_Cities_List/cornwall.png,,,,,,,,,,,,,,,,,,
378.8000000715256,,rt_plussign_withcolor,369989,,,blue,,,,,49,US_Cities_List/huntsville.png,US_Cities_List/cornwall.png,,,,,,,,,,,,,,,,,,
null,,rt_thecrossant_black,371003,,,black_plus_sign,,,,,null,,,1,0.9743589743589743,,,,,,,,,,,,,,,,
null,,color_black,371106,,,black_plus_sign,,,,,null,,,,,,,,,,,,,,,,,,,,
null,,learn_phase(without_color),374148,,,black_plus_sign,,,,,null,US_Cities_List/leesburg.png,US_Cities_List/hotsprings.png,,,,,,,,,,,,,,,,,,
null,,black_cross(without_color),374949,,,yellow,,,,,null,US_Cities_List/leesburg.png,US_Cities_List/hotsprings.png,,,,,,,,,,,,,,,,,,
null,,rt_plussign_withcolor,375466,,,yellow,,,,,null,US_Cities_List/leesburg.png,US_Cities_List/hotsprings.png,,,,,,,,,,,,,,,,,,
1131.3999999761581,,rt_thecrossant_black,376670,,,black_plus_sign,,,,,50,,,1,0.975,,,,,,,,,,,,,,,,
null,,color_black,376773,,,black_plus_sign,,,,,null,,,,,,,,,,,,,,,,,,,,
null,,learn_phase(without_color),379802,,,black_plus_sign,,,,,null,US_Cities_List/westpalmbeach.png,US_Cities_List/shreveport.png,,,,,,,,,,,,,,,,,,
null,,black_cross(without_color),380810,,,yellow,,,,,null,US_Cities_List/westpalmbeach.png,US_Cities_List/shreveport.png,,,,,,,,,,,,,,,,,,
null,,rt_plussign_withcolor,381312,,,yellow,,,,,null,US_Cities_List/westpalmbeach.png,US_Cities_List/shreveport.png,,,,,,,,,,,,,,,,,,
910.6000000238419,,rt_thecrossant_black,382308,,,black_plus_sign,,,,,50,,,1,0.975609756097561,,,,,,,,,,,,,,,,
null,,color_black,382411,,,black_plus_sign,,,,,null,,,,,,,,,,,,,,,,,,,,
null,,learn_phase(without_color),385457,,,black_plus_sign,,,,,null,US_Cities_List/hotsprings.png,US_Cities_List/leesburg.png,,,,,,,,,,,,,,,,,,
null,,black_cross(without_color),386227,,,blue,,,,,null,US_Cities_List/hotsprings.png,US_Cities_List/leesburg.png,,,,,,,,,,,,,,,,,,
492.5,,rt_plussign_withcolor,386728,,,blue,,,,,49,US_Cities_List/hotsprings.png,US_Cities_List/leesburg.png,,,,,,,,,,,,,,,,,,
null,,rt_thecrossant_black,387969,,,black_plus_sign,,,,,null,,,1,0.9761904761904762,,,,,,,,,,,,,,,,
null,,color_black,388072,,,black_plus_sign,,,,,null,,,,,,,,,,,,,,,,,,,,
null,,learn_phase(without_color),391098,,,black_plus_sign,,,,,null,US_Cities_List/peoria.png,US_Cities_List/hanover.png,,,,,,,,,,,,,,,,,,
null,,black_cross(without_color),391537,,,yellow,,,,,null,US_Cities_List/peoria.png,US_Cities_List/hanover.png,,,,,,,,,,,,,,,,,,
null,,rt_plussign_withcolor,392039,,,yellow,,,,,null,US_Cities_List/peoria.png,US_Cities_List/hanover.png,,,,,,,,,,,,,,,,,,
883.1999999284744,,rt_thecrossant_black,393607,,,black_plus_sign,,,,,50,,,1,0.9767441860465116,,,,,,,,,,,,,,,,
null,,color_black,393709,,,black_plus_sign,,,,,null,,,,,,,,,,,,,,,,,,,,
null,,learn_phase(without_color),396742,,,black_plus_sign,,,,,null,US_Cities_List/cornwall.png,US_Cities_List/shreveport.png,,,,,,,,,,,,,,,,,,
null,,black_cross(without_color),397414,,,blue,,,,,null,US_Cities_List/cornwall.png,US_Cities_List/shreveport.png,,,,,,,,,,,,,,,,,,
null,,rt_plussign_withcolor,397917,,,blue,,,,,null,US_Cities_List/cornwall.png,US_Cities_List/shreveport.png,,,,,,,,,,,,,,,,,,
612.3000000715256,,rt_thecrossant_black,399260,,,black_plus_sign,,,,,49,,,1,0.9772727272727273,,,,,,,,,,,,,,,,
null,,color_black,399362,,,black_plus_sign,,,,,null,,,,,,,,,,,,,,,,,,,,
null,,learn_phase(without_color),402394,,,black_plus_sign,,,,,null,US_Cities_List/shreveport.png,US_Cities_List/westpalmbeach.png,,,,,,,,,,,,,,,,,,
null,,black_cross(without_color),403432,,,blue,,,,,null,US_Cities_List/shreveport.png,US_Cities_List/westpalmbeach.png,,,,,,,,,,,,,,,,,,
471.89999997615814,,rt_plussign_withcolor,403933,,,blue,,,,,49,US_Cities_List/shreveport.png,US_Cities_List/westpalmbeach.png,,,,,,,,,,,,,,,,,,
null,,rt_thecrossant_black,404909,,,black_plus_sign,,,,,null,,,1,0.9777777777777777,,,,,,,,,,,,,,,,
null,,color_black,405011,,,black_plus_sign,,,,,null,,,,,,,,,,,,,,,,,,,,
null,,learn_phase(without_color),408047,,,black_plus_sign,,,,,null,US_Cities_List/hanover.png,US_Cities_List/peoria.png,,,,,,,,,,,,,,,,,,
null,,black_cross(without_color),408637,,,yellow,,,,,null,US_Cities_List/hanover.png,US_Cities_List/peoria.png,,,,,,,,,,,,,,,,,,
null,,rt_plussign_withcolor,409139,,,yellow,,,,,null,US_Cities_List/hanover.png,US_Cities_List/peoria.png,,,,,,,,,,,,,,,,,,
1221.2000000476837,,rt_thecrossant_black,410562,,,black_plus_sign,,,,,50,,,1,0.9782608695652174,,,,,,,,,,,,,,,,
null,,color_black,410667,,,black_plus_sign,,,,,null,,,,,,,,,,,,,,,,,,,,
null,,learn_phase(without_color),413693,,,black_plus_sign,,,,,null,US_Cities_List/westpalmbeach.png,US_Cities_List/carmel.png,,,,,,,,,,,,,,,,,,
null,,black_cross(without_color),414411,,,blue,,,,,null,US_Cities_List/westpalmbeach.png,US_Cities_List/carmel.png,,,,,,,,,,,,,,,,,,
434,,rt_plussign_withcolor,414913,,,blue,,,,,49,US_Cities_List/westpalmbeach.png,US_Cities_List/carmel.png,,,,,,,,,,,,,,,,,,
null,,rt_thecrossant_black,416201,,,black_plus_sign,,,,,null,,,1,0.9787234042553191,,,,,,,,,,,,,,,,
null,,color_black,416304,,,black_plus_sign,,,,,null,,,,,,,,,,,,,,,,,,,,
null,,learn_phase(without_color),419336,,,black_plus_sign,,,,,null,US_Cities_List/peoria.png,US_Cities_List/hanover.png,,,,,,,,,,,,,,,,,,
null,,black_cross(without_color),419997,,,yellow,,,,,null,US_Cities_List/peoria.png,US_Cities_List/hanover.png,,,,,,,,,,,,,,,,,,
407.10000002384186,,rt_plussign_withcolor,420499,,,yellow,,,,,50,US_Cities_List/peoria.png,US_Cities_List/hanover.png,,,,,,,,,,,,,,,,,,
null,,rt_thecrossant_black,421843,,,black_plus_sign,,,,,null,,,1,0.9791666666666666,,,,,,,,,,,,,,,,
null,,color_black,421945,,,black_plus_sign,,,,,null,,,,,,,,,,,,,,,,,,,,
null,,learn_phase(without_color),424973,,,black_plus_sign,,,,,null,US_Cities_List/shreveport.png,US_Cities_List/newhope.png,,,,,,,,,,,,,,,,,,
null,,black_cross(without_color),425917,,,blue,,,,,null,US_Cities_List/shreveport.png,US_Cities_List/newhope.png,,,,,,,,,,,,,,,,,,
458.2000000476837,,rt_plussign_withcolor,426419,,,blue,,,,,49,US_Cities_List/shreveport.png,US_Cities_List/newhope.png,,,,,,,,,,,,,,,,,,
null,,rt_thecrossant_black,427481,,,black_plus_sign,,,,,null,,,1,0.9795918367346939,,,,,,,,,,,,,,,,
null,,color_black,427583,,,black_plus_sign,,,,,null,,,,,,,,,,,,,,,,,,,,
null,,learn_phase(without_color),430604,,,black_plus_sign,,,,,null,US_Cities_List/boulder.png,US_Cities_List/huntsville.png,,,,,,,,,,,,,,,,,,
null,,black_cross(without_color),431422,,,blue,,,,,null,US_Cities_List/boulder.png,US_Cities_List/huntsville.png,,,,,,,,,,,,,,,,,,
354.2999999523163,,rt_plussign_withcolor,431925,,,blue,,,,,49,US_Cities_List/boulder.png,US_Cities_List/huntsville.png,,,,,,,,,,,,,,,,,,
null,,rt_thecrossant_black,433114,,,black_plus_sign,,,,,null,,,1,0.98,,,,,,,,,,,,,,,,
null,,color_black,433217,,,black_plus_sign,,,,,null,,,,,,,,,,,,,,,,,,,,
null,,learn_phase(without_color),436247,,,black_plus_sign,,,,,null,US_Cities_List/boulder.png,US_Cities_List/westpalmbeach.png,,,,,,,,,,,,,,,,,,
null,,black_cross(without_color),437011,,,yellow,,,,,null,US_Cities_List/boulder.png,US_Cities_List/westpalmbeach.png,,,,,,,,,,,,,,,,,,
null,,rt_plussign_withcolor,437514,,,yellow,,,,,null,US_Cities_List/boulder.png,US_Cities_List/westpalmbeach.png,,,,,,,,,,,,,,,,,,
955.4000000953674,,rt_thecrossant_black,438756,,,black_plus_sign,,,,,50,,,1,0.9803921568627451,,,,,,,,,,,,,,,,
null,,color_black,438859,,,black_plus_sign,,,,,null,,,,,,,,,,,,,,,,,,,,
null,,learn_phase(without_color),441888,,,black_plus_sign,,,,,null,US_Cities_List/leesburg.png,US_Cities_List/hotsprings.png,,,,,,,,,,,,,,,,,,
null,,black_cross(without_color),442702,,,yellow,,,,,null,US_Cities_List/leesburg.png,US_Cities_List/hotsprings.png,,,,,,,,,,,,,,,,,,
null,,rt_plussign_withcolor,443204,,,yellow,,,,,null,US_Cities_List/leesburg.png,US_Cities_List/hotsprings.png,,,,,,,,,,,,,,,,,,
926.5999999046326,,rt_thecrossant_black,444396,,,black_plus_sign,,,,,50,,,1,0.9807692307692307,,,,,,,,,,,,,,,,
null,,color_black,444499,,,black_plus_sign,,,,,null,,,,,,,,,,,,,,,,,,,,
null,,learn_phase(without_color),447527,,,black_plus_sign,,,,,null,US_Cities_List/carmel.png,US_Cities_List/westpalmbeach.png,,,,,,,,,,,,,,,,,,
null,,black_cross(without_color),448288,,,yellow,,,,,null,US_Cities_List/carmel.png,US_Cities_List/westpalmbeach.png,,,,,,,,,,,,,,,,,,
null,,rt_plussign_withcolor,448793,,,yellow,,,,,null,US_Cities_List/carmel.png,US_Cities_List/westpalmbeach.png,,,,,,,,,,,,,,,,,,
980.5,,rt_thecrossant_black,450038,,,black_plus_sign,,,,,50,,,1,0.9811320754716981,,,,,,,,,,,,,,,,
null,,color_black,450142,,,black_plus_sign,,,,,null,,,,,,,,,,,,,,,,,,,,
null,,learn_phase(without_color),453169,,,black_plus_sign,,,,,null,US_Cities_List/racine.png,US_Cities_List/hanover.png,,,,,,,,,,,,,,,,,,
null,,black_cross(without_color),454140,,,blue,,,,,null,US_Cities_List/racine.png,US_Cities_List/hanover.png,,,,,,,,,,,,,,,,,,
387.90000009536743,,rt_plussign_withcolor,454642,,,blue,,,,,49,US_Cities_List/racine.png,US_Cities_List/hanover.png,,,,,,,,,,,,,,,,,,
null,,rt_thecrossant_black,455677,,,black_plus_sign,,,,,null,,,1,0.9814814814814815,,,,,,,,,,,,,,,,
null,,color_black,455780,,,black_plus_sign,,,,,null,,,,,,,,,,,,,,,,,,,,
null,,learn_phase(without_color),458811,,,black_plus_sign,,,,,null,US_Cities_List/gatlinburg.png,US_Cities_List/hanover.png,,,,,,,,,,,,,,,,,,
null,,black_cross(without_color),459432,,,blue,,,,,null,US_Cities_List/gatlinburg.png,US_Cities_List/hanover.png,,,,,,,,,,,,,,,,,,
495.60000002384186,,rt_plussign_withcolor,459933,,,blue,,,,,49,US_Cities_List/gatlinburg.png,US_Cities_List/hanover.png,,,,,,,,,,,,,,,,,,
null,,rt_thecrossant_black,461318,,,black_plus_sign,,,,,null,,,1,0.9818181818181818,,,,,,,,,,,,,,,,
null,,color_black,461421,,,black_plus_sign,,,,,null,,,,,,,,,,,,,,,,,,,,
null,,learn_phase(without_color),464449,,,black_plus_sign,,,,,null,US_Cities_List/racine.png,US_Cities_List/huntsville.png,,,,,,,,,,,,,,,,,,
null,,black_cross(without_color),464929,,,yellow,,,,,null,US_Cities_List/racine.png,US_Cities_List/huntsville.png,,,,,,,,,,,,,,,,,,
null,,rt_plussign_withcolor,465432,,,yellow,,,,,null,US_Cities_List/racine.png,US_Cities_List/huntsville.png,,,,,,,,,,,,,,,,,,
764.2000000476837,,rt_thecrossant_black,466957,,,black_plus_sign,,,,,50,,,1,0.9821428571428571,,,,,,,,,,,,,,,,
null,,color_black,467060,,,black_plus_sign,,,,,null,,,,,,,,,,,,,,,,,,,,
null,,learn_phase(without_color),470084,,,black_plus_sign,,,,,null,US_Cities_List/huntsville.png,US_Cities_List/boulder.png,,,,,,,,,,,,,,,,,,
null,,black_cross(without_color),470902,,,yellow,,,,,null,US_Cities_List/huntsville.png,US_Cities_List/boulder.png,,,,,,,,,,,,,,,,,,
null,,rt_plussign_withcolor,471404,,,yellow,,,,,null,US_Cities_List/huntsville.png,US_Cities_List/boulder.png,,,,,,,,,,,,,,,,,,
650,,rt_thecrossant_black,472592,,,black_plus_sign,,,,,50,,,1,0.9824561403508771,,,,,,,,,,,,,,,,
null,,color_black,472705,,,black_plus_sign,,,,,null,,,,,,,,,,,,,,,,,,,,
null,,learn_phase(without_color),475732,,,black_plus_sign,,,,,null,US_Cities_List/peoria.png,US_Cities_List/boulder.png,,,,,,,,,,,,,,,,,,
null,,black_cross(without_color),476163,,,blue,,,,,null,US_Cities_List/peoria.png,US_Cities_List/boulder.png,,,,,,,,,,,,,,,,,,
445.10000002384186,,rt_plussign_withcolor,476666,,,blue,,,,,49,US_Cities_List/peoria.png,US_Cities_List/boulder.png,,,,,,,,,,,,,,,,,,
null,,rt_thecrossant_black,478241,,,black_plus_sign,,,,,null,,,1,0.9827586206896551,,,,,,,,,,,,,,,,
null,,color_black,478344,,,black_plus_sign,,,,,null,,,,,,,,,,,,,,,,,,,,
null,,learn_phase(without_color),481380,,,black_plus_sign,,,,,null,US_Cities_List/cornwall.png,US_Cities_List/huntsville.png,,,,,,,,,,,,,,,,,,
null,,black_cross(without_color),482044,,,blue,,,,,null,US_Cities_List/cornwall.png,US_Cities_List/huntsville.png,,,,,,,,,,,,,,,,,,
380.2000000476837,,rt_plussign_withcolor,482548,,,blue,,,,,49,US_Cities_List/cornwall.png,US_Cities_List/huntsville.png,,,,,,,,,,,,,,,,,,
null,,rt_thecrossant_black,483888,,,black_plus_sign,,,,,null,,,1,0.9830508474576272,,,,,,,,,,,,,,,,
null,,color_black,483991,,,black_plus_sign,,,,,null,,,,,,,,,,,,,,,,,,,,
null,,learn_phase(without_color),487034,,,black_plus_sign,,,,,null,US_Cities_List/racine.png,US_Cities_List/peoria.png,,,,,,,,,,,,,,,,,,
null,,black_cross(without_color),488027,,,yellow,,,,,null,US_Cities_List/racine.png,US_Cities_List/peoria.png,,,,,,,,,,,,,,,,,,
421.5,,rt_plussign_withcolor,488529,,,yellow,,,,,50,US_Cities_List/racine.png,US_Cities_List/peoria.png,,,,,,,,,,,,,,,,,,
null,,rt_thecrossant_black,489541,,,black_plus_sign,,,,,null,,,1,0.9833333333333333,,,,,,,,,,,,,,,,
null,,color_black,489644,,,black_plus_sign,,,,,null,,,,,,,,,,,,,,,,,,,,
null,,learn_phase(without_color),492674,,,black_plus_sign,,,,,null,US_Cities_List/carmel.png,US_Cities_List/westpalmbeach.png,,,,,,,,,,,,,,,,,,
null,,black_cross(without_color),493294,,,blue,,,,,null,US_Cities_List/carmel.png,US_Cities_List/westpalmbeach.png,,,,,,,,,,,,,,,,,,
456.89999997615814,,rt_plussign_withcolor,493796,,,blue,,,,,49,US_Cities_List/carmel.png,US_Cities_List/westpalmbeach.png,,,,,,,,,,,,,,,,,,
null,,rt_thecrossant_black,495181,,,black_plus_sign,,,,,null,,,1,0.9836065573770492,,,,,,,,,,,,,,,,
null,,color_black,495284,,,black_plus_sign,,,,,null,,,,,,,,,,,,,,,,,,,,
null,,learn_phase(without_color),498296,,,black_plus_sign,,,,,null,US_Cities_List/hanover.png,US_Cities_List/hotsprings.png,,,,,,,,,,,,,,,,,,
null,,black_cross(without_color),498733,,,blue,,,,,null,US_Cities_List/hanover.png,US_Cities_List/hotsprings.png,,,,,,,,,,,,,,,,,,
485.1999999284744,,rt_plussign_withcolor,499235,,,blue,,,,,49,US_Cities_List/hanover.png,US_Cities_List/hotsprings.png,,,,,,,,,,,,,,,,,,
null,,rt_thecrossant_black,500803,,,black_plus_sign,,,,,null,,,1,0.9838709677419355,,,,,,,,,,,,,,,,
null,,color_black,500906,,,black_plus_sign,,,,,null,,,,,,,,,,,,,,,,,,,,
null,,learn_phase(without_color),503938,,,black_plus_sign,,,,,null,US_Cities_List/westpalmbeach.png,US_Cities_List/boulder.png,,,,,,,,,,,,,,,,,,
null,,black_cross(without_color),505021,,,blue,,,,,null,US_Cities_List/westpalmbeach.png,US_Cities_List/boulder.png,,,,,,,,,,,,,,,,,,
436.90000009536743,,rt_plussign_withcolor,505523,,,blue,,,,,49,US_Cities_List/westpalmbeach.png,US_Cities_List/boulder.png,,,,,,,,,,,,,,,,,,
null,,rt_thecrossant_black,506447,,,black_plus_sign,,,,,null,,,1,0.9841269841269841,,,,,,,,,,,,,,,,
null,,color_black,506550,,,black_plus_sign,,,,,null,,,,,,,,,,,,,,,,,,,,
null,,learn_phase(without_color),509577,,,black_plus_sign,,,,,null,US_Cities_List/peoria.png,US_Cities_List/boulder.png,,,,,,,,,,,,,,,,,,
null,,black_cross(without_color),510181,,,yellow,,,,,null,US_Cities_List/peoria.png,US_Cities_List/boulder.png,,,,,,,,,,,,,,,,,,
null,,rt_plussign_withcolor,510684,,,yellow,,,,,null,US_Cities_List/peoria.png,US_Cities_List/boulder.png,,,,,,,,,,,,,,,,,,
1335.6999999284744,,rt_thecrossant_black,512085,,,black_plus_sign,,,,,50,,,1,0.984375,,,,,,,,,,,,,,,,
null,,color_black,512188,,,black_plus_sign,,,,,null,,,,,,,,,,,,,,,,,,,,
41122.39999997616,,learn_break,553315,,,learn_break,,,,,32,,,,,,,,,,,,,,,,,,,,
null,,html-keyboard-response,554322,,,<p></p>,,,,,null,,,,,,,,,,,,,,,,,,,,
null,,learn_phase(without_color),557354,,,black_plus_sign,,,,,null,US_Cities_List/westpalmbeach.png,US_Cities_List/boulder.png,,,,,,,,,,,,,,,,,,
null,,black_cross(without_color),557772,,,yellow,,,,,null,US_Cities_List/westpalmbeach.png,US_Cities_List/boulder.png,,,,,,,,,,,,,,,,,,
null,,rt_plussign_withcolor,558274,,,yellow,,,,,null,US_Cities_List/westpalmbeach.png,US_Cities_List/boulder.png,,,,,,,,,,,,,,,,,,
729.6000000238419,,rt_thecrossant_black,559863,,,black_plus_sign,,,,,50,,,1,0.9846153846153847,,,,,,,,,,,,,,,,
null,,color_black,559965,,,black_plus_sign,,,,,null,,,,,,,,,,,,,,,,,,,,
null,,learn_phase(without_color),562998,,,black_plus_sign,,,,,null,US_Cities_List/westpalmbeach.png,US_Cities_List/shreveport.png,,,,,,,,,,,,,,,,,,
null,,black_cross(without_color),563819,,,blue,,,,,null,US_Cities_List/westpalmbeach.png,US_Cities_List/shreveport.png,,,,,,,,,,,,,,,,,,
489.60000002384186,,rt_plussign_withcolor,564321,,,blue,,,,,49,US_Cities_List/westpalmbeach.png,US_Cities_List/shreveport.png,,,,,,,,,,,,,,,,,,
null,,rt_thecrossant_black,565504,,,black_plus_sign,,,,,null,,,1,0.9848484848484849,,,,,,,,,,,,,,,,
null,,color_black,565607,,,black_plus_sign,,,,,null,,,,,,,,,,,,,,,,,,,,
null,,learn_phase(without_color),568640,,,black_plus_sign,,,,,null,US_Cities_List/hanover.png,US_Cities_List/hotsprings.png,,,,,,,,,,,,,,,,,,
null,,black_cross(without_color),569237,,,blue,,,,,null,US_Cities_List/hanover.png,US_Cities_List/hotsprings.png,,,,,,,,,,,,,,,,,,
null,,rt_plussign_withcolor,569740,,,blue,,,,,null,US_Cities_List/hanover.png,US_Cities_List/hotsprings.png,,,,,,,,,,,,,,,,,,
996.7000000476837,,rt_thecrossant_black,571148,,,black_plus_sign,,,,,49,,,1,0.9850746268656716,,,,,,,,,,,,,,,,
null,,color_black,571250,,,black_plus_sign,,,,,null,,,,,,,,,,,,,,,,,,,,
null,,learn_phase(without_color),574281,,,black_plus_sign,,,,,null,US_Cities_List/hanover.png,US_Cities_List/peoria.png,,,,,,,,,,,,,,,,,,
null,,black_cross(without_color),574850,,,yellow,,,,,null,US_Cities_List/hanover.png,US_Cities_List/peoria.png,,,,,,,,,,,,,,,,,,
null,,rt_plussign_withcolor,575353,,,yellow,,,,,null,US_Cities_List/hanover.png,US_Cities_List/peoria.png,,,,,,,,,,,,,,,,,,
695.1999999284744,,rt_thecrossant_black,576790,,,black_plus_sign,,,,,50,,,1,0.9852941176470589,,,,,,,,,,,,,,,,
null,,color_black,576892,,,black_plus_sign,,,,,null,,,,,,,,,,,,,,,,,,,,
null,,learn_phase(without_color),579924,,,black_plus_sign,,,,,null,US_Cities_List/racine.png,US_Cities_List/hotsprings.png,,,,,,,,,,,,,,,,,,
null,,black_cross(without_color),580348,,,yellow,,,,,null,US_Cities_List/racine.png,US_Cities_List/hotsprings.png,,,,,,,,,,,,,,,,,,
null,,rt_plussign_withcolor,580851,,,yellow,,,,,null,US_Cities_List/racine.png,US_Cities_List/hotsprings.png,,,,,,,,,,,,,,,,,,
779,,rt_thecrossant_black,582432,,,black_plus_sign,,,,,50,,,1,0.9855072463768116,,,,,,,,,,,,,,,,
null,,color_black,582536,,,black_plus_sign,,,,,null,,,,,,,,,,,,,,,,,,,,
null,,learn_phase(without_color),585567,,,black_plus_sign,,,,,null,US_Cities_List/racine.png,US_Cities_List/hanover.png,,,,,,,,,,,,,,,,,,
null,,black_cross(without_color),586253,,,yellow,,,,,null,US_Cities_List/racine.png,US_Cities_List/hanover.png,,,,,,,,,,,,,,,,,,
356.7000000476837,,rt_plussign_withcolor,586756,,,yellow,,,,,50,US_Cities_List/racine.png,US_Cities_List/hanover.png,,,,,,,,,,,,,,,,,,
null,,rt_thecrossant_black,588075,,,black_plus_sign,,,,,null,,,1,0.9857142857142858,,,,,,,,,,,,,,,,
null,,color_black,588178,,,black_plus_sign,,,,,null,,,,,,,,,,,,,,,,,,,,
null,,learn_phase(without_color),591202,,,black_plus_sign,,,,,null,US_Cities_List/racine.png,US_Cities_List/hotsprings.png,,,,,,,,,,,,,,,,,,
null,,black_cross(without_color),591690,,,blue,,,,,null,US_Cities_List/racine.png,US_Cities_List/hotsprings.png,,,,,,,,,,,,,,,,,,
null,,rt_plussign_withcolor,592192,,,blue,,,,,null,US_Cities_List/racine.png,US_Cities_List/hotsprings.png,,,,,,,,,,,,,,,,,,
949.4000000953674,,rt_thecrossant_black,593709,,,black_plus_sign,,,,,49,,,1,0.9859154929577465,,,,,,,,,,,,,,,,
null,,color_black,593812,,,black_plus_sign,,,,,null,,,,,,,,,,,,,,,,,,,,
null,,learn_phase(without_color),596842,,,black_plus_sign,,,,,null,US_Cities_List/newhope.png,US_Cities_List/shreveport.png,,,,,,,,,,,,,,,,,,
null,,black_cross(without_color),597905,,,blue,,,,,null,US_Cities_List/newhope.png,US_Cities_List/shreveport.png,,,,,,,,,,,,,,,,,,
null,,rt_plussign_withcolor,598408,,,blue,,,,,null,US_Cities_List/newhope.png,US_Cities_List/shreveport.png,,,,,,,,,,,,,,,,,,
658.7999999523163,,rt_thecrossant_black,599350,,,black_plus_sign,,,,,49,,,1,0.9861111111111112,,,,,,,,,,,,,,,,
null,,color_black,599453,,,black_plus_sign,,,,,null,,,,,,,,,,,,,,,,,,,,
null,,learn_phase(without_color),602484,,,black_plus_sign,,,,,null,US_Cities_List/hotsprings.png,US_Cities_List/leesburg.png,,,,,,,,,,,,,,,,,,
null,,black_cross(without_color),603218,,,yellow,,,,,null,US_Cities_List/hotsprings.png,US_Cities_List/leesburg.png,,,,,,,,,,,,,,,,,,
411.60000002384186,,rt_plussign_withcolor,603720,,,yellow,,,,,50,US_Cities_List/hotsprings.png,US_Cities_List/leesburg.png,,,,,,,,,,,,,,,,,,
null,,rt_thecrossant_black,604992,,,black_plus_sign,,,,,null,,,1,0.9863013698630136,,,,,,,,,,,,,,,,
null,,color_black,605095,,,black_plus_sign,,,,,null,,,,,,,,,,,,,,,,,,,,
null,,learn_phase(without_color),608123,,,black_plus_sign,,,,,null,US_Cities_List/peoria.png,US_Cities_List/hanover.png,,,,,,,,,,,,,,,,,,
null,,black_cross(without_color),608582,,,blue,,,,,null,US_Cities_List/peoria.png,US_Cities_List/hanover.png,,,,,,,,,,,,,,,,,,
432.89999997615814,,rt_plussign_withcolor,609084,,,blue,,,,,49,US_Cities_List/peoria.png,US_Cities_List/hanover.png,,,,,,,,,,,,,,,,,,
null,,rt_thecrossant_black,610632,,,black_plus_sign,,,,,null,,,1,0.9864864864864865,,,,,,,,,,,,,,,,
null,,color_black,610735,,,black_plus_sign,,,,,null,,,,,,,,,,,,,,,,,,,,
null,,learn_phase(without_color),613764,,,black_plus_sign,,,,,null,US_Cities_List/gatlinburg.png,US_Cities_List/hanover.png,,,,,,,,,,,,,,,,,,
null,,black_cross(without_color),614664,,,blue,,,,,null,US_Cities_List/gatlinburg.png,US_Cities_List/hanover.png,,,,,,,,,,,,,,,,,,
null,,rt_plussign_withcolor,615167,,,blue,,,,,null,US_Cities_List/gatlinburg.png,US_Cities_List/hanover.png,,,,,,,,,,,,,,,,,,
613,,rt_thecrossant_black,616273,,,black_plus_sign,,,,,49,,,1,0.9866666666666667,,,,,,,,,,,,,,,,
null,,color_black,616376,,,black_plus_sign,,,,,null,,,,,,,,,,,,,,,,,,,,
null,,learn_phase(without_color),619406,,,black_plus_sign,,,,,null,US_Cities_List/gatlinburg.png,US_Cities_List/hanover.png,,,,,,,,,,,,,,,,,,
null,,black_cross(without_color),619811,,,blue,,,,,null,US_Cities_List/gatlinburg.png,US_Cities_List/hanover.png,,,,,,,,,,,,,,,,,,
null,,rt_plussign_withcolor,620313,,,blue,,,,,null,US_Cities_List/gatlinburg.png,US_Cities_List/hanover.png,,,,,,,,,,,,,,,,,,
1009.9000000953674,,rt_thecrossant_black,621914,,,black_plus_sign,,,,,49,,,1,0.9868421052631579,,,,,,,,,,,,,,,,
null,,color_black,622017,,,black_plus_sign,,,,,null,,,,,,,,,,,,,,,,,,,,
null,,learn_phase(without_color),625047,,,black_plus_sign,,,,,null,US_Cities_List/hanover.png,US_Cities_List/gatlinburg.png,,,,,,,,,,,,,,,,,,
null,,black_cross(without_color),625939,,,yellow,,,,,null,US_Cities_List/hanover.png,US_Cities_List/gatlinburg.png,,,,,,,,,,,,,,,,,,
471.2999999523163,,rt_plussign_withcolor,626440,,,yellow,,,,,50,US_Cities_List/hanover.png,US_Cities_List/gatlinburg.png,,,,,,,,,,,,,,,,,,
null,,rt_thecrossant_black,627554,,,black_plus_sign,,,,,null,,,1,0.987012987012987,,,,,,,,,,,,,,,,
null,,color_black,627657,,,black_plus_sign,,,,,null,,,,,,,,,,,,,,,,,,,,
null,,learn_phase(without_color),630691,,,black_plus_sign,,,,,null,US_Cities_List/racine.png,US_Cities_List/peoria.png,,,,,,,,,,,,,,,,,,
null,,black_cross(without_color),631498,,,blue,,,,,null,US_Cities_List/racine.png,US_Cities_List/peoria.png,,,,,,,,,,,,,,,,,,
424,,rt_plussign_withcolor,632001,,,blue,,,,,49,US_Cities_List/racine.png,US_Cities_List/peoria.png,,,,,,,,,,,,,,,,,,
null,,rt_thecrossant_black,633200,,,black_plus_sign,,,,,null,,,1,0.9871794871794872,,,,,,,,,,,,,,,,
null,,color_black,633303,,,black_plus_sign,,,,,null,,,,,,,,,,,,,,,,,,,,
null,,learn_phase(without_color),636340,,,black_plus_sign,,,,,null,US_Cities_List/racine.png,US_Cities_List/hanover.png,,,,,,,,,,,,,,,,,,
null,,black_cross(without_color),637358,,,blue,,,,,null,US_Cities_List/racine.png,US_Cities_List/hanover.png,,,,,,,,,,,,,,,,,,
null,,rt_plussign_withcolor,637866,,,blue,,,,,null,US_Cities_List/racine.png,US_Cities_List/hanover.png,,,,,,,,,,,,,,,,,,
986.9000000953674,,rt_thecrossant_black,638853,,,black_plus_sign,,,,,49,,,1,0.9873417721518988,,,,,,,,,,,,,,,,
null,,color_black,638955,,,black_plus_sign,,,,,null,,,,,,,,,,,,,,,,,,,,
null,,learn_phase(without_color),641983,,,black_plus_sign,,,,,null,US_Cities_List/westpalmbeach.png,US_Cities_List/boulder.png,,,,,,,,,,,,,,,,,,
null,,black_cross(without_color),642449,,,yellow,,,,,null,US_Cities_List/westpalmbeach.png,US_Cities_List/boulder.png,,,,,,,,,,,,,,,,,,
484.5,,rt_plussign_withcolor,642951,,,yellow,,,,,50,US_Cities_List/westpalmbeach.png,US_Cities_List/boulder.png,,,,,,,,,,,,,,,,,,
null,,rt_thecrossant_black,644491,,,black_plus_sign,,,,,null,,,1,0.9875,,,,,,,,,,,,,,,,
null,,color_black,644594,,,black_plus_sign,,,,,null,,,,,,,,,,,,,,,,,,,,
null,,learn_phase(without_color),647628,,,black_plus_sign,,,,,null,US_Cities_List/westpalmbeach.png,US_Cities_List/boulder.png,,,,,,,,,,,,,,,,,,
null,,black_cross(without_color),648237,,,yellow,,,,,null,US_Cities_List/westpalmbeach.png,US_Cities_List/boulder.png,,,,,,,,,,,,,,,,,,
424.2000000476837,,rt_plussign_withcolor,648739,,,yellow,,,,,50,US_Cities_List/westpalmbeach.png,US_Cities_List/boulder.png,,,,,,,,,,,,,,,,,,
null,,rt_thecrossant_black,650137,,,black_plus_sign,,,,,null,,,1,0.9876543209876543,,,,,,,,,,,,,,,,
null,,color_black,650241,,,black_plus_sign,,,,,null,,,,,,,,,,,,,,,,,,,,
null,,learn_phase(without_color),653269,,,black_plus_sign,,,,,null,US_Cities_List/shreveport.png,US_Cities_List/newhope.png,,,,,,,,,,,,,,,,,,
null,,black_cross(without_color),654371,,,yellow,,,,,null,US_Cities_List/shreveport.png,US_Cities_List/newhope.png,,,,,,,,,,,,,,,,,,
464.7999999523163,,rt_plussign_withcolor,654874,,,yellow,,,,,50,US_Cities_List/shreveport.png,US_Cities_List/newhope.png,,,,,,,,,,,,,,,,,,
null,,rt_thecrossant_black,655778,,,black_plus_sign,,,,,null,,,1,0.9878048780487805,,,,,,,,,,,,,,,,
null,,color_black,655881,,,black_plus_sign,,,,,null,,,,,,,,,,,,,,,,,,,,
null,,learn_phase(without_color),658910,,,black_plus_sign,,,,,null,US_Cities_List/hotsprings.png,US_Cities_List/hanover.png,,,,,,,,,,,,,,,,,,
null,,black_cross(without_color),659690,,,yellow,,,,,null,US_Cities_List/hotsprings.png,US_Cities_List/hanover.png,,,,,,,,,,,,,,,,,,
null,,rt_plussign_withcolor,660192,,,yellow,,,,,null,US_Cities_List/hotsprings.png,US_Cities_List/hanover.png,,,,,,,,,,,,,,,,,,
1251.7999999523163,,rt_thecrossant_black,661417,,,black_plus_sign,,,,,50,,,1,0.9879518072289156,,,,,,,,,,,,,,,,
null,,color_black,661520,,,black_plus_sign,,,,,null,,,,,,,,,,,,,,,,,,,,
null,,learn_phase(without_color),664544,,,black_plus_sign,,,,,null,US_Cities_List/boulder.png,US_Cities_List/huntsville.png,,,,,,,,,,,,,,,,,,
null,,black_cross(without_color),665078,,,yellow,,,,,null,US_Cities_List/boulder.png,US_Cities_List/huntsville.png,,,,,,,,,,,,,,,,,,
405.3000000715256,,rt_plussign_withcolor,665581,,,yellow,,,,,50,US_Cities_List/boulder.png,US_Cities_List/huntsville.png,,,,,,,,,,,,,,,,,,
null,,rt_thecrossant_black,667052,,,black_plus_sign,,,,,null,,,1,0.9880952380952381,,,,,,,,,,,,,,,,
null,,color_black,667155,,,black_plus_sign,,,,,null,,,,,,,,,,,,,,,,,,,,
null,,learn_phase(without_color),670193,,,black_plus_sign,,,,,null,US_Cities_List/cornwall.png,US_Cities_List/shreveport.png,,,,,,,,,,,,,,,,,,
null,,black_cross(without_color),671000,,,yellow,,,,,null,US_Cities_List/cornwall.png,US_Cities_List/shreveport.png,,,,,,,,,,,,,,,,,,
373.39999997615814,,rt_plussign_withcolor,671502,,,yellow,,,,,50,US_Cities_List/cornwall.png,US_Cities_List/shreveport.png,,,,,,,,,,,,,,,,,,
null,,rt_thecrossant_black,672702,,,black_plus_sign,,,,,null,,,1,0.9882352941176471,,,,,,,,,,,,,,,,
null,,color_black,672805,,,black_plus_sign,,,,,null,,,,,,,,,,,,,,,,,,,,
null,,learn_phase(without_color),675839,,,black_plus_sign,,,,,null,US_Cities_List/cornwall.png,US_Cities_List/huntsville.png,,,,,,,,,,,,,,,,,,
null,,black_cross(without_color),676715,,,blue,,,,,null,US_Cities_List/cornwall.png,US_Cities_List/huntsville.png,,,,,,,,,,,,,,,,,,
419,,rt_plussign_withcolor,677218,,,blue,,,,,49,US_Cities_List/cornwall.png,US_Cities_List/huntsville.png,,,,,,,,,,,,,,,,,,
null,,rt_thecrossant_black,678349,,,black_plus_sign,,,,,null,,,1,0.9883720930232558,,,,,,,,,,,,,,,,
null,,color_black,678452,,,black_plus_sign,,,,,null,,,,,,,,,,,,,,,,,,,,
null,,learn_phase(without_color),681479,,,black_plus_sign,,,,,null,US_Cities_List/racine.png,US_Cities_List/huntsville.png,,,,,,,,,,,,,,,,,,
null,,black_cross(without_color),681911,,,blue,,,,,null,US_Cities_List/racine.png,US_Cities_List/huntsville.png,,,,,,,,,,,,,,,,,,
494.7000000476837,,rt_plussign_withcolor,682414,,,blue,,,,,49,US_Cities_List/racine.png,US_Cities_List/huntsville.png,,,,,,,,,,,,,,,,,,
null,,rt_thecrossant_black,684004,,,black_plus_sign,,,,,null,,,1,0.9885057471264368,,,,,,,,,,,,,,,,
null,,color_black,684107,,,black_plus_sign,,,,,null,,,,,,,,,,,,,,,,,,,,
null,,learn_phase(without_color),687136,,,black_plus_sign,,,,,null,US_Cities_List/boulder.png,US_Cities_List/peoria.png,,,,,,,,,,,,,,,,,,
null,,black_cross(without_color),688102,,,yellow,,,,,null,US_Cities_List/boulder.png,US_Cities_List/peoria.png,,,,,,,,,,,,,,,,,,
null,,rt_plussign_withcolor,688605,,,yellow,,,,,null,US_Cities_List/boulder.png,US_Cities_List/peoria.png,,,,,,,,,,,,,,,,,,
605.2999999523163,,rt_thecrossant_black,689647,,,black_plus_sign,,,,,50,,,1,0.9886363636363636,,,,,,,,,,,,,,,,
null,,color_black,689751,,,black_plus_sign,,,,,null,,,,,,,,,,,,,,,,,,,,
null,,learn_phase(without_color),692779,,,black_plus_sign,,,,,null,US_Cities_List/newhope.png,US_Cities_List/shreveport.png,,,,,,,,,,,,,,,,,,
null,,black_cross(without_color),693478,,,yellow,,,,,null,US_Cities_List/newhope.png,US_Cities_List/shreveport.png,,,,,,,,,,,,,,,,,,
491.7000000476837,,rt_plussign_withcolor,693980,,,yellow,,,,,50,US_Cities_List/newhope.png,US_Cities_List/shreveport.png,,,,,,,,,,,,,,,,,,
null,,rt_thecrossant_black,695287,,,black_plus_sign,,,,,null,,,1,0.9887640449438202,,,,,,,,,,,,,,,,
null,,color_black,695391,,,black_plus_sign,,,,,null,,,,,,,,,,,,,,,,,,,,
null,,learn_phase(without_color),698420,,,black_plus_sign,,,,,null,US_Cities_List/peoria.png,US_Cities_List/racine.png,,,,,,,,,,,,,,,,,,
null,,black_cross(without_color),698958,,,blue,,,,,null,US_Cities_List/peoria.png,US_Cities_List/racine.png,,,,,,,,,,,,,,,,,,
457.5,,rt_plussign_withcolor,699460,,,blue,,,,,49,US_Cities_List/peoria.png,US_Cities_List/racine.png,,,,,,,,,,,,,,,,,,
null,,rt_thecrossant_black,700928,,,black_plus_sign,,,,,null,,,1,0.9888888888888889,,,,,,,,,,,,,,,,
null,,color_black,701031,,,black_plus_sign,,,,,null,,,,,,,,,,,,,,,,,,,,
null,,learn_phase(without_color),704062,,,black_plus_sign,,,,,null,US_Cities_List/hotsprings.png,US_Cities_List/hanover.png,,,,,,,,,,,,,,,,,,
null,,black_cross(without_color),705101,,,yellow,,,,,null,US_Cities_List/hotsprings.png,US_Cities_List/hanover.png,,,,,,,,,,,,,,,,,,
431.89999997615814,,rt_plussign_withcolor,705603,,,yellow,,,,,50,US_Cities_List/hotsprings.png,US_Cities_List/hanover.png,,,,,,,,,,,,,,,,,,
null,,rt_thecrossant_black,706570,,,black_plus_sign,,,,,null,,,1,0.989010989010989,,,,,,,,,,,,,,,,
null,,color_black,706673,,,black_plus_sign,,,,,null,,,,,,,,,,,,,,,,,,,,
null,,learn_phase(without_color),709694,,,black_plus_sign,,,,,null,US_Cities_List/huntsville.png,US_Cities_List/boulder.png,,,,,,,,,,,,,,,,,,
null,,black_cross(without_color),710295,,,yellow,,,,,null,US_Cities_List/huntsville.png,US_Cities_List/boulder.png,,,,,,,,,,,,,,,,,,
416.6999999284744,,rt_plussign_withcolor,710798,,,yellow,,,,,50,US_Cities_List/huntsville.png,US_Cities_List/boulder.png,,,,,,,,,,,,,,,,,,
null,,rt_thecrossant_black,712203,,,black_plus_sign,,,,,null,,,1,0.9891304347826086,,,,,,,,,,,,,,,,
null,,color_black,712314,,,black_plus_sign,,,,,null,,,,,,,,,,,,,,,,,,,,
null,,learn_phase(without_color),715345,,,black_plus_sign,,,,,null,US_Cities_List/racine.png,US_Cities_List/huntsville.png,,,,,,,,,,,,,,,,,,
null,,black_cross(without_color),716079,,,blue,,,,,null,US_Cities_List/racine.png,US_Cities_List/huntsville.png,,,,,,,,,,,,,,,,,,
null,,rt_plussign_withcolor,716581,,,blue,,,,,null,US_Cities_List/racine.png,US_Cities_List/huntsville.png,,,,,,,,,,,,,,,,,,
795.6999999284744,,rt_thecrossant_black,717853,,,black_plus_sign,,,,,49,,,1,0.989247311827957,,,,,,,,,,,,,,,,
null,,color_black,717955,,,black_plus_sign,,,,,null,,,,,,,,,,,,,,,,,,,,
null,,learn_phase(without_color),720987,,,black_plus_sign,,,,,null,US_Cities_List/hanover.png,US_Cities_List/hotsprings.png,,,,,,,,,,,,,,,,,,
null,,black_cross(without_color),721600,,,blue,,,,,null,US_Cities_List/hanover.png,US_Cities_List/hotsprings.png,,,,,,,,,,,,,,,,,,
null,,rt_plussign_withcolor,722103,,,blue,,,,,null,US_Cities_List/hanover.png,US_Cities_List/hotsprings.png,,,,,,,,,,,,,,,,,,
944.3999999761581,,rt_thecrossant_black,723496,,,black_plus_sign,,,,,49,,,1,0.9893617021276596,,,,,,,,,,,,,,,,
null,,color_black,723599,,,black_plus_sign,,,,,null,,,,,,,,,,,,,,,,,,,,
null,,learn_phase(without_color),726643,,,black_plus_sign,,,,,null,US_Cities_List/hanover.png,US_Cities_List/racine.png,,,,,,,,,,,,,,,,,,
null,,black_cross(without_color),727663,,,blue,,,,,null,US_Cities_List/hanover.png,US_Cities_List/racine.png,,,,,,,,,,,,,,,,,,
447.2999999523163,,rt_plussign_withcolor,728165,,,blue,,,,,49,US_Cities_List/hanover.png,US_Cities_List/racine.png,,,,,,,,,,,,,,,,,,
null,,rt_thecrossant_black,729151,,,black_plus_sign,,,,,null,,,1,0.9894736842105263,,,,,,,,,,,,,,,,
null,,color_black,729254,,,black_plus_sign,,,,,null,,,,,,,,,,,,,,,,,,,,
null,,learn_phase(without_color),732304,,,black_plus_sign,,,,,null,US_Cities_List/peoria.png,US_Cities_List/racine.png,,,,,,,,,,,,,,,,,,
null,,black_cross(without_color),733042,,,blue,,,,,null,US_Cities_List/peoria.png,US_Cities_List/racine.png,,,,,,,,,,,,,,,,,,
433,,rt_plussign_withcolor,733544,,,blue,,,,,49,US_Cities_List/peoria.png,US_Cities_List/racine.png,,,,,,,,,,,,,,,,,,
null,,rt_thecrossant_black,734812,,,black_plus_sign,,,,,null,,,1,0.9895833333333334,,,,,,,,,,,,,,,,
null,,color_black,734915,,,black_plus_sign,,,,,null,,,,,,,,,,,,,,,,,,,,
null,,learn_phase(without_color),737954,,,black_plus_sign,,,,,null,US_Cities_List/hotsprings.png,US_Cities_List/leesburg.png,,,,,,,,,,,,,,,,,,
null,,black_cross(without_color),738857,,,blue,,,,,null,US_Cities_List/hotsprings.png,US_Cities_List/leesburg.png,,,,,,,,,,,,,,,,,,
321.10000002384186,,rt_plussign_withcolor,739358,,,blue,,,,,49,US_Cities_List/hotsprings.png,US_Cities_List/leesburg.png,,,,,,,,,,,,,,,,,,
null,,rt_thecrossant_black,740462,,,black_plus_sign,,,,,null,,,1,0.9896907216494846,,,,,,,,,,,,,,,,
null,,color_black,740565,,,black_plus_sign,,,,,null,,,,,,,,,,,,,,,,,,,,
null,,learn_phase(without_color),743599,,,black_plus_sign,,,,,null,US_Cities_List/leesburg.png,US_Cities_List/hotsprings.png,,,,,,,,,,,,,,,,,,
null,,black_cross(without_color),744324,,,blue,,,,,null,US_Cities_List/leesburg.png,US_Cities_List/hotsprings.png,,,,,,,,,,,,,,,,,,
318.40000009536743,,rt_plussign_withcolor,744827,,,blue,,,,,49,US_Cities_List/leesburg.png,US_Cities_List/hotsprings.png,,,,,,,,,,,,,,,,,,
null,,rt_thecrossant_black,746123,,,black_plus_sign,,,,,null,,,1,0.9897959183673469,,,,,,,,,,,,,,,,
null,,color_black,746227,,,black_plus_sign,,,,,null,,,,,,,,,,,,,,,,,,,,
null,,learn_phase(without_color),749255,,,black_plus_sign,,,,,null,US_Cities_List/peoria.png,US_Cities_List/boulder.png,,,,,,,,,,,,,,,,,,
null,,black_cross(without_color),749807,,,yellow,,,,,null,US_Cities_List/peoria.png,US_Cities_List/boulder.png,,,,,,,,,,,,,,,,,,
433.1999999284744,,rt_plussign_withcolor,750310,,,yellow,,,,,50,US_Cities_List/peoria.png,US_Cities_List/boulder.png,,,,,,,,,,,,,,,,,,
null,,rt_thecrossant_black,751764,,,black_plus_sign,,,,,null,,,1,0.98989898989899,,,,,,,,,,,,,,,,
null,,color_black,751868,,,black_plus_sign,,,,,null,,,,,,,,,,,,,,,,,,,,
null,,learn_phase(without_color),754896,,,black_plus_sign,,,,,null,US_Cities_List/westpalmbeach.png,US_Cities_List/shreveport.png,,,,,,,,,,,,,,,,,,
null,,black_cross(without_color),755679,,,yellow,,,,,null,US_Cities_List/westpalmbeach.png,US_Cities_List/shreveport.png,,,,,,,,,,,,,,,,,,
447.5,,rt_plussign_withcolor,756182,,,yellow,,,,,50,US_Cities_List/westpalmbeach.png,US_Cities_List/shreveport.png,,,,,,,,,,,,,,,,,,
null,,rt_thecrossant_black,757404,,,black_plus_sign,,,,,null,,,1,0.99,,,,,,,,,,,,,,,,
null,,color_black,757507,,,black_plus_sign,,,,,null,,,,,,,,,,,,,,,,,,,,
null,,learn_phase(without_color),760547,,,black_plus_sign,,,,,null,US_Cities_List/huntsville.png,US_Cities_List/cornwall.png,,,,,,,,,,,,,,,,,,
null,,black_cross(without_color),761083,,,yellow,,,,,null,US_Cities_List/huntsville.png,US_Cities_List/cornwall.png,,,,,,,,,,,,,,,,,,
429.09999990463257,,rt_plussign_withcolor,761585,,,yellow,,,,,50,US_Cities_List/huntsville.png,US_Cities_List/cornwall.png,,,,,,,,,,,,,,,,,,
null,,rt_thecrossant_black,763054,,,black_plus_sign,,,,,null,,,1,0.9900990099009901,,,,,,,,,,,,,,,,
null,,color_black,763157,,,black_plus_sign,,,,,null,,,,,,,,,,,,,,,,,,,,
null,,learn_phase(without_color),766189,,,black_plus_sign,,,,,null,US_Cities_List/westpalmbeach.png,US_Cities_List/boulder.png,,,,,,,,,,,,,,,,,,
null,,black_cross(without_color),766896,,,blue,,,,,null,US_Cities_List/westpalmbeach.png,US_Cities_List/boulder.png,,,,,,,,,,,,,,,,,,
441.89999997615814,,rt_plussign_withcolor,767398,,,blue,,,,,49,US_Cities_List/westpalmbeach.png,US_Cities_List/boulder.png,,,,,,,,,,,,,,,,,,
null,,rt_thecrossant_black,768699,,,black_plus_sign,,,,,null,,,1,0.9901960784313726,,,,,,,,,,,,,,,,
null,,color_black,768801,,,black_plus_sign,,,,,null,,,,,,,,,,,,,,,,,,,,
null,,learn_phase(without_color),771830,,,black_plus_sign,,,,,null,US_Cities_List/peoria.png,US_Cities_List/hanover.png,,,,,,,,,,,,,,,,,,
null,,black_cross(without_color),772756,,,yellow,,,,,null,US_Cities_List/peoria.png,US_Cities_List/hanover.png,,,,,,,,,,,,,,,,,,
null,,rt_plussign_withcolor,773260,,,yellow,,,,,null,US_Cities_List/peoria.png,US_Cities_List/hanover.png,,,,,,,,,,,,,,,,,,
1045.0999999046326,,rt_thecrossant_black,774340,,,black_plus_sign,,,,,50,,,1,0.9902912621359223,,,,,,,,,,,,,,,,
null,,color_black,774443,,,black_plus_sign,,,,,null,,,,,,,,,,,,,,,,,,,,
null,,learn_phase(without_color),777479,,,black_plus_sign,,,,,null,US_Cities_List/shreveport.png,US_Cities_List/cornwall.png,,,,,,,,,,,,,,,,,,
null,,black_cross(without_color),778457,,,blue,,,,,null,US_Cities_List/shreveport.png,US_Cities_List/cornwall.png,,,,,,,,,,,,,,,,,,
457.39999997615814,,rt_plussign_withcolor,778959,,,blue,,,,,49,US_Cities_List/shreveport.png,US_Cities_List/cornwall.png,,,,,,,,,,,,,,,,,,
null,,rt_thecrossant_black,779988,,,black_plus_sign,,,,,null,,,1,0.9903846153846154,,,,,,,,,,,,,,,,
null,,color_black,780091,,,black_plus_sign,,,,,null,,,,,,,,,,,,,,,,,,,,
null,,learn_phase(without_color),783119,,,black_plus_sign,,,,,null,US_Cities_List/racine.png,US_Cities_List/hanover.png,,,,,,,,,,,,,,,,,,
null,,black_cross(without_color),783812,,,blue,,,,,null,US_Cities_List/racine.png,US_Cities_List/hanover.png,,,,,,,,,,,,,,,,,,
null,,rt_plussign_withcolor,784313,,,blue,,,,,null,US_Cities_List/racine.png,US_Cities_List/hanover.png,,,,,,,,,,,,,,,,,,
1208.1000000238419,,rt_thecrossant_black,785627,,,black_plus_sign,,,,,49,,,1,0.9904761904761905,,,,,,,,,,,,,,,,
null,,color_black,785730,,,black_plus_sign,,,,,null,,,,,,,,,,,,,,,,,,,,
null,,learn_phase(without_color),788767,,,black_plus_sign,,,,,null,US_Cities_List/shreveport.png,US_Cities_List/westpalmbeach.png,,,,,,,,,,,,,,,,,,
null,,black_cross(without_color),789722,,,blue,,,,,null,US_Cities_List/shreveport.png,US_Cities_List/westpalmbeach.png,,,,,,,,,,,,,,,,,,
423.60000002384186,,rt_plussign_withcolor,790225,,,blue,,,,,49,US_Cities_List/shreveport.png,US_Cities_List/westpalmbeach.png,,,,,,,,,,,,,,,,,,
null,,rt_thecrossant_black,791275,,,black_plus_sign,,,,,null,,,1,0.9905660377358491,,,,,,,,,,,,,,,,
null,,color_black,791379,,,black_plus_sign,,,,,null,,,,,,,,,,,,,,,,,,,,
null,,learn_phase(without_color),794416,,,black_plus_sign,,,,,null,US_Cities_List/westpalmbeach.png,US_Cities_List/shreveport.png,,,,,,,,,,,,,,,,,,
null,,black_cross(without_color),794864,,,yellow,,,,,null,US_Cities_List/westpalmbeach.png,US_Cities_List/shreveport.png,,,,,,,,,,,,,,,,,,
null,,rt_plussign_withcolor,795367,,,yellow,,,,,null,US_Cities_List/westpalmbeach.png,US_Cities_List/shreveport.png,,,,,,,,,,,,,,,,,,
1208.5,,rt_thecrossant_black,796927,,,black_plus_sign,,,,,50,,,1,0.9906542056074766,,,,,,,,,,,,,,,,
null,,color_black,797030,,,black_plus_sign,,,,,null,,,,,,,,,,,,,,,,,,,,
null,,learn_phase(without_color),800057,,,black_plus_sign,,,,,null,US_Cities_List/racine.png,US_Cities_List/hanover.png,,,,,,,,,,,,,,,,,,
null,,black_cross(without_color),800929,,,blue,,,,,null,US_Cities_List/racine.png,US_Cities_List/hanover.png,,,,,,,,,,,,,,,,,,
417.10000002384186,,rt_plussign_withcolor,801432,,,blue,,,,,49,US_Cities_List/racine.png,US_Cities_List/hanover.png,,,,,,,,,,,,,,,,,,
null,,rt_thecrossant_black,802567,,,black_plus_sign,,,,,null,,,1,0.9907407407407407,,,,,,,,,,,,,,,,
null,,color_black,802670,,,black_plus_sign,,,,,null,,,,,,,,,,,,,,,,,,,,
null,,learn_phase(without_color),805699,,,black_plus_sign,,,,,null,US_Cities_List/shreveport.png,US_Cities_List/newhope.png,,,,,,,,,,,,,,,,,,
null,,black_cross(without_color),806200,,,yellow,,,,,null,US_Cities_List/shreveport.png,US_Cities_List/newhope.png,,,,,,,,,,,,,,,,,,
410.89999997615814,,rt_plussign_withcolor,806703,,,yellow,,,,,50,US_Cities_List/shreveport.png,US_Cities_List/newhope.png,,,,,,,,,,,,,,,,,,
null,,rt_thecrossant_black,808209,,,black_plus_sign,,,,,null,,,1,0.9908256880733946,,,,,,,,,,,,,,,,
null,,color_black,808313,,,black_plus_sign,,,,,null,,,,,,,,,,,,,,,,,,,,
null,,learn_phase(without_color),811339,,,black_plus_sign,,,,,null,US_Cities_List/peoria.png,US_Cities_List/boulder.png,,,,,,,,,,,,,,,,,,
null,,black_cross(without_color),811771,,,yellow,,,,,null,US_Cities_List/peoria.png,US_Cities_List/boulder.png,,,,,,,,,,,,,,,,,,
466.6999999284744,,rt_plussign_withcolor,812274,,,yellow,,,,,50,US_Cities_List/peoria.png,US_Cities_List/boulder.png,,,,,,,,,,,,,,,,,,
null,,rt_thecrossant_black,813847,,,black_plus_sign,,,,,null,,,1,0.990909090909091,,,,,,,,,,,,,,,,
null,,color_black,813951,,,black_plus_sign,,,,,null,,,,,,,,,,,,,,,,,,,,
null,,learn_phase(without_color),816982,,,black_plus_sign,,,,,null,US_Cities_List/hotsprings.png,US_Cities_List/leesburg.png,,,,,,,,,,,,,,,,,,
null,,black_cross(without_color),817606,,,blue,,,,,null,US_Cities_List/hotsprings.png,US_Cities_List/leesburg.png,,,,,,,,,,,,,,,,,,
null,,rt_plussign_withcolor,818109,,,blue,,,,,null,US_Cities_List/hotsprings.png,US_Cities_List/leesburg.png,,,,,,,,,,,,,,,,,,
578.2999999523163,,rt_thecrossant_black,819491,,,black_plus_sign,,,,,49,,,1,0.990990990990991,,,,,,,,,,,,,,,,
null,,color_black,819595,,,black_plus_sign,,,,,null,,,,,,,,,,,,,,,,,,,,
null,,learn_phase(without_color),822617,,,black_plus_sign,,,,,null,US_Cities_List/boulder.png,US_Cities_List/huntsville.png,,,,,,,,,,,,,,,,,,
null,,black_cross(without_color),823629,,,yellow,,,,,null,US_Cities_List/boulder.png,US_Cities_List/huntsville.png,,,,,,,,,,,,,,,,,,
428.89999997615814,,rt_plussign_withcolor,824131,,,yellow,,,,,50,US_Cities_List/boulder.png,US_Cities_List/huntsville.png,,,,,,,,,,,,,,,,,,
null,,rt_thecrossant_black,825139,,,black_plus_sign,,,,,null,,,1,0.9910714285714286,,,,,,,,,,,,,,,,
null,,color_black,825241,,,black_plus_sign,,,,,null,,,,,,,,,,,,,,,,,,,,
null,,learn_phase(without_color),828273,,,black_plus_sign,,,,,null,US_Cities_List/leesburg.png,US_Cities_List/hotsprings.png,,,,,,,,,,,,,,,,,,
null,,black_cross(without_color),829071,,,blue,,,,,null,US_Cities_List/leesburg.png,US_Cities_List/hotsprings.png,,,,,,,,,,,,,,,,,,
395.2000000476837,,rt_plussign_withcolor,829573,,,blue,,,,,49,US_Cities_List/leesburg.png,US_Cities_List/hotsprings.png,,,,,,,,,,,,,,,,,,
null,,rt_thecrossant_black,830783,,,black_plus_sign,,,,,null,,,1,0.9911504424778761,,,,,,,,,,,,,,,,
null,,color_black,830886,,,black_plus_sign,,,,,null,,,,,,,,,,,,,,,,,,,,
null,,learn_phase(without_color),833918,,,black_plus_sign,,,,,null,US_Cities_List/huntsville.png,US_Cities_List/racine.png,,,,,,,,,,,,,,,,,,
null,,black_cross(without_color),834961,,,blue,,,,,null,US_Cities_List/huntsville.png,US_Cities_List/racine.png,,,,,,,,,,,,,,,,,,
null,,rt_plussign_withcolor,835464,,,blue,,,,,null,US_Cities_List/huntsville.png,US_Cities_List/racine.png,,,,,,,,,,,,,,,,,,
960,,rt_thecrossant_black,836427,,,black_plus_sign,,,,,49,,,1,0.9912280701754386,,,,,,,,,,,,,,,,
null,,color_black,836530,,,black_plus_sign,,,,,null,,,,,,,,,,,,,,,,,,,,
null,,learn_phase(without_color),839570,,,black_plus_sign,,,,,null,US_Cities_List/hotsprings.png,US_Cities_List/racine.png,,,,,,,,,,,,,,,,,,
null,,black_cross(without_color),840436,,,blue,,,,,null,US_Cities_List/hotsprings.png,US_Cities_List/racine.png,,,,,,,,,,,,,,,,,,
null,,rt_plussign_withcolor,840938,,,blue,,,,,null,US_Cities_List/hotsprings.png,US_Cities_List/racine.png,,,,,,,,,,,,,,,,,,
1190.3999999761581,,rt_thecrossant_black,842078,,,black_plus_sign,,,,,49,,,1,0.991304347826087,,,,,,,,,,,,,,,,
null,,color_black,842181,,,black_plus_sign,,,,,null,,,,,,,,,,,,,,,,,,,,
null,,learn_phase(without_color),845209,,,black_plus_sign,,,,,null,US_Cities_List/westpalmbeach.png,US_Cities_List/carmel.png,,,,,,,,,,,,,,,,,,
null,,black_cross(without_color),846304,,,yellow,,,,,null,US_Cities_List/westpalmbeach.png,US_Cities_List/carmel.png,,,,,,,,,,,,,,,,,,
406,,rt_plussign_withcolor,846807,,,yellow,,,,,50,US_Cities_List/westpalmbeach.png,US_Cities_List/carmel.png,,,,,,,,,,,,,,,,,,
null,,rt_thecrossant_black,847718,,,black_plus_sign,,,,,null,,,1,0.9913793103448276,,,,,,,,,,,,,,,,
null,,color_black,847821,,,black_plus_sign,,,,,null,,,,,,,,,,,,,,,,,,,,
null,,learn_phase(without_color),850840,,,black_plus_sign,,,,,null,US_Cities_List/hanover.png,US_Cities_List/peoria.png,,,,,,,,,,,,,,,,,,
null,,black_cross(without_color),851493,,,blue,,,,,null,US_Cities_List/hanover.png,US_Cities_List/peoria.png,,,,,,,,,,,,,,,,,,
439.60000002384186,,rt_plussign_withcolor,851995,,,blue,,,,,49,US_Cities_List/hanover.png,US_Cities_List/peoria.png,,,,,,,,,,,,,,,,,,
null,,rt_thecrossant_black,853348,,,black_plus_sign,,,,,null,,,1,0.9914529914529915,,,,,,,,,,,,,,,,
null,,color_black,853451,,,black_plus_sign,,,,,null,,,,,,,,,,,,,,,,,,,,
null,,learn_phase(without_color),856482,,,black_plus_sign,,,,,null,US_Cities_List/shreveport.png,US_Cities_List/newhope.png,,,,,,,,,,,,,,,,,,
null,,black_cross(without_color),857069,,,blue,,,,,null,US_Cities_List/shreveport.png,US_Cities_List/newhope.png,,,,,,,,,,,,,,,,,,
null,,rt_plussign_withcolor,857571,,,blue,,,,,null,US_Cities_List/shreveport.png,US_Cities_List/newhope.png,,,,,,,,,,,,,,,,,,
807.2000000476837,,rt_thecrossant_black,858990,,,black_plus_sign,,,,,49,,,1,0.9915254237288136,,,,,,,,,,,,,,,,
null,,color_black,859094,,,black_plus_sign,,,,,null,,,,,,,,,,,,,,,,,,,,
null,,learn_phase(without_color),862128,,,black_plus_sign,,,,,null,US_Cities_List/huntsville.png,US_Cities_List/cornwall.png,,,,,,,,,,,,,,,,,,
null,,black_cross(without_color),862553,,,yellow,,,,,null,US_Cities_List/huntsville.png,US_Cities_List/cornwall.png,,,,,,,,,,,,,,,,,,
401.5,,rt_plussign_withcolor,863055,,,yellow,,,,,50,US_Cities_List/huntsville.png,US_Cities_List/cornwall.png,,,,,,,,,,,,,,,,,,
null,,rt_thecrossant_black,864637,,,black_plus_sign,,,,,null,,,1,0.9915966386554622,,,,,,,,,,,,,,,,
null,,color_black,864739,,,black_plus_sign,,,,,null,,,,,,,,,,,,,,,,,,,,
null,,learn_phase(without_color),867773,,,black_plus_sign,,,,,null,US_Cities_List/carmel.png,US_Cities_List/westpalmbeach.png,,,,,,,,,,,,,,,,,,
null,,black_cross(without_color),868720,,,blue,,,,,null,US_Cities_List/carmel.png,US_Cities_List/westpalmbeach.png,,,,,,,,,,,,,,,,,,
450.2999999523163,,rt_plussign_withcolor,869222,,,blue,,,,,49,US_Cities_List/carmel.png,US_Cities_List/westpalmbeach.png,,,,,,,,,,,,,,,,,,
null,,rt_thecrossant_black,870281,,,black_plus_sign,,,,,null,,,1,0.9916666666666667,,,,,,,,,,,,,,,,
null,,color_black,870384,,,black_plus_sign,,,,,null,,,,,,,,,,,,,,,,,,,,
null,,learn_phase(without_color),873412,,,black_plus_sign,,,,,null,US_Cities_List/hanover.png,US_Cities_List/gatlinburg.png,,,,,,,,,,,,,,,,,,
null,,black_cross(without_color),874381,,,blue,,,,,null,US_Cities_List/hanover.png,US_Cities_List/gatlinburg.png,,,,,,,,,,,,,,,,,,
417.7999999523163,,rt_plussign_withcolor,874884,,,blue,,,,,49,US_Cities_List/hanover.png,US_Cities_List/gatlinburg.png,,,,,,,,,,,,,,,,,,
null,,rt_thecrossant_black,875921,,,black_plus_sign,,,,,null,,,1,0.9917355371900827,,,,,,,,,,,,,,,,
null,,color_black,876036,,,black_plus_sign,,,,,null,,,,,,,,,,,,,,,,,,,,
null,,learn_phase(without_color),879071,,,black_plus_sign,,,,,null,US_Cities_List/hanover.png,US_Cities_List/racine.png,,,,,,,,,,,,,,,,,,
null,,black_cross(without_color),879984,,,yellow,,,,,null,US_Cities_List/hanover.png,US_Cities_List/racine.png,,,,,,,,,,,,,,,,,,
476.7999999523163,,rt_plussign_withcolor,880486,,,yellow,,,,,50,US_Cities_List/hanover.png,US_Cities_List/racine.png,,,,,,,,,,,,,,,,,,
null,,rt_thecrossant_black,881579,,,black_plus_sign,,,,,null,,,1,0.9918032786885246,,,,,,,,,,,,,,,,
null,,color_black,881682,,,black_plus_sign,,,,,null,,,,,,,,,,,,,,,,,,,,
null,,learn_phase(without_color),884717,,,black_plus_sign,,,,,null,US_Cities_List/hanover.png,US_Cities_List/gatlinburg.png,,,,,,,,,,,,,,,,,,
null,,black_cross(without_color),885216,,,yellow,,,,,null,US_Cities_List/hanover.png,US_Cities_List/gatlinburg.png,,,,,,,,,,,,,,,,,,
501.10000002384186,,rt_plussign_withcolor,885721,,,yellow,,,,,50,US_Cities_List/hanover.png,US_Cities_List/gatlinburg.png,,,,,,,,,,,,,,,,,,
null,,rt_thecrossant_black,887230,,,black_plus_sign,,,,,null,,,1,0.991869918699187,,,,,,,,,,,,,,,,
null,,color_black,887333,,,black_plus_sign,,,,,null,,,,,,,,,,,,,,,,,,,,
null,,learn_phase(without_color),890362,,,black_plus_sign,,,,,null,US_Cities_List/huntsville.png,US_Cities_List/racine.png,,,,,,,,,,,,,,,,,,
null,,black_cross(without_color),891377,,,blue,,,,,null,US_Cities_List/huntsville.png,US_Cities_List/racine.png,,,,,,,,,,,,,,,,,,
395.7000000476837,,rt_plussign_withcolor,891886,,,blue,,,,,49,US_Cities_List/huntsville.png,US_Cities_List/racine.png,,,,,,,,,,,,,,,,,,
null,,rt_thecrossant_black,892877,,,black_plus_sign,,,,,null,,,1,0.9919354838709677,,,,,,,,,,,,,,,,
null,,color_black,892980,,,black_plus_sign,,,,,null,,,,,,,,,,,,,,,,,,,,
null,,learn_phase(without_color),896027,,,black_plus_sign,,,,,null,US_Cities_List/shreveport.png,US_Cities_List/cornwall.png,,,,,,,,,,,,,,,,,,
null,,black_cross(without_color),896701,,,yellow,,,,,null,US_Cities_List/shreveport.png,US_Cities_List/cornwall.png,,,,,,,,,,,,,,,,,,
429.89999997615814,,rt_plussign_withcolor,897203,,,yellow,,,,,50,US_Cities_List/shreveport.png,US_Cities_List/cornwall.png,,,,,,,,,,,,,,,,,,
null,,rt_thecrossant_black,898537,,,black_plus_sign,,,,,null,,,1,0.992,,,,,,,,,,,,,,,,
null,,color_black,898641,,,black_plus_sign,,,,,null,,,,,,,,,,,,,,,,,,,,
null,,learn_phase(without_color),901670,,,black_plus_sign,,,,,null,US_Cities_List/boulder.png,US_Cities_List/peoria.png,,,,,,,,,,,,,,,,,,
null,,black_cross(without_color),902197,,,blue,,,,,null,US_Cities_List/boulder.png,US_Cities_List/peoria.png,,,,,,,,,,,,,,,,,,
null,,rt_plussign_withcolor,902700,,,blue,,,,,null,US_Cities_List/boulder.png,US_Cities_List/peoria.png,,,,,,,,,,,,,,,,,,
842.6999999284744,,rt_thecrossant_black,904180,,,black_plus_sign,,,,,49,,,1,0.9920634920634921,,,,,,,,,,,,,,,,
null,,color_black,904283,,,black_plus_sign,,,,,null,,,,,,,,,,,,,,,,,,,,
null,,learn_phase(without_color),907308,,,black_plus_sign,,,,,null,US_Cities_List/racine.png,US_Cities_List/huntsville.png,,,,,,,,,,,,,,,,,,
null,,black_cross(without_color),908122,,,blue,,,,,null,US_Cities_List/racine.png,US_Cities_List/huntsville.png,,,,,,,,,,,,,,,,,,
null,,rt_plussign_withcolor,908626,,,blue,,,,,null,US_Cities_List/racine.png,US_Cities_List/huntsville.png,,,,,,,,,,,,,,,,,,
776.7000000476837,,rt_thecrossant_black,909835,,,black_plus_sign,,,,,49,,,1,0.9921259842519685,,,,,,,,,,,,,,,,
null,,color_black,909938,,,black_plus_sign,,,,,null,,,,,,,,,,,,,,,,,,,,
null,,learn_phase(without_color),912973,,,black_plus_sign,,,,,null,US_Cities_List/peoria.png,US_Cities_List/racine.png,,,,,,,,,,,,,,,,,,
null,,black_cross(without_color),914063,,,blue,,,,,null,US_Cities_List/peoria.png,US_Cities_List/racine.png,,,,,,,,,,,,,,,,,,
477.3000000715256,,rt_plussign_withcolor,914566,,,blue,,,,,49,US_Cities_List/peoria.png,US_Cities_List/racine.png,,,,,,,,,,,,,,,,,,
null,,rt_thecrossant_black,915482,,,black_plus_sign,,,,,null,,,1,0.9921875,,,,,,,,,,,,,,,,
null,,color_black,915587,,,black_plus_sign,,,,,null,,,,,,,,,,,,,,,,,,,,
26773.100000023842,,learn_break,942363,,,learn_break,,,,,32,,,,,,,,,,,,,,,,,,,,
5232.799999952316,,intro_1,947598,,,instruct,,,0,,,,,,,,,,,,,,,,,,,,,,
8147.699999928474,,intro_2,955748,,,instruct,,,1,Next,,,,,,,,,,,,,,,,,,,,,
3930.399999976158,,directmemory_phase,959722,,,../static/images/US_Cities_List/westpalmbeach.png,,,,,50,,,1,1,../static/images/US_Cities_List/cornwall.png,../static/images/US_Cities_List/shreveport.png,../static/images/US_Cities_List/gatlinburg.png,../static/images/US_Cities_List/shreveport.png,../static/images/US_Cities_List/cornwall.png,../static/images/US_Cities_List/gatlinburg.png,1,,,,,,,,,
null,,html-keyboard-response,960731,,,<p></p>,,,,,null,,,,,,,,,,,,,,,,,,,,
2464.399999976158,,directmemory_phase,963237,,,../static/images/US_Cities_List/hotsprings.png,,,,,51,,,1,1,../static/images/US_Cities_List/shreveport.png,../static/images/US_Cities_List/peoria.png,../static/images/US_Cities_List/hanover.png,../static/images/US_Cities_List/hanover.png,../static/images/US_Cities_List/peoria.png,../static/images/US_Cities_List/shreveport.png,1,,,,,,,,,
null,,html-keyboard-response,964245,,,<p></p>,,,,,null,,,,,,,,,,,,,,,,,,,,
1442.6999999284744,,directmemory_phase,965727,,,../static/images/US_Cities_List/racine.png,,,,,50,,,1,1,../static/images/US_Cities_List/boulder.png,../static/images/US_Cities_List/peoria.png,../static/images/US_Cities_List/shreveport.png,../static/images/US_Cities_List/peoria.png,../static/images/US_Cities_List/boulder.png,../static/images/US_Cities_List/shreveport.png,1,,,,,,,,,
null,,html-keyboard-response,966738,,,<p></p>,,,,,null,,,,,,,,,,,,,,,,,,,,
3614.5999999046326,,directmemory_phase,970395,,,../static/images/US_Cities_List/boulder.png,,,,,50,,,0,0.75,../static/images/US_Cities_List/westpalmbeach.png,../static/images/US_Cities_List/newhope.png,../static/images/US_Cities_List/carmel.png,../static/images/US_Cities_List/westpalmbeach.png,../static/images/US_Cities_List/carmel.png,../static/images/US_Cities_List/newhope.png,0.5,closer,,,,,,,,
null,,html-keyboard-response,971403,,,<p></p>,,,,,null,,,,,,,,,,,,,,,,,,,,
1289.6000000238419,,directmemory_phase,972740,,,../static/images/US_Cities_List/racine.png,,,,,49,,,1,0.8,../static/images/US_Cities_List/hanover.png,../static/images/US_Cities_List/newhope.png,../static/images/US_Cities_List/boulder.png,../static/images/US_Cities_List/hanover.png,../static/images/US_Cities_List/boulder.png,../static/images/US_Cities_List/newhope.png,1,,,,,,,,,
null,,html-keyboard-response,973748,,,<p></p>,,,,,null,,,,,,,,,,,,,,,,,,,,
3383,,directmemory_phase,977177,,,../static/images/US_Cities_List/boulder.png,,,,,49,,,1,0.8333333333333334,../static/images/US_Cities_List/peoria.png,../static/images/US_Cities_List/hotsprings.png,../static/images/US_Cities_List/racine.png,../static/images/US_Cities_List/peoria.png,../static/images/US_Cities_List/racine.png,../static/images/US_Cities_List/hotsprings.png,1,,,,,,,,,
null,,html-keyboard-response,978185,,,<p></p>,,,,,null,,,,,,,,,,,,,,,,,,,,
1567.7000000476837,,directmemory_phase,979806,,,../static/images/US_Cities_List/hanover.png,,,,,51,,,1,0.8571428571428571,../static/images/US_Cities_List/cornwall.png,../static/images/US_Cities_List/boulder.png,../static/images/US_Cities_List/racine.png,../static/images/US_Cities_List/racine.png,../static/images/US_Cities_List/boulder.png,../static/images/US_Cities_List/cornwall.png,1,,,,,,,,,
null,,html-keyboard-response,980817,,,<p></p>,,,,,null,,,,,,,,,,,,,,,,,,,,
1147,,directmemory_phase,982010,,,../static/images/US_Cities_List/shreveport.png,,,,,51,,,1,0.875,../static/images/US_Cities_List/racine.png,../static/images/US_Cities_List/huntsville.png,../static/images/US_Cities_List/cornwall.png,../static/images/US_Cities_List/cornwall.png,../static/images/US_Cities_List/huntsville.png,../static/images/US_Cities_List/racine.png,1,,,,,,,,,
null,,html-keyboard-response,983017,,,<p></p>,,,,,null,,,,,,,,,,,,,,,,,,,,
961.2000000476837,,directmemory_phase,984022,,,../static/images/US_Cities_List/hanover.png,,,,,50,,,1,0.8888888888888888,../static/images/US_Cities_List/boulder.png,../static/images/US_Cities_List/hotsprings.png,../static/images/US_Cities_List/westpalmbeach.png,../static/images/US_Cities_List/hotsprings.png,../static/images/US_Cities_List/boulder.png,../static/images/US_Cities_List/westpalmbeach.png,1,,,,,,,,,
null,,html-keyboard-response,985030,,,<p></p>,,,,,null,,,,,,,,,,,,,,,,,,,,
1216.2000000476837,,directmemory_phase,986295,,,../static/images/US_Cities_List/cornwall.png,,,,,49,,,1,0.9,../static/images/US_Cities_List/shreveport.png,../static/images/US_Cities_List/hanover.png,../static/images/US_Cities_List/newhope.png,../static/images/US_Cities_List/shreveport.png,../static/images/US_Cities_List/newhope.png,../static/images/US_Cities_List/hanover.png,1,,,,,,,,,
null,,html-keyboard-response,987304,,,<p></p>,,,,,null,,,,,,,,,,,,,,,,,,,,
1425.7000000476837,,directmemory_phase,988783,,,../static/images/US_Cities_List/westpalmbeach.png,,,,,51,,,1,0.9090909090909091,../static/images/US_Cities_List/hotsprings.png,../static/images/US_Cities_List/newhope.png,../static/images/US_Cities_List/carmel.png,../static/images/US_Cities_List/carmel.png,../static/images/US_Cities_List/newhope.png,../static/images/US_Cities_List/hotsprings.png,1,,,,,,,,,
null,,html-keyboard-response,989791,,,<p></p>,,,,,null,,,,,,,,,,,,,,,,,,,,
1045.2000000476837,,directmemory_phase,990883,,,../static/images/US_Cities_List/newhope.png,,,,,51,,,1,0.9166666666666666,../static/images/US_Cities_List/carmel.png,../static/images/US_Cities_List/cornwall.png,../static/images/US_Cities_List/shreveport.png,../static/images/US_Cities_List/shreveport.png,../static/images/US_Cities_List/cornwall.png,../static/images/US_Cities_List/carmel.png,1,,,,,,,,,
null,,html-keyboard-response,991893,,,<p></p>,,,,,null,,,,,,,,,,,,,,,,,,,,
2678,,directmemory_phase,994618,,,../static/images/US_Cities_List/cornwall.png,,,,,51,,,1,0.9230769230769231,../static/images/US_Cities_List/peoria.png,../static/images/US_Cities_List/boulder.png,../static/images/US_Cities_List/huntsville.png,../static/images/US_Cities_List/huntsville.png,../static/images/US_Cities_List/boulder.png,../static/images/US_Cities_List/peoria.png,1,,,,,,,,,
null,,html-keyboard-response,995628,,,<p></p>,,,,,null,,,,,,,,,,,,,,,,,,,,
3527.899999976158,,directmemory_phase,999197,,,../static/images/US_Cities_List/shreveport.png,,,,,51,,,1,0.9285714285714286,../static/images/US_Cities_List/racine.png,../static/images/US_Cities_List/boulder.png,../static/images/US_Cities_List/westpalmbeach.png,../static/images/US_Cities_List/westpalmbeach.png,../static/images/US_Cities_List/boulder.png,../static/images/US_Cities_List/racine.png,1,,,,,,,,,
null,,html-keyboard-response,1000207,,,<p></p>,,,,,null,,,,,,,,,,,,,,,,,,,,
1074,,directmemory_phase,1001333,,,../static/images/US_Cities_List/racine.png,,,,,49,,,1,0.9333333333333333,../static/images/US_Cities_List/hotsprings.png,../static/images/US_Cities_List/shreveport.png,../static/images/US_Cities_List/cornwall.png,../static/images/US_Cities_List/hotsprings.png,../static/images/US_Cities_List/cornwall.png,../static/images/US_Cities_List/shreveport.png,1,,,,,,,,,
null,,html-keyboard-response,1002342,,,<p></p>,,,,,null,,,,,,,,,,,,,,,,,,,,
1612.7000000476837,,directmemory_phase,1003999,,,../static/images/US_Cities_List/peoria.png,,,,,49,,,0,0.875,../static/images/US_Cities_List/hotsprings.png,../static/images/US_Cities_List/hanover.png,../static/images/US_Cities_List/newhope.png,../static/images/US_Cities_List/hanover.png,../static/images/US_Cities_List/hotsprings.png,../static/images/US_Cities_List/newhope.png,0.5,closer,,,,,,,,
null,,html-keyboard-response,1005007,,,<p></p>,,,,,null,,,,,,,,,,,,,,,,,,,,
2427.8000000715256,,directmemory_phase,1007480,,,../static/images/US_Cities_List/huntsville.png,,,,,49,,,1,0.8823529411764706,../static/images/US_Cities_List/racine.png,../static/images/US_Cities_List/newhope.png,../static/images/US_Cities_List/hotsprings.png,../static/images/US_Cities_List/racine.png,../static/images/US_Cities_List/hotsprings.png,../static/images/US_Cities_List/newhope.png,1,,,,,,,,,
null,,html-keyboard-response,1008488,,,<p></p>,,,,,null,,,,,,,,,,,,,,,,,,,,
2243.100000023842,,directmemory_phase,1010774,,,../static/images/US_Cities_List/hotsprings.png,,,,,51,,,1,0.8888888888888888,../static/images/US_Cities_List/boulder.png,../static/images/US_Cities_List/gatlinburg.png,../static/images/US_Cities_List/leesburg.png,../static/images/US_Cities_List/leesburg.png,../static/images/US_Cities_List/gatlinburg.png,../static/images/US_Cities_List/boulder.png,1,,,,,,,,,
null,,html-keyboard-response,1011784,,,<p></p>,,,,,null,,,,,,,,,,,,,,,,,,,,
2067.100000023842,,directmemory_phase,1013897,,,../static/images/US_Cities_List/huntsville.png,,,,,51,,,1,0.8947368421052632,../static/images/US_Cities_List/carmel.png,../static/images/US_Cities_List/peoria.png,../static/images/US_Cities_List/cornwall.png,../static/images/US_Cities_List/cornwall.png,../static/images/US_Cities_List/peoria.png,../static/images/US_Cities_List/carmel.png,1,,,,,,,,,
null,,html-keyboard-response,1014904,,,<p></p>,,,,,null,,,,,,,,,,,,,,,,,,,,
1019,,directmemory_phase,1015966,,,../static/images/US_Cities_List/hanover.png,,,,,49,,,1,0.9,../static/images/US_Cities_List/gatlinburg.png,../static/images/US_Cities_List/westpalmbeach.png,../static/images/US_Cities_List/boulder.png,../static/images/US_Cities_List/gatlinburg.png,../static/images/US_Cities_List/boulder.png,../static/images/US_Cities_List/westpalmbeach.png,1,,,,,,,,,
null,,html-keyboard-response,1016973,,,<p></p>,,,,,null,,,,,,,,,,,,,,,,,,,,
3613.100000023842,,directmemory_phase,1020634,,,../static/images/US_Cities_List/westpalmbeach.png,,,,,51,,,0,0.8571428571428571,../static/images/US_Cities_List/boulder.png,../static/images/US_Cities_List/hanover.png,../static/images/US_Cities_List/newhope.png,../static/images/US_Cities_List/boulder.png,../static/images/US_Cities_List/newhope.png,../static/images/US_Cities_List/hanover.png,0.5,closer,,,,,,,,
null,,html-keyboard-response,1021643,,,<p></p>,,,,,null,,,,,,,,,,,,,,,,,,,,
2513.8000000715256,,directmemory_phase,1024197,,,../static/images/US_Cities_List/racine.png,,,,,49,,,1,0.8636363636363636,../static/images/US_Cities_List/huntsville.png,../static/images/US_Cities_List/westpalmbeach.png,../static/images/US_Cities_List/cornwall.png,../static/images/US_Cities_List/huntsville.png,../static/images/US_Cities_List/cornwall.png,../static/images/US_Cities_List/westpalmbeach.png,1,,,,,,,,,
null,,html-keyboard-response,1025207,,,<p></p>,,,,,null,,,,,,,,,,,,,,,,,,,,
2591.600000023842,,directmemory_phase,1027837,,,../static/images/US_Cities_List/hanover.png,,,,,50,,,1,0.8695652173913043,../static/images/US_Cities_List/boulder.png,../static/images/US_Cities_List/peoria.png,../static/images/US_Cities_List/carmel.png,../static/images/US_Cities_List/peoria.png,../static/images/US_Cities_List/boulder.png,../static/images/US_Cities_List/carmel.png,1,,,,,,,,,
null,,html-keyboard-response,1028845,,,<p></p>,,,,,null,,,,,,,,,,,,,,,,,,,,
2608.7999999523163,,directmemory_phase,1031495,,,../static/images/US_Cities_List/huntsville.png,,,,,49,,,1,0.875,../static/images/US_Cities_List/boulder.png,../static/images/US_Cities_List/gatlinburg.png,../static/images/US_Cities_List/westpalmbeach.png,../static/images/US_Cities_List/boulder.png,../static/images/US_Cities_List/westpalmbeach.png,../static/images/US_Cities_List/gatlinburg.png,1,,,,,,,,,
null,,html-keyboard-response,1032504,,,<p></p>,,,,,null,,,,,,,,,,,,,,,,,,,,
2099.899999976158,,directmemory_phase,1034656,,,../static/images/US_Cities_List/hotsprings.png,,,,,51,,,1,0.88,../static/images/US_Cities_List/cornwall.png,../static/images/US_Cities_List/huntsville.png,../static/images/US_Cities_List/racine.png,../static/images/US_Cities_List/racine.png,../static/images/US_Cities_List/huntsville.png,../static/images/US_Cities_List/cornwall.png,1,,,,,,,,,
null,,html-keyboard-response,1035664,,,<p></p>,,,,,null,,,,,,,,,,,,,,,,,,,,
1606.5,,directmemory_phase,1037315,,,../static/images/US_Cities_List/boulder.png,,,,,49,,,1,0.8846153846153846,../static/images/US_Cities_List/huntsville.png,../static/images/US_Cities_List/hotsprings.png,../static/images/US_Cities_List/carmel.png,../static/images/US_Cities_List/huntsville.png,../static/images/US_Cities_List/carmel.png,../static/images/US_Cities_List/hotsprings.png,1,,,,,,,,,
null,,html-keyboard-response,1038324,,,<p></p>,,,,,null,,,,,,,,,,,,,,,,,,,,
1048.1000000238419,,directmemory_phase,1039415,,,../static/images/US_Cities_List/peoria.png,,,,,50,,,1,0.8888888888888888,../static/images/US_Cities_List/westpalmbeach.png,../static/images/US_Cities_List/racine.png,../static/images/US_Cities_List/shreveport.png,../static/images/US_Cities_List/racine.png,../static/images/US_Cities_List/westpalmbeach.png,../static/images/US_Cities_List/shreveport.png,1,,,,,,,,,
null,,html-keyboard-response,1040423,,,<p></p>,,,,,null,,,,,,,,,,,,,,,,,,,,
903.6999999284744,,directmemory_phase,1041375,,,../static/images/US_Cities_List/gatlinburg.png,,,,,51,,,1,0.8928571428571429,../static/images/US_Cities_List/leesburg.png,../static/images/US_Cities_List/racine.png,../static/images/US_Cities_List/hanover.png,../static/images/US_Cities_List/hanover.png,../static/images/US_Cities_List/racine.png,../static/images/US_Cities_List/leesburg.png,1,,,,,,,,,
null,,html-keyboard-response,1042382,,,<p></p>,,,,,null,,,,,,,,,,,,,,,,,,,,
920.8999999761581,,directmemory_phase,1043348,,,../static/images/US_Cities_List/shreveport.png,,,,,51,,,1,0.896551724137931,../static/images/US_Cities_List/peoria.png,../static/images/US_Cities_List/huntsville.png,../static/images/US_Cities_List/newhope.png,../static/images/US_Cities_List/newhope.png,../static/images/US_Cities_List/huntsville.png,../static/images/US_Cities_List/peoria.png,1,,,,,,,,,
null,,html-keyboard-response,1044357,,,<p></p>,,,,,null,,,,,,,,,,,,,,,,,,,,
1850.5,,directmemory_phase,1046250,,,../static/images/US_Cities_List/peoria.png,,,,,51,,,1,0.9,../static/images/US_Cities_List/leesburg.png,../static/images/US_Cities_List/westpalmbeach.png,../static/images/US_Cities_List/boulder.png,../static/images/US_Cities_List/boulder.png,../static/images/US_Cities_List/westpalmbeach.png,../static/images/US_Cities_List/leesburg.png,1,,,,,,,,,
null,,html-keyboard-response,1047258,,,<p></p>,,,,,null,,,,,,,,,,,,,,,,,,,,
1023.7999999523163,,directmemory_phase,1048324,,,../static/images/US_Cities_List/leesburg.png,,,,,49,,,1,0.9032258064516129,../static/images/US_Cities_List/hotsprings.png,../static/images/US_Cities_List/peoria.png,../static/images/US_Cities_List/racine.png,../static/images/US_Cities_List/hotsprings.png,../static/images/US_Cities_List/racine.png,../static/images/US_Cities_List/peoria.png,1,,,,,,,,,
null,,html-keyboard-response,1049332,,,<p></p>,,,,,null,,,,,,,,,,,,,,,,,,,,
880,,directmemory_phase,1050247,,,../static/images/US_Cities_List/carmel.png,,,,,51,,,1,0.90625,../static/images/US_Cities_List/peoria.png,../static/images/US_Cities_List/boulder.png,../static/images/US_Cities_List/westpalmbeach.png,../static/images/US_Cities_List/westpalmbeach.png,../static/images/US_Cities_List/boulder.png,../static/images/US_Cities_List/peoria.png,1,,,,,,,,,
null,,html-keyboard-response,1051251,,,<p></p>,,,,,null,,,,,,,,,,,,,,,,,,,,
7949,,intro_1,1059202,,,instruct,,,0,,,,,,,,,,,,,,,,,,,,,,
5386.100000023842,,intro_2,1064590,,,instruct,,,1,Next,,,,,,,,,,,,,,,,,,,,,
6938.600000023842,,intro_3,1071534,,,instruct,,,1,Next,,,,,,,,,,,,,,,,,,,,,
6623.200000047684,,intro_4,1078160,,,instruct,,,1,Next,,,,,,,,,,,,,,,,,,,,,
13975.800000071526,,intro_5,1092138,,,instruct,,,1,Next,,,,,,,,,,,,,,,,,,,,,
3880.5,,intro_6,1096022,,,instruct,,,1,Next,,,,,,,,,,,,,,,,,,,,,
2521.600000023842,,intro_7,1098547,,,instruct,,,1,Next,,,,,,,,,,,,,,,,,,,,,
4001.7999999523163,,intro_8,1102553,,,instruct,,,1,Next,,,,,,,,,,,,,,,,,,,,,
1042.0999999046326,,intro_9,1103599,,,instruct,,,1,Next,,,,,,,,,,,,,,,,,,,,,
1078.1000000238419,,intro_10,1104681,,,instruct,,,1,Next,,,,,,,,,,,,,,,,,,,,,
5235,,intro_11,1109919,,,instruct,,,1,Next,,,,,,,,,,,,,,,,,,,,,
2251.2999999523163,,shortestpath_phase,1112208,,,../static/images/US_Cities_List/westpalmbeach.png,,,,,49,../static/images/US_Cities_List/peoria.png,../static/images/US_Cities_List/leesburg.png,1,1,,,,../static/images/US_Cities_List/peoria.png,,,,,Three Edge Diff,Two Edge Five Edge,,,,,,
null,,html-keyboard-response,1113216,,,<p></p>,,,,,null,,,,,,,,,,,,,,,,,,,,
2420.2000000476837,,shortestpath_phase,1115676,,,../static/images/US_Cities_List/hanover.png,,,,,50,../static/images/US_Cities_List/shreveport.png,../static/images/US_Cities_List/leesburg.png,1,1,,,,../static/images/US_Cities_List/leesburg.png,,,,,Two Edge Diff,Two Edge Four Edge,,,,,,
null,,html-keyboard-response,1116684,,,<p></p>,,,,,null,,,,,,,,,,,,,,,,,,,,
3263.5,,shortestpath_phase,1119981,,,../static/images/US_Cities_List/newhope.png,,,,,50,../static/images/US_Cities_List/gatlinburg.png,../static/images/US_Cities_List/racine.png,1,1,,,,../static/images/US_Cities_List/racine.png,,,,,Two Edge Diff,Four Edge Six Edge,,,,,,
null,,html-keyboard-response,1120989,,,<p></p>,,,,,null,,,,,,,,,,,,,,,,,,,,
2468.399999976158,,shortestpath_phase,1123511,,,../static/images/US_Cities_List/gatlinburg.png,,,,,50,../static/images/US_Cities_List/shreveport.png,../static/images/US_Cities_List/hotsprings.png,1,1,,,,../static/images/US_Cities_List/hotsprings.png,,,,,Three Edge Diff,Three Edge Six Edge,,,,,,
null,,html-keyboard-response,1124518,,,<p></p>,,,,,null,,,,,,,,,,,,,,,,,,,,
3069.899999976158,,shortestpath_phase,1127626,,,../static/images/US_Cities_List/westpalmbeach.png,,,,,49,../static/images/US_Cities_List/racine.png,../static/images/US_Cities_List/leesburg.png,1,1,,,,../static/images/US_Cities_List/racine.png,,,,,Two Edge Diff,Three Edge Five Edge,,,,,,
null,,html-keyboard-response,1128634,,,<p></p>,,,,,null,,,,,,,,,,,,,,,,,,,,
2908.2000000476837,,shortestpath_phase,1131590,,,../static/images/US_Cities_List/gatlinburg.png,,,,,50,../static/images/US_Cities_List/carmel.png,../static/images/US_Cities_List/newhope.png,0,0.8333333333333334,,,,../static/images/US_Cities_List/carmel.png,,,,,One Edge Diff,Five Edge Six Edge,,,,,,
null,,html-keyboard-response,1132597,,,<p></p>,,,,,null,,,,,,,,,,,,,,,,,,,,
1273.3999999761581,,shortestpath_phase,1133915,,,../static/images/US_Cities_List/newhope.png,,,,,50,../static/images/US_Cities_List/gatlinburg.png,../static/images/US_Cities_List/peoria.png,1,0.8571428571428571,,,,../static/images/US_Cities_List/peoria.png,,,,,Two Edge Diff,Four Edge Six Edge,,,,,,
null,,html-keyboard-response,1134923,,,<p></p>,,,,,null,,,,,,,,,,,,,,,,,,,,
2459.100000023842,,shortestpath_phase,1137427,,,../static/images/US_Cities_List/carmel.png,,,,,50,../static/images/US_Cities_List/leesburg.png,../static/images/US_Cities_List/gatlinburg.png,1,0.875,,,,../static/images/US_Cities_List/gatlinburg.png,,,,,One Edge Diff,Five Edge Six Edge,,,,,,
null,,html-keyboard-response,1138436,,,<p></p>,,,,,null,,,,,,,,,,,,,,,,,,,,
1484,,shortestpath_phase,1139971,,,../static/images/US_Cities_List/cornwall.png,,,,,50,../static/images/US_Cities_List/leesburg.png,../static/images/US_Cities_List/newhope.png,1,0.8888888888888888,,,,../static/images/US_Cities_List/newhope.png,,,,,Two Edge Diff,Two Edge Four Edge,,,,,,
null,,html-keyboard-response,1140979,,,<p></p>,,,,,null,,,,,,,,,,,,,,,,,,,,
3728.6999999284744,,shortestpath_phase,1144747,,,../static/images/US_Cities_List/hanover.png,,,,,49,../static/images/US_Cities_List/huntsville.png,../static/images/US_Cities_List/newhope.png,1,0.9,,,,../static/images/US_Cities_List/huntsville.png,,,,,Three Edge Diff,Two Edge Five Edge,,,,,,
null,,html-keyboard-response,1145753,,,<p></p>,,,,,null,,,,,,,,,,,,,,,,,,,,
2578.600000023842,,shortestpath_phase,1148371,,,../static/images/US_Cities_List/newhope.png,,,,,50,../static/images/US_Cities_List/leesburg.png,../static/images/US_Cities_List/peoria.png,1,0.9090909090909091,,,,../static/images/US_Cities_List/peoria.png,,,,,Two Edge Diff,Four Edge Six Edge,,,,,,
null,,html-keyboard-response,1149379,,,<p></p>,,,,,null,,,,,,,,,,,,,,,,,,,,
