rt,responses,trial_type,time_elapsed,image_type,sequence,stimulus,cities,city_images,button_pressed,response,key_press,stimulus_left,stimulus_right,accuracy,cumulative_accuracy,stimulus_down_left,stimulus_down_mid,stimulus_down_right,stimulus_correct,stimulus_short,stimulus_far,weighted_accuracy,missedtrial,condition,specific_pairs,imgL_ID,imgR_ID,linedress,linedressed,detour_trial,linedressed_detor
22162.600000023842,{worker_id:67608d020ab313f56180df41},id_enter,22170,fictional,interleaved,flights,Hawthorne Bluffs; Juniper Creek; Hollendale; Riverlyn; Orchard Bend; Baymarsh; North Arroya; Claywater; Cedarwyn; Delaro Park; New Verdan; Granton Ridge; Sunmere,US_Cities_List/shreveport.png; US_Cities_List/gatlinburg.png; US_Cities_List/carmel.png; US_Cities_List/westpalmbeach.png; US_Cities_List/peoria.png; US_Cities_List/leesburg.png; US_Cities_List/newhope.png; US_Cities_List/boulder.png; US_Cities_List/huntsville.png; US_Cities_List/cornwall.png; US_Cities_List/racine.png; US_Cities_List/hanover.png; US_Cities_List/hotsprings.png,,,,,,,,,,,,,,,,,,,,,,,
45511.89999997616,,fullscreen,67692,,,make_fullscreen,,,0,,,,,,,,,,,,,,,,,,,,,,
6153.600000023842,,intro_1,73850,,,instruct,,,0,,,,,,,,,,,,,,,,,,,,,,
113448.29999995232,,intro_2,187302,,,instruct,,,1,Next,,,,,,,,,,,,,,,,,,,,,
58790.89999997616,,intro_3,246097,,,instruct,,,1,Next,,,,,,,,,,,,,,,,,,,,,
8853.199999928474,,intro_4,254953,,,instruct,,,1,Next,,,,,,,,,,,,,,,,,,,,,
10641.399999976158,,intro_5,265598,,,instruct,,,1,Next,,,,,,,,,,,,,,,,,,,,,
14325.600000023842,,intro_6,279926,,,instruct,,,1,Next,,,,,,,,,,,,,,,,,,,,,
9424.100000023842,,intro_7,289353,,,instruct,,,1,Next,,,,,,,,,,,,,,,,,,,,,
null,,learn_prac_1,292356,,,lean_prac_1,,,,,null,,,,,,,,,,,,,,,,,,,,
null,,html-keyboard-response,293360,,,<p></p>,,,,,null,,,,,,,,,,,,,,,,,,,,
3822.3000000715256,,intro_1,297186,,,instruct,,,0,,,,,,,,,,,,,,,,,,,,,,
6397,,intro_2,303586,,,instruct,,,1,Next,,,,,,,,,,,,,,,,,,,,,
null,,learn_prac_2,306589,,,lean_prac_2,,,,,null,,,,,,,,,,,,,,,,,,,,
null,,html-keyboard-response,307592,,,<p></p>,,,,,null,,,,,,,,,,,,,,,,,,,,
2156.1999999284744,,intro_1,309752,,,instruct,,,0,,,,,,,,,,,,,,,,,,,,,,
2819.1999999284744,,intro_2,312573,,,instruct,,,1,Next,,,,,,,,,,,,,,,,,,,,,
38022.40000009537,,intro_3,350598,,,instruct,,,1,Next,,,,,,,,,,,,,,,,,,,,,
null,,prac_atten_color_black,351250,,,black_plus_sign,,,,,null,,,,,,,,,,,,,,,,,,,,
null,,prac_atten_color,352005,,,prac_stop_color,,,,,null,,,,,,,,,,,,,,,,,,,,
239.69999992847443,,prac_atten_color_black,354009,,,black_plus_sign,,,,,49,,,,,,,,,,,,,,,,,,,,
null,,prac_atten_color_black,354662,,,black_plus_sign,,,,,null,,,,,,,,,,,,,,,,,,,,
654.2000000476837,,prac_atten_color,355575,,,prac_stop_color,,,,,50,,,,,,,,,,,,,,,,,,,,
null,,prac_atten_color_black,357579,,,black_plus_sign,,,,,null,,,,,,,,,,,,,,,,,,,,
null,,prac_atten_color_black,358072,,,black_plus_sign,,,,,null,,,,,,,,,,,,,,,,,,,,
null,,prac_atten_color,358514,,,prac_stop_color,,,,,null,,,,,,,,,,,,,,,,,,,,
257.1999999284744,,prac_atten_color_black,360519,,,black_plus_sign,,,,,50,,,,,,,,,,,,,,,,,,,,
null,,prac_atten_color_black,361483,,,black_plus_sign,,,,,null,,,,,,,,,,,,,,,,,,,,
759.2000000476837,,prac_atten_color,362409,,,prac_stop_color,,,,,50,,,,,,,,,,,,,,,,,,,,
223.89999997615814,,prac_atten_color_black,364412,,,black_plus_sign,,,,,49,,,,,,,,,,,,,,,,,,,,
null,,prac_atten_color_black,364892,,,black_plus_sign,,,,,null,,,,,,,,,,,,,,,,,,,,
943.1000000238419,,prac_atten_color,365874,,,prac_stop_color,,,,,50,,,,,,,,,,,,,,,,,,,,
null,,prac_atten_color_black,367878,,,black_plus_sign,,,,,null,,,,,,,,,,,,,,,,,,,,
null,,prac_atten_color_black,368300,,,black_plus_sign,,,,,null,,,,,,,,,,,,,,,,,,,,
803.6000000238419,,prac_atten_color,369111,,,prac_stop_color,,,,,50,,,,,,,,,,,,,,,,,,,,
null,,prac_atten_color_black,371114,,,black_plus_sign,,,,,null,,,,,,,,,,,,,,,,,,,,
null,,prac_atten_color_black,371709,,,black_plus_sign,,,,,null,,,,,,,,,,,,,,,,,,,,
649.8000000715256,,prac_atten_color,372570,,,prac_stop_color,,,,,49,,,,,,,,,,,,,,,,,,,,
null,,prac_atten_color_black,374574,,,black_plus_sign,,,,,null,,,,,,,,,,,,,,,,,,,,
null,,prac_atten_color_black,375118,,,black_plus_sign,,,,,null,,,,,,,,,,,,,,,,,,,,
null,,prac_atten_color,375568,,,prac_stop_color,,,,,null,,,,,,,,,,,,,,,,,,,,
172.70000004768372,,prac_atten_color_black,377571,,,black_plus_sign,,,,,50,,,,,,,,,,,,,,,,,,,,
null,,prac_atten_color_black,378528,,,black_plus_sign,,,,,null,,,,,,,,,,,,,,,,,,,,
616.1000000238419,,prac_atten_color,379428,,,prac_stop_color,,,,,49,,,,,,,,,,,,,,,,,,,,
null,,prac_atten_color_black,381431,,,black_plus_sign,,,,,null,,,,,,,,,,,,,,,,,,,,
null,,prac_atten_color_black,381944,,,black_plus_sign,,,,,null,,,,,,,,,,,,,,,,,,,,
560.9000000953674,,prac_atten_color,383032,,,prac_stop_color,,,,,49,,,,,,,,,,,,,,,,,,,,
null,,prac_atten_color_black,385035,,,black_plus_sign,,,,,null,,,,,,,,,,,,,,,,,,,,
6953.899999976158,,attentioncheck_feedback,391992,,,cross_check_feedback,,,0,,,,,,,,,,,,,,,,,,,,,,
24871.700000047684,,last_instruct,416865,,,instruct,,,,,32,,,,,,,,,,,,,,,,,,,,
null,,learn_phase(without_color),419880,,,black_plus_sign,,,,,null,US_Cities_List/newhope.png,US_Cities_List/hotsprings.png,,,,,,,,,,,,,,,,,,
null,,black_cross(without_color),420634,,,blue,,,,,null,US_Cities_List/newhope.png,US_Cities_List/hotsprings.png,,,,,,,,,,,,,,,,,,
null,,rt_plussign_withcolor,421137,,,blue,,,,,null,US_Cities_List/newhope.png,US_Cities_List/hotsprings.png,,,,,,,,,,,,,,,,,,
1425.9000000953674,,rt_thecrossant_black,422391,,,black_plus_sign,,,,,49,,,1,1,,,,,,,,,,,,,,,,
null,,color_black,422495,,,black_plus_sign,,,,,null,,,,,,,,,,,,,,,,,,,,
null,,learn_phase(without_color),425535,,,black_plus_sign,,,,,null,US_Cities_List/cornwall.png,US_Cities_List/boulder.png,,,,,,,,,,,,,,,,,,
null,,black_cross(without_color),426579,,,yellow,,,,,null,US_Cities_List/cornwall.png,US_Cities_List/boulder.png,,,,,,,,,,,,,,,,,,
null,,rt_plussign_withcolor,427081,,,yellow,,,,,null,US_Cities_List/cornwall.png,US_Cities_List/boulder.png,,,,,,,,,,,,,,,,,,
767.1999999284744,,rt_thecrossant_black,428045,,,black_plus_sign,,,,,50,,,1,1,,,,,,,,,,,,,,,,
null,,color_black,428148,,,black_plus_sign,,,,,null,,,,,,,,,,,,,,,,,,,,
null,,learn_phase(without_color),431175,,,black_plus_sign,,,,,null,US_Cities_List/racine.png,US_Cities_List/huntsville.png,,,,,,,,,,,,,,,,,,
null,,black_cross(without_color),431807,,,blue,,,,,null,US_Cities_List/racine.png,US_Cities_List/huntsville.png,,,,,,,,,,,,,,,,,,
null,,rt_plussign_withcolor,432310,,,blue,,,,,null,US_Cities_List/racine.png,US_Cities_List/huntsville.png,,,,,,,,,,,,,,,,,,
1618.7000000476837,,rt_thecrossant_black,433686,,,black_plus_sign,,,,,49,,,1,1,,,,,,,,,,,,,,,,
null,,color_black,433789,,,black_plus_sign,,,,,null,,,,,,,,,,,,,,,,,,,,
null,,learn_phase(without_color),436815,,,black_plus_sign,,,,,null,US_Cities_List/leesburg.png,US_Cities_List/huntsville.png,,,,,,,,,,,,,,,,,,
null,,black_cross(without_color),437644,,,yellow,,,,,null,US_Cities_List/leesburg.png,US_Cities_List/huntsville.png,,,,,,,,,,,,,,,,,,
486.7999999523163,,rt_plussign_withcolor,438147,,,yellow,,,,,50,US_Cities_List/leesburg.png,US_Cities_List/huntsville.png,,,,,,,,,,,,,,,,,,
null,,rt_thecrossant_black,439324,,,black_plus_sign,,,,,null,,,1,1,,,,,,,,,,,,,,,,
null,,color_black,439428,,,black_plus_sign,,,,,null,,,,,,,,,,,,,,,,,,,,
null,,learn_phase(without_color),442461,,,black_plus_sign,,,,,null,US_Cities_List/leesburg.png,US_Cities_List/carmel.png,,,,,,,,,,,,,,,,,,
null,,black_cross(without_color),443196,,,yellow,,,,,null,US_Cities_List/leesburg.png,US_Cities_List/carmel.png,,,,,,,,,,,,,,,,,,
null,,rt_plussign_withcolor,443699,,,yellow,,,,,null,US_Cities_List/leesburg.png,US_Cities_List/carmel.png,,,,,,,,,,,,,,,,,,
1160.6000000238419,,rt_thecrossant_black,444971,,,black_plus_sign,,,,,50,,,1,1,,,,,,,,,,,,,,,,
null,,color_black,445075,,,black_plus_sign,,,,,null,,,,,,,,,,,,,,,,,,,,
null,,learn_phase(without_color),448101,,,black_plus_sign,,,,,null,US_Cities_List/boulder.png,US_Cities_List/newhope.png,,,,,,,,,,,,,,,,,,
null,,black_cross(without_color),448915,,,blue,,,,,null,US_Cities_List/boulder.png,US_Cities_List/newhope.png,,,,,,,,,,,,,,,,,,
null,,rt_plussign_withcolor,449418,,,blue,,,,,null,US_Cities_List/boulder.png,US_Cities_List/newhope.png,,,,,,,,,,,,,,,,,,
1003.6999999284744,,rt_thecrossant_black,450612,,,black_plus_sign,,,,,49,,,1,1,,,,,,,,,,,,,,,,
null,,color_black,450715,,,black_plus_sign,,,,,null,,,,,,,,,,,,,,,,,,,,
null,,learn_phase(without_color),453754,,,black_plus_sign,,,,,null,US_Cities_List/carmel.png,US_Cities_List/gatlinburg.png,,,,,,,,,,,,,,,,,,
null,,black_cross(without_color),454742,,,yellow,,,,,null,US_Cities_List/carmel.png,US_Cities_List/gatlinburg.png,,,,,,,,,,,,,,,,,,
null,,rt_plussign_withcolor,455245,,,yellow,,,,,null,US_Cities_List/carmel.png,US_Cities_List/gatlinburg.png,,,,,,,,,,,,,,,,,,
1210.7000000476837,,rt_thecrossant_black,456263,,,black_plus_sign,,,,,50,,,1,1,,,,,,,,,,,,,,,,
null,,color_black,456366,,,black_plus_sign,,,,,null,,,,,,,,,,,,,,,,,,,,
null,,learn_phase(without_color),459406,,,black_plus_sign,,,,,null,US_Cities_List/boulder.png,US_Cities_List/cornwall.png,,,,,,,,,,,,,,,,,,
null,,black_cross(without_color),460184,,,blue,,,,,null,US_Cities_List/boulder.png,US_Cities_List/cornwall.png,,,,,,,,,,,,,,,,,,
null,,rt_plussign_withcolor,460686,,,blue,,,,,null,US_Cities_List/boulder.png,US_Cities_List/cornwall.png,,,,,,,,,,,,,,,,,,
1554.7999999523163,,rt_thecrossant_black,461915,,,black_plus_sign,,,,,49,,,1,1,,,,,,,,,,,,,,,,
null,,color_black,462019,,,black_plus_sign,,,,,null,,,,,,,,,,,,,,,,,,,,
null,,learn_phase(without_color),465053,,,black_plus_sign,,,,,null,US_Cities_List/boulder.png,US_Cities_List/cornwall.png,,,,,,,,,,,,,,,,,,
null,,black_cross(without_color),466134,,,blue,,,,,null,US_Cities_List/boulder.png,US_Cities_List/cornwall.png,,,,,,,,,,,,,,,,,,
null,,rt_plussign_withcolor,466636,,,blue,,,,,null,US_Cities_List/boulder.png,US_Cities_List/cornwall.png,,,,,,,,,,,,,,,,,,
1104.7000000476837,,rt_thecrossant_black,467563,,,black_plus_sign,,,,,49,,,1,1,,,,,,,,,,,,,,,,
null,,color_black,467672,,,black_plus_sign,,,,,null,,,,,,,,,,,,,,,,,,,,
null,,learn_phase(without_color),470711,,,black_plus_sign,,,,,null,US_Cities_List/gatlinburg.png,US_Cities_List/shreveport.png,,,,,,,,,,,,,,,,,,
null,,black_cross(without_color),471600,,,yellow,,,,,null,US_Cities_List/gatlinburg.png,US_Cities_List/shreveport.png,,,,,,,,,,,,,,,,,,
null,,rt_plussign_withcolor,472102,,,yellow,,,,,null,US_Cities_List/gatlinburg.png,US_Cities_List/shreveport.png,,,,,,,,,,,,,,,,,,
1310.4000000953674,,rt_thecrossant_black,473221,,,black_plus_sign,,,,,50,,,1,1,,,,,,,,,,,,,,,,
null,,color_black,473325,,,black_plus_sign,,,,,null,,,,,,,,,,,,,,,,,,,,
null,,learn_phase(without_color),476357,,,black_plus_sign,,,,,null,US_Cities_List/newhope.png,US_Cities_List/huntsville.png,,,,,,,,,,,,,,,,,,
null,,black_cross(without_color),476775,,,blue,,,,,null,US_Cities_List/newhope.png,US_Cities_List/huntsville.png,,,,,,,,,,,,,,,,,,
null,,rt_plussign_withcolor,477277,,,blue,,,,,null,US_Cities_List/newhope.png,US_Cities_List/huntsville.png,,,,,,,,,,,,,,,,,,
1267.5,,rt_thecrossant_black,478867,,,black_plus_sign,,,,,49,,,1,1,,,,,,,,,,,,,,,,
null,,color_black,478970,,,black_plus_sign,,,,,null,,,,,,,,,,,,,,,,,,,,
null,,learn_phase(without_color),482019,,,black_plus_sign,,,,,null,US_Cities_List/newhope.png,US_Cities_List/leesburg.png,,,,,,,,,,,,,,,,,,
null,,black_cross(without_color),482805,,,yellow,,,,,null,US_Cities_List/newhope.png,US_Cities_List/leesburg.png,,,,,,,,,,,,,,,,,,
null,,rt_plussign_withcolor,483307,,,yellow,,,,,null,US_Cities_List/newhope.png,US_Cities_List/leesburg.png,,,,,,,,,,,,,,,,,,
558.5,,rt_thecrossant_black,484534,,,black_plus_sign,,,,,50,,,1,1,,,,,,,,,,,,,,,,
null,,color_black,484637,,,black_plus_sign,,,,,null,,,,,,,,,,,,,,,,,,,,
null,,learn_phase(without_color),487667,,,black_plus_sign,,,,,null,US_Cities_List/huntsville.png,US_Cities_List/leesburg.png,,,,,,,,,,,,,,,,,,
null,,black_cross(without_color),488099,,,blue,,,,,null,US_Cities_List/huntsville.png,US_Cities_List/leesburg.png,,,,,,,,,,,,,,,,,,
null,,rt_plussign_withcolor,488601,,,blue,,,,,null,US_Cities_List/huntsville.png,US_Cities_List/leesburg.png,,,,,,,,,,,,,,,,,,
1035.7000000476837,,rt_thecrossant_black,490176,,,black_plus_sign,,,,,49,,,1,1,,,,,,,,,,,,,,,,
null,,color_black,490279,,,black_plus_sign,,,,,null,,,,,,,,,,,,,,,,,,,,
null,,learn_phase(without_color),493305,,,black_plus_sign,,,,,null,US_Cities_List/boulder.png,US_Cities_List/huntsville.png,,,,,,,,,,,,,,,,,,
null,,black_cross(without_color),493838,,,yellow,,,,,null,US_Cities_List/boulder.png,US_Cities_List/huntsville.png,,,,,,,,,,,,,,,,,,
null,,rt_plussign_withcolor,494341,,,yellow,,,,,null,US_Cities_List/boulder.png,US_Cities_List/huntsville.png,,,,,,,,,,,,,,,,,,
643.2999999523163,,rt_thecrossant_black,495815,,,black_plus_sign,,,,,50,,,1,1,,,,,,,,,,,,,,,,
null,,color_black,495919,,,black_plus_sign,,,,,null,,,,,,,,,,,,,,,,,,,,
null,,learn_phase(without_color),498947,,,black_plus_sign,,,,,null,US_Cities_List/huntsville.png,US_Cities_List/leesburg.png,,,,,,,,,,,,,,,,,,
null,,black_cross(without_color),499542,,,blue,,,,,null,US_Cities_List/huntsville.png,US_Cities_List/leesburg.png,,,,,,,,,,,,,,,,,,
null,,rt_plussign_withcolor,500045,,,blue,,,,,null,US_Cities_List/huntsville.png,US_Cities_List/leesburg.png,,,,,,,,,,,,,,,,,,
733.7999999523163,,rt_thecrossant_black,501456,,,black_plus_sign,,,,,49,,,1,1,,,,,,,,,,,,,,,,
null,,color_black,501559,,,black_plus_sign,,,,,null,,,,,,,,,,,,,,,,,,,,
null,,learn_phase(without_color),504593,,,black_plus_sign,,,,,null,US_Cities_List/leesburg.png,US_Cities_List/newhope.png,,,,,,,,,,,,,,,,,,
null,,black_cross(without_color),505046,,,yellow,,,,,null,US_Cities_List/leesburg.png,US_Cities_List/newhope.png,,,,,,,,,,,,,,,,,,
null,,rt_plussign_withcolor,505549,,,yellow,,,,,null,US_Cities_List/leesburg.png,US_Cities_List/newhope.png,,,,,,,,,,,,,,,,,,
1009.6999999284744,,rt_thecrossant_black,507102,,,black_plus_sign,,,,,50,,,1,1,,,,,,,,,,,,,,,,
null,,color_black,507207,,,black_plus_sign,,,,,null,,,,,,,,,,,,,,,,,,,,
null,,learn_phase(without_color),510237,,,black_plus_sign,,,,,null,US_Cities_List/gatlinburg.png,US_Cities_List/carmel.png,,,,,,,,,,,,,,,,,,
null,,black_cross(without_color),511043,,,yellow,,,,,null,US_Cities_List/gatlinburg.png,US_Cities_List/carmel.png,,,,,,,,,,,,,,,,,,
null,,rt_plussign_withcolor,511545,,,yellow,,,,,null,US_Cities_List/gatlinburg.png,US_Cities_List/carmel.png,,,,,,,,,,,,,,,,,,
647.2999999523163,,rt_thecrossant_black,512747,,,black_plus_sign,,,,,50,,,1,1,,,,,,,,,,,,,,,,
null,,color_black,512849,,,black_plus_sign,,,,,null,,,,,,,,,,,,,,,,,,,,
null,,learn_phase(without_color),515884,,,black_plus_sign,,,,,null,US_Cities_List/boulder.png,US_Cities_List/cornwall.png,,,,,,,,,,,,,,,,,,
null,,black_cross(without_color),516539,,,yellow,,,,,null,US_Cities_List/boulder.png,US_Cities_List/cornwall.png,,,,,,,,,,,,,,,,,,
null,,rt_plussign_withcolor,517043,,,yellow,,,,,null,US_Cities_List/boulder.png,US_Cities_List/cornwall.png,,,,,,,,,,,,,,,,,,
957.1000000238419,,rt_thecrossant_black,518395,,,black_plus_sign,,,,,50,,,1,1,,,,,,,,,,,,,,,,
null,,color_black,518499,,,black_plus_sign,,,,,null,,,,,,,,,,,,,,,,,,,,
null,,learn_phase(without_color),521538,,,black_plus_sign,,,,,null,US_Cities_List/carmel.png,US_Cities_List/leesburg.png,,,,,,,,,,,,,,,,,,
null,,black_cross(without_color),522445,,,yellow,,,,,null,US_Cities_List/carmel.png,US_Cities_List/leesburg.png,,,,,,,,,,,,,,,,,,
null,,rt_plussign_withcolor,522947,,,yellow,,,,,null,US_Cities_List/carmel.png,US_Cities_List/leesburg.png,,,,,,,,,,,,,,,,,,
805,,rt_thecrossant_black,524046,,,black_plus_sign,,,,,50,,,1,1,,,,,,,,,,,,,,,,
null,,color_black,524149,,,black_plus_sign,,,,,null,,,,,,,,,,,,,,,,,,,,
null,,learn_phase(without_color),527179,,,black_plus_sign,,,,,null,US_Cities_List/huntsville.png,US_Cities_List/leesburg.png,,,,,,,,,,,,,,,,,,
null,,black_cross(without_color),527989,,,yellow,,,,,null,US_Cities_List/huntsville.png,US_Cities_List/leesburg.png,,,,,,,,,,,,,,,,,,
null,,rt_plussign_withcolor,528491,,,yellow,,,,,null,US_Cities_List/huntsville.png,US_Cities_List/leesburg.png,,,,,,,,,,,,,,,,,,
1075.6000000238419,,rt_thecrossant_black,529691,,,black_plus_sign,,,,,50,,,1,1,,,,,,,,,,,,,,,,
null,,color_black,529796,,,black_plus_sign,,,,,null,,,,,,,,,,,,,,,,,,,,
null,,learn_phase(without_color),532846,,,black_plus_sign,,,,,null,US_Cities_List/cornwall.png,US_Cities_List/boulder.png,,,,,,,,,,,,,,,,,,
null,,black_cross(without_color),533293,,,blue,,,,,null,US_Cities_List/cornwall.png,US_Cities_List/boulder.png,,,,,,,,,,,,,,,,,,
null,,rt_plussign_withcolor,533796,,,blue,,,,,null,US_Cities_List/cornwall.png,US_Cities_List/boulder.png,,,,,,,,,,,,,,,,,,
997.7000000476837,,rt_thecrossant_black,535357,,,black_plus_sign,,,,,49,,,1,1,,,,,,,,,,,,,,,,
null,,color_black,535459,,,black_plus_sign,,,,,null,,,,,,,,,,,,,,,,,,,,
null,,learn_phase(without_color),538490,,,black_plus_sign,,,,,null,US_Cities_List/westpalmbeach.png,US_Cities_List/gatlinburg.png,,,,,,,,,,,,,,,,,,
null,,black_cross(without_color),539589,,,yellow,,,,,null,US_Cities_List/westpalmbeach.png,US_Cities_List/gatlinburg.png,,,,,,,,,,,,,,,,,,
null,,rt_plussign_withcolor,540091,,,yellow,,,,,null,US_Cities_List/westpalmbeach.png,US_Cities_List/gatlinburg.png,,,,,,,,,,,,,,,,,,
790.3999999761581,,rt_thecrossant_black,540999,,,black_plus_sign,,,,,50,,,1,1,,,,,,,,,,,,,,,,
null,,color_black,541102,,,black_plus_sign,,,,,null,,,,,,,,,,,,,,,,,,,,
null,,learn_phase(without_color),544137,,,black_plus_sign,,,,,null,US_Cities_List/westpalmbeach.png,US_Cities_List/gatlinburg.png,,,,,,,,,,,,,,,,,,
null,,black_cross(without_color),544970,,,blue,,,,,null,US_Cities_List/westpalmbeach.png,US_Cities_List/gatlinburg.png,,,,,,,,,,,,,,,,,,
487.89999997615814,,rt_plussign_withcolor,545472,,,blue,,,,,49,US_Cities_List/westpalmbeach.png,US_Cities_List/gatlinburg.png,,,,,,,,,,,,,,,,,,
null,,rt_thecrossant_black,546647,,,black_plus_sign,,,,,null,,,1,1,,,,,,,,,,,,,,,,
null,,color_black,546750,,,black_plus_sign,,,,,null,,,,,,,,,,,,,,,,,,,,
null,,learn_phase(without_color),549771,,,black_plus_sign,,,,,null,US_Cities_List/boulder.png,US_Cities_List/huntsville.png,,,,,,,,,,,,,,,,,,
null,,black_cross(without_color),550297,,,yellow,,,,,null,US_Cities_List/boulder.png,US_Cities_List/huntsville.png,,,,,,,,,,,,,,,,,,
null,,rt_plussign_withcolor,550799,,,yellow,,,,,null,US_Cities_List/boulder.png,US_Cities_List/huntsville.png,,,,,,,,,,,,,,,,,,
1116.4000000953674,,rt_thecrossant_black,552282,,,black_plus_sign,,,,,50,,,1,1,,,,,,,,,,,,,,,,
null,,color_black,552385,,,black_plus_sign,,,,,null,,,,,,,,,,,,,,,,,,,,
null,,learn_phase(without_color),555415,,,black_plus_sign,,,,,null,US_Cities_List/carmel.png,US_Cities_List/racine.png,,,,,,,,,,,,,,,,,,
null,,black_cross(without_color),556279,,,blue,,,,,null,US_Cities_List/carmel.png,US_Cities_List/racine.png,,,,,,,,,,,,,,,,,,
null,,rt_plussign_withcolor,556781,,,blue,,,,,null,US_Cities_List/carmel.png,US_Cities_List/racine.png,,,,,,,,,,,,,,,,,,
665.3000000715256,,rt_thecrossant_black,557924,,,black_plus_sign,,,,,49,,,1,1,,,,,,,,,,,,,,,,
null,,color_black,558028,,,black_plus_sign,,,,,null,,,,,,,,,,,,,,,,,,,,
null,,learn_phase(without_color),561058,,,black_plus_sign,,,,,null,US_Cities_List/westpalmbeach.png,US_Cities_List/gatlinburg.png,,,,,,,,,,,,,,,,,,
null,,black_cross(without_color),561845,,,blue,,,,,null,US_Cities_List/westpalmbeach.png,US_Cities_List/gatlinburg.png,,,,,,,,,,,,,,,,,,
null,,rt_plussign_withcolor,562348,,,blue,,,,,null,US_Cities_List/westpalmbeach.png,US_Cities_List/gatlinburg.png,,,,,,,,,,,,,,,,,,
1091.5,,rt_thecrossant_black,563569,,,black_plus_sign,,,,,49,,,1,1,,,,,,,,,,,,,,,,
null,,color_black,563673,,,black_plus_sign,,,,,null,,,,,,,,,,,,,,,,,,,,
null,,learn_phase(without_color),566709,,,black_plus_sign,,,,,null,US_Cities_List/peoria.png,US_Cities_List/westpalmbeach.png,,,,,,,,,,,,,,,,,,
null,,black_cross(without_color),567423,,,blue,,,,,null,US_Cities_List/peoria.png,US_Cities_List/westpalmbeach.png,,,,,,,,,,,,,,,,,,
null,,rt_plussign_withcolor,567925,,,blue,,,,,null,US_Cities_List/peoria.png,US_Cities_List/westpalmbeach.png,,,,,,,,,,,,,,,,,,
962,,rt_thecrossant_black,569220,,,black_plus_sign,,,,,49,,,1,1,,,,,,,,,,,,,,,,
null,,color_black,569323,,,black_plus_sign,,,,,null,,,,,,,,,,,,,,,,,,,,
null,,learn_phase(without_color),572355,,,black_plus_sign,,,,,null,US_Cities_List/gatlinburg.png,US_Cities_List/carmel.png,,,,,,,,,,,,,,,,,,
null,,black_cross(without_color),573434,,,yellow,,,,,null,US_Cities_List/gatlinburg.png,US_Cities_List/carmel.png,,,,,,,,,,,,,,,,,,
null,,rt_plussign_withcolor,573936,,,yellow,,,,,null,US_Cities_List/gatlinburg.png,US_Cities_List/carmel.png,,,,,,,,,,,,,,,,,,
960.9000000953674,,rt_thecrossant_black,574865,,,black_plus_sign,,,,,50,,,1,1,,,,,,,,,,,,,,,,
null,,color_black,574969,,,black_plus_sign,,,,,null,,,,,,,,,,,,,,,,,,,,
null,,learn_phase(without_color),577996,,,black_plus_sign,,,,,null,US_Cities_List/westpalmbeach.png,US_Cities_List/peoria.png,,,,,,,,,,,,,,,,,,
null,,black_cross(without_color),578904,,,blue,,,,,null,US_Cities_List/westpalmbeach.png,US_Cities_List/peoria.png,,,,,,,,,,,,,,,,,,
null,,rt_plussign_withcolor,579407,,,blue,,,,,null,US_Cities_List/westpalmbeach.png,US_Cities_List/peoria.png,,,,,,,,,,,,,,,,,,
1551,,rt_thecrossant_black,580507,,,black_plus_sign,,,,,49,,,1,1,,,,,,,,,,,,,,,,
null,,color_black,580615,,,black_plus_sign,,,,,null,,,,,,,,,,,,,,,,,,,,
null,,learn_phase(without_color),583634,,,black_plus_sign,,,,,null,US_Cities_List/racine.png,US_Cities_List/carmel.png,,,,,,,,,,,,,,,,,,
null,,black_cross(without_color),584514,,,blue,,,,,null,US_Cities_List/racine.png,US_Cities_List/carmel.png,,,,,,,,,,,,,,,,,,
null,,rt_plussign_withcolor,585016,,,blue,,,,,null,US_Cities_List/racine.png,US_Cities_List/carmel.png,,,,,,,,,,,,,,,,,,
1172.8999999761581,,rt_thecrossant_black,586142,,,black_plus_sign,,,,,49,,,1,1,,,,,,,,,,,,,,,,
null,,color_black,586245,,,black_plus_sign,,,,,null,,,,,,,,,,,,,,,,,,,,
null,,learn_phase(without_color),589281,,,black_plus_sign,,,,,null,US_Cities_List/hotsprings.png,US_Cities_List/newhope.png,,,,,,,,,,,,,,,,,,
null,,black_cross(without_color),590332,,,blue,,,,,null,US_Cities_List/hotsprings.png,US_Cities_List/newhope.png,,,,,,,,,,,,,,,,,,
null,,rt_plussign_withcolor,590833,,,blue,,,,,null,US_Cities_List/hotsprings.png,US_Cities_List/newhope.png,,,,,,,,,,,,,,,,,,
1026.8000000715256,,rt_thecrossant_black,591799,,,black_plus_sign,,,,,49,,,1,1,,,,,,,,,,,,,,,,
null,,color_black,591903,,,black_plus_sign,,,,,null,,,,,,,,,,,,,,,,,,,,
null,,learn_phase(without_color),594937,,,black_plus_sign,,,,,null,US_Cities_List/newhope.png,US_Cities_List/huntsville.png,,,,,,,,,,,,,,,,,,
null,,black_cross(without_color),595855,,,blue,,,,,null,US_Cities_List/newhope.png,US_Cities_List/huntsville.png,,,,,,,,,,,,,,,,,,
null,,rt_plussign_withcolor,596357,,,blue,,,,,null,US_Cities_List/newhope.png,US_Cities_List/huntsville.png,,,,,,,,,,,,,,,,,,
1189,,rt_thecrossant_black,597446,,,black_plus_sign,,,,,49,,,1,1,,,,,,,,,,,,,,,,
null,,color_black,597550,,,black_plus_sign,,,,,null,,,,,,,,,,,,,,,,,,,,
null,,learn_phase(without_color),600591,,,black_plus_sign,,,,,null,US_Cities_List/peoria.png,US_Cities_List/westpalmbeach.png,,,,,,,,,,,,,,,,,,
null,,black_cross(without_color),601676,,,blue,,,,,null,US_Cities_List/peoria.png,US_Cities_List/westpalmbeach.png,,,,,,,,,,,,,,,,,,
null,,rt_plussign_withcolor,602179,,,blue,,,,,null,US_Cities_List/peoria.png,US_Cities_List/westpalmbeach.png,,,,,,,,,,,,,,,,,,
1117.8999999761581,,rt_thecrossant_black,603102,,,black_plus_sign,,,,,49,,,1,1,,,,,,,,,,,,,,,,
null,,color_black,603204,,,black_plus_sign,,,,,null,,,,,,,,,,,,,,,,,,,,
null,,learn_phase(without_color),606232,,,black_plus_sign,,,,,null,US_Cities_List/boulder.png,US_Cities_List/newhope.png,,,,,,,,,,,,,,,,,,
null,,black_cross(without_color),606947,,,yellow,,,,,null,US_Cities_List/boulder.png,US_Cities_List/newhope.png,,,,,,,,,,,,,,,,,,
null,,rt_plussign_withcolor,607449,,,yellow,,,,,null,US_Cities_List/boulder.png,US_Cities_List/newhope.png,,,,,,,,,,,,,,,,,,
1302.7999999523163,,rt_thecrossant_black,608739,,,black_plus_sign,,,,,50,,,1,1,,,,,,,,,,,,,,,,
null,,color_black,608844,,,black_plus_sign,,,,,null,,,,,,,,,,,,,,,,,,,,
null,,learn_phase(without_color),611878,,,black_plus_sign,,,,,null,US_Cities_List/newhope.png,US_Cities_List/leesburg.png,,,,,,,,,,,,,,,,,,
null,,black_cross(without_color),612567,,,yellow,,,,,null,US_Cities_List/newhope.png,US_Cities_List/leesburg.png,,,,,,,,,,,,,,,,,,
null,,rt_plussign_withcolor,613069,,,yellow,,,,,null,US_Cities_List/newhope.png,US_Cities_List/leesburg.png,,,,,,,,,,,,,,,,,,
1095.2000000476837,,rt_thecrossant_black,614387,,,black_plus_sign,,,,,50,,,1,1,,,,,,,,,,,,,,,,
null,,color_black,614490,,,black_plus_sign,,,,,null,,,,,,,,,,,,,,,,,,,,
null,,learn_phase(without_color),617534,,,black_plus_sign,,,,,null,US_Cities_List/cornwall.png,US_Cities_List/boulder.png,,,,,,,,,,,,,,,,,,
null,,black_cross(without_color),618314,,,yellow,,,,,null,US_Cities_List/cornwall.png,US_Cities_List/boulder.png,,,,,,,,,,,,,,,,,,
null,,rt_plussign_withcolor,618817,,,yellow,,,,,null,US_Cities_List/cornwall.png,US_Cities_List/boulder.png,,,,,,,,,,,,,,,,,,
910.3999999761581,,rt_thecrossant_black,620044,,,black_plus_sign,,,,,50,,,1,1,,,,,,,,,,,,,,,,
null,,color_black,620147,,,black_plus_sign,,,,,null,,,,,,,,,,,,,,,,,,,,
null,,learn_phase(without_color),623180,,,black_plus_sign,,,,,null,US_Cities_List/hotsprings.png,US_Cities_List/newhope.png,,,,,,,,,,,,,,,,,,
null,,black_cross(without_color),623961,,,yellow,,,,,null,US_Cities_List/hotsprings.png,US_Cities_List/newhope.png,,,,,,,,,,,,,,,,,,
null,,rt_plussign_withcolor,624464,,,yellow,,,,,null,US_Cities_List/hotsprings.png,US_Cities_List/newhope.png,,,,,,,,,,,,,,,,,,
956.3000000715256,,rt_thecrossant_black,625691,,,black_plus_sign,,,,,50,,,1,1,,,,,,,,,,,,,,,,
null,,color_black,625795,,,black_plus_sign,,,,,null,,,,,,,,,,,,,,,,,,,,
null,,learn_phase(without_color),628821,,,black_plus_sign,,,,,null,US_Cities_List/shreveport.png,US_Cities_List/gatlinburg.png,,,,,,,,,,,,,,,,,,
null,,black_cross(without_color),629786,,,blue,,,,,null,US_Cities_List/shreveport.png,US_Cities_List/gatlinburg.png,,,,,,,,,,,,,,,,,,
null,,rt_plussign_withcolor,630288,,,blue,,,,,null,US_Cities_List/shreveport.png,US_Cities_List/gatlinburg.png,,,,,,,,,,,,,,,,,,
1236,,rt_thecrossant_black,631331,,,black_plus_sign,,,,,49,,,1,1,,,,,,,,,,,,,,,,
null,,color_black,631435,,,black_plus_sign,,,,,null,,,,,,,,,,,,,,,,,,,,
null,,learn_phase(without_color),634459,,,black_plus_sign,,,,,null,US_Cities_List/westpalmbeach.png,US_Cities_List/hanover.png,,,,,,,,,,,,,,,,,,
null,,black_cross(without_color),635106,,,blue,,,,,null,US_Cities_List/westpalmbeach.png,US_Cities_List/hanover.png,,,,,,,,,,,,,,,,,,
null,,rt_plussign_withcolor,635608,,,blue,,,,,null,US_Cities_List/westpalmbeach.png,US_Cities_List/hanover.png,,,,,,,,,,,,,,,,,,
1284.8999999761581,,rt_thecrossant_black,636969,,,black_plus_sign,,,,,49,,,1,1,,,,,,,,,,,,,,,,
null,,color_black,637071,,,black_plus_sign,,,,,null,,,,,,,,,,,,,,,,,,,,
null,,learn_phase(without_color),640105,,,black_plus_sign,,,,,null,US_Cities_List/newhope.png,US_Cities_List/hotsprings.png,,,,,,,,,,,,,,,,,,
null,,black_cross(without_color),640639,,,blue,,,,,null,US_Cities_List/newhope.png,US_Cities_List/hotsprings.png,,,,,,,,,,,,,,,,,,
null,,rt_plussign_withcolor,641141,,,blue,,,,,null,US_Cities_List/newhope.png,US_Cities_List/hotsprings.png,,,,,,,,,,,,,,,,,,
937.2999999523163,,rt_thecrossant_black,642614,,,black_plus_sign,,,,,49,,,1,1,,,,,,,,,,,,,,,,
null,,color_black,642718,,,black_plus_sign,,,,,null,,,,,,,,,,,,,,,,,,,,
null,,learn_phase(without_color),645758,,,black_plus_sign,,,,,null,US_Cities_List/hanover.png,US_Cities_List/westpalmbeach.png,,,,,,,,,,,,,,,,,,
null,,black_cross(without_color),646585,,,yellow,,,,,null,US_Cities_List/hanover.png,US_Cities_List/westpalmbeach.png,,,,,,,,,,,,,,,,,,
null,,rt_plussign_withcolor,647088,,,yellow,,,,,null,US_Cities_List/hanover.png,US_Cities_List/westpalmbeach.png,,,,,,,,,,,,,,,,,,
739.8000000715256,,rt_thecrossant_black,648269,,,black_plus_sign,,,,,50,,,1,1,,,,,,,,,,,,,,,,
null,,color_black,648371,,,black_plus_sign,,,,,null,,,,,,,,,,,,,,,,,,,,
null,,learn_phase(without_color),651406,,,black_plus_sign,,,,,null,US_Cities_List/racine.png,US_Cities_List/carmel.png,,,,,,,,,,,,,,,,,,
null,,black_cross(without_color),652484,,,yellow,,,,,null,US_Cities_List/racine.png,US_Cities_List/carmel.png,,,,,,,,,,,,,,,,,,
null,,rt_plussign_withcolor,652987,,,yellow,,,,,null,US_Cities_List/racine.png,US_Cities_List/carmel.png,,,,,,,,,,,,,,,,,,
1054,,rt_thecrossant_black,653917,,,black_plus_sign,,,,,50,,,1,1,,,,,,,,,,,,,,,,
null,,color_black,654021,,,black_plus_sign,,,,,null,,,,,,,,,,,,,,,,,,,,
null,,learn_phase(without_color),657056,,,black_plus_sign,,,,,null,US_Cities_List/huntsville.png,US_Cities_List/newhope.png,,,,,,,,,,,,,,,,,,
null,,black_cross(without_color),658134,,,blue,,,,,null,US_Cities_List/huntsville.png,US_Cities_List/newhope.png,,,,,,,,,,,,,,,,,,
null,,rt_plussign_withcolor,658636,,,blue,,,,,null,US_Cities_List/huntsville.png,US_Cities_List/newhope.png,,,,,,,,,,,,,,,,,,
1373.8999999761581,,rt_thecrossant_black,659565,,,black_plus_sign,,,,,49,,,1,1,,,,,,,,,,,,,,,,
null,,color_black,659669,,,black_plus_sign,,,,,null,,,,,,,,,,,,,,,,,,,,
null,,learn_phase(without_color),662698,,,black_plus_sign,,,,,null,US_Cities_List/carmel.png,US_Cities_List/leesburg.png,,,,,,,,,,,,,,,,,,
null,,black_cross(without_color),663778,,,yellow,,,,,null,US_Cities_List/carmel.png,US_Cities_List/leesburg.png,,,,,,,,,,,,,,,,,,
null,,rt_plussign_withcolor,664280,,,yellow,,,,,null,US_Cities_List/carmel.png,US_Cities_List/leesburg.png,,,,,,,,,,,,,,,,,,
1264.3000000715256,,rt_thecrossant_black,665209,,,black_plus_sign,,,,,50,,,1,1,,,,,,,,,,,,,,,,
null,,color_black,665312,,,black_plus_sign,,,,,null,,,,,,,,,,,,,,,,,,,,
null,,learn_phase(without_color),668336,,,black_plus_sign,,,,,null,US_Cities_List/huntsville.png,US_Cities_List/leesburg.png,,,,,,,,,,,,,,,,,,
null,,black_cross(without_color),669337,,,yellow,,,,,null,US_Cities_List/huntsville.png,US_Cities_List/leesburg.png,,,,,,,,,,,,,,,,,,
null,,rt_plussign_withcolor,669840,,,yellow,,,,,null,US_Cities_List/huntsville.png,US_Cities_List/leesburg.png,,,,,,,,,,,,,,,,,,
1267.3999999761581,,rt_thecrossant_black,670847,,,black_plus_sign,,,,,50,,,1,1,,,,,,,,,,,,,,,,
null,,color_black,670951,,,black_plus_sign,,,,,null,,,,,,,,,,,,,,,,,,,,
null,,learn_phase(without_color),674001,,,black_plus_sign,,,,,null,US_Cities_List/racine.png,US_Cities_List/carmel.png,,,,,,,,,,,,,,,,,,
null,,black_cross(without_color),674951,,,blue,,,,,null,US_Cities_List/racine.png,US_Cities_List/carmel.png,,,,,,,,,,,,,,,,,,
null,,rt_plussign_withcolor,675453,,,blue,,,,,null,US_Cities_List/racine.png,US_Cities_List/carmel.png,,,,,,,,,,,,,,,,,,
1427.8999999761581,,rt_thecrossant_black,676511,,,black_plus_sign,,,,,49,,,1,1,,,,,,,,,,,,,,,,
null,,color_black,676614,,,black_plus_sign,,,,,null,,,,,,,,,,,,,,,,,,,,
null,,learn_phase(without_color),679650,,,black_plus_sign,,,,,null,US_Cities_List/racine.png,US_Cities_List/hanover.png,,,,,,,,,,,,,,,,,,
null,,black_cross(without_color),680113,,,yellow,,,,,null,US_Cities_List/racine.png,US_Cities_List/hanover.png,,,,,,,,,,,,,,,,,,
null,,rt_plussign_withcolor,680615,,,yellow,,,,,null,US_Cities_List/racine.png,US_Cities_List/hanover.png,,,,,,,,,,,,,,,,,,
1221.2999999523163,,rt_thecrossant_black,682160,,,black_plus_sign,,,,,50,,,1,1,,,,,,,,,,,,,,,,
null,,color_black,682264,,,black_plus_sign,,,,,null,,,,,,,,,,,,,,,,,,,,
null,,learn_phase(without_color),685310,,,black_plus_sign,,,,,null,US_Cities_List/gatlinburg.png,US_Cities_List/shreveport.png,,,,,,,,,,,,,,,,,,
null,,black_cross(without_color),685995,,,blue,,,,,null,US_Cities_List/gatlinburg.png,US_Cities_List/shreveport.png,,,,,,,,,,,,,,,,,,
null,,rt_plussign_withcolor,686498,,,blue,,,,,null,US_Cities_List/gatlinburg.png,US_Cities_List/shreveport.png,,,,,,,,,,,,,,,,,,
808.6999999284744,,rt_thecrossant_black,687820,,,black_plus_sign,,,,,49,,,1,1,,,,,,,,,,,,,,,,
null,,color_black,687923,,,black_plus_sign,,,,,null,,,,,,,,,,,,,,,,,,,,
null,,learn_phase(without_color),690955,,,black_plus_sign,,,,,null,US_Cities_List/boulder.png,US_Cities_List/newhope.png,,,,,,,,,,,,,,,,,,
null,,black_cross(without_color),691525,,,blue,,,,,null,US_Cities_List/boulder.png,US_Cities_List/newhope.png,,,,,,,,,,,,,,,,,,
null,,rt_plussign_withcolor,692029,,,blue,,,,,null,US_Cities_List/boulder.png,US_Cities_List/newhope.png,,,,,,,,,,,,,,,,,,
1073.7000000476837,,rt_thecrossant_black,693466,,,black_plus_sign,,,,,49,,,1,1,,,,,,,,,,,,,,,,
null,,color_black,693569,,,black_plus_sign,,,,,null,,,,,,,,,,,,,,,,,,,,
null,,learn_phase(without_color),696606,,,black_plus_sign,,,,,null,US_Cities_List/boulder.png,US_Cities_List/cornwall.png,,,,,,,,,,,,,,,,,,
null,,black_cross(without_color),697544,,,yellow,,,,,null,US_Cities_List/boulder.png,US_Cities_List/cornwall.png,,,,,,,,,,,,,,,,,,
null,,rt_plussign_withcolor,698046,,,yellow,,,,,null,US_Cities_List/boulder.png,US_Cities_List/cornwall.png,,,,,,,,,,,,,,,,,,
810.3999999761581,,rt_thecrossant_black,699116,,,black_plus_sign,,,,,50,,,1,1,,,,,,,,,,,,,,,,
null,,color_black,699219,,,black_plus_sign,,,,,null,,,,,,,,,,,,,,,,,,,,
null,,learn_phase(without_color),702260,,,black_plus_sign,,,,,null,US_Cities_List/gatlinburg.png,US_Cities_List/carmel.png,,,,,,,,,,,,,,,,,,
null,,black_cross(without_color),702839,,,blue,,,,,null,US_Cities_List/gatlinburg.png,US_Cities_List/carmel.png,,,,,,,,,,,,,,,,,,
null,,rt_plussign_withcolor,703342,,,blue,,,,,null,US_Cities_List/gatlinburg.png,US_Cities_List/carmel.png,,,,,,,,,,,,,,,,,,
1341.7999999523163,,rt_thecrossant_black,704769,,,black_plus_sign,,,,,49,,,1,1,,,,,,,,,,,,,,,,
null,,color_black,704872,,,black_plus_sign,,,,,null,,,,,,,,,,,,,,,,,,,,
null,,learn_phase(without_color),707914,,,black_plus_sign,,,,,null,US_Cities_List/shreveport.png,US_Cities_List/gatlinburg.png,,,,,,,,,,,,,,,,,,
null,,black_cross(without_color),708697,,,yellow,,,,,null,US_Cities_List/shreveport.png,US_Cities_List/gatlinburg.png,,,,,,,,,,,,,,,,,,
null,,rt_plussign_withcolor,709200,,,yellow,,,,,null,US_Cities_List/shreveport.png,US_Cities_List/gatlinburg.png,,,,,,,,,,,,,,,,,,
826.5999999046326,,rt_thecrossant_black,710425,,,black_plus_sign,,,,,50,,,1,1,,,,,,,,,,,,,,,,
null,,color_black,710529,,,black_plus_sign,,,,,null,,,,,,,,,,,,,,,,,,,,
null,,learn_phase(without_color),713566,,,black_plus_sign,,,,,null,US_Cities_List/newhope.png,US_Cities_List/huntsville.png,,,,,,,,,,,,,,,,,,
null,,black_cross(without_color),714278,,,blue,,,,,null,US_Cities_List/newhope.png,US_Cities_List/huntsville.png,,,,,,,,,,,,,,,,,,
null,,rt_plussign_withcolor,714781,,,blue,,,,,null,US_Cities_List/newhope.png,US_Cities_List/huntsville.png,,,,,,,,,,,,,,,,,,
937.5,,rt_thecrossant_black,716078,,,black_plus_sign,,,,,49,,,1,1,,,,,,,,,,,,,,,,
null,,color_black,716181,,,black_plus_sign,,,,,null,,,,,,,,,,,,,,,,,,,,
null,,learn_phase(without_color),719214,,,black_plus_sign,,,,,null,US_Cities_List/racine.png,US_Cities_List/carmel.png,,,,,,,,,,,,,,,,,,
null,,black_cross(without_color),720160,,,blue,,,,,null,US_Cities_List/racine.png,US_Cities_List/carmel.png,,,,,,,,,,,,,,,,,,
null,,rt_plussign_withcolor,720662,,,blue,,,,,null,US_Cities_List/racine.png,US_Cities_List/carmel.png,,,,,,,,,,,,,,,,,,
934.1000000238419,,rt_thecrossant_black,721724,,,black_plus_sign,,,,,49,,,1,1,,,,,,,,,,,,,,,,
null,,color_black,721840,,,black_plus_sign,,,,,null,,,,,,,,,,,,,,,,,,,,
null,,learn_phase(without_color),724874,,,black_plus_sign,,,,,null,US_Cities_List/westpalmbeach.png,US_Cities_List/peoria.png,,,,,,,,,,,,,,,,,,
null,,black_cross(without_color),725842,,,yellow,,,,,null,US_Cities_List/westpalmbeach.png,US_Cities_List/peoria.png,,,,,,,,,,,,,,,,,,
null,,rt_plussign_withcolor,726343,,,yellow,,,,,null,US_Cities_List/westpalmbeach.png,US_Cities_List/peoria.png,,,,,,,,,,,,,,,,,,
1219.1999999284744,,rt_thecrossant_black,727382,,,black_plus_sign,,,,,50,,,1,1,,,,,,,,,,,,,,,,
null,,color_black,727486,,,black_plus_sign,,,,,null,,,,,,,,,,,,,,,,,,,,
null,,learn_phase(without_color),730530,,,black_plus_sign,,,,,null,US_Cities_List/gatlinburg.png,US_Cities_List/westpalmbeach.png,,,,,,,,,,,,,,,,,,
null,,black_cross(without_color),731454,,,yellow,,,,,null,US_Cities_List/gatlinburg.png,US_Cities_List/westpalmbeach.png,,,,,,,,,,,,,,,,,,
null,,rt_plussign_withcolor,731957,,,yellow,,,,,null,US_Cities_List/gatlinburg.png,US_Cities_List/westpalmbeach.png,,,,,,,,,,,,,,,,,,
1316.1000000238419,,rt_thecrossant_black,733040,,,black_plus_sign,,,,,50,,,1,1,,,,,,,,,,,,,,,,
null,,color_black,733143,,,black_plus_sign,,,,,null,,,,,,,,,,,,,,,,,,,,
null,,learn_phase(without_color),736181,,,black_plus_sign,,,,,null,US_Cities_List/newhope.png,US_Cities_List/leesburg.png,,,,,,,,,,,,,,,,,,
null,,black_cross(without_color),736744,,,yellow,,,,,null,US_Cities_List/newhope.png,US_Cities_List/leesburg.png,,,,,,,,,,,,,,,,,,
null,,rt_plussign_withcolor,737246,,,yellow,,,,,null,US_Cities_List/newhope.png,US_Cities_List/leesburg.png,,,,,,,,,,,,,,,,,,
1163.2000000476837,,rt_thecrossant_black,738691,,,black_plus_sign,,,,,50,,,1,1,,,,,,,,,,,,,,,,
null,,color_black,738794,,,black_plus_sign,,,,,null,,,,,,,,,,,,,,,,,,,,
null,,learn_phase(without_color),741813,,,black_plus_sign,,,,,null,US_Cities_List/boulder.png,US_Cities_List/huntsville.png,,,,,,,,,,,,,,,,,,
null,,black_cross(without_color),742253,,,yellow,,,,,null,US_Cities_List/boulder.png,US_Cities_List/huntsville.png,,,,,,,,,,,,,,,,,,
null,,rt_plussign_withcolor,742755,,,yellow,,,,,null,US_Cities_List/boulder.png,US_Cities_List/huntsville.png,,,,,,,,,,,,,,,,,,
749.1999999284744,,rt_thecrossant_black,744323,,,black_plus_sign,,,,,50,,,1,1,,,,,,,,,,,,,,,,
null,,color_black,744426,,,black_plus_sign,,,,,null,,,,,,,,,,,,,,,,,,,,
null,,learn_phase(without_color),747456,,,black_plus_sign,,,,,null,US_Cities_List/huntsville.png,US_Cities_List/racine.png,,,,,,,,,,,,,,,,,,
null,,black_cross(without_color),748529,,,blue,,,,,null,US_Cities_List/huntsville.png,US_Cities_List/racine.png,,,,,,,,,,,,,,,,,,
null,,rt_plussign_withcolor,749032,,,blue,,,,,null,US_Cities_List/huntsville.png,US_Cities_List/racine.png,,,,,,,,,,,,,,,,,,
738.6000000238419,,rt_thecrossant_black,749967,,,black_plus_sign,,,,,49,,,1,1,,,,,,,,,,,,,,,,
null,,color_black,750071,,,black_plus_sign,,,,,null,,,,,,,,,,,,,,,,,,,,
null,,learn_phase(without_color),753103,,,black_plus_sign,,,,,null,US_Cities_List/racine.png,US_Cities_List/hanover.png,,,,,,,,,,,,,,,,,,
null,,black_cross(without_color),753774,,,blue,,,,,null,US_Cities_List/racine.png,US_Cities_List/hanover.png,,,,,,,,,,,,,,,,,,
null,,rt_plussign_withcolor,754277,,,blue,,,,,null,US_Cities_List/racine.png,US_Cities_List/hanover.png,,,,,,,,,,,,,,,,,,
1596.1999999284744,,rt_thecrossant_black,755614,,,black_plus_sign,,,,,49,,,1,1,,,,,,,,,,,,,,,,
null,,color_black,755718,,,black_plus_sign,,,,,null,,,,,,,,,,,,,,,,,,,,
null,,learn_phase(without_color),758748,,,black_plus_sign,,,,,null,US_Cities_List/westpalmbeach.png,US_Cities_List/hanover.png,,,,,,,,,,,,,,,,,,
null,,black_cross(without_color),759814,,,yellow,,,,,null,US_Cities_List/westpalmbeach.png,US_Cities_List/hanover.png,,,,,,,,,,,,,,,,,,
null,,rt_plussign_withcolor,760316,,,yellow,,,,,null,US_Cities_List/westpalmbeach.png,US_Cities_List/hanover.png,,,,,,,,,,,,,,,,,,
952.6999999284744,,rt_thecrossant_black,761259,,,black_plus_sign,,,,,50,,,1,1,,,,,,,,,,,,,,,,
null,,color_black,761363,,,black_plus_sign,,,,,null,,,,,,,,,,,,,,,,,,,,
null,,learn_phase(without_color),764393,,,black_plus_sign,,,,,null,US_Cities_List/carmel.png,US_Cities_List/racine.png,,,,,,,,,,,,,,,,,,
null,,black_cross(without_color),764842,,,blue,,,,,null,US_Cities_List/carmel.png,US_Cities_List/racine.png,,,,,,,,,,,,,,,,,,
null,,rt_plussign_withcolor,765344,,,blue,,,,,null,US_Cities_List/carmel.png,US_Cities_List/racine.png,,,,,,,,,,,,,,,,,,
1935,,rt_thecrossant_black,766902,,,black_plus_sign,,,,,49,,,1,1,,,,,,,,,,,,,,,,
null,,color_black,767007,,,black_plus_sign,,,,,null,,,,,,,,,,,,,,,,,,,,
null,,learn_phase(without_color),770044,,,black_plus_sign,,,,,null,US_Cities_List/huntsville.png,US_Cities_List/racine.png,,,,,,,,,,,,,,,,,,
null,,black_cross(without_color),770672,,,blue,,,,,null,US_Cities_List/huntsville.png,US_Cities_List/racine.png,,,,,,,,,,,,,,,,,,
null,,rt_plussign_withcolor,771175,,,blue,,,,,null,US_Cities_List/huntsville.png,US_Cities_List/racine.png,,,,,,,,,,,,,,,,,,
812.2999999523163,,rt_thecrossant_black,772555,,,black_plus_sign,,,,,49,,,1,1,,,,,,,,,,,,,,,,
null,,color_black,772659,,,black_plus_sign,,,,,null,,,,,,,,,,,,,,,,,,,,
null,,learn_phase(without_color),775702,,,black_plus_sign,,,,,null,US_Cities_List/boulder.png,US_Cities_List/newhope.png,,,,,,,,,,,,,,,,,,
null,,black_cross(without_color),776473,,,blue,,,,,null,US_Cities_List/boulder.png,US_Cities_List/newhope.png,,,,,,,,,,,,,,,,,,
null,,rt_plussign_withcolor,776975,,,blue,,,,,null,US_Cities_List/boulder.png,US_Cities_List/newhope.png,,,,,,,,,,,,,,,,,,
776.8999999761581,,rt_thecrossant_black,778212,,,black_plus_sign,,,,,49,,,1,1,,,,,,,,,,,,,,,,
null,,color_black,778325,,,black_plus_sign,,,,,null,,,,,,,,,,,,,,,,,,,,
38623.89999997616,,learn_break,816953,,,learn_break,,,,,32,,,,,,,,,,,,,,,,,,,,
null,,html-keyboard-response,817955,,,<p></p>,,,,,null,,,,,,,,,,,,,,,,,,,,
null,,learn_phase(without_color),820990,,,black_plus_sign,,,,,null,US_Cities_List/huntsville.png,US_Cities_List/newhope.png,,,,,,,,,,,,,,,,,,
null,,black_cross(without_color),821742,,,yellow,,,,,null,US_Cities_List/huntsville.png,US_Cities_List/newhope.png,,,,,,,,,,,,,,,,,,
null,,rt_plussign_withcolor,822245,,,yellow,,,,,null,US_Cities_List/huntsville.png,US_Cities_List/newhope.png,,,,,,,,,,,,,,,,,,
1841.6000000238419,,rt_thecrossant_black,823499,,,black_plus_sign,,,,,50,,,1,1,,,,,,,,,,,,,,,,
null,,color_black,823601,,,black_plus_sign,,,,,null,,,,,,,,,,,,,,,,,,,,
null,,learn_phase(without_color),826635,,,black_plus_sign,,,,,null,US_Cities_List/hanover.png,US_Cities_List/racine.png,,,,,,,,,,,,,,,,,,
null,,black_cross(without_color),827240,,,yellow,,,,,null,US_Cities_List/hanover.png,US_Cities_List/racine.png,,,,,,,,,,,,,,,,,,
null,,rt_plussign_withcolor,827742,,,yellow,,,,,null,US_Cities_List/hanover.png,US_Cities_List/racine.png,,,,,,,,,,,,,,,,,,
935.6000000238419,,rt_thecrossant_black,829144,,,black_plus_sign,,,,,50,,,1,1,,,,,,,,,,,,,,,,
null,,color_black,829249,,,black_plus_sign,,,,,null,,,,,,,,,,,,,,,,,,,,
null,,learn_phase(without_color),832278,,,black_plus_sign,,,,,null,US_Cities_List/peoria.png,US_Cities_List/westpalmbeach.png,,,,,,,,,,,,,,,,,,
null,,black_cross(without_color),833079,,,yellow,,,,,null,US_Cities_List/peoria.png,US_Cities_List/westpalmbeach.png,,,,,,,,,,,,,,,,,,
null,,rt_plussign_withcolor,833581,,,yellow,,,,,null,US_Cities_List/peoria.png,US_Cities_List/westpalmbeach.png,,,,,,,,,,,,,,,,,,
867.8000000715256,,rt_thecrossant_black,834790,,,black_plus_sign,,,,,50,,,1,1,,,,,,,,,,,,,,,,
null,,color_black,834893,,,black_plus_sign,,,,,null,,,,,,,,,,,,,,,,,,,,
null,,learn_phase(without_color),837918,,,black_plus_sign,,,,,null,US_Cities_List/hotsprings.png,US_Cities_List/newhope.png,,,,,,,,,,,,,,,,,,
null,,black_cross(without_color),838649,,,blue,,,,,null,US_Cities_List/hotsprings.png,US_Cities_List/newhope.png,,,,,,,,,,,,,,,,,,
477.39999997615814,,rt_plussign_withcolor,839152,,,blue,,,,,49,US_Cities_List/hotsprings.png,US_Cities_List/newhope.png,,,,,,,,,,,,,,,,,,
null,,rt_thecrossant_black,840427,,,black_plus_sign,,,,,null,,,1,1,,,,,,,,,,,,,,,,
null,,color_black,840530,,,black_plus_sign,,,,,null,,,,,,,,,,,,,,,,,,,,
null,,learn_phase(without_color),843574,,,black_plus_sign,,,,,null,US_Cities_List/peoria.png,US_Cities_List/westpalmbeach.png,,,,,,,,,,,,,,,,,,
null,,black_cross(without_color),844586,,,yellow,,,,,null,US_Cities_List/peoria.png,US_Cities_List/westpalmbeach.png,,,,,,,,,,,,,,,,,,
null,,rt_plussign_withcolor,845089,,,yellow,,,,,null,US_Cities_List/peoria.png,US_Cities_List/westpalmbeach.png,,,,,,,,,,,,,,,,,,
970.5,,rt_thecrossant_black,846086,,,black_plus_sign,,,,,50,,,1,1,,,,,,,,,,,,,,,,
null,,color_black,846189,,,black_plus_sign,,,,,null,,,,,,,,,,,,,,,,,,,,
null,,learn_phase(without_color),849227,,,black_plus_sign,,,,,null,US_Cities_List/hanover.png,US_Cities_List/racine.png,,,,,,,,,,,,,,,,,,
null,,black_cross(without_color),849777,,,blue,,,,,null,US_Cities_List/hanover.png,US_Cities_List/racine.png,,,,,,,,,,,,,,,,,,
null,,rt_plussign_withcolor,850279,,,blue,,,,,null,US_Cities_List/hanover.png,US_Cities_List/racine.png,,,,,,,,,,,,,,,,,,
1184.7999999523163,,rt_thecrossant_black,851735,,,black_plus_sign,,,,,49,,,1,1,,,,,,,,,,,,,,,,
null,,color_black,851839,,,black_plus_sign,,,,,null,,,,,,,,,,,,,,,,,,,,
null,,learn_phase(without_color),854870,,,black_plus_sign,,,,,null,US_Cities_List/newhope.png,US_Cities_List/huntsville.png,,,,,,,,,,,,,,,,,,
null,,black_cross(without_color),855457,,,yellow,,,,,null,US_Cities_List/newhope.png,US_Cities_List/huntsville.png,,,,,,,,,,,,,,,,,,
null,,rt_plussign_withcolor,855960,,,yellow,,,,,null,US_Cities_List/newhope.png,US_Cities_List/huntsville.png,,,,,,,,,,,,,,,,,,
983.5,,rt_thecrossant_black,857382,,,black_plus_sign,,,,,50,,,1,1,,,,,,,,,,,,,,,,
null,,color_black,857485,,,black_plus_sign,,,,,null,,,,,,,,,,,,,,,,,,,,
null,,learn_phase(without_color),860514,,,black_plus_sign,,,,,null,US_Cities_List/huntsville.png,US_Cities_List/boulder.png,,,,,,,,,,,,,,,,,,
null,,black_cross(without_color),861439,,,blue,,,,,null,US_Cities_List/huntsville.png,US_Cities_List/boulder.png,,,,,,,,,,,,,,,,,,
null,,rt_plussign_withcolor,861941,,,blue,,,,,null,US_Cities_List/huntsville.png,US_Cities_List/boulder.png,,,,,,,,,,,,,,,,,,
1065.7000000476837,,rt_thecrossant_black,863027,,,black_plus_sign,,,,,49,,,1,1,,,,,,,,,,,,,,,,
null,,color_black,863130,,,black_plus_sign,,,,,null,,,,,,,,,,,,,,,,,,,,
null,,learn_phase(without_color),866157,,,black_plus_sign,,,,,null,US_Cities_List/hanover.png,US_Cities_List/westpalmbeach.png,,,,,,,,,,,,,,,,,,
null,,black_cross(without_color),867013,,,blue,,,,,null,US_Cities_List/hanover.png,US_Cities_List/westpalmbeach.png,,,,,,,,,,,,,,,,,,
494.10000002384186,,rt_plussign_withcolor,867515,,,blue,,,,,49,US_Cities_List/hanover.png,US_Cities_List/westpalmbeach.png,,,,,,,,,,,,,,,,,,
null,,rt_thecrossant_black,868667,,,black_plus_sign,,,,,null,,,1,1,,,,,,,,,,,,,,,,
null,,color_black,868771,,,black_plus_sign,,,,,null,,,,,,,,,,,,,,,,,,,,
null,,learn_phase(without_color),871799,,,black_plus_sign,,,,,null,US_Cities_List/boulder.png,US_Cities_List/huntsville.png,,,,,,,,,,,,,,,,,,
null,,black_cross(without_color),872496,,,blue,,,,,null,US_Cities_List/boulder.png,US_Cities_List/huntsville.png,,,,,,,,,,,,,,,,,,
null,,rt_plussign_withcolor,872999,,,blue,,,,,null,US_Cities_List/boulder.png,US_Cities_List/huntsville.png,,,,,,,,,,,,,,,,,,
1033,,rt_thecrossant_black,874310,,,black_plus_sign,,,,,49,,,1,1,,,,,,,,,,,,,,,,
null,,color_black,874414,,,black_plus_sign,,,,,null,,,,,,,,,,,,,,,,,,,,
null,,learn_phase(without_color),877447,,,black_plus_sign,,,,,null,US_Cities_List/huntsville.png,US_Cities_List/leesburg.png,,,,,,,,,,,,,,,,,,
null,,black_cross(without_color),878443,,,yellow,,,,,null,US_Cities_List/huntsville.png,US_Cities_List/leesburg.png,,,,,,,,,,,,,,,,,,
null,,rt_plussign_withcolor,878946,,,yellow,,,,,null,US_Cities_List/huntsville.png,US_Cities_List/leesburg.png,,,,,,,,,,,,,,,,,,
794.1000000238419,,rt_thecrossant_black,879958,,,black_plus_sign,,,,,50,,,1,1,,,,,,,,,,,,,,,,
null,,color_black,880063,,,black_plus_sign,,,,,null,,,,,,,,,,,,,,,,,,,,
null,,learn_phase(without_color),883092,,,black_plus_sign,,,,,null,US_Cities_List/racine.png,US_Cities_List/huntsville.png,,,,,,,,,,,,,,,,,,
null,,black_cross(without_color),883790,,,blue,,,,,null,US_Cities_List/racine.png,US_Cities_List/huntsville.png,,,,,,,,,,,,,,,,,,
null,,rt_plussign_withcolor,884292,,,blue,,,,,null,US_Cities_List/racine.png,US_Cities_List/huntsville.png,,,,,,,,,,,,,,,,,,
1251.6000000238419,,rt_thecrossant_black,885609,,,black_plus_sign,,,,,49,,,1,1,,,,,,,,,,,,,,,,
null,,color_black,885712,,,black_plus_sign,,,,,null,,,,,,,,,,,,,,,,,,,,
null,,learn_phase(without_color),888760,,,black_plus_sign,,,,,null,US_Cities_List/newhope.png,US_Cities_List/leesburg.png,,,,,,,,,,,,,,,,,,
null,,black_cross(without_color),889279,,,yellow,,,,,null,US_Cities_List/newhope.png,US_Cities_List/leesburg.png,,,,,,,,,,,,,,,,,,
null,,rt_plussign_withcolor,889782,,,yellow,,,,,null,US_Cities_List/newhope.png,US_Cities_List/leesburg.png,,,,,,,,,,,,,,,,,,
940.8999999761581,,rt_thecrossant_black,891273,,,black_plus_sign,,,,,50,,,1,1,,,,,,,,,,,,,,,,
null,,color_black,891376,,,black_plus_sign,,,,,null,,,,,,,,,,,,,,,,,,,,
null,,learn_phase(without_color),894405,,,black_plus_sign,,,,,null,US_Cities_List/westpalmbeach.png,US_Cities_List/gatlinburg.png,,,,,,,,,,,,,,,,,,
null,,black_cross(without_color),895041,,,yellow,,,,,null,US_Cities_List/westpalmbeach.png,US_Cities_List/gatlinburg.png,,,,,,,,,,,,,,,,,,
null,,rt_plussign_withcolor,895548,,,yellow,,,,,null,US_Cities_List/westpalmbeach.png,US_Cities_List/gatlinburg.png,,,,,,,,,,,,,,,,,,
674.8999999761581,,rt_thecrossant_black,896920,,,black_plus_sign,,,,,50,,,1,1,,,,,,,,,,,,,,,,
null,,color_black,897025,,,black_plus_sign,,,,,null,,,,,,,,,,,,,,,,,,,,
null,,learn_phase(without_color),900067,,,black_plus_sign,,,,,null,US_Cities_List/newhope.png,US_Cities_List/leesburg.png,,,,,,,,,,,,,,,,,,
null,,black_cross(without_color),900737,,,yellow,,,,,null,US_Cities_List/newhope.png,US_Cities_List/leesburg.png,,,,,,,,,,,,,,,,,,
null,,rt_plussign_withcolor,901239,,,yellow,,,,,null,US_Cities_List/newhope.png,US_Cities_List/leesburg.png,,,,,,,,,,,,,,,,,,
799.7000000476837,,rt_thecrossant_black,902576,,,black_plus_sign,,,,,50,,,1,1,,,,,,,,,,,,,,,,
null,,color_black,902680,,,black_plus_sign,,,,,null,,,,,,,,,,,,,,,,,,,,
null,,learn_phase(without_color),905701,,,black_plus_sign,,,,,null,US_Cities_List/boulder.png,US_Cities_List/huntsville.png,,,,,,,,,,,,,,,,,,
null,,black_cross(without_color),906343,,,blue,,,,,null,US_Cities_List/boulder.png,US_Cities_List/huntsville.png,,,,,,,,,,,,,,,,,,
null,,rt_plussign_withcolor,906845,,,blue,,,,,null,US_Cities_List/boulder.png,US_Cities_List/huntsville.png,,,,,,,,,,,,,,,,,,
837,,rt_thecrossant_black,908211,,,black_plus_sign,,,,,49,,,1,1,,,,,,,,,,,,,,,,
null,,color_black,908313,,,black_plus_sign,,,,,null,,,,,,,,,,,,,,,,,,,,
null,,learn_phase(without_color),911353,,,black_plus_sign,,,,,null,US_Cities_List/newhope.png,US_Cities_List/boulder.png,,,,,,,,,,,,,,,,,,
null,,black_cross(without_color),911992,,,yellow,,,,,null,US_Cities_List/newhope.png,US_Cities_List/boulder.png,,,,,,,,,,,,,,,,,,
null,,rt_plussign_withcolor,912495,,,yellow,,,,,null,US_Cities_List/newhope.png,US_Cities_List/boulder.png,,,,,,,,,,,,,,,,,,
891.7000000476837,,rt_thecrossant_black,913862,,,black_plus_sign,,,,,50,,,1,1,,,,,,,,,,,,,,,,
null,,color_black,913975,,,black_plus_sign,,,,,null,,,,,,,,,,,,,,,,,,,,
null,,learn_phase(without_color),917005,,,black_plus_sign,,,,,null,US_Cities_List/hotsprings.png,US_Cities_List/newhope.png,,,,,,,,,,,,,,,,,,
null,,black_cross(without_color),917762,,,blue,,,,,null,US_Cities_List/hotsprings.png,US_Cities_List/newhope.png,,,,,,,,,,,,,,,,,,
null,,rt_plussign_withcolor,918264,,,blue,,,,,null,US_Cities_List/hotsprings.png,US_Cities_List/newhope.png,,,,,,,,,,,,,,,,,,
916.0999999046326,,rt_thecrossant_black,919515,,,black_plus_sign,,,,,49,,,1,1,,,,,,,,,,,,,,,,
null,,color_black,919618,,,black_plus_sign,,,,,null,,,,,,,,,,,,,,,,,,,,
null,,learn_phase(without_color),922635,,,black_plus_sign,,,,,null,US_Cities_List/gatlinburg.png,US_Cities_List/shreveport.png,,,,,,,,,,,,,,,,,,
null,,black_cross(without_color),923619,,,yellow,,,,,null,US_Cities_List/gatlinburg.png,US_Cities_List/shreveport.png,,,,,,,,,,,,,,,,,,
null,,rt_plussign_withcolor,924122,,,yellow,,,,,null,US_Cities_List/gatlinburg.png,US_Cities_List/shreveport.png,,,,,,,,,,,,,,,,,,
931,,rt_thecrossant_black,925145,,,black_plus_sign,,,,,50,,,1,1,,,,,,,,,,,,,,,,
null,,color_black,925249,,,black_plus_sign,,,,,null,,,,,,,,,,,,,,,,,,,,
null,,learn_phase(without_color),928273,,,black_plus_sign,,,,,null,US_Cities_List/hanover.png,US_Cities_List/westpalmbeach.png,,,,,,,,,,,,,,,,,,
null,,black_cross(without_color),928880,,,blue,,,,,null,US_Cities_List/hanover.png,US_Cities_List/westpalmbeach.png,,,,,,,,,,,,,,,,,,
464.5,,rt_plussign_withcolor,929383,,,blue,,,,,49,US_Cities_List/hanover.png,US_Cities_List/westpalmbeach.png,,,,,,,,,,,,,,,,,,
null,,rt_thecrossant_black,930784,,,black_plus_sign,,,,,null,,,1,1,,,,,,,,,,,,,,,,
null,,color_black,930887,,,black_plus_sign,,,,,null,,,,,,,,,,,,,,,,,,,,
null,,learn_phase(without_color),933923,,,black_plus_sign,,,,,null,US_Cities_List/hanover.png,US_Cities_List/racine.png,,,,,,,,,,,,,,,,,,
null,,black_cross(without_color),934567,,,yellow,,,,,null,US_Cities_List/hanover.png,US_Cities_List/racine.png,,,,,,,,,,,,,,,,,,
481.5,,rt_plussign_withcolor,935070,,,yellow,,,,,50,US_Cities_List/hanover.png,US_Cities_List/racine.png,,,,,,,,,,,,,,,,,,
null,,rt_thecrossant_black,936433,,,black_plus_sign,,,,,null,,,1,1,,,,,,,,,,,,,,,,
null,,color_black,936537,,,black_plus_sign,,,,,null,,,,,,,,,,,,,,,,,,,,
null,,learn_phase(without_color),939582,,,black_plus_sign,,,,,null,US_Cities_List/hotsprings.png,US_Cities_List/newhope.png,,,,,,,,,,,,,,,,,,
null,,black_cross(without_color),940378,,,yellow,,,,,null,US_Cities_List/hotsprings.png,US_Cities_List/newhope.png,,,,,,,,,,,,,,,,,,
null,,rt_plussign_withcolor,940880,,,yellow,,,,,null,US_Cities_List/hotsprings.png,US_Cities_List/newhope.png,,,,,,,,,,,,,,,,,,
901.4000000953674,,rt_thecrossant_black,942092,,,black_plus_sign,,,,,50,,,1,1,,,,,,,,,,,,,,,,
null,,color_black,942195,,,black_plus_sign,,,,,null,,,,,,,,,,,,,,,,,,,,
null,,learn_phase(without_color),945226,,,black_plus_sign,,,,,null,US_Cities_List/gatlinburg.png,US_Cities_List/westpalmbeach.png,,,,,,,,,,,,,,,,,,
null,,black_cross(without_color),946257,,,yellow,,,,,null,US_Cities_List/gatlinburg.png,US_Cities_List/westpalmbeach.png,,,,,,,,,,,,,,,,,,
null,,rt_plussign_withcolor,946760,,,yellow,,,,,null,US_Cities_List/gatlinburg.png,US_Cities_List/westpalmbeach.png,,,,,,,,,,,,,,,,,,
978.3999999761581,,rt_thecrossant_black,947736,,,black_plus_sign,,,,,50,,,1,1,,,,,,,,,,,,,,,,
null,,color_black,947840,,,black_plus_sign,,,,,null,,,,,,,,,,,,,,,,,,,,
null,,learn_phase(without_color),950868,,,black_plus_sign,,,,,null,US_Cities_List/boulder.png,US_Cities_List/huntsville.png,,,,,,,,,,,,,,,,,,
null,,black_cross(without_color),951446,,,yellow,,,,,null,US_Cities_List/boulder.png,US_Cities_List/huntsville.png,,,,,,,,,,,,,,,,,,
null,,rt_plussign_withcolor,951949,,,yellow,,,,,null,US_Cities_List/boulder.png,US_Cities_List/huntsville.png,,,,,,,,,,,,,,,,,,
1250.3000000715256,,rt_thecrossant_black,953379,,,black_plus_sign,,,,,50,,,1,1,,,,,,,,,,,,,,,,
null,,color_black,953483,,,black_plus_sign,,,,,null,,,,,,,,,,,,,,,,,,,,
null,,learn_phase(without_color),956497,,,black_plus_sign,,,,,null,US_Cities_List/gatlinburg.png,US_Cities_List/carmel.png,,,,,,,,,,,,,,,,,,
null,,black_cross(without_color),957242,,,yellow,,,,,null,US_Cities_List/gatlinburg.png,US_Cities_List/carmel.png,,,,,,,,,,,,,,,,,,
null,,rt_plussign_withcolor,957744,,,yellow,,,,,null,US_Cities_List/gatlinburg.png,US_Cities_List/carmel.png,,,,,,,,,,,,,,,,,,
718.5,,rt_thecrossant_black,959007,,,black_plus_sign,,,,,50,,,1,1,,,,,,,,,,,,,,,,
null,,color_black,959110,,,black_plus_sign,,,,,null,,,,,,,,,,,,,,,,,,,,
null,,learn_phase(without_color),962152,,,black_plus_sign,,,,,null,US_Cities_List/newhope.png,US_Cities_List/leesburg.png,,,,,,,,,,,,,,,,,,
null,,black_cross(without_color),962736,,,yellow,,,,,null,US_Cities_List/newhope.png,US_Cities_List/leesburg.png,,,,,,,,,,,,,,,,,,
null,,rt_plussign_withcolor,963241,,,yellow,,,,,null,US_Cities_List/newhope.png,US_Cities_List/leesburg.png,,,,,,,,,,,,,,,,,,
887.8999999761581,,rt_thecrossant_black,964669,,,black_plus_sign,,,,,50,,,1,1,,,,,,,,,,,,,,,,
null,,color_black,964773,,,black_plus_sign,,,,,null,,,,,,,,,,,,,,,,,,,,
null,,learn_phase(without_color),967813,,,black_plus_sign,,,,,null,US_Cities_List/hotsprings.png,US_Cities_List/newhope.png,,,,,,,,,,,,,,,,,,
null,,black_cross(without_color),968239,,,blue,,,,,null,US_Cities_List/hotsprings.png,US_Cities_List/newhope.png,,,,,,,,,,,,,,,,,,
null,,rt_plussign_withcolor,968741,,,blue,,,,,null,US_Cities_List/hotsprings.png,US_Cities_List/newhope.png,,,,,,,,,,,,,,,,,,
906.8999999761581,,rt_thecrossant_black,970325,,,black_plus_sign,,,,,49,,,1,1,,,,,,,,,,,,,,,,
null,,color_black,970428,,,black_plus_sign,,,,,null,,,,,,,,,,,,,,,,,,,,
null,,learn_phase(without_color),973455,,,black_plus_sign,,,,,null,US_Cities_List/westpalmbeach.png,US_Cities_List/peoria.png,,,,,,,,,,,,,,,,,,
null,,black_cross(without_color),974157,,,blue,,,,,null,US_Cities_List/westpalmbeach.png,US_Cities_List/peoria.png,,,,,,,,,,,,,,,,,,
null,,rt_plussign_withcolor,974660,,,blue,,,,,null,US_Cities_List/westpalmbeach.png,US_Cities_List/peoria.png,,,,,,,,,,,,,,,,,,
635.8999999761581,,rt_thecrossant_black,975967,,,black_plus_sign,,,,,49,,,1,1,,,,,,,,,,,,,,,,
null,,color_black,976072,,,black_plus_sign,,,,,null,,,,,,,,,,,,,,,,,,,,
null,,learn_phase(without_color),979109,,,black_plus_sign,,,,,null,US_Cities_List/racine.png,US_Cities_List/huntsville.png,,,,,,,,,,,,,,,,,,
null,,black_cross(without_color),979598,,,blue,,,,,null,US_Cities_List/racine.png,US_Cities_List/huntsville.png,,,,,,,,,,,,,,,,,,
null,,rt_plussign_withcolor,980102,,,blue,,,,,null,US_Cities_List/racine.png,US_Cities_List/huntsville.png,,,,,,,,,,,,,,,,,,
881,,rt_thecrossant_black,981621,,,black_plus_sign,,,,,49,,,1,1,,,,,,,,,,,,,,,,
null,,color_black,981725,,,black_plus_sign,,,,,null,,,,,,,,,,,,,,,,,,,,
null,,learn_phase(without_color),984762,,,black_plus_sign,,,,,null,US_Cities_List/boulder.png,US_Cities_List/newhope.png,,,,,,,,,,,,,,,,,,
null,,black_cross(without_color),985460,,,yellow,,,,,null,US_Cities_List/boulder.png,US_Cities_List/newhope.png,,,,,,,,,,,,,,,,,,
null,,rt_plussign_withcolor,985963,,,yellow,,,,,null,US_Cities_List/boulder.png,US_Cities_List/newhope.png,,,,,,,,,,,,,,,,,,
595.3000000715256,,rt_thecrossant_black,987273,,,black_plus_sign,,,,,50,,,1,1,,,,,,,,,,,,,,,,
null,,color_black,987377,,,black_plus_sign,,,,,null,,,,,,,,,,,,,,,,,,,,
null,,learn_phase(without_color),990411,,,black_plus_sign,,,,,null,US_Cities_List/carmel.png,US_Cities_List/racine.png,,,,,,,,,,,,,,,,,,
null,,black_cross(without_color),991163,,,blue,,,,,null,US_Cities_List/carmel.png,US_Cities_List/racine.png,,,,,,,,,,,,,,,,,,
null,,rt_plussign_withcolor,991664,,,blue,,,,,null,US_Cities_List/carmel.png,US_Cities_List/racine.png,,,,,,,,,,,,,,,,,,
924.2999999523163,,rt_thecrossant_black,992920,,,black_plus_sign,,,,,49,,,1,1,,,,,,,,,,,,,,,,
null,,color_black,993023,,,black_plus_sign,,,,,null,,,,,,,,,,,,,,,,,,,,
null,,learn_phase(without_color),996067,,,black_plus_sign,,,,,null,US_Cities_List/racine.png,US_Cities_List/hanover.png,,,,,,,,,,,,,,,,,,
null,,black_cross(without_color),997109,,,blue,,,,,null,US_Cities_List/racine.png,US_Cities_List/hanover.png,,,,,,,,,,,,,,,,,,
null,,rt_plussign_withcolor,997611,,,blue,,,,,null,US_Cities_List/racine.png,US_Cities_List/hanover.png,,,,,,,,,,,,,,,,,,
995.8000000715256,,rt_thecrossant_black,998576,,,black_plus_sign,,,,,49,,,1,1,,,,,,,,,,,,,,,,
null,,color_black,998680,,,black_plus_sign,,,,,null,,,,,,,,,,,,,,,,,,,,
null,,learn_phase(without_color),1001712,,,black_plus_sign,,,,,null,US_Cities_List/hanover.png,US_Cities_List/westpalmbeach.png,,,,,,,,,,,,,,,,,,
null,,black_cross(without_color),1002759,,,yellow,,,,,null,US_Cities_List/hanover.png,US_Cities_List/westpalmbeach.png,,,,,,,,,,,,,,,,,,
null,,rt_plussign_withcolor,1003262,,,yellow,,,,,null,US_Cities_List/hanover.png,US_Cities_List/westpalmbeach.png,,,,,,,,,,,,,,,,,,
1236.1000000238419,,rt_thecrossant_black,1004223,,,black_plus_sign,,,,,50,,,1,1,,,,,,,,,,,,,,,,
null,,color_black,1004341,,,black_plus_sign,,,,,null,,,,,,,,,,,,,,,,,,,,
null,,learn_phase(without_color),1007374,,,black_plus_sign,,,,,null,US_Cities_List/leesburg.png,US_Cities_List/huntsville.png,,,,,,,,,,,,,,,,,,
null,,black_cross(without_color),1008371,,,yellow,,,,,null,US_Cities_List/leesburg.png,US_Cities_List/huntsville.png,,,,,,,,,,,,,,,,,,
null,,rt_plussign_withcolor,1008874,,,yellow,,,,,null,US_Cities_List/leesburg.png,US_Cities_List/huntsville.png,,,,,,,,,,,,,,,,,,
1319.5,,rt_thecrossant_black,1009884,,,black_plus_sign,,,,,50,,,1,1,,,,,,,,,,,,,,,,
null,,color_black,1010002,,,black_plus_sign,,,,,null,,,,,,,,,,,,,,,,,,,,
null,,learn_phase(without_color),1013031,,,black_plus_sign,,,,,null,US_Cities_List/hanover.png,US_Cities_List/westpalmbeach.png,,,,,,,,,,,,,,,,,,
null,,black_cross(without_color),1013852,,,blue,,,,,null,US_Cities_List/hanover.png,US_Cities_List/westpalmbeach.png,,,,,,,,,,,,,,,,,,
null,,rt_plussign_withcolor,1014355,,,blue,,,,,null,US_Cities_List/hanover.png,US_Cities_List/westpalmbeach.png,,,,,,,,,,,,,,,,,,
1215.5,,rt_thecrossant_black,1015542,,,black_plus_sign,,,,,49,,,1,1,,,,,,,,,,,,,,,,
null,,color_black,1015645,,,black_plus_sign,,,,,null,,,,,,,,,,,,,,,,,,,,
null,,learn_phase(without_color),1018687,,,black_plus_sign,,,,,null,US_Cities_List/leesburg.png,US_Cities_List/newhope.png,,,,,,,,,,,,,,,,,,
null,,black_cross(without_color),1019619,,,yellow,,,,,null,US_Cities_List/leesburg.png,US_Cities_List/newhope.png,,,,,,,,,,,,,,,,,,
460.8000000715256,,rt_plussign_withcolor,1020121,,,yellow,,,,,50,US_Cities_List/leesburg.png,US_Cities_List/newhope.png,,,,,,,,,,,,,,,,,,
null,,rt_thecrossant_black,1021196,,,black_plus_sign,,,,,null,,,1,1,,,,,,,,,,,,,,,,
null,,color_black,1021299,,,black_plus_sign,,,,,null,,,,,,,,,,,,,,,,,,,,
null,,learn_phase(without_color),1024335,,,black_plus_sign,,,,,null,US_Cities_List/leesburg.png,US_Cities_List/carmel.png,,,,,,,,,,,,,,,,,,
null,,black_cross(without_color),1024885,,,blue,,,,,null,US_Cities_List/leesburg.png,US_Cities_List/carmel.png,,,,,,,,,,,,,,,,,,
null,,rt_plussign_withcolor,1025389,,,blue,,,,,null,US_Cities_List/leesburg.png,US_Cities_List/carmel.png,,,,,,,,,,,,,,,,,,
1223.1999999284744,,rt_thecrossant_black,1026847,,,black_plus_sign,,,,,49,,,1,1,,,,,,,,,,,,,,,,
null,,color_black,1026950,,,black_plus_sign,,,,,null,,,,,,,,,,,,,,,,,,,,
null,,learn_phase(without_color),1029992,,,black_plus_sign,,,,,null,US_Cities_List/boulder.png,US_Cities_List/cornwall.png,,,,,,,,,,,,,,,,,,
null,,black_cross(without_color),1030401,,,yellow,,,,,null,US_Cities_List/boulder.png,US_Cities_List/cornwall.png,,,,,,,,,,,,,,,,,,
null,,rt_plussign_withcolor,1030904,,,yellow,,,,,null,US_Cities_List/boulder.png,US_Cities_List/cornwall.png,,,,,,,,,,,,,,,,,,
746.5,,rt_thecrossant_black,1032504,,,black_plus_sign,,,,,50,,,1,1,,,,,,,,,,,,,,,,
null,,color_black,1032609,,,black_plus_sign,,,,,null,,,,,,,,,,,,,,,,,,,,
null,,learn_phase(without_color),1035643,,,black_plus_sign,,,,,null,US_Cities_List/carmel.png,US_Cities_List/leesburg.png,,,,,,,,,,,,,,,,,,
null,,black_cross(without_color),1036687,,,blue,,,,,null,US_Cities_List/carmel.png,US_Cities_List/leesburg.png,,,,,,,,,,,,,,,,,,
null,,rt_plussign_withcolor,1037189,,,blue,,,,,null,US_Cities_List/carmel.png,US_Cities_List/leesburg.png,,,,,,,,,,,,,,,,,,
643,,rt_thecrossant_black,1038153,,,black_plus_sign,,,,,49,,,1,1,,,,,,,,,,,,,,,,
null,,color_black,1038256,,,black_plus_sign,,,,,null,,,,,,,,,,,,,,,,,,,,
null,,learn_phase(without_color),1041283,,,black_plus_sign,,,,,null,US_Cities_List/leesburg.png,US_Cities_List/carmel.png,,,,,,,,,,,,,,,,,,
null,,black_cross(without_color),1042132,,,yellow,,,,,null,US_Cities_List/leesburg.png,US_Cities_List/carmel.png,,,,,,,,,,,,,,,,,,
null,,rt_plussign_withcolor,1042635,,,yellow,,,,,null,US_Cities_List/leesburg.png,US_Cities_List/carmel.png,,,,,,,,,,,,,,,,,,
1284.3999999761581,,rt_thecrossant_black,1043793,,,black_plus_sign,,,,,50,,,1,1,,,,,,,,,,,,,,,,
null,,color_black,1043900,,,black_plus_sign,,,,,null,,,,,,,,,,,,,,,,,,,,
null,,learn_phase(without_color),1046937,,,black_plus_sign,,,,,null,US_Cities_List/boulder.png,US_Cities_List/newhope.png,,,,,,,,,,,,,,,,,,
null,,black_cross(without_color),1047795,,,blue,,,,,null,US_Cities_List/boulder.png,US_Cities_List/newhope.png,,,,,,,,,,,,,,,,,,
null,,rt_plussign_withcolor,1048298,,,blue,,,,,null,US_Cities_List/boulder.png,US_Cities_List/newhope.png,,,,,,,,,,,,,,,,,,
1017.8000000715256,,rt_thecrossant_black,1049447,,,black_plus_sign,,,,,49,,,1,1,,,,,,,,,,,,,,,,
null,,color_black,1049551,,,black_plus_sign,,,,,null,,,,,,,,,,,,,,,,,,,,
null,,learn_phase(without_color),1052566,,,black_plus_sign,,,,,null,US_Cities_List/newhope.png,US_Cities_List/boulder.png,,,,,,,,,,,,,,,,,,
null,,black_cross(without_color),1053244,,,yellow,,,,,null,US_Cities_List/newhope.png,US_Cities_List/boulder.png,,,,,,,,,,,,,,,,,,
null,,rt_plussign_withcolor,1053748,,,yellow,,,,,null,US_Cities_List/newhope.png,US_Cities_List/boulder.png,,,,,,,,,,,,,,,,,,
1325.3999999761581,,rt_thecrossant_black,1055078,,,black_plus_sign,,,,,50,,,1,1,,,,,,,,,,,,,,,,
null,,color_black,1055182,,,black_plus_sign,,,,,null,,,,,,,,,,,,,,,,,,,,
null,,learn_phase(without_color),1058214,,,black_plus_sign,,,,,null,US_Cities_List/peoria.png,US_Cities_List/westpalmbeach.png,,,,,,,,,,,,,,,,,,
null,,black_cross(without_color),1058904,,,blue,,,,,null,US_Cities_List/peoria.png,US_Cities_List/westpalmbeach.png,,,,,,,,,,,,,,,,,,
447.8000000715256,,rt_plussign_withcolor,1059407,,,blue,,,,,49,US_Cities_List/peoria.png,US_Cities_List/westpalmbeach.png,,,,,,,,,,,,,,,,,,
null,,rt_thecrossant_black,1060726,,,black_plus_sign,,,,,null,,,1,1,,,,,,,,,,,,,,,,
null,,color_black,1060829,,,black_plus_sign,,,,,null,,,,,,,,,,,,,,,,,,,,
null,,learn_phase(without_color),1063864,,,black_plus_sign,,,,,null,US_Cities_List/hanover.png,US_Cities_List/westpalmbeach.png,,,,,,,,,,,,,,,,,,
null,,black_cross(without_color),1064501,,,blue,,,,,null,US_Cities_List/hanover.png,US_Cities_List/westpalmbeach.png,,,,,,,,,,,,,,,,,,
null,,rt_plussign_withcolor,1065004,,,blue,,,,,null,US_Cities_List/hanover.png,US_Cities_List/westpalmbeach.png,,,,,,,,,,,,,,,,,,
807.3000000715256,,rt_thecrossant_black,1066374,,,black_plus_sign,,,,,49,,,1,1,,,,,,,,,,,,,,,,
null,,color_black,1066479,,,black_plus_sign,,,,,null,,,,,,,,,,,,,,,,,,,,
null,,learn_phase(without_color),1069511,,,black_plus_sign,,,,,null,US_Cities_List/racine.png,US_Cities_List/hanover.png,,,,,,,,,,,,,,,,,,
null,,black_cross(without_color),1070196,,,blue,,,,,null,US_Cities_List/racine.png,US_Cities_List/hanover.png,,,,,,,,,,,,,,,,,,
null,,rt_plussign_withcolor,1070698,,,blue,,,,,null,US_Cities_List/racine.png,US_Cities_List/hanover.png,,,,,,,,,,,,,,,,,,
741.6999999284744,,rt_thecrossant_black,1072022,,,black_plus_sign,,,,,49,,,1,1,,,,,,,,,,,,,,,,
null,,color_black,1072126,,,black_plus_sign,,,,,null,,,,,,,,,,,,,,,,,,,,
null,,learn_phase(without_color),1075159,,,black_plus_sign,,,,,null,US_Cities_List/gatlinburg.png,US_Cities_List/shreveport.png,,,,,,,,,,,,,,,,,,
null,,black_cross(without_color),1076044,,,yellow,,,,,null,US_Cities_List/gatlinburg.png,US_Cities_List/shreveport.png,,,,,,,,,,,,,,,,,,
null,,rt_plussign_withcolor,1076547,,,yellow,,,,,null,US_Cities_List/gatlinburg.png,US_Cities_List/shreveport.png,,,,,,,,,,,,,,,,,,
955.2999999523163,,rt_thecrossant_black,1077670,,,black_plus_sign,,,,,50,,,1,1,,,,,,,,,,,,,,,,
null,,color_black,1077773,,,black_plus_sign,,,,,null,,,,,,,,,,,,,,,,,,,,
null,,learn_phase(without_color),1080797,,,black_plus_sign,,,,,null,US_Cities_List/racine.png,US_Cities_List/huntsville.png,,,,,,,,,,,,,,,,,,
null,,black_cross(without_color),1081571,,,yellow,,,,,null,US_Cities_List/racine.png,US_Cities_List/huntsville.png,,,,,,,,,,,,,,,,,,
null,,rt_plussign_withcolor,1082074,,,yellow,,,,,null,US_Cities_List/racine.png,US_Cities_List/huntsville.png,,,,,,,,,,,,,,,,,,
1162,,rt_thecrossant_black,1083307,,,black_plus_sign,,,,,50,,,1,1,,,,,,,,,,,,,,,,
null,,color_black,1083410,,,black_plus_sign,,,,,null,,,,,,,,,,,,,,,,,,,,
null,,learn_phase(without_color),1086427,,,black_plus_sign,,,,,null,US_Cities_List/racine.png,US_Cities_List/carmel.png,,,,,,,,,,,,,,,,,,
null,,black_cross(without_color),1087460,,,yellow,,,,,null,US_Cities_List/racine.png,US_Cities_List/carmel.png,,,,,,,,,,,,,,,,,,
451.2000000476837,,rt_plussign_withcolor,1087963,,,yellow,,,,,50,US_Cities_List/racine.png,US_Cities_List/carmel.png,,,,,,,,,,,,,,,,,,
null,,rt_thecrossant_black,1088939,,,black_plus_sign,,,,,null,,,1,1,,,,,,,,,,,,,,,,
null,,color_black,1089042,,,black_plus_sign,,,,,null,,,,,,,,,,,,,,,,,,,,
null,,learn_phase(without_color),1092088,,,black_plus_sign,,,,,null,US_Cities_List/gatlinburg.png,US_Cities_List/carmel.png,,,,,,,,,,,,,,,,,,
null,,black_cross(without_color),1092676,,,yellow,,,,,null,US_Cities_List/gatlinburg.png,US_Cities_List/carmel.png,,,,,,,,,,,,,,,,,,
null,,rt_plussign_withcolor,1093179,,,yellow,,,,,null,US_Cities_List/gatlinburg.png,US_Cities_List/carmel.png,,,,,,,,,,,,,,,,,,
1201.1000000238419,,rt_thecrossant_black,1094600,,,black_plus_sign,,,,,50,,,1,1,,,,,,,,,,,,,,,,
null,,color_black,1094703,,,black_plus_sign,,,,,null,,,,,,,,,,,,,,,,,,,,
null,,learn_phase(without_color),1097744,,,black_plus_sign,,,,,null,US_Cities_List/gatlinburg.png,US_Cities_List/shreveport.png,,,,,,,,,,,,,,,,,,
null,,black_cross(without_color),1098419,,,yellow,,,,,null,US_Cities_List/gatlinburg.png,US_Cities_List/shreveport.png,,,,,,,,,,,,,,,,,,
null,,rt_plussign_withcolor,1098922,,,yellow,,,,,null,US_Cities_List/gatlinburg.png,US_Cities_List/shreveport.png,,,,,,,,,,,,,,,,,,
882.2999999523163,,rt_thecrossant_black,1100256,,,black_plus_sign,,,,,50,,,1,1,,,,,,,,,,,,,,,,
null,,color_black,1100360,,,black_plus_sign,,,,,null,,,,,,,,,,,,,,,,,,,,
null,,learn_phase(without_color),1103389,,,black_plus_sign,,,,,null,US_Cities_List/gatlinburg.png,US_Cities_List/carmel.png,,,,,,,,,,,,,,,,,,
null,,black_cross(without_color),1104292,,,yellow,,,,,null,US_Cities_List/gatlinburg.png,US_Cities_List/carmel.png,,,,,,,,,,,,,,,,,,
null,,rt_plussign_withcolor,1104795,,,yellow,,,,,null,US_Cities_List/gatlinburg.png,US_Cities_List/carmel.png,,,,,,,,,,,,,,,,,,
771.3999999761581,,rt_thecrossant_black,1105902,,,black_plus_sign,,,,,50,,,1,1,,,,,,,,,,,,,,,,
null,,color_black,1106005,,,black_plus_sign,,,,,null,,,,,,,,,,,,,,,,,,,,
null,,learn_phase(without_color),1109048,,,black_plus_sign,,,,,null,US_Cities_List/carmel.png,US_Cities_List/leesburg.png,,,,,,,,,,,,,,,,,,
null,,black_cross(without_color),1109648,,,yellow,,,,,null,US_Cities_List/carmel.png,US_Cities_List/leesburg.png,,,,,,,,,,,,,,,,,,
null,,rt_plussign_withcolor,1110151,,,yellow,,,,,null,US_Cities_List/carmel.png,US_Cities_List/leesburg.png,,,,,,,,,,,,,,,,,,
1098.5,,rt_thecrossant_black,1111570,,,black_plus_sign,,,,,50,,,1,1,,,,,,,,,,,,,,,,
null,,color_black,1111674,,,black_plus_sign,,,,,null,,,,,,,,,,,,,,,,,,,,
null,,learn_phase(without_color),1114719,,,black_plus_sign,,,,,null,US_Cities_List/westpalmbeach.png,US_Cities_List/gatlinburg.png,,,,,,,,,,,,,,,,,,
null,,black_cross(without_color),1115304,,,yellow,,,,,null,US_Cities_List/westpalmbeach.png,US_Cities_List/gatlinburg.png,,,,,,,,,,,,,,,,,,
446.8000000715256,,rt_plussign_withcolor,1115807,,,yellow,,,,,50,US_Cities_List/westpalmbeach.png,US_Cities_List/gatlinburg.png,,,,,,,,,,,,,,,,,,
null,,rt_thecrossant_black,1117230,,,black_plus_sign,,,,,null,,,1,1,,,,,,,,,,,,,,,,
null,,color_black,1117334,,,black_plus_sign,,,,,null,,,,,,,,,,,,,,,,,,,,
null,,learn_phase(without_color),1120379,,,black_plus_sign,,,,,null,US_Cities_List/racine.png,US_Cities_List/hanover.png,,,,,,,,,,,,,,,,,,
null,,black_cross(without_color),1121032,,,yellow,,,,,null,US_Cities_List/racine.png,US_Cities_List/hanover.png,,,,,,,,,,,,,,,,,,
null,,rt_plussign_withcolor,1121535,,,yellow,,,,,null,US_Cities_List/racine.png,US_Cities_List/hanover.png,,,,,,,,,,,,,,,,,,
759.5999999046326,,rt_thecrossant_black,1122899,,,black_plus_sign,,,,,50,,,1,1,,,,,,,,,,,,,,,,
null,,color_black,1123003,,,black_plus_sign,,,,,null,,,,,,,,,,,,,,,,,,,,
null,,learn_phase(without_color),1126062,,,black_plus_sign,,,,,null,US_Cities_List/carmel.png,US_Cities_List/leesburg.png,,,,,,,,,,,,,,,,,,
null,,black_cross(without_color),1126671,,,blue,,,,,null,US_Cities_List/carmel.png,US_Cities_List/leesburg.png,,,,,,,,,,,,,,,,,,
null,,rt_plussign_withcolor,1127174,,,blue,,,,,null,US_Cities_List/carmel.png,US_Cities_List/leesburg.png,,,,,,,,,,,,,,,,,,
847.1000000238419,,rt_thecrossant_black,1128572,,,black_plus_sign,,,,,49,,,1,1,,,,,,,,,,,,,,,,
null,,color_black,1128690,,,black_plus_sign,,,,,null,,,,,,,,,,,,,,,,,,,,
null,,learn_phase(without_color),1131725,,,black_plus_sign,,,,,null,US_Cities_List/newhope.png,US_Cities_List/huntsville.png,,,,,,,,,,,,,,,,,,
null,,black_cross(without_color),1132169,,,yellow,,,,,null,US_Cities_List/newhope.png,US_Cities_List/huntsville.png,,,,,,,,,,,,,,,,,,
null,,rt_plussign_withcolor,1132671,,,yellow,,,,,null,US_Cities_List/newhope.png,US_Cities_List/huntsville.png,,,,,,,,,,,,,,,,,,
759.3000000715256,,rt_thecrossant_black,1134236,,,black_plus_sign,,,,,50,,,1,1,,,,,,,,,,,,,,,,
null,,color_black,1134340,,,black_plus_sign,,,,,null,,,,,,,,,,,,,,,,,,,,
null,,learn_phase(without_color),1137370,,,black_plus_sign,,,,,null,US_Cities_List/huntsville.png,US_Cities_List/racine.png,,,,,,,,,,,,,,,,,,
null,,black_cross(without_color),1138416,,,blue,,,,,null,US_Cities_List/huntsville.png,US_Cities_List/racine.png,,,,,,,,,,,,,,,,,,
null,,rt_plussign_withcolor,1138919,,,blue,,,,,null,US_Cities_List/huntsville.png,US_Cities_List/racine.png,,,,,,,,,,,,,,,,,,
645.7999999523163,,rt_thecrossant_black,1139881,,,black_plus_sign,,,,,49,,,1,1,,,,,,,,,,,,,,,,
null,,color_black,1139984,,,black_plus_sign,,,,,null,,,,,,,,,,,,,,,,,,,,
null,,learn_phase(without_color),1143014,,,black_plus_sign,,,,,null,US_Cities_List/racine.png,US_Cities_List/huntsville.png,,,,,,,,,,,,,,,,,,
null,,black_cross(without_color),1143925,,,yellow,,,,,null,US_Cities_List/racine.png,US_Cities_List/huntsville.png,,,,,,,,,,,,,,,,,,
null,,rt_plussign_withcolor,1144428,,,yellow,,,,,null,US_Cities_List/racine.png,US_Cities_List/huntsville.png,,,,,,,,,,,,,,,,,,
1354.6999999284744,,rt_thecrossant_black,1145526,,,black_plus_sign,,,,,50,,,1,1,,,,,,,,,,,,,,,,
null,,color_black,1145629,,,black_plus_sign,,,,,null,,,,,,,,,,,,,,,,,,,,
null,,learn_phase(without_color),1148674,,,black_plus_sign,,,,,null,US_Cities_List/gatlinburg.png,US_Cities_List/westpalmbeach.png,,,,,,,,,,,,,,,,,,
null,,black_cross(without_color),1149284,,,blue,,,,,null,US_Cities_List/gatlinburg.png,US_Cities_List/westpalmbeach.png,,,,,,,,,,,,,,,,,,
null,,rt_plussign_withcolor,1149787,,,blue,,,,,null,US_Cities_List/gatlinburg.png,US_Cities_List/westpalmbeach.png,,,,,,,,,,,,,,,,,,
1080.5999999046326,,rt_thecrossant_black,1151186,,,black_plus_sign,,,,,49,,,1,1,,,,,,,,,,,,,,,,
null,,color_black,1151290,,,black_plus_sign,,,,,null,,,,,,,,,,,,,,,,,,,,
null,,learn_phase(without_color),1154323,,,black_plus_sign,,,,,null,US_Cities_List/gatlinburg.png,US_Cities_List/shreveport.png,,,,,,,,,,,,,,,,,,
null,,black_cross(without_color),1155099,,,blue,,,,,null,US_Cities_List/gatlinburg.png,US_Cities_List/shreveport.png,,,,,,,,,,,,,,,,,,
null,,rt_plussign_withcolor,1155602,,,blue,,,,,null,US_Cities_List/gatlinburg.png,US_Cities_List/shreveport.png,,,,,,,,,,,,,,,,,,
760.0999999046326,,rt_thecrossant_black,1156835,,,black_plus_sign,,,,,49,,,1,1,,,,,,,,,,,,,,,,
null,,color_black,1156939,,,black_plus_sign,,,,,null,,,,,,,,,,,,,,,,,,,,
null,,learn_phase(without_color),1159964,,,black_plus_sign,,,,,null,US_Cities_List/huntsville.png,US_Cities_List/leesburg.png,,,,,,,,,,,,,,,,,,
null,,black_cross(without_color),1160492,,,blue,,,,,null,US_Cities_List/huntsville.png,US_Cities_List/leesburg.png,,,,,,,,,,,,,,,,,,
476.89999997615814,,rt_plussign_withcolor,1160994,,,blue,,,,,49,US_Cities_List/huntsville.png,US_Cities_List/leesburg.png,,,,,,,,,,,,,,,,,,
null,,rt_thecrossant_black,1162479,,,black_plus_sign,,,,,null,,,1,1,,,,,,,,,,,,,,,,
null,,color_black,1162584,,,black_plus_sign,,,,,null,,,,,,,,,,,,,,,,,,,,
null,,learn_phase(without_color),1165619,,,black_plus_sign,,,,,null,US_Cities_List/carmel.png,US_Cities_List/gatlinburg.png,,,,,,,,,,,,,,,,,,
null,,black_cross(without_color),1166289,,,yellow,,,,,null,US_Cities_List/carmel.png,US_Cities_List/gatlinburg.png,,,,,,,,,,,,,,,,,,
null,,rt_plussign_withcolor,1166791,,,yellow,,,,,null,US_Cities_List/carmel.png,US_Cities_List/gatlinburg.png,,,,,,,,,,,,,,,,,,
630.7999999523163,,rt_thecrossant_black,1168129,,,black_plus_sign,,,,,50,,,1,1,,,,,,,,,,,,,,,,
null,,color_black,1168234,,,black_plus_sign,,,,,null,,,,,,,,,,,,,,,,,,,,
null,,learn_phase(without_color),1171264,,,black_plus_sign,,,,,null,US_Cities_List/newhope.png,US_Cities_List/huntsville.png,,,,,,,,,,,,,,,,,,
null,,black_cross(without_color),1171812,,,blue,,,,,null,US_Cities_List/newhope.png,US_Cities_List/huntsville.png,,,,,,,,,,,,,,,,,,
null,,rt_plussign_withcolor,1172314,,,blue,,,,,null,US_Cities_List/newhope.png,US_Cities_List/huntsville.png,,,,,,,,,,,,,,,,,,
null,,rt_thecrossant_black,1173777,,,black_plus_sign,,,,,null,,,,1,,,,,,,,,,,,,,,,
null,,color_black,1173880,,,black_plus_sign,,,,,null,,,,,,,,,,,,,,,,,,,,
null,,learn_phase(without_color),1176904,,,black_plus_sign,,,,,null,US_Cities_List/huntsville.png,US_Cities_List/boulder.png,,,,,,,,,,,,,,,,,,
null,,black_cross(without_color),1177933,,,blue,,,,,null,US_Cities_List/huntsville.png,US_Cities_List/boulder.png,,,,,,,,,,,,,,,,,,
499.09999990463257,,rt_plussign_withcolor,1178436,,,blue,,,,,49,US_Cities_List/huntsville.png,US_Cities_List/boulder.png,,,,,,,,,,,,,,,,,,
null,,rt_thecrossant_black,1179415,,,black_plus_sign,,,,,null,,,1,1,,,,,,,,,,,,,,,,
null,,color_black,1179519,,,black_plus_sign,,,,,null,,,,,,,,,,,,,,,,,,,,
13263.5,,learn_break,1192787,,,learn_break,,,,,32,,,,,,,,,,,,,,,,,,,,
31931.300000071526,,intro_1,1224723,,,instruct,,,0,,,,,,,,,,,,,,,,,,,,,,
15379.899999976158,,intro_2,1240107,,,instruct,,,1,Next,,,,,,,,,,,,,,,,,,,,,
5644.5,,directmemory_phase,1245778,,,../static/images/US_Cities_List/hotsprings.png,,,,,50,,,1,1,../static/images/US_Cities_List/huntsville.png,../static/images/US_Cities_List/newhope.png,../static/images/US_Cities_List/carmel.png,../static/images/US_Cities_List/newhope.png,../static/images/US_Cities_List/huntsville.png,../static/images/US_Cities_List/carmel.png,1,,,,,,,,,
null,,html-keyboard-response,1246783,,,<p></p>,,,,,null,,,,,,,,,,,,,,,,,,,,
3143.8000000715256,,directmemory_phase,1249982,,,../static/images/US_Cities_List/westpalmbeach.png,,,,,49,,,1,1,../static/images/US_Cities_List/gatlinburg.png,../static/images/US_Cities_List/boulder.png,../static/images/US_Cities_List/carmel.png,../static/images/US_Cities_List/gatlinburg.png,../static/images/US_Cities_List/carmel.png,../static/images/US_Cities_List/boulder.png,1,,,,,,,,,
null,,html-keyboard-response,1250986,,,<p></p>,,,,,null,,,,,,,,,,,,,,,,,,,,
5300.600000023842,,directmemory_phase,1256354,,,../static/images/US_Cities_List/racine.png,,,,,50,,,1,1,../static/images/US_Cities_List/newhope.png,../static/images/US_Cities_List/carmel.png,../static/images/US_Cities_List/shreveport.png,../static/images/US_Cities_List/carmel.png,../static/images/US_Cities_List/newhope.png,../static/images/US_Cities_List/shreveport.png,1,,,,,,,,,
null,,html-keyboard-response,1257359,,,<p></p>,,,,,null,,,,,,,,,,,,,,,,,,,,
2694.5999999046326,,directmemory_phase,1260098,,,../static/images/US_Cities_List/westpalmbeach.png,,,,,51,,,1,1,../static/images/US_Cities_List/leesburg.png,../static/images/US_Cities_List/shreveport.png,../static/images/US_Cities_List/hanover.png,../static/images/US_Cities_List/hanover.png,../static/images/US_Cities_List/shreveport.png,../static/images/US_Cities_List/leesburg.png,1,,,,,,,,,
null,,html-keyboard-response,1261101,,,<p></p>,,,,,null,,,,,,,,,,,,,,,,,,,,
3510.7999999523163,,directmemory_phase,1264659,,,../static/images/US_Cities_List/huntsville.png,,,,,49,,,1,1,../static/images/US_Cities_List/leesburg.png,../static/images/US_Cities_List/westpalmbeach.png,../static/images/US_Cities_List/cornwall.png,../static/images/US_Cities_List/leesburg.png,../static/images/US_Cities_List/cornwall.png,../static/images/US_Cities_List/westpalmbeach.png,1,,,,,,,,,
null,,html-keyboard-response,1265664,,,<p></p>,,,,,null,,,,,,,,,,,,,,,,,,,,
3643.399999976158,,directmemory_phase,1269359,,,../static/images/US_Cities_List/shreveport.png,,,,,51,,,1,1,../static/images/US_Cities_List/newhope.png,../static/images/US_Cities_List/westpalmbeach.png,../static/images/US_Cities_List/gatlinburg.png,../static/images/US_Cities_List/gatlinburg.png,../static/images/US_Cities_List/westpalmbeach.png,../static/images/US_Cities_List/newhope.png,1,,,,,,,,,
null,,html-keyboard-response,1270363,,,<p></p>,,,,,null,,,,,,,,,,,,,,,,,,,,
3275.7000000476837,,directmemory_phase,1273679,,,../static/images/US_Cities_List/boulder.png,,,,,51,,,1,1,../static/images/US_Cities_List/carmel.png,../static/images/US_Cities_List/leesburg.png,../static/images/US_Cities_List/huntsville.png,../static/images/US_Cities_List/huntsville.png,../static/images/US_Cities_List/leesburg.png,../static/images/US_Cities_List/carmel.png,1,,,,,,,,,
null,,html-keyboard-response,1274683,,,<p></p>,,,,,null,,,,,,,,,,,,,,,,,,,,
4789.100000023842,,directmemory_phase,1279524,,,../static/images/US_Cities_List/carmel.png,,,,,51,,,1,1,../static/images/US_Cities_List/peoria.png,../static/images/US_Cities_List/westpalmbeach.png,../static/images/US_Cities_List/gatlinburg.png,../static/images/US_Cities_List/gatlinburg.png,../static/images/US_Cities_List/westpalmbeach.png,../static/images/US_Cities_List/peoria.png,1,,,,,,,,,
null,,html-keyboard-response,1280528,,,<p></p>,,,,,null,,,,,,,,,,,,,,,,,,,,
5030.299999952316,,directmemory_phase,1285616,,,../static/images/US_Cities_List/boulder.png,,,,,51,,,1,1,../static/images/US_Cities_List/gatlinburg.png,../static/images/US_Cities_List/leesburg.png,../static/images/US_Cities_List/newhope.png,../static/images/US_Cities_List/newhope.png,../static/images/US_Cities_List/leesburg.png,../static/images/US_Cities_List/gatlinburg.png,1,,,,,,,,,
null,,html-keyboard-response,1286620,,,<p></p>,,,,,null,,,,,,,,,,,,,,,,,,,,
2696.8000000715256,,directmemory_phase,1289380,,,../static/images/US_Cities_List/hanover.png,,,,,50,,,1,1,../static/images/US_Cities_List/gatlinburg.png,../static/images/US_Cities_List/westpalmbeach.png,../static/images/US_Cities_List/newhope.png,../static/images/US_Cities_List/westpalmbeach.png,../static/images/US_Cities_List/gatlinburg.png,../static/images/US_Cities_List/newhope.png,1,,,,,,,,,
null,,html-keyboard-response,1290385,,,<p></p>,,,,,null,,,,,,,,,,,,,,,,,,,,
3423,,directmemory_phase,1293882,,,../static/images/US_Cities_List/huntsville.png,,,,,51,,,1,1,../static/images/US_Cities_List/peoria.png,../static/images/US_Cities_List/cornwall.png,../static/images/US_Cities_List/newhope.png,../static/images/US_Cities_List/newhope.png,../static/images/US_Cities_List/cornwall.png,../static/images/US_Cities_List/peoria.png,1,,,,,,,,,
null,,html-keyboard-response,1294885,,,<p></p>,,,,,null,,,,,,,,,,,,,,,,,,,,
null,,directmemory_phase,1301438,,,../static/images/US_Cities_List/cornwall.png,,,,,null,,,0,0.9166666666666666,../static/images/US_Cities_List/huntsville.png,../static/images/US_Cities_List/boulder.png,../static/images/US_Cities_List/racine.png,../static/images/US_Cities_List/boulder.png,../static/images/US_Cities_List/huntsville.png,../static/images/US_Cities_List/racine.png,0,,,,,,,,,
null,,warning_page,1304442,,,warning,,,,,null,,,,,,,,,,,,,,,,,,,,
null,,html-keyboard-response,1305445,,,<p></p>,,,,,null,,,,,,,,,,,,,,,,,,,,
2909.899999976158,,directmemory_phase,1308409,,,../static/images/US_Cities_List/gatlinburg.png,,,,,51,,,1,0.9230769230769231,../static/images/US_Cities_List/huntsville.png,../static/images/US_Cities_List/peoria.png,../static/images/US_Cities_List/shreveport.png,../static/images/US_Cities_List/shreveport.png,../static/images/US_Cities_List/peoria.png,../static/images/US_Cities_List/huntsville.png,1,,,,,,,,,
null,,html-keyboard-response,1309413,,,<p></p>,,,,,null,,,,,,,,,,,,,,,,,,,,
3800.600000023842,,directmemory_phase,1313268,,,../static/images/US_Cities_List/newhope.png,,,,,49,,,1,0.9285714285714286,../static/images/US_Cities_List/boulder.png,../static/images/US_Cities_List/gatlinburg.png,../static/images/US_Cities_List/racine.png,../static/images/US_Cities_List/boulder.png,../static/images/US_Cities_List/racine.png,../static/images/US_Cities_List/gatlinburg.png,1,,,,,,,,,
null,,html-keyboard-response,1314272,,,<p></p>,,,,,null,,,,,,,,,,,,,,,,,,,,
null,,directmemory_phase,1320841,,,../static/images/US_Cities_List/huntsville.png,,,,,null,,,0,0.8666666666666667,../static/images/US_Cities_List/shreveport.png,../static/images/US_Cities_List/hanover.png,../static/images/US_Cities_List/racine.png,../static/images/US_Cities_List/racine.png,../static/images/US_Cities_List/hanover.png,../static/images/US_Cities_List/shreveport.png,0,,,,,,,,,
null,,warning_page,1323845,,,warning,,,,,null,,,,,,,,,,,,,,,,,,,,
null,,html-keyboard-response,1324848,,,<p></p>,,,,,null,,,,,,,,,,,,,,,,,,,,
2697.2000000476837,,directmemory_phase,1327585,,,../static/images/US_Cities_List/gatlinburg.png,,,,,51,,,1,0.875,../static/images/US_Cities_List/huntsville.png,../static/images/US_Cities_List/racine.png,../static/images/US_Cities_List/westpalmbeach.png,../static/images/US_Cities_List/westpalmbeach.png,../static/images/US_Cities_List/racine.png,../static/images/US_Cities_List/huntsville.png,1,,,,,,,,,
null,,html-keyboard-response,1328590,,,<p></p>,,,,,null,,,,,,,,,,,,,,,,,,,,
2284.399999976158,,directmemory_phase,1330927,,,../static/images/US_Cities_List/racine.png,,,,,51,,,1,0.8823529411764706,../static/images/US_Cities_List/cornwall.png,../static/images/US_Cities_List/leesburg.png,../static/images/US_Cities_List/hanover.png,../static/images/US_Cities_List/hanover.png,../static/images/US_Cities_List/leesburg.png,../static/images/US_Cities_List/cornwall.png,1,,,,,,,,,
null,,html-keyboard-response,1331931,,,<p></p>,,,,,null,,,,,,,,,,,,,,,,,,,,
2357.3000000715256,,directmemory_phase,1334345,,,../static/images/US_Cities_List/leesburg.png,,,,,51,,,1,0.8888888888888888,../static/images/US_Cities_List/cornwall.png,../static/images/US_Cities_List/racine.png,../static/images/US_Cities_List/huntsville.png,../static/images/US_Cities_List/huntsville.png,../static/images/US_Cities_List/racine.png,../static/images/US_Cities_List/cornwall.png,1,,,,,,,,,
null,,html-keyboard-response,1335349,,,<p></p>,,,,,null,,,,,,,,,,,,,,,,,,,,
4479.5,,directmemory_phase,1339870,,,../static/images/US_Cities_List/newhope.png,,,,,49,,,1,0.8947368421052632,../static/images/US_Cities_List/hotsprings.png,../static/images/US_Cities_List/westpalmbeach.png,../static/images/US_Cities_List/carmel.png,../static/images/US_Cities_List/hotsprings.png,../static/images/US_Cities_List/carmel.png,../static/images/US_Cities_List/westpalmbeach.png,1,,,,,,,,,
null,,html-keyboard-response,1340874,,,<p></p>,,,,,null,,,,,,,,,,,,,,,,,,,,
5102.800000071526,,directmemory_phase,1346023,,,../static/images/US_Cities_List/racine.png,,,,,50,,,0,0.85,../static/images/US_Cities_List/shreveport.png,../static/images/US_Cities_List/westpalmbeach.png,../static/images/US_Cities_List/huntsville.png,../static/images/US_Cities_List/huntsville.png,../static/images/US_Cities_List/westpalmbeach.png,../static/images/US_Cities_List/shreveport.png,0.5,closer,,,,,,,,
null,,html-keyboard-response,1347027,,,<p></p>,,,,,null,,,,,,,,,,,,,,,,,,,,
4948.200000047684,,directmemory_phase,1352039,,,../static/images/US_Cities_List/peoria.png,,,,,49,,,0,0.8095238095238095,../static/images/US_Cities_List/racine.png,../static/images/US_Cities_List/hanover.png,../static/images/US_Cities_List/westpalmbeach.png,../static/images/US_Cities_List/westpalmbeach.png,../static/images/US_Cities_List/hanover.png,../static/images/US_Cities_List/racine.png,0.5,closer,,,,,,,,
null,,html-keyboard-response,1353043,,,<p></p>,,,,,null,,,,,,,,,,,,,,,,,,,,
3877.6999999284744,,directmemory_phase,1357000,,,../static/images/US_Cities_List/newhope.png,,,,,51,,,1,0.8181818181818182,../static/images/US_Cities_List/westpalmbeach.png,../static/images/US_Cities_List/racine.png,../static/images/US_Cities_List/huntsville.png,../static/images/US_Cities_List/huntsville.png,../static/images/US_Cities_List/racine.png,../static/images/US_Cities_List/westpalmbeach.png,1,,,,,,,,,
null,,html-keyboard-response,1358004,,,<p></p>,,,,,null,,,,,,,,,,,,,,,,,,,,
5521.200000047684,,directmemory_phase,1363581,,,../static/images/US_Cities_List/carmel.png,,,,,49,,,0,0.782608695652174,../static/images/US_Cities_List/cornwall.png,../static/images/US_Cities_List/shreveport.png,../static/images/US_Cities_List/leesburg.png,../static/images/US_Cities_List/leesburg.png,../static/images/US_Cities_List/shreveport.png,../static/images/US_Cities_List/cornwall.png,0.5,closer,,,,,,,,
null,,html-keyboard-response,1364586,,,<p></p>,,,,,null,,,,,,,,,,,,,,,,,,,,
3847,,directmemory_phase,1368483,,,../static/images/US_Cities_List/huntsville.png,,,,,49,,,1,0.7916666666666666,../static/images/US_Cities_List/boulder.png,../static/images/US_Cities_List/shreveport.png,../static/images/US_Cities_List/cornwall.png,../static/images/US_Cities_List/boulder.png,../static/images/US_Cities_List/cornwall.png,../static/images/US_Cities_List/shreveport.png,1,,,,,,,,,
null,,html-keyboard-response,1369489,,,<p></p>,,,,,null,,,,,,,,,,,,,,,,,,,,
5917.800000071526,,directmemory_phase,1375450,,,../static/images/US_Cities_List/leesburg.png,,,,,51,,,1,0.8,../static/images/US_Cities_List/shreveport.png,../static/images/US_Cities_List/racine.png,../static/images/US_Cities_List/carmel.png,../static/images/US_Cities_List/carmel.png,../static/images/US_Cities_List/racine.png,../static/images/US_Cities_List/shreveport.png,1,,,,,,,,,
null,,html-keyboard-response,1376456,,,<p></p>,,,,,null,,,,,,,,,,,,,,,,,,,,
2703.7000000476837,,directmemory_phase,1379218,,,../static/images/US_Cities_List/westpalmbeach.png,,,,,49,,,1,0.8076923076923077,../static/images/US_Cities_List/peoria.png,../static/images/US_Cities_List/leesburg.png,../static/images/US_Cities_List/racine.png,../static/images/US_Cities_List/peoria.png,../static/images/US_Cities_List/racine.png,../static/images/US_Cities_List/leesburg.png,1,,,,,,,,,
null,,html-keyboard-response,1380224,,,<p></p>,,,,,null,,,,,,,,,,,,,,,,,,,,
3688.600000023842,,directmemory_phase,1383958,,,../static/images/US_Cities_List/carmel.png,,,,,51,,,1,0.8148148148148148,../static/images/US_Cities_List/boulder.png,../static/images/US_Cities_List/newhope.png,../static/images/US_Cities_List/racine.png,../static/images/US_Cities_List/racine.png,../static/images/US_Cities_List/newhope.png,../static/images/US_Cities_List/boulder.png,1,,,,,,,,,
null,,html-keyboard-response,1384963,,,<p></p>,,,,,null,,,,,,,,,,,,,,,,,,,,
6358,,directmemory_phase,1391385,,,../static/images/US_Cities_List/boulder.png,,,,,51,,,1,0.8214285714285714,../static/images/US_Cities_List/hanover.png,../static/images/US_Cities_List/hotsprings.png,../static/images/US_Cities_List/cornwall.png,../static/images/US_Cities_List/cornwall.png,../static/images/US_Cities_List/hotsprings.png,../static/images/US_Cities_List/hanover.png,1,,,,,,,,,
null,,html-keyboard-response,1392390,,,<p></p>,,,,,null,,,,,,,,,,,,,,,,,,,,
2730.9000000953674,,directmemory_phase,1395168,,,../static/images/US_Cities_List/gatlinburg.png,,,,,50,,,1,0.8275862068965517,../static/images/US_Cities_List/racine.png,../static/images/US_Cities_List/carmel.png,../static/images/US_Cities_List/huntsville.png,../static/images/US_Cities_List/carmel.png,../static/images/US_Cities_List/racine.png,../static/images/US_Cities_List/huntsville.png,1,,,,,,,,,
null,,html-keyboard-response,1396173,,,<p></p>,,,,,null,,,,,,,,,,,,,,,,,,,,
2525.8000000715256,,directmemory_phase,1398753,,,../static/images/US_Cities_List/leesburg.png,,,,,51,,,1,0.8333333333333334,../static/images/US_Cities_List/shreveport.png,../static/images/US_Cities_List/racine.png,../static/images/US_Cities_List/newhope.png,../static/images/US_Cities_List/newhope.png,../static/images/US_Cities_List/racine.png,../static/images/US_Cities_List/shreveport.png,1,,,,,,,,,
null,,html-keyboard-response,1399756,,,<p></p>,,,,,null,,,,,,,,,,,,,,,,,,,,
null,,directmemory_phase,1406301,,,../static/images/US_Cities_List/hanover.png,,,,,null,,,0,0.8064516129032258,../static/images/US_Cities_List/boulder.png,../static/images/US_Cities_List/gatlinburg.png,../static/images/US_Cities_List/racine.png,../static/images/US_Cities_List/racine.png,../static/images/US_Cities_List/gatlinburg.png,../static/images/US_Cities_List/boulder.png,0,,,,,,,,,
null,,warning_page,1409306,,,warning,,,,,null,,,,,,,,,,,,,,,,,,,,
null,,html-keyboard-response,1410309,,,<p></p>,,,,,null,,,,,,,,,,,,,,,,,,,,
2177.100000023842,,directmemory_phase,1412533,,,../static/images/US_Cities_List/newhope.png,,,,,51,,,1,0.8125,../static/images/US_Cities_List/gatlinburg.png,../static/images/US_Cities_List/cornwall.png,../static/images/US_Cities_List/leesburg.png,../static/images/US_Cities_List/leesburg.png,../static/images/US_Cities_List/cornwall.png,../static/images/US_Cities_List/gatlinburg.png,1,,,,,,,,,
null,,html-keyboard-response,1413539,,,<p></p>,,,,,null,,,,,,,,,,,,,,,,,,,,
13815.399999976158,,intro_1,1427356,,,instruct,,,0,,,,,,,,,,,,,,,,,,,,,,
8845,,intro_2,1436205,,,instruct,,,1,Next,,,,,,,,,,,,,,,,,,,,,
6946.5,,intro_3,1443156,,,instruct,,,1,Next,,,,,,,,,,,,,,,,,,,,,
8898.200000047684,,intro_4,1452057,,,instruct,,,1,Next,,,,,,,,,,,,,,,,,,,,,
11933.899999976158,,intro_5,1463995,,,instruct,,,1,Next,,,,,,,,,,,,,,,,,,,,,
4071.600000023842,,intro_6,1468070,,,instruct,,,1,Next,,,,,,,,,,,,,,,,,,,,,
8527,,intro_7,1476601,,,instruct,,,1,Next,,,,,,,,,,,,,,,,,,,,,
17197.700000047684,,intro_8,1493803,,,instruct,,,1,Next,,,,,,,,,,,,,,,,,,,,,
10014.799999952316,,intro_9,1503821,,,instruct,,,1,Next,,,,,,,,,,,,,,,,,,,,,
9942.700000047684,,intro_10,1513767,,,instruct,,,1,Next,,,,,,,,,,,,,,,,,,,,,
41488.89999997616,,intro_11,1555260,,,instruct,,,1,Next,,,,,,,,,,,,,,,,,,,,,
6301.199999928474,,shortestpath_phase,1561591,,,../static/images/US_Cities_List/carmel.png,,,,,50,../static/images/US_Cities_List/cornwall.png,../static/images/US_Cities_List/westpalmbeach.png,1,1,,,,../static/images/US_Cities_List/westpalmbeach.png,,,,,Two Edge Diff,Two Edge Four Edge,,,,,,
null,,html-keyboard-response,1562596,,,<p></p>,,,,,null,,,,,,,,,,,,,,,,,,,,
3474.2000000476837,,shortestpath_phase,1566111,,,../static/images/US_Cities_List/boulder.png,,,,,49,../static/images/US_Cities_List/leesburg.png,../static/images/US_Cities_List/peoria.png,1,1,,,,../static/images/US_Cities_List/leesburg.png,,,,,Three Edge Diff,Three Edge Six Edge,,,,,,
null,,html-keyboard-response,1567115,,,<p></p>,,,,,null,,,,,,,,,,,,,,,,,,,,
4469.700000047684,,shortestpath_phase,1571634,,,../static/images/US_Cities_List/cornwall.png,,,,,49,../static/images/US_Cities_List/racine.png,../static/images/US_Cities_List/westpalmbeach.png,1,1,,,,../static/images/US_Cities_List/racine.png,,,,,Two Edge Diff,Three Edge Five Edge,,,,,,
null,,html-keyboard-response,1572638,,,<p></p>,,,,,null,,,,,,,,,,,,,,,,,,,,
2827.899999976158,,shortestpath_phase,1575507,,,../static/images/US_Cities_List/leesburg.png,,,,,50,../static/images/US_Cities_List/shreveport.png,../static/images/US_Cities_List/peoria.png,0,0.75,,,,../static/images/US_Cities_List/shreveport.png,,,,,One Edge Diff,Three Edge Four Edge,,,,,,
null,,html-keyboard-response,1576511,,,<p></p>,,,,,null,,,,,,,,,,,,,,,,,,,,
4462.299999952316,,shortestpath_phase,1581008,,,../static/images/US_Cities_List/hanover.png,,,,,50,../static/images/US_Cities_List/huntsville.png,../static/images/US_Cities_List/boulder.png,0,0.6,,,,../static/images/US_Cities_List/huntsville.png,,,,,One Edge Diff,Two Edge Three Edge,,,,,,
null,,html-keyboard-response,1582011,,,<p></p>,,,,,null,,,,,,,,,,,,,,,,,,,,
6259.399999976158,,shortestpath_phase,1588306,,,../static/images/US_Cities_List/gatlinburg.png,,,,,50,../static/images/US_Cities_List/racine.png,../static/images/US_Cities_List/hotsprings.png,0,0.5,,,,../static/images/US_Cities_List/racine.png,,,,,Two Edge Diff,Two Edge Four Edge,,,,,,
null,,html-keyboard-response,1589319,,,<p></p>,,,,,null,,,,,,,,,,,,,,,,,,,,
4834.099999904633,,shortestpath_phase,1594205,,,../static/images/US_Cities_List/peoria.png,,,,,49,../static/images/US_Cities_List/hanover.png,../static/images/US_Cities_List/hotsprings.png,1,0.5714285714285714,,,,../static/images/US_Cities_List/hanover.png,,,,,Four Edge Diff,Two Edge Six Edge,,,,,,
null,,html-keyboard-response,1595210,,,<p></p>,,,,,null,,,,,,,,,,,,,,,,,,,,
5735.599999904633,,shortestpath_phase,1600981,,,../static/images/US_Cities_List/hotsprings.png,,,,,50,../static/images/US_Cities_List/racine.png,../static/images/US_Cities_List/gatlinburg.png,0,0.5,,,,../static/images/US_Cities_List/racine.png,,,,,One Edge Diff,Three Edge Four Edge,,,,,,
null,,html-keyboard-response,1601985,,,<p></p>,,,,,null,,,,,,,,,,,,,,,,,,,,
5100.299999952316,,shortestpath_phase,1607138,,,../static/images/US_Cities_List/peoria.png,,,,,49,../static/images/US_Cities_List/hotsprings.png,../static/images/US_Cities_List/gatlinburg.png,0,0.4444444444444444,,,,../static/images/US_Cities_List/gatlinburg.png,,,,,Four Edge Diff,Two Edge Six Edge,,,,,,
null,,html-keyboard-response,1608143,,,<p></p>,,,,,null,,,,,,,,,,,,,,,,,,,,
3702.6999999284744,,shortestpath_phase,1611899,,,../static/images/US_Cities_List/shreveport.png,,,,,50,../static/images/US_Cities_List/hotsprings.png,../static/images/US_Cities_List/racine.png,1,0.5,,,,../static/images/US_Cities_List/racine.png,,,,,Two Edge Diff,Three Edge Five Edge,,,,,,
null,,html-keyboard-response,1612904,,,<p></p>,,,,,null,,,,,,,,,,,,,,,,,,,,
4898.600000023842,,shortestpath_phase,1617851,,,../static/images/US_Cities_List/hotsprings.png,,,,,50,../static/images/US_Cities_List/huntsville.png,../static/images/US_Cities_List/westpalmbeach.png,0,0.45454545454545453,,,,../static/images/US_Cities_List/huntsville.png,,,,,Three Edge Diff,Two Edge Five Edge,,,,,,
null,,html-keyboard-response,1618858,,,<p></p>,,,,,null,,,,,,,,,,,,,,,,,,,,
3133.100000023842,,shortestpath_phase,1622039,,,../static/images/US_Cities_List/westpalmbeach.png,,,,,50,../static/images/US_Cities_List/shreveport.png,../static/images/US_Cities_List/hotsprings.png,0,0.4166666666666667,,,,../static/images/US_Cities_List/shreveport.png,,,,,Three Edge Diff,Two Edge Five Edge,,,,,,
null,,html-keyboard-response,1623044,,,<p></p>,,,,,null,,,,,,,,,,,,,,,,,,,,
3413.3000000715256,,shortestpath_phase,1626506,,,../static/images/US_Cities_List/huntsville.png,,,,,50,../static/images/US_Cities_List/gatlinburg.png,../static/images/US_Cities_List/peoria.png,0,0.38461538461538464,,,,../static/images/US_Cities_List/gatlinburg.png,,,,,One Edge Diff,Three Edge Four Edge,,,,,,
null,,html-keyboard-response,1627510,,,<p></p>,,,,,null,,,,,,,,,,,,,,,,,,,,
2843.1999999284744,,shortestpath_phase,1630392,,,../static/images/US_Cities_List/boulder.png,,,,,50,../static/images/US_Cities_List/shreveport.png,../static/images/US_Cities_List/hotsprings.png,1,0.42857142857142855,,,,../static/images/US_Cities_List/hotsprings.png,,,,,Three Edge Diff,Two Edge Five Edge,,,,,,
null,,html-keyboard-response,1631397,,,<p></p>,,,,,null,,,,,,,,,,,,,,,,,,,,
