rt,responses,trial_type,time_elapsed,image_type,sequence,stimulus,cities,city_images,button_pressed,response,key_press,stimulus_left,stimulus_right,accuracy,cumulative_accuracy,stimulus_down_left,stimulus_down_mid,stimulus_down_right,stimulus_correct,stimulus_short,stimulus_far,weighted_accuracy,missedtrial,condition,specific_pairs,imgL_ID,imgR_ID,linedress,linedressed,linedressed_detor,detour_trial
6555.300000011921,{worker_id:5da8768c2a921500145c6a0d},id_enter,6560,fictional,interleaved,flights,Hollendale; North Arroya; Cedarwyn; Delaro Park; Hawthorne Bluffs; Orchard Bend; Sunmere; New Verdan; Baymarsh; Claywater; Riverlyn; Granton Ridge; Juniper Creek,US_Cities_List/carmel.png; US_Cities_List/newhope.png; US_Cities_List/huntsville.png; US_Cities_List/cornwall.png; US_Cities_List/shreveport.png; US_Cities_List/peoria.png; US_Cities_List/hotsprings.png; US_Cities_List/racine.png; US_Cities_List/leesburg.png; US_Cities_List/boulder.png; US_Cities_List/westpalmbeach.png; US_Cities_List/hanover.png; US_Cities_List/gatlinburg.png,,,,,,,,,,,,,,,,,,,,,,,
18733.69999998808,,fullscreen,25300,,,make_fullscreen,,,0,,,,,,,,,,,,,,,,,,,,,,
5145.5999999940395,,intro_1,30450,,,instruct,,,0,,,,,,,,,,,,,,,,,,,,,,
76354.69999998808,,intro_2,106808,,,instruct,,,1,Next,,,,,,,,,,,,,,,,,,,,,
26875,,intro_3,133685,,,instruct,,,1,Next,,,,,,,,,,,,,,,,,,,,,
49943.40000000596,,intro_4,183630,,,instruct,,,1,Next,,,,,,,,,,,,,,,,,,,,,
6758.5999999940395,,intro_5,190390,,,instruct,,,1,Next,,,,,,,,,,,,,,,,,,,,,
17219.09999999404,,intro_6,207611,,,instruct,,,1,Next,,,,,,,,,,,,,,,,,,,,,
71265.40000000596,,intro_7,278877,,,instruct,,,1,Next,,,,,,,,,,,,,,,,,,,,,
null,,learn_prac_1,281880,,,lean_prac_1,,,,,null,,,,,,,,,,,,,,,,,,,,
null,,html-keyboard-response,282883,,,<p></p>,,,,,null,,,,,,,,,,,,,,,,,,,,
7838.9000000059605,,intro_1,290724,,,instruct,,,0,,,,,,,,,,,,,,,,,,,,,,
13432.200000017881,,intro_2,304157,,,instruct,,,1,Next,,,,,,,,,,,,,,,,,,,,,
null,,learn_prac_2,307159,,,lean_prac_2,,,,,null,,,,,,,,,,,,,,,,,,,,
null,,html-keyboard-response,308161,,,<p></p>,,,,,null,,,,,,,,,,,,,,,,,,,,
11650.59999999404,,intro_1,319813,,,instruct,,,0,,,,,,,,,,,,,,,,,,,,,,
29071.30000001192,,intro_2,348886,,,instruct,,,1,Next,,,,,,,,,,,,,,,,,,,,,
12139.299999982119,,intro_3,361027,,,instruct,,,1,Next,,,,,,,,,,,,,,,,,,,,,
null,,prac_atten_color_black,361826,,,black_plus_sign,,,,,null,,,,,,,,,,,,,,,,,,,,
465.40000000596046,,prac_atten_color,362434,,,prac_stop_color,,,,,49,,,,,,,,,,,,,,,,,,,,
null,,prac_atten_color_black,364437,,,black_plus_sign,,,,,null,,,,,,,,,,,,,,,,,,,,
null,,prac_atten_color_black,365237,,,black_plus_sign,,,,,null,,,,,,,,,,,,,,,,,,,,
341.69999998807907,,prac_atten_color,366277,,,prac_stop_color,,,,,50,,,,,,,,,,,,,,,,,,,,
null,,prac_atten_color_black,368279,,,black_plus_sign,,,,,null,,,,,,,,,,,,,,,,,,,,
null,,prac_atten_color_black,368646,,,black_plus_sign,,,,,null,,,,,,,,,,,,,,,,,,,,
529.4000000059605,,prac_atten_color,369703,,,prac_stop_color,,,,,50,,,,,,,,,,,,,,,,,,,,
null,,prac_atten_color_black,371706,,,black_plus_sign,,,,,null,,,,,,,,,,,,,,,,,,,,
null,,prac_atten_color_black,372054,,,black_plus_sign,,,,,null,,,,,,,,,,,,,,,,,,,,
null,,prac_atten_color,372490,,,prac_stop_color,,,,,null,,,,,,,,,,,,,,,,,,,,
147.59999999403954,,prac_atten_color_black,374492,,,black_plus_sign,,,,,49,,,,,,,,,,,,,,,,,,,,
null,,prac_atten_color_black,375462,,,black_plus_sign,,,,,null,,,,,,,,,,,,,,,,,,,,
526.2000000178814,,prac_atten_color,376144,,,prac_stop_color,,,,,50,,,,,,,,,,,,,,,,,,,,
null,,prac_atten_color_black,378145,,,black_plus_sign,,,,,null,,,,,,,,,,,,,,,,,,,,
null,,prac_atten_color_black,378869,,,black_plus_sign,,,,,null,,,,,,,,,,,,,,,,,,,,
430.80000001192093,,prac_atten_color,379899,,,prac_stop_color,,,,,50,,,,,,,,,,,,,,,,,,,,
null,,prac_atten_color_black,381902,,,black_plus_sign,,,,,null,,,,,,,,,,,,,,,,,,,,
null,,prac_atten_color_black,382278,,,black_plus_sign,,,,,null,,,,,,,,,,,,,,,,,,,,
null,,prac_atten_color,382902,,,prac_stop_color,,,,,null,,,,,,,,,,,,,,,,,,,,
14,,prac_atten_color_black,384904,,,black_plus_sign,,,,,49,,,,,,,,,,,,,,,,,,,,
null,,prac_atten_color_black,385687,,,black_plus_sign,,,,,null,,,,,,,,,,,,,,,,,,,,
null,,prac_atten_color,386169,,,prac_stop_color,,,,,null,,,,,,,,,,,,,,,,,,,,
183,,prac_atten_color_black,388170,,,black_plus_sign,,,,,50,,,,,,,,,,,,,,,,,,,,
null,,prac_atten_color_black,389095,,,black_plus_sign,,,,,null,,,,,,,,,,,,,,,,,,,,
476.7000000178814,,prac_atten_color,390143,,,prac_stop_color,,,,,50,,,,,,,,,,,,,,,,,,,,
276.90000000596046,,prac_atten_color_black,392145,,,black_plus_sign,,,,,49,,,,,,,,,,,,,,,,,,,,
null,,prac_atten_color_black,392504,,,black_plus_sign,,,,,null,,,,,,,,,,,,,,,,,,,,
null,,prac_atten_color,393013,,,prac_stop_color,,,,,null,,,,,,,,,,,,,,,,,,,,
76.09999999403954,,prac_atten_color_black,395015,,,black_plus_sign,,,,,49,,,,,,,,,,,,,,,,,,,,
7307.300000011921,,attentioncheck_feedback,402325,,,cross_check_feedback,,,0,,,,,,,,,,,,,,,,,,,,,,
4067.0999999940395,,last_instruct,406393,,,instruct,,,,,32,,,,,,,,,,,,,,,,,,,,
null,,learn_phase(without_color),409409,,,black_plus_sign,,,,,null,US_Cities_List/boulder.png,US_Cities_List/racine.png,,,,,,,,,,,,,,,,,,
null,,black_cross(without_color),410015,,,yellow,,,,,null,US_Cities_List/boulder.png,US_Cities_List/racine.png,,,,,,,,,,,,,,,,,,
null,,rt_plussign_withcolor,410518,,,yellow,,,,,null,US_Cities_List/boulder.png,US_Cities_List/racine.png,,,,,,,,,,,,,,,,,,
1323.199999988079,,rt_thecrossant_black,411918,,,black_plus_sign,,,,,50,,,1,1,,,,,,,,,,,,,,,,
null,,color_black,412021,,,black_plus_sign,,,,,null,,,,,,,,,,,,,,,,,,,,
null,,learn_phase(without_color),415038,,,black_plus_sign,,,,,null,US_Cities_List/westpalmbeach.png,US_Cities_List/huntsville.png,,,,,,,,,,,,,,,,,,
null,,black_cross(without_color),415826,,,blue,,,,,null,US_Cities_List/westpalmbeach.png,US_Cities_List/huntsville.png,,,,,,,,,,,,,,,,,,
null,,rt_plussign_withcolor,416328,,,blue,,,,,null,US_Cities_List/westpalmbeach.png,US_Cities_List/huntsville.png,,,,,,,,,,,,,,,,,,
913.0999999940395,,rt_thecrossant_black,417553,,,black_plus_sign,,,,,49,,,1,1,,,,,,,,,,,,,,,,
null,,color_black,417657,,,black_plus_sign,,,,,null,,,,,,,,,,,,,,,,,,,,
null,,learn_phase(without_color),420681,,,black_plus_sign,,,,,null,US_Cities_List/newhope.png,US_Cities_List/huntsville.png,,,,,,,,,,,,,,,,,,
null,,black_cross(without_color),421291,,,yellow,,,,,null,US_Cities_List/newhope.png,US_Cities_List/huntsville.png,,,,,,,,,,,,,,,,,,
null,,rt_plussign_withcolor,421793,,,yellow,,,,,null,US_Cities_List/newhope.png,US_Cities_List/huntsville.png,,,,,,,,,,,,,,,,,,
1104.9000000059605,,rt_thecrossant_black,423188,,,black_plus_sign,,,,,50,,,1,1,,,,,,,,,,,,,,,,
null,,color_black,423291,,,black_plus_sign,,,,,null,,,,,,,,,,,,,,,,,,,,
null,,learn_phase(without_color),426312,,,black_plus_sign,,,,,null,US_Cities_List/carmel.png,US_Cities_List/newhope.png,,,,,,,,,,,,,,,,,,
null,,black_cross(without_color),427306,,,blue,,,,,null,US_Cities_List/carmel.png,US_Cities_List/newhope.png,,,,,,,,,,,,,,,,,,
null,,rt_plussign_withcolor,427809,,,blue,,,,,null,US_Cities_List/carmel.png,US_Cities_List/newhope.png,,,,,,,,,,,,,,,,,,
787.8000000119209,,rt_thecrossant_black,428819,,,black_plus_sign,,,,,49,,,1,1,,,,,,,,,,,,,,,,
null,,color_black,428922,,,black_plus_sign,,,,,null,,,,,,,,,,,,,,,,,,,,
null,,learn_phase(without_color),431949,,,black_plus_sign,,,,,null,US_Cities_List/cornwall.png,US_Cities_List/newhope.png,,,,,,,,,,,,,,,,,,
null,,black_cross(without_color),432754,,,yellow,,,,,null,US_Cities_List/cornwall.png,US_Cities_List/newhope.png,,,,,,,,,,,,,,,,,,
null,,rt_plussign_withcolor,433258,,,yellow,,,,,null,US_Cities_List/cornwall.png,US_Cities_List/newhope.png,,,,,,,,,,,,,,,,,,
1246.9000000059605,,rt_thecrossant_black,434458,,,black_plus_sign,,,,,50,,,1,1,,,,,,,,,,,,,,,,
null,,color_black,434562,,,black_plus_sign,,,,,null,,,,,,,,,,,,,,,,,,,,
null,,learn_phase(without_color),437579,,,black_plus_sign,,,,,null,US_Cities_List/boulder.png,US_Cities_List/racine.png,,,,,,,,,,,,,,,,,,
null,,black_cross(without_color),438432,,,blue,,,,,null,US_Cities_List/boulder.png,US_Cities_List/racine.png,,,,,,,,,,,,,,,,,,
null,,rt_plussign_withcolor,438934,,,blue,,,,,null,US_Cities_List/boulder.png,US_Cities_List/racine.png,,,,,,,,,,,,,,,,,,
968.5999999940395,,rt_thecrossant_black,440086,,,black_plus_sign,,,,,49,,,1,1,,,,,,,,,,,,,,,,
null,,color_black,440188,,,black_plus_sign,,,,,null,,,,,,,,,,,,,,,,,,,,
null,,learn_phase(without_color),443218,,,black_plus_sign,,,,,null,US_Cities_List/westpalmbeach.png,US_Cities_List/leesburg.png,,,,,,,,,,,,,,,,,,
null,,black_cross(without_color),443969,,,yellow,,,,,null,US_Cities_List/westpalmbeach.png,US_Cities_List/leesburg.png,,,,,,,,,,,,,,,,,,
null,,rt_plussign_withcolor,444471,,,yellow,,,,,null,US_Cities_List/westpalmbeach.png,US_Cities_List/leesburg.png,,,,,,,,,,,,,,,,,,
1178.800000011921,,rt_thecrossant_black,445727,,,black_plus_sign,,,,,50,,,1,1,,,,,,,,,,,,,,,,
null,,color_black,445830,,,black_plus_sign,,,,,null,,,,,,,,,,,,,,,,,,,,
null,,learn_phase(without_color),448859,,,black_plus_sign,,,,,null,US_Cities_List/hotsprings.png,US_Cities_List/gatlinburg.png,,,,,,,,,,,,,,,,,,
null,,black_cross(without_color),449423,,,yellow,,,,,null,US_Cities_List/hotsprings.png,US_Cities_List/gatlinburg.png,,,,,,,,,,,,,,,,,,
null,,rt_plussign_withcolor,449925,,,yellow,,,,,null,US_Cities_List/hotsprings.png,US_Cities_List/gatlinburg.png,,,,,,,,,,,,,,,,,,
899,,rt_thecrossant_black,451375,,,black_plus_sign,,,,,50,,,1,1,,,,,,,,,,,,,,,,
null,,color_black,451477,,,black_plus_sign,,,,,null,,,,,,,,,,,,,,,,,,,,
null,,learn_phase(without_color),454502,,,black_plus_sign,,,,,null,US_Cities_List/shreveport.png,US_Cities_List/cornwall.png,,,,,,,,,,,,,,,,,,
null,,black_cross(without_color),455467,,,yellow,,,,,null,US_Cities_List/shreveport.png,US_Cities_List/cornwall.png,,,,,,,,,,,,,,,,,,
402.60000002384186,,rt_plussign_withcolor,455969,,,yellow,,,,,50,US_Cities_List/shreveport.png,US_Cities_List/cornwall.png,,,,,,,,,,,,,,,,,,
null,,rt_thecrossant_black,457009,,,black_plus_sign,,,,,null,,,1,1,,,,,,,,,,,,,,,,
null,,color_black,457112,,,black_plus_sign,,,,,null,,,,,,,,,,,,,,,,,,,,
null,,learn_phase(without_color),460136,,,black_plus_sign,,,,,null,US_Cities_List/westpalmbeach.png,US_Cities_List/huntsville.png,,,,,,,,,,,,,,,,,,
null,,black_cross(without_color),460563,,,blue,,,,,null,US_Cities_List/westpalmbeach.png,US_Cities_List/huntsville.png,,,,,,,,,,,,,,,,,,
null,,rt_plussign_withcolor,461065,,,blue,,,,,null,US_Cities_List/westpalmbeach.png,US_Cities_List/huntsville.png,,,,,,,,,,,,,,,,,,
1070.2000000178814,,rt_thecrossant_black,462643,,,black_plus_sign,,,,,49,,,1,1,,,,,,,,,,,,,,,,
null,,color_black,462746,,,black_plus_sign,,,,,null,,,,,,,,,,,,,,,,,,,,
null,,learn_phase(without_color),465767,,,black_plus_sign,,,,,null,US_Cities_List/peoria.png,US_Cities_List/leesburg.png,,,,,,,,,,,,,,,,,,
null,,black_cross(without_color),466583,,,yellow,,,,,null,US_Cities_List/peoria.png,US_Cities_List/leesburg.png,,,,,,,,,,,,,,,,,,
null,,rt_plussign_withcolor,467085,,,yellow,,,,,null,US_Cities_List/peoria.png,US_Cities_List/leesburg.png,,,,,,,,,,,,,,,,,,
524.1999999880791,,rt_thecrossant_black,468275,,,black_plus_sign,,,,,50,,,1,1,,,,,,,,,,,,,,,,
null,,color_black,468378,,,black_plus_sign,,,,,null,,,,,,,,,,,,,,,,,,,,
null,,learn_phase(without_color),471412,,,black_plus_sign,,,,,null,US_Cities_List/hotsprings.png,US_Cities_List/peoria.png,,,,,,,,,,,,,,,,,,
null,,black_cross(without_color),471829,,,blue,,,,,null,US_Cities_List/hotsprings.png,US_Cities_List/peoria.png,,,,,,,,,,,,,,,,,,
null,,rt_plussign_withcolor,472330,,,blue,,,,,null,US_Cities_List/hotsprings.png,US_Cities_List/peoria.png,,,,,,,,,,,,,,,,,,
1001.0999999940395,,rt_thecrossant_black,473926,,,black_plus_sign,,,,,49,,,1,1,,,,,,,,,,,,,,,,
null,,color_black,474029,,,black_plus_sign,,,,,null,,,,,,,,,,,,,,,,,,,,
null,,learn_phase(without_color),477061,,,black_plus_sign,,,,,null,US_Cities_List/hotsprings.png,US_Cities_List/leesburg.png,,,,,,,,,,,,,,,,,,
null,,black_cross(without_color),477659,,,blue,,,,,null,US_Cities_List/hotsprings.png,US_Cities_List/leesburg.png,,,,,,,,,,,,,,,,,,
null,,rt_plussign_withcolor,478161,,,blue,,,,,null,US_Cities_List/hotsprings.png,US_Cities_List/leesburg.png,,,,,,,,,,,,,,,,,,
612.9000000059605,,rt_thecrossant_black,479575,,,black_plus_sign,,,,,49,,,1,1,,,,,,,,,,,,,,,,
null,,color_black,479678,,,black_plus_sign,,,,,null,,,,,,,,,,,,,,,,,,,,
null,,learn_phase(without_color),482696,,,black_plus_sign,,,,,null,US_Cities_List/hanover.png,US_Cities_List/westpalmbeach.png,,,,,,,,,,,,,,,,,,
null,,black_cross(without_color),483638,,,blue,,,,,null,US_Cities_List/hanover.png,US_Cities_List/westpalmbeach.png,,,,,,,,,,,,,,,,,,
482.40000000596046,,rt_plussign_withcolor,484140,,,blue,,,,,49,US_Cities_List/hanover.png,US_Cities_List/westpalmbeach.png,,,,,,,,,,,,,,,,,,
null,,rt_thecrossant_black,485202,,,black_plus_sign,,,,,null,,,1,1,,,,,,,,,,,,,,,,
null,,color_black,485305,,,black_plus_sign,,,,,null,,,,,,,,,,,,,,,,,,,,
null,,learn_phase(without_color),488335,,,black_plus_sign,,,,,null,US_Cities_List/newhope.png,US_Cities_List/carmel.png,,,,,,,,,,,,,,,,,,
null,,black_cross(without_color),488813,,,blue,,,,,null,US_Cities_List/newhope.png,US_Cities_List/carmel.png,,,,,,,,,,,,,,,,,,
null,,rt_plussign_withcolor,489315,,,blue,,,,,null,US_Cities_List/newhope.png,US_Cities_List/carmel.png,,,,,,,,,,,,,,,,,,
1066.6000000238419,,rt_thecrossant_black,490843,,,black_plus_sign,,,,,49,,,1,1,,,,,,,,,,,,,,,,
null,,color_black,490946,,,black_plus_sign,,,,,null,,,,,,,,,,,,,,,,,,,,
null,,learn_phase(without_color),493973,,,black_plus_sign,,,,,null,US_Cities_List/westpalmbeach.png,US_Cities_List/leesburg.png,,,,,,,,,,,,,,,,,,
null,,black_cross(without_color),494602,,,blue,,,,,null,US_Cities_List/westpalmbeach.png,US_Cities_List/leesburg.png,,,,,,,,,,,,,,,,,,
494.19999998807907,,rt_plussign_withcolor,495103,,,blue,,,,,49,US_Cities_List/westpalmbeach.png,US_Cities_List/leesburg.png,,,,,,,,,,,,,,,,,,
null,,rt_thecrossant_black,496479,,,black_plus_sign,,,,,null,,,1,1,,,,,,,,,,,,,,,,
null,,color_black,496582,,,black_plus_sign,,,,,null,,,,,,,,,,,,,,,,,,,,
null,,learn_phase(without_color),499602,,,black_plus_sign,,,,,null,US_Cities_List/shreveport.png,US_Cities_List/cornwall.png,,,,,,,,,,,,,,,,,,
null,,black_cross(without_color),500133,,,blue,,,,,null,US_Cities_List/shreveport.png,US_Cities_List/cornwall.png,,,,,,,,,,,,,,,,,,
null,,rt_plussign_withcolor,500635,,,blue,,,,,null,US_Cities_List/shreveport.png,US_Cities_List/cornwall.png,,,,,,,,,,,,,,,,,,
800.5,,rt_thecrossant_black,502110,,,black_plus_sign,,,,,49,,,1,1,,,,,,,,,,,,,,,,
null,,color_black,502213,,,black_plus_sign,,,,,null,,,,,,,,,,,,,,,,,,,,
null,,learn_phase(without_color),505229,,,black_plus_sign,,,,,null,US_Cities_List/hanover.png,US_Cities_List/westpalmbeach.png,,,,,,,,,,,,,,,,,,
null,,black_cross(without_color),505954,,,blue,,,,,null,US_Cities_List/hanover.png,US_Cities_List/westpalmbeach.png,,,,,,,,,,,,,,,,,,
495.19999998807907,,rt_plussign_withcolor,506455,,,blue,,,,,49,US_Cities_List/hanover.png,US_Cities_List/westpalmbeach.png,,,,,,,,,,,,,,,,,,
null,,rt_thecrossant_black,507735,,,black_plus_sign,,,,,null,,,1,1,,,,,,,,,,,,,,,,
null,,color_black,507838,,,black_plus_sign,,,,,null,,,,,,,,,,,,,,,,,,,,
null,,learn_phase(without_color),510857,,,black_plus_sign,,,,,null,US_Cities_List/hotsprings.png,US_Cities_List/racine.png,,,,,,,,,,,,,,,,,,
null,,black_cross(without_color),511502,,,yellow,,,,,null,US_Cities_List/hotsprings.png,US_Cities_List/racine.png,,,,,,,,,,,,,,,,,,
null,,rt_plussign_withcolor,512006,,,yellow,,,,,null,US_Cities_List/hotsprings.png,US_Cities_List/racine.png,,,,,,,,,,,,,,,,,,
942.6999999880791,,rt_thecrossant_black,513380,,,black_plus_sign,,,,,50,,,1,1,,,,,,,,,,,,,,,,
null,,color_black,513483,,,black_plus_sign,,,,,null,,,,,,,,,,,,,,,,,,,,
null,,learn_phase(without_color),516515,,,black_plus_sign,,,,,null,US_Cities_List/peoria.png,US_Cities_List/leesburg.png,,,,,,,,,,,,,,,,,,
null,,black_cross(without_color),516928,,,yellow,,,,,null,US_Cities_List/peoria.png,US_Cities_List/leesburg.png,,,,,,,,,,,,,,,,,,
null,,rt_plussign_withcolor,517430,,,yellow,,,,,null,US_Cities_List/peoria.png,US_Cities_List/leesburg.png,,,,,,,,,,,,,,,,,,
745.4000000059605,,rt_thecrossant_black,519023,,,black_plus_sign,,,,,50,,,1,1,,,,,,,,,,,,,,,,
null,,color_black,519131,,,black_plus_sign,,,,,null,,,,,,,,,,,,,,,,,,,,
null,,learn_phase(without_color),522152,,,black_plus_sign,,,,,null,US_Cities_List/peoria.png,US_Cities_List/leesburg.png,,,,,,,,,,,,,,,,,,
null,,black_cross(without_color),522724,,,yellow,,,,,null,US_Cities_List/peoria.png,US_Cities_List/leesburg.png,,,,,,,,,,,,,,,,,,
488.90000000596046,,rt_plussign_withcolor,523226,,,yellow,,,,,50,US_Cities_List/peoria.png,US_Cities_List/leesburg.png,,,,,,,,,,,,,,,,,,
null,,rt_thecrossant_black,524658,,,black_plus_sign,,,,,null,,,1,1,,,,,,,,,,,,,,,,
null,,color_black,524762,,,black_plus_sign,,,,,null,,,,,,,,,,,,,,,,,,,,
null,,learn_phase(without_color),527792,,,black_plus_sign,,,,,null,US_Cities_List/boulder.png,US_Cities_List/racine.png,,,,,,,,,,,,,,,,,,
null,,black_cross(without_color),528643,,,yellow,,,,,null,US_Cities_List/boulder.png,US_Cities_List/racine.png,,,,,,,,,,,,,,,,,,
null,,rt_plussign_withcolor,529144,,,yellow,,,,,null,US_Cities_List/boulder.png,US_Cities_List/racine.png,,,,,,,,,,,,,,,,,,
732.3000000119209,,rt_thecrossant_black,530299,,,black_plus_sign,,,,,50,,,1,1,,,,,,,,,,,,,,,,
null,,color_black,530401,,,black_plus_sign,,,,,null,,,,,,,,,,,,,,,,,,,,
null,,learn_phase(without_color),533419,,,black_plus_sign,,,,,null,US_Cities_List/huntsville.png,US_Cities_List/newhope.png,,,,,,,,,,,,,,,,,,
null,,black_cross(without_color),534516,,,blue,,,,,null,US_Cities_List/huntsville.png,US_Cities_List/newhope.png,,,,,,,,,,,,,,,,,,
479.10000002384186,,rt_plussign_withcolor,535018,,,blue,,,,,49,US_Cities_List/huntsville.png,US_Cities_List/newhope.png,,,,,,,,,,,,,,,,,,
null,,rt_thecrossant_black,535927,,,black_plus_sign,,,,,null,,,1,1,,,,,,,,,,,,,,,,
null,,color_black,536029,,,black_plus_sign,,,,,null,,,,,,,,,,,,,,,,,,,,
null,,learn_phase(without_color),539048,,,black_plus_sign,,,,,null,US_Cities_List/hotsprings.png,US_Cities_List/leesburg.png,,,,,,,,,,,,,,,,,,
null,,black_cross(without_color),539544,,,yellow,,,,,null,US_Cities_List/hotsprings.png,US_Cities_List/leesburg.png,,,,,,,,,,,,,,,,,,
null,,rt_plussign_withcolor,540047,,,yellow,,,,,null,US_Cities_List/hotsprings.png,US_Cities_List/leesburg.png,,,,,,,,,,,,,,,,,,
1625.4000000059605,,rt_thecrossant_black,541557,,,black_plus_sign,,,,,50,,,1,1,,,,,,,,,,,,,,,,
null,,color_black,541659,,,black_plus_sign,,,,,null,,,,,,,,,,,,,,,,,,,,
null,,learn_phase(without_color),544681,,,black_plus_sign,,,,,null,US_Cities_List/shreveport.png,US_Cities_List/cornwall.png,,,,,,,,,,,,,,,,,,
null,,black_cross(without_color),545313,,,blue,,,,,null,US_Cities_List/shreveport.png,US_Cities_List/cornwall.png,,,,,,,,,,,,,,,,,,
null,,rt_plussign_withcolor,545816,,,blue,,,,,null,US_Cities_List/shreveport.png,US_Cities_List/cornwall.png,,,,,,,,,,,,,,,,,,
689.2999999821186,,rt_thecrossant_black,547188,,,black_plus_sign,,,,,49,,,1,1,,,,,,,,,,,,,,,,
null,,color_black,547291,,,black_plus_sign,,,,,null,,,,,,,,,,,,,,,,,,,,
null,,learn_phase(without_color),550313,,,black_plus_sign,,,,,null,US_Cities_List/carmel.png,US_Cities_List/newhope.png,,,,,,,,,,,,,,,,,,
null,,black_cross(without_color),550877,,,blue,,,,,null,US_Cities_List/carmel.png,US_Cities_List/newhope.png,,,,,,,,,,,,,,,,,,
null,,rt_plussign_withcolor,551379,,,blue,,,,,null,US_Cities_List/carmel.png,US_Cities_List/newhope.png,,,,,,,,,,,,,,,,,,
799.5999999940395,,rt_thecrossant_black,552821,,,black_plus_sign,,,,,49,,,1,1,,,,,,,,,,,,,,,,
null,,color_black,552924,,,black_plus_sign,,,,,null,,,,,,,,,,,,,,,,,,,,
null,,learn_phase(without_color),555954,,,black_plus_sign,,,,,null,US_Cities_List/huntsville.png,US_Cities_List/newhope.png,,,,,,,,,,,,,,,,,,
null,,black_cross(without_color),556441,,,blue,,,,,null,US_Cities_List/huntsville.png,US_Cities_List/newhope.png,,,,,,,,,,,,,,,,,,
436.30000001192093,,rt_plussign_withcolor,556943,,,blue,,,,,49,US_Cities_List/huntsville.png,US_Cities_List/newhope.png,,,,,,,,,,,,,,,,,,
null,,rt_thecrossant_black,558463,,,black_plus_sign,,,,,null,,,1,1,,,,,,,,,,,,,,,,
null,,color_black,558568,,,black_plus_sign,,,,,null,,,,,,,,,,,,,,,,,,,,
null,,learn_phase(without_color),561600,,,black_plus_sign,,,,,null,US_Cities_List/racine.png,US_Cities_List/leesburg.png,,,,,,,,,,,,,,,,,,
null,,black_cross(without_color),562248,,,blue,,,,,null,US_Cities_List/racine.png,US_Cities_List/leesburg.png,,,,,,,,,,,,,,,,,,
492.7000000178814,,rt_plussign_withcolor,562750,,,blue,,,,,49,US_Cities_List/racine.png,US_Cities_List/leesburg.png,,,,,,,,,,,,,,,,,,
null,,rt_thecrossant_black,564106,,,black_plus_sign,,,,,null,,,1,1,,,,,,,,,,,,,,,,
null,,color_black,564209,,,black_plus_sign,,,,,null,,,,,,,,,,,,,,,,,,,,
null,,learn_phase(without_color),567223,,,black_plus_sign,,,,,null,US_Cities_List/westpalmbeach.png,US_Cities_List/huntsville.png,,,,,,,,,,,,,,,,,,
null,,black_cross(without_color),567693,,,blue,,,,,null,US_Cities_List/westpalmbeach.png,US_Cities_List/huntsville.png,,,,,,,,,,,,,,,,,,
null,,rt_plussign_withcolor,568195,,,blue,,,,,null,US_Cities_List/westpalmbeach.png,US_Cities_List/huntsville.png,,,,,,,,,,,,,,,,,,
756.0999999940395,,rt_thecrossant_black,569731,,,black_plus_sign,,,,,49,,,1,1,,,,,,,,,,,,,,,,
null,,color_black,569834,,,black_plus_sign,,,,,null,,,,,,,,,,,,,,,,,,,,
null,,learn_phase(without_color),572855,,,black_plus_sign,,,,,null,US_Cities_List/boulder.png,US_Cities_List/racine.png,,,,,,,,,,,,,,,,,,
null,,black_cross(without_color),573593,,,yellow,,,,,null,US_Cities_List/boulder.png,US_Cities_List/racine.png,,,,,,,,,,,,,,,,,,
null,,rt_plussign_withcolor,574095,,,yellow,,,,,null,US_Cities_List/boulder.png,US_Cities_List/racine.png,,,,,,,,,,,,,,,,,,
648.9000000059605,,rt_thecrossant_black,575364,,,black_plus_sign,,,,,50,,,1,1,,,,,,,,,,,,,,,,
null,,color_black,575466,,,black_plus_sign,,,,,null,,,,,,,,,,,,,,,,,,,,
null,,learn_phase(without_color),578490,,,black_plus_sign,,,,,null,US_Cities_List/racine.png,US_Cities_List/leesburg.png,,,,,,,,,,,,,,,,,,
null,,black_cross(without_color),578959,,,blue,,,,,null,US_Cities_List/racine.png,US_Cities_List/leesburg.png,,,,,,,,,,,,,,,,,,
null,,rt_plussign_withcolor,579462,,,blue,,,,,null,US_Cities_List/racine.png,US_Cities_List/leesburg.png,,,,,,,,,,,,,,,,,,
971.4000000059605,,rt_thecrossant_black,580998,,,black_plus_sign,,,,,49,,,1,1,,,,,,,,,,,,,,,,
null,,color_black,581101,,,black_plus_sign,,,,,null,,,,,,,,,,,,,,,,,,,,
null,,learn_phase(without_color),584119,,,black_plus_sign,,,,,null,US_Cities_List/hanover.png,US_Cities_List/westpalmbeach.png,,,,,,,,,,,,,,,,,,
null,,black_cross(without_color),585099,,,yellow,,,,,null,US_Cities_List/hanover.png,US_Cities_List/westpalmbeach.png,,,,,,,,,,,,,,,,,,
null,,rt_plussign_withcolor,585602,,,yellow,,,,,null,US_Cities_List/hanover.png,US_Cities_List/westpalmbeach.png,,,,,,,,,,,,,,,,,,
1025.5,,rt_thecrossant_black,586628,,,black_plus_sign,,,,,50,,,1,1,,,,,,,,,,,,,,,,
null,,color_black,586731,,,black_plus_sign,,,,,null,,,,,,,,,,,,,,,,,,,,
null,,learn_phase(without_color),589769,,,black_plus_sign,,,,,null,US_Cities_List/cornwall.png,US_Cities_List/newhope.png,,,,,,,,,,,,,,,,,,
null,,black_cross(without_color),590744,,,blue,,,,,null,US_Cities_List/cornwall.png,US_Cities_List/newhope.png,,,,,,,,,,,,,,,,,,
null,,rt_plussign_withcolor,591247,,,blue,,,,,null,US_Cities_List/cornwall.png,US_Cities_List/newhope.png,,,,,,,,,,,,,,,,,,
1105,,rt_thecrossant_black,592279,,,black_plus_sign,,,,,49,,,1,1,,,,,,,,,,,,,,,,
null,,color_black,592382,,,black_plus_sign,,,,,null,,,,,,,,,,,,,,,,,,,,
null,,learn_phase(without_color),595399,,,black_plus_sign,,,,,null,US_Cities_List/hotsprings.png,US_Cities_List/peoria.png,,,,,,,,,,,,,,,,,,
null,,black_cross(without_color),595896,,,yellow,,,,,null,US_Cities_List/hotsprings.png,US_Cities_List/peoria.png,,,,,,,,,,,,,,,,,,
null,,rt_plussign_withcolor,596398,,,yellow,,,,,null,US_Cities_List/hotsprings.png,US_Cities_List/peoria.png,,,,,,,,,,,,,,,,,,
1349.4000000059605,,rt_thecrossant_black,597907,,,black_plus_sign,,,,,50,,,1,1,,,,,,,,,,,,,,,,
null,,color_black,598010,,,black_plus_sign,,,,,null,,,,,,,,,,,,,,,,,,,,
null,,learn_phase(without_color),601042,,,black_plus_sign,,,,,null,US_Cities_List/newhope.png,US_Cities_List/carmel.png,,,,,,,,,,,,,,,,,,
null,,black_cross(without_color),601789,,,yellow,,,,,null,US_Cities_List/newhope.png,US_Cities_List/carmel.png,,,,,,,,,,,,,,,,,,
null,,rt_plussign_withcolor,602291,,,yellow,,,,,null,US_Cities_List/newhope.png,US_Cities_List/carmel.png,,,,,,,,,,,,,,,,,,
784.4000000059605,,rt_thecrossant_black,603550,,,black_plus_sign,,,,,50,,,1,1,,,,,,,,,,,,,,,,
null,,color_black,603654,,,black_plus_sign,,,,,null,,,,,,,,,,,,,,,,,,,,
null,,learn_phase(without_color),606678,,,black_plus_sign,,,,,null,US_Cities_List/cornwall.png,US_Cities_List/shreveport.png,,,,,,,,,,,,,,,,,,
null,,black_cross(without_color),607595,,,blue,,,,,null,US_Cities_List/cornwall.png,US_Cities_List/shreveport.png,,,,,,,,,,,,,,,,,,
425,,rt_plussign_withcolor,608097,,,blue,,,,,49,US_Cities_List/cornwall.png,US_Cities_List/shreveport.png,,,,,,,,,,,,,,,,,,
null,,rt_thecrossant_black,609187,,,black_plus_sign,,,,,null,,,1,1,,,,,,,,,,,,,,,,
null,,color_black,609290,,,black_plus_sign,,,,,null,,,,,,,,,,,,,,,,,,,,
null,,learn_phase(without_color),612321,,,black_plus_sign,,,,,null,US_Cities_List/racine.png,US_Cities_List/hotsprings.png,,,,,,,,,,,,,,,,,,
null,,black_cross(without_color),612758,,,yellow,,,,,null,US_Cities_List/racine.png,US_Cities_List/hotsprings.png,,,,,,,,,,,,,,,,,,
null,,rt_plussign_withcolor,613260,,,yellow,,,,,null,US_Cities_List/racine.png,US_Cities_List/hotsprings.png,,,,,,,,,,,,,,,,,,
1196.3999999761581,,rt_thecrossant_black,614828,,,black_plus_sign,,,,,50,,,1,1,,,,,,,,,,,,,,,,
null,,color_black,614931,,,black_plus_sign,,,,,null,,,,,,,,,,,,,,,,,,,,
null,,learn_phase(without_color),617947,,,black_plus_sign,,,,,null,US_Cities_List/huntsville.png,US_Cities_List/peoria.png,,,,,,,,,,,,,,,,,,
null,,black_cross(without_color),618545,,,yellow,,,,,null,US_Cities_List/huntsville.png,US_Cities_List/peoria.png,,,,,,,,,,,,,,,,,,
null,,rt_plussign_withcolor,619048,,,yellow,,,,,null,US_Cities_List/huntsville.png,US_Cities_List/peoria.png,,,,,,,,,,,,,,,,,,
955.7999999821186,,rt_thecrossant_black,620457,,,black_plus_sign,,,,,50,,,1,1,,,,,,,,,,,,,,,,
null,,color_black,620560,,,black_plus_sign,,,,,null,,,,,,,,,,,,,,,,,,,,
null,,learn_phase(without_color),623580,,,black_plus_sign,,,,,null,US_Cities_List/hotsprings.png,US_Cities_List/leesburg.png,,,,,,,,,,,,,,,,,,
null,,black_cross(without_color),624430,,,blue,,,,,null,US_Cities_List/hotsprings.png,US_Cities_List/leesburg.png,,,,,,,,,,,,,,,,,,
429.40000000596046,,rt_plussign_withcolor,624932,,,blue,,,,,49,US_Cities_List/hotsprings.png,US_Cities_List/leesburg.png,,,,,,,,,,,,,,,,,,
null,,rt_thecrossant_black,626089,,,black_plus_sign,,,,,null,,,1,1,,,,,,,,,,,,,,,,
null,,color_black,626192,,,black_plus_sign,,,,,null,,,,,,,,,,,,,,,,,,,,
null,,learn_phase(without_color),629212,,,black_plus_sign,,,,,null,US_Cities_List/gatlinburg.png,US_Cities_List/hotsprings.png,,,,,,,,,,,,,,,,,,
null,,black_cross(without_color),630285,,,yellow,,,,,null,US_Cities_List/gatlinburg.png,US_Cities_List/hotsprings.png,,,,,,,,,,,,,,,,,,
null,,rt_plussign_withcolor,630787,,,yellow,,,,,null,US_Cities_List/gatlinburg.png,US_Cities_List/hotsprings.png,,,,,,,,,,,,,,,,,,
1069.4000000059605,,rt_thecrossant_black,631719,,,black_plus_sign,,,,,50,,,1,1,,,,,,,,,,,,,,,,
null,,color_black,631821,,,black_plus_sign,,,,,null,,,,,,,,,,,,,,,,,,,,
null,,learn_phase(without_color),634839,,,black_plus_sign,,,,,null,US_Cities_List/westpalmbeach.png,US_Cities_List/hanover.png,,,,,,,,,,,,,,,,,,
null,,black_cross(without_color),635351,,,blue,,,,,null,US_Cities_List/westpalmbeach.png,US_Cities_List/hanover.png,,,,,,,,,,,,,,,,,,
null,,rt_plussign_withcolor,635853,,,blue,,,,,null,US_Cities_List/westpalmbeach.png,US_Cities_List/hanover.png,,,,,,,,,,,,,,,,,,
1850.3999999761581,,rt_thecrossant_black,637347,,,black_plus_sign,,,,,50,,,0,0.975609756097561,,,,,,,,,,,,,,,,
null,,color_black,637450,,,black_plus_sign,,,,,null,,,,,,,,,,,,,,,,,,,,
null,,learn_phase(without_color),640468,,,black_plus_sign,,,,,null,US_Cities_List/leesburg.png,US_Cities_List/peoria.png,,,,,,,,,,,,,,,,,,
null,,black_cross(without_color),640940,,,blue,,,,,null,US_Cities_List/leesburg.png,US_Cities_List/peoria.png,,,,,,,,,,,,,,,,,,
null,,rt_plussign_withcolor,641441,,,blue,,,,,null,US_Cities_List/leesburg.png,US_Cities_List/peoria.png,,,,,,,,,,,,,,,,,,
906.8000000119209,,rt_thecrossant_black,642987,,,black_plus_sign,,,,,49,,,1,0.9761904761904762,,,,,,,,,,,,,,,,
null,,color_black,643089,,,black_plus_sign,,,,,null,,,,,,,,,,,,,,,,,,,,
null,,learn_phase(without_color),646110,,,black_plus_sign,,,,,null,US_Cities_List/cornwall.png,US_Cities_List/shreveport.png,,,,,,,,,,,,,,,,,,
null,,black_cross(without_color),647211,,,blue,,,,,null,US_Cities_List/cornwall.png,US_Cities_List/shreveport.png,,,,,,,,,,,,,,,,,,
null,,rt_plussign_withcolor,647726,,,blue,,,,,null,US_Cities_List/cornwall.png,US_Cities_List/shreveport.png,,,,,,,,,,,,,,,,,,
640.8000000119209,,rt_thecrossant_black,648645,,,black_plus_sign,,,,,49,,,1,0.9767441860465116,,,,,,,,,,,,,,,,
null,,color_black,648748,,,black_plus_sign,,,,,null,,,,,,,,,,,,,,,,,,,,
null,,learn_phase(without_color),651768,,,black_plus_sign,,,,,null,US_Cities_List/peoria.png,US_Cities_List/hotsprings.png,,,,,,,,,,,,,,,,,,
null,,black_cross(without_color),652631,,,blue,,,,,null,US_Cities_List/peoria.png,US_Cities_List/hotsprings.png,,,,,,,,,,,,,,,,,,
null,,rt_plussign_withcolor,653134,,,blue,,,,,null,US_Cities_List/peoria.png,US_Cities_List/hotsprings.png,,,,,,,,,,,,,,,,,,
1306,,rt_thecrossant_black,654277,,,black_plus_sign,,,,,49,,,1,0.9772727272727273,,,,,,,,,,,,,,,,
null,,color_black,654379,,,black_plus_sign,,,,,null,,,,,,,,,,,,,,,,,,,,
null,,learn_phase(without_color),657406,,,black_plus_sign,,,,,null,US_Cities_List/huntsville.png,US_Cities_List/peoria.png,,,,,,,,,,,,,,,,,,
null,,black_cross(without_color),658033,,,yellow,,,,,null,US_Cities_List/huntsville.png,US_Cities_List/peoria.png,,,,,,,,,,,,,,,,,,
null,,rt_plussign_withcolor,658535,,,yellow,,,,,null,US_Cities_List/huntsville.png,US_Cities_List/peoria.png,,,,,,,,,,,,,,,,,,
1053.0999999940395,,rt_thecrossant_black,659915,,,black_plus_sign,,,,,50,,,1,0.9777777777777777,,,,,,,,,,,,,,,,
null,,color_black,660019,,,black_plus_sign,,,,,null,,,,,,,,,,,,,,,,,,,,
null,,learn_phase(without_color),663041,,,black_plus_sign,,,,,null,US_Cities_List/leesburg.png,US_Cities_List/racine.png,,,,,,,,,,,,,,,,,,
null,,black_cross(without_color),663875,,,yellow,,,,,null,US_Cities_List/leesburg.png,US_Cities_List/racine.png,,,,,,,,,,,,,,,,,,
null,,rt_plussign_withcolor,664379,,,yellow,,,,,null,US_Cities_List/leesburg.png,US_Cities_List/racine.png,,,,,,,,,,,,,,,,,,
963.4000000059605,,rt_thecrossant_black,665550,,,black_plus_sign,,,,,50,,,1,0.9782608695652174,,,,,,,,,,,,,,,,
null,,color_black,665653,,,black_plus_sign,,,,,null,,,,,,,,,,,,,,,,,,,,
null,,learn_phase(without_color),668678,,,black_plus_sign,,,,,null,US_Cities_List/racine.png,US_Cities_List/leesburg.png,,,,,,,,,,,,,,,,,,
null,,black_cross(without_color),669127,,,yellow,,,,,null,US_Cities_List/racine.png,US_Cities_List/leesburg.png,,,,,,,,,,,,,,,,,,
null,,rt_plussign_withcolor,669628,,,yellow,,,,,null,US_Cities_List/racine.png,US_Cities_List/leesburg.png,,,,,,,,,,,,,,,,,,
1488.6000000238419,,rt_thecrossant_black,671185,,,black_plus_sign,,,,,50,,,1,0.9787234042553191,,,,,,,,,,,,,,,,
null,,color_black,671288,,,black_plus_sign,,,,,null,,,,,,,,,,,,,,,,,,,,
null,,learn_phase(without_color),674316,,,black_plus_sign,,,,,null,US_Cities_List/hotsprings.png,US_Cities_List/gatlinburg.png,,,,,,,,,,,,,,,,,,
null,,black_cross(without_color),674773,,,blue,,,,,null,US_Cities_List/hotsprings.png,US_Cities_List/gatlinburg.png,,,,,,,,,,,,,,,,,,
null,,rt_plussign_withcolor,675276,,,blue,,,,,null,US_Cities_List/hotsprings.png,US_Cities_List/gatlinburg.png,,,,,,,,,,,,,,,,,,
718.5,,rt_thecrossant_black,676825,,,black_plus_sign,,,,,49,,,1,0.9791666666666666,,,,,,,,,,,,,,,,
null,,color_black,676928,,,black_plus_sign,,,,,null,,,,,,,,,,,,,,,,,,,,
null,,learn_phase(without_color),679958,,,black_plus_sign,,,,,null,US_Cities_List/cornwall.png,US_Cities_List/newhope.png,,,,,,,,,,,,,,,,,,
null,,black_cross(without_color),680448,,,yellow,,,,,null,US_Cities_List/cornwall.png,US_Cities_List/newhope.png,,,,,,,,,,,,,,,,,,
null,,rt_plussign_withcolor,680950,,,yellow,,,,,null,US_Cities_List/cornwall.png,US_Cities_List/newhope.png,,,,,,,,,,,,,,,,,,
675,,rt_thecrossant_black,682466,,,black_plus_sign,,,,,50,,,1,0.9795918367346939,,,,,,,,,,,,,,,,
null,,color_black,682569,,,black_plus_sign,,,,,null,,,,,,,,,,,,,,,,,,,,
null,,learn_phase(without_color),685600,,,black_plus_sign,,,,,null,US_Cities_List/westpalmbeach.png,US_Cities_List/hanover.png,,,,,,,,,,,,,,,,,,
null,,black_cross(without_color),686474,,,yellow,,,,,null,US_Cities_List/westpalmbeach.png,US_Cities_List/hanover.png,,,,,,,,,,,,,,,,,,
null,,rt_plussign_withcolor,686976,,,yellow,,,,,null,US_Cities_List/westpalmbeach.png,US_Cities_List/hanover.png,,,,,,,,,,,,,,,,,,
885.9000000059605,,rt_thecrossant_black,688109,,,black_plus_sign,,,,,50,,,1,0.98,,,,,,,,,,,,,,,,
null,,color_black,688214,,,black_plus_sign,,,,,null,,,,,,,,,,,,,,,,,,,,
null,,learn_phase(without_color),691242,,,black_plus_sign,,,,,null,US_Cities_List/hotsprings.png,US_Cities_List/peoria.png,,,,,,,,,,,,,,,,,,
null,,black_cross(without_color),691754,,,blue,,,,,null,US_Cities_List/hotsprings.png,US_Cities_List/peoria.png,,,,,,,,,,,,,,,,,,
null,,rt_plussign_withcolor,692258,,,blue,,,,,null,US_Cities_List/hotsprings.png,US_Cities_List/peoria.png,,,,,,,,,,,,,,,,,,
1230.7000000178814,,rt_thecrossant_black,693751,,,black_plus_sign,,,,,49,,,1,0.9803921568627451,,,,,,,,,,,,,,,,
null,,color_black,693854,,,black_plus_sign,,,,,null,,,,,,,,,,,,,,,,,,,,
null,,learn_phase(without_color),696872,,,black_plus_sign,,,,,null,US_Cities_List/hotsprings.png,US_Cities_List/gatlinburg.png,,,,,,,,,,,,,,,,,,
null,,black_cross(without_color),697565,,,yellow,,,,,null,US_Cities_List/hotsprings.png,US_Cities_List/gatlinburg.png,,,,,,,,,,,,,,,,,,
null,,rt_plussign_withcolor,698068,,,yellow,,,,,null,US_Cities_List/hotsprings.png,US_Cities_List/gatlinburg.png,,,,,,,,,,,,,,,,,,
769,,rt_thecrossant_black,699381,,,black_plus_sign,,,,,50,,,1,0.9807692307692307,,,,,,,,,,,,,,,,
null,,color_black,699484,,,black_plus_sign,,,,,null,,,,,,,,,,,,,,,,,,,,
null,,learn_phase(without_color),702518,,,black_plus_sign,,,,,null,US_Cities_List/newhope.png,US_Cities_List/carmel.png,,,,,,,,,,,,,,,,,,
null,,black_cross(without_color),703612,,,yellow,,,,,null,US_Cities_List/newhope.png,US_Cities_List/carmel.png,,,,,,,,,,,,,,,,,,
null,,rt_plussign_withcolor,704114,,,yellow,,,,,null,US_Cities_List/newhope.png,US_Cities_List/carmel.png,,,,,,,,,,,,,,,,,,
1002.2999999821186,,rt_thecrossant_black,705028,,,black_plus_sign,,,,,50,,,1,0.9811320754716981,,,,,,,,,,,,,,,,
null,,color_black,705131,,,black_plus_sign,,,,,null,,,,,,,,,,,,,,,,,,,,
null,,learn_phase(without_color),708151,,,black_plus_sign,,,,,null,US_Cities_List/leesburg.png,US_Cities_List/hotsprings.png,,,,,,,,,,,,,,,,,,
null,,black_cross(without_color),709171,,,blue,,,,,null,US_Cities_List/leesburg.png,US_Cities_List/hotsprings.png,,,,,,,,,,,,,,,,,,
null,,rt_plussign_withcolor,709673,,,blue,,,,,null,US_Cities_List/leesburg.png,US_Cities_List/hotsprings.png,,,,,,,,,,,,,,,,,,
1227.300000011921,,rt_thecrossant_black,710659,,,black_plus_sign,,,,,49,,,1,0.9814814814814815,,,,,,,,,,,,,,,,
null,,color_black,710762,,,black_plus_sign,,,,,null,,,,,,,,,,,,,,,,,,,,
null,,learn_phase(without_color),713793,,,black_plus_sign,,,,,null,US_Cities_List/racine.png,US_Cities_List/hotsprings.png,,,,,,,,,,,,,,,,,,
null,,black_cross(without_color),714592,,,yellow,,,,,null,US_Cities_List/racine.png,US_Cities_List/hotsprings.png,,,,,,,,,,,,,,,,,,
null,,rt_plussign_withcolor,715094,,,yellow,,,,,null,US_Cities_List/racine.png,US_Cities_List/hotsprings.png,,,,,,,,,,,,,,,,,,
1299.699999988079,,rt_thecrossant_black,716301,,,black_plus_sign,,,,,50,,,1,0.9818181818181818,,,,,,,,,,,,,,,,
null,,color_black,716404,,,black_plus_sign,,,,,null,,,,,,,,,,,,,,,,,,,,
null,,learn_phase(without_color),719428,,,black_plus_sign,,,,,null,US_Cities_List/hotsprings.png,US_Cities_List/racine.png,,,,,,,,,,,,,,,,,,
null,,black_cross(without_color),720100,,,blue,,,,,null,US_Cities_List/hotsprings.png,US_Cities_List/racine.png,,,,,,,,,,,,,,,,,,
null,,rt_plussign_withcolor,720603,,,blue,,,,,null,US_Cities_List/hotsprings.png,US_Cities_List/racine.png,,,,,,,,,,,,,,,,,,
1489.5,,rt_thecrossant_black,721936,,,black_plus_sign,,,,,50,,,0,0.9642857142857143,,,,,,,,,,,,,,,,
null,,color_black,722039,,,black_plus_sign,,,,,null,,,,,,,,,,,,,,,,,,,,
null,,learn_phase(without_color),725062,,,black_plus_sign,,,,,null,US_Cities_List/huntsville.png,US_Cities_List/westpalmbeach.png,,,,,,,,,,,,,,,,,,
null,,black_cross(without_color),725720,,,yellow,,,,,null,US_Cities_List/huntsville.png,US_Cities_List/westpalmbeach.png,,,,,,,,,,,,,,,,,,
null,,rt_plussign_withcolor,726222,,,yellow,,,,,null,US_Cities_List/huntsville.png,US_Cities_List/westpalmbeach.png,,,,,,,,,,,,,,,,,,
961.8999999761581,,rt_thecrossant_black,727570,,,black_plus_sign,,,,,50,,,1,0.9649122807017544,,,,,,,,,,,,,,,,
null,,color_black,727673,,,black_plus_sign,,,,,null,,,,,,,,,,,,,,,,,,,,
null,,learn_phase(without_color),730711,,,black_plus_sign,,,,,null,US_Cities_List/shreveport.png,US_Cities_List/cornwall.png,,,,,,,,,,,,,,,,,,
null,,black_cross(without_color),731670,,,yellow,,,,,null,US_Cities_List/shreveport.png,US_Cities_List/cornwall.png,,,,,,,,,,,,,,,,,,
null,,rt_plussign_withcolor,732172,,,yellow,,,,,null,US_Cities_List/shreveport.png,US_Cities_List/cornwall.png,,,,,,,,,,,,,,,,,,
874.0999999940395,,rt_thecrossant_black,733219,,,black_plus_sign,,,,,50,,,1,0.9655172413793104,,,,,,,,,,,,,,,,
null,,color_black,733321,,,black_plus_sign,,,,,null,,,,,,,,,,,,,,,,,,,,
null,,learn_phase(without_color),736358,,,black_plus_sign,,,,,null,US_Cities_List/cornwall.png,US_Cities_List/hanover.png,,,,,,,,,,,,,,,,,,
null,,black_cross(without_color),737257,,,blue,,,,,null,US_Cities_List/cornwall.png,US_Cities_List/hanover.png,,,,,,,,,,,,,,,,,,
null,,rt_plussign_withcolor,737759,,,blue,,,,,null,US_Cities_List/cornwall.png,US_Cities_List/hanover.png,,,,,,,,,,,,,,,,,,
1207.9000000059605,,rt_thecrossant_black,738866,,,black_plus_sign,,,,,49,,,1,0.9661016949152542,,,,,,,,,,,,,,,,
null,,color_black,738969,,,black_plus_sign,,,,,null,,,,,,,,,,,,,,,,,,,,
null,,learn_phase(without_color),741996,,,black_plus_sign,,,,,null,US_Cities_List/cornwall.png,US_Cities_List/hanover.png,,,,,,,,,,,,,,,,,,
null,,black_cross(without_color),743024,,,blue,,,,,null,US_Cities_List/cornwall.png,US_Cities_List/hanover.png,,,,,,,,,,,,,,,,,,
null,,rt_plussign_withcolor,743527,,,blue,,,,,null,US_Cities_List/cornwall.png,US_Cities_List/hanover.png,,,,,,,,,,,,,,,,,,
1083.3999999761581,,rt_thecrossant_black,744504,,,black_plus_sign,,,,,49,,,1,0.9666666666666667,,,,,,,,,,,,,,,,
null,,color_black,744607,,,black_plus_sign,,,,,null,,,,,,,,,,,,,,,,,,,,
null,,learn_phase(without_color),747635,,,black_plus_sign,,,,,null,US_Cities_List/peoria.png,US_Cities_List/huntsville.png,,,,,,,,,,,,,,,,,,
null,,black_cross(without_color),748510,,,blue,,,,,null,US_Cities_List/peoria.png,US_Cities_List/huntsville.png,,,,,,,,,,,,,,,,,,
null,,rt_plussign_withcolor,749013,,,blue,,,,,null,US_Cities_List/peoria.png,US_Cities_List/huntsville.png,,,,,,,,,,,,,,,,,,
1330.7999999821186,,rt_thecrossant_black,750143,,,black_plus_sign,,,,,49,,,1,0.9672131147540983,,,,,,,,,,,,,,,,
null,,color_black,750246,,,black_plus_sign,,,,,null,,,,,,,,,,,,,,,,,,,,
null,,learn_phase(without_color),753273,,,black_plus_sign,,,,,null,US_Cities_List/hanover.png,US_Cities_List/cornwall.png,,,,,,,,,,,,,,,,,,
null,,black_cross(without_color),754017,,,yellow,,,,,null,US_Cities_List/hanover.png,US_Cities_List/cornwall.png,,,,,,,,,,,,,,,,,,
null,,rt_plussign_withcolor,754519,,,yellow,,,,,null,US_Cities_List/hanover.png,US_Cities_List/cornwall.png,,,,,,,,,,,,,,,,,,
1540.4000000059605,,rt_thecrossant_black,755782,,,black_plus_sign,,,,,50,,,1,0.967741935483871,,,,,,,,,,,,,,,,
null,,color_black,755895,,,black_plus_sign,,,,,null,,,,,,,,,,,,,,,,,,,,
null,,learn_phase(without_color),758922,,,black_plus_sign,,,,,null,US_Cities_List/westpalmbeach.png,US_Cities_List/leesburg.png,,,,,,,,,,,,,,,,,,
null,,black_cross(without_color),759386,,,blue,,,,,null,US_Cities_List/westpalmbeach.png,US_Cities_List/leesburg.png,,,,,,,,,,,,,,,,,,
null,,rt_plussign_withcolor,759889,,,blue,,,,,null,US_Cities_List/westpalmbeach.png,US_Cities_List/leesburg.png,,,,,,,,,,,,,,,,,,
null,,rt_thecrossant_black,761430,,,black_plus_sign,,,,,null,,,,0.967741935483871,,,,,,,,,,,,,,,,
null,,color_black,761533,,,black_plus_sign,,,,,null,,,,,,,,,,,,,,,,,,,,
null,,learn_phase(without_color),764569,,,black_plus_sign,,,,,null,US_Cities_List/racine.png,US_Cities_List/hotsprings.png,,,,,,,,,,,,,,,,,,
null,,black_cross(without_color),765535,,,yellow,,,,,null,US_Cities_List/racine.png,US_Cities_List/hotsprings.png,,,,,,,,,,,,,,,,,,
null,,rt_plussign_withcolor,766037,,,yellow,,,,,null,US_Cities_List/racine.png,US_Cities_List/hotsprings.png,,,,,,,,,,,,,,,,,,
842.0999999940395,,rt_thecrossant_black,767078,,,black_plus_sign,,,,,50,,,1,0.9682539682539683,,,,,,,,,,,,,,,,
null,,color_black,767181,,,black_plus_sign,,,,,null,,,,,,,,,,,,,,,,,,,,
7136.0999999940395,,learn_break,774322,,,learn_break,,,,,32,,,,,,,,,,,,,,,,,,,,
null,,html-keyboard-response,775324,,,<p></p>,,,,,null,,,,,,,,,,,,,,,,,,,,
null,,learn_phase(without_color),778348,,,black_plus_sign,,,,,null,US_Cities_List/boulder.png,US_Cities_List/racine.png,,,,,,,,,,,,,,,,,,
null,,black_cross(without_color),779079,,,yellow,,,,,null,US_Cities_List/boulder.png,US_Cities_List/racine.png,,,,,,,,,,,,,,,,,,
null,,rt_plussign_withcolor,779581,,,yellow,,,,,null,US_Cities_List/boulder.png,US_Cities_List/racine.png,,,,,,,,,,,,,,,,,,
1423.9000000059605,,rt_thecrossant_black,780857,,,black_plus_sign,,,,,50,,,1,0.96875,,,,,,,,,,,,,,,,
null,,color_black,780959,,,black_plus_sign,,,,,null,,,,,,,,,,,,,,,,,,,,
null,,learn_phase(without_color),783982,,,black_plus_sign,,,,,null,US_Cities_List/gatlinburg.png,US_Cities_List/hotsprings.png,,,,,,,,,,,,,,,,,,
null,,black_cross(without_color),784539,,,blue,,,,,null,US_Cities_List/gatlinburg.png,US_Cities_List/hotsprings.png,,,,,,,,,,,,,,,,,,
null,,rt_plussign_withcolor,785042,,,blue,,,,,null,US_Cities_List/gatlinburg.png,US_Cities_List/hotsprings.png,,,,,,,,,,,,,,,,,,
1094.699999988079,,rt_thecrossant_black,786490,,,black_plus_sign,,,,,49,,,1,0.9692307692307692,,,,,,,,,,,,,,,,
null,,color_black,786593,,,black_plus_sign,,,,,null,,,,,,,,,,,,,,,,,,,,
null,,learn_phase(without_color),789614,,,black_plus_sign,,,,,null,US_Cities_List/hotsprings.png,US_Cities_List/racine.png,,,,,,,,,,,,,,,,,,
null,,black_cross(without_color),790363,,,yellow,,,,,null,US_Cities_List/hotsprings.png,US_Cities_List/racine.png,,,,,,,,,,,,,,,,,,
null,,rt_plussign_withcolor,790866,,,yellow,,,,,null,US_Cities_List/hotsprings.png,US_Cities_List/racine.png,,,,,,,,,,,,,,,,,,
872.7999999821186,,rt_thecrossant_black,792125,,,black_plus_sign,,,,,50,,,1,0.9696969696969697,,,,,,,,,,,,,,,,
null,,color_black,792229,,,black_plus_sign,,,,,null,,,,,,,,,,,,,,,,,,,,
null,,learn_phase(without_color),795266,,,black_plus_sign,,,,,null,US_Cities_List/newhope.png,US_Cities_List/cornwall.png,,,,,,,,,,,,,,,,,,
null,,black_cross(without_color),796045,,,yellow,,,,,null,US_Cities_List/newhope.png,US_Cities_List/cornwall.png,,,,,,,,,,,,,,,,,,
null,,rt_plussign_withcolor,796548,,,yellow,,,,,null,US_Cities_List/newhope.png,US_Cities_List/cornwall.png,,,,,,,,,,,,,,,,,,
881.1000000238419,,rt_thecrossant_black,797776,,,black_plus_sign,,,,,50,,,1,0.9701492537313433,,,,,,,,,,,,,,,,
null,,color_black,797879,,,black_plus_sign,,,,,null,,,,,,,,,,,,,,,,,,,,
null,,learn_phase(without_color),800902,,,black_plus_sign,,,,,null,US_Cities_List/hanover.png,US_Cities_List/cornwall.png,,,,,,,,,,,,,,,,,,
null,,black_cross(without_color),801367,,,blue,,,,,null,US_Cities_List/hanover.png,US_Cities_List/cornwall.png,,,,,,,,,,,,,,,,,,
null,,rt_plussign_withcolor,801870,,,blue,,,,,null,US_Cities_List/hanover.png,US_Cities_List/cornwall.png,,,,,,,,,,,,,,,,,,
974.3000000119209,,rt_thecrossant_black,803411,,,black_plus_sign,,,,,49,,,1,0.9705882352941176,,,,,,,,,,,,,,,,
null,,color_black,803522,,,black_plus_sign,,,,,null,,,,,,,,,,,,,,,,,,,,
null,,learn_phase(without_color),806562,,,black_plus_sign,,,,,null,US_Cities_List/leesburg.png,US_Cities_List/peoria.png,,,,,,,,,,,,,,,,,,
null,,black_cross(without_color),807049,,,yellow,,,,,null,US_Cities_List/leesburg.png,US_Cities_List/peoria.png,,,,,,,,,,,,,,,,,,
null,,rt_plussign_withcolor,807551,,,yellow,,,,,null,US_Cities_List/leesburg.png,US_Cities_List/peoria.png,,,,,,,,,,,,,,,,,,
982.8000000119209,,rt_thecrossant_black,809069,,,black_plus_sign,,,,,50,,,1,0.9710144927536232,,,,,,,,,,,,,,,,
null,,color_black,809171,,,black_plus_sign,,,,,null,,,,,,,,,,,,,,,,,,,,
null,,learn_phase(without_color),812191,,,black_plus_sign,,,,,null,US_Cities_List/huntsville.png,US_Cities_List/newhope.png,,,,,,,,,,,,,,,,,,
null,,black_cross(without_color),813126,,,blue,,,,,null,US_Cities_List/huntsville.png,US_Cities_List/newhope.png,,,,,,,,,,,,,,,,,,
null,,rt_plussign_withcolor,813629,,,blue,,,,,null,US_Cities_List/huntsville.png,US_Cities_List/newhope.png,,,,,,,,,,,,,,,,,,
626.2999999821186,,rt_thecrossant_black,814699,,,black_plus_sign,,,,,49,,,1,0.9714285714285714,,,,,,,,,,,,,,,,
null,,color_black,814802,,,black_plus_sign,,,,,null,,,,,,,,,,,,,,,,,,,,
null,,learn_phase(without_color),817822,,,black_plus_sign,,,,,null,US_Cities_List/gatlinburg.png,US_Cities_List/hotsprings.png,,,,,,,,,,,,,,,,,,
null,,black_cross(without_color),818792,,,yellow,,,,,null,US_Cities_List/gatlinburg.png,US_Cities_List/hotsprings.png,,,,,,,,,,,,,,,,,,
null,,rt_plussign_withcolor,819295,,,yellow,,,,,null,US_Cities_List/gatlinburg.png,US_Cities_List/hotsprings.png,,,,,,,,,,,,,,,,,,
1115.0999999940395,,rt_thecrossant_black,820331,,,black_plus_sign,,,,,49,,,0,0.9577464788732394,,,,,,,,,,,,,,,,
null,,color_black,820436,,,black_plus_sign,,,,,null,,,,,,,,,,,,,,,,,,,,
null,,learn_phase(without_color),823452,,,black_plus_sign,,,,,null,US_Cities_List/westpalmbeach.png,US_Cities_List/huntsville.png,,,,,,,,,,,,,,,,,,
null,,black_cross(without_color),824018,,,yellow,,,,,null,US_Cities_List/westpalmbeach.png,US_Cities_List/huntsville.png,,,,,,,,,,,,,,,,,,
null,,rt_plussign_withcolor,824520,,,yellow,,,,,null,US_Cities_List/westpalmbeach.png,US_Cities_List/huntsville.png,,,,,,,,,,,,,,,,,,
1413.800000011921,,rt_thecrossant_black,825960,,,black_plus_sign,,,,,50,,,1,0.9583333333333334,,,,,,,,,,,,,,,,
null,,color_black,826063,,,black_plus_sign,,,,,null,,,,,,,,,,,,,,,,,,,,
null,,learn_phase(without_color),829102,,,black_plus_sign,,,,,null,US_Cities_List/huntsville.png,US_Cities_List/peoria.png,,,,,,,,,,,,,,,,,,
null,,black_cross(without_color),829699,,,blue,,,,,null,US_Cities_List/huntsville.png,US_Cities_List/peoria.png,,,,,,,,,,,,,,,,,,
null,,rt_plussign_withcolor,830201,,,blue,,,,,null,US_Cities_List/huntsville.png,US_Cities_List/peoria.png,,,,,,,,,,,,,,,,,,
1021.5,,rt_thecrossant_black,831610,,,black_plus_sign,,,,,49,,,1,0.958904109589041,,,,,,,,,,,,,,,,
null,,color_black,831713,,,black_plus_sign,,,,,null,,,,,,,,,,,,,,,,,,,,
null,,learn_phase(without_color),834743,,,black_plus_sign,,,,,null,US_Cities_List/newhope.png,US_Cities_List/cornwall.png,,,,,,,,,,,,,,,,,,
null,,black_cross(without_color),835597,,,blue,,,,,null,US_Cities_List/newhope.png,US_Cities_List/cornwall.png,,,,,,,,,,,,,,,,,,
null,,rt_plussign_withcolor,836100,,,blue,,,,,null,US_Cities_List/newhope.png,US_Cities_List/cornwall.png,,,,,,,,,,,,,,,,,,
987.2999999821186,,rt_thecrossant_black,837252,,,black_plus_sign,,,,,49,,,1,0.9594594594594594,,,,,,,,,,,,,,,,
null,,color_black,837355,,,black_plus_sign,,,,,null,,,,,,,,,,,,,,,,,,,,
null,,learn_phase(without_color),840383,,,black_plus_sign,,,,,null,US_Cities_List/cornwall.png,US_Cities_List/newhope.png,,,,,,,,,,,,,,,,,,
null,,black_cross(without_color),840795,,,yellow,,,,,null,US_Cities_List/cornwall.png,US_Cities_List/newhope.png,,,,,,,,,,,,,,,,,,
null,,rt_plussign_withcolor,841298,,,yellow,,,,,null,US_Cities_List/cornwall.png,US_Cities_List/newhope.png,,,,,,,,,,,,,,,,,,
1167.199999988079,,rt_thecrossant_black,842892,,,black_plus_sign,,,,,50,,,1,0.96,,,,,,,,,,,,,,,,
null,,color_black,842995,,,black_plus_sign,,,,,null,,,,,,,,,,,,,,,,,,,,
null,,learn_phase(without_color),846028,,,black_plus_sign,,,,,null,US_Cities_List/leesburg.png,US_Cities_List/racine.png,,,,,,,,,,,,,,,,,,
null,,black_cross(without_color),846791,,,yellow,,,,,null,US_Cities_List/leesburg.png,US_Cities_List/racine.png,,,,,,,,,,,,,,,,,,
null,,rt_plussign_withcolor,847293,,,yellow,,,,,null,US_Cities_List/leesburg.png,US_Cities_List/racine.png,,,,,,,,,,,,,,,,,,
779.5,,rt_thecrossant_black,848536,,,black_plus_sign,,,,,50,,,1,0.9605263157894737,,,,,,,,,,,,,,,,
null,,color_black,848638,,,black_plus_sign,,,,,null,,,,,,,,,,,,,,,,,,,,
null,,learn_phase(without_color),851669,,,black_plus_sign,,,,,null,US_Cities_List/leesburg.png,US_Cities_List/westpalmbeach.png,,,,,,,,,,,,,,,,,,
null,,black_cross(without_color),852443,,,yellow,,,,,null,US_Cities_List/leesburg.png,US_Cities_List/westpalmbeach.png,,,,,,,,,,,,,,,,,,
null,,rt_plussign_withcolor,852946,,,yellow,,,,,null,US_Cities_List/leesburg.png,US_Cities_List/westpalmbeach.png,,,,,,,,,,,,,,,,,,
1000.6999999880791,,rt_thecrossant_black,854191,,,black_plus_sign,,,,,50,,,1,0.961038961038961,,,,,,,,,,,,,,,,
null,,color_black,854295,,,black_plus_sign,,,,,null,,,,,,,,,,,,,,,,,,,,
null,,learn_phase(without_color),857314,,,black_plus_sign,,,,,null,US_Cities_List/racine.png,US_Cities_List/boulder.png,,,,,,,,,,,,,,,,,,
null,,black_cross(without_color),857901,,,blue,,,,,null,US_Cities_List/racine.png,US_Cities_List/boulder.png,,,,,,,,,,,,,,,,,,
null,,rt_plussign_withcolor,858404,,,blue,,,,,null,US_Cities_List/racine.png,US_Cities_List/boulder.png,,,,,,,,,,,,,,,,,,
903.1000000238419,,rt_thecrossant_black,859826,,,black_plus_sign,,,,,49,,,1,0.9615384615384616,,,,,,,,,,,,,,,,
null,,color_black,859929,,,black_plus_sign,,,,,null,,,,,,,,,,,,,,,,,,,,
null,,learn_phase(without_color),862960,,,black_plus_sign,,,,,null,US_Cities_List/hotsprings.png,US_Cities_List/leesburg.png,,,,,,,,,,,,,,,,,,
null,,black_cross(without_color),863490,,,yellow,,,,,null,US_Cities_List/hotsprings.png,US_Cities_List/leesburg.png,,,,,,,,,,,,,,,,,,
null,,rt_plussign_withcolor,863993,,,yellow,,,,,null,US_Cities_List/hotsprings.png,US_Cities_List/leesburg.png,,,,,,,,,,,,,,,,,,
902.4000000059605,,rt_thecrossant_black,865471,,,black_plus_sign,,,,,50,,,1,0.9620253164556962,,,,,,,,,,,,,,,,
null,,color_black,865574,,,black_plus_sign,,,,,null,,,,,,,,,,,,,,,,,,,,
null,,learn_phase(without_color),868598,,,black_plus_sign,,,,,null,US_Cities_List/leesburg.png,US_Cities_List/racine.png,,,,,,,,,,,,,,,,,,
null,,black_cross(without_color),869084,,,yellow,,,,,null,US_Cities_List/leesburg.png,US_Cities_List/racine.png,,,,,,,,,,,,,,,,,,
null,,rt_plussign_withcolor,869587,,,yellow,,,,,null,US_Cities_List/leesburg.png,US_Cities_List/racine.png,,,,,,,,,,,,,,,,,,
1491,,rt_thecrossant_black,871108,,,black_plus_sign,,,,,49,,,0,0.95,,,,,,,,,,,,,,,,
null,,color_black,871212,,,black_plus_sign,,,,,null,,,,,,,,,,,,,,,,,,,,
null,,learn_phase(without_color),874237,,,black_plus_sign,,,,,null,US_Cities_List/cornwall.png,US_Cities_List/shreveport.png,,,,,,,,,,,,,,,,,,
null,,black_cross(without_color),875270,,,blue,,,,,null,US_Cities_List/cornwall.png,US_Cities_List/shreveport.png,,,,,,,,,,,,,,,,,,
null,,rt_plussign_withcolor,875773,,,blue,,,,,null,US_Cities_List/cornwall.png,US_Cities_List/shreveport.png,,,,,,,,,,,,,,,,,,
868.3000000119209,,rt_thecrossant_black,876746,,,black_plus_sign,,,,,49,,,1,0.9506172839506173,,,,,,,,,,,,,,,,
null,,color_black,876849,,,black_plus_sign,,,,,null,,,,,,,,,,,,,,,,,,,,
null,,learn_phase(without_color),879864,,,black_plus_sign,,,,,null,US_Cities_List/westpalmbeach.png,US_Cities_List/huntsville.png,,,,,,,,,,,,,,,,,,
null,,black_cross(without_color),880877,,,yellow,,,,,null,US_Cities_List/westpalmbeach.png,US_Cities_List/huntsville.png,,,,,,,,,,,,,,,,,,
null,,rt_plussign_withcolor,881379,,,yellow,,,,,null,US_Cities_List/westpalmbeach.png,US_Cities_List/huntsville.png,,,,,,,,,,,,,,,,,,
1462.4000000059605,,rt_thecrossant_black,882373,,,black_plus_sign,,,,,50,,,1,0.9512195121951219,,,,,,,,,,,,,,,,
null,,color_black,882476,,,black_plus_sign,,,,,null,,,,,,,,,,,,,,,,,,,,
null,,learn_phase(without_color),885509,,,black_plus_sign,,,,,null,US_Cities_List/cornwall.png,US_Cities_List/hanover.png,,,,,,,,,,,,,,,,,,
null,,black_cross(without_color),886247,,,yellow,,,,,null,US_Cities_List/cornwall.png,US_Cities_List/hanover.png,,,,,,,,,,,,,,,,,,
null,,rt_plussign_withcolor,886750,,,yellow,,,,,null,US_Cities_List/cornwall.png,US_Cities_List/hanover.png,,,,,,,,,,,,,,,,,,
1454.5,,rt_thecrossant_black,888018,,,black_plus_sign,,,,,50,,,1,0.9518072289156626,,,,,,,,,,,,,,,,
null,,color_black,888122,,,black_plus_sign,,,,,null,,,,,,,,,,,,,,,,,,,,
null,,learn_phase(without_color),891152,,,black_plus_sign,,,,,null,US_Cities_List/westpalmbeach.png,US_Cities_List/leesburg.png,,,,,,,,,,,,,,,,,,
null,,black_cross(without_color),891689,,,yellow,,,,,null,US_Cities_List/westpalmbeach.png,US_Cities_List/leesburg.png,,,,,,,,,,,,,,,,,,
null,,rt_plussign_withcolor,892191,,,yellow,,,,,null,US_Cities_List/westpalmbeach.png,US_Cities_List/leesburg.png,,,,,,,,,,,,,,,,,,
1105.699999988079,,rt_thecrossant_black,893660,,,black_plus_sign,,,,,50,,,1,0.9523809523809523,,,,,,,,,,,,,,,,
null,,color_black,893763,,,black_plus_sign,,,,,null,,,,,,,,,,,,,,,,,,,,
null,,learn_phase(without_color),896785,,,black_plus_sign,,,,,null,US_Cities_List/leesburg.png,US_Cities_List/hotsprings.png,,,,,,,,,,,,,,,,,,
null,,black_cross(without_color),897318,,,yellow,,,,,null,US_Cities_List/leesburg.png,US_Cities_List/hotsprings.png,,,,,,,,,,,,,,,,,,
null,,rt_plussign_withcolor,897820,,,yellow,,,,,null,US_Cities_List/leesburg.png,US_Cities_List/hotsprings.png,,,,,,,,,,,,,,,,,,
892.5999999940395,,rt_thecrossant_black,899293,,,black_plus_sign,,,,,50,,,1,0.9529411764705882,,,,,,,,,,,,,,,,
null,,color_black,899398,,,black_plus_sign,,,,,null,,,,,,,,,,,,,,,,,,,,
null,,learn_phase(without_color),902414,,,black_plus_sign,,,,,null,US_Cities_List/westpalmbeach.png,US_Cities_List/huntsville.png,,,,,,,,,,,,,,,,,,
null,,black_cross(without_color),902990,,,yellow,,,,,null,US_Cities_List/westpalmbeach.png,US_Cities_List/huntsville.png,,,,,,,,,,,,,,,,,,
null,,rt_plussign_withcolor,903493,,,yellow,,,,,null,US_Cities_List/westpalmbeach.png,US_Cities_List/huntsville.png,,,,,,,,,,,,,,,,,,
862.8000000119209,,rt_thecrossant_black,904923,,,black_plus_sign,,,,,50,,,1,0.9534883720930233,,,,,,,,,,,,,,,,
null,,color_black,905026,,,black_plus_sign,,,,,null,,,,,,,,,,,,,,,,,,,,
null,,learn_phase(without_color),908044,,,black_plus_sign,,,,,null,US_Cities_List/huntsville.png,US_Cities_List/peoria.png,,,,,,,,,,,,,,,,,,
null,,black_cross(without_color),908852,,,blue,,,,,null,US_Cities_List/huntsville.png,US_Cities_List/peoria.png,,,,,,,,,,,,,,,,,,
null,,rt_plussign_withcolor,909356,,,blue,,,,,null,US_Cities_List/huntsville.png,US_Cities_List/peoria.png,,,,,,,,,,,,,,,,,,
752.8000000119209,,rt_thecrossant_black,910553,,,black_plus_sign,,,,,49,,,1,0.9540229885057471,,,,,,,,,,,,,,,,
null,,color_black,910656,,,black_plus_sign,,,,,null,,,,,,,,,,,,,,,,,,,,
null,,learn_phase(without_color),913689,,,black_plus_sign,,,,,null,US_Cities_List/shreveport.png,US_Cities_List/cornwall.png,,,,,,,,,,,,,,,,,,
null,,black_cross(without_color),914391,,,blue,,,,,null,US_Cities_List/shreveport.png,US_Cities_List/cornwall.png,,,,,,,,,,,,,,,,,,
null,,rt_plussign_withcolor,914908,,,blue,,,,,null,US_Cities_List/shreveport.png,US_Cities_List/cornwall.png,,,,,,,,,,,,,,,,,,
1963.0999999940395,,rt_thecrossant_black,916212,,,black_plus_sign,,,,,49,,,1,0.9545454545454546,,,,,,,,,,,,,,,,
null,,color_black,916321,,,black_plus_sign,,,,,null,,,,,,,,,,,,,,,,,,,,
null,,learn_phase(without_color),919350,,,black_plus_sign,,,,,null,US_Cities_List/huntsville.png,US_Cities_List/newhope.png,,,,,,,,,,,,,,,,,,
null,,black_cross(without_color),919849,,,yellow,,,,,null,US_Cities_List/huntsville.png,US_Cities_List/newhope.png,,,,,,,,,,,,,,,,,,
null,,rt_plussign_withcolor,920351,,,yellow,,,,,null,US_Cities_List/huntsville.png,US_Cities_List/newhope.png,,,,,,,,,,,,,,,,,,
979.4000000059605,,rt_thecrossant_black,921858,,,black_plus_sign,,,,,50,,,1,0.9550561797752809,,,,,,,,,,,,,,,,
null,,color_black,921961,,,black_plus_sign,,,,,null,,,,,,,,,,,,,,,,,,,,
null,,learn_phase(without_color),924980,,,black_plus_sign,,,,,null,US_Cities_List/westpalmbeach.png,US_Cities_List/hanover.png,,,,,,,,,,,,,,,,,,
null,,black_cross(without_color),926022,,,yellow,,,,,null,US_Cities_List/westpalmbeach.png,US_Cities_List/hanover.png,,,,,,,,,,,,,,,,,,
null,,rt_plussign_withcolor,926524,,,yellow,,,,,null,US_Cities_List/westpalmbeach.png,US_Cities_List/hanover.png,,,,,,,,,,,,,,,,,,
1509.800000011921,,rt_thecrossant_black,927488,,,black_plus_sign,,,,,50,,,1,0.9555555555555556,,,,,,,,,,,,,,,,
null,,color_black,927592,,,black_plus_sign,,,,,null,,,,,,,,,,,,,,,,,,,,
null,,learn_phase(without_color),930609,,,black_plus_sign,,,,,null,US_Cities_List/huntsville.png,US_Cities_List/westpalmbeach.png,,,,,,,,,,,,,,,,,,
null,,black_cross(without_color),931468,,,blue,,,,,null,US_Cities_List/huntsville.png,US_Cities_List/westpalmbeach.png,,,,,,,,,,,,,,,,,,
null,,rt_plussign_withcolor,931971,,,blue,,,,,null,US_Cities_List/huntsville.png,US_Cities_List/westpalmbeach.png,,,,,,,,,,,,,,,,,,
1220.199999988079,,rt_thecrossant_black,933119,,,black_plus_sign,,,,,49,,,1,0.9560439560439561,,,,,,,,,,,,,,,,
null,,color_black,933223,,,black_plus_sign,,,,,null,,,,,,,,,,,,,,,,,,,,
null,,learn_phase(without_color),936246,,,black_plus_sign,,,,,null,US_Cities_List/racine.png,US_Cities_List/hotsprings.png,,,,,,,,,,,,,,,,,,
null,,black_cross(without_color),936963,,,yellow,,,,,null,US_Cities_List/racine.png,US_Cities_List/hotsprings.png,,,,,,,,,,,,,,,,,,
null,,rt_plussign_withcolor,937465,,,yellow,,,,,null,US_Cities_List/racine.png,US_Cities_List/hotsprings.png,,,,,,,,,,,,,,,,,,
1160.5,,rt_thecrossant_black,938754,,,black_plus_sign,,,,,50,,,1,0.9565217391304348,,,,,,,,,,,,,,,,
null,,color_black,938857,,,black_plus_sign,,,,,null,,,,,,,,,,,,,,,,,,,,
null,,learn_phase(without_color),941876,,,black_plus_sign,,,,,null,US_Cities_List/carmel.png,US_Cities_List/newhope.png,,,,,,,,,,,,,,,,,,
null,,black_cross(without_color),942351,,,yellow,,,,,null,US_Cities_List/carmel.png,US_Cities_List/newhope.png,,,,,,,,,,,,,,,,,,
null,,rt_plussign_withcolor,942857,,,yellow,,,,,null,US_Cities_List/carmel.png,US_Cities_List/newhope.png,,,,,,,,,,,,,,,,,,
1219.5999999940395,,rt_thecrossant_black,944390,,,black_plus_sign,,,,,50,,,1,0.956989247311828,,,,,,,,,,,,,,,,
null,,color_black,944492,,,black_plus_sign,,,,,null,,,,,,,,,,,,,,,,,,,,
null,,learn_phase(without_color),947518,,,black_plus_sign,,,,,null,US_Cities_List/newhope.png,US_Cities_List/cornwall.png,,,,,,,,,,,,,,,,,,
null,,black_cross(without_color),948565,,,yellow,,,,,null,US_Cities_List/newhope.png,US_Cities_List/cornwall.png,,,,,,,,,,,,,,,,,,
null,,rt_plussign_withcolor,949068,,,yellow,,,,,null,US_Cities_List/newhope.png,US_Cities_List/cornwall.png,,,,,,,,,,,,,,,,,,
750,,rt_thecrossant_black,950026,,,black_plus_sign,,,,,50,,,1,0.9574468085106383,,,,,,,,,,,,,,,,
null,,color_black,950129,,,black_plus_sign,,,,,null,,,,,,,,,,,,,,,,,,,,
null,,learn_phase(without_color),953159,,,black_plus_sign,,,,,null,US_Cities_List/hotsprings.png,US_Cities_List/racine.png,,,,,,,,,,,,,,,,,,
null,,black_cross(without_color),954001,,,yellow,,,,,null,US_Cities_List/hotsprings.png,US_Cities_List/racine.png,,,,,,,,,,,,,,,,,,
null,,rt_plussign_withcolor,954504,,,yellow,,,,,null,US_Cities_List/hotsprings.png,US_Cities_List/racine.png,,,,,,,,,,,,,,,,,,
1177.5,,rt_thecrossant_black,955669,,,black_plus_sign,,,,,50,,,1,0.9578947368421052,,,,,,,,,,,,,,,,
null,,color_black,955772,,,black_plus_sign,,,,,null,,,,,,,,,,,,,,,,,,,,
null,,learn_phase(without_color),958792,,,black_plus_sign,,,,,null,US_Cities_List/racine.png,US_Cities_List/boulder.png,,,,,,,,,,,,,,,,,,
null,,black_cross(without_color),959788,,,blue,,,,,null,US_Cities_List/racine.png,US_Cities_List/boulder.png,,,,,,,,,,,,,,,,,,
null,,rt_plussign_withcolor,960291,,,blue,,,,,null,US_Cities_List/racine.png,US_Cities_List/boulder.png,,,,,,,,,,,,,,,,,,
1026.5,,rt_thecrossant_black,961300,,,black_plus_sign,,,,,49,,,1,0.9583333333333334,,,,,,,,,,,,,,,,
null,,color_black,961404,,,black_plus_sign,,,,,null,,,,,,,,,,,,,,,,,,,,
null,,learn_phase(without_color),964424,,,black_plus_sign,,,,,null,US_Cities_List/hotsprings.png,US_Cities_List/peoria.png,,,,,,,,,,,,,,,,,,
null,,black_cross(without_color),965187,,,yellow,,,,,null,US_Cities_List/hotsprings.png,US_Cities_List/peoria.png,,,,,,,,,,,,,,,,,,
null,,rt_plussign_withcolor,965689,,,yellow,,,,,null,US_Cities_List/hotsprings.png,US_Cities_List/peoria.png,,,,,,,,,,,,,,,,,,
1549.5,,rt_thecrossant_black,966933,,,black_plus_sign,,,,,50,,,1,0.9587628865979382,,,,,,,,,,,,,,,,
null,,color_black,967050,,,black_plus_sign,,,,,null,,,,,,,,,,,,,,,,,,,,
null,,learn_phase(without_color),970073,,,black_plus_sign,,,,,null,US_Cities_List/newhope.png,US_Cities_List/carmel.png,,,,,,,,,,,,,,,,,,
null,,black_cross(without_color),971040,,,yellow,,,,,null,US_Cities_List/newhope.png,US_Cities_List/carmel.png,,,,,,,,,,,,,,,,,,
null,,rt_plussign_withcolor,971556,,,yellow,,,,,null,US_Cities_List/newhope.png,US_Cities_List/carmel.png,,,,,,,,,,,,,,,,,,
1038.300000011921,,rt_thecrossant_black,972600,,,black_plus_sign,,,,,50,,,1,0.9591836734693877,,,,,,,,,,,,,,,,
null,,color_black,972704,,,black_plus_sign,,,,,null,,,,,,,,,,,,,,,,,,,,
null,,learn_phase(without_color),975720,,,black_plus_sign,,,,,null,US_Cities_List/huntsville.png,US_Cities_List/peoria.png,,,,,,,,,,,,,,,,,,
null,,black_cross(without_color),976361,,,blue,,,,,null,US_Cities_List/huntsville.png,US_Cities_List/peoria.png,,,,,,,,,,,,,,,,,,
514.3000000119209,,rt_plussign_withcolor,976877,,,blue,,,,,49,US_Cities_List/huntsville.png,US_Cities_List/peoria.png,,,,,,,,,,,,,,,,,,
null,,rt_thecrossant_black,978242,,,black_plus_sign,,,,,null,,,1,0.9595959595959596,,,,,,,,,,,,,,,,
null,,color_black,978356,,,black_plus_sign,,,,,null,,,,,,,,,,,,,,,,,,,,
null,,learn_phase(without_color),981378,,,black_plus_sign,,,,,null,US_Cities_List/leesburg.png,US_Cities_List/racine.png,,,,,,,,,,,,,,,,,,
null,,black_cross(without_color),982301,,,blue,,,,,null,US_Cities_List/leesburg.png,US_Cities_List/racine.png,,,,,,,,,,,,,,,,,,
null,,rt_plussign_withcolor,982802,,,blue,,,,,null,US_Cities_List/leesburg.png,US_Cities_List/racine.png,,,,,,,,,,,,,,,,,,
1572.1000000238419,,rt_thecrossant_black,983886,,,black_plus_sign,,,,,49,,,1,0.96,,,,,,,,,,,,,,,,
null,,color_black,983989,,,black_plus_sign,,,,,null,,,,,,,,,,,,,,,,,,,,
null,,learn_phase(without_color),987012,,,black_plus_sign,,,,,null,US_Cities_List/leesburg.png,US_Cities_List/westpalmbeach.png,,,,,,,,,,,,,,,,,,
null,,black_cross(without_color),987451,,,blue,,,,,null,US_Cities_List/leesburg.png,US_Cities_List/westpalmbeach.png,,,,,,,,,,,,,,,,,,
null,,rt_plussign_withcolor,987964,,,blue,,,,,null,US_Cities_List/leesburg.png,US_Cities_List/westpalmbeach.png,,,,,,,,,,,,,,,,,,
1170.4000000059605,,rt_thecrossant_black,989534,,,black_plus_sign,,,,,49,,,1,0.9603960396039604,,,,,,,,,,,,,,,,
null,,color_black,989637,,,black_plus_sign,,,,,null,,,,,,,,,,,,,,,,,,,,
null,,learn_phase(without_color),992663,,,black_plus_sign,,,,,null,US_Cities_List/gatlinburg.png,US_Cities_List/hotsprings.png,,,,,,,,,,,,,,,,,,
null,,black_cross(without_color),993088,,,yellow,,,,,null,US_Cities_List/gatlinburg.png,US_Cities_List/hotsprings.png,,,,,,,,,,,,,,,,,,
null,,rt_plussign_withcolor,993594,,,yellow,,,,,null,US_Cities_List/gatlinburg.png,US_Cities_List/hotsprings.png,,,,,,,,,,,,,,,,,,
829,,rt_thecrossant_black,995176,,,black_plus_sign,,,,,50,,,1,0.9607843137254902,,,,,,,,,,,,,,,,
null,,color_black,995280,,,black_plus_sign,,,,,null,,,,,,,,,,,,,,,,,,,,
null,,learn_phase(without_color),998306,,,black_plus_sign,,,,,null,US_Cities_List/hanover.png,US_Cities_List/westpalmbeach.png,,,,,,,,,,,,,,,,,,
null,,black_cross(without_color),998908,,,blue,,,,,null,US_Cities_List/hanover.png,US_Cities_List/westpalmbeach.png,,,,,,,,,,,,,,,,,,
null,,rt_plussign_withcolor,999411,,,blue,,,,,null,US_Cities_List/hanover.png,US_Cities_List/westpalmbeach.png,,,,,,,,,,,,,,,,,,
673.9000000059605,,rt_thecrossant_black,1000816,,,black_plus_sign,,,,,49,,,1,0.9611650485436893,,,,,,,,,,,,,,,,
null,,color_black,1000920,,,black_plus_sign,,,,,null,,,,,,,,,,,,,,,,,,,,
null,,learn_phase(without_color),1003950,,,black_plus_sign,,,,,null,US_Cities_List/carmel.png,US_Cities_List/newhope.png,,,,,,,,,,,,,,,,,,
null,,black_cross(without_color),1004826,,,blue,,,,,null,US_Cities_List/carmel.png,US_Cities_List/newhope.png,,,,,,,,,,,,,,,,,,
null,,rt_plussign_withcolor,1005329,,,blue,,,,,null,US_Cities_List/carmel.png,US_Cities_List/newhope.png,,,,,,,,,,,,,,,,,,
896.4000000059605,,rt_thecrossant_black,1006460,,,black_plus_sign,,,,,49,,,1,0.9615384615384616,,,,,,,,,,,,,,,,
null,,color_black,1006563,,,black_plus_sign,,,,,null,,,,,,,,,,,,,,,,,,,,
null,,learn_phase(without_color),1009583,,,black_plus_sign,,,,,null,US_Cities_List/huntsville.png,US_Cities_List/newhope.png,,,,,,,,,,,,,,,,,,
null,,black_cross(without_color),1010617,,,yellow,,,,,null,US_Cities_List/huntsville.png,US_Cities_List/newhope.png,,,,,,,,,,,,,,,,,,
null,,rt_plussign_withcolor,1011119,,,yellow,,,,,null,US_Cities_List/huntsville.png,US_Cities_List/newhope.png,,,,,,,,,,,,,,,,,,
1194,,rt_thecrossant_black,1012092,,,black_plus_sign,,,,,50,,,1,0.9619047619047619,,,,,,,,,,,,,,,,
null,,color_black,1012195,,,black_plus_sign,,,,,null,,,,,,,,,,,,,,,,,,,,
null,,learn_phase(without_color),1015214,,,black_plus_sign,,,,,null,US_Cities_List/leesburg.png,US_Cities_List/westpalmbeach.png,,,,,,,,,,,,,,,,,,
null,,black_cross(without_color),1015979,,,blue,,,,,null,US_Cities_List/leesburg.png,US_Cities_List/westpalmbeach.png,,,,,,,,,,,,,,,,,,
null,,rt_plussign_withcolor,1016482,,,blue,,,,,null,US_Cities_List/leesburg.png,US_Cities_List/westpalmbeach.png,,,,,,,,,,,,,,,,,,
1361.0999999940395,,rt_thecrossant_black,1017724,,,black_plus_sign,,,,,49,,,1,0.9622641509433962,,,,,,,,,,,,,,,,
null,,color_black,1017828,,,black_plus_sign,,,,,null,,,,,,,,,,,,,,,,,,,,
null,,learn_phase(without_color),1020865,,,black_plus_sign,,,,,null,US_Cities_List/newhope.png,US_Cities_List/cornwall.png,,,,,,,,,,,,,,,,,,
null,,black_cross(without_color),1021843,,,blue,,,,,null,US_Cities_List/newhope.png,US_Cities_List/cornwall.png,,,,,,,,,,,,,,,,,,
null,,rt_plussign_withcolor,1022346,,,blue,,,,,null,US_Cities_List/newhope.png,US_Cities_List/cornwall.png,,,,,,,,,,,,,,,,,,
911.0999999940395,,rt_thecrossant_black,1023374,,,black_plus_sign,,,,,49,,,1,0.9626168224299065,,,,,,,,,,,,,,,,
null,,color_black,1023479,,,black_plus_sign,,,,,null,,,,,,,,,,,,,,,,,,,,
null,,learn_phase(without_color),1026510,,,black_plus_sign,,,,,null,US_Cities_List/hanover.png,US_Cities_List/westpalmbeach.png,,,,,,,,,,,,,,,,,,
null,,black_cross(without_color),1027223,,,blue,,,,,null,US_Cities_List/hanover.png,US_Cities_List/westpalmbeach.png,,,,,,,,,,,,,,,,,,
null,,rt_plussign_withcolor,1027726,,,blue,,,,,null,US_Cities_List/hanover.png,US_Cities_List/westpalmbeach.png,,,,,,,,,,,,,,,,,,
1232.8999999761581,,rt_thecrossant_black,1029020,,,black_plus_sign,,,,,49,,,1,0.9629629629629629,,,,,,,,,,,,,,,,
null,,color_black,1029123,,,black_plus_sign,,,,,null,,,,,,,,,,,,,,,,,,,,
null,,learn_phase(without_color),1032143,,,black_plus_sign,,,,,null,US_Cities_List/leesburg.png,US_Cities_List/peoria.png,,,,,,,,,,,,,,,,,,
null,,black_cross(without_color),1032764,,,yellow,,,,,null,US_Cities_List/leesburg.png,US_Cities_List/peoria.png,,,,,,,,,,,,,,,,,,
null,,rt_plussign_withcolor,1033267,,,yellow,,,,,null,US_Cities_List/leesburg.png,US_Cities_List/peoria.png,,,,,,,,,,,,,,,,,,
2047.1000000238419,,rt_thecrossant_black,1034653,,,black_plus_sign,,,,,50,,,1,0.963302752293578,,,,,,,,,,,,,,,,
null,,color_black,1034764,,,black_plus_sign,,,,,null,,,,,,,,,,,,,,,,,,,,
null,,learn_phase(without_color),1037795,,,black_plus_sign,,,,,null,US_Cities_List/hotsprings.png,US_Cities_List/gatlinburg.png,,,,,,,,,,,,,,,,,,
null,,black_cross(without_color),1038447,,,yellow,,,,,null,US_Cities_List/hotsprings.png,US_Cities_List/gatlinburg.png,,,,,,,,,,,,,,,,,,
null,,rt_plussign_withcolor,1038949,,,yellow,,,,,null,US_Cities_List/hotsprings.png,US_Cities_List/gatlinburg.png,,,,,,,,,,,,,,,,,,
850.0999999940395,,rt_thecrossant_black,1040302,,,black_plus_sign,,,,,50,,,1,0.9636363636363636,,,,,,,,,,,,,,,,
null,,color_black,1040414,,,black_plus_sign,,,,,null,,,,,,,,,,,,,,,,,,,,
null,,learn_phase(without_color),1043452,,,black_plus_sign,,,,,null,US_Cities_List/hanover.png,US_Cities_List/cornwall.png,,,,,,,,,,,,,,,,,,
null,,black_cross(without_color),1044118,,,blue,,,,,null,US_Cities_List/hanover.png,US_Cities_List/cornwall.png,,,,,,,,,,,,,,,,,,
null,,rt_plussign_withcolor,1044621,,,blue,,,,,null,US_Cities_List/hanover.png,US_Cities_List/cornwall.png,,,,,,,,,,,,,,,,,,
950.5,,rt_thecrossant_black,1045961,,,black_plus_sign,,,,,49,,,1,0.963963963963964,,,,,,,,,,,,,,,,
null,,color_black,1046065,,,black_plus_sign,,,,,null,,,,,,,,,,,,,,,,,,,,
null,,learn_phase(without_color),1049081,,,black_plus_sign,,,,,null,US_Cities_List/newhope.png,US_Cities_List/huntsville.png,,,,,,,,,,,,,,,,,,
null,,black_cross(without_color),1049922,,,yellow,,,,,null,US_Cities_List/newhope.png,US_Cities_List/huntsville.png,,,,,,,,,,,,,,,,,,
null,,rt_plussign_withcolor,1050425,,,yellow,,,,,null,US_Cities_List/newhope.png,US_Cities_List/huntsville.png,,,,,,,,,,,,,,,,,,
1479.199999988079,,rt_thecrossant_black,1051590,,,black_plus_sign,,,,,50,,,1,0.9642857142857143,,,,,,,,,,,,,,,,
null,,color_black,1051693,,,black_plus_sign,,,,,null,,,,,,,,,,,,,,,,,,,,
null,,learn_phase(without_color),1054720,,,black_plus_sign,,,,,null,US_Cities_List/hanover.png,US_Cities_List/cornwall.png,,,,,,,,,,,,,,,,,,
null,,black_cross(without_color),1055498,,,yellow,,,,,null,US_Cities_List/hanover.png,US_Cities_List/cornwall.png,,,,,,,,,,,,,,,,,,
null,,rt_plussign_withcolor,1056001,,,yellow,,,,,null,US_Cities_List/hanover.png,US_Cities_List/cornwall.png,,,,,,,,,,,,,,,,,,
1186.1000000238419,,rt_thecrossant_black,1057230,,,black_plus_sign,,,,,50,,,1,0.9646017699115044,,,,,,,,,,,,,,,,
null,,color_black,1057333,,,black_plus_sign,,,,,null,,,,,,,,,,,,,,,,,,,,
null,,learn_phase(without_color),1060359,,,black_plus_sign,,,,,null,US_Cities_List/huntsville.png,US_Cities_List/peoria.png,,,,,,,,,,,,,,,,,,
null,,black_cross(without_color),1061339,,,blue,,,,,null,US_Cities_List/huntsville.png,US_Cities_List/peoria.png,,,,,,,,,,,,,,,,,,
null,,rt_plussign_withcolor,1061841,,,blue,,,,,null,US_Cities_List/huntsville.png,US_Cities_List/peoria.png,,,,,,,,,,,,,,,,,,
978.5999999940395,,rt_thecrossant_black,1062868,,,black_plus_sign,,,,,49,,,1,0.9649122807017544,,,,,,,,,,,,,,,,
null,,color_black,1062972,,,black_plus_sign,,,,,null,,,,,,,,,,,,,,,,,,,,
null,,learn_phase(without_color),1066000,,,black_plus_sign,,,,,null,US_Cities_List/boulder.png,US_Cities_List/racine.png,,,,,,,,,,,,,,,,,,
null,,black_cross(without_color),1066981,,,blue,,,,,null,US_Cities_List/boulder.png,US_Cities_List/racine.png,,,,,,,,,,,,,,,,,,
null,,rt_plussign_withcolor,1067483,,,blue,,,,,null,US_Cities_List/boulder.png,US_Cities_List/racine.png,,,,,,,,,,,,,,,,,,
1103.199999988079,,rt_thecrossant_black,1068509,,,black_plus_sign,,,,,49,,,1,0.9652173913043478,,,,,,,,,,,,,,,,
null,,color_black,1068612,,,black_plus_sign,,,,,null,,,,,,,,,,,,,,,,,,,,
null,,learn_phase(without_color),1071638,,,black_plus_sign,,,,,null,US_Cities_List/hotsprings.png,US_Cities_List/leesburg.png,,,,,,,,,,,,,,,,,,
null,,black_cross(without_color),1072080,,,blue,,,,,null,US_Cities_List/hotsprings.png,US_Cities_List/leesburg.png,,,,,,,,,,,,,,,,,,
null,,rt_plussign_withcolor,1072583,,,blue,,,,,null,US_Cities_List/hotsprings.png,US_Cities_List/leesburg.png,,,,,,,,,,,,,,,,,,
1624.3999999761581,,rt_thecrossant_black,1074146,,,black_plus_sign,,,,,50,,,0,0.9568965517241379,,,,,,,,,,,,,,,,
null,,color_black,1074249,,,black_plus_sign,,,,,null,,,,,,,,,,,,,,,,,,,,
null,,learn_phase(without_color),1077290,,,black_plus_sign,,,,,null,US_Cities_List/cornwall.png,US_Cities_List/hanover.png,,,,,,,,,,,,,,,,,,
null,,black_cross(without_color),1077979,,,blue,,,,,null,US_Cities_List/cornwall.png,US_Cities_List/hanover.png,,,,,,,,,,,,,,,,,,
null,,rt_plussign_withcolor,1078481,,,blue,,,,,null,US_Cities_List/cornwall.png,US_Cities_List/hanover.png,,,,,,,,,,,,,,,,,,
730.8999999761581,,rt_thecrossant_black,1079808,,,black_plus_sign,,,,,49,,,1,0.9572649572649573,,,,,,,,,,,,,,,,
null,,color_black,1079911,,,black_plus_sign,,,,,null,,,,,,,,,,,,,,,,,,,,
null,,learn_phase(without_color),1082933,,,black_plus_sign,,,,,null,US_Cities_List/hotsprings.png,US_Cities_List/peoria.png,,,,,,,,,,,,,,,,,,
null,,black_cross(without_color),1083625,,,blue,,,,,null,US_Cities_List/hotsprings.png,US_Cities_List/peoria.png,,,,,,,,,,,,,,,,,,
null,,rt_plussign_withcolor,1084128,,,blue,,,,,null,US_Cities_List/hotsprings.png,US_Cities_List/peoria.png,,,,,,,,,,,,,,,,,,
907.8000000119209,,rt_thecrossant_black,1085444,,,black_plus_sign,,,,,49,,,1,0.9576271186440678,,,,,,,,,,,,,,,,
null,,color_black,1085548,,,black_plus_sign,,,,,null,,,,,,,,,,,,,,,,,,,,
null,,learn_phase(without_color),1088582,,,black_plus_sign,,,,,null,US_Cities_List/leesburg.png,US_Cities_List/peoria.png,,,,,,,,,,,,,,,,,,
null,,black_cross(without_color),1089229,,,blue,,,,,null,US_Cities_List/leesburg.png,US_Cities_List/peoria.png,,,,,,,,,,,,,,,,,,
null,,rt_plussign_withcolor,1089732,,,blue,,,,,null,US_Cities_List/leesburg.png,US_Cities_List/peoria.png,,,,,,,,,,,,,,,,,,
955.2000000178814,,rt_thecrossant_black,1091092,,,black_plus_sign,,,,,49,,,1,0.957983193277311,,,,,,,,,,,,,,,,
null,,color_black,1091197,,,black_plus_sign,,,,,null,,,,,,,,,,,,,,,,,,,,
null,,learn_phase(without_color),1094224,,,black_plus_sign,,,,,null,US_Cities_List/hotsprings.png,US_Cities_List/leesburg.png,,,,,,,,,,,,,,,,,,
null,,black_cross(without_color),1095313,,,blue,,,,,null,US_Cities_List/hotsprings.png,US_Cities_List/leesburg.png,,,,,,,,,,,,,,,,,,
null,,rt_plussign_withcolor,1095828,,,blue,,,,,null,US_Cities_List/hotsprings.png,US_Cities_List/leesburg.png,,,,,,,,,,,,,,,,,,
873.6999999880791,,rt_thecrossant_black,1096746,,,black_plus_sign,,,,,49,,,1,0.9583333333333334,,,,,,,,,,,,,,,,
null,,color_black,1096848,,,black_plus_sign,,,,,null,,,,,,,,,,,,,,,,,,,,
null,,learn_phase(without_color),1099871,,,black_plus_sign,,,,,null,US_Cities_List/leesburg.png,US_Cities_List/peoria.png,,,,,,,,,,,,,,,,,,
null,,black_cross(without_color),1100291,,,yellow,,,,,null,US_Cities_List/leesburg.png,US_Cities_List/peoria.png,,,,,,,,,,,,,,,,,,
null,,rt_plussign_withcolor,1100793,,,yellow,,,,,null,US_Cities_List/leesburg.png,US_Cities_List/peoria.png,,,,,,,,,,,,,,,,,,
2022,,rt_thecrossant_black,1102380,,,black_plus_sign,,,,,50,,,1,0.9586776859504132,,,,,,,,,,,,,,,,
null,,color_black,1102484,,,black_plus_sign,,,,,null,,,,,,,,,,,,,,,,,,,,
null,,learn_phase(without_color),1105512,,,black_plus_sign,,,,,null,US_Cities_List/peoria.png,US_Cities_List/hotsprings.png,,,,,,,,,,,,,,,,,,
null,,black_cross(without_color),1105955,,,yellow,,,,,null,US_Cities_List/peoria.png,US_Cities_List/hotsprings.png,,,,,,,,,,,,,,,,,,
null,,rt_plussign_withcolor,1106458,,,yellow,,,,,null,US_Cities_List/peoria.png,US_Cities_List/hotsprings.png,,,,,,,,,,,,,,,,,,
971,,rt_thecrossant_black,1108021,,,black_plus_sign,,,,,50,,,1,0.9590163934426229,,,,,,,,,,,,,,,,
null,,color_black,1108123,,,black_plus_sign,,,,,null,,,,,,,,,,,,,,,,,,,,
null,,learn_phase(without_color),1111152,,,black_plus_sign,,,,,null,US_Cities_List/racine.png,US_Cities_List/leesburg.png,,,,,,,,,,,,,,,,,,
null,,black_cross(without_color),1111614,,,blue,,,,,null,US_Cities_List/racine.png,US_Cities_List/leesburg.png,,,,,,,,,,,,,,,,,,
null,,rt_plussign_withcolor,1112116,,,blue,,,,,null,US_Cities_List/racine.png,US_Cities_List/leesburg.png,,,,,,,,,,,,,,,,,,
677.5,,rt_thecrossant_black,1113661,,,black_plus_sign,,,,,49,,,1,0.959349593495935,,,,,,,,,,,,,,,,
null,,color_black,1113780,,,black_plus_sign,,,,,null,,,,,,,,,,,,,,,,,,,,
null,,learn_phase(without_color),1116818,,,black_plus_sign,,,,,null,US_Cities_List/westpalmbeach.png,US_Cities_List/leesburg.png,,,,,,,,,,,,,,,,,,
null,,black_cross(without_color),1117893,,,yellow,,,,,null,US_Cities_List/westpalmbeach.png,US_Cities_List/leesburg.png,,,,,,,,,,,,,,,,,,
null,,rt_plussign_withcolor,1118396,,,yellow,,,,,null,US_Cities_List/westpalmbeach.png,US_Cities_List/leesburg.png,,,,,,,,,,,,,,,,,,
726.8000000119209,,rt_thecrossant_black,1119328,,,black_plus_sign,,,,,50,,,1,0.9596774193548387,,,,,,,,,,,,,,,,
null,,color_black,1119431,,,black_plus_sign,,,,,null,,,,,,,,,,,,,,,,,,,,
null,,learn_phase(without_color),1122460,,,black_plus_sign,,,,,null,US_Cities_List/peoria.png,US_Cities_List/hotsprings.png,,,,,,,,,,,,,,,,,,
null,,black_cross(without_color),1123179,,,blue,,,,,null,US_Cities_List/peoria.png,US_Cities_List/hotsprings.png,,,,,,,,,,,,,,,,,,
null,,rt_plussign_withcolor,1123680,,,blue,,,,,null,US_Cities_List/peoria.png,US_Cities_List/hotsprings.png,,,,,,,,,,,,,,,,,,
1513.800000011921,,rt_thecrossant_black,1124965,,,black_plus_sign,,,,,49,,,1,0.96,,,,,,,,,,,,,,,,
null,,color_black,1125068,,,black_plus_sign,,,,,null,,,,,,,,,,,,,,,,,,,,
null,,learn_phase(without_color),1128083,,,black_plus_sign,,,,,null,US_Cities_List/peoria.png,US_Cities_List/huntsville.png,,,,,,,,,,,,,,,,,,
null,,black_cross(without_color),1128825,,,yellow,,,,,null,US_Cities_List/peoria.png,US_Cities_List/huntsville.png,,,,,,,,,,,,,,,,,,
null,,rt_plussign_withcolor,1129327,,,yellow,,,,,null,US_Cities_List/peoria.png,US_Cities_List/huntsville.png,,,,,,,,,,,,,,,,,,
989.0999999940395,,rt_thecrossant_black,1130590,,,black_plus_sign,,,,,50,,,1,0.9603174603174603,,,,,,,,,,,,,,,,
null,,color_black,1130692,,,black_plus_sign,,,,,null,,,,,,,,,,,,,,,,,,,,
null,,learn_phase(without_color),1133710,,,black_plus_sign,,,,,null,US_Cities_List/huntsville.png,US_Cities_List/newhope.png,,,,,,,,,,,,,,,,,,
null,,black_cross(without_color),1134387,,,yellow,,,,,null,US_Cities_List/huntsville.png,US_Cities_List/newhope.png,,,,,,,,,,,,,,,,,,
null,,rt_plussign_withcolor,1134889,,,yellow,,,,,null,US_Cities_List/huntsville.png,US_Cities_List/newhope.png,,,,,,,,,,,,,,,,,,
1360.1000000238419,,rt_thecrossant_black,1136219,,,black_plus_sign,,,,,50,,,1,0.9606299212598425,,,,,,,,,,,,,,,,
null,,color_black,1136322,,,black_plus_sign,,,,,null,,,,,,,,,,,,,,,,,,,,
2631.5,,learn_break,1138958,,,learn_break,,,,,32,,,,,,,,,,,,,,,,,,,,
9269,,intro_1,1148229,,,instruct,,,0,,,,,,,,,,,,,,,,,,,,,,
9469.199999988079,,intro_2,1157700,,,instruct,,,1,Next,,,,,,,,,,,,,,,,,,,,,
4646.9000000059605,,directmemory_phase,1162375,,,../static/images/US_Cities_List/newhope.png,,,,,49,,,1,1,../static/images/US_Cities_List/huntsville.png,../static/images/US_Cities_List/leesburg.png,../static/images/US_Cities_List/shreveport.png,../static/images/US_Cities_List/huntsville.png,../static/images/US_Cities_List/shreveport.png,../static/images/US_Cities_List/leesburg.png,1,,,,,,,,,
null,,html-keyboard-response,1163383,,,<p></p>,,,,,null,,,,,,,,,,,,,,,,,,,,
2673.699999988079,,directmemory_phase,1166097,,,../static/images/US_Cities_List/racine.png,,,,,49,,,0,0.5,../static/images/US_Cities_List/newhope.png,../static/images/US_Cities_List/peoria.png,../static/images/US_Cities_List/hotsprings.png,../static/images/US_Cities_List/hotsprings.png,../static/images/US_Cities_List/peoria.png,../static/images/US_Cities_List/newhope.png,0.5,closer,,,,,,,,
null,,html-keyboard-response,1167105,,,<p></p>,,,,,null,,,,,,,,,,,,,,,,,,,,
3212,,directmemory_phase,1170351,,,../static/images/US_Cities_List/huntsville.png,,,,,51,,,1,0.6666666666666666,../static/images/US_Cities_List/racine.png,../static/images/US_Cities_List/cornwall.png,../static/images/US_Cities_List/westpalmbeach.png,../static/images/US_Cities_List/westpalmbeach.png,../static/images/US_Cities_List/cornwall.png,../static/images/US_Cities_List/racine.png,1,,,,,,,,,
null,,html-keyboard-response,1171358,,,<p></p>,,,,,null,,,,,,,,,,,,,,,,,,,,
1838.1000000238419,,directmemory_phase,1173236,,,../static/images/US_Cities_List/cornwall.png,,,,,50,,,0,0.5,../static/images/US_Cities_List/racine.png,../static/images/US_Cities_List/huntsville.png,../static/images/US_Cities_List/newhope.png,../static/images/US_Cities_List/newhope.png,../static/images/US_Cities_List/huntsville.png,../static/images/US_Cities_List/racine.png,0.5,closer,,,,,,,,
null,,html-keyboard-response,1174240,,,<p></p>,,,,,null,,,,,,,,,,,,,,,,,,,,
1720,,directmemory_phase,1175993,,,../static/images/US_Cities_List/peoria.png,,,,,50,,,0,0.4,../static/images/US_Cities_List/shreveport.png,../static/images/US_Cities_List/westpalmbeach.png,../static/images/US_Cities_List/huntsville.png,../static/images/US_Cities_List/huntsville.png,../static/images/US_Cities_List/westpalmbeach.png,../static/images/US_Cities_List/shreveport.png,0.5,closer,,,,,,,,
null,,html-keyboard-response,1177013,,,<p></p>,,,,,null,,,,,,,,,,,,,,,,,,,,
3432.5,,directmemory_phase,1180473,,,../static/images/US_Cities_List/racine.png,,,,,50,,,0,0.3333333333333333,../static/images/US_Cities_List/leesburg.png,../static/images/US_Cities_List/hanover.png,../static/images/US_Cities_List/gatlinburg.png,../static/images/US_Cities_List/leesburg.png,../static/images/US_Cities_List/gatlinburg.png,../static/images/US_Cities_List/hanover.png,0.5,closer,,,,,,,,
null,,html-keyboard-response,1181479,,,<p></p>,,,,,null,,,,,,,,,,,,,,,,,,,,
3655,,directmemory_phase,1185168,,,../static/images/US_Cities_List/shreveport.png,,,,,51,,,1,0.42857142857142855,../static/images/US_Cities_List/westpalmbeach.png,../static/images/US_Cities_List/hanover.png,../static/images/US_Cities_List/cornwall.png,../static/images/US_Cities_List/cornwall.png,../static/images/US_Cities_List/hanover.png,../static/images/US_Cities_List/westpalmbeach.png,1,,,,,,,,,
null,,html-keyboard-response,1186174,,,<p></p>,,,,,null,,,,,,,,,,,,,,,,,,,,
3275.5999999940395,,directmemory_phase,1189478,,,../static/images/US_Cities_List/leesburg.png,,,,,51,,,0,0.375,../static/images/US_Cities_List/hotsprings.png,../static/images/US_Cities_List/shreveport.png,../static/images/US_Cities_List/boulder.png,../static/images/US_Cities_List/hotsprings.png,../static/images/US_Cities_List/boulder.png,../static/images/US_Cities_List/shreveport.png,0.5,closer,,,,,,,,
null,,html-keyboard-response,1190483,,,<p></p>,,,,,null,,,,,,,,,,,,,,,,,,,,
4873.800000011921,,directmemory_phase,1195386,,,../static/images/US_Cities_List/huntsville.png,,,,,49,,,1,0.4444444444444444,../static/images/US_Cities_List/newhope.png,../static/images/US_Cities_List/gatlinburg.png,../static/images/US_Cities_List/carmel.png,../static/images/US_Cities_List/newhope.png,../static/images/US_Cities_List/carmel.png,../static/images/US_Cities_List/gatlinburg.png,1,,,,,,,,,
null,,html-keyboard-response,1196391,,,<p></p>,,,,,null,,,,,,,,,,,,,,,,,,,,
4702.200000017881,,directmemory_phase,1201126,,,../static/images/US_Cities_List/hotsprings.png,,,,,51,,,0,0.4,../static/images/US_Cities_List/boulder.png,../static/images/US_Cities_List/peoria.png,../static/images/US_Cities_List/carmel.png,../static/images/US_Cities_List/peoria.png,../static/images/US_Cities_List/boulder.png,../static/images/US_Cities_List/carmel.png,0.5,closer,,,,,,,,
null,,html-keyboard-response,1202134,,,<p></p>,,,,,null,,,,,,,,,,,,,,,,,,,,
4432.100000023842,,directmemory_phase,1206598,,,../static/images/US_Cities_List/carmel.png,,,,,50,,,0,0.36363636363636365,../static/images/US_Cities_List/newhope.png,../static/images/US_Cities_List/hanover.png,../static/images/US_Cities_List/huntsville.png,../static/images/US_Cities_List/newhope.png,../static/images/US_Cities_List/huntsville.png,../static/images/US_Cities_List/hanover.png,0.5,closer,,,,,,,,
null,,html-keyboard-response,1207604,,,<p></p>,,,,,null,,,,,,,,,,,,,,,,,,,,
3325.7999999821186,,directmemory_phase,1210963,,,../static/images/US_Cities_List/hotsprings.png,,,,,50,,,1,0.4166666666666667,../static/images/US_Cities_List/boulder.png,../static/images/US_Cities_List/gatlinburg.png,../static/images/US_Cities_List/carmel.png,../static/images/US_Cities_List/gatlinburg.png,../static/images/US_Cities_List/boulder.png,../static/images/US_Cities_List/carmel.png,1,,,,,,,,,
null,,html-keyboard-response,1211971,,,<p></p>,,,,,null,,,,,,,,,,,,,,,,,,,,
5083.199999988079,,directmemory_phase,1217088,,,../static/images/US_Cities_List/leesburg.png,,,,,49,,,0,0.38461538461538464,../static/images/US_Cities_List/carmel.png,../static/images/US_Cities_List/gatlinburg.png,../static/images/US_Cities_List/westpalmbeach.png,../static/images/US_Cities_List/westpalmbeach.png,../static/images/US_Cities_List/gatlinburg.png,../static/images/US_Cities_List/carmel.png,0.5,closer,,,,,,,,
null,,html-keyboard-response,1218106,,,<p></p>,,,,,null,,,,,,,,,,,,,,,,,,,,
3959.300000011921,,directmemory_phase,1222105,,,../static/images/US_Cities_List/cornwall.png,,,,,51,,,0,0.35714285714285715,../static/images/US_Cities_List/shreveport.png,../static/images/US_Cities_List/hotsprings.png,../static/images/US_Cities_List/huntsville.png,../static/images/US_Cities_List/shreveport.png,../static/images/US_Cities_List/huntsville.png,../static/images/US_Cities_List/hotsprings.png,0.5,closer,,,,,,,,
null,,html-keyboard-response,1223115,,,<p></p>,,,,,null,,,,,,,,,,,,,,,,,,,,
6416.299999982119,,directmemory_phase,1229560,,,../static/images/US_Cities_List/gatlinburg.png,,,,,51,,,1,0.4,../static/images/US_Cities_List/hanover.png,../static/images/US_Cities_List/leesburg.png,../static/images/US_Cities_List/hotsprings.png,../static/images/US_Cities_List/hotsprings.png,../static/images/US_Cities_List/leesburg.png,../static/images/US_Cities_List/hanover.png,1,,,,,,,,,
null,,html-keyboard-response,1230567,,,<p></p>,,,,,null,,,,,,,,,,,,,,,,,,,,
4972.300000011921,,directmemory_phase,1235568,,,../static/images/US_Cities_List/westpalmbeach.png,,,,,49,,,0,0.375,../static/images/US_Cities_List/boulder.png,../static/images/US_Cities_List/hotsprings.png,../static/images/US_Cities_List/leesburg.png,../static/images/US_Cities_List/leesburg.png,../static/images/US_Cities_List/hotsprings.png,../static/images/US_Cities_List/boulder.png,0.5,closer,,,,,,,,
null,,html-keyboard-response,1236576,,,<p></p>,,,,,null,,,,,,,,,,,,,,,,,,,,
3541.5,,directmemory_phase,1240149,,,../static/images/US_Cities_List/boulder.png,,,,,51,,,1,0.4117647058823529,../static/images/US_Cities_List/westpalmbeach.png,../static/images/US_Cities_List/leesburg.png,../static/images/US_Cities_List/racine.png,../static/images/US_Cities_List/racine.png,../static/images/US_Cities_List/leesburg.png,../static/images/US_Cities_List/westpalmbeach.png,1,,,,,,,,,
null,,html-keyboard-response,1241156,,,<p></p>,,,,,null,,,,,,,,,,,,,,,,,,,,
6057.9000000059605,,directmemory_phase,1247250,,,../static/images/US_Cities_List/hanover.png,,,,,49,,,1,0.4444444444444444,../static/images/US_Cities_List/cornwall.png,../static/images/US_Cities_List/peoria.png,../static/images/US_Cities_List/leesburg.png,../static/images/US_Cities_List/cornwall.png,../static/images/US_Cities_List/leesburg.png,../static/images/US_Cities_List/peoria.png,1,,,,,,,,,
null,,html-keyboard-response,1248258,,,<p></p>,,,,,null,,,,,,,,,,,,,,,,,,,,
4609.0999999940395,,directmemory_phase,1252919,,,../static/images/US_Cities_List/peoria.png,,,,,49,,,1,0.47368421052631576,../static/images/US_Cities_List/hotsprings.png,../static/images/US_Cities_List/cornwall.png,../static/images/US_Cities_List/racine.png,../static/images/US_Cities_List/hotsprings.png,../static/images/US_Cities_List/racine.png,../static/images/US_Cities_List/cornwall.png,1,,,,,,,,,
null,,html-keyboard-response,1253926,,,<p></p>,,,,,null,,,,,,,,,,,,,,,,,,,,
2460.9000000059605,,directmemory_phase,1256425,,,../static/images/US_Cities_List/cornwall.png,,,,,51,,,0,0.45,../static/images/US_Cities_List/hanover.png,../static/images/US_Cities_List/hotsprings.png,../static/images/US_Cities_List/westpalmbeach.png,../static/images/US_Cities_List/hanover.png,../static/images/US_Cities_List/westpalmbeach.png,../static/images/US_Cities_List/hotsprings.png,0.5,closer,,,,,,,,
null,,html-keyboard-response,1257431,,,<p></p>,,,,,null,,,,,,,,,,,,,,,,,,,,
2222.7999999821186,,directmemory_phase,1259690,,,../static/images/US_Cities_List/westpalmbeach.png,,,,,50,,,0,0.42857142857142855,../static/images/US_Cities_List/shreveport.png,../static/images/US_Cities_List/cornwall.png,../static/images/US_Cities_List/huntsville.png,../static/images/US_Cities_List/huntsville.png,../static/images/US_Cities_List/cornwall.png,../static/images/US_Cities_List/shreveport.png,0.5,closer,,,,,,,,
null,,html-keyboard-response,1260699,,,<p></p>,,,,,null,,,,,,,,,,,,,,,,,,,,
null,,directmemory_phase,1267241,,,../static/images/US_Cities_List/newhope.png,,,,,null,,,0,0.4090909090909091,../static/images/US_Cities_List/cornwall.png,../static/images/US_Cities_List/gatlinburg.png,../static/images/US_Cities_List/peoria.png,../static/images/US_Cities_List/cornwall.png,../static/images/US_Cities_List/peoria.png,../static/images/US_Cities_List/gatlinburg.png,0,,,,,,,,,
null,,warning_page,1270252,,,warning,,,,,null,,,,,,,,,,,,,,,,,,,,
null,,html-keyboard-response,1271254,,,<p></p>,,,,,null,,,,,,,,,,,,,,,,,,,,
2566.399999976158,,directmemory_phase,1273846,,,../static/images/US_Cities_List/leesburg.png,,,,,49,,,0,0.391304347826087,../static/images/US_Cities_List/carmel.png,../static/images/US_Cities_List/huntsville.png,../static/images/US_Cities_List/racine.png,../static/images/US_Cities_List/racine.png,../static/images/US_Cities_List/huntsville.png,../static/images/US_Cities_List/carmel.png,0.5,closer,,,,,,,,
null,,html-keyboard-response,1274853,,,<p></p>,,,,,null,,,,,,,,,,,,,,,,,,,,
1877.800000011921,,directmemory_phase,1276765,,,../static/images/US_Cities_List/huntsville.png,,,,,51,,,0,0.375,../static/images/US_Cities_List/peoria.png,../static/images/US_Cities_List/shreveport.png,../static/images/US_Cities_List/cornwall.png,../static/images/US_Cities_List/peoria.png,../static/images/US_Cities_List/cornwall.png,../static/images/US_Cities_List/shreveport.png,0.5,closer,,,,,,,,
null,,html-keyboard-response,1277772,,,<p></p>,,,,,null,,,,,,,,,,,,,,,,,,,,
2036.3999999761581,,directmemory_phase,1279846,,,../static/images/US_Cities_List/racine.png,,,,,49,,,1,0.4,../static/images/US_Cities_List/boulder.png,../static/images/US_Cities_List/cornwall.png,../static/images/US_Cities_List/peoria.png,../static/images/US_Cities_List/boulder.png,../static/images/US_Cities_List/peoria.png,../static/images/US_Cities_List/cornwall.png,1,,,,,,,,,
null,,html-keyboard-response,1280853,,,<p></p>,,,,,null,,,,,,,,,,,,,,,,,,,,
2705.5,,directmemory_phase,1283587,,,../static/images/US_Cities_List/newhope.png,,,,,49,,,0,0.38461538461538464,../static/images/US_Cities_List/hotsprings.png,../static/images/US_Cities_List/shreveport.png,../static/images/US_Cities_List/carmel.png,../static/images/US_Cities_List/carmel.png,../static/images/US_Cities_List/shreveport.png,../static/images/US_Cities_List/hotsprings.png,0.5,closer,,,,,,,,
null,,html-keyboard-response,1284593,,,<p></p>,,,,,null,,,,,,,,,,,,,,,,,,,,
3270.5999999940395,,directmemory_phase,1287897,,,../static/images/US_Cities_List/leesburg.png,,,,,50,,,0,0.37037037037037035,../static/images/US_Cities_List/shreveport.png,../static/images/US_Cities_List/boulder.png,../static/images/US_Cities_List/peoria.png,../static/images/US_Cities_List/peoria.png,../static/images/US_Cities_List/boulder.png,../static/images/US_Cities_List/shreveport.png,0.5,closer,,,,,,,,
null,,html-keyboard-response,1288903,,,<p></p>,,,,,null,,,,,,,,,,,,,,,,,,,,
3391.5999999940395,,directmemory_phase,1292335,,,../static/images/US_Cities_List/hanover.png,,,,,51,,,1,0.39285714285714285,../static/images/US_Cities_List/racine.png,../static/images/US_Cities_List/newhope.png,../static/images/US_Cities_List/westpalmbeach.png,../static/images/US_Cities_List/westpalmbeach.png,../static/images/US_Cities_List/newhope.png,../static/images/US_Cities_List/racine.png,1,,,,,,,,,
null,,html-keyboard-response,1293342,,,<p></p>,,,,,null,,,,,,,,,,,,,,,,,,,,
3397,,directmemory_phase,1296773,,,../static/images/US_Cities_List/hotsprings.png,,,,,50,,,0,0.3793103448275862,../static/images/US_Cities_List/carmel.png,../static/images/US_Cities_List/westpalmbeach.png,../static/images/US_Cities_List/leesburg.png,../static/images/US_Cities_List/leesburg.png,../static/images/US_Cities_List/westpalmbeach.png,../static/images/US_Cities_List/carmel.png,0.5,closer,,,,,,,,
null,,html-keyboard-response,1297779,,,<p></p>,,,,,null,,,,,,,,,,,,,,,,,,,,
2715.0999999940395,,directmemory_phase,1300528,,,../static/images/US_Cities_List/westpalmbeach.png,,,,,50,,,0,0.36666666666666664,../static/images/US_Cities_List/gatlinburg.png,../static/images/US_Cities_List/racine.png,../static/images/US_Cities_List/hanover.png,../static/images/US_Cities_List/hanover.png,../static/images/US_Cities_List/racine.png,../static/images/US_Cities_List/gatlinburg.png,0.5,closer,,,,,,,,
null,,html-keyboard-response,1301536,,,<p></p>,,,,,null,,,,,,,,,,,,,,,,,,,,
4056,,directmemory_phase,1305649,,,../static/images/US_Cities_List/hotsprings.png,,,,,50,,,1,0.3870967741935484,../static/images/US_Cities_List/boulder.png,../static/images/US_Cities_List/racine.png,../static/images/US_Cities_List/cornwall.png,../static/images/US_Cities_List/racine.png,../static/images/US_Cities_List/boulder.png,../static/images/US_Cities_List/cornwall.png,1,,,,,,,,,
null,,html-keyboard-response,1306655,,,<p></p>,,,,,null,,,,,,,,,,,,,,,,,,,,
2715.4000000059605,,directmemory_phase,1309411,,,../static/images/US_Cities_List/peoria.png,,,,,51,,,0,0.375,../static/images/US_Cities_List/gatlinburg.png,../static/images/US_Cities_List/leesburg.png,../static/images/US_Cities_List/cornwall.png,../static/images/US_Cities_List/leesburg.png,../static/images/US_Cities_List/gatlinburg.png,../static/images/US_Cities_List/cornwall.png,0.5,closer,,,,,,,,
null,,html-keyboard-response,1310415,,,<p></p>,,,,,null,,,,,,,,,,,,,,,,,,,,
5776.5999999940395,,intro_1,1316194,,,instruct,,,0,,,,,,,,,,,,,,,,,,,,,,
2979.699999988079,,intro_2,1319176,,,instruct,,,1,Next,,,,,,,,,,,,,,,,,,,,,
4762.0999999940395,,intro_3,1323941,,,instruct,,,1,Next,,,,,,,,,,,,,,,,,,,,,
21823.09999999404,,intro_4,1345766,,,instruct,,,1,Next,,,,,,,,,,,,,,,,,,,,,
10182.100000023842,,intro_5,1355951,,,instruct,,,1,Next,,,,,,,,,,,,,,,,,,,,,
1996.0999999940395,,intro_6,1357950,,,instruct,,,1,Next,,,,,,,,,,,,,,,,,,,,,
2830.800000011921,,intro_7,1360782,,,instruct,,,1,Next,,,,,,,,,,,,,,,,,,,,,
6019,,intro_8,1366803,,,instruct,,,1,Next,,,,,,,,,,,,,,,,,,,,,
4846.5999999940395,,intro_9,1371651,,,instruct,,,1,Next,,,,,,,,,,,,,,,,,,,,,
6173.9000000059605,,intro_10,1377827,,,instruct,,,1,Next,,,,,,,,,,,,,,,,,,,,,
31071.90000000596,,intro_11,1408901,,,instruct,,,1,Next,,,,,,,,,,,,,,,,,,,,,
1735.199999988079,,shortestpath_phase,1410657,,,../static/images/US_Cities_List/racine.png,,,,,49,../static/images/US_Cities_List/hanover.png,../static/images/US_Cities_List/peoria.png,0,0,,,,../static/images/US_Cities_List/peoria.png,,,,,One Edge Diff,Two Edge Three Edge,,,,,,
null,,html-keyboard-response,1411665,,,<p></p>,,,,,null,,,,,,,,,,,,,,,,,,,,
1533.9000000059605,,shortestpath_phase,1413220,,,../static/images/US_Cities_List/shreveport.png,,,,,49,../static/images/US_Cities_List/hanover.png,../static/images/US_Cities_List/gatlinburg.png,1,0.5,,,,../static/images/US_Cities_List/hanover.png,,,,,Four Edge Diff,Two Edge Six Edge,,,,,,
null,,html-keyboard-response,1414226,,,<p></p>,,,,,null,,,,,,,,,,,,,,,,,,,,
1894.699999988079,,shortestpath_phase,1416144,,,../static/images/US_Cities_List/newhope.png,,,,,50,../static/images/US_Cities_List/peoria.png,../static/images/US_Cities_List/boulder.png,0,0.3333333333333333,,,,../static/images/US_Cities_List/peoria.png,,,,,Three Edge Diff,Three Edge Six Edge,,,,,,
null,,html-keyboard-response,1417150,,,<p></p>,,,,,null,,,,,,,,,,,,,,,,,,,,
1543.199999988079,,shortestpath_phase,1418718,,,../static/images/US_Cities_List/gatlinburg.png,,,,,49,../static/images/US_Cities_List/shreveport.png,../static/images/US_Cities_List/leesburg.png,0,0.25,,,,../static/images/US_Cities_List/leesburg.png,,,,,Four Edge Diff,Two Edge Six Edge,,,,,,
null,,html-keyboard-response,1419723,,,<p></p>,,,,,null,,,,,,,,,,,,,,,,,,,,
2951,,shortestpath_phase,1422709,,,../static/images/US_Cities_List/shreveport.png,,,,,50,../static/images/US_Cities_List/hotsprings.png,../static/images/US_Cities_List/peoria.png,1,0.4,,,,../static/images/US_Cities_List/peoria.png,,,,,One Edge Diff,Four Edge Five Edge,,,,,,
null,,html-keyboard-response,1423713,,,<p></p>,,,,,null,,,,,,,,,,,,,,,,,,,,
2434.9000000059605,,shortestpath_phase,1426176,,,../static/images/US_Cities_List/boulder.png,,,,,49,../static/images/US_Cities_List/newhope.png,../static/images/US_Cities_List/hotsprings.png,0,0.3333333333333333,,,,../static/images/US_Cities_List/hotsprings.png,,,,,Three Edge Diff,Three Edge Six Edge,,,,,,
null,,html-keyboard-response,1427182,,,<p></p>,,,,,null,,,,,,,,,,,,,,,,,,,,
2385.9000000059605,,shortestpath_phase,1429587,,,../static/images/US_Cities_List/carmel.png,,,,,50,../static/images/US_Cities_List/huntsville.png,../static/images/US_Cities_List/gatlinburg.png,0,0.2857142857142857,,,,../static/images/US_Cities_List/huntsville.png,,,,,Three Edge Diff,Two Edge Five Edge,,,,,,
null,,html-keyboard-response,1430594,,,<p></p>,,,,,null,,,,,,,,,,,,,,,,,,,,
2856,,shortestpath_phase,1433486,,,../static/images/US_Cities_List/boulder.png,,,,,49,../static/images/US_Cities_List/shreveport.png,../static/images/US_Cities_List/newhope.png,0,0.25,,,,../static/images/US_Cities_List/newhope.png,,,,,One Edge Diff,Five Edge Six Edge,,,,,,
null,,html-keyboard-response,1434492,,,<p></p>,,,,,null,,,,,,,,,,,,,,,,,,,,
1670.800000011921,,shortestpath_phase,1436186,,,../static/images/US_Cities_List/racine.png,,,,,49,../static/images/US_Cities_List/westpalmbeach.png,../static/images/US_Cities_List/shreveport.png,1,0.3333333333333333,,,,../static/images/US_Cities_List/westpalmbeach.png,,,,,Three Edge Diff,Two Edge Five Edge,,,,,,
null,,html-keyboard-response,1437192,,,<p></p>,,,,,null,,,,,,,,,,,,,,,,,,,,
4954.800000011921,,shortestpath_phase,1442172,,,../static/images/US_Cities_List/newhope.png,,,,,49,../static/images/US_Cities_List/boulder.png,../static/images/US_Cities_List/shreveport.png,0,0.3,,,,../static/images/US_Cities_List/shreveport.png,,,,,Three Edge Diff,Three Edge Six Edge,,,,,,
null,,html-keyboard-response,1443179,,,<p></p>,,,,,null,,,,,,,,,,,,,,,,,,,,
