rt,responses,trial_type,time_elapsed,image_type,sequence,stimulus,cities,city_images,button_pressed,response,key_press,stimulus_left,stimulus_right,cumulative_accuracy,accuracy,stimulus_down_left,stimulus_down_mid,stimulus_down_right,stimulus_correct,stimulus_short,stimulus_far,weighted_accuracy,missedtrial,condition,specific_pairs,imgL_ID,imgR_ID,linedress,linedressed,detour_trial,linedressed_detor
26346.40000000596,{worker_id:63782709326973c77adc3db8},id_enter,26348,fictional,interleaved,flights,Hollendale; Riverlyn; New Verdan; Sunmere; North Arroya; Orchard Bend; Cedarwyn; Delaro Park; Granton Ridge; Baymarsh; Claywater; Juniper Creek; Hawthorne Bluffs,US_Cities_List/carmel.png; US_Cities_List/westpalmbeach.png; US_Cities_List/racine.png; US_Cities_List/hotsprings.png; US_Cities_List/newhope.png; US_Cities_List/peoria.png; US_Cities_List/huntsville.png; US_Cities_List/cornwall.png; US_Cities_List/hanover.png; US_Cities_List/leesburg.png; US_Cities_List/boulder.png; US_Cities_List/gatlinburg.png; US_Cities_List/shreveport.png,,,,,,,,,,,,,,,,,,,,,,,
77873.5,,fullscreen,104225,,,make_fullscreen,,,0,,,,,,,,,,,,,,,,,,,,,,
9327,,intro_1,113553,,,instruct,,,0,,,,,,,,,,,,,,,,,,,,,,
69245.19999998808,,intro_2,182799,,,instruct,,,1,Next,,,,,,,,,,,,,,,,,,,,,
12849,,intro_3,195649,,,instruct,,,1,Next,,,,,,,,,,,,,,,,,,,,,
35144.70000001788,,intro_4,230795,,,instruct,,,1,Next,,,,,,,,,,,,,,,,,,,,,
11202.200000017881,,intro_5,241998,,,instruct,,,1,Next,,,,,,,,,,,,,,,,,,,,,
23468.5,,intro_6,265467,,,instruct,,,1,Next,,,,,,,,,,,,,,,,,,,,,
10346.299999982119,,intro_7,275815,,,instruct,,,1,Next,,,,,,,,,,,,,,,,,,,,,
null,,learn_prac_1,278816,,,lean_prac_1,,,,,null,,,,,,,,,,,,,,,,,,,,
null,,html-keyboard-response,279819,,,<p></p>,,,,,null,,,,,,,,,,,,,,,,,,,,
7028.800000011921,,intro_1,286849,,,instruct,,,0,,,,,,,,,,,,,,,,,,,,,,
16877.5,,intro_2,303727,,,instruct,,,1,Next,,,,,,,,,,,,,,,,,,,,,
null,,learn_prac_2,306730,,,lean_prac_2,,,,,null,,,,,,,,,,,,,,,,,,,,
null,,html-keyboard-response,307731,,,<p></p>,,,,,null,,,,,,,,,,,,,,,,,,,,
19915.09999999404,,intro_1,327647,,,instruct,,,0,,,,,,,,,,,,,,,,,,,,,,
4906.9000000059605,,intro_2,332555,,,instruct,,,1,Next,,,,,,,,,,,,,,,,,,,,,
162139.09999999404,,intro_3,494695,,,instruct,,,1,Next,,,,,,,,,,,,,,,,,,,,,
null,,prac_atten_color_black,495295,,,black_plus_sign,,,,,null,,,,,,,,,,,,,,,,,,,,
null,,prac_atten_color,496099,,,prac_stop_color,,,,,null,,,,,,,,,,,,,,,,,,,,
null,,prac_atten_color_black,498101,,,black_plus_sign,,,,,null,,,,,,,,,,,,,,,,,,,,
9022.700000017881,,attentioncheck_help,507125,,,instruct,,,,,32,,,,,,,,,,,,,,,,,,,,
null,,prac_atten_color_black,507725,,,black_plus_sign,,,,,null,,,,,,,,,,,,,,,,,,,,
null,,prac_atten_color,508353,,,prac_stop_color,,,,,null,,,,,,,,,,,,,,,,,,,,
137.60000002384186,,prac_atten_color_black,510354,,,black_plus_sign,,,,,50,,,,,,,,,,,,,,,,,,,,
null,,prac_atten_color_black,511131,,,black_plus_sign,,,,,null,,,,,,,,,,,,,,,,,,,,
516.1999999880791,,prac_atten_color,512223,,,prac_stop_color,,,,,50,,,,,,,,,,,,,,,,,,,,
null,,prac_atten_color_black,514224,,,black_plus_sign,,,,,null,,,,,,,,,,,,,,,,,,,,
null,,prac_atten_color_black,514535,,,black_plus_sign,,,,,null,,,,,,,,,,,,,,,,,,,,
796.8000000119209,,prac_atten_color,515458,,,prac_stop_color,,,,,49,,,,,,,,,,,,,,,,,,,,
null,,prac_atten_color_black,517459,,,black_plus_sign,,,,,null,,,,,,,,,,,,,,,,,,,,
null,,prac_atten_color_black,517941,,,black_plus_sign,,,,,null,,,,,,,,,,,,,,,,,,,,
584.1999999880791,,prac_atten_color,518927,,,prac_stop_color,,,,,50,,,,,,,,,,,,,,,,,,,,
null,,prac_atten_color_black,520929,,,black_plus_sign,,,,,null,,,,,,,,,,,,,,,,,,,,
null,,prac_atten_color_black,521347,,,black_plus_sign,,,,,null,,,,,,,,,,,,,,,,,,,,
null,,prac_atten_color,521755,,,prac_stop_color,,,,,null,,,,,,,,,,,,,,,,,,,,
33.400000005960464,,prac_atten_color_black,523755,,,black_plus_sign,,,,,50,,,,,,,,,,,,,,,,,,,,
null,,prac_atten_color_black,524750,,,black_plus_sign,,,,,null,,,,,,,,,,,,,,,,,,,,
592.1000000238419,,prac_atten_color,525593,,,prac_stop_color,,,,,49,,,,,,,,,,,,,,,,,,,,
null,,prac_atten_color_black,527597,,,black_plus_sign,,,,,null,,,,,,,,,,,,,,,,,,,,
null,,prac_atten_color_black,528156,,,black_plus_sign,,,,,null,,,,,,,,,,,,,,,,,,,,
null,,prac_atten_color,528595,,,prac_stop_color,,,,,null,,,,,,,,,,,,,,,,,,,,
178.59999999403954,,prac_atten_color_black,530596,,,black_plus_sign,,,,,50,,,,,,,,,,,,,,,,,,,,
null,,prac_atten_color_black,531565,,,black_plus_sign,,,,,null,,,,,,,,,,,,,,,,,,,,
576.8000000119209,,prac_atten_color,532347,,,prac_stop_color,,,,,49,,,,,,,,,,,,,,,,,,,,
null,,prac_atten_color_black,534349,,,black_plus_sign,,,,,null,,,,,,,,,,,,,,,,,,,,
null,,prac_atten_color_black,534970,,,black_plus_sign,,,,,null,,,,,,,,,,,,,,,,,,,,
760.7999999821186,,prac_atten_color,535834,,,prac_stop_color,,,,,49,,,,,,,,,,,,,,,,,,,,
null,,prac_atten_color_black,537835,,,black_plus_sign,,,,,null,,,,,,,,,,,,,,,,,,,,
8095.600000023842,,attentioncheck_feedback,545932,,,cross_check_feedback,,,0,,,,,,,,,,,,,,,,,,,,,,
7923.100000023842,,last_instruct,553856,,,instruct,,,,,32,,,,,,,,,,,,,,,,,,,,
null,,learn_phase(without_color),556860,,,black_plus_sign,,,,,null,US_Cities_List/carmel.png,US_Cities_List/westpalmbeach.png,,,,,,,,,,,,,,,,,,
null,,black_cross(without_color),557664,,,yellow,,,,,null,US_Cities_List/carmel.png,US_Cities_List/westpalmbeach.png,,,,,,,,,,,,,,,,,,
null,,rt_plussign_withcolor,558166,,,yellow,,,,,null,US_Cities_List/carmel.png,US_Cities_List/westpalmbeach.png,,,,,,,,,,,,,,,,,,
null,,rt_thecrossant_black,559365,,,black_plus_sign,,,,,null,,,NaN,,,,,,,,,,,,,,,,,
null,,color_black,559467,,,black_plus_sign,,,,,null,,,,,,,,,,,,,,,,,,,,
null,,learn_phase(without_color),562471,,,black_plus_sign,,,,,null,US_Cities_List/peoria.png,US_Cities_List/huntsville.png,,,,,,,,,,,,,,,,,,
null,,black_cross(without_color),563347,,,blue,,,,,null,US_Cities_List/peoria.png,US_Cities_List/huntsville.png,,,,,,,,,,,,,,,,,,
null,,rt_plussign_withcolor,563848,,,blue,,,,,null,US_Cities_List/peoria.png,US_Cities_List/huntsville.png,,,,,,,,,,,,,,,,,,
962.7999999821186,,rt_thecrossant_black,564975,,,black_plus_sign,,,,,49,,,1,1,,,,,,,,,,,,,,,,
null,,color_black,565076,,,black_plus_sign,,,,,null,,,,,,,,,,,,,,,,,,,,
null,,learn_phase(without_color),568086,,,black_plus_sign,,,,,null,US_Cities_List/leesburg.png,US_Cities_List/cornwall.png,,,,,,,,,,,,,,,,,,
null,,black_cross(without_color),568999,,,blue,,,,,null,US_Cities_List/leesburg.png,US_Cities_List/cornwall.png,,,,,,,,,,,,,,,,,,
null,,rt_plussign_withcolor,569500,,,blue,,,,,null,US_Cities_List/leesburg.png,US_Cities_List/cornwall.png,,,,,,,,,,,,,,,,,,
1396.4000000059605,,rt_thecrossant_black,570592,,,black_plus_sign,,,,,49,,,1,1,,,,,,,,,,,,,,,,
null,,color_black,570694,,,black_plus_sign,,,,,null,,,,,,,,,,,,,,,,,,,,
null,,learn_phase(without_color),573701,,,black_plus_sign,,,,,null,US_Cities_List/westpalmbeach.png,US_Cities_List/racine.png,,,,,,,,,,,,,,,,,,
null,,black_cross(without_color),574272,,,yellow,,,,,null,US_Cities_List/westpalmbeach.png,US_Cities_List/racine.png,,,,,,,,,,,,,,,,,,
null,,rt_plussign_withcolor,574774,,,yellow,,,,,null,US_Cities_List/westpalmbeach.png,US_Cities_List/racine.png,,,,,,,,,,,,,,,,,,
1056.3999999761581,,rt_thecrossant_black,576227,,,black_plus_sign,,,,,50,,,1,1,,,,,,,,,,,,,,,,
null,,color_black,576337,,,black_plus_sign,,,,,null,,,,,,,,,,,,,,,,,,,,
null,,learn_phase(without_color),579342,,,black_plus_sign,,,,,null,US_Cities_List/huntsville.png,US_Cities_List/hanover.png,,,,,,,,,,,,,,,,,,
null,,black_cross(without_color),580076,,,yellow,,,,,null,US_Cities_List/huntsville.png,US_Cities_List/hanover.png,,,,,,,,,,,,,,,,,,
null,,rt_plussign_withcolor,580578,,,yellow,,,,,null,US_Cities_List/huntsville.png,US_Cities_List/hanover.png,,,,,,,,,,,,,,,,,,
702.6999999880791,,rt_thecrossant_black,581849,,,black_plus_sign,,,,,50,,,1,1,,,,,,,,,,,,,,,,
null,,color_black,581952,,,black_plus_sign,,,,,null,,,,,,,,,,,,,,,,,,,,
null,,learn_phase(without_color),584958,,,black_plus_sign,,,,,null,US_Cities_List/hanover.png,US_Cities_List/cornwall.png,,,,,,,,,,,,,,,,,,
null,,black_cross(without_color),586010,,,blue,,,,,null,US_Cities_List/hanover.png,US_Cities_List/cornwall.png,,,,,,,,,,,,,,,,,,
null,,rt_plussign_withcolor,586512,,,blue,,,,,null,US_Cities_List/hanover.png,US_Cities_List/cornwall.png,,,,,,,,,,,,,,,,,,
1201.300000011921,,rt_thecrossant_black,587471,,,black_plus_sign,,,,,49,,,1,1,,,,,,,,,,,,,,,,
null,,color_black,587573,,,black_plus_sign,,,,,null,,,,,,,,,,,,,,,,,,,,
null,,learn_phase(without_color),590579,,,black_plus_sign,,,,,null,US_Cities_List/westpalmbeach.png,US_Cities_List/carmel.png,,,,,,,,,,,,,,,,,,
null,,black_cross(without_color),591242,,,blue,,,,,null,US_Cities_List/westpalmbeach.png,US_Cities_List/carmel.png,,,,,,,,,,,,,,,,,,
null,,rt_plussign_withcolor,591744,,,blue,,,,,null,US_Cities_List/westpalmbeach.png,US_Cities_List/carmel.png,,,,,,,,,,,,,,,,,,
1490.199999988079,,rt_thecrossant_black,593085,,,black_plus_sign,,,,,49,,,1,1,,,,,,,,,,,,,,,,
null,,color_black,593187,,,black_plus_sign,,,,,null,,,,,,,,,,,,,,,,,,,,
null,,learn_phase(without_color),596194,,,black_plus_sign,,,,,null,US_Cities_List/huntsville.png,US_Cities_List/shreveport.png,,,,,,,,,,,,,,,,,,
null,,black_cross(without_color),596839,,,blue,,,,,null,US_Cities_List/huntsville.png,US_Cities_List/shreveport.png,,,,,,,,,,,,,,,,,,
null,,rt_plussign_withcolor,597341,,,blue,,,,,null,US_Cities_List/huntsville.png,US_Cities_List/shreveport.png,,,,,,,,,,,,,,,,,,
880.5999999940395,,rt_thecrossant_black,598699,,,black_plus_sign,,,,,49,,,1,1,,,,,,,,,,,,,,,,
null,,color_black,598801,,,black_plus_sign,,,,,null,,,,,,,,,,,,,,,,,,,,
null,,learn_phase(without_color),601806,,,black_plus_sign,,,,,null,US_Cities_List/boulder.png,US_Cities_List/hanover.png,,,,,,,,,,,,,,,,,,
null,,black_cross(without_color),602286,,,blue,,,,,null,US_Cities_List/boulder.png,US_Cities_List/hanover.png,,,,,,,,,,,,,,,,,,
null,,rt_plussign_withcolor,602788,,,blue,,,,,null,US_Cities_List/boulder.png,US_Cities_List/hanover.png,,,,,,,,,,,,,,,,,,
1097.199999988079,,rt_thecrossant_black,604311,,,black_plus_sign,,,,,49,,,1,1,,,,,,,,,,,,,,,,
null,,color_black,604412,,,black_plus_sign,,,,,null,,,,,,,,,,,,,,,,,,,,
null,,learn_phase(without_color),607418,,,black_plus_sign,,,,,null,US_Cities_List/cornwall.png,US_Cities_List/huntsville.png,,,,,,,,,,,,,,,,,,
null,,black_cross(without_color),608119,,,blue,,,,,null,US_Cities_List/cornwall.png,US_Cities_List/huntsville.png,,,,,,,,,,,,,,,,,,
null,,rt_plussign_withcolor,608620,,,blue,,,,,null,US_Cities_List/cornwall.png,US_Cities_List/huntsville.png,,,,,,,,,,,,,,,,,,
779.0999999940395,,rt_thecrossant_black,609921,,,black_plus_sign,,,,,49,,,1,1,,,,,,,,,,,,,,,,
null,,color_black,610024,,,black_plus_sign,,,,,null,,,,,,,,,,,,,,,,,,,,
null,,learn_phase(without_color),613029,,,black_plus_sign,,,,,null,US_Cities_List/peoria.png,US_Cities_List/hanover.png,,,,,,,,,,,,,,,,,,
null,,black_cross(without_color),613855,,,blue,,,,,null,US_Cities_List/peoria.png,US_Cities_List/hanover.png,,,,,,,,,,,,,,,,,,
null,,rt_plussign_withcolor,614356,,,blue,,,,,null,US_Cities_List/peoria.png,US_Cities_List/hanover.png,,,,,,,,,,,,,,,,,,
1196.2999999821186,,rt_thecrossant_black,615534,,,black_plus_sign,,,,,49,,,1,1,,,,,,,,,,,,,,,,
null,,color_black,615636,,,black_plus_sign,,,,,null,,,,,,,,,,,,,,,,,,,,
null,,learn_phase(without_color),618641,,,black_plus_sign,,,,,null,US_Cities_List/huntsville.png,US_Cities_List/cornwall.png,,,,,,,,,,,,,,,,,,
null,,black_cross(without_color),619397,,,blue,,,,,null,US_Cities_List/huntsville.png,US_Cities_List/cornwall.png,,,,,,,,,,,,,,,,,,
null,,rt_plussign_withcolor,619898,,,blue,,,,,null,US_Cities_List/huntsville.png,US_Cities_List/cornwall.png,,,,,,,,,,,,,,,,,,
1131.800000011921,,rt_thecrossant_black,621145,,,black_plus_sign,,,,,49,,,1,1,,,,,,,,,,,,,,,,
null,,color_black,621247,,,black_plus_sign,,,,,null,,,,,,,,,,,,,,,,,,,,
null,,learn_phase(without_color),624251,,,black_plus_sign,,,,,null,US_Cities_List/huntsville.png,US_Cities_List/shreveport.png,,,,,,,,,,,,,,,,,,
null,,black_cross(without_color),625212,,,yellow,,,,,null,US_Cities_List/huntsville.png,US_Cities_List/shreveport.png,,,,,,,,,,,,,,,,,,
225.90000000596046,,rt_plussign_withcolor,625714,,,yellow,,,,,49,US_Cities_List/huntsville.png,US_Cities_List/shreveport.png,,,,,,,,,,,,,,,,,,
null,,rt_thecrossant_black,626758,,,black_plus_sign,,,,,50,,,0.9166666666666666,0,,,,,,,,,,,,,,,,
null,,color_black,626860,,,black_plus_sign,,,,,null,,,,,,,,,,,,,,,,,,,,
null,,learn_phase(without_color),629865,,,black_plus_sign,,,,,null,US_Cities_List/westpalmbeach.png,US_Cities_List/hotsprings.png,,,,,,,,,,,,,,,,,,
null,,black_cross(without_color),630627,,,yellow,,,,,null,US_Cities_List/westpalmbeach.png,US_Cities_List/hotsprings.png,,,,,,,,,,,,,,,,,,
null,,rt_plussign_withcolor,631129,,,yellow,,,,,null,US_Cities_List/westpalmbeach.png,US_Cities_List/hotsprings.png,,,,,,,,,,,,,,,,,,
1219.0999999940395,,rt_thecrossant_black,632379,,,black_plus_sign,,,,,50,,,0.9230769230769231,1,,,,,,,,,,,,,,,,
null,,color_black,632480,,,black_plus_sign,,,,,null,,,,,,,,,,,,,,,,,,,,
null,,learn_phase(without_color),635487,,,black_plus_sign,,,,,null,US_Cities_List/hotsprings.png,US_Cities_List/gatlinburg.png,,,,,,,,,,,,,,,,,,
null,,black_cross(without_color),636249,,,yellow,,,,,null,US_Cities_List/hotsprings.png,US_Cities_List/gatlinburg.png,,,,,,,,,,,,,,,,,,
null,,rt_plussign_withcolor,636751,,,yellow,,,,,null,US_Cities_List/hotsprings.png,US_Cities_List/gatlinburg.png,,,,,,,,,,,,,,,,,,
1223.7999999821186,,rt_thecrossant_black,637993,,,black_plus_sign,,,,,50,,,0.9285714285714286,1,,,,,,,,,,,,,,,,
null,,color_black,638095,,,black_plus_sign,,,,,null,,,,,,,,,,,,,,,,,,,,
null,,learn_phase(without_color),641103,,,black_plus_sign,,,,,null,US_Cities_List/cornwall.png,US_Cities_List/hanover.png,,,,,,,,,,,,,,,,,,
null,,black_cross(without_color),642040,,,yellow,,,,,null,US_Cities_List/cornwall.png,US_Cities_List/hanover.png,,,,,,,,,,,,,,,,,,
null,,rt_plussign_withcolor,642542,,,yellow,,,,,null,US_Cities_List/cornwall.png,US_Cities_List/hanover.png,,,,,,,,,,,,,,,,,,
1143.0999999940395,,rt_thecrossant_black,643609,,,black_plus_sign,,,,,50,,,0.9333333333333333,1,,,,,,,,,,,,,,,,
null,,color_black,643710,,,black_plus_sign,,,,,null,,,,,,,,,,,,,,,,,,,,
null,,learn_phase(without_color),646714,,,black_plus_sign,,,,,null,US_Cities_List/huntsville.png,US_Cities_List/hanover.png,,,,,,,,,,,,,,,,,,
null,,black_cross(without_color),647287,,,blue,,,,,null,US_Cities_List/huntsville.png,US_Cities_List/hanover.png,,,,,,,,,,,,,,,,,,
null,,rt_plussign_withcolor,647788,,,blue,,,,,null,US_Cities_List/huntsville.png,US_Cities_List/hanover.png,,,,,,,,,,,,,,,,,,
1933.5999999940395,,rt_thecrossant_black,649226,,,black_plus_sign,,,,,49,,,0.9375,1,,,,,,,,,,,,,,,,
null,,color_black,649328,,,black_plus_sign,,,,,null,,,,,,,,,,,,,,,,,,,,
null,,learn_phase(without_color),652335,,,black_plus_sign,,,,,null,US_Cities_List/westpalmbeach.png,US_Cities_List/carmel.png,,,,,,,,,,,,,,,,,,
null,,black_cross(without_color),653009,,,blue,,,,,null,US_Cities_List/westpalmbeach.png,US_Cities_List/carmel.png,,,,,,,,,,,,,,,,,,
null,,rt_plussign_withcolor,653510,,,blue,,,,,null,US_Cities_List/westpalmbeach.png,US_Cities_List/carmel.png,,,,,,,,,,,,,,,,,,
1086.7999999821186,,rt_thecrossant_black,654845,,,black_plus_sign,,,,,49,,,0.9411764705882353,1,,,,,,,,,,,,,,,,
null,,color_black,654947,,,black_plus_sign,,,,,null,,,,,,,,,,,,,,,,,,,,
null,,learn_phase(without_color),657951,,,black_plus_sign,,,,,null,US_Cities_List/huntsville.png,US_Cities_List/shreveport.png,,,,,,,,,,,,,,,,,,
null,,black_cross(without_color),658691,,,yellow,,,,,null,US_Cities_List/huntsville.png,US_Cities_List/shreveport.png,,,,,,,,,,,,,,,,,,
null,,rt_plussign_withcolor,659193,,,yellow,,,,,null,US_Cities_List/huntsville.png,US_Cities_List/shreveport.png,,,,,,,,,,,,,,,,,,
1210,,rt_thecrossant_black,660456,,,black_plus_sign,,,,,50,,,0.9444444444444444,1,,,,,,,,,,,,,,,,
null,,color_black,660558,,,black_plus_sign,,,,,null,,,,,,,,,,,,,,,,,,,,
null,,learn_phase(without_color),663561,,,black_plus_sign,,,,,null,US_Cities_List/huntsville.png,US_Cities_List/hanover.png,,,,,,,,,,,,,,,,,,
null,,black_cross(without_color),664568,,,yellow,,,,,null,US_Cities_List/huntsville.png,US_Cities_List/hanover.png,,,,,,,,,,,,,,,,,,
null,,rt_plussign_withcolor,665085,,,yellow,,,,,null,US_Cities_List/huntsville.png,US_Cities_List/hanover.png,,,,,,,,,,,,,,,,,,
1127.699999988079,,rt_thecrossant_black,666080,,,black_plus_sign,,,,,50,,,0.9473684210526315,1,,,,,,,,,,,,,,,,
null,,color_black,666182,,,black_plus_sign,,,,,null,,,,,,,,,,,,,,,,,,,,
null,,learn_phase(without_color),669187,,,black_plus_sign,,,,,null,US_Cities_List/hotsprings.png,US_Cities_List/newhope.png,,,,,,,,,,,,,,,,,,
null,,black_cross(without_color),669904,,,yellow,,,,,null,US_Cities_List/hotsprings.png,US_Cities_List/newhope.png,,,,,,,,,,,,,,,,,,
null,,rt_plussign_withcolor,670405,,,yellow,,,,,null,US_Cities_List/hotsprings.png,US_Cities_List/newhope.png,,,,,,,,,,,,,,,,,,
1488.4000000059605,,rt_thecrossant_black,671691,,,black_plus_sign,,,,,50,,,0.95,1,,,,,,,,,,,,,,,,
null,,color_black,671795,,,black_plus_sign,,,,,null,,,,,,,,,,,,,,,,,,,,
null,,learn_phase(without_color),674802,,,black_plus_sign,,,,,null,US_Cities_List/westpalmbeach.png,US_Cities_List/racine.png,,,,,,,,,,,,,,,,,,
null,,black_cross(without_color),675781,,,yellow,,,,,null,US_Cities_List/westpalmbeach.png,US_Cities_List/racine.png,,,,,,,,,,,,,,,,,,
null,,rt_plussign_withcolor,676282,,,yellow,,,,,null,US_Cities_List/westpalmbeach.png,US_Cities_List/racine.png,,,,,,,,,,,,,,,,,,
1121.9000000059605,,rt_thecrossant_black,677306,,,black_plus_sign,,,,,50,,,0.9523809523809523,1,,,,,,,,,,,,,,,,
null,,color_black,677407,,,black_plus_sign,,,,,null,,,,,,,,,,,,,,,,,,,,
null,,learn_phase(without_color),680414,,,black_plus_sign,,,,,null,US_Cities_List/huntsville.png,US_Cities_List/hanover.png,,,,,,,,,,,,,,,,,,
null,,black_cross(without_color),681408,,,yellow,,,,,null,US_Cities_List/huntsville.png,US_Cities_List/hanover.png,,,,,,,,,,,,,,,,,,
null,,rt_plussign_withcolor,681910,,,yellow,,,,,null,US_Cities_List/huntsville.png,US_Cities_List/hanover.png,,,,,,,,,,,,,,,,,,
1435.699999988079,,rt_thecrossant_black,682918,,,black_plus_sign,,,,,50,,,0.9545454545454546,1,,,,,,,,,,,,,,,,
null,,color_black,683020,,,black_plus_sign,,,,,null,,,,,,,,,,,,,,,,,,,,
null,,learn_phase(without_color),686025,,,black_plus_sign,,,,,null,US_Cities_List/newhope.png,US_Cities_List/hotsprings.png,,,,,,,,,,,,,,,,,,
null,,black_cross(without_color),686680,,,yellow,,,,,null,US_Cities_List/newhope.png,US_Cities_List/hotsprings.png,,,,,,,,,,,,,,,,,,
null,,rt_plussign_withcolor,687182,,,yellow,,,,,null,US_Cities_List/newhope.png,US_Cities_List/hotsprings.png,,,,,,,,,,,,,,,,,,
1319.7999999821186,,rt_thecrossant_black,688530,,,black_plus_sign,,,,,50,,,0.9565217391304348,1,,,,,,,,,,,,,,,,
null,,color_black,688632,,,black_plus_sign,,,,,null,,,,,,,,,,,,,,,,,,,,
null,,learn_phase(without_color),691636,,,black_plus_sign,,,,,null,US_Cities_List/hanover.png,US_Cities_List/peoria.png,,,,,,,,,,,,,,,,,,
null,,black_cross(without_color),692537,,,yellow,,,,,null,US_Cities_List/hanover.png,US_Cities_List/peoria.png,,,,,,,,,,,,,,,,,,
null,,rt_plussign_withcolor,693039,,,yellow,,,,,null,US_Cities_List/hanover.png,US_Cities_List/peoria.png,,,,,,,,,,,,,,,,,,
1056.7000000178814,,rt_thecrossant_black,694140,,,black_plus_sign,,,,,50,,,0.9583333333333334,1,,,,,,,,,,,,,,,,
null,,color_black,694243,,,black_plus_sign,,,,,null,,,,,,,,,,,,,,,,,,,,
null,,learn_phase(without_color),697250,,,black_plus_sign,,,,,null,US_Cities_List/hanover.png,US_Cities_List/cornwall.png,,,,,,,,,,,,,,,,,,
null,,black_cross(without_color),697705,,,yellow,,,,,null,US_Cities_List/hanover.png,US_Cities_List/cornwall.png,,,,,,,,,,,,,,,,,,
null,,rt_plussign_withcolor,698207,,,yellow,,,,,null,US_Cities_List/hanover.png,US_Cities_List/cornwall.png,,,,,,,,,,,,,,,,,,
1290,,rt_thecrossant_black,699756,,,black_plus_sign,,,,,50,,,0.96,1,,,,,,,,,,,,,,,,
null,,color_black,699858,,,black_plus_sign,,,,,null,,,,,,,,,,,,,,,,,,,,
null,,learn_phase(without_color),702865,,,black_plus_sign,,,,,null,US_Cities_List/cornwall.png,US_Cities_List/huntsville.png,,,,,,,,,,,,,,,,,,
null,,black_cross(without_color),703390,,,yellow,,,,,null,US_Cities_List/cornwall.png,US_Cities_List/huntsville.png,,,,,,,,,,,,,,,,,,
null,,rt_plussign_withcolor,703892,,,yellow,,,,,null,US_Cities_List/cornwall.png,US_Cities_List/huntsville.png,,,,,,,,,,,,,,,,,,
698,,rt_thecrossant_black,705370,,,black_plus_sign,,,,,50,,,0.9615384615384616,1,,,,,,,,,,,,,,,,
null,,color_black,705472,,,black_plus_sign,,,,,null,,,,,,,,,,,,,,,,,,,,
null,,learn_phase(without_color),708492,,,black_plus_sign,,,,,null,US_Cities_List/hotsprings.png,US_Cities_List/newhope.png,,,,,,,,,,,,,,,,,,
null,,black_cross(without_color),709114,,,blue,,,,,null,US_Cities_List/hotsprings.png,US_Cities_List/newhope.png,,,,,,,,,,,,,,,,,,
null,,rt_plussign_withcolor,709615,,,blue,,,,,null,US_Cities_List/hotsprings.png,US_Cities_List/newhope.png,,,,,,,,,,,,,,,,,,
null,,rt_thecrossant_black,710996,,,black_plus_sign,,,,,null,,,0.9615384615384616,,,,,,,,,,,,,,,,,
null,,color_black,711098,,,black_plus_sign,,,,,null,,,,,,,,,,,,,,,,,,,,
null,,learn_phase(without_color),714104,,,black_plus_sign,,,,,null,US_Cities_List/peoria.png,US_Cities_List/hanover.png,,,,,,,,,,,,,,,,,,
null,,black_cross(without_color),715071,,,yellow,,,,,null,US_Cities_List/peoria.png,US_Cities_List/hanover.png,,,,,,,,,,,,,,,,,,
441.60000002384186,,rt_plussign_withcolor,715573,,,yellow,,,,,50,US_Cities_List/peoria.png,US_Cities_List/hanover.png,,,,,,,,,,,,,,,,,,
null,,rt_thecrossant_black,716609,,,black_plus_sign,,,,,null,,,0.9629629629629629,1,,,,,,,,,,,,,,,,
null,,color_black,716711,,,black_plus_sign,,,,,null,,,,,,,,,,,,,,,,,,,,
null,,learn_phase(without_color),719722,,,black_plus_sign,,,,,null,US_Cities_List/racine.png,US_Cities_List/westpalmbeach.png,,,,,,,,,,,,,,,,,,
null,,black_cross(without_color),720292,,,blue,,,,,null,US_Cities_List/racine.png,US_Cities_List/westpalmbeach.png,,,,,,,,,,,,,,,,,,
null,,rt_plussign_withcolor,720793,,,blue,,,,,null,US_Cities_List/racine.png,US_Cities_List/westpalmbeach.png,,,,,,,,,,,,,,,,,,
null,,rt_thecrossant_black,722228,,,black_plus_sign,,,,,null,,,0.9629629629629629,,,,,,,,,,,,,,,,,
null,,color_black,722329,,,black_plus_sign,,,,,null,,,,,,,,,,,,,,,,,,,,
null,,learn_phase(without_color),725334,,,black_plus_sign,,,,,null,US_Cities_List/hanover.png,US_Cities_List/boulder.png,,,,,,,,,,,,,,,,,,
null,,black_cross(without_color),726366,,,yellow,,,,,null,US_Cities_List/hanover.png,US_Cities_List/boulder.png,,,,,,,,,,,,,,,,,,
null,,rt_plussign_withcolor,726867,,,yellow,,,,,null,US_Cities_List/hanover.png,US_Cities_List/boulder.png,,,,,,,,,,,,,,,,,,
778.4000000059605,,rt_thecrossant_black,727840,,,black_plus_sign,,,,,50,,,0.9642857142857143,1,,,,,,,,,,,,,,,,
null,,color_black,727951,,,black_plus_sign,,,,,null,,,,,,,,,,,,,,,,,,,,
null,,learn_phase(without_color),730959,,,black_plus_sign,,,,,null,US_Cities_List/boulder.png,US_Cities_List/racine.png,,,,,,,,,,,,,,,,,,
null,,black_cross(without_color),731834,,,blue,,,,,null,US_Cities_List/boulder.png,US_Cities_List/racine.png,,,,,,,,,,,,,,,,,,
null,,rt_plussign_withcolor,732336,,,blue,,,,,null,US_Cities_List/boulder.png,US_Cities_List/racine.png,,,,,,,,,,,,,,,,,,
1207.9000000059605,,rt_thecrossant_black,733465,,,black_plus_sign,,,,,49,,,0.9655172413793104,1,,,,,,,,,,,,,,,,
null,,color_black,733567,,,black_plus_sign,,,,,null,,,,,,,,,,,,,,,,,,,,
null,,learn_phase(without_color),736575,,,black_plus_sign,,,,,null,US_Cities_List/gatlinburg.png,US_Cities_List/boulder.png,,,,,,,,,,,,,,,,,,
null,,black_cross(without_color),737141,,,yellow,,,,,null,US_Cities_List/gatlinburg.png,US_Cities_List/boulder.png,,,,,,,,,,,,,,,,,,
447,,rt_plussign_withcolor,737643,,,yellow,,,,,50,US_Cities_List/gatlinburg.png,US_Cities_List/boulder.png,,,,,,,,,,,,,,,,,,
null,,rt_thecrossant_black,739082,,,black_plus_sign,,,,,null,,,0.9666666666666667,1,,,,,,,,,,,,,,,,
null,,color_black,739184,,,black_plus_sign,,,,,null,,,,,,,,,,,,,,,,,,,,
null,,learn_phase(without_color),742191,,,black_plus_sign,,,,,null,US_Cities_List/hanover.png,US_Cities_List/cornwall.png,,,,,,,,,,,,,,,,,,
null,,black_cross(without_color),742791,,,yellow,,,,,null,US_Cities_List/hanover.png,US_Cities_List/cornwall.png,,,,,,,,,,,,,,,,,,
null,,rt_plussign_withcolor,743304,,,yellow,,,,,null,US_Cities_List/hanover.png,US_Cities_List/cornwall.png,,,,,,,,,,,,,,,,,,
726.9000000059605,,rt_thecrossant_black,744708,,,black_plus_sign,,,,,50,,,0.967741935483871,1,,,,,,,,,,,,,,,,
null,,color_black,744810,,,black_plus_sign,,,,,null,,,,,,,,,,,,,,,,,,,,
null,,learn_phase(without_color),747818,,,black_plus_sign,,,,,null,US_Cities_List/cornwall.png,US_Cities_List/hanover.png,,,,,,,,,,,,,,,,,,
null,,black_cross(without_color),748317,,,yellow,,,,,null,US_Cities_List/cornwall.png,US_Cities_List/hanover.png,,,,,,,,,,,,,,,,,,
null,,rt_plussign_withcolor,748819,,,yellow,,,,,null,US_Cities_List/cornwall.png,US_Cities_List/hanover.png,,,,,,,,,,,,,,,,,,
1063.4000000059605,,rt_thecrossant_black,750324,,,black_plus_sign,,,,,50,,,0.96875,1,,,,,,,,,,,,,,,,
null,,color_black,750426,,,black_plus_sign,,,,,null,,,,,,,,,,,,,,,,,,,,
null,,learn_phase(without_color),753432,,,black_plus_sign,,,,,null,US_Cities_List/hotsprings.png,US_Cities_List/gatlinburg.png,,,,,,,,,,,,,,,,,,
null,,black_cross(without_color),754226,,,yellow,,,,,null,US_Cities_List/hotsprings.png,US_Cities_List/gatlinburg.png,,,,,,,,,,,,,,,,,,
null,,rt_plussign_withcolor,754728,,,yellow,,,,,null,US_Cities_List/hotsprings.png,US_Cities_List/gatlinburg.png,,,,,,,,,,,,,,,,,,
638.5999999940395,,rt_thecrossant_black,755938,,,black_plus_sign,,,,,50,,,0.9696969696969697,1,,,,,,,,,,,,,,,,
null,,color_black,756040,,,black_plus_sign,,,,,null,,,,,,,,,,,,,,,,,,,,
null,,learn_phase(without_color),759048,,,black_plus_sign,,,,,null,US_Cities_List/cornwall.png,US_Cities_List/leesburg.png,,,,,,,,,,,,,,,,,,
null,,black_cross(without_color),760132,,,yellow,,,,,null,US_Cities_List/cornwall.png,US_Cities_List/leesburg.png,,,,,,,,,,,,,,,,,,
null,,rt_plussign_withcolor,760633,,,yellow,,,,,null,US_Cities_List/cornwall.png,US_Cities_List/leesburg.png,,,,,,,,,,,,,,,,,,
1069.0999999940395,,rt_thecrossant_black,761556,,,black_plus_sign,,,,,50,,,0.9705882352941176,1,,,,,,,,,,,,,,,,
null,,color_black,761658,,,black_plus_sign,,,,,null,,,,,,,,,,,,,,,,,,,,
null,,learn_phase(without_color),764666,,,black_plus_sign,,,,,null,US_Cities_List/peoria.png,US_Cities_List/racine.png,,,,,,,,,,,,,,,,,,
null,,black_cross(without_color),765144,,,yellow,,,,,null,US_Cities_List/peoria.png,US_Cities_List/racine.png,,,,,,,,,,,,,,,,,,
null,,rt_plussign_withcolor,765652,,,yellow,,,,,null,US_Cities_List/peoria.png,US_Cities_List/racine.png,,,,,,,,,,,,,,,,,,
1318.9000000059605,,rt_thecrossant_black,767187,,,black_plus_sign,,,,,50,,,0.9714285714285714,1,,,,,,,,,,,,,,,,
null,,color_black,767297,,,black_plus_sign,,,,,null,,,,,,,,,,,,,,,,,,,,
null,,learn_phase(without_color),770303,,,black_plus_sign,,,,,null,US_Cities_List/westpalmbeach.png,US_Cities_List/hotsprings.png,,,,,,,,,,,,,,,,,,
null,,black_cross(without_color),771180,,,blue,,,,,null,US_Cities_List/westpalmbeach.png,US_Cities_List/hotsprings.png,,,,,,,,,,,,,,,,,,
null,,rt_plussign_withcolor,771682,,,blue,,,,,null,US_Cities_List/westpalmbeach.png,US_Cities_List/hotsprings.png,,,,,,,,,,,,,,,,,,
928.4000000059605,,rt_thecrossant_black,772808,,,black_plus_sign,,,,,49,,,0.9722222222222222,1,,,,,,,,,,,,,,,,
null,,color_black,772911,,,black_plus_sign,,,,,null,,,,,,,,,,,,,,,,,,,,
null,,learn_phase(without_color),775916,,,black_plus_sign,,,,,null,US_Cities_List/huntsville.png,US_Cities_List/hanover.png,,,,,,,,,,,,,,,,,,
null,,black_cross(without_color),776642,,,yellow,,,,,null,US_Cities_List/huntsville.png,US_Cities_List/hanover.png,,,,,,,,,,,,,,,,,,
null,,rt_plussign_withcolor,777143,,,yellow,,,,,null,US_Cities_List/huntsville.png,US_Cities_List/hanover.png,,,,,,,,,,,,,,,,,,
1139.4000000059605,,rt_thecrossant_black,778422,,,black_plus_sign,,,,,50,,,0.972972972972973,1,,,,,,,,,,,,,,,,
null,,color_black,778523,,,black_plus_sign,,,,,null,,,,,,,,,,,,,,,,,,,,
null,,learn_phase(without_color),781544,,,black_plus_sign,,,,,null,US_Cities_List/racine.png,US_Cities_List/peoria.png,,,,,,,,,,,,,,,,,,
null,,black_cross(without_color),782492,,,blue,,,,,null,US_Cities_List/racine.png,US_Cities_List/peoria.png,,,,,,,,,,,,,,,,,,
null,,rt_plussign_withcolor,782994,,,blue,,,,,null,US_Cities_List/racine.png,US_Cities_List/peoria.png,,,,,,,,,,,,,,,,,,
942.0999999940395,,rt_thecrossant_black,784062,,,black_plus_sign,,,,,49,,,0.9736842105263158,1,,,,,,,,,,,,,,,,
null,,color_black,784164,,,black_plus_sign,,,,,null,,,,,,,,,,,,,,,,,,,,
null,,learn_phase(without_color),787168,,,black_plus_sign,,,,,null,US_Cities_List/shreveport.png,US_Cities_List/huntsville.png,,,,,,,,,,,,,,,,,,
null,,black_cross(without_color),787590,,,blue,,,,,null,US_Cities_List/shreveport.png,US_Cities_List/huntsville.png,,,,,,,,,,,,,,,,,,
null,,rt_plussign_withcolor,788092,,,blue,,,,,null,US_Cities_List/shreveport.png,US_Cities_List/huntsville.png,,,,,,,,,,,,,,,,,,
1577.8999999761581,,rt_thecrossant_black,789674,,,black_plus_sign,,,,,49,,,0.9743589743589743,1,,,,,,,,,,,,,,,,
null,,color_black,789775,,,black_plus_sign,,,,,null,,,,,,,,,,,,,,,,,,,,
null,,learn_phase(without_color),792785,,,black_plus_sign,,,,,null,US_Cities_List/hotsprings.png,US_Cities_List/newhope.png,,,,,,,,,,,,,,,,,,
null,,black_cross(without_color),793731,,,blue,,,,,null,US_Cities_List/hotsprings.png,US_Cities_List/newhope.png,,,,,,,,,,,,,,,,,,
null,,rt_plussign_withcolor,794239,,,blue,,,,,null,US_Cities_List/hotsprings.png,US_Cities_List/newhope.png,,,,,,,,,,,,,,,,,,
753,,rt_thecrossant_black,795297,,,black_plus_sign,,,,,49,,,0.975,1,,,,,,,,,,,,,,,,
null,,color_black,795399,,,black_plus_sign,,,,,null,,,,,,,,,,,,,,,,,,,,
null,,learn_phase(without_color),798407,,,black_plus_sign,,,,,null,US_Cities_List/huntsville.png,US_Cities_List/cornwall.png,,,,,,,,,,,,,,,,,,
null,,black_cross(without_color),798813,,,yellow,,,,,null,US_Cities_List/huntsville.png,US_Cities_List/cornwall.png,,,,,,,,,,,,,,,,,,
null,,rt_plussign_withcolor,799314,,,yellow,,,,,null,US_Cities_List/huntsville.png,US_Cities_List/cornwall.png,,,,,,,,,,,,,,,,,,
1243.800000011921,,rt_thecrossant_black,800913,,,black_plus_sign,,,,,50,,,0.975609756097561,1,,,,,,,,,,,,,,,,
null,,color_black,801015,,,black_plus_sign,,,,,null,,,,,,,,,,,,,,,,,,,,
null,,learn_phase(without_color),804022,,,black_plus_sign,,,,,null,US_Cities_List/huntsville.png,US_Cities_List/peoria.png,,,,,,,,,,,,,,,,,,
null,,black_cross(without_color),804684,,,blue,,,,,null,US_Cities_List/huntsville.png,US_Cities_List/peoria.png,,,,,,,,,,,,,,,,,,
null,,rt_plussign_withcolor,805186,,,blue,,,,,null,US_Cities_List/huntsville.png,US_Cities_List/peoria.png,,,,,,,,,,,,,,,,,,
1050.3999999761581,,rt_thecrossant_black,806534,,,black_plus_sign,,,,,49,,,0.9761904761904762,1,,,,,,,,,,,,,,,,
null,,color_black,806635,,,black_plus_sign,,,,,null,,,,,,,,,,,,,,,,,,,,
null,,learn_phase(without_color),809640,,,black_plus_sign,,,,,null,US_Cities_List/hanover.png,US_Cities_List/peoria.png,,,,,,,,,,,,,,,,,,
null,,black_cross(without_color),810510,,,blue,,,,,null,US_Cities_List/hanover.png,US_Cities_List/peoria.png,,,,,,,,,,,,,,,,,,
null,,rt_plussign_withcolor,811011,,,blue,,,,,null,US_Cities_List/hanover.png,US_Cities_List/peoria.png,,,,,,,,,,,,,,,,,,
1481.0999999940395,,rt_thecrossant_black,812149,,,black_plus_sign,,,,,49,,,0.9767441860465116,1,,,,,,,,,,,,,,,,
null,,color_black,812251,,,black_plus_sign,,,,,null,,,,,,,,,,,,,,,,,,,,
null,,learn_phase(without_color),815258,,,black_plus_sign,,,,,null,US_Cities_List/westpalmbeach.png,US_Cities_List/hotsprings.png,,,,,,,,,,,,,,,,,,
null,,black_cross(without_color),816243,,,blue,,,,,null,US_Cities_List/westpalmbeach.png,US_Cities_List/hotsprings.png,,,,,,,,,,,,,,,,,,
null,,rt_plussign_withcolor,816745,,,blue,,,,,null,US_Cities_List/westpalmbeach.png,US_Cities_List/hotsprings.png,,,,,,,,,,,,,,,,,,
1641.800000011921,,rt_thecrossant_black,817764,,,black_plus_sign,,,,,49,,,0.9772727272727273,1,,,,,,,,,,,,,,,,
null,,color_black,817865,,,black_plus_sign,,,,,null,,,,,,,,,,,,,,,,,,,,
null,,learn_phase(without_color),820870,,,black_plus_sign,,,,,null,US_Cities_List/racine.png,US_Cities_List/peoria.png,,,,,,,,,,,,,,,,,,
null,,black_cross(without_color),821321,,,yellow,,,,,null,US_Cities_List/racine.png,US_Cities_List/peoria.png,,,,,,,,,,,,,,,,,,
null,,rt_plussign_withcolor,821823,,,yellow,,,,,null,US_Cities_List/racine.png,US_Cities_List/peoria.png,,,,,,,,,,,,,,,,,,
1593.0999999940395,,rt_thecrossant_black,823376,,,black_plus_sign,,,,,50,,,0.9777777777777777,1,,,,,,,,,,,,,,,,
null,,color_black,823477,,,black_plus_sign,,,,,null,,,,,,,,,,,,,,,,,,,,
null,,learn_phase(without_color),826487,,,black_plus_sign,,,,,null,US_Cities_List/hanover.png,US_Cities_List/boulder.png,,,,,,,,,,,,,,,,,,
null,,black_cross(without_color),827211,,,blue,,,,,null,US_Cities_List/hanover.png,US_Cities_List/boulder.png,,,,,,,,,,,,,,,,,,
null,,rt_plussign_withcolor,827724,,,blue,,,,,null,US_Cities_List/hanover.png,US_Cities_List/boulder.png,,,,,,,,,,,,,,,,,,
834.8000000119209,,rt_thecrossant_black,829004,,,black_plus_sign,,,,,49,,,0.9782608695652174,1,,,,,,,,,,,,,,,,
null,,color_black,829106,,,black_plus_sign,,,,,null,,,,,,,,,,,,,,,,,,,,
null,,learn_phase(without_color),832113,,,black_plus_sign,,,,,null,US_Cities_List/hotsprings.png,US_Cities_List/newhope.png,,,,,,,,,,,,,,,,,,
null,,black_cross(without_color),832546,,,blue,,,,,null,US_Cities_List/hotsprings.png,US_Cities_List/newhope.png,,,,,,,,,,,,,,,,,,
null,,rt_plussign_withcolor,833047,,,blue,,,,,null,US_Cities_List/hotsprings.png,US_Cities_List/newhope.png,,,,,,,,,,,,,,,,,,
2330,,rt_thecrossant_black,834618,,,black_plus_sign,,,,,49,,,0.9787234042553191,1,,,,,,,,,,,,,,,,
null,,color_black,834720,,,black_plus_sign,,,,,null,,,,,,,,,,,,,,,,,,,,
null,,learn_phase(without_color),837725,,,black_plus_sign,,,,,null,US_Cities_List/hotsprings.png,US_Cities_List/westpalmbeach.png,,,,,,,,,,,,,,,,,,
null,,black_cross(without_color),838253,,,blue,,,,,null,US_Cities_List/hotsprings.png,US_Cities_List/westpalmbeach.png,,,,,,,,,,,,,,,,,,
null,,rt_plussign_withcolor,838754,,,blue,,,,,null,US_Cities_List/hotsprings.png,US_Cities_List/westpalmbeach.png,,,,,,,,,,,,,,,,,,
769.8999999761581,,rt_thecrossant_black,840231,,,black_plus_sign,,,,,49,,,0.9791666666666666,1,,,,,,,,,,,,,,,,
null,,color_black,840332,,,black_plus_sign,,,,,null,,,,,,,,,,,,,,,,,,,,
null,,learn_phase(without_color),843339,,,black_plus_sign,,,,,null,US_Cities_List/gatlinburg.png,US_Cities_List/hotsprings.png,,,,,,,,,,,,,,,,,,
null,,black_cross(without_color),843919,,,blue,,,,,null,US_Cities_List/gatlinburg.png,US_Cities_List/hotsprings.png,,,,,,,,,,,,,,,,,,
null,,rt_plussign_withcolor,844420,,,blue,,,,,null,US_Cities_List/gatlinburg.png,US_Cities_List/hotsprings.png,,,,,,,,,,,,,,,,,,
888.0999999940395,,rt_thecrossant_black,845844,,,black_plus_sign,,,,,49,,,0.9795918367346939,1,,,,,,,,,,,,,,,,
null,,color_black,845945,,,black_plus_sign,,,,,null,,,,,,,,,,,,,,,,,,,,
null,,learn_phase(without_color),848949,,,black_plus_sign,,,,,null,US_Cities_List/huntsville.png,US_Cities_List/peoria.png,,,,,,,,,,,,,,,,,,
null,,black_cross(without_color),849760,,,yellow,,,,,null,US_Cities_List/huntsville.png,US_Cities_List/peoria.png,,,,,,,,,,,,,,,,,,
null,,rt_plussign_withcolor,850262,,,yellow,,,,,null,US_Cities_List/huntsville.png,US_Cities_List/peoria.png,,,,,,,,,,,,,,,,,,
774,,rt_thecrossant_black,851455,,,black_plus_sign,,,,,50,,,0.98,1,,,,,,,,,,,,,,,,
null,,color_black,851556,,,black_plus_sign,,,,,null,,,,,,,,,,,,,,,,,,,,
null,,learn_phase(without_color),854563,,,black_plus_sign,,,,,null,US_Cities_List/peoria.png,US_Cities_List/racine.png,,,,,,,,,,,,,,,,,,
null,,black_cross(without_color),855471,,,yellow,,,,,null,US_Cities_List/peoria.png,US_Cities_List/racine.png,,,,,,,,,,,,,,,,,,
null,,rt_plussign_withcolor,855972,,,yellow,,,,,null,US_Cities_List/peoria.png,US_Cities_List/racine.png,,,,,,,,,,,,,,,,,,
1159.300000011921,,rt_thecrossant_black,857075,,,black_plus_sign,,,,,50,,,0.9803921568627451,1,,,,,,,,,,,,,,,,
null,,color_black,857178,,,black_plus_sign,,,,,null,,,,,,,,,,,,,,,,,,,,
null,,learn_phase(without_color),860190,,,black_plus_sign,,,,,null,US_Cities_List/boulder.png,US_Cities_List/racine.png,,,,,,,,,,,,,,,,,,
null,,black_cross(without_color),860756,,,yellow,,,,,null,US_Cities_List/boulder.png,US_Cities_List/racine.png,,,,,,,,,,,,,,,,,,
null,,rt_plussign_withcolor,861259,,,yellow,,,,,null,US_Cities_List/boulder.png,US_Cities_List/racine.png,,,,,,,,,,,,,,,,,,
1170.7999999821186,,rt_thecrossant_black,862695,,,black_plus_sign,,,,,50,,,0.9807692307692307,1,,,,,,,,,,,,,,,,
null,,color_black,862796,,,black_plus_sign,,,,,null,,,,,,,,,,,,,,,,,,,,
null,,learn_phase(without_color),865804,,,black_plus_sign,,,,,null,US_Cities_List/gatlinburg.png,US_Cities_List/boulder.png,,,,,,,,,,,,,,,,,,
null,,black_cross(without_color),866637,,,blue,,,,,null,US_Cities_List/gatlinburg.png,US_Cities_List/boulder.png,,,,,,,,,,,,,,,,,,
null,,rt_plussign_withcolor,867139,,,blue,,,,,null,US_Cities_List/gatlinburg.png,US_Cities_List/boulder.png,,,,,,,,,,,,,,,,,,
1344.9000000059605,,rt_thecrossant_black,868309,,,black_plus_sign,,,,,49,,,0.9811320754716981,1,,,,,,,,,,,,,,,,
null,,color_black,868411,,,black_plus_sign,,,,,null,,,,,,,,,,,,,,,,,,,,
null,,learn_phase(without_color),871416,,,black_plus_sign,,,,,null,US_Cities_List/cornwall.png,US_Cities_List/huntsville.png,,,,,,,,,,,,,,,,,,
null,,black_cross(without_color),871944,,,blue,,,,,null,US_Cities_List/cornwall.png,US_Cities_List/huntsville.png,,,,,,,,,,,,,,,,,,
null,,rt_plussign_withcolor,872446,,,blue,,,,,null,US_Cities_List/cornwall.png,US_Cities_List/huntsville.png,,,,,,,,,,,,,,,,,,
1222.9000000059605,,rt_thecrossant_black,873922,,,black_plus_sign,,,,,49,,,0.9814814814814815,1,,,,,,,,,,,,,,,,
null,,color_black,874023,,,black_plus_sign,,,,,null,,,,,,,,,,,,,,,,,,,,
null,,learn_phase(without_color),877031,,,black_plus_sign,,,,,null,US_Cities_List/cornwall.png,US_Cities_List/huntsville.png,,,,,,,,,,,,,,,,,,
null,,black_cross(without_color),877609,,,blue,,,,,null,US_Cities_List/cornwall.png,US_Cities_List/huntsville.png,,,,,,,,,,,,,,,,,,
null,,rt_plussign_withcolor,878111,,,blue,,,,,null,US_Cities_List/cornwall.png,US_Cities_List/huntsville.png,,,,,,,,,,,,,,,,,,
1402.800000011921,,rt_thecrossant_black,879537,,,black_plus_sign,,,,,49,,,0.9818181818181818,1,,,,,,,,,,,,,,,,
null,,color_black,879638,,,black_plus_sign,,,,,null,,,,,,,,,,,,,,,,,,,,
null,,learn_phase(without_color),882645,,,black_plus_sign,,,,,null,US_Cities_List/westpalmbeach.png,US_Cities_List/hotsprings.png,,,,,,,,,,,,,,,,,,
null,,black_cross(without_color),883650,,,yellow,,,,,null,US_Cities_List/westpalmbeach.png,US_Cities_List/hotsprings.png,,,,,,,,,,,,,,,,,,
null,,rt_plussign_withcolor,884151,,,yellow,,,,,null,US_Cities_List/westpalmbeach.png,US_Cities_List/hotsprings.png,,,,,,,,,,,,,,,,,,
766,,rt_thecrossant_black,885149,,,black_plus_sign,,,,,50,,,0.9821428571428571,1,,,,,,,,,,,,,,,,
null,,color_black,885251,,,black_plus_sign,,,,,null,,,,,,,,,,,,,,,,,,,,
null,,learn_phase(without_color),888261,,,black_plus_sign,,,,,null,US_Cities_List/westpalmbeach.png,US_Cities_List/racine.png,,,,,,,,,,,,,,,,,,
null,,black_cross(without_color),889311,,,blue,,,,,null,US_Cities_List/westpalmbeach.png,US_Cities_List/racine.png,,,,,,,,,,,,,,,,,,
null,,rt_plussign_withcolor,889813,,,blue,,,,,null,US_Cities_List/westpalmbeach.png,US_Cities_List/racine.png,,,,,,,,,,,,,,,,,,
1286.7999999821186,,rt_thecrossant_black,890767,,,black_plus_sign,,,,,49,,,0.9824561403508771,1,,,,,,,,,,,,,,,,
null,,color_black,890868,,,black_plus_sign,,,,,null,,,,,,,,,,,,,,,,,,,,
null,,learn_phase(without_color),893887,,,black_plus_sign,,,,,null,US_Cities_List/cornwall.png,US_Cities_List/leesburg.png,,,,,,,,,,,,,,,,,,
null,,black_cross(without_color),894745,,,yellow,,,,,null,US_Cities_List/cornwall.png,US_Cities_List/leesburg.png,,,,,,,,,,,,,,,,,,
null,,rt_plussign_withcolor,895248,,,yellow,,,,,null,US_Cities_List/cornwall.png,US_Cities_List/leesburg.png,,,,,,,,,,,,,,,,,,
1322.699999988079,,rt_thecrossant_black,896394,,,black_plus_sign,,,,,50,,,0.9827586206896551,1,,,,,,,,,,,,,,,,
null,,color_black,896496,,,black_plus_sign,,,,,null,,,,,,,,,,,,,,,,,,,,
null,,learn_phase(without_color),899507,,,black_plus_sign,,,,,null,US_Cities_List/boulder.png,US_Cities_List/hanover.png,,,,,,,,,,,,,,,,,,
null,,black_cross(without_color),900263,,,yellow,,,,,null,US_Cities_List/boulder.png,US_Cities_List/hanover.png,,,,,,,,,,,,,,,,,,
null,,rt_plussign_withcolor,900765,,,yellow,,,,,null,US_Cities_List/boulder.png,US_Cities_List/hanover.png,,,,,,,,,,,,,,,,,,
1294.4000000059605,,rt_thecrossant_black,902012,,,black_plus_sign,,,,,50,,,0.9830508474576272,1,,,,,,,,,,,,,,,,
null,,color_black,902114,,,black_plus_sign,,,,,null,,,,,,,,,,,,,,,,,,,,
null,,learn_phase(without_color),905119,,,black_plus_sign,,,,,null,US_Cities_List/hanover.png,US_Cities_List/huntsville.png,,,,,,,,,,,,,,,,,,
null,,black_cross(without_color),906046,,,yellow,,,,,null,US_Cities_List/hanover.png,US_Cities_List/huntsville.png,,,,,,,,,,,,,,,,,,
null,,rt_plussign_withcolor,906547,,,yellow,,,,,null,US_Cities_List/hanover.png,US_Cities_List/huntsville.png,,,,,,,,,,,,,,,,,,
968.5,,rt_thecrossant_black,907623,,,black_plus_sign,,,,,50,,,0.9833333333333333,1,,,,,,,,,,,,,,,,
null,,color_black,907724,,,black_plus_sign,,,,,null,,,,,,,,,,,,,,,,,,,,
null,,learn_phase(without_color),910729,,,black_plus_sign,,,,,null,US_Cities_List/peoria.png,US_Cities_List/racine.png,,,,,,,,,,,,,,,,,,
null,,black_cross(without_color),911660,,,blue,,,,,null,US_Cities_List/peoria.png,US_Cities_List/racine.png,,,,,,,,,,,,,,,,,,
null,,rt_plussign_withcolor,912162,,,blue,,,,,null,US_Cities_List/peoria.png,US_Cities_List/racine.png,,,,,,,,,,,,,,,,,,
1624.9000000059605,,rt_thecrossant_black,913235,,,black_plus_sign,,,,,49,,,0.9836065573770492,1,,,,,,,,,,,,,,,,
null,,color_black,913337,,,black_plus_sign,,,,,null,,,,,,,,,,,,,,,,,,,,
null,,learn_break,973340,,,learn_break,,,,,null,,,,,,,,,,,,,,,,,,,,
null,,html-keyboard-response,974341,,,<p></p>,,,,,null,,,,,,,,,,,,,,,,,,,,
null,,learn_phase(without_color),977347,,,black_plus_sign,,,,,null,US_Cities_List/westpalmbeach.png,US_Cities_List/carmel.png,,,,,,,,,,,,,,,,,,
null,,black_cross(without_color),978374,,,yellow,,,,,null,US_Cities_List/westpalmbeach.png,US_Cities_List/carmel.png,,,,,,,,,,,,,,,,,,
null,,rt_plussign_withcolor,978876,,,yellow,,,,,null,US_Cities_List/westpalmbeach.png,US_Cities_List/carmel.png,,,,,,,,,,,,,,,,,,
1236.7999999821186,,rt_thecrossant_black,979853,,,black_plus_sign,,,,,50,,,0.9838709677419355,1,,,,,,,,,,,,,,,,
null,,color_black,979957,,,black_plus_sign,,,,,null,,,,,,,,,,,,,,,,,,,,
null,,learn_phase(without_color),982963,,,black_plus_sign,,,,,null,US_Cities_List/boulder.png,US_Cities_List/racine.png,,,,,,,,,,,,,,,,,,
null,,black_cross(without_color),983503,,,blue,,,,,null,US_Cities_List/boulder.png,US_Cities_List/racine.png,,,,,,,,,,,,,,,,,,
null,,rt_plussign_withcolor,984004,,,blue,,,,,null,US_Cities_List/boulder.png,US_Cities_List/racine.png,,,,,,,,,,,,,,,,,,
1813.300000011921,,rt_thecrossant_black,985467,,,black_plus_sign,,,,,49,,,0.9841269841269841,1,,,,,,,,,,,,,,,,
null,,color_black,985570,,,black_plus_sign,,,,,null,,,,,,,,,,,,,,,,,,,,
null,,learn_phase(without_color),988584,,,black_plus_sign,,,,,null,US_Cities_List/carmel.png,US_Cities_List/westpalmbeach.png,,,,,,,,,,,,,,,,,,
null,,black_cross(without_color),989641,,,blue,,,,,null,US_Cities_List/carmel.png,US_Cities_List/westpalmbeach.png,,,,,,,,,,,,,,,,,,
null,,rt_plussign_withcolor,990143,,,blue,,,,,null,US_Cities_List/carmel.png,US_Cities_List/westpalmbeach.png,,,,,,,,,,,,,,,,,,
null,,rt_thecrossant_black,991091,,,black_plus_sign,,,,,null,,,0.9841269841269841,,,,,,,,,,,,,,,,,
null,,color_black,991193,,,black_plus_sign,,,,,null,,,,,,,,,,,,,,,,,,,,
null,,learn_phase(without_color),994197,,,black_plus_sign,,,,,null,US_Cities_List/racine.png,US_Cities_List/boulder.png,,,,,,,,,,,,,,,,,,
null,,black_cross(without_color),994754,,,blue,,,,,null,US_Cities_List/racine.png,US_Cities_List/boulder.png,,,,,,,,,,,,,,,,,,
null,,rt_plussign_withcolor,995256,,,blue,,,,,null,US_Cities_List/racine.png,US_Cities_List/boulder.png,,,,,,,,,,,,,,,,,,
null,,rt_thecrossant_black,996703,,,black_plus_sign,,,,,null,,,0.9841269841269841,,,,,,,,,,,,,,,,,
null,,warning_page,999705,,,warning,,,,,null,,,,,,,,,,,,,,,,,,,,
null,,color_black,999807,,,black_plus_sign,,,,,null,,,,,,,,,,,,,,,,,,,,
null,,learn_phase(without_color),1002811,,,black_plus_sign,,,,,null,US_Cities_List/peoria.png,US_Cities_List/huntsville.png,,,,,,,,,,,,,,,,,,
null,,black_cross(without_color),1003430,,,yellow,,,,,null,US_Cities_List/peoria.png,US_Cities_List/huntsville.png,,,,,,,,,,,,,,,,,,
null,,rt_plussign_withcolor,1003932,,,yellow,,,,,null,US_Cities_List/peoria.png,US_Cities_List/huntsville.png,,,,,,,,,,,,,,,,,,
807.5,,rt_thecrossant_black,1005317,,,black_plus_sign,,,,,50,,,0.984375,1,,,,,,,,,,,,,,,,
null,,color_black,1005419,,,black_plus_sign,,,,,null,,,,,,,,,,,,,,,,,,,,
null,,learn_phase(without_color),1008424,,,black_plus_sign,,,,,null,US_Cities_List/huntsville.png,US_Cities_List/shreveport.png,,,,,,,,,,,,,,,,,,
null,,black_cross(without_color),1009216,,,blue,,,,,null,US_Cities_List/huntsville.png,US_Cities_List/shreveport.png,,,,,,,,,,,,,,,,,,
null,,rt_plussign_withcolor,1009717,,,blue,,,,,null,US_Cities_List/huntsville.png,US_Cities_List/shreveport.png,,,,,,,,,,,,,,,,,,
914.0999999940395,,rt_thecrossant_black,1010928,,,black_plus_sign,,,,,49,,,0.9846153846153847,1,,,,,,,,,,,,,,,,
null,,color_black,1011030,,,black_plus_sign,,,,,null,,,,,,,,,,,,,,,,,,,,
null,,learn_phase(without_color),1014035,,,black_plus_sign,,,,,null,US_Cities_List/racine.png,US_Cities_List/boulder.png,,,,,,,,,,,,,,,,,,
null,,black_cross(without_color),1015136,,,yellow,,,,,null,US_Cities_List/racine.png,US_Cities_List/boulder.png,,,,,,,,,,,,,,,,,,
null,,rt_plussign_withcolor,1015648,,,yellow,,,,,null,US_Cities_List/racine.png,US_Cities_List/boulder.png,,,,,,,,,,,,,,,,,,
999,,rt_thecrossant_black,1016552,,,black_plus_sign,,,,,50,,,0.9848484848484849,1,,,,,,,,,,,,,,,,
null,,color_black,1016659,,,black_plus_sign,,,,,null,,,,,,,,,,,,,,,,,,,,
null,,learn_phase(without_color),1019667,,,black_plus_sign,,,,,null,US_Cities_List/leesburg.png,US_Cities_List/cornwall.png,,,,,,,,,,,,,,,,,,
null,,black_cross(without_color),1020233,,,blue,,,,,null,US_Cities_List/leesburg.png,US_Cities_List/cornwall.png,,,,,,,,,,,,,,,,,,
null,,rt_plussign_withcolor,1020735,,,blue,,,,,null,US_Cities_List/leesburg.png,US_Cities_List/cornwall.png,,,,,,,,,,,,,,,,,,
1375.6000000238419,,rt_thecrossant_black,1022174,,,black_plus_sign,,,,,49,,,0.9850746268656716,1,,,,,,,,,,,,,,,,
null,,color_black,1022275,,,black_plus_sign,,,,,null,,,,,,,,,,,,,,,,,,,,
null,,learn_phase(without_color),1025282,,,black_plus_sign,,,,,null,US_Cities_List/westpalmbeach.png,US_Cities_List/racine.png,,,,,,,,,,,,,,,,,,
null,,black_cross(without_color),1025972,,,blue,,,,,null,US_Cities_List/westpalmbeach.png,US_Cities_List/racine.png,,,,,,,,,,,,,,,,,,
null,,rt_plussign_withcolor,1026473,,,blue,,,,,null,US_Cities_List/westpalmbeach.png,US_Cities_List/racine.png,,,,,,,,,,,,,,,,,,
942.5999999940395,,rt_thecrossant_black,1027787,,,black_plus_sign,,,,,49,,,0.9852941176470589,1,,,,,,,,,,,,,,,,
null,,color_black,1027889,,,black_plus_sign,,,,,null,,,,,,,,,,,,,,,,,,,,
null,,learn_phase(without_color),1030895,,,black_plus_sign,,,,,null,US_Cities_List/westpalmbeach.png,US_Cities_List/hotsprings.png,,,,,,,,,,,,,,,,,,
null,,black_cross(without_color),1031591,,,blue,,,,,null,US_Cities_List/westpalmbeach.png,US_Cities_List/hotsprings.png,,,,,,,,,,,,,,,,,,
null,,rt_plussign_withcolor,1032093,,,blue,,,,,null,US_Cities_List/westpalmbeach.png,US_Cities_List/hotsprings.png,,,,,,,,,,,,,,,,,,
916.9000000059605,,rt_thecrossant_black,1033401,,,black_plus_sign,,,,,49,,,0.9855072463768116,1,,,,,,,,,,,,,,,,
null,,color_black,1033504,,,black_plus_sign,,,,,null,,,,,,,,,,,,,,,,,,,,
null,,learn_phase(without_color),1036518,,,black_plus_sign,,,,,null,US_Cities_List/gatlinburg.png,US_Cities_List/boulder.png,,,,,,,,,,,,,,,,,,
null,,black_cross(without_color),1037431,,,blue,,,,,null,US_Cities_List/gatlinburg.png,US_Cities_List/boulder.png,,,,,,,,,,,,,,,,,,
null,,rt_plussign_withcolor,1037932,,,blue,,,,,null,US_Cities_List/gatlinburg.png,US_Cities_List/boulder.png,,,,,,,,,,,,,,,,,,
864.5,,rt_thecrossant_black,1039022,,,black_plus_sign,,,,,49,,,0.9857142857142858,1,,,,,,,,,,,,,,,,
null,,color_black,1039124,,,black_plus_sign,,,,,null,,,,,,,,,,,,,,,,,,,,
null,,learn_phase(without_color),1042129,,,black_plus_sign,,,,,null,US_Cities_List/huntsville.png,US_Cities_List/peoria.png,,,,,,,,,,,,,,,,,,
null,,black_cross(without_color),1042693,,,yellow,,,,,null,US_Cities_List/huntsville.png,US_Cities_List/peoria.png,,,,,,,,,,,,,,,,,,
null,,rt_plussign_withcolor,1043195,,,yellow,,,,,null,US_Cities_List/huntsville.png,US_Cities_List/peoria.png,,,,,,,,,,,,,,,,,,
1132.5,,rt_thecrossant_black,1044635,,,black_plus_sign,,,,,50,,,0.9859154929577465,1,,,,,,,,,,,,,,,,
null,,color_black,1044737,,,black_plus_sign,,,,,null,,,,,,,,,,,,,,,,,,,,
null,,learn_phase(without_color),1047745,,,black_plus_sign,,,,,null,US_Cities_List/gatlinburg.png,US_Cities_List/boulder.png,,,,,,,,,,,,,,,,,,
null,,black_cross(without_color),1048183,,,yellow,,,,,null,US_Cities_List/gatlinburg.png,US_Cities_List/boulder.png,,,,,,,,,,,,,,,,,,
null,,rt_plussign_withcolor,1048684,,,yellow,,,,,null,US_Cities_List/gatlinburg.png,US_Cities_List/boulder.png,,,,,,,,,,,,,,,,,,
811.0999999940395,,rt_thecrossant_black,1050250,,,black_plus_sign,,,,,50,,,0.9861111111111112,1,,,,,,,,,,,,,,,,
null,,color_black,1050357,,,black_plus_sign,,,,,null,,,,,,,,,,,,,,,,,,,,
null,,learn_phase(without_color),1053366,,,black_plus_sign,,,,,null,US_Cities_List/cornwall.png,US_Cities_List/leesburg.png,,,,,,,,,,,,,,,,,,
null,,black_cross(without_color),1053876,,,blue,,,,,null,US_Cities_List/cornwall.png,US_Cities_List/leesburg.png,,,,,,,,,,,,,,,,,,
null,,rt_plussign_withcolor,1054378,,,blue,,,,,null,US_Cities_List/cornwall.png,US_Cities_List/leesburg.png,,,,,,,,,,,,,,,,,,
792.9000000059605,,rt_thecrossant_black,1055870,,,black_plus_sign,,,,,49,,,0.9863013698630136,1,,,,,,,,,,,,,,,,
null,,color_black,1055973,,,black_plus_sign,,,,,null,,,,,,,,,,,,,,,,,,,,
null,,learn_phase(without_color),1058978,,,black_plus_sign,,,,,null,US_Cities_List/racine.png,US_Cities_List/westpalmbeach.png,,,,,,,,,,,,,,,,,,
null,,black_cross(without_color),1059961,,,yellow,,,,,null,US_Cities_List/racine.png,US_Cities_List/westpalmbeach.png,,,,,,,,,,,,,,,,,,
null,,rt_plussign_withcolor,1060463,,,yellow,,,,,null,US_Cities_List/racine.png,US_Cities_List/westpalmbeach.png,,,,,,,,,,,,,,,,,,
732.8000000119209,,rt_thecrossant_black,1061482,,,black_plus_sign,,,,,50,,,0.9864864864864865,1,,,,,,,,,,,,,,,,
null,,color_black,1061584,,,black_plus_sign,,,,,null,,,,,,,,,,,,,,,,,,,,
null,,learn_phase(without_color),1064593,,,black_plus_sign,,,,,null,US_Cities_List/leesburg.png,US_Cities_List/cornwall.png,,,,,,,,,,,,,,,,,,
null,,black_cross(without_color),1065422,,,blue,,,,,null,US_Cities_List/leesburg.png,US_Cities_List/cornwall.png,,,,,,,,,,,,,,,,,,
null,,rt_plussign_withcolor,1065924,,,blue,,,,,null,US_Cities_List/leesburg.png,US_Cities_List/cornwall.png,,,,,,,,,,,,,,,,,,
1248,,rt_thecrossant_black,1067098,,,black_plus_sign,,,,,49,,,0.9866666666666667,1,,,,,,,,,,,,,,,,
null,,color_black,1067200,,,black_plus_sign,,,,,null,,,,,,,,,,,,,,,,,,,,
null,,learn_phase(without_color),1070205,,,black_plus_sign,,,,,null,US_Cities_List/shreveport.png,US_Cities_List/huntsville.png,,,,,,,,,,,,,,,,,,
null,,black_cross(without_color),1070774,,,blue,,,,,null,US_Cities_List/shreveport.png,US_Cities_List/huntsville.png,,,,,,,,,,,,,,,,,,
null,,rt_plussign_withcolor,1071277,,,blue,,,,,null,US_Cities_List/shreveport.png,US_Cities_List/huntsville.png,,,,,,,,,,,,,,,,,,
1126.199999988079,,rt_thecrossant_black,1072715,,,black_plus_sign,,,,,49,,,0.9868421052631579,1,,,,,,,,,,,,,,,,
null,,color_black,1072817,,,black_plus_sign,,,,,null,,,,,,,,,,,,,,,,,,,,
null,,learn_phase(without_color),1075835,,,black_plus_sign,,,,,null,US_Cities_List/carmel.png,US_Cities_List/westpalmbeach.png,,,,,,,,,,,,,,,,,,
null,,black_cross(without_color),1076643,,,blue,,,,,null,US_Cities_List/carmel.png,US_Cities_List/westpalmbeach.png,,,,,,,,,,,,,,,,,,
null,,rt_plussign_withcolor,1077144,,,blue,,,,,null,US_Cities_List/carmel.png,US_Cities_List/westpalmbeach.png,,,,,,,,,,,,,,,,,,
727.2999999821186,,rt_thecrossant_black,1078354,,,black_plus_sign,,,,,49,,,0.987012987012987,1,,,,,,,,,,,,,,,,
null,,color_black,1078456,,,black_plus_sign,,,,,null,,,,,,,,,,,,,,,,,,,,
null,,learn_phase(without_color),1081462,,,black_plus_sign,,,,,null,US_Cities_List/huntsville.png,US_Cities_List/cornwall.png,,,,,,,,,,,,,,,,,,
null,,black_cross(without_color),1082446,,,blue,,,,,null,US_Cities_List/huntsville.png,US_Cities_List/cornwall.png,,,,,,,,,,,,,,,,,,
null,,rt_plussign_withcolor,1082948,,,blue,,,,,null,US_Cities_List/huntsville.png,US_Cities_List/cornwall.png,,,,,,,,,,,,,,,,,,
943.3999999761581,,rt_thecrossant_black,1083967,,,black_plus_sign,,,,,49,,,0.9871794871794872,1,,,,,,,,,,,,,,,,
null,,color_black,1084070,,,black_plus_sign,,,,,null,,,,,,,,,,,,,,,,,,,,
null,,learn_phase(without_color),1087077,,,black_plus_sign,,,,,null,US_Cities_List/hotsprings.png,US_Cities_List/gatlinburg.png,,,,,,,,,,,,,,,,,,
null,,black_cross(without_color),1087556,,,yellow,,,,,null,US_Cities_List/hotsprings.png,US_Cities_List/gatlinburg.png,,,,,,,,,,,,,,,,,,
null,,rt_plussign_withcolor,1088058,,,yellow,,,,,null,US_Cities_List/hotsprings.png,US_Cities_List/gatlinburg.png,,,,,,,,,,,,,,,,,,
1331,,rt_thecrossant_black,1089590,,,black_plus_sign,,,,,50,,,0.9873417721518988,1,,,,,,,,,,,,,,,,
null,,color_black,1089697,,,black_plus_sign,,,,,null,,,,,,,,,,,,,,,,,,,,
null,,learn_phase(without_color),1092702,,,black_plus_sign,,,,,null,US_Cities_List/gatlinburg.png,US_Cities_List/boulder.png,,,,,,,,,,,,,,,,,,
null,,black_cross(without_color),1093562,,,yellow,,,,,null,US_Cities_List/gatlinburg.png,US_Cities_List/boulder.png,,,,,,,,,,,,,,,,,,
null,,rt_plussign_withcolor,1094065,,,yellow,,,,,null,US_Cities_List/gatlinburg.png,US_Cities_List/boulder.png,,,,,,,,,,,,,,,,,,
724.7999999821186,,rt_thecrossant_black,1095215,,,black_plus_sign,,,,,50,,,0.9875,1,,,,,,,,,,,,,,,,
null,,color_black,1095318,,,black_plus_sign,,,,,null,,,,,,,,,,,,,,,,,,,,
null,,learn_phase(without_color),1098326,,,black_plus_sign,,,,,null,US_Cities_List/cornwall.png,US_Cities_List/leesburg.png,,,,,,,,,,,,,,,,,,
null,,black_cross(without_color),1099343,,,yellow,,,,,null,US_Cities_List/cornwall.png,US_Cities_List/leesburg.png,,,,,,,,,,,,,,,,,,
null,,rt_plussign_withcolor,1099844,,,yellow,,,,,null,US_Cities_List/cornwall.png,US_Cities_List/leesburg.png,,,,,,,,,,,,,,,,,,
1139.7999999821186,,rt_thecrossant_black,1100830,,,black_plus_sign,,,,,50,,,0.9876543209876543,1,,,,,,,,,,,,,,,,
null,,color_black,1100932,,,black_plus_sign,,,,,null,,,,,,,,,,,,,,,,,,,,
null,,learn_phase(without_color),1103938,,,black_plus_sign,,,,,null,US_Cities_List/hotsprings.png,US_Cities_List/gatlinburg.png,,,,,,,,,,,,,,,,,,
null,,black_cross(without_color),1104765,,,yellow,,,,,null,US_Cities_List/hotsprings.png,US_Cities_List/gatlinburg.png,,,,,,,,,,,,,,,,,,
null,,rt_plussign_withcolor,1105273,,,yellow,,,,,null,US_Cities_List/hotsprings.png,US_Cities_List/gatlinburg.png,,,,,,,,,,,,,,,,,,
1269.800000011921,,rt_thecrossant_black,1106451,,,black_plus_sign,,,,,50,,,0.9878048780487805,1,,,,,,,,,,,,,,,,
null,,color_black,1106552,,,black_plus_sign,,,,,null,,,,,,,,,,,,,,,,,,,,
null,,learn_phase(without_color),1109559,,,black_plus_sign,,,,,null,US_Cities_List/westpalmbeach.png,US_Cities_List/racine.png,,,,,,,,,,,,,,,,,,
null,,black_cross(without_color),1110067,,,yellow,,,,,null,US_Cities_List/westpalmbeach.png,US_Cities_List/racine.png,,,,,,,,,,,,,,,,,,
null,,rt_plussign_withcolor,1110579,,,yellow,,,,,null,US_Cities_List/westpalmbeach.png,US_Cities_List/racine.png,,,,,,,,,,,,,,,,,,
1089.2000000178814,,rt_thecrossant_black,1112074,,,black_plus_sign,,,,,50,,,0.9879518072289156,1,,,,,,,,,,,,,,,,
null,,color_black,1112176,,,black_plus_sign,,,,,null,,,,,,,,,,,,,,,,,,,,
null,,learn_phase(without_color),1115184,,,black_plus_sign,,,,,null,US_Cities_List/cornwall.png,US_Cities_List/hanover.png,,,,,,,,,,,,,,,,,,
null,,black_cross(without_color),1115845,,,yellow,,,,,null,US_Cities_List/cornwall.png,US_Cities_List/hanover.png,,,,,,,,,,,,,,,,,,
null,,rt_plussign_withcolor,1116347,,,yellow,,,,,null,US_Cities_List/cornwall.png,US_Cities_List/hanover.png,,,,,,,,,,,,,,,,,,
1293.300000011921,,rt_thecrossant_black,1117690,,,black_plus_sign,,,,,50,,,0.9880952380952381,1,,,,,,,,,,,,,,,,
null,,color_black,1117792,,,black_plus_sign,,,,,null,,,,,,,,,,,,,,,,,,,,
null,,learn_phase(without_color),1120798,,,black_plus_sign,,,,,null,US_Cities_List/cornwall.png,US_Cities_List/hanover.png,,,,,,,,,,,,,,,,,,
null,,black_cross(without_color),1121280,,,blue,,,,,null,US_Cities_List/cornwall.png,US_Cities_List/hanover.png,,,,,,,,,,,,,,,,,,
null,,rt_plussign_withcolor,1121784,,,blue,,,,,null,US_Cities_List/cornwall.png,US_Cities_List/hanover.png,,,,,,,,,,,,,,,,,,
994,,rt_thecrossant_black,1123310,,,black_plus_sign,,,,,49,,,0.9882352941176471,1,,,,,,,,,,,,,,,,
null,,color_black,1123412,,,black_plus_sign,,,,,null,,,,,,,,,,,,,,,,,,,,
null,,learn_phase(without_color),1126416,,,black_plus_sign,,,,,null,US_Cities_List/hanover.png,US_Cities_List/boulder.png,,,,,,,,,,,,,,,,,,
null,,black_cross(without_color),1127401,,,blue,,,,,null,US_Cities_List/hanover.png,US_Cities_List/boulder.png,,,,,,,,,,,,,,,,,,
null,,rt_plussign_withcolor,1127903,,,blue,,,,,null,US_Cities_List/hanover.png,US_Cities_List/boulder.png,,,,,,,,,,,,,,,,,,
849.9000000059605,,rt_thecrossant_black,1128922,,,black_plus_sign,,,,,49,,,0.9883720930232558,1,,,,,,,,,,,,,,,,
null,,color_black,1129025,,,black_plus_sign,,,,,null,,,,,,,,,,,,,,,,,,,,
null,,learn_phase(without_color),1132032,,,black_plus_sign,,,,,null,US_Cities_List/leesburg.png,US_Cities_List/cornwall.png,,,,,,,,,,,,,,,,,,
null,,black_cross(without_color),1132545,,,yellow,,,,,null,US_Cities_List/leesburg.png,US_Cities_List/cornwall.png,,,,,,,,,,,,,,,,,,
null,,rt_plussign_withcolor,1133046,,,yellow,,,,,null,US_Cities_List/leesburg.png,US_Cities_List/cornwall.png,,,,,,,,,,,,,,,,,,
1424,,rt_thecrossant_black,1134537,,,black_plus_sign,,,,,50,,,0.9885057471264368,1,,,,,,,,,,,,,,,,
null,,color_black,1134640,,,black_plus_sign,,,,,null,,,,,,,,,,,,,,,,,,,,
null,,learn_phase(without_color),1137646,,,black_plus_sign,,,,,null,US_Cities_List/boulder.png,US_Cities_List/racine.png,,,,,,,,,,,,,,,,,,
null,,black_cross(without_color),1138268,,,yellow,,,,,null,US_Cities_List/boulder.png,US_Cities_List/racine.png,,,,,,,,,,,,,,,,,,
null,,rt_plussign_withcolor,1138769,,,yellow,,,,,null,US_Cities_List/boulder.png,US_Cities_List/racine.png,,,,,,,,,,,,,,,,,,
899.4000000059605,,rt_thecrossant_black,1140150,,,black_plus_sign,,,,,50,,,0.9886363636363636,1,,,,,,,,,,,,,,,,
null,,color_black,1140264,,,black_plus_sign,,,,,null,,,,,,,,,,,,,,,,,,,,
null,,learn_phase(without_color),1143271,,,black_plus_sign,,,,,null,US_Cities_List/peoria.png,US_Cities_List/hanover.png,,,,,,,,,,,,,,,,,,
null,,black_cross(without_color),1143873,,,yellow,,,,,null,US_Cities_List/peoria.png,US_Cities_List/hanover.png,,,,,,,,,,,,,,,,,,
null,,rt_plussign_withcolor,1144374,,,yellow,,,,,null,US_Cities_List/peoria.png,US_Cities_List/hanover.png,,,,,,,,,,,,,,,,,,
990.6999999880791,,rt_thecrossant_black,1145775,,,black_plus_sign,,,,,50,,,0.9887640449438202,1,,,,,,,,,,,,,,,,
null,,color_black,1145877,,,black_plus_sign,,,,,null,,,,,,,,,,,,,,,,,,,,
null,,learn_phase(without_color),1148886,,,black_plus_sign,,,,,null,US_Cities_List/carmel.png,US_Cities_List/westpalmbeach.png,,,,,,,,,,,,,,,,,,
null,,black_cross(without_color),1149905,,,yellow,,,,,null,US_Cities_List/carmel.png,US_Cities_List/westpalmbeach.png,,,,,,,,,,,,,,,,,,
null,,rt_plussign_withcolor,1150408,,,yellow,,,,,null,US_Cities_List/carmel.png,US_Cities_List/westpalmbeach.png,,,,,,,,,,,,,,,,,,
828.3999999761581,,rt_thecrossant_black,1151393,,,black_plus_sign,,,,,50,,,0.9888888888888889,1,,,,,,,,,,,,,,,,
null,,color_black,1151495,,,black_plus_sign,,,,,null,,,,,,,,,,,,,,,,,,,,
null,,learn_phase(without_color),1154500,,,black_plus_sign,,,,,null,US_Cities_List/westpalmbeach.png,US_Cities_List/racine.png,,,,,,,,,,,,,,,,,,
null,,black_cross(without_color),1155573,,,blue,,,,,null,US_Cities_List/westpalmbeach.png,US_Cities_List/racine.png,,,,,,,,,,,,,,,,,,
null,,rt_plussign_withcolor,1156074,,,blue,,,,,null,US_Cities_List/westpalmbeach.png,US_Cities_List/racine.png,,,,,,,,,,,,,,,,,,
1641,,rt_thecrossant_black,1157005,,,black_plus_sign,,,,,49,,,0.989010989010989,1,,,,,,,,,,,,,,,,
null,,color_black,1157108,,,black_plus_sign,,,,,null,,,,,,,,,,,,,,,,,,,,
null,,learn_phase(without_color),1160113,,,black_plus_sign,,,,,null,US_Cities_List/hanover.png,US_Cities_List/peoria.png,,,,,,,,,,,,,,,,,,
null,,black_cross(without_color),1160920,,,yellow,,,,,null,US_Cities_List/hanover.png,US_Cities_List/peoria.png,,,,,,,,,,,,,,,,,,
null,,rt_plussign_withcolor,1161423,,,yellow,,,,,null,US_Cities_List/hanover.png,US_Cities_List/peoria.png,,,,,,,,,,,,,,,,,,
1444.699999988079,,rt_thecrossant_black,1162632,,,black_plus_sign,,,,,50,,,0.9891304347826086,1,,,,,,,,,,,,,,,,
null,,color_black,1162735,,,black_plus_sign,,,,,null,,,,,,,,,,,,,,,,,,,,
null,,learn_phase(without_color),1165741,,,black_plus_sign,,,,,null,US_Cities_List/racine.png,US_Cities_List/peoria.png,,,,,,,,,,,,,,,,,,
null,,black_cross(without_color),1166274,,,blue,,,,,null,US_Cities_List/racine.png,US_Cities_List/peoria.png,,,,,,,,,,,,,,,,,,
null,,rt_plussign_withcolor,1166776,,,blue,,,,,null,US_Cities_List/racine.png,US_Cities_List/peoria.png,,,,,,,,,,,,,,,,,,
1232.800000011921,,rt_thecrossant_black,1168246,,,black_plus_sign,,,,,49,,,0.989247311827957,1,,,,,,,,,,,,,,,,
null,,color_black,1168348,,,black_plus_sign,,,,,null,,,,,,,,,,,,,,,,,,,,
null,,learn_phase(without_color),1171354,,,black_plus_sign,,,,,null,US_Cities_List/newhope.png,US_Cities_List/hotsprings.png,,,,,,,,,,,,,,,,,,
null,,black_cross(without_color),1171836,,,yellow,,,,,null,US_Cities_List/newhope.png,US_Cities_List/hotsprings.png,,,,,,,,,,,,,,,,,,
null,,rt_plussign_withcolor,1172338,,,yellow,,,,,null,US_Cities_List/newhope.png,US_Cities_List/hotsprings.png,,,,,,,,,,,,,,,,,,
913.6000000238419,,rt_thecrossant_black,1173860,,,black_plus_sign,,,,,50,,,0.9893617021276596,1,,,,,,,,,,,,,,,,
null,,color_black,1173962,,,black_plus_sign,,,,,null,,,,,,,,,,,,,,,,,,,,
null,,learn_phase(without_color),1176966,,,black_plus_sign,,,,,null,US_Cities_List/huntsville.png,US_Cities_List/peoria.png,,,,,,,,,,,,,,,,,,
null,,black_cross(without_color),1177696,,,yellow,,,,,null,US_Cities_List/huntsville.png,US_Cities_List/peoria.png,,,,,,,,,,,,,,,,,,
null,,rt_plussign_withcolor,1178198,,,yellow,,,,,null,US_Cities_List/huntsville.png,US_Cities_List/peoria.png,,,,,,,,,,,,,,,,,,
1309.699999988079,,rt_thecrossant_black,1179473,,,black_plus_sign,,,,,50,,,0.9894736842105263,1,,,,,,,,,,,,,,,,
null,,color_black,1179575,,,black_plus_sign,,,,,null,,,,,,,,,,,,,,,,,,,,
null,,learn_phase(without_color),1182579,,,black_plus_sign,,,,,null,US_Cities_List/huntsville.png,US_Cities_List/shreveport.png,,,,,,,,,,,,,,,,,,
null,,black_cross(without_color),1183334,,,blue,,,,,null,US_Cities_List/huntsville.png,US_Cities_List/shreveport.png,,,,,,,,,,,,,,,,,,
null,,rt_plussign_withcolor,1183836,,,blue,,,,,null,US_Cities_List/huntsville.png,US_Cities_List/shreveport.png,,,,,,,,,,,,,,,,,,
1137.4000000059605,,rt_thecrossant_black,1185085,,,black_plus_sign,,,,,49,,,0.9895833333333334,1,,,,,,,,,,,,,,,,
null,,color_black,1185186,,,black_plus_sign,,,,,null,,,,,,,,,,,,,,,,,,,,
null,,learn_phase(without_color),1188194,,,black_plus_sign,,,,,null,US_Cities_List/hotsprings.png,US_Cities_List/gatlinburg.png,,,,,,,,,,,,,,,,,,
null,,black_cross(without_color),1189050,,,blue,,,,,null,US_Cities_List/hotsprings.png,US_Cities_List/gatlinburg.png,,,,,,,,,,,,,,,,,,
null,,rt_plussign_withcolor,1189552,,,blue,,,,,null,US_Cities_List/hotsprings.png,US_Cities_List/gatlinburg.png,,,,,,,,,,,,,,,,,,
961.7999999821186,,rt_thecrossant_black,1190700,,,black_plus_sign,,,,,49,,,0.9896907216494846,1,,,,,,,,,,,,,,,,
null,,color_black,1190802,,,black_plus_sign,,,,,null,,,,,,,,,,,,,,,,,,,,
null,,learn_phase(without_color),1193807,,,black_plus_sign,,,,,null,US_Cities_List/gatlinburg.png,US_Cities_List/boulder.png,,,,,,,,,,,,,,,,,,
null,,black_cross(without_color),1194540,,,blue,,,,,null,US_Cities_List/gatlinburg.png,US_Cities_List/boulder.png,,,,,,,,,,,,,,,,,,
null,,rt_plussign_withcolor,1195042,,,blue,,,,,null,US_Cities_List/gatlinburg.png,US_Cities_List/boulder.png,,,,,,,,,,,,,,,,,,
1080.0999999940395,,rt_thecrossant_black,1196326,,,black_plus_sign,,,,,49,,,0.9897959183673469,1,,,,,,,,,,,,,,,,
null,,color_black,1196429,,,black_plus_sign,,,,,null,,,,,,,,,,,,,,,,,,,,
null,,learn_phase(without_color),1199435,,,black_plus_sign,,,,,null,US_Cities_List/huntsville.png,US_Cities_List/cornwall.png,,,,,,,,,,,,,,,,,,
null,,black_cross(without_color),1200209,,,blue,,,,,null,US_Cities_List/huntsville.png,US_Cities_List/cornwall.png,,,,,,,,,,,,,,,,,,
null,,rt_plussign_withcolor,1200710,,,blue,,,,,null,US_Cities_List/huntsville.png,US_Cities_List/cornwall.png,,,,,,,,,,,,,,,,,,
1161.6000000238419,,rt_thecrossant_black,1201939,,,black_plus_sign,,,,,49,,,0.98989898989899,1,,,,,,,,,,,,,,,,
null,,color_black,1202041,,,black_plus_sign,,,,,null,,,,,,,,,,,,,,,,,,,,
null,,learn_phase(without_color),1205046,,,black_plus_sign,,,,,null,US_Cities_List/boulder.png,US_Cities_List/racine.png,,,,,,,,,,,,,,,,,,
null,,black_cross(without_color),1205853,,,yellow,,,,,null,US_Cities_List/boulder.png,US_Cities_List/racine.png,,,,,,,,,,,,,,,,,,
null,,rt_plussign_withcolor,1206355,,,yellow,,,,,null,US_Cities_List/boulder.png,US_Cities_List/racine.png,,,,,,,,,,,,,,,,,,
1147.9000000059605,,rt_thecrossant_black,1207552,,,black_plus_sign,,,,,50,,,0.99,1,,,,,,,,,,,,,,,,
null,,color_black,1207654,,,black_plus_sign,,,,,null,,,,,,,,,,,,,,,,,,,,
null,,learn_phase(without_color),1210661,,,black_plus_sign,,,,,null,US_Cities_List/hanover.png,US_Cities_List/boulder.png,,,,,,,,,,,,,,,,,,
null,,black_cross(without_color),1211622,,,blue,,,,,null,US_Cities_List/hanover.png,US_Cities_List/boulder.png,,,,,,,,,,,,,,,,,,
null,,rt_plussign_withcolor,1212124,,,blue,,,,,null,US_Cities_List/hanover.png,US_Cities_List/boulder.png,,,,,,,,,,,,,,,,,,
1024.8999999761581,,rt_thecrossant_black,1213166,,,black_plus_sign,,,,,49,,,0.9900990099009901,1,,,,,,,,,,,,,,,,
null,,color_black,1213270,,,black_plus_sign,,,,,null,,,,,,,,,,,,,,,,,,,,
null,,learn_phase(without_color),1216281,,,black_plus_sign,,,,,null,US_Cities_List/hotsprings.png,US_Cities_List/gatlinburg.png,,,,,,,,,,,,,,,,,,
null,,black_cross(without_color),1217362,,,blue,,,,,null,US_Cities_List/hotsprings.png,US_Cities_List/gatlinburg.png,,,,,,,,,,,,,,,,,,
null,,rt_plussign_withcolor,1217864,,,blue,,,,,null,US_Cities_List/hotsprings.png,US_Cities_List/gatlinburg.png,,,,,,,,,,,,,,,,,,
1175.4000000059605,,rt_thecrossant_black,1218786,,,black_plus_sign,,,,,49,,,0.9901960784313726,1,,,,,,,,,,,,,,,,
null,,color_black,1218888,,,black_plus_sign,,,,,null,,,,,,,,,,,,,,,,,,,,
null,,learn_phase(without_color),1221896,,,black_plus_sign,,,,,null,US_Cities_List/westpalmbeach.png,US_Cities_List/carmel.png,,,,,,,,,,,,,,,,,,
null,,black_cross(without_color),1222418,,,blue,,,,,null,US_Cities_List/westpalmbeach.png,US_Cities_List/carmel.png,,,,,,,,,,,,,,,,,,
null,,rt_plussign_withcolor,1222921,,,blue,,,,,null,US_Cities_List/westpalmbeach.png,US_Cities_List/carmel.png,,,,,,,,,,,,,,,,,,
1308.4000000059605,,rt_thecrossant_black,1224402,,,black_plus_sign,,,,,49,,,0.9902912621359223,1,,,,,,,,,,,,,,,,
null,,color_black,1224519,,,black_plus_sign,,,,,null,,,,,,,,,,,,,,,,,,,,
null,,learn_phase(without_color),1227527,,,black_plus_sign,,,,,null,US_Cities_List/peoria.png,US_Cities_List/huntsville.png,,,,,,,,,,,,,,,,,,
null,,black_cross(without_color),1228079,,,yellow,,,,,null,US_Cities_List/peoria.png,US_Cities_List/huntsville.png,,,,,,,,,,,,,,,,,,
null,,rt_plussign_withcolor,1228581,,,yellow,,,,,null,US_Cities_List/peoria.png,US_Cities_List/huntsville.png,,,,,,,,,,,,,,,,,,
804.5,,rt_thecrossant_black,1230032,,,black_plus_sign,,,,,50,,,0.9903846153846154,1,,,,,,,,,,,,,,,,
null,,color_black,1230134,,,black_plus_sign,,,,,null,,,,,,,,,,,,,,,,,,,,
null,,learn_phase(without_color),1233140,,,black_plus_sign,,,,,null,US_Cities_List/gatlinburg.png,US_Cities_List/hotsprings.png,,,,,,,,,,,,,,,,,,
null,,black_cross(without_color),1233763,,,yellow,,,,,null,US_Cities_List/gatlinburg.png,US_Cities_List/hotsprings.png,,,,,,,,,,,,,,,,,,
null,,rt_plussign_withcolor,1234264,,,yellow,,,,,null,US_Cities_List/gatlinburg.png,US_Cities_List/hotsprings.png,,,,,,,,,,,,,,,,,,
802.8999999761581,,rt_thecrossant_black,1235645,,,black_plus_sign,,,,,50,,,0.9904761904761905,1,,,,,,,,,,,,,,,,
null,,color_black,1235747,,,black_plus_sign,,,,,null,,,,,,,,,,,,,,,,,,,,
null,,learn_phase(without_color),1238752,,,black_plus_sign,,,,,null,US_Cities_List/gatlinburg.png,US_Cities_List/boulder.png,,,,,,,,,,,,,,,,,,
null,,black_cross(without_color),1239752,,,yellow,,,,,null,US_Cities_List/gatlinburg.png,US_Cities_List/boulder.png,,,,,,,,,,,,,,,,,,
null,,rt_plussign_withcolor,1240255,,,yellow,,,,,null,US_Cities_List/gatlinburg.png,US_Cities_List/boulder.png,,,,,,,,,,,,,,,,,,
null,,rt_thecrossant_black,1241259,,,black_plus_sign,,,,,null,,,0.9904761904761905,,,,,,,,,,,,,,,,,
null,,color_black,1241360,,,black_plus_sign,,,,,null,,,,,,,,,,,,,,,,,,,,
null,,learn_phase(without_color),1244366,,,black_plus_sign,,,,,null,US_Cities_List/hanover.png,US_Cities_List/boulder.png,,,,,,,,,,,,,,,,,,
null,,black_cross(without_color),1245391,,,yellow,,,,,null,US_Cities_List/hanover.png,US_Cities_List/boulder.png,,,,,,,,,,,,,,,,,,
null,,rt_plussign_withcolor,1245892,,,yellow,,,,,null,US_Cities_List/hanover.png,US_Cities_List/boulder.png,,,,,,,,,,,,,,,,,,
1332.2999999821186,,rt_thecrossant_black,1246871,,,black_plus_sign,,,,,50,,,0.9905660377358491,1,,,,,,,,,,,,,,,,
null,,color_black,1246973,,,black_plus_sign,,,,,null,,,,,,,,,,,,,,,,,,,,
null,,learn_phase(without_color),1249981,,,black_plus_sign,,,,,null,US_Cities_List/boulder.png,US_Cities_List/racine.png,,,,,,,,,,,,,,,,,,
null,,black_cross(without_color),1250927,,,yellow,,,,,null,US_Cities_List/boulder.png,US_Cities_List/racine.png,,,,,,,,,,,,,,,,,,
null,,rt_plussign_withcolor,1251428,,,yellow,,,,,null,US_Cities_List/boulder.png,US_Cities_List/racine.png,,,,,,,,,,,,,,,,,,
1427.199999988079,,rt_thecrossant_black,1252486,,,black_plus_sign,,,,,50,,,0.9906542056074766,1,,,,,,,,,,,,,,,,
null,,color_black,1252588,,,black_plus_sign,,,,,null,,,,,,,,,,,,,,,,,,,,
null,,learn_phase(without_color),1255593,,,black_plus_sign,,,,,null,US_Cities_List/hanover.png,US_Cities_List/peoria.png,,,,,,,,,,,,,,,,,,
null,,black_cross(without_color),1256637,,,yellow,,,,,null,US_Cities_List/hanover.png,US_Cities_List/peoria.png,,,,,,,,,,,,,,,,,,
null,,rt_plussign_withcolor,1257139,,,yellow,,,,,null,US_Cities_List/hanover.png,US_Cities_List/peoria.png,,,,,,,,,,,,,,,,,,
1141.6000000238419,,rt_thecrossant_black,1258098,,,black_plus_sign,,,,,50,,,0.9907407407407407,1,,,,,,,,,,,,,,,,
null,,color_black,1258199,,,black_plus_sign,,,,,null,,,,,,,,,,,,,,,,,,,,
null,,learn_phase(without_color),1261205,,,black_plus_sign,,,,,null,US_Cities_List/hotsprings.png,US_Cities_List/newhope.png,,,,,,,,,,,,,,,,,,
null,,black_cross(without_color),1261664,,,blue,,,,,null,US_Cities_List/hotsprings.png,US_Cities_List/newhope.png,,,,,,,,,,,,,,,,,,
null,,rt_plussign_withcolor,1262167,,,blue,,,,,null,US_Cities_List/hotsprings.png,US_Cities_List/newhope.png,,,,,,,,,,,,,,,,,,
1378.2000000178814,,rt_thecrossant_black,1263723,,,black_plus_sign,,,,,49,,,0.9908256880733946,1,,,,,,,,,,,,,,,,
null,,color_black,1263825,,,black_plus_sign,,,,,null,,,,,,,,,,,,,,,,,,,,
null,,learn_phase(without_color),1266833,,,black_plus_sign,,,,,null,US_Cities_List/westpalmbeach.png,US_Cities_List/hotsprings.png,,,,,,,,,,,,,,,,,,
null,,black_cross(without_color),1267713,,,yellow,,,,,null,US_Cities_List/westpalmbeach.png,US_Cities_List/hotsprings.png,,,,,,,,,,,,,,,,,,
null,,rt_plussign_withcolor,1268215,,,yellow,,,,,null,US_Cities_List/westpalmbeach.png,US_Cities_List/hotsprings.png,,,,,,,,,,,,,,,,,,
750.3999999761581,,rt_thecrossant_black,1269346,,,black_plus_sign,,,,,50,,,0.990909090909091,1,,,,,,,,,,,,,,,,
null,,color_black,1269448,,,black_plus_sign,,,,,null,,,,,,,,,,,,,,,,,,,,
null,,learn_phase(without_color),1272452,,,black_plus_sign,,,,,null,US_Cities_List/huntsville.png,US_Cities_List/shreveport.png,,,,,,,,,,,,,,,,,,
null,,black_cross(without_color),1273426,,,yellow,,,,,null,US_Cities_List/huntsville.png,US_Cities_List/shreveport.png,,,,,,,,,,,,,,,,,,
null,,rt_plussign_withcolor,1273928,,,yellow,,,,,null,US_Cities_List/huntsville.png,US_Cities_List/shreveport.png,,,,,,,,,,,,,,,,,,
1347.4000000059605,,rt_thecrossant_black,1274958,,,black_plus_sign,,,,,50,,,0.990990990990991,1,,,,,,,,,,,,,,,,
null,,color_black,1275060,,,black_plus_sign,,,,,null,,,,,,,,,,,,,,,,,,,,
null,,learn_phase(without_color),1278064,,,black_plus_sign,,,,,null,US_Cities_List/huntsville.png,US_Cities_List/peoria.png,,,,,,,,,,,,,,,,,,
null,,black_cross(without_color),1278864,,,blue,,,,,null,US_Cities_List/huntsville.png,US_Cities_List/peoria.png,,,,,,,,,,,,,,,,,,
null,,rt_plussign_withcolor,1279366,,,blue,,,,,null,US_Cities_List/huntsville.png,US_Cities_List/peoria.png,,,,,,,,,,,,,,,,,,
1399.5999999940395,,rt_thecrossant_black,1280569,,,black_plus_sign,,,,,49,,,0.9910714285714286,1,,,,,,,,,,,,,,,,
null,,color_black,1280672,,,black_plus_sign,,,,,null,,,,,,,,,,,,,,,,,,,,
null,,learn_phase(without_color),1283677,,,black_plus_sign,,,,,null,US_Cities_List/huntsville.png,US_Cities_List/hanover.png,,,,,,,,,,,,,,,,,,
null,,black_cross(without_color),1284093,,,yellow,,,,,null,US_Cities_List/huntsville.png,US_Cities_List/hanover.png,,,,,,,,,,,,,,,,,,
null,,rt_plussign_withcolor,1284595,,,yellow,,,,,null,US_Cities_List/huntsville.png,US_Cities_List/hanover.png,,,,,,,,,,,,,,,,,,
1122.5,,rt_thecrossant_black,1286183,,,black_plus_sign,,,,,50,,,0.9911504424778761,1,,,,,,,,,,,,,,,,
null,,color_black,1286285,,,black_plus_sign,,,,,null,,,,,,,,,,,,,,,,,,,,
null,,learn_phase(without_color),1289289,,,black_plus_sign,,,,,null,US_Cities_List/hanover.png,US_Cities_List/huntsville.png,,,,,,,,,,,,,,,,,,
null,,black_cross(without_color),1290166,,,yellow,,,,,null,US_Cities_List/hanover.png,US_Cities_List/huntsville.png,,,,,,,,,,,,,,,,,,
null,,rt_plussign_withcolor,1290667,,,yellow,,,,,null,US_Cities_List/hanover.png,US_Cities_List/huntsville.png,,,,,,,,,,,,,,,,,,
744.8000000119209,,rt_thecrossant_black,1291793,,,black_plus_sign,,,,,50,,,0.9912280701754386,1,,,,,,,,,,,,,,,,
null,,color_black,1291896,,,black_plus_sign,,,,,null,,,,,,,,,,,,,,,,,,,,
null,,learn_phase(without_color),1294905,,,black_plus_sign,,,,,null,US_Cities_List/cornwall.png,US_Cities_List/hanover.png,,,,,,,,,,,,,,,,,,
null,,black_cross(without_color),1295398,,,yellow,,,,,null,US_Cities_List/cornwall.png,US_Cities_List/hanover.png,,,,,,,,,,,,,,,,,,
null,,rt_plussign_withcolor,1295900,,,yellow,,,,,null,US_Cities_List/cornwall.png,US_Cities_List/hanover.png,,,,,,,,,,,,,,,,,,
1064.7000000178814,,rt_thecrossant_black,1297410,,,black_plus_sign,,,,,50,,,0.991304347826087,1,,,,,,,,,,,,,,,,
null,,color_black,1297513,,,black_plus_sign,,,,,null,,,,,,,,,,,,,,,,,,,,
null,,learn_phase(without_color),1300518,,,black_plus_sign,,,,,null,US_Cities_List/peoria.png,US_Cities_List/racine.png,,,,,,,,,,,,,,,,,,
null,,black_cross(without_color),1301090,,,yellow,,,,,null,US_Cities_List/peoria.png,US_Cities_List/racine.png,,,,,,,,,,,,,,,,,,
null,,rt_plussign_withcolor,1301592,,,yellow,,,,,null,US_Cities_List/peoria.png,US_Cities_List/racine.png,,,,,,,,,,,,,,,,,,
804.3000000119209,,rt_thecrossant_black,1303024,,,black_plus_sign,,,,,50,,,0.9913793103448276,1,,,,,,,,,,,,,,,,
null,,color_black,1303127,,,black_plus_sign,,,,,null,,,,,,,,,,,,,,,,,,,,
null,,learn_phase(without_color),1306132,,,black_plus_sign,,,,,null,US_Cities_List/hanover.png,US_Cities_List/peoria.png,,,,,,,,,,,,,,,,,,
null,,black_cross(without_color),1307122,,,yellow,,,,,null,US_Cities_List/hanover.png,US_Cities_List/peoria.png,,,,,,,,,,,,,,,,,,
null,,rt_plussign_withcolor,1307624,,,yellow,,,,,null,US_Cities_List/hanover.png,US_Cities_List/peoria.png,,,,,,,,,,,,,,,,,,
894.2999999821186,,rt_thecrossant_black,1308636,,,black_plus_sign,,,,,50,,,0.9914529914529915,1,,,,,,,,,,,,,,,,
null,,color_black,1308737,,,black_plus_sign,,,,,null,,,,,,,,,,,,,,,,,,,,
null,,learn_phase(without_color),1311745,,,black_plus_sign,,,,,null,US_Cities_List/newhope.png,US_Cities_List/hotsprings.png,,,,,,,,,,,,,,,,,,
null,,black_cross(without_color),1312676,,,yellow,,,,,null,US_Cities_List/newhope.png,US_Cities_List/hotsprings.png,,,,,,,,,,,,,,,,,,
null,,rt_plussign_withcolor,1313177,,,yellow,,,,,null,US_Cities_List/newhope.png,US_Cities_List/hotsprings.png,,,,,,,,,,,,,,,,,,
1780.800000011921,,rt_thecrossant_black,1314249,,,black_plus_sign,,,,,50,,,0.9915254237288136,1,,,,,,,,,,,,,,,,
null,,color_black,1314352,,,black_plus_sign,,,,,null,,,,,,,,,,,,,,,,,,,,
null,,learn_phase(without_color),1317364,,,black_plus_sign,,,,,null,US_Cities_List/hanover.png,US_Cities_List/boulder.png,,,,,,,,,,,,,,,,,,
null,,black_cross(without_color),1317949,,,yellow,,,,,null,US_Cities_List/hanover.png,US_Cities_List/boulder.png,,,,,,,,,,,,,,,,,,
null,,rt_plussign_withcolor,1318450,,,yellow,,,,,null,US_Cities_List/hanover.png,US_Cities_List/boulder.png,,,,,,,,,,,,,,,,,,
1219.2999999821186,,rt_thecrossant_black,1319881,,,black_plus_sign,,,,,50,,,0.9915966386554622,1,,,,,,,,,,,,,,,,
null,,color_black,1319982,,,black_plus_sign,,,,,null,,,,,,,,,,,,,,,,,,,,
null,,learn_phase(without_color),1322988,,,black_plus_sign,,,,,null,US_Cities_List/hotsprings.png,US_Cities_List/westpalmbeach.png,,,,,,,,,,,,,,,,,,
null,,black_cross(without_color),1323702,,,blue,,,,,null,US_Cities_List/hotsprings.png,US_Cities_List/westpalmbeach.png,,,,,,,,,,,,,,,,,,
null,,rt_plussign_withcolor,1324203,,,blue,,,,,null,US_Cities_List/hotsprings.png,US_Cities_List/westpalmbeach.png,,,,,,,,,,,,,,,,,,
915.1999999880791,,rt_thecrossant_black,1325506,,,black_plus_sign,,,,,49,,,0.9916666666666667,1,,,,,,,,,,,,,,,,
null,,color_black,1325608,,,black_plus_sign,,,,,null,,,,,,,,,,,,,,,,,,,,
null,,learn_phase(without_color),1328615,,,black_plus_sign,,,,,null,US_Cities_List/peoria.png,US_Cities_List/racine.png,,,,,,,,,,,,,,,,,,
null,,black_cross(without_color),1329064,,,blue,,,,,null,US_Cities_List/peoria.png,US_Cities_List/racine.png,,,,,,,,,,,,,,,,,,
null,,rt_plussign_withcolor,1329576,,,blue,,,,,null,US_Cities_List/peoria.png,US_Cities_List/racine.png,,,,,,,,,,,,,,,,,,
822,,rt_thecrossant_black,1331130,,,black_plus_sign,,,,,49,,,0.9917355371900827,1,,,,,,,,,,,,,,,,
null,,color_black,1331232,,,black_plus_sign,,,,,null,,,,,,,,,,,,,,,,,,,,
null,,learn_phase(without_color),1334238,,,black_plus_sign,,,,,null,US_Cities_List/boulder.png,US_Cities_List/gatlinburg.png,,,,,,,,,,,,,,,,,,
null,,black_cross(without_color),1334877,,,blue,,,,,null,US_Cities_List/boulder.png,US_Cities_List/gatlinburg.png,,,,,,,,,,,,,,,,,,
null,,rt_plussign_withcolor,1335378,,,blue,,,,,null,US_Cities_List/boulder.png,US_Cities_List/gatlinburg.png,,,,,,,,,,,,,,,,,,
631.5999999940395,,rt_thecrossant_black,1336743,,,black_plus_sign,,,,,49,,,0.9918032786885246,1,,,,,,,,,,,,,,,,
null,,color_black,1336846,,,black_plus_sign,,,,,null,,,,,,,,,,,,,,,,,,,,
null,,learn_break,1396848,,,learn_break,,,,,null,,,,,,,,,,,,,,,,,,,,
7354,,intro_1,1404203,,,instruct,,,0,,,,,,,,,,,,,,,,,,,,,,
14835,,intro_2,1419040,,,instruct,,,1,Next,,,,,,,,,,,,,,,,,,,,,
4820.100000023842,,directmemory_phase,1423870,,,../static/images/US_Cities_List/huntsville.png,,,,,51,,,1,1,../static/images/US_Cities_List/hotsprings.png,../static/images/US_Cities_List/leesburg.png,../static/images/US_Cities_List/cornwall.png,../static/images/US_Cities_List/cornwall.png,../static/images/US_Cities_List/leesburg.png,../static/images/US_Cities_List/hotsprings.png,1,,,,,,,,,
null,,html-keyboard-response,1424873,,,<p></p>,,,,,null,,,,,,,,,,,,,,,,,,,,
1926.199999988079,,directmemory_phase,1426806,,,../static/images/US_Cities_List/gatlinburg.png,,,,,51,,,1,1,../static/images/US_Cities_List/shreveport.png,../static/images/US_Cities_List/westpalmbeach.png,../static/images/US_Cities_List/hotsprings.png,../static/images/US_Cities_List/hotsprings.png,../static/images/US_Cities_List/westpalmbeach.png,../static/images/US_Cities_List/shreveport.png,1,,,,,,,,,
null,,html-keyboard-response,1427811,,,<p></p>,,,,,null,,,,,,,,,,,,,,,,,,,,
5031,,directmemory_phase,1432853,,,../static/images/US_Cities_List/hanover.png,,,,,49,,,0.6666666666666666,0,../static/images/US_Cities_List/newhope.png,../static/images/US_Cities_List/shreveport.png,../static/images/US_Cities_List/cornwall.png,../static/images/US_Cities_List/cornwall.png,../static/images/US_Cities_List/shreveport.png,../static/images/US_Cities_List/newhope.png,0.5,closer,,,,,,,,
null,,html-keyboard-response,1433855,,,<p></p>,,,,,null,,,,,,,,,,,,,,,,,,,,
2276.199999988079,,directmemory_phase,1436142,,,../static/images/US_Cities_List/racine.png,,,,,49,,,0.75,1,../static/images/US_Cities_List/boulder.png,../static/images/US_Cities_List/leesburg.png,../static/images/US_Cities_List/hanover.png,../static/images/US_Cities_List/boulder.png,../static/images/US_Cities_List/hanover.png,../static/images/US_Cities_List/leesburg.png,1,,,,,,,,,
null,,html-keyboard-response,1437143,,,<p></p>,,,,,null,,,,,,,,,,,,,,,,,,,,
5550.5999999940395,,directmemory_phase,1442702,,,../static/images/US_Cities_List/cornwall.png,,,,,51,,,0.8,1,../static/images/US_Cities_List/racine.png,../static/images/US_Cities_List/shreveport.png,../static/images/US_Cities_List/leesburg.png,../static/images/US_Cities_List/leesburg.png,../static/images/US_Cities_List/shreveport.png,../static/images/US_Cities_List/racine.png,1,,,,,,,,,
null,,html-keyboard-response,1443704,,,<p></p>,,,,,null,,,,,,,,,,,,,,,,,,,,
4847,,directmemory_phase,1448558,,,../static/images/US_Cities_List/boulder.png,,,,,51,,,0.8333333333333334,1,../static/images/US_Cities_List/leesburg.png,../static/images/US_Cities_List/peoria.png,../static/images/US_Cities_List/hanover.png,../static/images/US_Cities_List/hanover.png,../static/images/US_Cities_List/peoria.png,../static/images/US_Cities_List/leesburg.png,1,,,,,,,,,
null,,html-keyboard-response,1449561,,,<p></p>,,,,,null,,,,,,,,,,,,,,,,,,,,
3941.7000000178814,,directmemory_phase,1453510,,,../static/images/US_Cities_List/leesburg.png,,,,,51,,,0.8571428571428571,1,../static/images/US_Cities_List/racine.png,../static/images/US_Cities_List/hanover.png,../static/images/US_Cities_List/cornwall.png,../static/images/US_Cities_List/cornwall.png,../static/images/US_Cities_List/hanover.png,../static/images/US_Cities_List/racine.png,1,,,,,,,,,
null,,html-keyboard-response,1454513,,,<p></p>,,,,,null,,,,,,,,,,,,,,,,,,,,
4911.699999988079,,directmemory_phase,1459435,,,../static/images/US_Cities_List/hanover.png,,,,,49,,,0.75,0,../static/images/US_Cities_List/hotsprings.png,../static/images/US_Cities_List/gatlinburg.png,../static/images/US_Cities_List/peoria.png,../static/images/US_Cities_List/peoria.png,../static/images/US_Cities_List/gatlinburg.png,../static/images/US_Cities_List/hotsprings.png,0.5,closer,,,,,,,,
null,,html-keyboard-response,1460438,,,<p></p>,,,,,null,,,,,,,,,,,,,,,,,,,,
6397.800000011921,,directmemory_phase,1466842,,,../static/images/US_Cities_List/gatlinburg.png,,,,,50,,,0.7777777777777778,1,../static/images/US_Cities_List/westpalmbeach.png,../static/images/US_Cities_List/boulder.png,../static/images/US_Cities_List/peoria.png,../static/images/US_Cities_List/boulder.png,../static/images/US_Cities_List/westpalmbeach.png,../static/images/US_Cities_List/peoria.png,1,,,,,,,,,
null,,html-keyboard-response,1467845,,,<p></p>,,,,,null,,,,,,,,,,,,,,,,,,,,
6189.300000011921,,directmemory_phase,1474044,,,../static/images/US_Cities_List/hanover.png,,,,,49,,,0.8,1,../static/images/US_Cities_List/huntsville.png,../static/images/US_Cities_List/carmel.png,../static/images/US_Cities_List/racine.png,../static/images/US_Cities_List/huntsville.png,../static/images/US_Cities_List/racine.png,../static/images/US_Cities_List/carmel.png,1,,,,,,,,,
null,,html-keyboard-response,1475046,,,<p></p>,,,,,null,,,,,,,,,,,,,,,,,,,,
4962.4000000059605,,directmemory_phase,1480020,,,../static/images/US_Cities_List/westpalmbeach.png,,,,,50,,,0.8181818181818182,1,../static/images/US_Cities_List/boulder.png,../static/images/US_Cities_List/hotsprings.png,../static/images/US_Cities_List/cornwall.png,../static/images/US_Cities_List/hotsprings.png,../static/images/US_Cities_List/boulder.png,../static/images/US_Cities_List/cornwall.png,1,,,,,,,,,
null,,html-keyboard-response,1481022,,,<p></p>,,,,,null,,,,,,,,,,,,,,,,,,,,
5940.4000000059605,,directmemory_phase,1486970,,,../static/images/US_Cities_List/shreveport.png,,,,,50,,,0.75,0,../static/images/US_Cities_List/westpalmbeach.png,../static/images/US_Cities_List/cornwall.png,../static/images/US_Cities_List/huntsville.png,../static/images/US_Cities_List/huntsville.png,../static/images/US_Cities_List/cornwall.png,../static/images/US_Cities_List/westpalmbeach.png,0.5,closer,,,,,,,,
null,,html-keyboard-response,1487973,,,<p></p>,,,,,null,,,,,,,,,,,,,,,,,,,,
6361.699999988079,,directmemory_phase,1494341,,,../static/images/US_Cities_List/peoria.png,,,,,49,,,0.7692307692307693,1,../static/images/US_Cities_List/racine.png,../static/images/US_Cities_List/hotsprings.png,../static/images/US_Cities_List/westpalmbeach.png,../static/images/US_Cities_List/racine.png,../static/images/US_Cities_List/westpalmbeach.png,../static/images/US_Cities_List/hotsprings.png,1,,,,,,,,,
null,,html-keyboard-response,1495344,,,<p></p>,,,,,null,,,,,,,,,,,,,,,,,,,,
5697.800000011921,,directmemory_phase,1501049,,,../static/images/US_Cities_List/huntsville.png,,,,,51,,,0.7857142857142857,1,../static/images/US_Cities_List/hotsprings.png,../static/images/US_Cities_List/leesburg.png,../static/images/US_Cities_List/hanover.png,../static/images/US_Cities_List/hanover.png,../static/images/US_Cities_List/leesburg.png,../static/images/US_Cities_List/hotsprings.png,1,,,,,,,,,
null,,html-keyboard-response,1502051,,,<p></p>,,,,,null,,,,,,,,,,,,,,,,,,,,
null,,directmemory_phase,1508558,,,../static/images/US_Cities_List/westpalmbeach.png,,,,,null,,,0.7333333333333333,0,../static/images/US_Cities_List/huntsville.png,../static/images/US_Cities_List/boulder.png,../static/images/US_Cities_List/racine.png,../static/images/US_Cities_List/racine.png,../static/images/US_Cities_List/boulder.png,../static/images/US_Cities_List/huntsville.png,0,,,,,,,,,
null,,warning_page,1511561,,,warning,,,,,null,,,,,,,,,,,,,,,,,,,,
null,,html-keyboard-response,1512563,,,<p></p>,,,,,null,,,,,,,,,,,,,,,,,,,,
2949.4000000059605,,directmemory_phase,1515521,,,../static/images/US_Cities_List/cornwall.png,,,,,51,,,0.75,1,../static/images/US_Cities_List/gatlinburg.png,../static/images/US_Cities_List/peoria.png,../static/images/US_Cities_List/hanover.png,../static/images/US_Cities_List/hanover.png,../static/images/US_Cities_List/peoria.png,../static/images/US_Cities_List/gatlinburg.png,1,,,,,,,,,
null,,html-keyboard-response,1516531,,,<p></p>,,,,,null,,,,,,,,,,,,,,,,,,,,
4144.5,,directmemory_phase,1520686,,,../static/images/US_Cities_List/racine.png,,,,,49,,,0.7647058823529411,1,../static/images/US_Cities_List/peoria.png,../static/images/US_Cities_List/newhope.png,../static/images/US_Cities_List/carmel.png,../static/images/US_Cities_List/peoria.png,../static/images/US_Cities_List/carmel.png,../static/images/US_Cities_List/newhope.png,1,,,,,,,,,
null,,html-keyboard-response,1521688,,,<p></p>,,,,,null,,,,,,,,,,,,,,,,,,,,
3682.4000000059605,,directmemory_phase,1525378,,,../static/images/US_Cities_List/hanover.png,,,,,51,,,0.7777777777777778,1,../static/images/US_Cities_List/carmel.png,../static/images/US_Cities_List/leesburg.png,../static/images/US_Cities_List/boulder.png,../static/images/US_Cities_List/boulder.png,../static/images/US_Cities_List/leesburg.png,../static/images/US_Cities_List/carmel.png,1,,,,,,,,,
null,,html-keyboard-response,1526380,,,<p></p>,,,,,null,,,,,,,,,,,,,,,,,,,,
3836,,directmemory_phase,1530223,,,../static/images/US_Cities_List/racine.png,,,,,51,,,0.7368421052631579,0,../static/images/US_Cities_List/gatlinburg.png,../static/images/US_Cities_List/westpalmbeach.png,../static/images/US_Cities_List/cornwall.png,../static/images/US_Cities_List/westpalmbeach.png,../static/images/US_Cities_List/gatlinburg.png,../static/images/US_Cities_List/cornwall.png,0.5,closer,,,,,,,,
null,,html-keyboard-response,1531226,,,<p></p>,,,,,null,,,,,,,,,,,,,,,,,,,,
4034,,directmemory_phase,1535274,,,../static/images/US_Cities_List/peoria.png,,,,,51,,,0.75,1,../static/images/US_Cities_List/newhope.png,../static/images/US_Cities_List/cornwall.png,../static/images/US_Cities_List/hanover.png,../static/images/US_Cities_List/hanover.png,../static/images/US_Cities_List/cornwall.png,../static/images/US_Cities_List/newhope.png,1,,,,,,,,,
null,,html-keyboard-response,1536276,,,<p></p>,,,,,null,,,,,,,,,,,,,,,,,,,,
4115.5,,directmemory_phase,1540396,,,../static/images/US_Cities_List/boulder.png,,,,,49,,,0.7142857142857143,0,../static/images/US_Cities_List/leesburg.png,../static/images/US_Cities_List/huntsville.png,../static/images/US_Cities_List/racine.png,../static/images/US_Cities_List/racine.png,../static/images/US_Cities_List/huntsville.png,../static/images/US_Cities_List/leesburg.png,0.5,closer,,,,,,,,
null,,html-keyboard-response,1541399,,,<p></p>,,,,,null,,,,,,,,,,,,,,,,,,,,
2739.2999999821186,,directmemory_phase,1544146,,,../static/images/US_Cities_List/cornwall.png,,,,,50,,,0.6818181818181818,0,../static/images/US_Cities_List/hotsprings.png,../static/images/US_Cities_List/shreveport.png,../static/images/US_Cities_List/huntsville.png,../static/images/US_Cities_List/huntsville.png,../static/images/US_Cities_List/shreveport.png,../static/images/US_Cities_List/hotsprings.png,0.5,closer,,,,,,,,
null,,html-keyboard-response,1545148,,,<p></p>,,,,,null,,,,,,,,,,,,,,,,,,,,
3336.800000011921,,directmemory_phase,1548492,,,../static/images/US_Cities_List/newhope.png,,,,,50,,,0.6956521739130435,1,../static/images/US_Cities_List/gatlinburg.png,../static/images/US_Cities_List/hotsprings.png,../static/images/US_Cities_List/boulder.png,../static/images/US_Cities_List/hotsprings.png,../static/images/US_Cities_List/gatlinburg.png,../static/images/US_Cities_List/boulder.png,1,,,,,,,,,
null,,html-keyboard-response,1549495,,,<p></p>,,,,,null,,,,,,,,,,,,,,,,,,,,
2668.5999999940395,,directmemory_phase,1552169,,,../static/images/US_Cities_List/carmel.png,,,,,51,,,0.7083333333333334,1,../static/images/US_Cities_List/gatlinburg.png,../static/images/US_Cities_List/hotsprings.png,../static/images/US_Cities_List/westpalmbeach.png,../static/images/US_Cities_List/westpalmbeach.png,../static/images/US_Cities_List/hotsprings.png,../static/images/US_Cities_List/gatlinburg.png,1,,,,,,,,,
null,,html-keyboard-response,1553172,,,<p></p>,,,,,null,,,,,,,,,,,,,,,,,,,,
null,,directmemory_phase,1559683,,,../static/images/US_Cities_List/hotsprings.png,,,,,null,,,0.68,0,../static/images/US_Cities_List/newhope.png,../static/images/US_Cities_List/hanover.png,../static/images/US_Cities_List/boulder.png,../static/images/US_Cities_List/newhope.png,../static/images/US_Cities_List/boulder.png,../static/images/US_Cities_List/hanover.png,0,,,,,,,,,
null,,warning_page,1562685,,,warning,,,,,null,,,,,,,,,,,,,,,,,,,,
null,,html-keyboard-response,1563699,,,<p></p>,,,,,null,,,,,,,,,,,,,,,,,,,,
1752.2999999821186,,directmemory_phase,1565457,,,../static/images/US_Cities_List/westpalmbeach.png,,,,,49,,,0.6923076923076923,1,../static/images/US_Cities_List/carmel.png,../static/images/US_Cities_List/hanover.png,../static/images/US_Cities_List/gatlinburg.png,../static/images/US_Cities_List/carmel.png,../static/images/US_Cities_List/gatlinburg.png,../static/images/US_Cities_List/hanover.png,1,,,,,,,,,
null,,html-keyboard-response,1566459,,,<p></p>,,,,,null,,,,,,,,,,,,,,,,,,,,
1865.7999999821186,,directmemory_phase,1568333,,,../static/images/US_Cities_List/hotsprings.png,,,,,49,,,0.7037037037037037,1,../static/images/US_Cities_List/gatlinburg.png,../static/images/US_Cities_List/peoria.png,../static/images/US_Cities_List/boulder.png,../static/images/US_Cities_List/gatlinburg.png,../static/images/US_Cities_List/boulder.png,../static/images/US_Cities_List/peoria.png,1,,,,,,,,,
null,,html-keyboard-response,1569336,,,<p></p>,,,,,null,,,,,,,,,,,,,,,,,,,,
1717.9000000059605,,directmemory_phase,1571062,,,../static/images/US_Cities_List/peoria.png,,,,,51,,,0.7142857142857143,1,../static/images/US_Cities_List/carmel.png,../static/images/US_Cities_List/shreveport.png,../static/images/US_Cities_List/huntsville.png,../static/images/US_Cities_List/huntsville.png,../static/images/US_Cities_List/shreveport.png,../static/images/US_Cities_List/carmel.png,1,,,,,,,,,
null,,html-keyboard-response,1572065,,,<p></p>,,,,,null,,,,,,,,,,,,,,,,,,,,
2579.0999999940395,,directmemory_phase,1574652,,,../static/images/US_Cities_List/hotsprings.png,,,,,51,,,0.7241379310344828,1,../static/images/US_Cities_List/huntsville.png,../static/images/US_Cities_List/racine.png,../static/images/US_Cities_List/westpalmbeach.png,../static/images/US_Cities_List/westpalmbeach.png,../static/images/US_Cities_List/racine.png,../static/images/US_Cities_List/huntsville.png,1,,,,,,,,,
null,,html-keyboard-response,1575661,,,<p></p>,,,,,null,,,,,,,,,,,,,,,,,,,,
2647.199999988079,,directmemory_phase,1578313,,,../static/images/US_Cities_List/huntsville.png,,,,,51,,,0.7333333333333333,1,../static/images/US_Cities_List/westpalmbeach.png,../static/images/US_Cities_List/boulder.png,../static/images/US_Cities_List/peoria.png,../static/images/US_Cities_List/peoria.png,../static/images/US_Cities_List/boulder.png,../static/images/US_Cities_List/westpalmbeach.png,1,,,,,,,,,
null,,html-keyboard-response,1579317,,,<p></p>,,,,,null,,,,,,,,,,,,,,,,,,,,
2884,,directmemory_phase,1582208,,,../static/images/US_Cities_List/boulder.png,,,,,49,,,0.7419354838709677,1,../static/images/US_Cities_List/gatlinburg.png,../static/images/US_Cities_List/carmel.png,../static/images/US_Cities_List/hotsprings.png,../static/images/US_Cities_List/gatlinburg.png,../static/images/US_Cities_List/hotsprings.png,../static/images/US_Cities_List/carmel.png,1,,,,,,,,,
null,,html-keyboard-response,1583225,,,<p></p>,,,,,null,,,,,,,,,,,,,,,,,,,,
3730.399999976158,,directmemory_phase,1586963,,,../static/images/US_Cities_List/huntsville.png,,,,,49,,,0.75,1,../static/images/US_Cities_List/shreveport.png,../static/images/US_Cities_List/westpalmbeach.png,../static/images/US_Cities_List/racine.png,../static/images/US_Cities_List/shreveport.png,../static/images/US_Cities_List/racine.png,../static/images/US_Cities_List/westpalmbeach.png,1,,,,,,,,,
null,,html-keyboard-response,1587965,,,<p></p>,,,,,null,,,,,,,,,,,,,,,,,,,,
8839.09999999404,,intro_1,1596805,,,instruct,,,0,,,,,,,,,,,,,,,,,,,,,,
6235.0999999940395,,intro_2,1603041,,,instruct,,,1,Next,,,,,,,,,,,,,,,,,,,,,
7368.199999988079,,intro_3,1610411,,,instruct,,,1,Next,,,,,,,,,,,,,,,,,,,,,
7273.4000000059605,,intro_4,1617686,,,instruct,,,1,Next,,,,,,,,,,,,,,,,,,,,,
5389.799999982119,,intro_5,1623076,,,instruct,,,1,Next,,,,,,,,,,,,,,,,,,,,,
3719.100000023842,,intro_6,1626796,,,instruct,,,1,Next,,,,,,,,,,,,,,,,,,,,,
4481.399999976158,,intro_7,1631279,,,instruct,,,1,Next,,,,,,,,,,,,,,,,,,,,,
6851.299999982119,,intro_8,1638131,,,instruct,,,1,Next,,,,,,,,,,,,,,,,,,,,,
6158.5,,intro_9,1644291,,,instruct,,,1,Next,,,,,,,,,,,,,,,,,,,,,
4467.5,,intro_10,1648760,,,instruct,,,1,Next,,,,,,,,,,,,,,,,,,,,,
14310.699999988079,,intro_11,1663071,,,instruct,,,1,Next,,,,,,,,,,,,,,,,,,,,,
1237.2000000178814,,shortestpath_phase,1664314,,,../static/images/US_Cities_List/leesburg.png,,,,,49,../static/images/US_Cities_List/hanover.png,../static/images/US_Cities_List/boulder.png,1,1,,,,../static/images/US_Cities_List/hanover.png,,,,,One Edge Diff,Two Edge Three Edge,,,,,,
null,,html-keyboard-response,1665316,,,<p></p>,,,,,null,,,,,,,,,,,,,,,,,,,,
3094.2000000178814,,shortestpath_phase,1668415,,,../static/images/US_Cities_List/carmel.png,,,,,50,../static/images/US_Cities_List/huntsville.png,../static/images/US_Cities_List/racine.png,1,1,,,,../static/images/US_Cities_List/racine.png,,,,,Two Edge Diff,Two Edge Four Edge,,,,,,
null,,html-keyboard-response,1669418,,,<p></p>,,,,,null,,,,,,,,,,,,,,,,,,,,
1480.300000011921,,shortestpath_phase,1670904,,,../static/images/US_Cities_List/shreveport.png,,,,,50,../static/images/US_Cities_List/carmel.png,../static/images/US_Cities_List/gatlinburg.png,1,1,,,,../static/images/US_Cities_List/gatlinburg.png,,,,,One Edge Diff,Four Edge Five Edge,,,,,,
null,,html-keyboard-response,1671907,,,<p></p>,,,,,null,,,,,,,,,,,,,,,,,,,,
1833.5,,shortestpath_phase,1673748,,,../static/images/US_Cities_List/carmel.png,,,,,50,../static/images/US_Cities_List/cornwall.png,../static/images/US_Cities_List/racine.png,1,1,,,,../static/images/US_Cities_List/racine.png,,,,,Three Edge Diff,Three Edge Six Edge,,,,,,
null,,html-keyboard-response,1674750,,,<p></p>,,,,,null,,,,,,,,,,,,,,,,,,,,
2935.7000000178814,,shortestpath_phase,1677691,,,../static/images/US_Cities_List/newhope.png,,,,,50,../static/images/US_Cities_List/peoria.png,../static/images/US_Cities_List/westpalmbeach.png,1,1,,,,../static/images/US_Cities_List/westpalmbeach.png,,,,,Two Edge Diff,Two Edge Four Edge,,,,,,
null,,html-keyboard-response,1678693,,,<p></p>,,,,,null,,,,,,,,,,,,,,,,,,,,
1602.7000000178814,,shortestpath_phase,1680301,,,../static/images/US_Cities_List/carmel.png,,,,,49,../static/images/US_Cities_List/gatlinburg.png,../static/images/US_Cities_List/huntsville.png,1,1,,,,../static/images/US_Cities_List/gatlinburg.png,,,,,One Edge Diff,Three Edge Four Edge,,,,,,
null,,html-keyboard-response,1681304,,,<p></p>,,,,,null,,,,,,,,,,,,,,,,,,,,
1665.2999999821186,,shortestpath_phase,1682979,,,../static/images/US_Cities_List/racine.png,,,,,49,../static/images/US_Cities_List/cornwall.png,../static/images/US_Cities_List/hotsprings.png,0.8571428571428571,0,,,,../static/images/US_Cities_List/hotsprings.png,,,,,One Edge Diff,Two Edge Three Edge,,,,,,
null,,html-keyboard-response,1683981,,,<p></p>,,,,,null,,,,,,,,,,,,,,,,,,,,
1362.7000000178814,,shortestpath_phase,1685352,,,../static/images/US_Cities_List/shreveport.png,,,,,50,../static/images/US_Cities_List/cornwall.png,../static/images/US_Cities_List/hotsprings.png,0.75,0,,,,../static/images/US_Cities_List/cornwall.png,,,,,Three Edge Diff,Two Edge Five Edge,,,,,,
null,,html-keyboard-response,1686354,,,<p></p>,,,,,null,,,,,,,,,,,,,,,,,,,,
