rt,responses,trial_type,time_elapsed,stimulus,button_pressed,key_press,name_trial,city_type,rating,probe,probe_accuracy,response,correct,accuracy,problems,smooth,distraction,strategies,familiar,memorable,unique,realistic,similar,comments
3753.2999999970198,{worker_id:5bc9f8b677740000016a08b5},id_enter,3775,,,,,,,,,,,,,,,,,,,,,
22484.79999999702,,fullscreen,26265,fullscreen,0,,,,,,,,,,,,,,,,,,,
6155,,intro_0,32422,instruct,,32,,,,,,,,,,,,,,,,,,
2579.4000000059605,,intro_1,35002,instruct,,32,,,,,,,,,,,,,,,,,,
1643,,intro_2,36646,instruct,,32,,,,,,,,,,,,,,,,,,
null,,instruct_dir_4,38147,instruct,,null,,,,,,,,,,,,,,,,,,
null,,thebreak,38649,break,,null,,,,,,,,,,,,,,,,,,
8804,,familiar_rating,47454,West Palm Beach,,53,West Palm Beach,US,5,,,,,,,,,,,,,,,
null,,confidence_buffer,47555,confidence_buffer,,null,,,,,,,,,,,,,,,,,,
5928.20000000298,,unique_rating,53484,West Palm Beach,,49,,,1,,,,,,,,,,,,,,,
null,,confidence_buffer,53585,confidence_buffer,,null,,,,,,,,,,,,,,,,,,
3419.2000000029802,,memorable_rating,57005,West Palm Beach,,52,,,4,,,,,,,,,,,,,,,
null,,confidence_buffer,57106,confidence_buffer,,null,,,,,,,,,,,,,,,,,,
null,,thebreak,57608,break,,null,,,,,,,,,,,,,,,,,,
2610.5999999940395,,familiar_rating,60219,Juniper Creek,,53,Juniper Creek,Fictional,5,,,,,,,,,,,,,,,
null,,confidence_buffer,60321,confidence_buffer,,null,,,,,,,,,,,,,,,,,,
4832.9000000059605,,unique_rating,65154,Juniper Creek,,52,,,4,,,,,,,,,,,,,,,
null,,confidence_buffer,65255,confidence_buffer,,null,,,,,,,,,,,,,,,,,,
3095,,memorable_rating,68351,Juniper Creek,,53,,,5,,,,,,,,,,,,,,,
null,,confidence_buffer,68452,confidence_buffer,,null,,,,,,,,,,,,,,,,,,
null,,thebreak,68953,break,,null,,,,,,,,,,,,,,,,,,
1982.7000000029802,,familiar_rating,70936,Custer,,50,Custer,US,2,,,,,,,,,,,,,,,
null,,confidence_buffer,71037,confidence_buffer,,null,,,,,,,,,,,,,,,,,,
2155.6000000089407,,unique_rating,73193,Custer,,50,,,2,,,,,,,,,,,,,,,
null,,confidence_buffer,73294,confidence_buffer,,null,,,,,,,,,,,,,,,,,,
1828.5999999940395,,memorable_rating,75123,Custer,,50,,,2,,,,,,,,,,,,,,,
null,,confidence_buffer,75225,confidence_buffer,,null,,,,,,,,,,,,,,,,,,
null,,thebreak,75726,break,,null,,,,,,,,,,,,,,,,,,
1249.6000000089407,,familiar_rating,76977,Gatlinburg,,52,Gatlinburg,US,4,,,,,,,,,,,,,,,
null,,confidence_buffer,77078,confidence_buffer,,null,,,,,,,,,,,,,,,,,,
2851.5,,unique_rating,79930,Gatlinburg,,53,,,5,,,,,,,,,,,,,,,
null,,confidence_buffer,80032,confidence_buffer,,null,,,,,,,,,,,,,,,,,,
1372.5999999940395,,probe_rating,81406,probe_rating,,52,,,,4,1,,,,,,,,,,,,,
null,,confidence_buffer,81507,confidence_buffer,,null,,,,,,,,,,,,,,,,,,
2408.6000000089407,,memorable_rating,83916,Gatlinburg,,53,,,5,,,,,,,,,,,,,,,
null,,confidence_buffer,84017,confidence_buffer,,null,,,,,,,,,,,,,,,,,,
null,,thebreak,84519,break,,null,,,,,,,,,,,,,,,,,,
2040.2999999970198,,familiar_rating,86559,Hollendale,,49,Hollendale,Fictional,1,,,,,,,,,,,,,,,
null,,confidence_buffer,86661,confidence_buffer,,null,,,,,,,,,,,,,,,,,,
2214.2000000029802,,unique_rating,88876,Hollendale,,53,,,5,,,,,,,,,,,,,,,
null,,confidence_buffer,88977,confidence_buffer,,null,,,,,,,,,,,,,,,,,,
2245.199999988079,,memorable_rating,91223,Hollendale,,50,,,2,,,,,,,,,,,,,,,
null,,confidence_buffer,91324,confidence_buffer,,null,,,,,,,,,,,,,,,,,,
null,,thebreak,91825,break,,null,,,,,,,,,,,,,,,,,,
1434.4000000059605,,familiar_rating,93260,Sisters,,49,Sisters,US,1,,,,,,,,,,,,,,,
null,,confidence_buffer,93362,confidence_buffer,,null,,,,,,,,,,,,,,,,,,
2621.9000000059605,,unique_rating,95984,Sisters,,52,,,4,,,,,,,,,,,,,,,
null,,confidence_buffer,96086,confidence_buffer,,null,,,,,,,,,,,,,,,,,,
1322.1000000089407,,memorable_rating,97408,Sisters,,53,,,5,,,,,,,,,,,,,,,
null,,confidence_buffer,97510,confidence_buffer,,null,,,,,,,,,,,,,,,,,,
null,,thebreak,98011,break,,null,,,,,,,,,,,,,,,,,,
1248.7000000029802,,familiar_rating,99260,Elmsbury,,49,Elmsbury,Fictional,1,,,,,,,,,,,,,,,
null,,confidence_buffer,99361,confidence_buffer,,null,,,,,,,,,,,,,,,,,,
2515.2000000029802,,unique_rating,101877,Elmsbury,,49,,,1,,,,,,,,,,,,,,,
null,,confidence_buffer,101978,confidence_buffer,,null,,,,,,,,,,,,,,,,,,
1545,,memorable_rating,103523,Elmsbury,,50,,,2,,,,,,,,,,,,,,,
null,,confidence_buffer,103624,confidence_buffer,,null,,,,,,,,,,,,,,,,,,
null,,thebreak,104125,break,,null,,,,,,,,,,,,,,,,,,
1876.2999999970198,,familiar_rating,106002,Hawthorne Bluffs,,49,Hawthorne Bluffs,Fictional,1,,,,,,,,,,,,,,,
null,,confidence_buffer,106104,confidence_buffer,,null,,,,,,,,,,,,,,,,,,
1188.2000000029802,,unique_rating,107293,Hawthorne Bluffs,,53,,,5,,,,,,,,,,,,,,,
null,,confidence_buffer,107394,confidence_buffer,,null,,,,,,,,,,,,,,,,,,
1170.7999999970198,,probe_rating,108565,probe_rating,,50,,,,2,1,,,,,,,,,,,,,
null,,confidence_buffer,108667,confidence_buffer,,null,,,,,,,,,,,,,,,,,,
4341.79999999702,,memorable_rating,113009,Hawthorne Bluffs,,52,,,4,,,,,,,,,,,,,,,
null,,confidence_buffer,113111,confidence_buffer,,null,,,,,,,,,,,,,,,,,,
null,,thebreak,113612,break,,null,,,,,,,,,,,,,,,,,,
6076,,familiar_rating,119689,Peoria,,53,Peoria,US,5,,,,,,,,,,,,,,,
null,,confidence_buffer,119790,confidence_buffer,,null,,,,,,,,,,,,,,,,,,
2288.7999999970198,,unique_rating,122079,Peoria,,52,,,4,,,,,,,,,,,,,,,
null,,confidence_buffer,122181,confidence_buffer,,null,,,,,,,,,,,,,,,,,,
1734.7000000029802,,memorable_rating,123916,Peoria,,51,,,3,,,,,,,,,,,,,,,
null,,confidence_buffer,124018,confidence_buffer,,null,,,,,,,,,,,,,,,,,,
1098.7999999970198,,probe_rating,125118,probe_rating,,50,,,,2,1,,,,,,,,,,,,,
null,,confidence_buffer,125219,confidence_buffer,,null,,,,,,,,,,,,,,,,,,
null,,thebreak,125721,break,,null,,,,,,,,,,,,,,,,,,
1357.9000000059605,,familiar_rating,127079,Okoboji,,49,Okoboji,US,1,,,,,,,,,,,,,,,
null,,confidence_buffer,127181,confidence_buffer,,null,,,,,,,,,,,,,,,,,,
1901.300000011921,,unique_rating,129082,Okoboji,,53,,,5,,,,,,,,,,,,,,,
null,,confidence_buffer,129183,confidence_buffer,,null,,,,,,,,,,,,,,,,,,
2872.5,,memorable_rating,132056,Okoboji,,51,,,3,,,,,,,,,,,,,,,
null,,confidence_buffer,132157,confidence_buffer,,null,,,,,,,,,,,,,,,,,,
null,,thebreak,132659,break,,null,,,,,,,,,,,,,,,,,,
2588.8999999910593,,familiar_rating,135249,Bowling Green,,51,Bowling Green,US,3,,,,,,,,,,,,,,,
null,,confidence_buffer,135350,confidence_buffer,,null,,,,,,,,,,,,,,,,,,
1746.2999999970198,,unique_rating,137097,Bowling Green,,52,,,4,,,,,,,,,,,,,,,
null,,confidence_buffer,137198,confidence_buffer,,null,,,,,,,,,,,,,,,,,,
2507.9000000059605,,memorable_rating,139707,Bowling Green,,52,,,4,,,,,,,,,,,,,,,
null,,confidence_buffer,139808,confidence_buffer,,null,,,,,,,,,,,,,,,,,,
null,,thebreak,140309,break,,null,,,,,,,,,,,,,,,,,,
1164.7000000029802,,familiar_rating,141474,Gardnerville,,49,Gardnerville,US,1,,,,,,,,,,,,,,,
null,,confidence_buffer,141575,confidence_buffer,,null,,,,,,,,,,,,,,,,,,
1483,,unique_rating,143058,Gardnerville,,50,,,2,,,,,,,,,,,,,,,
null,,confidence_buffer,143159,confidence_buffer,,null,,,,,,,,,,,,,,,,,,
2175.5999999940395,,memorable_rating,145335,Gardnerville,,50,,,2,,,,,,,,,,,,,,,
null,,confidence_buffer,145436,confidence_buffer,,null,,,,,,,,,,,,,,,,,,
null,,thebreak,145937,break,,null,,,,,,,,,,,,,,,,,,
1548,,familiar_rating,147486,Shreveport,,53,Shreveport,US,5,,,,,,,,,,,,,,,
null,,confidence_buffer,147588,confidence_buffer,,null,,,,,,,,,,,,,,,,,,
1558.199999988079,,unique_rating,149146,Shreveport,,53,,,5,,,,,,,,,,,,,,,
null,,confidence_buffer,149248,confidence_buffer,,null,,,,,,,,,,,,,,,,,,
1529.800000011921,,memorable_rating,150778,Shreveport,,52,,,4,,,,,,,,,,,,,,,
null,,confidence_buffer,150879,confidence_buffer,,null,,,,,,,,,,,,,,,,,,
null,,thebreak,151380,break,,null,,,,,,,,,,,,,,,,,,
1464.5999999940395,,familiar_rating,152845,Ashford Hills,,49,Ashford Hills,Fictional,1,,,,,,,,,,,,,,,
null,,confidence_buffer,152947,confidence_buffer,,null,,,,,,,,,,,,,,,,,,
1404.7000000029802,,unique_rating,154353,Ashford Hills,,49,,,1,,,,,,,,,,,,,,,
null,,confidence_buffer,154454,confidence_buffer,,null,,,,,,,,,,,,,,,,,,
2589.2999999970198,,memorable_rating,157044,Ashford Hills,,51,,,3,,,,,,,,,,,,,,,
null,,confidence_buffer,157145,confidence_buffer,,null,,,,,,,,,,,,,,,,,,
null,,thebreak,157646,break,,null,,,,,,,,,,,,,,,,,,
1081.300000011921,,familiar_rating,158728,Delaro Park,,49,Delaro Park,Fictional,1,,,,,,,,,,,,,,,
null,,confidence_buffer,158830,confidence_buffer,,null,,,,,,,,,,,,,,,,,,
2157.699999988079,,unique_rating,160988,Delaro Park,,52,,,4,,,,,,,,,,,,,,,
null,,confidence_buffer,161090,confidence_buffer,,null,,,,,,,,,,,,,,,,,,
1565.2999999970198,,memorable_rating,162656,Delaro Park,,49,,,1,,,,,,,,,,,,,,,
null,,confidence_buffer,162757,confidence_buffer,,null,,,,,,,,,,,,,,,,,,
null,,thebreak,163259,break,,null,,,,,,,,,,,,,,,,,,
1106.7999999970198,,familiar_rating,164366,Granton Ridge,,49,Granton Ridge,Fictional,1,,,,,,,,,,,,,,,
null,,confidence_buffer,164467,confidence_buffer,,null,,,,,,,,,,,,,,,,,,
1692.199999988079,,unique_rating,166160,Granton Ridge,,50,,,2,,,,,,,,,,,,,,,
null,,confidence_buffer,166262,confidence_buffer,,null,,,,,,,,,,,,,,,,,,
3159.9000000059605,,memorable_rating,169422,Granton Ridge,,50,,,2,,,,,,,,,,,,,,,
null,,confidence_buffer,169523,confidence_buffer,,null,,,,,,,,,,,,,,,,,,
null,,thebreak,170024,break,,null,,,,,,,,,,,,,,,,,,
1135.2999999970198,,familiar_rating,171160,East Ladera,,49,East Ladera,Fictional,1,,,,,,,,,,,,,,,
null,,confidence_buffer,171261,confidence_buffer,,null,,,,,,,,,,,,,,,,,,
977.2999999970198,,unique_rating,172239,East Ladera,,51,,,3,,,,,,,,,,,,,,,
null,,confidence_buffer,172340,confidence_buffer,,null,,,,,,,,,,,,,,,,,,
183.6000000089407,,memorable_rating,172524,East Ladera,,51,,,3,,,,,,,,,,,,,,,
null,,confidence_buffer,172628,confidence_buffer,,null,,,,,,,,,,,,,,,,,,
null,,thebreak,173133,break,,null,,,,,,,,,,,,,,,,,,
1124.4000000059605,,familiar_rating,174258,Coralridge,,49,Coralridge,Fictional,1,,,,,,,,,,,,,,,
null,,confidence_buffer,174360,confidence_buffer,,null,,,,,,,,,,,,,,,,,,
2023.7999999970198,,unique_rating,176384,Coralridge,,52,,,4,,,,,,,,,,,,,,,
null,,confidence_buffer,176485,confidence_buffer,,null,,,,,,,,,,,,,,,,,,
1389.8999999910593,,memorable_rating,177876,Coralridge,,51,,,3,,,,,,,,,,,,,,,
null,,confidence_buffer,177980,confidence_buffer,,null,,,,,,,,,,,,,,,,,,
null,,thebreak,178482,break,,null,,,,,,,,,,,,,,,,,,
1134.199999988079,,familiar_rating,179617,Sunmere,,49,Sunmere,Fictional,1,,,,,,,,,,,,,,,
null,,confidence_buffer,179718,confidence_buffer,,null,,,,,,,,,,,,,,,,,,
1288.5,,unique_rating,181007,Sunmere,,52,,,4,,,,,,,,,,,,,,,
null,,confidence_buffer,181108,confidence_buffer,,null,,,,,,,,,,,,,,,,,,
1045.7000000029802,,memorable_rating,182154,Sunmere,,52,,,4,,,,,,,,,,,,,,,
null,,confidence_buffer,182256,confidence_buffer,,null,,,,,,,,,,,,,,,,,,
null,,thebreak,182757,break,,null,,,,,,,,,,,,,,,,,,
1102.0999999940395,,familiar_rating,183859,Silverpine,,49,Silverpine,Fictional,1,,,,,,,,,,,,,,,
null,,confidence_buffer,183962,confidence_buffer,,null,,,,,,,,,,,,,,,,,,
1980,,unique_rating,185942,Silverpine,,50,,,2,,,,,,,,,,,,,,,
null,,confidence_buffer,186044,confidence_buffer,,null,,,,,,,,,,,,,,,,,,
1466.2000000029802,,memorable_rating,187510,Silverpine,,51,,,3,,,,,,,,,,,,,,,
null,,confidence_buffer,187613,confidence_buffer,,null,,,,,,,,,,,,,,,,,,
null,,thebreak,188114,break,,null,,,,,,,,,,,,,,,,,,
1784.2999999970198,,familiar_rating,189899,Driftwood Bay,,49,Driftwood Bay,Fictional,1,,,,,,,,,,,,,,,
null,,confidence_buffer,190000,confidence_buffer,,null,,,,,,,,,,,,,,,,,,
2426.7999999970198,,unique_rating,192428,Driftwood Bay,,53,,,5,,,,,,,,,,,,,,,
null,,confidence_buffer,192529,confidence_buffer,,null,,,,,,,,,,,,,,,,,,
1378.9000000059605,,memorable_rating,193908,Driftwood Bay,,52,,,4,,,,,,,,,,,,,,,
null,,confidence_buffer,194010,confidence_buffer,,null,,,,,,,,,,,,,,,,,,
null,,thebreak,194511,break,,null,,,,,,,,,,,,,,,,,,
2138.2000000029802,,familiar_rating,196650,Hilo,,53,Hilo,US,5,,,,,,,,,,,,,,,
null,,confidence_buffer,196752,confidence_buffer,,null,,,,,,,,,,,,,,,,,,
2586.3999999910593,,unique_rating,199339,Hilo,,52,,,4,,,,,,,,,,,,,,,
null,,confidence_buffer,199440,confidence_buffer,,null,,,,,,,,,,,,,,,,,,
3168,,memorable_rating,202608,Hilo,,51,,,3,,,,,,,,,,,,,,,
null,,confidence_buffer,202710,confidence_buffer,,null,,,,,,,,,,,,,,,,,,
null,,thebreak,203211,break,,null,,,,,,,,,,,,,,,,,,
981.9000000059605,,familiar_rating,204193,Leesburg,,49,Leesburg,US,1,,,,,,,,,,,,,,,
null,,confidence_buffer,204295,confidence_buffer,,null,,,,,,,,,,,,,,,,,,
1444,,unique_rating,205739,Leesburg,,50,,,2,,,,,,,,,,,,,,,
null,,confidence_buffer,205841,confidence_buffer,,null,,,,,,,,,,,,,,,,,,
1849.5,,memorable_rating,207691,Leesburg,,50,,,2,,,,,,,,,,,,,,,
null,,confidence_buffer,207792,confidence_buffer,,null,,,,,,,,,,,,,,,,,,
null,,thebreak,208293,break,,null,,,,,,,,,,,,,,,,,,
2267.9000000059605,,familiar_rating,210562,Lake of the Ozarks,,53,Lake of the Ozarks,US,5,,,,,,,,,,,,,,,
null,,confidence_buffer,210662,confidence_buffer,,null,,,,,,,,,,,,,,,,,,
1396.7000000029802,,unique_rating,212060,Lake of the Ozarks,,53,,,5,,,,,,,,,,,,,,,
null,,confidence_buffer,212161,confidence_buffer,,null,,,,,,,,,,,,,,,,,,
1264.2999999970198,,memorable_rating,213426,Lake of the Ozarks,,53,,,5,,,,,,,,,,,,,,,
null,,confidence_buffer,213527,confidence_buffer,,null,,,,,,,,,,,,,,,,,,
null,,thebreak,214029,break,,null,,,,,,,,,,,,,,,,,,
911.5999999940395,,familiar_rating,214941,West Talora,,49,West Talora,Fictional,1,,,,,,,,,,,,,,,
null,,confidence_buffer,215042,confidence_buffer,,null,,,,,,,,,,,,,,,,,,
1747.5999999940395,,unique_rating,216791,West Talora,,51,,,3,,,,,,,,,,,,,,,
null,,confidence_buffer,216892,confidence_buffer,,null,,,,,,,,,,,,,,,,,,
1749.1000000089407,,memorable_rating,218642,West Talora,,49,,,1,,,,,,,,,,,,,,,
null,,confidence_buffer,218743,confidence_buffer,,null,,,,,,,,,,,,,,,,,,
1922.3999999910593,,probe_rating,220666,probe_rating,,49,,,,1,1,,,,,,,,,,,,,
null,,confidence_buffer,220767,confidence_buffer,,null,,,,,,,,,,,,,,,,,,
null,,thebreak,221269,break,,null,,,,,,,,,,,,,,,,,,
1300.0999999940395,,familiar_rating,222569,Clearbrook,,49,Clearbrook,Fictional,1,,,,,,,,,,,,,,,
null,,confidence_buffer,222671,confidence_buffer,,null,,,,,,,,,,,,,,,,,,
1924.5999999940395,,unique_rating,224596,Clearbrook,,50,,,2,,,,,,,,,,,,,,,
null,,confidence_buffer,224697,confidence_buffer,,null,,,,,,,,,,,,,,,,,,
1313.5999999940395,,memorable_rating,226011,Clearbrook,,52,,,4,,,,,,,,,,,,,,,
null,,confidence_buffer,226112,confidence_buffer,,null,,,,,,,,,,,,,,,,,,
null,,thebreak,226613,break,,null,,,,,,,,,,,,,,,,,,
1960.7999999970198,,familiar_rating,228575,Cody,,49,Cody,US,1,,,,,,,,,,,,,,,
null,,confidence_buffer,228676,confidence_buffer,,null,,,,,,,,,,,,,,,,,,
2967.8999999910593,,unique_rating,231645,Cody,,49,,,1,,,,,,,,,,,,,,,
null,,confidence_buffer,231745,confidence_buffer,,null,,,,,,,,,,,,,,,,,,
1263.1000000089407,,memorable_rating,233009,Cody,,52,,,4,,,,,,,,,,,,,,,
null,,confidence_buffer,233111,confidence_buffer,,null,,,,,,,,,,,,,,,,,,
null,,thebreak,233613,break,,null,,,,,,,,,,,,,,,,,,
1597.2999999970198,,familiar_rating,235211,Abilene,,53,Abilene,US,5,,,,,,,,,,,,,,,
null,,confidence_buffer,235313,confidence_buffer,,null,,,,,,,,,,,,,,,,,,
1373,,unique_rating,236686,Abilene,,53,,,5,,,,,,,,,,,,,,,
null,,confidence_buffer,236787,confidence_buffer,,null,,,,,,,,,,,,,,,,,,
1034,,probe_rating,237822,probe_rating,,49,,,,1,1,,,,,,,,,,,,,
null,,confidence_buffer,237923,confidence_buffer,,null,,,,,,,,,,,,,,,,,,
1686.1000000089407,,memorable_rating,239610,Abilene,,51,,,3,,,,,,,,,,,,,,,
null,,confidence_buffer,239711,confidence_buffer,,null,,,,,,,,,,,,,,,,,,
null,,thebreak,240213,break,,null,,,,,,,,,,,,,,,,,,
1469.0999999940395,,familiar_rating,241683,Natchez,,53,Natchez,US,5,,,,,,,,,,,,,,,
null,,confidence_buffer,241785,confidence_buffer,,null,,,,,,,,,,,,,,,,,,
1164.7999999970198,,unique_rating,242950,Natchez,,53,,,5,,,,,,,,,,,,,,,
null,,confidence_buffer,243051,confidence_buffer,,null,,,,,,,,,,,,,,,,,,
1798.7000000029802,,memorable_rating,244851,Natchez,,51,,,3,,,,,,,,,,,,,,,
null,,confidence_buffer,244952,confidence_buffer,,null,,,,,,,,,,,,,,,,,,
null,,thebreak,245453,break,,null,,,,,,,,,,,,,,,,,,
1730.2999999970198,,familiar_rating,247184,Meadowspire,,49,Meadowspire,Fictional,1,,,,,,,,,,,,,,,
null,,confidence_buffer,247285,confidence_buffer,,null,,,,,,,,,,,,,,,,,,
1724.2999999970198,,unique_rating,249010,Meadowspire,,52,,,4,,,,,,,,,,,,,,,
null,,confidence_buffer,249112,confidence_buffer,,null,,,,,,,,,,,,,,,,,,
1042.5999999940395,,memorable_rating,250155,Meadowspire,,53,,,5,,,,,,,,,,,,,,,
null,,confidence_buffer,250256,confidence_buffer,,null,,,,,,,,,,,,,,,,,,
null,,thebreak,250758,break,,null,,,,,,,,,,,,,,,,,,
6419.20000000298,,intro_0,257178,instruct,,32,,,,,,,,,,,,,,,,,,
5586,,intro_1,262764,instruct,,32,,,,,,,,,,,,,,,,,,
5710.100000008941,,intro_2,268475,instruct,,32,,,,,,,,,,,,,,,,,,
null,,instruct_dir_4,269975,instruct,,null,,,,,,,,,,,,,,,,,,
5656.70000000298,,realistic_rating,275633,East Ladera,,53,East Ladera,Fictional,5,,,,,,,,,,,,,,,
null,,confidence_buffer,275733,confidence_buffer,,null,,,,,,,,,,,,,,,,,,
3752.7000000029802,,pt2_unique_rating,279486,East Ladera,,51,,,3,,,,,,,,,,,,,,,
null,,confidence_buffer,279588,confidence_buffer,,null,,,,,,,,,,,,,,,,,,
1830.7000000029802,,pt2_memorable_rating,281419,East Ladera,,50,,,2,,,,,,,,,,,,,,,
null,,confidence_buffer,281520,confidence_buffer,,null,,,,,,,,,,,,,,,,,,
4496.600000008941,,recognition_phase,286017,East Ladera,,49,,,,,,old,1,1,,,,,,,,,,
null,,confidence_buffer,286118,confidence_buffer,,null,,,,,,,,,,,,,,,,,,
null,,thebreak,286620,break,,null,,,,,,,,,,,,,,,,,,
2580.6000000089407,,realistic_rating,289201,Granton Ridge,,52,Granton Ridge,Fictional,4,,,,,,,,,,,,,,,
null,,confidence_buffer,289302,confidence_buffer,,null,,,,,,,,,,,,,,,,,,
1384.2999999970198,,pt2_unique_rating,290687,Granton Ridge,,53,,,5,,,,,,,,,,,,,,,
null,,confidence_buffer,290789,confidence_buffer,,null,,,,,,,,,,,,,,,,,,
1593,,pt2_memorable_rating,292382,Granton Ridge,,53,,,5,,,,,,,,,,,,,,,
null,,confidence_buffer,292483,confidence_buffer,,null,,,,,,,,,,,,,,,,,,
1253.0999999940395,,recognition_phase,293737,Granton Ridge,,49,,,,,,old,1,1,,,,,,,,,,
null,,confidence_buffer,293839,confidence_buffer,,null,,,,,,,,,,,,,,,,,,
null,,thebreak,294340,break,,null,,,,,,,,,,,,,,,,,,
2024.7999999970198,,realistic_rating,296365,Lake of the Ozarks,,53,Lake of the Ozarks,US,5,,,,,,,,,,,,,,,
null,,confidence_buffer,296467,confidence_buffer,,null,,,,,,,,,,,,,,,,,,
1305.2000000029802,,pt2_unique_rating,297772,Lake of the Ozarks,,53,,,5,,,,,,,,,,,,,,,
null,,confidence_buffer,297874,confidence_buffer,,null,,,,,,,,,,,,,,,,,,
938.1999999880791,,pt2_memorable_rating,298813,Lake of the Ozarks,,53,,,5,,,,,,,,,,,,,,,
null,,confidence_buffer,298914,confidence_buffer,,null,,,,,,,,,,,,,,,,,,
1249.7000000029802,,recognition_phase,300164,Lake of the Ozarks,,49,,,,,,old,1,1,,,,,,,,,,
null,,confidence_buffer,300265,confidence_buffer,,null,,,,,,,,,,,,,,,,,,
null,,thebreak,300767,break,,null,,,,,,,,,,,,,,,,,,
2661.2999999970198,,realistic_rating,303429,Sierra Hollow,,53,Sierra Hollow,Fictional,5,,,,,,,,,,,,,,,
null,,confidence_buffer,303530,confidence_buffer,,null,,,,,,,,,,,,,,,,,,
1569.0999999940395,,pt2_unique_rating,305099,Sierra Hollow,,52,,,4,,,,,,,,,,,,,,,
null,,confidence_buffer,305200,confidence_buffer,,null,,,,,,,,,,,,,,,,,,
1783.6000000089407,,pt2_memorable_rating,306984,Sierra Hollow,,52,,,4,,,,,,,,,,,,,,,
null,,confidence_buffer,307086,confidence_buffer,,null,,,,,,,,,,,,,,,,,,
1759.5,,recognition_phase,308846,Sierra Hollow,,52,,,,,,new,1,1,,,,,,,,,,
null,,confidence_buffer,308947,confidence_buffer,,null,,,,,,,,,,,,,,,,,,
null,,thebreak,309449,break,,null,,,,,,,,,,,,,,,,,,
3435.4000000059605,,realistic_rating,312884,Willowford,,53,Willowford,Fictional,5,,,,,,,,,,,,,,,
null,,confidence_buffer,312986,confidence_buffer,,null,,,,,,,,,,,,,,,,,,
1925.0999999940395,,pt2_unique_rating,314911,Willowford,,50,,,2,,,,,,,,,,,,,,,
null,,confidence_buffer,315013,confidence_buffer,,null,,,,,,,,,,,,,,,,,,
1602.0999999940395,,pt2_memorable_rating,316615,Willowford,,51,,,3,,,,,,,,,,,,,,,
null,,confidence_buffer,316717,confidence_buffer,,null,,,,,,,,,,,,,,,,,,
3091.7999999970198,,recognition_phase,319809,Willowford,,51,,,,,,new,1,1,,,,,,,,,,
null,,confidence_buffer,319911,confidence_buffer,,null,,,,,,,,,,,,,,,,,,
null,,thebreak,320412,break,,null,,,,,,,,,,,,,,,,,,
2185.2999999970198,,realistic_rating,322598,Hawthorne Bluffs,,53,Hawthorne Bluffs,Fictional,5,,,,,,,,,,,,,,,
null,,confidence_buffer,322700,confidence_buffer,,null,,,,,,,,,,,,,,,,,,
1569.2000000029802,,pt2_unique_rating,324269,Hawthorne Bluffs,,52,,,4,,,,,,,,,,,,,,,
null,,confidence_buffer,324371,confidence_buffer,,null,,,,,,,,,,,,,,,,,,
1159.5,,pt2_memorable_rating,325531,Hawthorne Bluffs,,53,,,5,,,,,,,,,,,,,,,
null,,confidence_buffer,325633,confidence_buffer,,null,,,,,,,,,,,,,,,,,,
1164,,recognition_phase,326798,Hawthorne Bluffs,,49,,,,,,old,1,1,,,,,,,,,,
null,,confidence_buffer,326899,confidence_buffer,,null,,,,,,,,,,,,,,,,,,
null,,thebreak,327400,break,,null,,,,,,,,,,,,,,,,,,
1624.5,,realistic_rating,329025,Stonebrook,,53,Stonebrook,Fictional,5,,,,,,,,,,,,,,,
null,,confidence_buffer,329127,confidence_buffer,,null,,,,,,,,,,,,,,,,,,
1922.7999999970198,,pt2_unique_rating,331050,Stonebrook,,49,,,1,,,,,,,,,,,,,,,
null,,confidence_buffer,331152,confidence_buffer,,null,,,,,,,,,,,,,,,,,,
1944.7999999970198,,pt2_memorable_rating,333097,Stonebrook,,52,,,4,,,,,,,,,,,,,,,
null,,confidence_buffer,333199,confidence_buffer,,null,,,,,,,,,,,,,,,,,,
1364.6000000089407,,recognition_phase,334565,Stonebrook,,49,,,,,,old,0,0.8571428571428571,,,,,,,,,,
null,,confidence_buffer,334667,confidence_buffer,,null,,,,,,,,,,,,,,,,,,
null,,thebreak,335168,break,,null,,,,,,,,,,,,,,,,,,
3260.2999999970198,,realistic_rating,338429,Ashford Hills,,53,Ashford Hills,Fictional,5,,,,,,,,,,,,,,,
null,,confidence_buffer,338530,confidence_buffer,,null,,,,,,,,,,,,,,,,,,
1506.4000000059605,,pt2_unique_rating,340037,Ashford Hills,,49,,,1,,,,,,,,,,,,,,,
null,,confidence_buffer,340153,confidence_buffer,,null,,,,,,,,,,,,,,,,,,
1696.1000000089407,,pt2_memorable_rating,341850,Ashford Hills,,51,,,3,,,,,,,,,,,,,,,
null,,confidence_buffer,341951,confidence_buffer,,null,,,,,,,,,,,,,,,,,,
2468.4000000059605,,recognition_phase,344420,Ashford Hills,,50,,,,,,old,1,0.875,,,,,,,,,,
null,,confidence_buffer,344522,confidence_buffer,,null,,,,,,,,,,,,,,,,,,
null,,thebreak,345023,break,,null,,,,,,,,,,,,,,,,,,
1932.800000011921,,realistic_rating,346956,Cedarwyn,,53,Cedarwyn,Fictional,5,,,,,,,,,,,,,,,
null,,confidence_buffer,347062,confidence_buffer,,null,,,,,,,,,,,,,,,,,,
2079.7000000029802,,pt2_unique_rating,349142,Cedarwyn,,52,,,4,,,,,,,,,,,,,,,
null,,confidence_buffer,349243,confidence_buffer,,null,,,,,,,,,,,,,,,,,,
1910.2000000029802,,pt2_memorable_rating,351154,Cedarwyn,,52,,,4,,,,,,,,,,,,,,,
null,,confidence_buffer,351255,confidence_buffer,,null,,,,,,,,,,,,,,,,,,
1553.5999999940395,,recognition_phase,352809,Cedarwyn,,52,,,,,,new,1,0.8888888888888888,,,,,,,,,,
null,,confidence_buffer,352911,confidence_buffer,,null,,,,,,,,,,,,,,,,,,
null,,thebreak,353411,break,,null,,,,,,,,,,,,,,,,,,
1409.2999999970198,,realistic_rating,354821,Pine Hollow,,53,Pine Hollow,Fictional,5,,,,,,,,,,,,,,,
null,,confidence_buffer,354923,confidence_buffer,,null,,,,,,,,,,,,,,,,,,
1506.300000011921,,pt2_unique_rating,356430,Pine Hollow,,49,,,1,,,,,,,,,,,,,,,
null,,confidence_buffer,356532,confidence_buffer,,null,,,,,,,,,,,,,,,,,,
1580.4000000059605,,pt2_memorable_rating,358113,Pine Hollow,,51,,,3,,,,,,,,,,,,,,,
null,,confidence_buffer,358214,confidence_buffer,,null,,,,,,,,,,,,,,,,,,
1523.2999999970198,,recognition_phase,359738,Pine Hollow,,50,,,,,,old,0,0.8,,,,,,,,,,
null,,confidence_buffer,359840,confidence_buffer,,null,,,,,,,,,,,,,,,,,,
null,,thebreak,360341,break,,null,,,,,,,,,,,,,,,,,,
1542.4000000059605,,realistic_rating,361884,Cape May,,53,Cape May,US,5,,,,,,,,,,,,,,,
null,,confidence_buffer,361986,confidence_buffer,,null,,,,,,,,,,,,,,,,,,
1475.2999999970198,,pt2_unique_rating,363461,Cape May,,49,,,1,,,,,,,,,,,,,,,
null,,confidence_buffer,363562,confidence_buffer,,null,,,,,,,,,,,,,,,,,,
1537.7999999970198,,pt2_memorable_rating,365101,Cape May,,51,,,3,,,,,,,,,,,,,,,
null,,confidence_buffer,365202,confidence_buffer,,null,,,,,,,,,,,,,,,,,,
1322.7999999970198,,recognition_phase,366525,Cape May,,52,,,,,,new,1,0.8181818181818182,,,,,,,,,,
null,,confidence_buffer,366626,confidence_buffer,,null,,,,,,,,,,,,,,,,,,
null,,thebreak,367128,break,,null,,,,,,,,,,,,,,,,,,
2133.4000000059605,,realistic_rating,369262,Coeur d'Alene,,53,Coeur d'Alene,US,5,,,,,,,,,,,,,,,
null,,confidence_buffer,369364,confidence_buffer,,null,,,,,,,,,,,,,,,,,,
978.8000000119209,,pt2_unique_rating,370343,Coeur d'Alene,,53,,,5,,,,,,,,,,,,,,,
null,,confidence_buffer,370444,confidence_buffer,,null,,,,,,,,,,,,,,,,,,
1835.9000000059605,,pt2_memorable_rating,372280,Coeur d'Alene,,51,,,3,,,,,,,,,,,,,,,
null,,confidence_buffer,372382,confidence_buffer,,null,,,,,,,,,,,,,,,,,,
1576.2000000029802,,recognition_phase,373959,Coeur d'Alene,,52,,,,,,new,1,0.8333333333333334,,,,,,,,,,
null,,confidence_buffer,374060,confidence_buffer,,null,,,,,,,,,,,,,,,,,,
null,,thebreak,374561,break,,null,,,,,,,,,,,,,,,,,,
2150.1000000089407,,realistic_rating,376712,Meadowspire,,53,Meadowspire,Fictional,5,,,,,,,,,,,,,,,
null,,confidence_buffer,376814,confidence_buffer,,null,,,,,,,,,,,,,,,,,,
1958.7000000029802,,pt2_unique_rating,378773,Meadowspire,,50,,,2,,,,,,,,,,,,,,,
null,,confidence_buffer,378874,confidence_buffer,,null,,,,,,,,,,,,,,,,,,
1806.9000000059605,,pt2_memorable_rating,380682,Meadowspire,,50,,,2,,,,,,,,,,,,,,,
null,,confidence_buffer,380783,confidence_buffer,,null,,,,,,,,,,,,,,,,,,
5784.70000000298,,recognition_phase,386568,Meadowspire,,50,,,,,,old,1,0.8461538461538461,,,,,,,,,,
null,,confidence_buffer,386669,confidence_buffer,,null,,,,,,,,,,,,,,,,,,
null,,thebreak,387172,break,,null,,,,,,,,,,,,,,,,,,
2281.7999999970198,,realistic_rating,389454,Shreveport,,53,Shreveport,US,5,,,,,,,,,,,,,,,
null,,confidence_buffer,389555,confidence_buffer,,null,,,,,,,,,,,,,,,,,,
1442.5,,pt2_unique_rating,390998,Shreveport,,53,,,5,,,,,,,,,,,,,,,
null,,confidence_buffer,391100,confidence_buffer,,null,,,,,,,,,,,,,,,,,,
1652.5,,pt2_memorable_rating,392753,Shreveport,,53,,,5,,,,,,,,,,,,,,,
null,,confidence_buffer,392854,confidence_buffer,,null,,,,,,,,,,,,,,,,,,
1431,,recognition_phase,394286,Shreveport,,49,,,,,,old,1,0.8571428571428571,,,,,,,,,,
null,,confidence_buffer,394387,confidence_buffer,,null,,,,,,,,,,,,,,,,,,
null,,thebreak,394888,break,,null,,,,,,,,,,,,,,,,,,
1339.3999999910593,,realistic_rating,396228,Crestwood,,53,Crestwood,Fictional,5,,,,,,,,,,,,,,,
null,,confidence_buffer,396341,confidence_buffer,,null,,,,,,,,,,,,,,,,,,
1873.3999999910593,,pt2_unique_rating,398215,Crestwood,,49,,,1,,,,,,,,,,,,,,,
null,,confidence_buffer,398315,confidence_buffer,,null,,,,,,,,,,,,,,,,,,
1754.699999988079,,pt2_memorable_rating,400071,Crestwood,,50,,,2,,,,,,,,,,,,,,,
null,,confidence_buffer,400172,confidence_buffer,,null,,,,,,,,,,,,,,,,,,
1911.7999999970198,,recognition_phase,402085,Crestwood,,50,,,,,,old,0,0.8,,,,,,,,,,
null,,confidence_buffer,402186,confidence_buffer,,null,,,,,,,,,,,,,,,,,,
null,,thebreak,402688,break,,null,,,,,,,,,,,,,,,,,,
1555.9000000059605,,realistic_rating,404244,New Verdan,,53,New Verdan,Fictional,5,,,,,,,,,,,,,,,
null,,confidence_buffer,404345,confidence_buffer,,null,,,,,,,,,,,,,,,,,,
1676.5,,pt2_unique_rating,406022,New Verdan,,52,,,4,,,,,,,,,,,,,,,
null,,confidence_buffer,406124,confidence_buffer,,null,,,,,,,,,,,,,,,,,,
2379.7999999970198,,pt2_memorable_rating,408504,New Verdan,,51,,,3,,,,,,,,,,,,,,,
null,,confidence_buffer,408605,confidence_buffer,,null,,,,,,,,,,,,,,,,,,
1519.9000000059605,,recognition_phase,410126,New Verdan,,52,,,,,,new,1,0.8125,,,,,,,,,,
null,,confidence_buffer,410239,confidence_buffer,,null,,,,,,,,,,,,,,,,,,
null,,thebreak,410740,break,,null,,,,,,,,,,,,,,,,,,
1256.2000000029802,,realistic_rating,411996,Gardnerville,,53,Gardnerville,US,5,,,,,,,,,,,,,,,
null,,confidence_buffer,412098,confidence_buffer,,null,,,,,,,,,,,,,,,,,,
1564.7000000029802,,pt2_unique_rating,413663,Gardnerville,,50,,,2,,,,,,,,,,,,,,,
null,,confidence_buffer,413764,confidence_buffer,,null,,,,,,,,,,,,,,,,,,
1501,,pt2_memorable_rating,415266,Gardnerville,,51,,,3,,,,,,,,,,,,,,,
null,,confidence_buffer,415367,confidence_buffer,,null,,,,,,,,,,,,,,,,,,
1248.2999999970198,,recognition_phase,416616,Gardnerville,,49,,,,,,old,1,0.8235294117647058,,,,,,,,,,
null,,confidence_buffer,416718,confidence_buffer,,null,,,,,,,,,,,,,,,,,,
null,,thebreak,417219,break,,null,,,,,,,,,,,,,,,,,,
1003.2000000029802,,realistic_rating,418223,Leesburg,,53,Leesburg,US,5,,,,,,,,,,,,,,,
null,,confidence_buffer,418324,confidence_buffer,,null,,,,,,,,,,,,,,,,,,
1259.2999999970198,,pt2_unique_rating,419584,Leesburg,,49,,,1,,,,,,,,,,,,,,,
null,,confidence_buffer,419685,confidence_buffer,,null,,,,,,,,,,,,,,,,,,
1984.199999988079,,pt2_memorable_rating,421670,Leesburg,,53,,,5,,,,,,,,,,,,,,,
null,,confidence_buffer,421772,confidence_buffer,,null,,,,,,,,,,,,,,,,,,
2815.2000000029802,,recognition_phase,424587,Leesburg,,51,,,,,,new,0,0.7777777777777778,,,,,,,,,,
null,,confidence_buffer,424689,confidence_buffer,,null,,,,,,,,,,,,,,,,,,
null,,thebreak,425190,break,,null,,,,,,,,,,,,,,,,,,
1591.7000000029802,,realistic_rating,426782,Delaro Park,,53,Delaro Park,Fictional,5,,,,,,,,,,,,,,,
null,,confidence_buffer,426884,confidence_buffer,,null,,,,,,,,,,,,,,,,,,
1390.9000000059605,,pt2_unique_rating,428275,Delaro Park,,52,,,4,,,,,,,,,,,,,,,
null,,confidence_buffer,428377,confidence_buffer,,null,,,,,,,,,,,,,,,,,,
1442.0999999940395,,pt2_memorable_rating,429820,Delaro Park,,50,,,2,,,,,,,,,,,,,,,
null,,confidence_buffer,429921,confidence_buffer,,null,,,,,,,,,,,,,,,,,,
947.3000000119209,,recognition_phase,430869,Delaro Park,,49,,,,,,old,1,0.7894736842105263,,,,,,,,,,
null,,confidence_buffer,430970,confidence_buffer,,null,,,,,,,,,,,,,,,,,,
null,,thebreak,431471,break,,null,,,,,,,,,,,,,,,,,,
1255.7999999970198,,realistic_rating,432727,Folly Beach,,53,Folly Beach,US,5,,,,,,,,,,,,,,,
null,,confidence_buffer,432829,confidence_buffer,,null,,,,,,,,,,,,,,,,,,
1183.7000000029802,,pt2_unique_rating,434013,Folly Beach,,53,,,5,,,,,,,,,,,,,,,
null,,confidence_buffer,434116,confidence_buffer,,null,,,,,,,,,,,,,,,,,,
1152.2000000029802,,pt2_memorable_rating,435269,Folly Beach,,53,,,5,,,,,,,,,,,,,,,
null,,confidence_buffer,435370,confidence_buffer,,null,,,,,,,,,,,,,,,,,,
1383.2999999970198,,recognition_phase,436754,Folly Beach,,52,,,,,,new,1,0.8,,,,,,,,,,
null,,confidence_buffer,436856,confidence_buffer,,null,,,,,,,,,,,,,,,,,,
null,,thebreak,437357,break,,null,,,,,,,,,,,,,,,,,,
1037.2000000029802,,realistic_rating,438394,Natchez,,53,Natchez,US,5,,,,,,,,,,,,,,,
null,,confidence_buffer,438496,confidence_buffer,,null,,,,,,,,,,,,,,,,,,
935.7999999970198,,pt2_unique_rating,439432,Natchez,,53,,,5,,,,,,,,,,,,,,,
null,,confidence_buffer,439534,confidence_buffer,,null,,,,,,,,,,,,,,,,,,
1138.5999999940395,,pt2_memorable_rating,440673,Natchez,,51,,,3,,,,,,,,,,,,,,,
null,,confidence_buffer,440774,confidence_buffer,,null,,,,,,,,,,,,,,,,,,
1293.5,,recognition_phase,442068,Natchez,,49,,,,,,old,1,0.8095238095238095,,,,,,,,,,
null,,confidence_buffer,442181,confidence_buffer,,null,,,,,,,,,,,,,,,,,,
null,,thebreak,442697,break,,null,,,,,,,,,,,,,,,,,,
1173.2999999970198,,realistic_rating,443871,Redgrove,,53,Redgrove,Fictional,5,,,,,,,,,,,,,,,
null,,confidence_buffer,443974,confidence_buffer,,null,,,,,,,,,,,,,,,,,,
1409.4000000059605,,pt2_unique_rating,445384,Redgrove,,49,,,1,,,,,,,,,,,,,,,
null,,confidence_buffer,445485,confidence_buffer,,null,,,,,,,,,,,,,,,,,,
1438.5999999940395,,pt2_memorable_rating,446924,Redgrove,,51,,,3,,,,,,,,,,,,,,,
null,,confidence_buffer,447026,confidence_buffer,,null,,,,,,,,,,,,,,,,,,
1405.0999999940395,,recognition_phase,448432,Redgrove,,52,,,,,,new,1,0.8181818181818182,,,,,,,,,,
null,,confidence_buffer,448533,confidence_buffer,,null,,,,,,,,,,,,,,,,,,
null,,thebreak,449034,break,,null,,,,,,,,,,,,,,,,,,
1078.7000000029802,,realistic_rating,450114,Custer,,53,Custer,US,5,,,,,,,,,,,,,,,
null,,confidence_buffer,450214,confidence_buffer,,null,,,,,,,,,,,,,,,,,,
1607.2999999970198,,pt2_unique_rating,451822,Custer,,50,,,2,,,,,,,,,,,,,,,
null,,confidence_buffer,451924,confidence_buffer,,null,,,,,,,,,,,,,,,,,,
1257,,pt2_memorable_rating,453181,Custer,,50,,,2,,,,,,,,,,,,,,,
null,,confidence_buffer,453282,confidence_buffer,,null,,,,,,,,,,,,,,,,,,
1016.2000000029802,,recognition_phase,454299,Custer,,49,,,,,,old,1,0.8260869565217391,,,,,,,,,,
null,,confidence_buffer,454400,confidence_buffer,,null,,,,,,,,,,,,,,,,,,
null,,thebreak,454902,break,,null,,,,,,,,,,,,,,,,,,
977.5,,realistic_rating,455880,Huntsville,,53,Huntsville,US,5,,,,,,,,,,,,,,,
null,,confidence_buffer,455981,confidence_buffer,,null,,,,,,,,,,,,,,,,,,
982.0999999940395,,pt2_unique_rating,456964,Huntsville,,49,,,1,,,,,,,,,,,,,,,
null,,confidence_buffer,457064,confidence_buffer,,null,,,,,,,,,,,,,,,,,,
1635.0999999940395,,pt2_memorable_rating,458700,Huntsville,,51,,,3,,,,,,,,,,,,,,,
null,,confidence_buffer,458801,confidence_buffer,,null,,,,,,,,,,,,,,,,,,
1435.7999999970198,,recognition_phase,460238,Huntsville,,52,,,,,,new,1,0.8333333333333334,,,,,,,,,,
null,,confidence_buffer,460339,confidence_buffer,,null,,,,,,,,,,,,,,,,,,
null,,thebreak,460841,break,,null,,,,,,,,,,,,,,,,,,
1056.2000000029802,,realistic_rating,461897,Athens,,53,Athens,US,5,,,,,,,,,,,,,,,
null,,confidence_buffer,461999,confidence_buffer,,null,,,,,,,,,,,,,,,,,,
1886.2999999970198,,pt2_unique_rating,463886,Athens,,49,,,1,,,,,,,,,,,,,,,
null,,confidence_buffer,463986,confidence_buffer,,null,,,,,,,,,,,,,,,,,,
1671.5999999940395,,pt2_memorable_rating,465659,Athens,,53,,,5,,,,,,,,,,,,,,,
null,,confidence_buffer,465759,confidence_buffer,,null,,,,,,,,,,,,,,,,,,
1680.4000000059605,,recognition_phase,467441,Athens,,52,,,,,,new,1,0.84,,,,,,,,,,
null,,confidence_buffer,467542,confidence_buffer,,null,,,,,,,,,,,,,,,,,,
null,,thebreak,468044,break,,null,,,,,,,,,,,,,,,,,,
1436.0999999940395,,realistic_rating,469480,Sisters,,53,Sisters,US,5,,,,,,,,,,,,,,,
null,,confidence_buffer,469581,confidence_buffer,,null,,,,,,,,,,,,,,,,,,
1511.2000000029802,,pt2_unique_rating,471093,Sisters,,52,,,4,,,,,,,,,,,,,,,
null,,confidence_buffer,471194,confidence_buffer,,null,,,,,,,,,,,,,,,,,,
997,,probe_rating,472191,probe_rating,,50,,,,2,1,,,,,,,,,,,,,
null,,confidence_buffer,472293,confidence_buffer,,null,,,,,,,,,,,,,,,,,,
2582.5999999940395,,pt2_memorable_rating,474876,Sisters,,53,,,5,,,,,,,,,,,,,,,
null,,confidence_buffer,474978,confidence_buffer,,null,,,,,,,,,,,,,,,,,,
1314.800000011921,,recognition_phase,476293,Sisters,,49,,,,,,old,1,0.8461538461538461,,,,,,,,,,
null,,confidence_buffer,476394,confidence_buffer,,null,,,,,,,,,,,,,,,,,,
null,,thebreak,476895,break,,null,,,,,,,,,,,,,,,,,,
1056.7000000029802,,realistic_rating,477952,Driftwood Bay,,53,Driftwood Bay,Fictional,5,,,,,,,,,,,,,,,
null,,confidence_buffer,478053,confidence_buffer,,null,,,,,,,,,,,,,,,,,,
1487.8999999910593,,pt2_unique_rating,479542,Driftwood Bay,,51,,,3,,,,,,,,,,,,,,,
null,,confidence_buffer,479643,confidence_buffer,,null,,,,,,,,,,,,,,,,,,
1530.1000000089407,,pt2_memorable_rating,481174,Driftwood Bay,,53,,,5,,,,,,,,,,,,,,,
null,,confidence_buffer,481276,confidence_buffer,,null,,,,,,,,,,,,,,,,,,
1357.7999999970198,,recognition_phase,482634,Driftwood Bay,,51,,,,,,new,0,0.8148148148148148,,,,,,,,,,
null,,confidence_buffer,482735,confidence_buffer,,null,,,,,,,,,,,,,,,,,,
null,,thebreak,483235,break,,null,,,,,,,,,,,,,,,,,,
3062.2999999970198,,realistic_rating,486298,Highvale,,53,Highvale,Fictional,5,,,,,,,,,,,,,,,
null,,confidence_buffer,486399,confidence_buffer,,null,,,,,,,,,,,,,,,,,,
1311.0999999940395,,pt2_unique_rating,487711,Highvale,,49,,,1,,,,,,,,,,,,,,,
null,,confidence_buffer,487812,confidence_buffer,,null,,,,,,,,,,,,,,,,,,
1380.0999999940395,,probe_rating,489193,probe_rating,,53,,,,5,1,,,,,,,,,,,,,
null,,confidence_buffer,489294,confidence_buffer,,null,,,,,,,,,,,,,,,,,,
1642.2000000029802,,pt2_memorable_rating,490937,Highvale,,51,,,3,,,,,,,,,,,,,,,
null,,confidence_buffer,491037,confidence_buffer,,null,,,,,,,,,,,,,,,,,,
1237.1000000089407,,recognition_phase,492275,Highvale,,51,,,,,,new,1,0.8214285714285714,,,,,,,,,,
null,,confidence_buffer,492377,confidence_buffer,,null,,,,,,,,,,,,,,,,,,
null,,thebreak,492878,break,,null,,,,,,,,,,,,,,,,,,
993.1000000089407,,realistic_rating,493872,Oakridge,,53,Oakridge,Fictional,5,,,,,,,,,,,,,,,
null,,confidence_buffer,493973,confidence_buffer,,null,,,,,,,,,,,,,,,,,,
948.7000000029802,,pt2_unique_rating,494922,Oakridge,,49,,,1,,,,,,,,,,,,,,,
null,,confidence_buffer,495024,confidence_buffer,,null,,,,,,,,,,,,,,,,,,
1622.7000000029802,,pt2_memorable_rating,496647,Oakridge,,53,,,5,,,,,,,,,,,,,,,
null,,confidence_buffer,496748,confidence_buffer,,null,,,,,,,,,,,,,,,,,,
1810.2000000029802,,recognition_phase,498559,Oakridge,,52,,,,,,new,1,0.8275862068965517,,,,,,,,,,
null,,confidence_buffer,498660,confidence_buffer,,null,,,,,,,,,,,,,,,,,,
null,,thebreak,499161,break,,null,,,,,,,,,,,,,,,,,,
1303.2999999970198,,realistic_rating,500465,Elmsbury,,53,Elmsbury,Fictional,5,,,,,,,,,,,,,,,
null,,confidence_buffer,500566,confidence_buffer,,null,,,,,,,,,,,,,,,,,,
1351.5,,pt2_unique_rating,501918,Elmsbury,,49,,,1,,,,,,,,,,,,,,,
null,,confidence_buffer,502019,confidence_buffer,,null,,,,,,,,,,,,,,,,,,
1143.6000000089407,,pt2_memorable_rating,503163,Elmsbury,,51,,,3,,,,,,,,,,,,,,,
null,,confidence_buffer,503265,confidence_buffer,,null,,,,,,,,,,,,,,,,,,
1145.7000000029802,,recognition_phase,504411,Elmsbury,,52,,,,,,new,0,0.8,,,,,,,,,,
null,,confidence_buffer,504512,confidence_buffer,,null,,,,,,,,,,,,,,,,,,
null,,thebreak,505014,break,,null,,,,,,,,,,,,,,,,,,
1253.2000000029802,,realistic_rating,506267,Gatlinburg,,53,Gatlinburg,US,5,,,,,,,,,,,,,,,
null,,confidence_buffer,506369,confidence_buffer,,null,,,,,,,,,,,,,,,,,,
960.2000000029802,,pt2_unique_rating,507330,Gatlinburg,,53,,,5,,,,,,,,,,,,,,,
null,,confidence_buffer,507432,confidence_buffer,,null,,,,,,,,,,,,,,,,,,
1279.9000000059605,,pt2_memorable_rating,508712,Gatlinburg,,53,,,5,,,,,,,,,,,,,,,
null,,confidence_buffer,508813,confidence_buffer,,null,,,,,,,,,,,,,,,,,,
2322.199999988079,,recognition_phase,511136,Gatlinburg,,51,,,,,,new,0,0.7741935483870968,,,,,,,,,,
null,,confidence_buffer,511241,confidence_buffer,,null,,,,,,,,,,,,,,,,,,
null,,thebreak,511742,break,,null,,,,,,,,,,,,,,,,,,
883.6999999880791,,realistic_rating,512627,Hanover,,53,Hanover,US,5,,,,,,,,,,,,,,,
null,,confidence_buffer,512729,confidence_buffer,,null,,,,,,,,,,,,,,,,,,
892.4000000059605,,pt2_unique_rating,513622,Hanover,,49,,,1,,,,,,,,,,,,,,,
null,,confidence_buffer,513723,confidence_buffer,,null,,,,,,,,,,,,,,,,,,
1305.5,,pt2_memorable_rating,515029,Hanover,,51,,,3,,,,,,,,,,,,,,,
null,,confidence_buffer,515131,confidence_buffer,,null,,,,,,,,,,,,,,,,,,
1635.5999999940395,,recognition_phase,516767,Hanover,,51,,,,,,new,1,0.78125,,,,,,,,,,
null,,confidence_buffer,516868,confidence_buffer,,null,,,,,,,,,,,,,,,,,,
null,,thebreak,517370,break,,null,,,,,,,,,,,,,,,,,,
765.2999999970198,,realistic_rating,518136,Abilene,,52,Abilene,US,4,,,,,,,,,,,,,,,
null,,confidence_buffer,518237,confidence_buffer,,null,,,,,,,,,,,,,,,,,,
2353.7999999970198,,pt2_unique_rating,520592,Abilene,,52,,,4,,,,,,,,,,,,,,,
null,,confidence_buffer,520693,confidence_buffer,,null,,,,,,,,,,,,,,,,,,
2863.9000000059605,,pt2_memorable_rating,523558,Abilene,,50,,,2,,,,,,,,,,,,,,,
null,,confidence_buffer,523660,confidence_buffer,,null,,,,,,,,,,,,,,,,,,
2541.2999999970198,,recognition_phase,526202,Abilene,,52,,,,,,new,0,0.7575757575757576,,,,,,,,,,
null,,confidence_buffer,526303,confidence_buffer,,null,,,,,,,,,,,,,,,,,,
null,,thebreak,526804,break,,null,,,,,,,,,,,,,,,,,,
1374.8999999910593,,realistic_rating,528180,Bisbee,,53,Bisbee,US,5,,,,,,,,,,,,,,,
null,,confidence_buffer,528281,confidence_buffer,,null,,,,,,,,,,,,,,,,,,
1705.1000000089407,,pt2_unique_rating,529987,Bisbee,,52,,,4,,,,,,,,,,,,,,,
null,,confidence_buffer,530089,confidence_buffer,,null,,,,,,,,,,,,,,,,,,
1756.5999999940395,,pt2_memorable_rating,531846,Bisbee,,52,,,4,,,,,,,,,,,,,,,
null,,confidence_buffer,531947,confidence_buffer,,null,,,,,,,,,,,,,,,,,,
1206.5999999940395,,probe_rating,533154,probe_rating,,49,,,,1,1,,,,,,,,,,,,,
null,,confidence_buffer,533255,confidence_buffer,,null,,,,,,,,,,,,,,,,,,
1799.199999988079,,recognition_phase,535055,Bisbee,,52,,,,,,new,1,0.7647058823529411,,,,,,,,,,
null,,confidence_buffer,535157,confidence_buffer,,null,,,,,,,,,,,,,,,,,,
null,,thebreak,535659,break,,null,,,,,,,,,,,,,,,,,,
1595.0999999940395,,realistic_rating,537255,Bar Harbor,,53,Bar Harbor,US,5,,,,,,,,,,,,,,,
null,,confidence_buffer,537358,confidence_buffer,,null,,,,,,,,,,,,,,,,,,
1511.1000000089407,,probe_rating,538869,probe_rating,,50,,,,2,1,,,,,,,,,,,,,
null,,confidence_buffer,538971,confidence_buffer,,null,,,,,,,,,,,,,,,,,,
1669.5999999940395,,pt2_unique_rating,540641,Bar Harbor,,49,,,1,,,,,,,,,,,,,,,
null,,confidence_buffer,540742,confidence_buffer,,null,,,,,,,,,,,,,,,,,,
1387.4000000059605,,pt2_memorable_rating,542130,Bar Harbor,,51,,,3,,,,,,,,,,,,,,,
null,,confidence_buffer,542232,confidence_buffer,,null,,,,,,,,,,,,,,,,,,
1278.7999999970198,,recognition_phase,543511,Bar Harbor,,52,,,,,,new,1,0.7714285714285715,,,,,,,,,,
null,,confidence_buffer,543612,confidence_buffer,,null,,,,,,,,,,,,,,,,,,
null,,thebreak,544113,break,,null,,,,,,,,,,,,,,,,,,
1514,,realistic_rating,545628,West Palm Beach,,53,West Palm Beach,US,5,,,,,,,,,,,,,,,
null,,confidence_buffer,545729,confidence_buffer,,null,,,,,,,,,,,,,,,,,,
1831.2000000029802,,pt2_unique_rating,547561,West Palm Beach,,49,,,1,,,,,,,,,,,,,,,
null,,confidence_buffer,547662,confidence_buffer,,null,,,,,,,,,,,,,,,,,,
2475.7999999970198,,pt2_memorable_rating,550138,West Palm Beach,,53,,,5,,,,,,,,,,,,,,,
null,,confidence_buffer,550239,confidence_buffer,,null,,,,,,,,,,,,,,,,,,
1105.199999988079,,recognition_phase,551345,West Palm Beach,,49,,,,,,old,1,0.7777777777777778,,,,,,,,,,
null,,confidence_buffer,551446,confidence_buffer,,null,,,,,,,,,,,,,,,,,,
null,,thebreak,551947,break,,null,,,,,,,,,,,,,,,,,,
1123.7000000029802,,realistic_rating,553071,Northbridge,,53,Northbridge,Fictional,5,,,,,,,,,,,,,,,
null,,confidence_buffer,553173,confidence_buffer,,null,,,,,,,,,,,,,,,,,,
1431.2999999970198,,pt2_unique_rating,554605,Northbridge,,49,,,1,,,,,,,,,,,,,,,
null,,confidence_buffer,554707,confidence_buffer,,null,,,,,,,,,,,,,,,,,,
1243.4000000059605,,pt2_memorable_rating,555951,Northbridge,,51,,,3,,,,,,,,,,,,,,,
null,,confidence_buffer,556052,confidence_buffer,,null,,,,,,,,,,,,,,,,,,
1129.199999988079,,recognition_phase,557182,Northbridge,,51,,,,,,new,1,0.7837837837837838,,,,,,,,,,
null,,confidence_buffer,557283,confidence_buffer,,null,,,,,,,,,,,,,,,,,,
null,,thebreak,557784,break,,null,,,,,,,,,,,,,,,,,,
1386.7999999970198,,realistic_rating,559171,Bowling Green,,53,Bowling Green,US,5,,,,,,,,,,,,,,,
null,,confidence_buffer,559273,confidence_buffer,,null,,,,,,,,,,,,,,,,,,
2718.8999999910593,,pt2_unique_rating,561992,Bowling Green,,51,,,3,,,,,,,,,,,,,,,
null,,confidence_buffer,562094,confidence_buffer,,null,,,,,,,,,,,,,,,,,,
2433.1000000089407,,pt2_memorable_rating,564527,Bowling Green,,53,,,5,,,,,,,,,,,,,,,
null,,confidence_buffer,564629,confidence_buffer,,null,,,,,,,,,,,,,,,,,,
2220.5999999940395,,recognition_phase,566851,Bowling Green,,51,,,,,,new,0,0.7631578947368421,,,,,,,,,,
null,,confidence_buffer,566953,confidence_buffer,,null,,,,,,,,,,,,,,,,,,
null,,thebreak,567454,break,,null,,,,,,,,,,,,,,,,,,
2699.5999999940395,,realistic_rating,570154,Silverpine,,53,Silverpine,Fictional,5,,,,,,,,,,,,,,,
null,,confidence_buffer,570256,confidence_buffer,,null,,,,,,,,,,,,,,,,,,
1985.6000000089407,,pt2_unique_rating,572242,Silverpine,,50,,,2,,,,,,,,,,,,,,,
null,,confidence_buffer,572344,confidence_buffer,,null,,,,,,,,,,,,,,,,,,
1419.4000000059605,,pt2_memorable_rating,573764,Silverpine,,51,,,3,,,,,,,,,,,,,,,
null,,confidence_buffer,573865,confidence_buffer,,null,,,,,,,,,,,,,,,,,,
1546.5999999940395,,recognition_phase,575412,Silverpine,,51,,,,,,new,0,0.7435897435897436,,,,,,,,,,
null,,confidence_buffer,575514,confidence_buffer,,null,,,,,,,,,,,,,,,,,,
null,,thebreak,576015,break,,null,,,,,,,,,,,,,,,,,,
1578.5,,realistic_rating,577594,Peoria,,53,Peoria,US,5,,,,,,,,,,,,,,,
null,,confidence_buffer,577696,confidence_buffer,,null,,,,,,,,,,,,,,,,,,
1814.7999999970198,,pt2_unique_rating,579512,Peoria,,53,,,5,,,,,,,,,,,,,,,
null,,confidence_buffer,579613,confidence_buffer,,null,,,,,,,,,,,,,,,,,,
1514.5,,pt2_memorable_rating,581128,Peoria,,53,,,5,,,,,,,,,,,,,,,
null,,confidence_buffer,581229,confidence_buffer,,null,,,,,,,,,,,,,,,,,,
4973.79999999702,,recognition_phase,586204,Peoria,,52,,,,,,new,0,0.725,,,,,,,,,,
null,,confidence_buffer,586305,confidence_buffer,,null,,,,,,,,,,,,,,,,,,
null,,thebreak,586805,break,,null,,,,,,,,,,,,,,,,,,
4079.0999999940395,,realistic_rating,590885,Maravilla Springs,,53,Maravilla Springs,Fictional,5,,,,,,,,,,,,,,,
null,,confidence_buffer,590987,confidence_buffer,,null,,,,,,,,,,,,,,,,,,
1957.800000011921,,pt2_unique_rating,592945,Maravilla Springs,,52,,,4,,,,,,,,,,,,,,,
null,,confidence_buffer,593047,confidence_buffer,,null,,,,,,,,,,,,,,,,,,
1933.7999999970198,,pt2_memorable_rating,594981,Maravilla Springs,,50,,,2,,,,,,,,,,,,,,,
null,,confidence_buffer,595083,confidence_buffer,,null,,,,,,,,,,,,,,,,,,
1152.5,,recognition_phase,596236,Maravilla Springs,,52,,,,,,new,1,0.7317073170731707,,,,,,,,,,
null,,confidence_buffer,596338,confidence_buffer,,null,,,,,,,,,,,,,,,,,,
null,,thebreak,596839,break,,null,,,,,,,,,,,,,,,,,,
1631.6000000089407,,realistic_rating,598471,Manistee,,53,Manistee,US,5,,,,,,,,,,,,,,,
null,,confidence_buffer,598573,confidence_buffer,,null,,,,,,,,,,,,,,,,,,
2114.5,,pt2_unique_rating,600689,Manistee,,52,,,4,,,,,,,,,,,,,,,
null,,confidence_buffer,600791,confidence_buffer,,null,,,,,,,,,,,,,,,,,,
2267.6000000089407,,pt2_memorable_rating,603059,Manistee,,50,,,2,,,,,,,,,,,,,,,
null,,confidence_buffer,603161,confidence_buffer,,null,,,,,,,,,,,,,,,,,,
1152.5,,recognition_phase,604314,Manistee,,52,,,,,,new,1,0.7380952380952381,,,,,,,,,,
null,,confidence_buffer,604415,confidence_buffer,,null,,,,,,,,,,,,,,,,,,
null,,thebreak,604917,break,,null,,,,,,,,,,,,,,,,,,
1142.3999999910593,,realistic_rating,606060,Clearbrook,,53,Clearbrook,Fictional,5,,,,,,,,,,,,,,,
null,,confidence_buffer,606161,confidence_buffer,,null,,,,,,,,,,,,,,,,,,
2125.7000000029802,,pt2_unique_rating,608287,Clearbrook,,49,,,1,,,,,,,,,,,,,,,
null,,confidence_buffer,608389,confidence_buffer,,null,,,,,,,,,,,,,,,,,,
1778.2999999970198,,pt2_memorable_rating,610167,Clearbrook,,52,,,4,,,,,,,,,,,,,,,
null,,confidence_buffer,610269,confidence_buffer,,null,,,,,,,,,,,,,,,,,,
2314.2000000029802,,recognition_phase,612584,Clearbrook,,50,,,,,,old,1,0.7441860465116279,,,,,,,,,,
null,,confidence_buffer,612685,confidence_buffer,,null,,,,,,,,,,,,,,,,,,
null,,thebreak,613186,break,,null,,,,,,,,,,,,,,,,,,
1621.9000000059605,,realistic_rating,614809,Sitka,,53,Sitka,US,5,,,,,,,,,,,,,,,
null,,confidence_buffer,614910,confidence_buffer,,null,,,,,,,,,,,,,,,,,,
1429.4000000059605,,pt2_unique_rating,616340,Sitka,,53,,,5,,,,,,,,,,,,,,,
null,,confidence_buffer,616441,confidence_buffer,,null,,,,,,,,,,,,,,,,,,
2307.5999999940395,,pt2_memorable_rating,618749,Sitka,,49,,,1,,,,,,,,,,,,,,,
null,,confidence_buffer,618850,confidence_buffer,,null,,,,,,,,,,,,,,,,,,
1294.3999999910593,,recognition_phase,620145,Sitka,,52,,,,,,new,1,0.75,,,,,,,,,,
null,,confidence_buffer,620247,confidence_buffer,,null,,,,,,,,,,,,,,,,,,
null,,thebreak,620749,break,,null,,,,,,,,,,,,,,,,,,
1510.4000000059605,,realistic_rating,622260,Alliance,,53,Alliance,US,5,,,,,,,,,,,,,,,
null,,confidence_buffer,622361,confidence_buffer,,null,,,,,,,,,,,,,,,,,,
1804,,pt2_unique_rating,624166,Alliance,,51,,,3,,,,,,,,,,,,,,,
null,,confidence_buffer,624278,confidence_buffer,,null,,,,,,,,,,,,,,,,,,
1503.0999999940395,,pt2_memorable_rating,625782,Alliance,,51,,,3,,,,,,,,,,,,,,,
null,,confidence_buffer,625883,confidence_buffer,,null,,,,,,,,,,,,,,,,,,
1409.2999999970198,,recognition_phase,627293,Alliance,,52,,,,,,new,1,0.7555555555555555,,,,,,,,,,
null,,confidence_buffer,627394,confidence_buffer,,null,,,,,,,,,,,,,,,,,,
null,,thebreak,627895,break,,null,,,,,,,,,,,,,,,,,,
1396.7999999970198,,realistic_rating,629292,Delaware City,,53,Delaware City,US,5,,,,,,,,,,,,,,,
null,,confidence_buffer,629393,confidence_buffer,,null,,,,,,,,,,,,,,,,,,
1536.0999999940395,,pt2_unique_rating,630930,Delaware City,,49,,,1,,,,,,,,,,,,,,,
null,,confidence_buffer,631032,confidence_buffer,,null,,,,,,,,,,,,,,,,,,
1563.5,,pt2_memorable_rating,632596,Delaware City,,51,,,3,,,,,,,,,,,,,,,
null,,confidence_buffer,632697,confidence_buffer,,null,,,,,,,,,,,,,,,,,,
1615.7999999970198,,recognition_phase,634313,Delaware City,,52,,,,,,new,1,0.7608695652173914,,,,,,,,,,
null,,confidence_buffer,634414,confidence_buffer,,null,,,,,,,,,,,,,,,,,,
null,,thebreak,634916,break,,null,,,,,,,,,,,,,,,,,,
1253.5999999940395,,realistic_rating,636170,Sunmere,,53,Sunmere,Fictional,5,,,,,,,,,,,,,,,
null,,confidence_buffer,636272,confidence_buffer,,null,,,,,,,,,,,,,,,,,,
1774.2000000029802,,pt2_unique_rating,638047,Sunmere,,52,,,4,,,,,,,,,,,,,,,
null,,confidence_buffer,638149,confidence_buffer,,null,,,,,,,,,,,,,,,,,,
1351.2000000029802,,pt2_memorable_rating,639500,Sunmere,,50,,,2,,,,,,,,,,,,,,,
null,,confidence_buffer,639602,confidence_buffer,,null,,,,,,,,,,,,,,,,,,
894.4000000059605,,probe_rating,640497,probe_rating,,51,,,,3,1,,,,,,,,,,,,,
null,,confidence_buffer,640598,confidence_buffer,,null,,,,,,,,,,,,,,,,,,
1317.2000000029802,,recognition_phase,641916,Sunmere,,52,,,,,,new,0,0.7446808510638298,,,,,,,,,,
null,,confidence_buffer,642019,confidence_buffer,,null,,,,,,,,,,,,,,,,,,
null,,thebreak,642520,break,,null,,,,,,,,,,,,,,,,,,
1083.1000000089407,,realistic_rating,643604,Juniper Creek,,53,Juniper Creek,Fictional,5,,,,,,,,,,,,,,,
null,,confidence_buffer,643705,confidence_buffer,,null,,,,,,,,,,,,,,,,,,
2074.2999999970198,,pt2_unique_rating,645780,Juniper Creek,,53,,,5,,,,,,,,,,,,,,,
null,,confidence_buffer,645882,confidence_buffer,,null,,,,,,,,,,,,,,,,,,
1766,,pt2_memorable_rating,647649,Juniper Creek,,53,,,5,,,,,,,,,,,,,,,
null,,confidence_buffer,647750,confidence_buffer,,null,,,,,,,,,,,,,,,,,,
2579.7000000029802,,recognition_phase,650331,Juniper Creek,,52,,,,,,new,0,0.7291666666666666,,,,,,,,,,
null,,confidence_buffer,650432,confidence_buffer,,null,,,,,,,,,,,,,,,,,,
null,,thebreak,650933,break,,null,,,,,,,,,,,,,,,,,,
1341.2999999970198,,realistic_rating,652275,Yukon,,53,Yukon,US,5,,,,,,,,,,,,,,,
null,,confidence_buffer,652376,confidence_buffer,,null,,,,,,,,,,,,,,,,,,
1459.2999999970198,,pt2_unique_rating,653836,Yukon,,53,,,5,,,,,,,,,,,,,,,
null,,confidence_buffer,653937,confidence_buffer,,null,,,,,,,,,,,,,,,,,,
1178.9000000059605,,pt2_memorable_rating,655116,Yukon,,53,,,5,,,,,,,,,,,,,,,
null,,confidence_buffer,655217,confidence_buffer,,null,,,,,,,,,,,,,,,,,,
1488.6000000089407,,recognition_phase,656707,Yukon,,52,,,,,,new,1,0.7346938775510204,,,,,,,,,,
null,,confidence_buffer,656808,confidence_buffer,,null,,,,,,,,,,,,,,,,,,
null,,thebreak,657310,break,,null,,,,,,,,,,,,,,,,,,
1533.7000000029802,,realistic_rating,658844,Cody,,53,Cody,US,5,,,,,,,,,,,,,,,
null,,confidence_buffer,658946,confidence_buffer,,null,,,,,,,,,,,,,,,,,,
1401.2000000029802,,probe_rating,660348,probe_rating,,53,,,,5,1,,,,,,,,,,,,,
null,,confidence_buffer,660449,confidence_buffer,,null,,,,,,,,,,,,,,,,,,
2218.7000000029802,,pt2_unique_rating,662668,Cody,,50,,,2,,,,,,,,,,,,,,,
null,,confidence_buffer,662769,confidence_buffer,,null,,,,,,,,,,,,,,,,,,
1284.2999999970198,,pt2_memorable_rating,664054,Cody,,52,,,4,,,,,,,,,,,,,,,
null,,confidence_buffer,664155,confidence_buffer,,null,,,,,,,,,,,,,,,,,,
2134.5999999940395,,recognition_phase,666290,Cody,,49,,,,,,old,1,0.74,,,,,,,,,,
null,,confidence_buffer,666392,confidence_buffer,,null,,,,,,,,,,,,,,,,,,
null,,thebreak,666893,break,,null,,,,,,,,,,,,,,,,,,
1322.0999999940395,,realistic_rating,668216,Solara Glen,,53,Solara Glen,Fictional,5,,,,,,,,,,,,,,,
null,,confidence_buffer,668318,confidence_buffer,,null,,,,,,,,,,,,,,,,,,
1744.0999999940395,,pt2_unique_rating,670063,Solara Glen,,53,,,5,,,,,,,,,,,,,,,
null,,confidence_buffer,670164,confidence_buffer,,null,,,,,,,,,,,,,,,,,,
1623.2999999970198,,pt2_memorable_rating,671787,Solara Glen,,50,,,2,,,,,,,,,,,,,,,
null,,confidence_buffer,671889,confidence_buffer,,null,,,,,,,,,,,,,,,,,,
1113.7000000029802,,recognition_phase,673003,Solara Glen,,52,,,,,,new,1,0.7450980392156863,,,,,,,,,,
null,,confidence_buffer,673104,confidence_buffer,,null,,,,,,,,,,,,,,,,,,
null,,thebreak,673605,break,,null,,,,,,,,,,,,,,,,,,
2172.1000000089407,,realistic_rating,675778,Coralridge,,53,Coralridge,Fictional,5,,,,,,,,,,,,,,,
null,,confidence_buffer,675879,confidence_buffer,,null,,,,,,,,,,,,,,,,,,
15270.5,,pt2_unique_rating,691150,Coralridge,,51,,,3,,,,,,,,,,,,,,,
null,,confidence_buffer,691252,confidence_buffer,,null,,,,,,,,,,,,,,,,,,
1625.9000000059605,,pt2_memorable_rating,692878,Coralridge,,52,,,4,,,,,,,,,,,,,,,
null,,confidence_buffer,692981,confidence_buffer,,null,,,,,,,,,,,,,,,,,,
1601.2000000029802,,recognition_phase,694583,Coralridge,,51,,,,,,new,0,0.7307692307692307,,,,,,,,,,
null,,confidence_buffer,694685,confidence_buffer,,null,,,,,,,,,,,,,,,,,,
null,,thebreak,695186,break,,null,,,,,,,,,,,,,,,,,,
1277.9000000059605,,realistic_rating,696465,Tamarisk Hills,,53,Tamarisk Hills,Fictional,5,,,,,,,,,,,,,,,
null,,confidence_buffer,696567,confidence_buffer,,null,,,,,,,,,,,,,,,,,,
1479.7999999970198,,probe_rating,698047,probe_rating,,50,,,,2,1,,,,,,,,,,,,,
null,,confidence_buffer,698148,confidence_buffer,,null,,,,,,,,,,,,,,,,,,
1098.0999999940395,,pt2_unique_rating,699247,Tamarisk Hills,,53,,,5,,,,,,,,,,,,,,,
null,,confidence_buffer,699348,confidence_buffer,,null,,,,,,,,,,,,,,,,,,
1736.5,,pt2_memorable_rating,701085,Tamarisk Hills,,50,,,2,,,,,,,,,,,,,,,
null,,confidence_buffer,701187,confidence_buffer,,null,,,,,,,,,,,,,,,,,,
1326.2000000029802,,recognition_phase,702513,Tamarisk Hills,,52,,,,,,new,1,0.7358490566037735,,,,,,,,,,
null,,confidence_buffer,702615,confidence_buffer,,null,,,,,,,,,,,,,,,,,,
null,,thebreak,703116,break,,null,,,,,,,,,,,,,,,,,,
1731.5999999940395,,realistic_rating,704849,Assateague Island,,53,Assateague Island,US,5,,,,,,,,,,,,,,,
null,,confidence_buffer,704951,confidence_buffer,,null,,,,,,,,,,,,,,,,,,
995.2000000029802,,pt2_unique_rating,705946,Assateague Island,,53,,,5,,,,,,,,,,,,,,,
null,,confidence_buffer,706047,confidence_buffer,,null,,,,,,,,,,,,,,,,,,
3172.5,,pt2_memorable_rating,709221,Assateague Island,,50,,,2,,,,,,,,,,,,,,,
null,,confidence_buffer,709322,confidence_buffer,,null,,,,,,,,,,,,,,,,,,
1113.2000000029802,,recognition_phase,710436,Assateague Island,,52,,,,,,new,1,0.7407407407407407,,,,,,,,,,
null,,confidence_buffer,710537,confidence_buffer,,null,,,,,,,,,,,,,,,,,,
null,,thebreak,711039,break,,null,,,,,,,,,,,,,,,,,,
1608.5999999940395,,realistic_rating,712648,Okoboji,,53,Okoboji,US,5,,,,,,,,,,,,,,,
null,,confidence_buffer,712750,confidence_buffer,,null,,,,,,,,,,,,,,,,,,
1056.7999999970198,,pt2_unique_rating,713807,Okoboji,,53,,,5,,,,,,,,,,,,,,,
null,,confidence_buffer,713909,confidence_buffer,,null,,,,,,,,,,,,,,,,,,
2231.4000000059605,,pt2_memorable_rating,716141,Okoboji,,50,,,2,,,,,,,,,,,,,,,
null,,confidence_buffer,716242,confidence_buffer,,null,,,,,,,,,,,,,,,,,,
1158.2000000029802,,recognition_phase,717401,Okoboji,,49,,,,,,old,1,0.7454545454545455,,,,,,,,,,
null,,confidence_buffer,717503,confidence_buffer,,null,,,,,,,,,,,,,,,,,,
null,,thebreak,718004,break,,null,,,,,,,,,,,,,,,,,,
1474,,realistic_rating,719478,Briarfield,,53,Briarfield,Fictional,5,,,,,,,,,,,,,,,
null,,confidence_buffer,719580,confidence_buffer,,null,,,,,,,,,,,,,,,,,,
2755.7999999970198,,pt2_unique_rating,722336,Briarfield,,49,,,1,,,,,,,,,,,,,,,
null,,confidence_buffer,722438,confidence_buffer,,null,,,,,,,,,,,,,,,,,,
2008,,pt2_memorable_rating,724447,Briarfield,,51,,,3,,,,,,,,,,,,,,,
null,,confidence_buffer,724548,confidence_buffer,,null,,,,,,,,,,,,,,,,,,
721.6000000089407,,probe_rating,725270,probe_rating,,50,,,,2,1,,,,,,,,,,,,,
null,,confidence_buffer,725372,confidence_buffer,,null,,,,,,,,,,,,,,,,,,
1332.7000000029802,,recognition_phase,726705,Briarfield,,50,,,,,,old,0,0.7321428571428571,,,,,,,,,,
null,,confidence_buffer,726807,confidence_buffer,,null,,,,,,,,,,,,,,,,,,
null,,thebreak,727308,break,,null,,,,,,,,,,,,,,,,,,
1590,,realistic_rating,728899,Barnard,,53,Barnard,US,5,,,,,,,,,,,,,,,
null,,confidence_buffer,729001,confidence_buffer,,null,,,,,,,,,,,,,,,,,,
4104,,pt2_unique_rating,733106,Barnard,,49,,,1,,,,,,,,,,,,,,,
null,,confidence_buffer,733208,confidence_buffer,,null,,,,,,,,,,,,,,,,,,
1678.9000000059605,,pt2_memorable_rating,734887,Barnard,,51,,,3,,,,,,,,,,,,,,,
null,,confidence_buffer,734989,confidence_buffer,,null,,,,,,,,,,,,,,,,,,
1570,,recognition_phase,736559,Barnard,,52,,,,,,new,1,0.7368421052631579,,,,,,,,,,
null,,confidence_buffer,736661,confidence_buffer,,null,,,,,,,,,,,,,,,,,,
null,,thebreak,737162,break,,null,,,,,,,,,,,,,,,,,,
1386.699999988079,,realistic_rating,738550,Hilo,,53,Hilo,US,5,,,,,,,,,,,,,,,
null,,confidence_buffer,738651,confidence_buffer,,null,,,,,,,,,,,,,,,,,,
2021.1000000089407,,pt2_unique_rating,740673,Hilo,,52,,,4,,,,,,,,,,,,,,,
null,,confidence_buffer,740774,confidence_buffer,,null,,,,,,,,,,,,,,,,,,
2242.3999999910593,,pt2_memorable_rating,743017,Hilo,,52,,,4,,,,,,,,,,,,,,,
null,,confidence_buffer,743118,confidence_buffer,,null,,,,,,,,,,,,,,,,,,
941.5999999940395,,probe_rating,744061,probe_rating,,49,,,,1,1,,,,,,,,,,,,,
null,,confidence_buffer,744163,confidence_buffer,,null,,,,,,,,,,,,,,,,,,
1749,,recognition_phase,745912,Hilo,,49,,,,,,old,1,0.7413793103448276,,,,,,,,,,
null,,confidence_buffer,746014,confidence_buffer,,null,,,,,,,,,,,,,,,,,,
null,,thebreak,746515,break,,null,,,,,,,,,,,,,,,,,,
1396,,realistic_rating,747912,West Talora,,53,West Talora,Fictional,5,,,,,,,,,,,,,,,
null,,confidence_buffer,748013,confidence_buffer,,null,,,,,,,,,,,,,,,,,,
2608.199999988079,,pt2_unique_rating,750622,West Talora,,52,,,4,,,,,,,,,,,,,,,
null,,confidence_buffer,750723,confidence_buffer,,null,,,,,,,,,,,,,,,,,,
2650.7000000029802,,pt2_memorable_rating,753374,West Talora,,50,,,2,,,,,,,,,,,,,,,
null,,confidence_buffer,753476,confidence_buffer,,null,,,,,,,,,,,,,,,,,,
1391.7000000029802,,recognition_phase,754868,West Talora,,49,,,,,,old,1,0.7457627118644068,,,,,,,,,,
null,,confidence_buffer,754971,confidence_buffer,,null,,,,,,,,,,,,,,,,,,
null,,thebreak,755473,break,,null,,,,,,,,,,,,,,,,,,
1332.7999999970198,,realistic_rating,756806,Hollendale,,53,Hollendale,Fictional,5,,,,,,,,,,,,,,,
null,,confidence_buffer,756908,confidence_buffer,,null,,,,,,,,,,,,,,,,,,
2544.7999999970198,,pt2_unique_rating,759453,Hollendale,,51,,,3,,,,,,,,,,,,,,,
null,,confidence_buffer,759555,confidence_buffer,,null,,,,,,,,,,,,,,,,,,
1361.5,,pt2_memorable_rating,760917,Hollendale,,51,,,3,,,,,,,,,,,,,,,
null,,confidence_buffer,761018,confidence_buffer,,null,,,,,,,,,,,,,,,,,,
1378.7000000029802,,recognition_phase,762397,Hollendale,,49,,,,,,old,1,0.75,,,,,,,,,,
null,,confidence_buffer,762498,confidence_buffer,,null,,,,,,,,,,,,,,,,,,
null,,thebreak,763000,break,,null,,,,,,,,,,,,,,,,,,
,,survey,918322,survey-questions,,,,,,,,,,,none,high,No,No strategy, I just went with my intuition and what I know.,Do  know this city?,Do I remember hearing this city before?,Is this something I don't hear often or ever,All of it is realistic as there are cities with much more absurd names.,no,no
