rt,responses,trial_type,time_elapsed,stimulus,button_pressed,key_press,name_trial,city_type,rating,probe,probe_accuracy,response,correct,accuracy,problems,smooth,distraction,strategies,familiar,memorable,unique,realistic,similar,comments
5281.600000023842,{worker_id:5e00f9a211999fcea4169800},id_enter,5288,,,,,,,,,,,,,,,,,,,,,
23275.5,,fullscreen,28572,fullscreen,0,,,,,,,,,,,,,,,,,,,
8051.699999988079,,intro_0,36740,instruct,,32,,,,,,,,,,,,,,,,,,
39696.19999998808,,intro_1,76439,instruct,,32,,,,,,,,,,,,,,,,,,
9222.600000023842,,intro_2,85664,instruct,,32,,,,,,,,,,,,,,,,,,
null,,instruct_dir_4,87168,instruct,,null,,,,,,,,,,,,,,,,,,
null,,thebreak,87670,break,,null,,,,,,,,,,,,,,,,,,
9900.300000011921,,familiar_rating,97572,Meadowspire,,49,Meadowspire,Fictional,1,,,,,,,,,,,,,,,
null,,confidence_buffer,97675,confidence_buffer,,null,,,,,,,,,,,,,,,,,,
7379.600000023842,,unique_rating,105057,Meadowspire,,53,,,5,,,,,,,,,,,,,,,
null,,confidence_buffer,105160,confidence_buffer,,null,,,,,,,,,,,,,,,,,,
4897.800000011921,,memorable_rating,110060,Meadowspire,,51,,,3,,,,,,,,,,,,,,,
null,,confidence_buffer,110162,confidence_buffer,,null,,,,,,,,,,,,,,,,,,
null,,thebreak,110664,break,,null,,,,,,,,,,,,,,,,,,
4633.300000011921,,familiar_rating,115299,Elmsbury,,50,Elmsbury,Fictional,2,,,,,,,,,,,,,,,
null,,confidence_buffer,115401,confidence_buffer,,null,,,,,,,,,,,,,,,,,,
8441.900000035763,,unique_rating,123845,Elmsbury,,51,,,3,,,,,,,,,,,,,,,
null,,confidence_buffer,123947,confidence_buffer,,null,,,,,,,,,,,,,,,,,,
4555.800000011921,,memorable_rating,128504,Elmsbury,,50,,,2,,,,,,,,,,,,,,,
null,,confidence_buffer,128608,confidence_buffer,,null,,,,,,,,,,,,,,,,,,
null,,thebreak,129110,break,,null,,,,,,,,,,,,,,,,,,
5717.200000047684,,familiar_rating,134829,Newport,,52,Newport,US,4,,,,,,,,,,,,,,,
null,,confidence_buffer,134932,confidence_buffer,,null,,,,,,,,,,,,,,,,,,
3773.199999988079,,unique_rating,138707,Newport,,49,,,1,,,,,,,,,,,,,,,
null,,confidence_buffer,138810,confidence_buffer,,null,,,,,,,,,,,,,,,,,,
4852.599999964237,,memorable_rating,143665,Newport,,52,,,4,,,,,,,,,,,,,,,
null,,confidence_buffer,143768,confidence_buffer,,null,,,,,,,,,,,,,,,,,,
null,,thebreak,144270,break,,null,,,,,,,,,,,,,,,,,,
4275.5,,familiar_rating,148547,Hanover,,53,Hanover,US,5,,,,,,,,,,,,,,,
null,,confidence_buffer,148651,confidence_buffer,,null,,,,,,,,,,,,,,,,,,
7551.800000011921,,unique_rating,156205,Hanover,,49,,,1,,,,,,,,,,,,,,,
null,,confidence_buffer,156307,confidence_buffer,,null,,,,,,,,,,,,,,,,,,
3732.599999964237,,memorable_rating,160041,Hanover,,53,,,5,,,,,,,,,,,,,,,
null,,confidence_buffer,160144,confidence_buffer,,null,,,,,,,,,,,,,,,,,,
null,,thebreak,160646,break,,null,,,,,,,,,,,,,,,,,,
3347.199999988079,,familiar_rating,163995,Tamarisk Hills,,49,Tamarisk Hills,Fictional,1,,,,,,,,,,,,,,,
null,,confidence_buffer,164098,confidence_buffer,,null,,,,,,,,,,,,,,,,,,
4272.800000011921,,unique_rating,168372,Tamarisk Hills,,50,,,2,,,,,,,,,,,,,,,
null,,confidence_buffer,168475,confidence_buffer,,null,,,,,,,,,,,,,,,,,,
5863.899999976158,,memorable_rating,174341,Tamarisk Hills,,50,,,2,,,,,,,,,,,,,,,
null,,confidence_buffer,174444,confidence_buffer,,null,,,,,,,,,,,,,,,,,,
null,,thebreak,174946,break,,null,,,,,,,,,,,,,,,,,,
3903.199999988079,,familiar_rating,178851,Watkins Glen,,49,Watkins Glen,US,1,,,,,,,,,,,,,,,
null,,confidence_buffer,178955,confidence_buffer,,null,,,,,,,,,,,,,,,,,,
4113.400000035763,,unique_rating,183069,Watkins Glen,,51,,,3,,,,,,,,,,,,,,,
null,,confidence_buffer,183172,confidence_buffer,,null,,,,,,,,,,,,,,,,,,
5786.900000035763,,memorable_rating,188961,Watkins Glen,,51,,,3,,,,,,,,,,,,,,,
null,,confidence_buffer,189063,confidence_buffer,,null,,,,,,,,,,,,,,,,,,
null,,thebreak,189565,break,,null,,,,,,,,,,,,,,,,,,
4598,,familiar_rating,194164,Oakridge,,53,Oakridge,Fictional,5,,,,,,,,,,,,,,,
null,,confidence_buffer,194267,confidence_buffer,,null,,,,,,,,,,,,,,,,,,
6181.400000035763,,probe_rating,200451,probe_rating,,50,,,,2,1,,,,,,,,,,,,,
null,,confidence_buffer,200555,confidence_buffer,,null,,,,,,,,,,,,,,,,,,
10510.299999952316,,unique_rating,211067,Oakridge,,50,,,2,,,,,,,,,,,,,,,
null,,confidence_buffer,211168,confidence_buffer,,null,,,,,,,,,,,,,,,,,,
3647.899999976158,,memorable_rating,214818,Oakridge,,52,,,4,,,,,,,,,,,,,,,
null,,confidence_buffer,214921,confidence_buffer,,null,,,,,,,,,,,,,,,,,,
null,,thebreak,215423,break,,null,,,,,,,,,,,,,,,,,,
4754.300000011921,,familiar_rating,220179,Park City,,53,Park City,US,5,,,,,,,,,,,,,,,
null,,confidence_buffer,220282,confidence_buffer,,null,,,,,,,,,,,,,,,,,,
3436.300000011921,,unique_rating,223719,Park City,,49,,,1,,,,,,,,,,,,,,,
null,,confidence_buffer,223822,confidence_buffer,,null,,,,,,,,,,,,,,,,,,
4074.100000023842,,memorable_rating,227898,Park City,,52,,,4,,,,,,,,,,,,,,,
null,,confidence_buffer,228001,confidence_buffer,,null,,,,,,,,,,,,,,,,,,
4463.800000011921,,probe_rating,232467,probe_rating,,53,,,,5,1,,,,,,,,,,,,,
null,,confidence_buffer,232570,confidence_buffer,,null,,,,,,,,,,,,,,,,,,
null,,thebreak,233072,break,,null,,,,,,,,,,,,,,,,,,
9209.800000011921,,familiar_rating,242283,Silverpine,,50,Silverpine,Fictional,2,,,,,,,,,,,,,,,
null,,confidence_buffer,242386,confidence_buffer,,null,,,,,,,,,,,,,,,,,,
3863.300000011921,,unique_rating,246251,Silverpine,,50,,,2,,,,,,,,,,,,,,,
null,,confidence_buffer,246354,confidence_buffer,,null,,,,,,,,,,,,,,,,,,
5443.599999964237,,memorable_rating,251799,Silverpine,,51,,,3,,,,,,,,,,,,,,,
null,,confidence_buffer,251902,confidence_buffer,,null,,,,,,,,,,,,,,,,,,
null,,thebreak,252404,break,,null,,,,,,,,,,,,,,,,,,
6579.5,,familiar_rating,258985,Linden Trace,,49,Linden Trace,Fictional,1,,,,,,,,,,,,,,,
null,,confidence_buffer,259088,confidence_buffer,,null,,,,,,,,,,,,,,,,,,
8759.5,,unique_rating,267849,Linden Trace,,51,,,3,,,,,,,,,,,,,,,
null,,confidence_buffer,267952,confidence_buffer,,null,,,,,,,,,,,,,,,,,,
4413.5,,memorable_rating,272367,Linden Trace,,51,,,3,,,,,,,,,,,,,,,
null,,confidence_buffer,272469,confidence_buffer,,null,,,,,,,,,,,,,,,,,,
null,,thebreak,272971,break,,null,,,,,,,,,,,,,,,,,,
7730.800000011921,,familiar_rating,280703,Sammamish,,53,Sammamish,US,5,,,,,,,,,,,,,,,
null,,confidence_buffer,280806,confidence_buffer,,null,,,,,,,,,,,,,,,,,,
6632.200000047684,,unique_rating,287440,Sammamish,,53,,,5,,,,,,,,,,,,,,,
null,,confidence_buffer,287542,confidence_buffer,,null,,,,,,,,,,,,,,,,,,
3934.199999988079,,memorable_rating,291478,Sammamish,,52,,,4,,,,,,,,,,,,,,,
null,,confidence_buffer,291581,confidence_buffer,,null,,,,,,,,,,,,,,,,,,
2733,,probe_rating,294316,probe_rating,,50,,,,2,1,,,,,,,,,,,,,
null,,confidence_buffer,294418,confidence_buffer,,null,,,,,,,,,,,,,,,,,,
null,,thebreak,294921,break,,null,,,,,,,,,,,,,,,,,,
6890.5,,familiar_rating,301813,Montelake,,53,Montelake,Fictional,5,,,,,,,,,,,,,,,
null,,confidence_buffer,301916,confidence_buffer,,null,,,,,,,,,,,,,,,,,,
8530.399999976158,,unique_rating,310448,Montelake,,51,,,3,,,,,,,,,,,,,,,
null,,confidence_buffer,310551,confidence_buffer,,null,,,,,,,,,,,,,,,,,,
4233,,memorable_rating,314785,Montelake,,52,,,4,,,,,,,,,,,,,,,
null,,confidence_buffer,314888,confidence_buffer,,null,,,,,,,,,,,,,,,,,,
null,,thebreak,315390,break,,null,,,,,,,,,,,,,,,,,,
6120.100000023842,,familiar_rating,321512,Alliance,,49,Alliance,US,1,,,,,,,,,,,,,,,
null,,confidence_buffer,321615,confidence_buffer,,null,,,,,,,,,,,,,,,,,,
3601.800000011921,,unique_rating,325218,Alliance,,50,,,2,,,,,,,,,,,,,,,
null,,confidence_buffer,325322,confidence_buffer,,null,,,,,,,,,,,,,,,,,,
2703.899999976158,,memorable_rating,328027,Alliance,,50,,,2,,,,,,,,,,,,,,,
null,,confidence_buffer,328129,confidence_buffer,,null,,,,,,,,,,,,,,,,,,
null,,thebreak,328632,break,,null,,,,,,,,,,,,,,,,,,
4106.199999988079,,familiar_rating,332739,Hollendale,,50,Hollendale,Fictional,2,,,,,,,,,,,,,,,
null,,confidence_buffer,332843,confidence_buffer,,null,,,,,,,,,,,,,,,,,,
3455.599999964237,,unique_rating,336300,Hollendale,,51,,,3,,,,,,,,,,,,,,,
null,,confidence_buffer,336402,confidence_buffer,,null,,,,,,,,,,,,,,,,,,
3515.699999988079,,memorable_rating,339920,Hollendale,,51,,,3,,,,,,,,,,,,,,,
null,,confidence_buffer,340022,confidence_buffer,,null,,,,,,,,,,,,,,,,,,
null,,thebreak,340524,break,,null,,,,,,,,,,,,,,,,,,
6640.300000011921,,familiar_rating,347166,Cornwall,,53,Cornwall,US,5,,,,,,,,,,,,,,,
null,,confidence_buffer,347268,confidence_buffer,,null,,,,,,,,,,,,,,,,,,
3809.300000011921,,unique_rating,351079,Cornwall,,51,,,3,,,,,,,,,,,,,,,
null,,confidence_buffer,351182,confidence_buffer,,null,,,,,,,,,,,,,,,,,,
4043.100000023842,,memorable_rating,355226,Cornwall,,50,,,2,,,,,,,,,,,,,,,
null,,confidence_buffer,355328,confidence_buffer,,null,,,,,,,,,,,,,,,,,,
3098.199999988079,,probe_rating,358428,probe_rating,,51,,,,3,1,,,,,,,,,,,,,
null,,confidence_buffer,358531,confidence_buffer,,null,,,,,,,,,,,,,,,,,,
null,,thebreak,359033,break,,null,,,,,,,,,,,,,,,,,,
6863.5,,familiar_rating,365898,Juniper Creek,,51,Juniper Creek,Fictional,3,,,,,,,,,,,,,,,
null,,confidence_buffer,366001,confidence_buffer,,null,,,,,,,,,,,,,,,,,,
3666.300000011921,,unique_rating,369668,Juniper Creek,,51,,,3,,,,,,,,,,,,,,,
null,,confidence_buffer,369771,confidence_buffer,,null,,,,,,,,,,,,,,,,,,
2216.199999988079,,memorable_rating,371989,Juniper Creek,,51,,,3,,,,,,,,,,,,,,,
null,,confidence_buffer,372092,confidence_buffer,,null,,,,,,,,,,,,,,,,,,
null,,thebreak,372595,break,,null,,,,,,,,,,,,,,,,,,
3101.099999964237,,familiar_rating,375697,Hawthorne Bluffs,,49,Hawthorne Bluffs,Fictional,1,,,,,,,,,,,,,,,
null,,confidence_buffer,375801,confidence_buffer,,null,,,,,,,,,,,,,,,,,,
3520.199999988079,,unique_rating,379323,Hawthorne Bluffs,,51,,,3,,,,,,,,,,,,,,,
null,,confidence_buffer,379425,confidence_buffer,,null,,,,,,,,,,,,,,,,,,
4946.300000011921,,memorable_rating,384373,Hawthorne Bluffs,,52,,,4,,,,,,,,,,,,,,,
null,,confidence_buffer,384475,confidence_buffer,,null,,,,,,,,,,,,,,,,,,
null,,thebreak,384978,break,,null,,,,,,,,,,,,,,,,,,
5469.600000023842,,familiar_rating,390449,Redgrove,,51,Redgrove,Fictional,3,,,,,,,,,,,,,,,
null,,confidence_buffer,390552,confidence_buffer,,null,,,,,,,,,,,,,,,,,,
4372.300000011921,,unique_rating,394925,Redgrove,,50,,,2,,,,,,,,,,,,,,,
null,,confidence_buffer,395028,confidence_buffer,,null,,,,,,,,,,,,,,,,,,
2262.099999964237,,memorable_rating,397291,Redgrove,,51,,,3,,,,,,,,,,,,,,,
null,,confidence_buffer,397394,confidence_buffer,,null,,,,,,,,,,,,,,,,,,
null,,thebreak,397896,break,,null,,,,,,,,,,,,,,,,,,
5063.5,,familiar_rating,402961,Claywater,,49,Claywater,Fictional,1,,,,,,,,,,,,,,,
null,,confidence_buffer,403064,confidence_buffer,,null,,,,,,,,,,,,,,,,,,
4434.199999988079,,unique_rating,407500,Claywater,,50,,,2,,,,,,,,,,,,,,,
null,,confidence_buffer,407602,confidence_buffer,,null,,,,,,,,,,,,,,,,,,
3443.399999976158,,memorable_rating,411047,Claywater,,51,,,3,,,,,,,,,,,,,,,
null,,confidence_buffer,411149,confidence_buffer,,null,,,,,,,,,,,,,,,,,,
null,,thebreak,411652,break,,null,,,,,,,,,,,,,,,,,,
3199.699999988079,,familiar_rating,414853,Driftwood Bay,,49,Driftwood Bay,Fictional,1,,,,,,,,,,,,,,,
null,,confidence_buffer,414956,confidence_buffer,,null,,,,,,,,,,,,,,,,,,
5687.5,,unique_rating,420645,Driftwood Bay,,50,,,2,,,,,,,,,,,,,,,
null,,confidence_buffer,420748,confidence_buffer,,null,,,,,,,,,,,,,,,,,,
3299.599999964237,,memorable_rating,424049,Driftwood Bay,,51,,,3,,,,,,,,,,,,,,,
null,,confidence_buffer,424152,confidence_buffer,,null,,,,,,,,,,,,,,,,,,
null,,thebreak,424655,break,,null,,,,,,,,,,,,,,,,,,
3044.199999988079,,familiar_rating,427701,Ashford Hills,,49,Ashford Hills,Fictional,1,,,,,,,,,,,,,,,
null,,confidence_buffer,427804,confidence_buffer,,null,,,,,,,,,,,,,,,,,,
4192,,unique_rating,431998,Ashford Hills,,50,,,2,,,,,,,,,,,,,,,
null,,confidence_buffer,432101,confidence_buffer,,null,,,,,,,,,,,,,,,,,,
2113.899999976158,,memorable_rating,434217,Ashford Hills,,51,,,3,,,,,,,,,,,,,,,
null,,confidence_buffer,434319,confidence_buffer,,null,,,,,,,,,,,,,,,,,,
null,,thebreak,434821,break,,null,,,,,,,,,,,,,,,,,,
2727.400000035763,,familiar_rating,437549,Highvale,,49,Highvale,Fictional,1,,,,,,,,,,,,,,,
null,,confidence_buffer,437652,confidence_buffer,,null,,,,,,,,,,,,,,,,,,
5620.300000011921,,unique_rating,443274,Highvale,,50,,,2,,,,,,,,,,,,,,,
null,,confidence_buffer,443386,confidence_buffer,,null,,,,,,,,,,,,,,,,,,
2926.199999988079,,memorable_rating,446318,Highvale,,51,,,3,,,,,,,,,,,,,,,
null,,confidence_buffer,446420,confidence_buffer,,null,,,,,,,,,,,,,,,,,,
null,,thebreak,446922,break,,null,,,,,,,,,,,,,,,,,,
5149.099999964237,,familiar_rating,452073,Delaware City,,53,Delaware City,US,5,,,,,,,,,,,,,,,
null,,confidence_buffer,452176,confidence_buffer,,null,,,,,,,,,,,,,,,,,,
5074.799999952316,,unique_rating,457252,Delaware City,,49,,,1,,,,,,,,,,,,,,,
null,,confidence_buffer,457354,confidence_buffer,,null,,,,,,,,,,,,,,,,,,
5414.399999976158,,memorable_rating,462770,Delaware City,,53,,,5,,,,,,,,,,,,,,,
null,,confidence_buffer,462873,confidence_buffer,,null,,,,,,,,,,,,,,,,,,
null,,thebreak,463375,break,,null,,,,,,,,,,,,,,,,,,
4755.5,,familiar_rating,468133,Manistee,,50,Manistee,US,2,,,,,,,,,,,,,,,
null,,confidence_buffer,468236,confidence_buffer,,null,,,,,,,,,,,,,,,,,,
8385.600000023842,,unique_rating,476623,Manistee,,53,,,5,,,,,,,,,,,,,,,
null,,confidence_buffer,476726,confidence_buffer,,null,,,,,,,,,,,,,,,,,,
2974.900000035763,,memorable_rating,479702,Manistee,,52,,,4,,,,,,,,,,,,,,,
null,,confidence_buffer,479805,confidence_buffer,,null,,,,,,,,,,,,,,,,,,
null,,thebreak,480307,break,,null,,,,,,,,,,,,,,,,,,
6092.199999988079,,familiar_rating,486401,Berkeley Springs,,51,Berkeley Springs,US,3,,,,,,,,,,,,,,,
null,,confidence_buffer,486503,confidence_buffer,,null,,,,,,,,,,,,,,,,,,
7517.600000023842,,unique_rating,494023,Berkeley Springs,,50,,,2,,,,,,,,,,,,,,,
null,,confidence_buffer,494125,confidence_buffer,,null,,,,,,,,,,,,,,,,,,
1790.9000000357628,,memorable_rating,495917,Berkeley Springs,,50,,,2,,,,,,,,,,,,,,,
null,,confidence_buffer,496020,confidence_buffer,,null,,,,,,,,,,,,,,,,,,
null,,thebreak,496522,break,,null,,,,,,,,,,,,,,,,,,
3196.5,,familiar_rating,499720,Hilo,,49,Hilo,US,1,,,,,,,,,,,,,,,
null,,confidence_buffer,499822,confidence_buffer,,null,,,,,,,,,,,,,,,,,,
5810.199999988079,,unique_rating,505634,Hilo,,52,,,4,,,,,,,,,,,,,,,
null,,confidence_buffer,505737,confidence_buffer,,null,,,,,,,,,,,,,,,,,,
2021.7999999523163,,memorable_rating,507760,Hilo,,51,,,3,,,,,,,,,,,,,,,
null,,confidence_buffer,507862,confidence_buffer,,null,,,,,,,,,,,,,,,,,,
null,,thebreak,508364,break,,null,,,,,,,,,,,,,,,,,,
5738.199999988079,,familiar_rating,514104,Assateague Island,,53,Assateague Island,US,5,,,,,,,,,,,,,,,
null,,confidence_buffer,514207,confidence_buffer,,null,,,,,,,,,,,,,,,,,,
5376.899999976158,,probe_rating,519586,probe_rating,,53,,,,5,1,,,,,,,,,,,,,
null,,confidence_buffer,519690,confidence_buffer,,null,,,,,,,,,,,,,,,,,,
7449,,unique_rating,527140,Assateague Island,,53,,,5,,,,,,,,,,,,,,,
null,,confidence_buffer,527243,confidence_buffer,,null,,,,,,,,,,,,,,,,,,
4182.600000023842,,memorable_rating,531427,Assateague Island,,51,,,3,,,,,,,,,,,,,,,
null,,confidence_buffer,531529,confidence_buffer,,null,,,,,,,,,,,,,,,,,,
null,,thebreak,532031,break,,null,,,,,,,,,,,,,,,,,,
3640.699999988079,,familiar_rating,535673,Medora,,50,Medora,US,2,,,,,,,,,,,,,,,
null,,confidence_buffer,535776,confidence_buffer,,null,,,,,,,,,,,,,,,,,,
266.19999998807907,,unique_rating,536044,Medora,,50,,,2,,,,,,,,,,,,,,,
null,,confidence_buffer,536146,confidence_buffer,,null,,,,,,,,,,,,,,,,,,
40.19999998807907,,memorable_rating,536188,Medora,,50,,,2,,,,,,,,,,,,,,,
null,,confidence_buffer,536303,confidence_buffer,,null,,,,,,,,,,,,,,,,,,
null,,thebreak,536804,break,,null,,,,,,,,,,,,,,,,,,
5677.800000011921,,familiar_rating,542484,Abilene,,50,Abilene,US,2,,,,,,,,,,,,,,,
null,,confidence_buffer,542587,confidence_buffer,,null,,,,,,,,,,,,,,,,,,
2751.600000023842,,unique_rating,545340,Abilene,,50,,,2,,,,,,,,,,,,,,,
null,,confidence_buffer,545443,confidence_buffer,,null,,,,,,,,,,,,,,,,,,
1460.199999988079,,memorable_rating,546904,Abilene,,50,,,2,,,,,,,,,,,,,,,
null,,confidence_buffer,547007,confidence_buffer,,null,,,,,,,,,,,,,,,,,,
null,,thebreak,547509,break,,null,,,,,,,,,,,,,,,,,,
6906.099999964237,,familiar_rating,554417,Albuquerque,,53,Albuquerque,US,5,,,,,,,,,,,,,,,
null,,confidence_buffer,554520,confidence_buffer,,null,,,,,,,,,,,,,,,,,,
4521.5,,unique_rating,559043,Albuquerque,,52,,,4,,,,,,,,,,,,,,,
null,,confidence_buffer,559146,confidence_buffer,,null,,,,,,,,,,,,,,,,,,
5146.199999988079,,memorable_rating,564294,Albuquerque,,51,,,3,,,,,,,,,,,,,,,
null,,confidence_buffer,564395,confidence_buffer,,null,,,,,,,,,,,,,,,,,,
null,,thebreak,564897,break,,null,,,,,,,,,,,,,,,,,,
4275.699999988079,,intro_0,569174,instruct,,32,,,,,,,,,,,,,,,,,,
14490.699999988079,,intro_1,583667,instruct,,32,,,,,,,,,,,,,,,,,,
34420.69999998808,,intro_2,618089,instruct,,32,,,,,,,,,,,,,,,,,,
null,,instruct_dir_4,619591,instruct,,null,,,,,,,,,,,,,,,,,,
6584.400000035763,,realistic_rating,626178,New Verdan,,50,New Verdan,Fictional,2,,,,,,,,,,,,,,,
null,,confidence_buffer,626281,confidence_buffer,,null,,,,,,,,,,,,,,,,,,
3733.7000000476837,,pt2_unique_rating,630016,New Verdan,,50,,,2,,,,,,,,,,,,,,,
null,,confidence_buffer,630119,confidence_buffer,,null,,,,,,,,,,,,,,,,,,
2665.2999999523163,,pt2_memorable_rating,632786,New Verdan,,50,,,2,,,,,,,,,,,,,,,
null,,confidence_buffer,632889,confidence_buffer,,null,,,,,,,,,,,,,,,,,,
5434.099999964237,,recognition_phase,638325,New Verdan,,52,,,,,,new,1,1,,,,,,,,,,
null,,confidence_buffer,638427,confidence_buffer,,null,,,,,,,,,,,,,,,,,,
null,,thebreak,638930,break,,null,,,,,,,,,,,,,,,,,,
4582.600000023842,,realistic_rating,643514,Newport,,53,Newport,US,5,,,,,,,,,,,,,,,
null,,confidence_buffer,643616,confidence_buffer,,null,,,,,,,,,,,,,,,,,,
5565.599999964237,,pt2_unique_rating,649184,Newport,,49,,,1,,,,,,,,,,,,,,,
null,,confidence_buffer,649286,confidence_buffer,,null,,,,,,,,,,,,,,,,,,
3349.300000011921,,pt2_memorable_rating,652637,Newport,,51,,,3,,,,,,,,,,,,,,,
null,,confidence_buffer,652740,confidence_buffer,,null,,,,,,,,,,,,,,,,,,
3599.5,,recognition_phase,656341,Newport,,49,,,,,,old,1,1,,,,,,,,,,
null,,confidence_buffer,656444,confidence_buffer,,null,,,,,,,,,,,,,,,,,,
null,,thebreak,656946,break,,null,,,,,,,,,,,,,,,,,,
4982,,realistic_rating,661931,Ravenport,,52,Ravenport,Fictional,4,,,,,,,,,,,,,,,
null,,confidence_buffer,662033,confidence_buffer,,null,,,,,,,,,,,,,,,,,,
3776.899999976158,,pt2_unique_rating,665812,Ravenport,,51,,,3,,,,,,,,,,,,,,,
null,,confidence_buffer,665914,confidence_buffer,,null,,,,,,,,,,,,,,,,,,
3136.699999988079,,pt2_memorable_rating,669053,Ravenport,,51,,,3,,,,,,,,,,,,,,,
null,,confidence_buffer,669155,confidence_buffer,,null,,,,,,,,,,,,,,,,,,
4789.600000023842,,recognition_phase,673947,Ravenport,,52,,,,,,new,1,1,,,,,,,,,,
null,,confidence_buffer,674049,confidence_buffer,,null,,,,,,,,,,,,,,,,,,
null,,thebreak,674552,break,,null,,,,,,,,,,,,,,,,,,
7944.300000011921,,realistic_rating,682498,Ashford Hills,,52,Ashford Hills,Fictional,4,,,,,,,,,,,,,,,
null,,confidence_buffer,682601,confidence_buffer,,null,,,,,,,,,,,,,,,,,,
4954.399999976158,,pt2_unique_rating,687556,Ashford Hills,,50,,,2,,,,,,,,,,,,,,,
null,,confidence_buffer,687659,confidence_buffer,,null,,,,,,,,,,,,,,,,,,
3545.5,,pt2_memorable_rating,691206,Ashford Hills,,52,,,4,,,,,,,,,,,,,,,
null,,confidence_buffer,691309,confidence_buffer,,null,,,,,,,,,,,,,,,,,,
5925.099999964237,,recognition_phase,697235,Ashford Hills,,50,,,,,,old,1,1,,,,,,,,,,
null,,confidence_buffer,697338,confidence_buffer,,null,,,,,,,,,,,,,,,,,,
null,,thebreak,697841,break,,null,,,,,,,,,,,,,,,,,,
8148.5,,realistic_rating,705991,Juniper Creek,,53,Juniper Creek,Fictional,5,,,,,,,,,,,,,,,
null,,confidence_buffer,706095,confidence_buffer,,null,,,,,,,,,,,,,,,,,,
5514.100000023842,,pt2_unique_rating,711611,Juniper Creek,,50,,,2,,,,,,,,,,,,,,,
null,,confidence_buffer,711713,confidence_buffer,,null,,,,,,,,,,,,,,,,,,
3960.800000011921,,pt2_memorable_rating,715676,Juniper Creek,,51,,,3,,,,,,,,,,,,,,,
null,,confidence_buffer,715779,confidence_buffer,,null,,,,,,,,,,,,,,,,,,
6565.699999988079,,recognition_phase,722346,Juniper Creek,,51,,,,,,new,0,0.8,,,,,,,,,,
null,,confidence_buffer,722449,confidence_buffer,,null,,,,,,,,,,,,,,,,,,
null,,thebreak,722951,break,,null,,,,,,,,,,,,,,,,,,
6062.199999988079,,realistic_rating,729015,Barnard,,52,Barnard,US,4,,,,,,,,,,,,,,,
null,,confidence_buffer,729118,confidence_buffer,,null,,,,,,,,,,,,,,,,,,
4488.699999988079,,pt2_unique_rating,733608,Barnard,,51,,,3,,,,,,,,,,,,,,,
null,,confidence_buffer,733711,confidence_buffer,,null,,,,,,,,,,,,,,,,,,
1928,,pt2_memorable_rating,735640,Barnard,,51,,,3,,,,,,,,,,,,,,,
null,,confidence_buffer,735742,confidence_buffer,,null,,,,,,,,,,,,,,,,,,
3745.300000011921,,recognition_phase,739489,Barnard,,52,,,,,,new,1,0.8333333333333334,,,,,,,,,,
null,,confidence_buffer,739592,confidence_buffer,,null,,,,,,,,,,,,,,,,,,
null,,thebreak,740094,break,,null,,,,,,,,,,,,,,,,,,
5429.400000035763,,realistic_rating,745525,Hawthorne Bluffs,,53,Hawthorne Bluffs,Fictional,5,,,,,,,,,,,,,,,
null,,confidence_buffer,745627,confidence_buffer,,null,,,,,,,,,,,,,,,,,,
3869.5,,pt2_unique_rating,749498,Hawthorne Bluffs,,50,,,2,,,,,,,,,,,,,,,
null,,confidence_buffer,749601,confidence_buffer,,null,,,,,,,,,,,,,,,,,,
3197.2000000476837,,pt2_memorable_rating,752799,Hawthorne Bluffs,,51,,,3,,,,,,,,,,,,,,,
null,,confidence_buffer,752902,confidence_buffer,,null,,,,,,,,,,,,,,,,,,
1969.300000011921,,recognition_phase,754873,Hawthorne Bluffs,,49,,,,,,old,1,0.8571428571428571,,,,,,,,,,
null,,confidence_buffer,754975,confidence_buffer,,null,,,,,,,,,,,,,,,,,,
null,,thebreak,755478,break,,null,,,,,,,,,,,,,,,,,,
5813.600000023842,,realistic_rating,761293,Claywater,,52,Claywater,Fictional,4,,,,,,,,,,,,,,,
null,,confidence_buffer,761395,confidence_buffer,,null,,,,,,,,,,,,,,,,,,
4220.600000023842,,pt2_unique_rating,765618,Claywater,,50,,,2,,,,,,,,,,,,,,,
null,,confidence_buffer,765721,confidence_buffer,,null,,,,,,,,,,,,,,,,,,
2420,,pt2_memorable_rating,768142,Claywater,,51,,,3,,,,,,,,,,,,,,,
null,,confidence_buffer,768245,confidence_buffer,,null,,,,,,,,,,,,,,,,,,
4203.699999988079,,recognition_phase,772450,Claywater,,52,,,,,,new,0,0.75,,,,,,,,,,
null,,confidence_buffer,772553,confidence_buffer,,null,,,,,,,,,,,,,,,,,,
null,,thebreak,773056,break,,null,,,,,,,,,,,,,,,,,,
4447,,realistic_rating,777505,West Talora,,51,West Talora,Fictional,3,,,,,,,,,,,,,,,
null,,confidence_buffer,777608,confidence_buffer,,null,,,,,,,,,,,,,,,,,,
2097.100000023842,,pt2_unique_rating,779707,West Talora,,51,,,3,,,,,,,,,,,,,,,
null,,confidence_buffer,779809,confidence_buffer,,null,,,,,,,,,,,,,,,,,,
4122,,pt2_memorable_rating,783933,West Talora,,50,,,2,,,,,,,,,,,,,,,
null,,confidence_buffer,784036,confidence_buffer,,null,,,,,,,,,,,,,,,,,,
4144,,recognition_phase,788181,West Talora,,52,,,,,,new,1,0.7777777777777778,,,,,,,,,,
null,,confidence_buffer,788283,confidence_buffer,,null,,,,,,,,,,,,,,,,,,
null,,thebreak,788786,break,,null,,,,,,,,,,,,,,,,,,
3507.699999988079,,realistic_rating,792295,Clearbrook,,53,Clearbrook,Fictional,5,,,,,,,,,,,,,,,
null,,confidence_buffer,792398,confidence_buffer,,null,,,,,,,,,,,,,,,,,,
5299.5,,pt2_unique_rating,797699,Clearbrook,,49,,,1,,,,,,,,,,,,,,,
null,,confidence_buffer,797801,confidence_buffer,,null,,,,,,,,,,,,,,,,,,
5470.400000035763,,pt2_memorable_rating,803273,Clearbrook,,52,,,4,,,,,,,,,,,,,,,
null,,confidence_buffer,803376,confidence_buffer,,null,,,,,,,,,,,,,,,,,,
3831.100000023842,,recognition_phase,807208,Clearbrook,,52,,,,,,new,1,0.8,,,,,,,,,,
null,,confidence_buffer,807311,confidence_buffer,,null,,,,,,,,,,,,,,,,,,
null,,thebreak,807813,break,,null,,,,,,,,,,,,,,,,,,
4467.699999988079,,realistic_rating,812282,Orr,,51,Orr,US,3,,,,,,,,,,,,,,,
null,,confidence_buffer,812385,confidence_buffer,,null,,,,,,,,,,,,,,,,,,
1454.2999999523163,,pt2_unique_rating,813841,Orr,,51,,,3,,,,,,,,,,,,,,,
null,,confidence_buffer,813944,confidence_buffer,,null,,,,,,,,,,,,,,,,,,
3102.900000035763,,probe_rating,817048,probe_rating,,53,,,,5,1,,,,,,,,,,,,,
null,,confidence_buffer,817151,confidence_buffer,,null,,,,,,,,,,,,,,,,,,
4380.100000023842,,pt2_memorable_rating,821533,Orr,,50,,,2,,,,,,,,,,,,,,,
null,,confidence_buffer,821636,confidence_buffer,,null,,,,,,,,,,,,,,,,,,
3780.199999988079,,recognition_phase,825417,Orr,,52,,,,,,new,1,0.8181818181818182,,,,,,,,,,
null,,confidence_buffer,825521,confidence_buffer,,null,,,,,,,,,,,,,,,,,,
null,,thebreak,826023,break,,null,,,,,,,,,,,,,,,,,,
4479.900000035763,,realistic_rating,830504,Sunmere,,52,Sunmere,Fictional,4,,,,,,,,,,,,,,,
null,,confidence_buffer,830607,confidence_buffer,,null,,,,,,,,,,,,,,,,,,
8516.5,,pt2_unique_rating,839126,Sunmere,,52,,,4,,,,,,,,,,,,,,,
null,,confidence_buffer,839229,confidence_buffer,,null,,,,,,,,,,,,,,,,,,
8889.899999976158,,pt2_memorable_rating,848120,Sunmere,,51,,,3,,,,,,,,,,,,,,,
null,,confidence_buffer,848222,confidence_buffer,,null,,,,,,,,,,,,,,,,,,
3029.100000023842,,recognition_phase,851252,Sunmere,,52,,,,,,new,1,0.8333333333333334,,,,,,,,,,
null,,confidence_buffer,851356,confidence_buffer,,null,,,,,,,,,,,,,,,,,,
null,,thebreak,851858,break,,null,,,,,,,,,,,,,,,,,,
8207.799999952316,,realistic_rating,860067,Oakridge,,53,Oakridge,Fictional,5,,,,,,,,,,,,,,,
null,,confidence_buffer,860171,confidence_buffer,,null,,,,,,,,,,,,,,,,,,
4055.7000000476837,,pt2_unique_rating,864228,Oakridge,,49,,,1,,,,,,,,,,,,,,,
null,,confidence_buffer,864330,confidence_buffer,,null,,,,,,,,,,,,,,,,,,
4443.900000035763,,probe_rating,868776,probe_rating,,51,,,,3,1,,,,,,,,,,,,,
null,,confidence_buffer,868879,confidence_buffer,,null,,,,,,,,,,,,,,,,,,
4538.300000011921,,pt2_memorable_rating,873418,Oakridge,,52,,,4,,,,,,,,,,,,,,,
null,,confidence_buffer,873521,confidence_buffer,,null,,,,,,,,,,,,,,,,,,
6150.900000035763,,recognition_phase,879673,Oakridge,,51,,,,,,new,0,0.7692307692307693,,,,,,,,,,
null,,confidence_buffer,879777,confidence_buffer,,null,,,,,,,,,,,,,,,,,,
null,,thebreak,880279,break,,null,,,,,,,,,,,,,,,,,,
5344.899999976158,,realistic_rating,885626,Silverpine,,53,Silverpine,Fictional,5,,,,,,,,,,,,,,,
null,,confidence_buffer,885729,confidence_buffer,,null,,,,,,,,,,,,,,,,,,
4428.800000011921,,pt2_unique_rating,890159,Silverpine,,50,,,2,,,,,,,,,,,,,,,
null,,confidence_buffer,890263,confidence_buffer,,null,,,,,,,,,,,,,,,,,,
4389,,pt2_memorable_rating,894653,Silverpine,,51,,,3,,,,,,,,,,,,,,,
null,,confidence_buffer,894756,confidence_buffer,,null,,,,,,,,,,,,,,,,,,
3665.599999964237,,recognition_phase,898423,Silverpine,,51,,,,,,new,0,0.7142857142857143,,,,,,,,,,
null,,confidence_buffer,898525,confidence_buffer,,null,,,,,,,,,,,,,,,,,,
null,,thebreak,899031,break,,null,,,,,,,,,,,,,,,,,,
3693.599999964237,,realistic_rating,902725,Fairhaven,,53,Fairhaven,Fictional,5,,,,,,,,,,,,,,,
null,,confidence_buffer,902828,confidence_buffer,,null,,,,,,,,,,,,,,,,,,
4031.2000000476837,,pt2_unique_rating,906861,Fairhaven,,49,,,1,,,,,,,,,,,,,,,
null,,confidence_buffer,906962,confidence_buffer,,null,,,,,,,,,,,,,,,,,,
3889,,pt2_memorable_rating,910853,Fairhaven,,52,,,4,,,,,,,,,,,,,,,
null,,confidence_buffer,910955,confidence_buffer,,null,,,,,,,,,,,,,,,,,,
4109.599999964237,,recognition_phase,915066,Fairhaven,,50,,,,,,old,0,0.6666666666666666,,,,,,,,,,
null,,confidence_buffer,915169,confidence_buffer,,null,,,,,,,,,,,,,,,,,,
null,,thebreak,915671,break,,null,,,,,,,,,,,,,,,,,,
9642.100000023842,,realistic_rating,925315,Abilene,,52,Abilene,US,4,,,,,,,,,,,,,,,
null,,confidence_buffer,925418,confidence_buffer,,null,,,,,,,,,,,,,,,,,,
3861.800000011921,,pt2_unique_rating,929281,Abilene,,50,,,2,,,,,,,,,,,,,,,
null,,confidence_buffer,929384,confidence_buffer,,null,,,,,,,,,,,,,,,,,,
3174,,pt2_memorable_rating,932559,Abilene,,50,,,2,,,,,,,,,,,,,,,
null,,confidence_buffer,932662,confidence_buffer,,null,,,,,,,,,,,,,,,,,,
8289.199999988079,,recognition_phase,940954,Abilene,,50,,,,,,old,1,0.6875,,,,,,,,,,
null,,confidence_buffer,941056,confidence_buffer,,null,,,,,,,,,,,,,,,,,,
null,,thebreak,941569,break,,null,,,,,,,,,,,,,,,,,,
4465.699999988079,,realistic_rating,946037,Montelake,,53,Montelake,Fictional,5,,,,,,,,,,,,,,,
null,,confidence_buffer,946140,confidence_buffer,,null,,,,,,,,,,,,,,,,,,
5799.100000023842,,pt2_unique_rating,951941,Montelake,,51,,,3,,,,,,,,,,,,,,,
null,,confidence_buffer,952043,confidence_buffer,,null,,,,,,,,,,,,,,,,,,
1997.1000000238419,,probe_rating,954042,probe_rating,,50,,,,2,1,,,,,,,,,,,,,
null,,confidence_buffer,954144,confidence_buffer,,null,,,,,,,,,,,,,,,,,,
3820.199999988079,,pt2_memorable_rating,957966,Montelake,,51,,,3,,,,,,,,,,,,,,,
null,,confidence_buffer,958069,confidence_buffer,,null,,,,,,,,,,,,,,,,,,
3103.400000035763,,recognition_phase,961174,Montelake,,50,,,,,,old,1,0.7058823529411765,,,,,,,,,,
null,,confidence_buffer,961277,confidence_buffer,,null,,,,,,,,,,,,,,,,,,
null,,thebreak,961779,break,,null,,,,,,,,,,,,,,,,,,
2699.699999988079,,realistic_rating,964480,Millstone,,53,Millstone,Fictional,5,,,,,,,,,,,,,,,
null,,confidence_buffer,964584,confidence_buffer,,null,,,,,,,,,,,,,,,,,,
2135.699999988079,,pt2_unique_rating,966721,Millstone,,49,,,1,,,,,,,,,,,,,,,
null,,confidence_buffer,966824,confidence_buffer,,null,,,,,,,,,,,,,,,,,,
2514.899999976158,,pt2_memorable_rating,969341,Millstone,,51,,,3,,,,,,,,,,,,,,,
null,,confidence_buffer,969444,confidence_buffer,,null,,,,,,,,,,,,,,,,,,
3260.199999988079,,recognition_phase,972705,Millstone,,50,,,,,,old,0,0.6666666666666666,,,,,,,,,,
null,,confidence_buffer,972808,confidence_buffer,,null,,,,,,,,,,,,,,,,,,
null,,thebreak,973310,break,,null,,,,,,,,,,,,,,,,,,
5919.300000011921,,realistic_rating,979231,Peoria,,53,Peoria,US,5,,,,,,,,,,,,,,,
null,,confidence_buffer,979335,confidence_buffer,,null,,,,,,,,,,,,,,,,,,
4360,,pt2_unique_rating,983696,Peoria,,50,,,2,,,,,,,,,,,,,,,
null,,confidence_buffer,983799,confidence_buffer,,null,,,,,,,,,,,,,,,,,,
2084.099999964237,,pt2_memorable_rating,985884,Peoria,,51,,,3,,,,,,,,,,,,,,,
null,,confidence_buffer,985987,confidence_buffer,,null,,,,,,,,,,,,,,,,,,
2795.600000023842,,recognition_phase,988784,Peoria,,51,,,,,,new,1,0.6842105263157895,,,,,,,,,,
null,,confidence_buffer,988886,confidence_buffer,,null,,,,,,,,,,,,,,,,,,
null,,thebreak,989388,break,,null,,,,,,,,,,,,,,,,,,
3176.800000011921,,realistic_rating,992566,Boulder,,53,Boulder,US,5,,,,,,,,,,,,,,,
null,,confidence_buffer,992669,confidence_buffer,,null,,,,,,,,,,,,,,,,,,
4599.699999988079,,pt2_unique_rating,997272,Boulder,,50,,,2,,,,,,,,,,,,,,,
null,,confidence_buffer,997374,confidence_buffer,,null,,,,,,,,,,,,,,,,,,
6060.400000035763,,pt2_memorable_rating,1003436,Boulder,,52,,,4,,,,,,,,,,,,,,,
null,,confidence_buffer,1003539,confidence_buffer,,null,,,,,,,,,,,,,,,,,,
3074.800000011921,,recognition_phase,1006615,Boulder,,52,,,,,,new,1,0.7,,,,,,,,,,
null,,confidence_buffer,1006718,confidence_buffer,,null,,,,,,,,,,,,,,,,,,
null,,thebreak,1007221,break,,null,,,,,,,,,,,,,,,,,,
6758.300000011921,,realistic_rating,1013981,East Ladera,,51,East Ladera,Fictional,3,,,,,,,,,,,,,,,
null,,confidence_buffer,1014084,confidence_buffer,,null,,,,,,,,,,,,,,,,,,
4568.300000011921,,pt2_unique_rating,1018654,East Ladera,,52,,,4,,,,,,,,,,,,,,,
null,,confidence_buffer,1018768,confidence_buffer,,null,,,,,,,,,,,,,,,,,,
2905.600000023842,,pt2_memorable_rating,1021675,East Ladera,,51,,,3,,,,,,,,,,,,,,,
null,,confidence_buffer,1021777,confidence_buffer,,null,,,,,,,,,,,,,,,,,,
3836,,recognition_phase,1025615,East Ladera,,52,,,,,,new,1,0.7142857142857143,,,,,,,,,,
null,,confidence_buffer,1025718,confidence_buffer,,null,,,,,,,,,,,,,,,,,,
null,,thebreak,1026221,break,,null,,,,,,,,,,,,,,,,,,
3177.5,,realistic_rating,1029400,Redgrove,,53,Redgrove,Fictional,5,,,,,,,,,,,,,,,
null,,confidence_buffer,1029502,confidence_buffer,,null,,,,,,,,,,,,,,,,,,
2562.5,,pt2_unique_rating,1032066,Redgrove,,49,,,1,,,,,,,,,,,,,,,
null,,confidence_buffer,1032168,confidence_buffer,,null,,,,,,,,,,,,,,,,,,
3760.5,,probe_rating,1035930,probe_rating,,50,,,,2,1,,,,,,,,,,,,,
null,,confidence_buffer,1036033,confidence_buffer,,null,,,,,,,,,,,,,,,,,,
5185.800000011921,,pt2_memorable_rating,1041220,Redgrove,,52,,,4,,,,,,,,,,,,,,,
null,,confidence_buffer,1041322,confidence_buffer,,null,,,,,,,,,,,,,,,,,,
3028,,recognition_phase,1044352,Redgrove,,52,,,,,,new,0,0.6818181818181818,,,,,,,,,,
null,,confidence_buffer,1044454,confidence_buffer,,null,,,,,,,,,,,,,,,,,,
null,,thebreak,1044957,break,,null,,,,,,,,,,,,,,,,,,
3656.599999964237,,realistic_rating,1048615,Alliance,,53,Alliance,US,5,,,,,,,,,,,,,,,
null,,confidence_buffer,1048717,confidence_buffer,,null,,,,,,,,,,,,,,,,,,
6882.800000011921,,pt2_unique_rating,1055602,Alliance,,50,,,2,,,,,,,,,,,,,,,
null,,confidence_buffer,1055705,confidence_buffer,,null,,,,,,,,,,,,,,,,,,
2085,,pt2_memorable_rating,1057792,Alliance,,51,,,3,,,,,,,,,,,,,,,
null,,confidence_buffer,1057894,confidence_buffer,,null,,,,,,,,,,,,,,,,,,
4834.799999952316,,recognition_phase,1062730,Alliance,,49,,,,,,old,1,0.6956521739130435,,,,,,,,,,
null,,confidence_buffer,1062834,confidence_buffer,,null,,,,,,,,,,,,,,,,,,
null,,thebreak,1063336,break,,null,,,,,,,,,,,,,,,,,,
3110.400000035763,,realistic_rating,1066448,Medora,,52,Medora,US,4,,,,,,,,,,,,,,,
null,,confidence_buffer,1066550,confidence_buffer,,null,,,,,,,,,,,,,,,,,,
5170.100000023842,,pt2_unique_rating,1071722,Medora,,51,,,3,,,,,,,,,,,,,,,
null,,confidence_buffer,1071824,confidence_buffer,,null,,,,,,,,,,,,,,,,,,
2471.899999976158,,pt2_memorable_rating,1074298,Medora,,51,,,3,,,,,,,,,,,,,,,
null,,confidence_buffer,1074400,confidence_buffer,,null,,,,,,,,,,,,,,,,,,
3458.7999999523163,,recognition_phase,1077860,Medora,,51,,,,,,new,0,0.6666666666666666,,,,,,,,,,
null,,confidence_buffer,1077963,confidence_buffer,,null,,,,,,,,,,,,,,,,,,
null,,thebreak,1078465,break,,null,,,,,,,,,,,,,,,,,,
4303.5,,realistic_rating,1082771,Cornwall,,53,Cornwall,US,5,,,,,,,,,,,,,,,
null,,confidence_buffer,1082874,confidence_buffer,,null,,,,,,,,,,,,,,,,,,
2598,,pt2_unique_rating,1085473,Cornwall,,49,,,1,,,,,,,,,,,,,,,
null,,confidence_buffer,1085577,confidence_buffer,,null,,,,,,,,,,,,,,,,,,
2413.300000011921,,pt2_memorable_rating,1087991,Cornwall,,52,,,4,,,,,,,,,,,,,,,
null,,confidence_buffer,1088093,confidence_buffer,,null,,,,,,,,,,,,,,,,,,
3303.600000023842,,probe_rating,1091398,probe_rating,,51,,,,3,1,,,,,,,,,,,,,
null,,confidence_buffer,1091502,confidence_buffer,,null,,,,,,,,,,,,,,,,,,
3099.599999964237,,recognition_phase,1094604,Cornwall,,49,,,,,,old,1,0.68,,,,,,,,,,
null,,confidence_buffer,1094706,confidence_buffer,,null,,,,,,,,,,,,,,,,,,
null,,thebreak,1095209,break,,null,,,,,,,,,,,,,,,,,,
3692.400000035763,,realistic_rating,1098903,New Hope,,53,New Hope,US,5,,,,,,,,,,,,,,,
null,,confidence_buffer,1099006,confidence_buffer,,null,,,,,,,,,,,,,,,,,,
3798.399999976158,,pt2_unique_rating,1102806,New Hope,,49,,,1,,,,,,,,,,,,,,,
null,,confidence_buffer,1102910,confidence_buffer,,null,,,,,,,,,,,,,,,,,,
3810.099999964237,,pt2_memorable_rating,1106721,New Hope,,52,,,4,,,,,,,,,,,,,,,
null,,confidence_buffer,1106823,confidence_buffer,,null,,,,,,,,,,,,,,,,,,
3102.199999988079,,recognition_phase,1109927,New Hope,,49,,,,,,old,0,0.6538461538461539,,,,,,,,,,
null,,confidence_buffer,1110031,confidence_buffer,,null,,,,,,,,,,,,,,,,,,
null,,thebreak,1110532,break,,null,,,,,,,,,,,,,,,,,,
3869.7000000476837,,realistic_rating,1114404,Granton Ridge,,53,Granton Ridge,Fictional,5,,,,,,,,,,,,,,,
null,,confidence_buffer,1114506,confidence_buffer,,null,,,,,,,,,,,,,,,,,,
6319.600000023842,,pt2_unique_rating,1120827,Granton Ridge,,51,,,3,,,,,,,,,,,,,,,
null,,confidence_buffer,1120930,confidence_buffer,,null,,,,,,,,,,,,,,,,,,
1867.6000000238419,,pt2_memorable_rating,1122799,Granton Ridge,,51,,,3,,,,,,,,,,,,,,,
null,,confidence_buffer,1122901,confidence_buffer,,null,,,,,,,,,,,,,,,,,,
3531.899999976158,,recognition_phase,1126435,Granton Ridge,,52,,,,,,new,1,0.6666666666666666,,,,,,,,,,
null,,confidence_buffer,1126537,confidence_buffer,,null,,,,,,,,,,,,,,,,,,
null,,thebreak,1127039,break,,null,,,,,,,,,,,,,,,,,,
2734.300000011921,,realistic_rating,1129775,Gatlinburg,,53,Gatlinburg,US,5,,,,,,,,,,,,,,,
null,,confidence_buffer,1129878,confidence_buffer,,null,,,,,,,,,,,,,,,,,,
2847,,pt2_unique_rating,1132726,Gatlinburg,,52,,,4,,,,,,,,,,,,,,,
null,,confidence_buffer,1132829,confidence_buffer,,null,,,,,,,,,,,,,,,,,,
2058.2000000476837,,pt2_memorable_rating,1134889,Gatlinburg,,51,,,3,,,,,,,,,,,,,,,
null,,confidence_buffer,1134991,confidence_buffer,,null,,,,,,,,,,,,,,,,,,
5090.899999976158,,recognition_phase,1140084,Gatlinburg,,52,,,,,,new,1,0.6785714285714286,,,,,,,,,,
null,,confidence_buffer,1140186,confidence_buffer,,null,,,,,,,,,,,,,,,,,,
null,,thebreak,1140688,break,,null,,,,,,,,,,,,,,,,,,
5156.699999988079,,realistic_rating,1145846,Lake of the Ozarks,,53,Lake of the Ozarks,US,5,,,,,,,,,,,,,,,
null,,confidence_buffer,1145949,confidence_buffer,,null,,,,,,,,,,,,,,,,,,
4522.699999988079,,pt2_unique_rating,1150474,Lake of the Ozarks,,52,,,4,,,,,,,,,,,,,,,
null,,confidence_buffer,1150577,confidence_buffer,,null,,,,,,,,,,,,,,,,,,
4622.900000035763,,pt2_memorable_rating,1155201,Lake of the Ozarks,,51,,,3,,,,,,,,,,,,,,,
null,,confidence_buffer,1155304,confidence_buffer,,null,,,,,,,,,,,,,,,,,,
3806.899999976158,,probe_rating,1159112,probe_rating,,51,,,,3,1,,,,,,,,,,,,,
null,,confidence_buffer,1159216,confidence_buffer,,null,,,,,,,,,,,,,,,,,,
2955.399999976158,,recognition_phase,1162173,Lake of the Ozarks,,52,,,,,,new,1,0.6896551724137931,,,,,,,,,,
null,,confidence_buffer,1162275,confidence_buffer,,null,,,,,,,,,,,,,,,,,,
null,,thebreak,1162777,break,,null,,,,,,,,,,,,,,,,,,
2572.300000011921,,realistic_rating,1165351,Park City,,53,Park City,US,5,,,,,,,,,,,,,,,
null,,confidence_buffer,1165453,confidence_buffer,,null,,,,,,,,,,,,,,,,,,
3707.600000023842,,probe_rating,1169163,probe_rating,,51,,,,3,1,,,,,,,,,,,,,
null,,confidence_buffer,1169266,confidence_buffer,,null,,,,,,,,,,,,,,,,,,
5164.899999976158,,pt2_unique_rating,1174432,Park City,,49,,,1,,,,,,,,,,,,,,,
null,,confidence_buffer,1174535,confidence_buffer,,null,,,,,,,,,,,,,,,,,,
2415.100000023842,,pt2_memorable_rating,1176952,Park City,,52,,,4,,,,,,,,,,,,,,,
null,,confidence_buffer,1177056,confidence_buffer,,null,,,,,,,,,,,,,,,,,,
2635.399999976158,,recognition_phase,1179693,Park City,,49,,,,,,old,1,0.7,,,,,,,,,,
null,,confidence_buffer,1179795,confidence_buffer,,null,,,,,,,,,,,,,,,,,,
null,,thebreak,1180297,break,,null,,,,,,,,,,,,,,,,,,
5517.300000011921,,realistic_rating,1185816,Assateague Island,,52,Assateague Island,US,4,,,,,,,,,,,,,,,
null,,confidence_buffer,1185918,confidence_buffer,,null,,,,,,,,,,,,,,,,,,
7225.699999988079,,pt2_unique_rating,1193145,Assateague Island,,53,,,5,,,,,,,,,,,,,,,
null,,confidence_buffer,1193247,confidence_buffer,,null,,,,,,,,,,,,,,,,,,
3400.600000023842,,pt2_memorable_rating,1196649,Assateague Island,,50,,,2,,,,,,,,,,,,,,,
null,,confidence_buffer,1196753,confidence_buffer,,null,,,,,,,,,,,,,,,,,,
1696.0999999642372,,recognition_phase,1198451,Assateague Island,,49,,,,,,old,1,0.7096774193548387,,,,,,,,,,
null,,confidence_buffer,1198553,confidence_buffer,,null,,,,,,,,,,,,,,,,,,
null,,thebreak,1199055,break,,null,,,,,,,,,,,,,,,,,,
2565.600000023842,,realistic_rating,1201622,Carmel,,53,Carmel,US,5,,,,,,,,,,,,,,,
null,,confidence_buffer,1201725,confidence_buffer,,null,,,,,,,,,,,,,,,,,,
4058,,pt2_unique_rating,1205784,Carmel,,50,,,2,,,,,,,,,,,,,,,
null,,confidence_buffer,1205889,confidence_buffer,,null,,,,,,,,,,,,,,,,,,
2678.199999988079,,pt2_memorable_rating,1208569,Carmel,,51,,,3,,,,,,,,,,,,,,,
null,,confidence_buffer,1208671,confidence_buffer,,null,,,,,,,,,,,,,,,,,,
4865.799999952316,,recognition_phase,1213539,Carmel,,51,,,,,,new,1,0.71875,,,,,,,,,,
null,,confidence_buffer,1213642,confidence_buffer,,null,,,,,,,,,,,,,,,,,,
null,,thebreak,1214144,break,,null,,,,,,,,,,,,,,,,,,
2576,,realistic_rating,1216721,Driftwood Bay,,53,Driftwood Bay,Fictional,5,,,,,,,,,,,,,,,
null,,confidence_buffer,1216824,confidence_buffer,,null,,,,,,,,,,,,,,,,,,
3595.5,,pt2_unique_rating,1220421,Driftwood Bay,,50,,,2,,,,,,,,,,,,,,,
null,,confidence_buffer,1220524,confidence_buffer,,null,,,,,,,,,,,,,,,,,,
2755.600000023842,,pt2_memorable_rating,1223281,Driftwood Bay,,51,,,3,,,,,,,,,,,,,,,
null,,confidence_buffer,1223383,confidence_buffer,,null,,,,,,,,,,,,,,,,,,
2599.5,,recognition_phase,1225984,Driftwood Bay,,49,,,,,,old,1,0.7272727272727273,,,,,,,,,,
null,,confidence_buffer,1226086,confidence_buffer,,null,,,,,,,,,,,,,,,,,,
null,,thebreak,1226589,break,,null,,,,,,,,,,,,,,,,,,
3543.300000011921,,realistic_rating,1230133,Linden Trace,,53,Linden Trace,Fictional,5,,,,,,,,,,,,,,,
null,,confidence_buffer,1230244,confidence_buffer,,null,,,,,,,,,,,,,,,,,,
2803,,pt2_unique_rating,1233049,Linden Trace,,50,,,2,,,,,,,,,,,,,,,
null,,confidence_buffer,1233151,confidence_buffer,,null,,,,,,,,,,,,,,,,,,
2232.099999964237,,pt2_memorable_rating,1235385,Linden Trace,,51,,,3,,,,,,,,,,,,,,,
null,,confidence_buffer,1235486,confidence_buffer,,null,,,,,,,,,,,,,,,,,,
3461,,recognition_phase,1238949,Linden Trace,,50,,,,,,old,1,0.7352941176470589,,,,,,,,,,
null,,confidence_buffer,1239053,confidence_buffer,,null,,,,,,,,,,,,,,,,,,
null,,thebreak,1239567,break,,null,,,,,,,,,,,,,,,,,,
2762.5,,realistic_rating,1242331,Okoboji,,52,Okoboji,US,4,,,,,,,,,,,,,,,
null,,confidence_buffer,1242435,confidence_buffer,,null,,,,,,,,,,,,,,,,,,
3639,,pt2_unique_rating,1246075,Okoboji,,53,,,5,,,,,,,,,,,,,,,
null,,confidence_buffer,1246187,confidence_buffer,,null,,,,,,,,,,,,,,,,,,
4211.399999976158,,pt2_memorable_rating,1250400,Okoboji,,50,,,2,,,,,,,,,,,,,,,
null,,confidence_buffer,1250502,confidence_buffer,,null,,,,,,,,,,,,,,,,,,
6291.399999976158,,recognition_phase,1256795,Okoboji,,52,,,,,,new,1,0.7428571428571429,,,,,,,,,,
null,,confidence_buffer,1256898,confidence_buffer,,null,,,,,,,,,,,,,,,,,,
null,,thebreak,1257399,break,,null,,,,,,,,,,,,,,,,,,
5385.900000035763,,realistic_rating,1262787,Sierra Hollow,,52,Sierra Hollow,Fictional,4,,,,,,,,,,,,,,,
null,,confidence_buffer,1262891,confidence_buffer,,null,,,,,,,,,,,,,,,,,,
5372.199999988079,,pt2_unique_rating,1268265,Sierra Hollow,,51,,,3,,,,,,,,,,,,,,,
null,,confidence_buffer,1268368,confidence_buffer,,null,,,,,,,,,,,,,,,,,,
2040.1000000238419,,pt2_memorable_rating,1270409,Sierra Hollow,,51,,,3,,,,,,,,,,,,,,,
null,,confidence_buffer,1270512,confidence_buffer,,null,,,,,,,,,,,,,,,,,,
4725.800000011921,,recognition_phase,1275240,Sierra Hollow,,52,,,,,,new,1,0.75,,,,,,,,,,
null,,confidence_buffer,1275343,confidence_buffer,,null,,,,,,,,,,,,,,,,,,
null,,thebreak,1275845,break,,null,,,,,,,,,,,,,,,,,,
2359.400000035763,,realistic_rating,1278206,Sammamish,,52,Sammamish,US,4,,,,,,,,,,,,,,,
null,,confidence_buffer,1278309,confidence_buffer,,null,,,,,,,,,,,,,,,,,,
4430.100000023842,,pt2_unique_rating,1282740,Sammamish,,52,,,4,,,,,,,,,,,,,,,
null,,confidence_buffer,1282842,confidence_buffer,,null,,,,,,,,,,,,,,,,,,
4556.300000011921,,pt2_memorable_rating,1287400,Sammamish,,51,,,3,,,,,,,,,,,,,,,
null,,confidence_buffer,1287503,confidence_buffer,,null,,,,,,,,,,,,,,,,,,
2196.199999988079,,recognition_phase,1289700,Sammamish,,49,,,,,,old,1,0.7567567567567568,,,,,,,,,,
null,,confidence_buffer,1289803,confidence_buffer,,null,,,,,,,,,,,,,,,,,,
null,,thebreak,1290305,break,,null,,,,,,,,,,,,,,,,,,
2349.300000011921,,realistic_rating,1292656,Hot Springs,,53,Hot Springs,US,5,,,,,,,,,,,,,,,
null,,confidence_buffer,1292759,confidence_buffer,,null,,,,,,,,,,,,,,,,,,
4497.800000011921,,pt2_unique_rating,1297259,Hot Springs,,49,,,1,,,,,,,,,,,,,,,
null,,confidence_buffer,1297362,confidence_buffer,,null,,,,,,,,,,,,,,,,,,
2607.800000011921,,pt2_memorable_rating,1299971,Hot Springs,,51,,,3,,,,,,,,,,,,,,,
null,,confidence_buffer,1300073,confidence_buffer,,null,,,,,,,,,,,,,,,,,,
4183.899999976158,,recognition_phase,1304259,Hot Springs,,52,,,,,,new,1,0.7631578947368421,,,,,,,,,,
null,,confidence_buffer,1304361,confidence_buffer,,null,,,,,,,,,,,,,,,,,,
null,,thebreak,1304864,break,,null,,,,,,,,,,,,,,,,,,
2738.800000011921,,realistic_rating,1307604,Berkeley Springs,,53,Berkeley Springs,US,5,,,,,,,,,,,,,,,
null,,confidence_buffer,1307707,confidence_buffer,,null,,,,,,,,,,,,,,,,,,
5140.699999988079,,pt2_unique_rating,1312850,Berkeley Springs,,50,,,2,,,,,,,,,,,,,,,
null,,confidence_buffer,1312952,confidence_buffer,,null,,,,,,,,,,,,,,,,,,
3570.5,,pt2_memorable_rating,1316526,Berkeley Springs,,51,,,3,,,,,,,,,,,,,,,
null,,confidence_buffer,1316628,confidence_buffer,,null,,,,,,,,,,,,,,,,,,
3119.399999976158,,probe_rating,1319749,probe_rating,,53,,,,5,1,,,,,,,,,,,,,
null,,confidence_buffer,1319852,confidence_buffer,,null,,,,,,,,,,,,,,,,,,
4025.100000023842,,recognition_phase,1323879,Berkeley Springs,,49,,,,,,old,1,0.7692307692307693,,,,,,,,,,
null,,confidence_buffer,1323982,confidence_buffer,,null,,,,,,,,,,,,,,,,,,
null,,thebreak,1324484,break,,null,,,,,,,,,,,,,,,,,,
2549.100000023842,,realistic_rating,1327034,Meadowspire,,53,Meadowspire,Fictional,5,,,,,,,,,,,,,,,
null,,confidence_buffer,1327137,confidence_buffer,,null,,,,,,,,,,,,,,,,,,
3477.400000035763,,pt2_unique_rating,1330616,Meadowspire,,50,,,2,,,,,,,,,,,,,,,
null,,confidence_buffer,1330719,confidence_buffer,,null,,,,,,,,,,,,,,,,,,
2797.7000000476837,,pt2_memorable_rating,1333519,Meadowspire,,51,,,3,,,,,,,,,,,,,,,
null,,confidence_buffer,1333622,confidence_buffer,,null,,,,,,,,,,,,,,,,,,
4673.100000023842,,recognition_phase,1338297,Meadowspire,,50,,,,,,old,1,0.775,,,,,,,,,,
null,,confidence_buffer,1338399,confidence_buffer,,null,,,,,,,,,,,,,,,,,,
null,,thebreak,1338901,break,,null,,,,,,,,,,,,,,,,,,
3389.5,,realistic_rating,1342292,Willowford,,53,Willowford,Fictional,5,,,,,,,,,,,,,,,
null,,confidence_buffer,1342400,confidence_buffer,,null,,,,,,,,,,,,,,,,,,
5972.400000035763,,pt2_unique_rating,1348373,Willowford,,51,,,3,,,,,,,,,,,,,,,
null,,confidence_buffer,1348475,confidence_buffer,,null,,,,,,,,,,,,,,,,,,
2984.600000023842,,pt2_memorable_rating,1351461,Willowford,,51,,,3,,,,,,,,,,,,,,,
null,,confidence_buffer,1351563,confidence_buffer,,null,,,,,,,,,,,,,,,,,,
4801.800000011921,,recognition_phase,1356366,Willowford,,51,,,,,,new,1,0.7804878048780488,,,,,,,,,,
null,,confidence_buffer,1356470,confidence_buffer,,null,,,,,,,,,,,,,,,,,,
null,,thebreak,1356972,break,,null,,,,,,,,,,,,,,,,,,
4212,,realistic_rating,1361185,Duck,,51,Duck,US,3,,,,,,,,,,,,,,,
null,,confidence_buffer,1361288,confidence_buffer,,null,,,,,,,,,,,,,,,,,,
9353.299999952316,,pt2_unique_rating,1370642,Duck,,52,,,4,,,,,,,,,,,,,,,
null,,confidence_buffer,1370745,confidence_buffer,,null,,,,,,,,,,,,,,,,,,
2897.900000035763,,pt2_memorable_rating,1373644,Duck,,52,,,4,,,,,,,,,,,,,,,
null,,confidence_buffer,1373747,confidence_buffer,,null,,,,,,,,,,,,,,,,,,
3311.2000000476837,,recognition_phase,1377060,Duck,,52,,,,,,new,1,0.7857142857142857,,,,,,,,,,
null,,confidence_buffer,1377162,confidence_buffer,,null,,,,,,,,,,,,,,,,,,
null,,thebreak,1377665,break,,null,,,,,,,,,,,,,,,,,,
5526.400000035763,,realistic_rating,1383193,Coeur d'Alene,,53,Coeur d'Alene,US,5,,,,,,,,,,,,,,,
null,,confidence_buffer,1383296,confidence_buffer,,null,,,,,,,,,,,,,,,,,,
8347.899999976158,,pt2_unique_rating,1391645,Coeur d'Alene,,52,,,4,,,,,,,,,,,,,,,
null,,confidence_buffer,1391748,confidence_buffer,,null,,,,,,,,,,,,,,,,,,
2368.800000011921,,pt2_memorable_rating,1394118,Coeur d'Alene,,51,,,3,,,,,,,,,,,,,,,
null,,confidence_buffer,1394221,confidence_buffer,,null,,,,,,,,,,,,,,,,,,
2772.300000011921,,recognition_phase,1396995,Coeur d'Alene,,52,,,,,,new,1,0.7906976744186046,,,,,,,,,,
null,,confidence_buffer,1397097,confidence_buffer,,null,,,,,,,,,,,,,,,,,,
null,,thebreak,1397600,break,,null,,,,,,,,,,,,,,,,,,
2257.199999988079,,realistic_rating,1399858,Cape May,,53,Cape May,US,5,,,,,,,,,,,,,,,
null,,confidence_buffer,1399962,confidence_buffer,,null,,,,,,,,,,,,,,,,,,
6859.099999964237,,pt2_unique_rating,1406822,Cape May,,50,,,2,,,,,,,,,,,,,,,
null,,confidence_buffer,1406925,confidence_buffer,,null,,,,,,,,,,,,,,,,,,
2762.2999999523163,,pt2_memorable_rating,1409688,Cape May,,53,,,5,,,,,,,,,,,,,,,
null,,confidence_buffer,1409791,confidence_buffer,,null,,,,,,,,,,,,,,,,,,
2739.400000035763,,recognition_phase,1412533,Cape May,,52,,,,,,new,1,0.7954545454545454,,,,,,,,,,
null,,confidence_buffer,1412636,confidence_buffer,,null,,,,,,,,,,,,,,,,,,
null,,thebreak,1413137,break,,null,,,,,,,,,,,,,,,,,,
2167.7999999523163,,realistic_rating,1415306,Delaware City,,53,Delaware City,US,5,,,,,,,,,,,,,,,
null,,confidence_buffer,1415409,confidence_buffer,,null,,,,,,,,,,,,,,,,,,
2233.800000011921,,pt2_unique_rating,1417645,Delaware City,,49,,,1,,,,,,,,,,,,,,,
null,,confidence_buffer,1417747,confidence_buffer,,null,,,,,,,,,,,,,,,,,,
3876.599999964237,,pt2_memorable_rating,1421625,Delaware City,,53,,,5,,,,,,,,,,,,,,,
null,,confidence_buffer,1421728,confidence_buffer,,null,,,,,,,,,,,,,,,,,,
2702.800000011921,,recognition_phase,1424433,Delaware City,,49,,,,,,old,1,0.8,,,,,,,,,,
null,,confidence_buffer,1424535,confidence_buffer,,null,,,,,,,,,,,,,,,,,,
null,,thebreak,1425039,break,,null,,,,,,,,,,,,,,,,,,
2802.5,,realistic_rating,1427843,Gloucester,,53,Gloucester,US,5,,,,,,,,,,,,,,,
null,,confidence_buffer,1427945,confidence_buffer,,null,,,,,,,,,,,,,,,,,,
4362.399999976158,,pt2_unique_rating,1432309,Gloucester,,50,,,2,,,,,,,,,,,,,,,
null,,confidence_buffer,1432411,confidence_buffer,,null,,,,,,,,,,,,,,,,,,
2758.100000023842,,pt2_memorable_rating,1435171,Gloucester,,50,,,2,,,,,,,,,,,,,,,
null,,confidence_buffer,1435274,confidence_buffer,,null,,,,,,,,,,,,,,,,,,
2946.800000011921,,recognition_phase,1438222,Gloucester,,52,,,,,,new,1,0.8043478260869565,,,,,,,,,,
null,,confidence_buffer,1438325,confidence_buffer,,null,,,,,,,,,,,,,,,,,,
null,,thebreak,1438827,break,,null,,,,,,,,,,,,,,,,,,
1959.9000000357628,,realistic_rating,1440788,Hilo,,53,Hilo,US,5,,,,,,,,,,,,,,,
null,,confidence_buffer,1440891,confidence_buffer,,null,,,,,,,,,,,,,,,,,,
4295.300000011921,,pt2_unique_rating,1445188,Hilo,,50,,,2,,,,,,,,,,,,,,,
null,,confidence_buffer,1445291,confidence_buffer,,null,,,,,,,,,,,,,,,,,,
1526.1000000238419,,pt2_memorable_rating,1446818,Hilo,,51,,,3,,,,,,,,,,,,,,,
null,,confidence_buffer,1446921,confidence_buffer,,null,,,,,,,,,,,,,,,,,,
2846.600000023842,,recognition_phase,1449769,Hilo,,52,,,,,,new,0,0.7872340425531915,,,,,,,,,,
null,,confidence_buffer,1449871,confidence_buffer,,null,,,,,,,,,,,,,,,,,,
null,,thebreak,1450374,break,,null,,,,,,,,,,,,,,,,,,
3013.399999976158,,realistic_rating,1453389,Cedarwyn,,52,Cedarwyn,Fictional,4,,,,,,,,,,,,,,,
null,,confidence_buffer,1453491,confidence_buffer,,null,,,,,,,,,,,,,,,,,,
5447.900000035763,,pt2_unique_rating,1458941,Cedarwyn,,52,,,4,,,,,,,,,,,,,,,
null,,confidence_buffer,1459043,confidence_buffer,,null,,,,,,,,,,,,,,,,,,
5280.699999988079,,pt2_memorable_rating,1464326,Cedarwyn,,51,,,3,,,,,,,,,,,,,,,
null,,confidence_buffer,1464429,confidence_buffer,,null,,,,,,,,,,,,,,,,,,
4440.399999976158,,recognition_phase,1468871,Cedarwyn,,52,,,,,,new,1,0.7916666666666666,,,,,,,,,,
null,,confidence_buffer,1468974,confidence_buffer,,null,,,,,,,,,,,,,,,,,,
null,,thebreak,1469476,break,,null,,,,,,,,,,,,,,,,,,
3674.800000011921,,realistic_rating,1473153,Tamarisk Hills,,52,Tamarisk Hills,Fictional,4,,,,,,,,,,,,,,,
null,,confidence_buffer,1473255,confidence_buffer,,null,,,,,,,,,,,,,,,,,,
3974.5,,pt2_unique_rating,1477231,Tamarisk Hills,,51,,,3,,,,,,,,,,,,,,,
null,,confidence_buffer,1477333,confidence_buffer,,null,,,,,,,,,,,,,,,,,,
2427.2000000476837,,probe_rating,1479762,probe_rating,,50,,,,2,1,,,,,,,,,,,,,
null,,confidence_buffer,1479865,confidence_buffer,,null,,,,,,,,,,,,,,,,,,
4709.199999988079,,pt2_memorable_rating,1484575,Tamarisk Hills,,50,,,2,,,,,,,,,,,,,,,
null,,confidence_buffer,1484677,confidence_buffer,,null,,,,,,,,,,,,,,,,,,
3328.599999964237,,recognition_phase,1488007,Tamarisk Hills,,50,,,,,,old,1,0.7959183673469388,,,,,,,,,,
null,,confidence_buffer,1488109,confidence_buffer,,null,,,,,,,,,,,,,,,,,,
null,,thebreak,1488612,break,,null,,,,,,,,,,,,,,,,,,
2256.600000023842,,realistic_rating,1490870,Orchard Bend,,53,Orchard Bend,Fictional,5,,,,,,,,,,,,,,,
null,,confidence_buffer,1490974,confidence_buffer,,null,,,,,,,,,,,,,,,,,,
4436.099999964237,,pt2_unique_rating,1495411,Orchard Bend,,50,,,2,,,,,,,,,,,,,,,
null,,confidence_buffer,1495514,confidence_buffer,,null,,,,,,,,,,,,,,,,,,
3605.300000011921,,pt2_memorable_rating,1499121,Orchard Bend,,50,,,2,,,,,,,,,,,,,,,
null,,confidence_buffer,1499224,confidence_buffer,,null,,,,,,,,,,,,,,,,,,
2781.900000035763,,recognition_phase,1502007,Orchard Bend,,52,,,,,,new,1,0.8,,,,,,,,,,
null,,confidence_buffer,1502109,confidence_buffer,,null,,,,,,,,,,,,,,,,,,
null,,thebreak,1502611,break,,null,,,,,,,,,,,,,,,,,,
2287.7999999523163,,realistic_rating,1504900,Manistee,,53,Manistee,US,5,,,,,,,,,,,,,,,
null,,confidence_buffer,1505003,confidence_buffer,,null,,,,,,,,,,,,,,,,,,
3636.400000035763,,pt2_unique_rating,1508641,Manistee,,52,,,4,,,,,,,,,,,,,,,
null,,confidence_buffer,1508743,confidence_buffer,,null,,,,,,,,,,,,,,,,,,
4096.5,,pt2_memorable_rating,1512842,Manistee,,51,,,3,,,,,,,,,,,,,,,
null,,confidence_buffer,1512945,confidence_buffer,,null,,,,,,,,,,,,,,,,,,
3788.5,,probe_rating,1516734,probe_rating,,53,,,,5,1,,,,,,,,,,,,,
null,,confidence_buffer,1516838,confidence_buffer,,null,,,,,,,,,,,,,,,,,,
4632.899999976158,,recognition_phase,1521472,Manistee,,51,,,,,,new,0,0.7843137254901961,,,,,,,,,,
null,,confidence_buffer,1521574,confidence_buffer,,null,,,,,,,,,,,,,,,,,,
null,,thebreak,1522076,break,,null,,,,,,,,,,,,,,,,,,
2622.5,,realistic_rating,1524700,Watkins Glen,,52,Watkins Glen,US,4,,,,,,,,,,,,,,,
null,,confidence_buffer,1524803,confidence_buffer,,null,,,,,,,,,,,,,,,,,,
3876.7999999523163,,pt2_unique_rating,1528681,Watkins Glen,,51,,,3,,,,,,,,,,,,,,,
null,,confidence_buffer,1528783,confidence_buffer,,null,,,,,,,,,,,,,,,,,,
3246.7000000476837,,pt2_memorable_rating,1532032,Watkins Glen,,51,,,3,,,,,,,,,,,,,,,
null,,confidence_buffer,1532134,confidence_buffer,,null,,,,,,,,,,,,,,,,,,
4201.399999976158,,recognition_phase,1536337,Watkins Glen,,52,,,,,,new,0,0.7692307692307693,,,,,,,,,,
null,,confidence_buffer,1536441,confidence_buffer,,null,,,,,,,,,,,,,,,,,,
null,,thebreak,1536944,break,,null,,,,,,,,,,,,,,,,,,
2471.7000000476837,,realistic_rating,1539417,Elmsbury,,53,Elmsbury,Fictional,5,,,,,,,,,,,,,,,
null,,confidence_buffer,1539521,confidence_buffer,,null,,,,,,,,,,,,,,,,,,
3505.699999988079,,pt2_unique_rating,1543028,Elmsbury,,50,,,2,,,,,,,,,,,,,,,
null,,confidence_buffer,1543132,confidence_buffer,,null,,,,,,,,,,,,,,,,,,
3934,,pt2_memorable_rating,1547067,Elmsbury,,51,,,3,,,,,,,,,,,,,,,
null,,confidence_buffer,1547170,confidence_buffer,,null,,,,,,,,,,,,,,,,,,
3938.7999999523163,,recognition_phase,1551110,Elmsbury,,52,,,,,,new,0,0.7547169811320755,,,,,,,,,,
null,,confidence_buffer,1551213,confidence_buffer,,null,,,,,,,,,,,,,,,,,,
null,,thebreak,1551715,break,,null,,,,,,,,,,,,,,,,,,
2441.600000023842,,realistic_rating,1554158,Highvale,,53,Highvale,Fictional,5,,,,,,,,,,,,,,,
null,,confidence_buffer,1554260,confidence_buffer,,null,,,,,,,,,,,,,,,,,,
5518,,pt2_unique_rating,1559780,Highvale,,50,,,2,,,,,,,,,,,,,,,
null,,confidence_buffer,1559883,confidence_buffer,,null,,,,,,,,,,,,,,,,,,
2298.800000011921,,pt2_memorable_rating,1562183,Highvale,,51,,,3,,,,,,,,,,,,,,,
null,,confidence_buffer,1562286,confidence_buffer,,null,,,,,,,,,,,,,,,,,,
3592,,recognition_phase,1565880,Highvale,,52,,,,,,new,0,0.7407407407407407,,,,,,,,,,
null,,confidence_buffer,1565982,confidence_buffer,,null,,,,,,,,,,,,,,,,,,
null,,thebreak,1566483,break,,null,,,,,,,,,,,,,,,,,,
1842,,realistic_rating,1568327,Hanover,,53,Hanover,US,5,,,,,,,,,,,,,,,
null,,confidence_buffer,1568430,confidence_buffer,,null,,,,,,,,,,,,,,,,,,
8083,,pt2_unique_rating,1576515,Hanover,,49,,,1,,,,,,,,,,,,,,,
null,,confidence_buffer,1576617,confidence_buffer,,null,,,,,,,,,,,,,,,,,,
3042.800000011921,,pt2_memorable_rating,1579662,Hanover,,52,,,4,,,,,,,,,,,,,,,
null,,confidence_buffer,1579765,confidence_buffer,,null,,,,,,,,,,,,,,,,,,
2309.300000011921,,recognition_phase,1582076,Hanover,,49,,,,,,old,1,0.7454545454545455,,,,,,,,,,
null,,confidence_buffer,1582178,confidence_buffer,,null,,,,,,,,,,,,,,,,,,
null,,thebreak,1582680,break,,null,,,,,,,,,,,,,,,,,,
2587.099999964237,,realistic_rating,1585268,Hollendale,,53,Hollendale,Fictional,5,,,,,,,,,,,,,,,
null,,confidence_buffer,1585371,confidence_buffer,,null,,,,,,,,,,,,,,,,,,
3714.800000011921,,pt2_unique_rating,1589088,Hollendale,,49,,,1,,,,,,,,,,,,,,,
null,,confidence_buffer,1589191,confidence_buffer,,null,,,,,,,,,,,,,,,,,,
5588.699999988079,,pt2_memorable_rating,1594781,Hollendale,,51,,,3,,,,,,,,,,,,,,,
null,,confidence_buffer,1594884,confidence_buffer,,null,,,,,,,,,,,,,,,,,,
4145.799999952316,,recognition_phase,1599031,Hollendale,,51,,,,,,new,0,0.7321428571428571,,,,,,,,,,
null,,confidence_buffer,1599133,confidence_buffer,,null,,,,,,,,,,,,,,,,,,
null,,thebreak,1599636,break,,null,,,,,,,,,,,,,,,,,,
3083.300000011921,,realistic_rating,1602721,Summershade,,53,Summershade,Fictional,5,,,,,,,,,,,,,,,
null,,confidence_buffer,1602824,confidence_buffer,,null,,,,,,,,,,,,,,,,,,
8496,,pt2_unique_rating,1611322,Summershade,,51,,,3,,,,,,,,,,,,,,,
null,,confidence_buffer,1611424,confidence_buffer,,null,,,,,,,,,,,,,,,,,,
2732.300000011921,,pt2_memorable_rating,1614158,Summershade,,51,,,3,,,,,,,,,,,,,,,
null,,confidence_buffer,1614262,confidence_buffer,,null,,,,,,,,,,,,,,,,,,
3558.699999988079,,recognition_phase,1617822,Summershade,,52,,,,,,new,1,0.7368421052631579,,,,,,,,,,
null,,confidence_buffer,1617925,confidence_buffer,,null,,,,,,,,,,,,,,,,,,
null,,thebreak,1618426,break,,null,,,,,,,,,,,,,,,,,,
2619.800000011921,,realistic_rating,1621048,Albuquerque,,53,Albuquerque,US,5,,,,,,,,,,,,,,,
null,,confidence_buffer,1621151,confidence_buffer,,null,,,,,,,,,,,,,,,,,,
4703.5,,pt2_unique_rating,1625856,Albuquerque,,51,,,3,,,,,,,,,,,,,,,
null,,confidence_buffer,1625958,confidence_buffer,,null,,,,,,,,,,,,,,,,,,
2777.599999964237,,pt2_memorable_rating,1628737,Albuquerque,,52,,,4,,,,,,,,,,,,,,,
null,,confidence_buffer,1628839,confidence_buffer,,null,,,,,,,,,,,,,,,,,,
2190.2000000476837,,probe_rating,1631031,probe_rating,,49,,,,1,1,,,,,,,,,,,,,
null,,confidence_buffer,1631134,confidence_buffer,,null,,,,,,,,,,,,,,,,,,
5668,,recognition_phase,1636804,Albuquerque,,49,,,,,,old,1,0.7413793103448276,,,,,,,,,,
null,,confidence_buffer,1636909,confidence_buffer,,null,,,,,,,,,,,,,,,,,,
null,,thebreak,1637411,break,,null,,,,,,,,,,,,,,,,,,
6054.300000011921,,realistic_rating,1643467,Healdsburg,,53,Healdsburg,US,5,,,,,,,,,,,,,,,
null,,confidence_buffer,1643570,confidence_buffer,,null,,,,,,,,,,,,,,,,,,
6998.600000023842,,pt2_unique_rating,1650570,Healdsburg,,51,,,3,,,,,,,,,,,,,,,
null,,confidence_buffer,1650672,confidence_buffer,,null,,,,,,,,,,,,,,,,,,
1778.5,,pt2_memorable_rating,1652452,Healdsburg,,51,,,3,,,,,,,,,,,,,,,
null,,confidence_buffer,1652554,confidence_buffer,,null,,,,,,,,,,,,,,,,,,
3671.800000011921,,recognition_phase,1656228,Healdsburg,,51,,,,,,new,1,0.7457627118644068,,,,,,,,,,
null,,confidence_buffer,1656331,confidence_buffer,,null,,,,,,,,,,,,,,,,,,
null,,thebreak,1656833,break,,null,,,,,,,,,,,,,,,,,,
3321.199999988079,,realistic_rating,1660155,Golden Trace,,52,Golden Trace,Fictional,4,,,,,,,,,,,,,,,
null,,confidence_buffer,1660258,confidence_buffer,,null,,,,,,,,,,,,,,,,,,
2931.5,,probe_rating,1663191,probe_rating,,51,,,,3,1,,,,,,,,,,,,,
null,,confidence_buffer,1663295,confidence_buffer,,null,,,,,,,,,,,,,,,,,,
6269.400000035763,,pt2_unique_rating,1669566,Golden Trace,,51,,,3,,,,,,,,,,,,,,,
null,,confidence_buffer,1669669,confidence_buffer,,null,,,,,,,,,,,,,,,,,,
1540.1000000238419,,pt2_memorable_rating,1671210,Golden Trace,,51,,,3,,,,,,,,,,,,,,,
null,,confidence_buffer,1671312,confidence_buffer,,null,,,,,,,,,,,,,,,,,,
2885,,recognition_phase,1674199,Golden Trace,,52,,,,,,new,1,0.75,,,,,,,,,,
null,,confidence_buffer,1674302,confidence_buffer,,null,,,,,,,,,,,,,,,,,,
null,,thebreak,1674804,break,,null,,,,,,,,,,,,,,,,,,
,,survey,2187888,survey-questions,,,,,,,,,,,none,high,no,I tried to think of real places i know of . Some of them  were familiar others sounded like they could exist . If the name was easy i chose that option. ,Places i have been to or heard of because they are well known. example Hanover ,If they had an easy spelling or i knew they existed.   Example Boulder city,Complicated spellings.  EXAMPLE Sammamish ( located in washington state ),They sound as if they exist or i now they actually do exist.  Example Delaware city. ,No i don't think so. ,Task wasn't hard. 
