rt,responses,trial_type,time_elapsed,stimulus,button_pressed,key_press,name_trial,city_type,rating,probe,probe_accuracy,response,correct,accuracy,problems,smooth,distraction,strategies,familiar,memorable,unique,realistic,similar,comments
5225.5,{worker_id:5ea72b8aedd4c90da065607c},id_enter,5231,,,,,,,,,,,,,,,,,,,,,
29809.5,,fullscreen,35050,fullscreen,0,,,,,,,,,,,,,,,,,,,
6941.4000000059605,,intro_0,41995,instruct,,32,,,,,,,,,,,,,,,,,,
18241.79999999702,,intro_1,60238,instruct,,32,,,,,,,,,,,,,,,,,,
5097,,intro_2,65337,instruct,,32,,,,,,,,,,,,,,,,,,
null,,instruct_dir_4,66840,instruct,,null,,,,,,,,,,,,,,,,,,
null,,thebreak,67345,break,,null,,,,,,,,,,,,,,,,,,
10717.89999999106,,familiar_rating,78064,Ashford Hills,,49,Ashford Hills,Fictional,1,,,,,,,,,,,,,,,
null,,confidence_buffer,78167,confidence_buffer,,null,,,,,,,,,,,,,,,,,,
5806.899999991059,,unique_rating,83976,Ashford Hills,,50,,,2,,,,,,,,,,,,,,,
null,,confidence_buffer,84079,confidence_buffer,,null,,,,,,,,,,,,,,,,,,
3622.7999999970198,,memorable_rating,87703,Ashford Hills,,50,,,2,,,,,,,,,,,,,,,
null,,confidence_buffer,87806,confidence_buffer,,null,,,,,,,,,,,,,,,,,,
null,,thebreak,88311,break,,null,,,,,,,,,,,,,,,,,,
5232.100000008941,,familiar_rating,93545,Willowford,,49,Willowford,Fictional,1,,,,,,,,,,,,,,,
null,,confidence_buffer,93647,confidence_buffer,,null,,,,,,,,,,,,,,,,,,
5455.79999999702,,unique_rating,99104,Willowford,,51,,,3,,,,,,,,,,,,,,,
null,,confidence_buffer,99207,confidence_buffer,,null,,,,,,,,,,,,,,,,,,
7113.9000000059605,,memorable_rating,106322,Willowford,,52,,,4,,,,,,,,,,,,,,,
null,,confidence_buffer,106428,confidence_buffer,,null,,,,,,,,,,,,,,,,,,
null,,thebreak,106933,break,,null,,,,,,,,,,,,,,,,,,
3731.5999999940395,,familiar_rating,110666,Berkeley Springs,,49,Berkeley Springs,US,1,,,,,,,,,,,,,,,
null,,confidence_buffer,110770,confidence_buffer,,null,,,,,,,,,,,,,,,,,,
9970.09999999404,,unique_rating,120741,Berkeley Springs,,50,,,2,,,,,,,,,,,,,,,
null,,confidence_buffer,120843,confidence_buffer,,null,,,,,,,,,,,,,,,,,,
1632.2000000029802,,memorable_rating,122477,Berkeley Springs,,51,,,3,,,,,,,,,,,,,,,
null,,confidence_buffer,122579,confidence_buffer,,null,,,,,,,,,,,,,,,,,,
null,,thebreak,123082,break,,null,,,,,,,,,,,,,,,,,,
4750.199999988079,,familiar_rating,127833,Orr,,49,Orr,US,1,,,,,,,,,,,,,,,
null,,confidence_buffer,127935,confidence_buffer,,null,,,,,,,,,,,,,,,,,,
1864.3999999910593,,unique_rating,129801,Orr,,52,,,4,,,,,,,,,,,,,,,
null,,confidence_buffer,129903,confidence_buffer,,null,,,,,,,,,,,,,,,,,,
2825,,memorable_rating,132730,Orr,,52,,,4,,,,,,,,,,,,,,,
null,,confidence_buffer,132834,confidence_buffer,,null,,,,,,,,,,,,,,,,,,
2077.2000000029802,,probe_rating,134913,probe_rating,,51,,,,3,1,,,,,,,,,,,,,
null,,confidence_buffer,135017,confidence_buffer,,null,,,,,,,,,,,,,,,,,,
null,,thebreak,135521,break,,null,,,,,,,,,,,,,,,,,,
5363.70000000298,,familiar_rating,140886,Abilene,,53,Abilene,US,5,,,,,,,,,,,,,,,
null,,confidence_buffer,140990,confidence_buffer,,null,,,,,,,,,,,,,,,,,,
4416.0999999940395,,unique_rating,145407,Abilene,,52,,,4,,,,,,,,,,,,,,,
null,,confidence_buffer,145512,confidence_buffer,,null,,,,,,,,,,,,,,,,,,
4026,,memorable_rating,149540,Abilene,,51,,,3,,,,,,,,,,,,,,,
null,,confidence_buffer,149644,confidence_buffer,,null,,,,,,,,,,,,,,,,,,
null,,thebreak,150149,break,,null,,,,,,,,,,,,,,,,,,
7302.0999999940395,,familiar_rating,157453,Millstone,,50,Millstone,Fictional,2,,,,,,,,,,,,,,,
null,,confidence_buffer,157557,confidence_buffer,,null,,,,,,,,,,,,,,,,,,
2374.7000000029802,,unique_rating,159933,Millstone,,51,,,3,,,,,,,,,,,,,,,
null,,confidence_buffer,160035,confidence_buffer,,null,,,,,,,,,,,,,,,,,,
2063.7000000029802,,memorable_rating,162100,Millstone,,52,,,4,,,,,,,,,,,,,,,
null,,confidence_buffer,162202,confidence_buffer,,null,,,,,,,,,,,,,,,,,,
null,,thebreak,162706,break,,null,,,,,,,,,,,,,,,,,,
2376.8999999910593,,familiar_rating,165084,Rosehollow,,49,Rosehollow,Fictional,1,,,,,,,,,,,,,,,
null,,confidence_buffer,165189,confidence_buffer,,null,,,,,,,,,,,,,,,,,,
4018.1000000089407,,unique_rating,169210,Rosehollow,,51,,,3,,,,,,,,,,,,,,,
null,,confidence_buffer,169312,confidence_buffer,,null,,,,,,,,,,,,,,,,,,
3111.7999999970198,,memorable_rating,172425,Rosehollow,,52,,,4,,,,,,,,,,,,,,,
null,,confidence_buffer,172528,confidence_buffer,,null,,,,,,,,,,,,,,,,,,
null,,thebreak,173034,break,,null,,,,,,,,,,,,,,,,,,
3227.0999999940395,,familiar_rating,176262,Healdsburg,,49,Healdsburg,US,1,,,,,,,,,,,,,,,
null,,confidence_buffer,176364,confidence_buffer,,null,,,,,,,,,,,,,,,,,,
8793.20000000298,,unique_rating,185159,Healdsburg,,51,,,3,,,,,,,,,,,,,,,
null,,confidence_buffer,185263,confidence_buffer,,null,,,,,,,,,,,,,,,,,,
1733.1000000089407,,memorable_rating,186998,Healdsburg,,52,,,4,,,,,,,,,,,,,,,
null,,confidence_buffer,187103,confidence_buffer,,null,,,,,,,,,,,,,,,,,,
null,,thebreak,187608,break,,null,,,,,,,,,,,,,,,,,,
6057.5999999940395,,familiar_rating,193668,Pine Hollow,,49,Pine Hollow,Fictional,1,,,,,,,,,,,,,,,
null,,confidence_buffer,193773,confidence_buffer,,null,,,,,,,,,,,,,,,,,,
5413.79999999702,,unique_rating,199188,Pine Hollow,,51,,,3,,,,,,,,,,,,,,,
null,,confidence_buffer,199291,confidence_buffer,,null,,,,,,,,,,,,,,,,,,
3190.7999999970198,,memorable_rating,202483,Pine Hollow,,51,,,3,,,,,,,,,,,,,,,
null,,confidence_buffer,202585,confidence_buffer,,null,,,,,,,,,,,,,,,,,,
null,,thebreak,203091,break,,null,,,,,,,,,,,,,,,,,,
2302.3999999910593,,familiar_rating,205395,Cornwall,,53,Cornwall,US,5,,,,,,,,,,,,,,,
null,,confidence_buffer,205499,confidence_buffer,,null,,,,,,,,,,,,,,,,,,
2598.7000000029802,,probe_rating,208099,probe_rating,,51,,,,3,1,,,,,,,,,,,,,
null,,confidence_buffer,208204,confidence_buffer,,null,,,,,,,,,,,,,,,,,,
7959.29999999702,,unique_rating,216164,Cornwall,,49,,,1,,,,,,,,,,,,,,,
null,,confidence_buffer,216266,confidence_buffer,,null,,,,,,,,,,,,,,,,,,
6945,,memorable_rating,223213,Cornwall,,53,,,5,,,,,,,,,,,,,,,
null,,confidence_buffer,223314,confidence_buffer,,null,,,,,,,,,,,,,,,,,,
null,,thebreak,223818,break,,null,,,,,,,,,,,,,,,,,,
2112.7999999970198,,familiar_rating,225933,Silverpine,,49,Silverpine,Fictional,1,,,,,,,,,,,,,,,
null,,confidence_buffer,226037,confidence_buffer,,null,,,,,,,,,,,,,,,,,,
6173.29999999702,,unique_rating,232212,Silverpine,,49,,,1,,,,,,,,,,,,,,,
null,,confidence_buffer,232317,confidence_buffer,,null,,,,,,,,,,,,,,,,,,
3437,,memorable_rating,235755,Silverpine,,53,,,5,,,,,,,,,,,,,,,
null,,confidence_buffer,235858,confidence_buffer,,null,,,,,,,,,,,,,,,,,,
2015.5999999940395,,probe_rating,237875,probe_rating,,51,,,,3,1,,,,,,,,,,,,,
null,,confidence_buffer,237979,confidence_buffer,,null,,,,,,,,,,,,,,,,,,
null,,thebreak,238483,break,,null,,,,,,,,,,,,,,,,,,
2747.6000000089407,,familiar_rating,241232,Orchard Bend,,49,Orchard Bend,Fictional,1,,,,,,,,,,,,,,,
null,,confidence_buffer,241333,confidence_buffer,,null,,,,,,,,,,,,,,,,,,
5137.9000000059605,,unique_rating,246472,Orchard Bend,,53,,,5,,,,,,,,,,,,,,,
null,,confidence_buffer,246573,confidence_buffer,,null,,,,,,,,,,,,,,,,,,
5127,,memorable_rating,251701,Orchard Bend,,53,,,5,,,,,,,,,,,,,,,
null,,confidence_buffer,251806,confidence_buffer,,null,,,,,,,,,,,,,,,,,,
null,,thebreak,252308,break,,null,,,,,,,,,,,,,,,,,,
1976.2999999970198,,familiar_rating,254286,Shreveport,,53,Shreveport,US,5,,,,,,,,,,,,,,,
null,,confidence_buffer,254387,confidence_buffer,,null,,,,,,,,,,,,,,,,,,
4334.600000008941,,unique_rating,258723,Shreveport,,53,,,5,,,,,,,,,,,,,,,
null,,confidence_buffer,258827,confidence_buffer,,null,,,,,,,,,,,,,,,,,,
1413.7000000029802,,memorable_rating,260242,Shreveport,,53,,,5,,,,,,,,,,,,,,,
null,,confidence_buffer,260344,confidence_buffer,,null,,,,,,,,,,,,,,,,,,
null,,thebreak,260847,break,,null,,,,,,,,,,,,,,,,,,
2577.7000000029802,,familiar_rating,263426,Highvale,,49,Highvale,Fictional,1,,,,,,,,,,,,,,,
null,,confidence_buffer,263530,confidence_buffer,,null,,,,,,,,,,,,,,,,,,
2903.2000000029802,,unique_rating,266434,Highvale,,51,,,3,,,,,,,,,,,,,,,
null,,confidence_buffer,266536,confidence_buffer,,null,,,,,,,,,,,,,,,,,,
3041.4000000059605,,memorable_rating,269579,Highvale,,53,,,5,,,,,,,,,,,,,,,
null,,confidence_buffer,269682,confidence_buffer,,null,,,,,,,,,,,,,,,,,,
null,,thebreak,270187,break,,null,,,,,,,,,,,,,,,,,,
3303,,familiar_rating,273491,New Hope,,53,New Hope,US,5,,,,,,,,,,,,,,,
null,,confidence_buffer,273595,confidence_buffer,,null,,,,,,,,,,,,,,,,,,
4382.9000000059605,,unique_rating,277979,New Hope,,49,,,1,,,,,,,,,,,,,,,
null,,confidence_buffer,278082,confidence_buffer,,null,,,,,,,,,,,,,,,,,,
2337,,memorable_rating,280420,New Hope,,51,,,3,,,,,,,,,,,,,,,
null,,confidence_buffer,280522,confidence_buffer,,null,,,,,,,,,,,,,,,,,,
null,,thebreak,281027,break,,null,,,,,,,,,,,,,,,,,,
2271.300000011921,,familiar_rating,283299,West Palm Beach,,53,West Palm Beach,US,5,,,,,,,,,,,,,,,
null,,confidence_buffer,283401,confidence_buffer,,null,,,,,,,,,,,,,,,,,,
2649,,probe_rating,286051,probe_rating,,52,,,,4,1,,,,,,,,,,,,,
null,,confidence_buffer,286156,confidence_buffer,,null,,,,,,,,,,,,,,,,,,
9015.20000000298,,unique_rating,295172,West Palm Beach,,49,,,1,,,,,,,,,,,,,,,
null,,confidence_buffer,295276,confidence_buffer,,null,,,,,,,,,,,,,,,,,,
3135,,memorable_rating,298412,West Palm Beach,,53,,,5,,,,,,,,,,,,,,,
null,,confidence_buffer,298515,confidence_buffer,,null,,,,,,,,,,,,,,,,,,
null,,thebreak,299020,break,,null,,,,,,,,,,,,,,,,,,
2702,,familiar_rating,301723,Tamarisk Hills,,49,Tamarisk Hills,Fictional,1,,,,,,,,,,,,,,,
null,,confidence_buffer,301826,confidence_buffer,,null,,,,,,,,,,,,,,,,,,
7643.899999991059,,unique_rating,309471,Tamarisk Hills,,53,,,5,,,,,,,,,,,,,,,
null,,confidence_buffer,309575,confidence_buffer,,null,,,,,,,,,,,,,,,,,,
2662.5999999940395,,memorable_rating,312239,Tamarisk Hills,,53,,,5,,,,,,,,,,,,,,,
null,,confidence_buffer,312342,confidence_buffer,,null,,,,,,,,,,,,,,,,,,
null,,thebreak,312847,break,,null,,,,,,,,,,,,,,,,,,
6295.100000008941,,familiar_rating,319143,Delaro Park,,49,Delaro Park,Fictional,1,,,,,,,,,,,,,,,
null,,confidence_buffer,319245,confidence_buffer,,null,,,,,,,,,,,,,,,,,,
9161.29999999702,,unique_rating,328408,Delaro Park,,52,,,4,,,,,,,,,,,,,,,
null,,confidence_buffer,328509,confidence_buffer,,null,,,,,,,,,,,,,,,,,,
2360.7999999970198,,memorable_rating,330871,Delaro Park,,52,,,4,,,,,,,,,,,,,,,
null,,confidence_buffer,330976,confidence_buffer,,null,,,,,,,,,,,,,,,,,,
null,,thebreak,331480,break,,null,,,,,,,,,,,,,,,,,,
2989.7000000029802,,familiar_rating,334471,Racine,,53,Racine,US,5,,,,,,,,,,,,,,,
null,,confidence_buffer,334574,confidence_buffer,,null,,,,,,,,,,,,,,,,,,
6449.100000008941,,unique_rating,341024,Racine,,51,,,3,,,,,,,,,,,,,,,
null,,confidence_buffer,341128,confidence_buffer,,null,,,,,,,,,,,,,,,,,,
1902.1000000089407,,probe_rating,343032,probe_rating,,49,,,,1,1,,,,,,,,,,,,,
null,,confidence_buffer,343137,confidence_buffer,,null,,,,,,,,,,,,,,,,,,
2966,,memorable_rating,346104,Racine,,52,,,4,,,,,,,,,,,,,,,
null,,confidence_buffer,346208,confidence_buffer,,null,,,,,,,,,,,,,,,,,,
null,,thebreak,346712,break,,null,,,,,,,,,,,,,,,,,,
3539.7999999970198,,familiar_rating,350253,Alliance,,53,Alliance,US,5,,,,,,,,,,,,,,,
null,,confidence_buffer,350357,confidence_buffer,,null,,,,,,,,,,,,,,,,,,
5942.600000008941,,unique_rating,356301,Alliance,,49,,,1,,,,,,,,,,,,,,,
null,,confidence_buffer,356406,confidence_buffer,,null,,,,,,,,,,,,,,,,,,
4026.7000000029802,,memorable_rating,360434,Alliance,,53,,,5,,,,,,,,,,,,,,,
null,,confidence_buffer,360539,confidence_buffer,,null,,,,,,,,,,,,,,,,,,
null,,thebreak,361044,break,,null,,,,,,,,,,,,,,,,,,
2348.0999999940395,,familiar_rating,363394,Redgrove,,49,Redgrove,Fictional,1,,,,,,,,,,,,,,,
null,,confidence_buffer,363495,confidence_buffer,,null,,,,,,,,,,,,,,,,,,
12423.39999999106,,unique_rating,375920,Redgrove,,50,,,2,,,,,,,,,,,,,,,
null,,confidence_buffer,376021,confidence_buffer,,null,,,,,,,,,,,,,,,,,,
1904.5999999940395,,memorable_rating,377927,Redgrove,,52,,,4,,,,,,,,,,,,,,,
null,,confidence_buffer,378030,confidence_buffer,,null,,,,,,,,,,,,,,,,,,
null,,thebreak,378534,break,,null,,,,,,,,,,,,,,,,,,
1879.7999999970198,,familiar_rating,380415,Hilo,,49,Hilo,US,1,,,,,,,,,,,,,,,
null,,confidence_buffer,380519,confidence_buffer,,null,,,,,,,,,,,,,,,,,,
5052.5,,unique_rating,385573,Hilo,,53,,,5,,,,,,,,,,,,,,,
null,,confidence_buffer,385674,confidence_buffer,,null,,,,,,,,,,,,,,,,,,
1946.300000011921,,memorable_rating,387622,Hilo,,53,,,5,,,,,,,,,,,,,,,
null,,confidence_buffer,387724,confidence_buffer,,null,,,,,,,,,,,,,,,,,,
null,,thebreak,388228,break,,null,,,,,,,,,,,,,,,,,,
2047.3999999910593,,familiar_rating,390277,Medora,,49,Medora,US,1,,,,,,,,,,,,,,,
null,,confidence_buffer,390382,confidence_buffer,,null,,,,,,,,,,,,,,,,,,
2997.2000000029802,,unique_rating,393381,Medora,,51,,,3,,,,,,,,,,,,,,,
null,,confidence_buffer,393482,confidence_buffer,,null,,,,,,,,,,,,,,,,,,
1386.2999999970198,,probe_rating,394870,probe_rating,,52,,,,4,1,,,,,,,,,,,,,
null,,confidence_buffer,394974,confidence_buffer,,null,,,,,,,,,,,,,,,,,,
9054.20000000298,,memorable_rating,404029,Medora,,52,,,4,,,,,,,,,,,,,,,
null,,confidence_buffer,404134,confidence_buffer,,null,,,,,,,,,,,,,,,,,,
null,,thebreak,404639,break,,null,,,,,,,,,,,,,,,,,,
2917,,familiar_rating,407557,Park City,,53,Park City,US,5,,,,,,,,,,,,,,,
null,,confidence_buffer,407659,confidence_buffer,,null,,,,,,,,,,,,,,,,,,
1736.2000000029802,,unique_rating,409396,Park City,,49,,,1,,,,,,,,,,,,,,,
null,,confidence_buffer,409499,confidence_buffer,,null,,,,,,,,,,,,,,,,,,
2744.3999999910593,,memorable_rating,412244,Park City,,51,,,3,,,,,,,,,,,,,,,
null,,confidence_buffer,412347,confidence_buffer,,null,,,,,,,,,,,,,,,,,,
null,,thebreak,412852,break,,null,,,,,,,,,,,,,,,,,,
1871.7000000029802,,familiar_rating,414725,Crestwood,,49,Crestwood,Fictional,1,,,,,,,,,,,,,,,
null,,confidence_buffer,414826,confidence_buffer,,null,,,,,,,,,,,,,,,,,,
6476.29999999702,,unique_rating,421304,Crestwood,,49,,,1,,,,,,,,,,,,,,,
null,,confidence_buffer,421408,confidence_buffer,,null,,,,,,,,,,,,,,,,,,
1799.1000000089407,,memorable_rating,423209,Crestwood,,51,,,3,,,,,,,,,,,,,,,
null,,confidence_buffer,423313,confidence_buffer,,null,,,,,,,,,,,,,,,,,,
null,,thebreak,423818,break,,null,,,,,,,,,,,,,,,,,,
1629.3999999910593,,familiar_rating,425449,Riverlyn,,49,Riverlyn,Fictional,1,,,,,,,,,,,,,,,
null,,confidence_buffer,425553,confidence_buffer,,null,,,,,,,,,,,,,,,,,,
7370.79999999702,,unique_rating,432925,Riverlyn,,51,,,3,,,,,,,,,,,,,,,
null,,confidence_buffer,433029,confidence_buffer,,null,,,,,,,,,,,,,,,,,,
1342.2999999970198,,probe_rating,434373,probe_rating,,49,,,,1,1,,,,,,,,,,,,,
null,,confidence_buffer,434475,confidence_buffer,,null,,,,,,,,,,,,,,,,,,
4241.20000000298,,memorable_rating,438717,Riverlyn,,52,,,4,,,,,,,,,,,,,,,
null,,confidence_buffer,438819,confidence_buffer,,null,,,,,,,,,,,,,,,,,,
null,,thebreak,439331,break,,null,,,,,,,,,,,,,,,,,,
1512.5,,familiar_rating,440845,Livingston,,53,Livingston,US,5,,,,,,,,,,,,,,,
null,,confidence_buffer,440947,confidence_buffer,,null,,,,,,,,,,,,,,,,,,
1768.7999999970198,,probe_rating,442717,probe_rating,,53,,,,5,1,,,,,,,,,,,,,
null,,confidence_buffer,442822,confidence_buffer,,null,,,,,,,,,,,,,,,,,,
2069.2000000029802,,unique_rating,444893,Livingston,,49,,,1,,,,,,,,,,,,,,,
null,,confidence_buffer,444994,confidence_buffer,,null,,,,,,,,,,,,,,,,,,
6463.5,,memorable_rating,451459,Livingston,,53,,,5,,,,,,,,,,,,,,,
null,,confidence_buffer,451561,confidence_buffer,,null,,,,,,,,,,,,,,,,,,
null,,thebreak,452064,break,,null,,,,,,,,,,,,,,,,,,
1672.2999999970198,,familiar_rating,453738,Brookmere,,49,Brookmere,Fictional,1,,,,,,,,,,,,,,,
null,,confidence_buffer,453840,confidence_buffer,,null,,,,,,,,,,,,,,,,,,
3463.2999999970198,,probe_rating,457305,probe_rating,,53,,,,5,1,,,,,,,,,,,,,
null,,confidence_buffer,457410,confidence_buffer,,null,,,,,,,,,,,,,,,,,,
15300,,unique_rating,472711,Brookmere,,52,,,4,,,,,,,,,,,,,,,
null,,confidence_buffer,472815,confidence_buffer,,null,,,,,,,,,,,,,,,,,,
2045.2999999970198,,memorable_rating,474862,Brookmere,,51,,,3,,,,,,,,,,,,,,,
null,,confidence_buffer,474963,confidence_buffer,,null,,,,,,,,,,,,,,,,,,
null,,thebreak,475468,break,,null,,,,,,,,,,,,,,,,,,
1416.2000000029802,,familiar_rating,476886,Newport,,53,Newport,US,5,,,,,,,,,,,,,,,
null,,confidence_buffer,476989,confidence_buffer,,null,,,,,,,,,,,,,,,,,,
3135,,unique_rating,480126,Newport,,49,,,1,,,,,,,,,,,,,,,
null,,confidence_buffer,480229,confidence_buffer,,null,,,,,,,,,,,,,,,,,,
2775.9000000059605,,memorable_rating,483006,Newport,,52,,,4,,,,,,,,,,,,,,,
null,,confidence_buffer,483108,confidence_buffer,,null,,,,,,,,,,,,,,,,,,
null,,thebreak,483613,break,,null,,,,,,,,,,,,,,,,,,
2751.5999999940395,,familiar_rating,486366,Lakehaven,,53,Lakehaven,Fictional,5,,,,,,,,,,,,,,,
null,,confidence_buffer,486469,confidence_buffer,,null,,,,,,,,,,,,,,,,,,
4736.600000008941,,unique_rating,491206,Lakehaven,,49,,,1,,,,,,,,,,,,,,,
null,,confidence_buffer,491311,confidence_buffer,,null,,,,,,,,,,,,,,,,,,
2150.800000011921,,memorable_rating,493463,Lakehaven,,51,,,3,,,,,,,,,,,,,,,
null,,confidence_buffer,493568,confidence_buffer,,null,,,,,,,,,,,,,,,,,,
null,,thebreak,494073,break,,null,,,,,,,,,,,,,,,,,,
4456,,intro_0,498530,instruct,,32,,,,,,,,,,,,,,,,,,
7271.0999999940395,,intro_1,505803,instruct,,32,,,,,,,,,,,,,,,,,,
11234.60000000894,,intro_2,517039,instruct,,32,,,,,,,,,,,,,,,,,,
null,,instruct_dir_4,518541,instruct,,null,,,,,,,,,,,,,,,,,,
6040.79999999702,,realistic_rating,524583,Bisbee,,53,Bisbee,US,5,,,,,,,,,,,,,,,
null,,confidence_buffer,524685,confidence_buffer,,null,,,,,,,,,,,,,,,,,,
7308.899999991059,,pt2_unique_rating,531995,Bisbee,,49,,,1,,,,,,,,,,,,,,,
null,,confidence_buffer,532097,confidence_buffer,,null,,,,,,,,,,,,,,,,,,
2352.4000000059605,,pt2_memorable_rating,534451,Bisbee,,52,,,4,,,,,,,,,,,,,,,
null,,confidence_buffer,534556,confidence_buffer,,null,,,,,,,,,,,,,,,,,,
3236.7999999970198,,recognition_phase,537794,Bisbee,,52,,,,,,new,1,1,,,,,,,,,,
null,,confidence_buffer,537899,confidence_buffer,,null,,,,,,,,,,,,,,,,,,
null,,thebreak,538405,break,,null,,,,,,,,,,,,,,,,,,
5637.20000000298,,realistic_rating,544044,Riverlyn,,51,Riverlyn,Fictional,3,,,,,,,,,,,,,,,
null,,confidence_buffer,544146,confidence_buffer,,null,,,,,,,,,,,,,,,,,,
7136.4000000059605,,pt2_unique_rating,551283,Riverlyn,,51,,,3,,,,,,,,,,,,,,,
null,,confidence_buffer,551385,confidence_buffer,,null,,,,,,,,,,,,,,,,,,
4697.899999991059,,pt2_memorable_rating,556084,Riverlyn,,52,,,4,,,,,,,,,,,,,,,
null,,confidence_buffer,556187,confidence_buffer,,null,,,,,,,,,,,,,,,,,,
2887,,recognition_phase,559075,Riverlyn,,49,,,,,,old,1,1,,,,,,,,,,
null,,confidence_buffer,559180,confidence_buffer,,null,,,,,,,,,,,,,,,,,,
null,,thebreak,559683,break,,null,,,,,,,,,,,,,,,,,,
6536.5,,realistic_rating,566220,Ashford Hills,,53,Ashford Hills,Fictional,5,,,,,,,,,,,,,,,
null,,confidence_buffer,566325,confidence_buffer,,null,,,,,,,,,,,,,,,,,,
5372.9000000059605,,pt2_unique_rating,571699,Ashford Hills,,50,,,2,,,,,,,,,,,,,,,
null,,confidence_buffer,571805,confidence_buffer,,null,,,,,,,,,,,,,,,,,,
2285.7000000029802,,pt2_memorable_rating,574092,Ashford Hills,,51,,,3,,,,,,,,,,,,,,,
null,,confidence_buffer,574197,confidence_buffer,,null,,,,,,,,,,,,,,,,,,
1677.5,,recognition_phase,575876,Ashford Hills,,49,,,,,,old,1,1,,,,,,,,,,
null,,confidence_buffer,575979,confidence_buffer,,null,,,,,,,,,,,,,,,,,,
null,,thebreak,576484,break,,null,,,,,,,,,,,,,,,,,,
2622.699999988079,,realistic_rating,579108,Cleveland,,53,Cleveland,US,5,,,,,,,,,,,,,,,
null,,confidence_buffer,579212,confidence_buffer,,null,,,,,,,,,,,,,,,,,,
5030.29999999702,,pt2_unique_rating,584244,Cleveland,,49,,,1,,,,,,,,,,,,,,,
null,,confidence_buffer,584348,confidence_buffer,,null,,,,,,,,,,,,,,,,,,
3270.4000000059605,,pt2_memorable_rating,587620,Cleveland,,52,,,4,,,,,,,,,,,,,,,
null,,confidence_buffer,587723,confidence_buffer,,null,,,,,,,,,,,,,,,,,,
4337.899999991059,,recognition_phase,592062,Cleveland,,52,,,,,,new,1,1,,,,,,,,,,
null,,confidence_buffer,592163,confidence_buffer,,null,,,,,,,,,,,,,,,,,,
null,,thebreak,592667,break,,null,,,,,,,,,,,,,,,,,,
4120.4000000059605,,realistic_rating,596789,Medora,,52,Medora,US,4,,,,,,,,,,,,,,,
null,,confidence_buffer,596894,confidence_buffer,,null,,,,,,,,,,,,,,,,,,
7403.5,,pt2_unique_rating,604299,Medora,,50,,,2,,,,,,,,,,,,,,,
null,,confidence_buffer,604400,confidence_buffer,,null,,,,,,,,,,,,,,,,,,
3726.5,,pt2_memorable_rating,608128,Medora,,52,,,4,,,,,,,,,,,,,,,
null,,confidence_buffer,608232,confidence_buffer,,null,,,,,,,,,,,,,,,,,,
2150.2000000029802,,recognition_phase,610384,Medora,,49,,,,,,old,1,1,,,,,,,,,,
null,,confidence_buffer,610488,confidence_buffer,,null,,,,,,,,,,,,,,,,,,
null,,thebreak,610993,break,,null,,,,,,,,,,,,,,,,,,
5347.899999991059,,realistic_rating,616342,Pine Hollow,,53,Pine Hollow,Fictional,5,,,,,,,,,,,,,,,
null,,confidence_buffer,616446,confidence_buffer,,null,,,,,,,,,,,,,,,,,,
5979.100000008941,,pt2_unique_rating,622426,Pine Hollow,,49,,,1,,,,,,,,,,,,,,,
null,,confidence_buffer,622528,confidence_buffer,,null,,,,,,,,,,,,,,,,,,
1783.9000000059605,,pt2_memorable_rating,624314,Pine Hollow,,52,,,4,,,,,,,,,,,,,,,
null,,confidence_buffer,624415,confidence_buffer,,null,,,,,,,,,,,,,,,,,,
1681,,recognition_phase,626098,Pine Hollow,,49,,,,,,old,1,1,,,,,,,,,,
null,,confidence_buffer,626203,confidence_buffer,,null,,,,,,,,,,,,,,,,,,
null,,thebreak,626709,break,,null,,,,,,,,,,,,,,,,,,
4943.5,,realistic_rating,631654,West Talora,,53,West Talora,Fictional,5,,,,,,,,,,,,,,,
null,,confidence_buffer,631758,confidence_buffer,,null,,,,,,,,,,,,,,,,,,
5845.9000000059605,,pt2_unique_rating,637605,West Talora,,52,,,4,,,,,,,,,,,,,,,
null,,confidence_buffer,637708,confidence_buffer,,null,,,,,,,,,,,,,,,,,,
4756.5,,pt2_memorable_rating,642465,West Talora,,51,,,3,,,,,,,,,,,,,,,
null,,confidence_buffer,642567,confidence_buffer,,null,,,,,,,,,,,,,,,,,,
2520.5,,recognition_phase,645089,West Talora,,52,,,,,,new,1,1,,,,,,,,,,
null,,confidence_buffer,645190,confidence_buffer,,null,,,,,,,,,,,,,,,,,,
null,,thebreak,645695,break,,null,,,,,,,,,,,,,,,,,,
2160.6000000089407,,realistic_rating,647857,San Antonio,,53,San Antonio,US,5,,,,,,,,,,,,,,,
null,,confidence_buffer,647958,confidence_buffer,,null,,,,,,,,,,,,,,,,,,
7786,,pt2_unique_rating,655746,San Antonio,,49,,,1,,,,,,,,,,,,,,,
null,,confidence_buffer,655848,confidence_buffer,,null,,,,,,,,,,,,,,,,,,
2071.7000000029802,,probe_rating,657921,probe_rating,,51,,,,3,1,,,,,,,,,,,,,
null,,confidence_buffer,658024,confidence_buffer,,null,,,,,,,,,,,,,,,,,,
3503.9000000059605,,pt2_memorable_rating,661529,San Antonio,,53,,,5,,,,,,,,,,,,,,,
null,,confidence_buffer,661631,confidence_buffer,,null,,,,,,,,,,,,,,,,,,
2449.1000000089407,,recognition_phase,664081,San Antonio,,52,,,,,,new,1,1,,,,,,,,,,
null,,confidence_buffer,664183,confidence_buffer,,null,,,,,,,,,,,,,,,,,,
null,,thebreak,664688,break,,null,,,,,,,,,,,,,,,,,,
6201.79999999702,,realistic_rating,670891,New Verdan,,51,New Verdan,Fictional,3,,,,,,,,,,,,,,,
null,,confidence_buffer,670993,confidence_buffer,,null,,,,,,,,,,,,,,,,,,
1928.2000000029802,,probe_rating,672922,probe_rating,,53,,,,5,1,,,,,,,,,,,,,
null,,confidence_buffer,673024,confidence_buffer,,null,,,,,,,,,,,,,,,,,,
6307.9000000059605,,pt2_unique_rating,679333,New Verdan,,51,,,3,,,,,,,,,,,,,,,
null,,confidence_buffer,679438,confidence_buffer,,null,,,,,,,,,,,,,,,,,,
5198.4000000059605,,pt2_memorable_rating,684637,New Verdan,,51,,,3,,,,,,,,,,,,,,,
null,,confidence_buffer,684739,confidence_buffer,,null,,,,,,,,,,,,,,,,,,
2168.3999999910593,,recognition_phase,686909,New Verdan,,52,,,,,,new,1,1,,,,,,,,,,
null,,confidence_buffer,687013,confidence_buffer,,null,,,,,,,,,,,,,,,,,,
null,,thebreak,687519,break,,null,,,,,,,,,,,,,,,,,,
4534.20000000298,,realistic_rating,692054,Lakehaven,,53,Lakehaven,Fictional,5,,,,,,,,,,,,,,,
null,,confidence_buffer,692157,confidence_buffer,,null,,,,,,,,,,,,,,,,,,
3257.5,,pt2_unique_rating,695415,Lakehaven,,49,,,1,,,,,,,,,,,,,,,
null,,confidence_buffer,695517,confidence_buffer,,null,,,,,,,,,,,,,,,,,,
2695.3999999910593,,pt2_memorable_rating,698214,Lakehaven,,52,,,4,,,,,,,,,,,,,,,
null,,confidence_buffer,698316,confidence_buffer,,null,,,,,,,,,,,,,,,,,,
2048.5999999940395,,recognition_phase,700366,Lakehaven,,49,,,,,,old,1,1,,,,,,,,,,
null,,confidence_buffer,700469,confidence_buffer,,null,,,,,,,,,,,,,,,,,,
null,,thebreak,700974,break,,null,,,,,,,,,,,,,,,,,,
3795.0999999940395,,realistic_rating,704770,Folly Beach,,53,Folly Beach,US,5,,,,,,,,,,,,,,,
null,,confidence_buffer,704875,confidence_buffer,,null,,,,,,,,,,,,,,,,,,
2558.7000000029802,,pt2_unique_rating,707435,Folly Beach,,50,,,2,,,,,,,,,,,,,,,
null,,confidence_buffer,707540,confidence_buffer,,null,,,,,,,,,,,,,,,,,,
2068.800000011921,,pt2_memorable_rating,709610,Folly Beach,,52,,,4,,,,,,,,,,,,,,,
null,,confidence_buffer,709712,confidence_buffer,,null,,,,,,,,,,,,,,,,,,
2448.7999999970198,,recognition_phase,712162,Folly Beach,,52,,,,,,new,1,1,,,,,,,,,,
null,,confidence_buffer,712264,confidence_buffer,,null,,,,,,,,,,,,,,,,,,
null,,thebreak,712770,break,,null,,,,,,,,,,,,,,,,,,
3772.8999999910593,,realistic_rating,716544,Briarfield,,53,Briarfield,Fictional,5,,,,,,,,,,,,,,,
null,,confidence_buffer,716647,confidence_buffer,,null,,,,,,,,,,,,,,,,,,
5079.100000008941,,pt2_unique_rating,721728,Briarfield,,50,,,2,,,,,,,,,,,,,,,
null,,confidence_buffer,721831,confidence_buffer,,null,,,,,,,,,,,,,,,,,,
2199.800000011921,,pt2_memorable_rating,724032,Briarfield,,52,,,4,,,,,,,,,,,,,,,
null,,confidence_buffer,724135,confidence_buffer,,null,,,,,,,,,,,,,,,,,,
1151,,recognition_phase,725287,Briarfield,,52,,,,,,new,1,1,,,,,,,,,,
null,,confidence_buffer,725389,confidence_buffer,,null,,,,,,,,,,,,,,,,,,
null,,thebreak,725894,break,,null,,,,,,,,,,,,,,,,,,
3814.5,,realistic_rating,729709,Hilo,,53,Hilo,US,5,,,,,,,,,,,,,,,
null,,confidence_buffer,729812,confidence_buffer,,null,,,,,,,,,,,,,,,,,,
3625,,pt2_unique_rating,733438,Hilo,,52,,,4,,,,,,,,,,,,,,,
null,,confidence_buffer,733540,confidence_buffer,,null,,,,,,,,,,,,,,,,,,
2320,,pt2_memorable_rating,735861,Hilo,,52,,,4,,,,,,,,,,,,,,,
null,,confidence_buffer,735966,confidence_buffer,,null,,,,,,,,,,,,,,,,,,
2630,,recognition_phase,738597,Hilo,,49,,,,,,old,1,1,,,,,,,,,,
null,,confidence_buffer,738699,confidence_buffer,,null,,,,,,,,,,,,,,,,,,
null,,thebreak,739204,break,,null,,,,,,,,,,,,,,,,,,
2360,,realistic_rating,741565,Coeur d'Alene,,53,Coeur d'Alene,US,5,,,,,,,,,,,,,,,
null,,confidence_buffer,741667,confidence_buffer,,null,,,,,,,,,,,,,,,,,,
4079.1000000089407,,pt2_unique_rating,745748,Coeur d'Alene,,50,,,2,,,,,,,,,,,,,,,
null,,confidence_buffer,745851,confidence_buffer,,null,,,,,,,,,,,,,,,,,,
4423.20000000298,,pt2_memorable_rating,750275,Coeur d'Alene,,53,,,5,,,,,,,,,,,,,,,
null,,confidence_buffer,750379,confidence_buffer,,null,,,,,,,,,,,,,,,,,,
4070.8999999910593,,recognition_phase,754451,Coeur d'Alene,,52,,,,,,new,1,1,,,,,,,,,,
null,,confidence_buffer,754553,confidence_buffer,,null,,,,,,,,,,,,,,,,,,
null,,thebreak,755058,break,,null,,,,,,,,,,,,,,,,,,
3377.7999999970198,,realistic_rating,758437,Maplehurst,,53,Maplehurst,Fictional,5,,,,,,,,,,,,,,,
null,,confidence_buffer,758542,confidence_buffer,,null,,,,,,,,,,,,,,,,,,
5596.5,,pt2_unique_rating,764140,Maplehurst,,50,,,2,,,,,,,,,,,,,,,
null,,confidence_buffer,764246,confidence_buffer,,null,,,,,,,,,,,,,,,,,,
3077.6000000089407,,pt2_memorable_rating,767325,Maplehurst,,52,,,4,,,,,,,,,,,,,,,
null,,confidence_buffer,767428,confidence_buffer,,null,,,,,,,,,,,,,,,,,,
2095.6000000089407,,recognition_phase,769525,Maplehurst,,52,,,,,,new,1,1,,,,,,,,,,
null,,confidence_buffer,769627,confidence_buffer,,null,,,,,,,,,,,,,,,,,,
null,,thebreak,770132,break,,null,,,,,,,,,,,,,,,,,,
4526.20000000298,,realistic_rating,774660,Crestwood,,53,Crestwood,Fictional,5,,,,,,,,,,,,,,,
null,,confidence_buffer,774764,confidence_buffer,,null,,,,,,,,,,,,,,,,,,
1638.1000000089407,,pt2_unique_rating,776404,Crestwood,,50,,,2,,,,,,,,,,,,,,,
null,,confidence_buffer,776506,confidence_buffer,,null,,,,,,,,,,,,,,,,,,
2584.0999999940395,,pt2_memorable_rating,779092,Crestwood,,51,,,3,,,,,,,,,,,,,,,
null,,confidence_buffer,779194,confidence_buffer,,null,,,,,,,,,,,,,,,,,,
1969.300000011921,,probe_rating,781164,probe_rating,,53,,,,5,1,,,,,,,,,,,,,
null,,confidence_buffer,781268,confidence_buffer,,null,,,,,,,,,,,,,,,,,,
4423.20000000298,,recognition_phase,785692,Crestwood,,50,,,,,,old,1,1,,,,,,,,,,
null,,confidence_buffer,785796,confidence_buffer,,null,,,,,,,,,,,,,,,,,,
null,,thebreak,786298,break,,null,,,,,,,,,,,,,,,,,,
5582.100000008941,,realistic_rating,791882,Ironwood Heights,,51,Ironwood Heights,Fictional,3,,,,,,,,,,,,,,,
null,,confidence_buffer,791983,confidence_buffer,,null,,,,,,,,,,,,,,,,,,
5880.600000008941,,pt2_unique_rating,797865,Ironwood Heights,,50,,,2,,,,,,,,,,,,,,,
null,,confidence_buffer,797967,confidence_buffer,,null,,,,,,,,,,,,,,,,,,
3001,,pt2_memorable_rating,800969,Ironwood Heights,,52,,,4,,,,,,,,,,,,,,,
null,,confidence_buffer,801073,confidence_buffer,,null,,,,,,,,,,,,,,,,,,
3295.3999999910593,,recognition_phase,804370,Ironwood Heights,,52,,,,,,new,1,1,,,,,,,,,,
null,,confidence_buffer,804474,confidence_buffer,,null,,,,,,,,,,,,,,,,,,
null,,thebreak,804978,break,,null,,,,,,,,,,,,,,,,,,
2445.0999999940395,,realistic_rating,807425,Barnard,,53,Barnard,US,5,,,,,,,,,,,,,,,
null,,confidence_buffer,807528,confidence_buffer,,null,,,,,,,,,,,,,,,,,,
3397.2999999970198,,pt2_unique_rating,810926,Barnard,,50,,,2,,,,,,,,,,,,,,,
null,,confidence_buffer,811028,confidence_buffer,,null,,,,,,,,,,,,,,,,,,
2369,,pt2_memorable_rating,813398,Barnard,,52,,,4,,,,,,,,,,,,,,,
null,,confidence_buffer,813500,confidence_buffer,,null,,,,,,,,,,,,,,,,,,
3897.2000000029802,,recognition_phase,817399,Barnard,,52,,,,,,new,1,1,,,,,,,,,,
null,,confidence_buffer,817500,confidence_buffer,,null,,,,,,,,,,,,,,,,,,
null,,thebreak,818004,break,,null,,,,,,,,,,,,,,,,,,
1960.199999988079,,realistic_rating,819966,Athens,,53,Athens,US,5,,,,,,,,,,,,,,,
null,,confidence_buffer,820071,confidence_buffer,,null,,,,,,,,,,,,,,,,,,
7264.5,,pt2_unique_rating,827336,Athens,,50,,,2,,,,,,,,,,,,,,,
null,,confidence_buffer,827438,confidence_buffer,,null,,,,,,,,,,,,,,,,,,
3753.2999999970198,,pt2_memorable_rating,831193,Athens,,52,,,4,,,,,,,,,,,,,,,
null,,confidence_buffer,831297,confidence_buffer,,null,,,,,,,,,,,,,,,,,,
5969.79999999702,,recognition_phase,837268,Athens,,52,,,,,,new,1,1,,,,,,,,,,
null,,confidence_buffer,837370,confidence_buffer,,null,,,,,,,,,,,,,,,,,,
null,,thebreak,837875,break,,null,,,,,,,,,,,,,,,,,,
4216.29999999702,,realistic_rating,842093,Summershade,,52,Summershade,Fictional,4,,,,,,,,,,,,,,,
null,,confidence_buffer,842194,confidence_buffer,,null,,,,,,,,,,,,,,,,,,
2952.800000011921,,pt2_unique_rating,845148,Summershade,,50,,,2,,,,,,,,,,,,,,,
null,,confidence_buffer,845252,confidence_buffer,,null,,,,,,,,,,,,,,,,,,
4577.600000008941,,pt2_memorable_rating,849831,Summershade,,52,,,4,,,,,,,,,,,,,,,
null,,confidence_buffer,849933,confidence_buffer,,null,,,,,,,,,,,,,,,,,,
1856.9000000059605,,recognition_phase,851791,Summershade,,52,,,,,,new,1,1,,,,,,,,,,
null,,confidence_buffer,851894,confidence_buffer,,null,,,,,,,,,,,,,,,,,,
null,,thebreak,852398,break,,null,,,,,,,,,,,,,,,,,,
2024.7000000029802,,realistic_rating,854424,Gloucester,,53,Gloucester,US,5,,,,,,,,,,,,,,,
null,,confidence_buffer,854529,confidence_buffer,,null,,,,,,,,,,,,,,,,,,
4767.5,,pt2_unique_rating,859297,Gloucester,,50,,,2,,,,,,,,,,,,,,,
null,,confidence_buffer,859399,confidence_buffer,,null,,,,,,,,,,,,,,,,,,
2656.3999999910593,,pt2_memorable_rating,862057,Gloucester,,52,,,4,,,,,,,,,,,,,,,
null,,confidence_buffer,862161,confidence_buffer,,null,,,,,,,,,,,,,,,,,,
2383.0999999940395,,recognition_phase,864546,Gloucester,,52,,,,,,new,1,1,,,,,,,,,,
null,,confidence_buffer,864648,confidence_buffer,,null,,,,,,,,,,,,,,,,,,
null,,thebreak,865151,break,,null,,,,,,,,,,,,,,,,,,
1624.800000011921,,realistic_rating,866777,Natchez,,53,Natchez,US,5,,,,,,,,,,,,,,,
null,,confidence_buffer,866881,confidence_buffer,,null,,,,,,,,,,,,,,,,,,
2750.800000011921,,pt2_unique_rating,869633,Natchez,,50,,,2,,,,,,,,,,,,,,,
null,,confidence_buffer,869737,confidence_buffer,,null,,,,,,,,,,,,,,,,,,
3243.0999999940395,,pt2_memorable_rating,872982,Natchez,,52,,,4,,,,,,,,,,,,,,,
null,,confidence_buffer,873086,confidence_buffer,,null,,,,,,,,,,,,,,,,,,
1694.2999999970198,,recognition_phase,874782,Natchez,,52,,,,,,new,1,1,,,,,,,,,,
null,,confidence_buffer,874887,confidence_buffer,,null,,,,,,,,,,,,,,,,,,
null,,thebreak,875391,break,,null,,,,,,,,,,,,,,,,,,
2244.8999999910593,,realistic_rating,877637,Gatlinburg,,53,Gatlinburg,US,5,,,,,,,,,,,,,,,
null,,confidence_buffer,877742,confidence_buffer,,null,,,,,,,,,,,,,,,,,,
4488.9000000059605,,pt2_unique_rating,882232,Gatlinburg,,50,,,2,,,,,,,,,,,,,,,
null,,confidence_buffer,882334,confidence_buffer,,null,,,,,,,,,,,,,,,,,,
1632.3999999910593,,pt2_memorable_rating,883968,Gatlinburg,,52,,,4,,,,,,,,,,,,,,,
null,,confidence_buffer,884072,confidence_buffer,,null,,,,,,,,,,,,,,,,,,
1415.2999999970198,,recognition_phase,885489,Gatlinburg,,52,,,,,,new,1,1,,,,,,,,,,
null,,confidence_buffer,885590,confidence_buffer,,null,,,,,,,,,,,,,,,,,,
null,,thebreak,886095,break,,null,,,,,,,,,,,,,,,,,,
5864.5999999940395,,realistic_rating,891961,Orchard Bend,,52,Orchard Bend,Fictional,4,,,,,,,,,,,,,,,
null,,confidence_buffer,892062,confidence_buffer,,null,,,,,,,,,,,,,,,,,,
1896.7999999970198,,pt2_unique_rating,893961,Orchard Bend,,50,,,2,,,,,,,,,,,,,,,
null,,confidence_buffer,894066,confidence_buffer,,null,,,,,,,,,,,,,,,,,,
2710.0999999940395,,pt2_memorable_rating,896777,Orchard Bend,,52,,,4,,,,,,,,,,,,,,,
null,,confidence_buffer,896881,confidence_buffer,,null,,,,,,,,,,,,,,,,,,
2598.2999999970198,,recognition_phase,899481,Orchard Bend,,49,,,,,,old,1,1,,,,,,,,,,
null,,confidence_buffer,899585,confidence_buffer,,null,,,,,,,,,,,,,,,,,,
null,,thebreak,900087,break,,null,,,,,,,,,,,,,,,,,,
4863.29999999702,,realistic_rating,904952,Rosehollow,,51,Rosehollow,Fictional,3,,,,,,,,,,,,,,,
null,,confidence_buffer,905054,confidence_buffer,,null,,,,,,,,,,,,,,,,,,
3321.3999999910593,,pt2_unique_rating,908376,Rosehollow,,50,,,2,,,,,,,,,,,,,,,
null,,confidence_buffer,908478,confidence_buffer,,null,,,,,,,,,,,,,,,,,,
1759.699999988079,,pt2_memorable_rating,910239,Rosehollow,,52,,,4,,,,,,,,,,,,,,,
null,,confidence_buffer,910342,confidence_buffer,,null,,,,,,,,,,,,,,,,,,
2159,,recognition_phase,912503,Rosehollow,,49,,,,,,old,1,1,,,,,,,,,,
null,,confidence_buffer,912606,confidence_buffer,,null,,,,,,,,,,,,,,,,,,
null,,thebreak,913110,break,,null,,,,,,,,,,,,,,,,,,
9285.29999999702,,realistic_rating,922397,Linden Trace,,50,Linden Trace,Fictional,2,,,,,,,,,,,,,,,
null,,confidence_buffer,922499,confidence_buffer,,null,,,,,,,,,,,,,,,,,,
4136,,pt2_unique_rating,926636,Linden Trace,,49,,,1,,,,,,,,,,,,,,,
null,,confidence_buffer,926740,confidence_buffer,,null,,,,,,,,,,,,,,,,,,
1766.1000000089407,,pt2_memorable_rating,928508,Linden Trace,,51,,,3,,,,,,,,,,,,,,,
null,,confidence_buffer,928610,confidence_buffer,,null,,,,,,,,,,,,,,,,,,
1737.300000011921,,recognition_phase,930348,Linden Trace,,52,,,,,,new,1,1,,,,,,,,,,
null,,confidence_buffer,930450,confidence_buffer,,null,,,,,,,,,,,,,,,,,,
null,,thebreak,930954,break,,null,,,,,,,,,,,,,,,,,,
4285.79999999702,,realistic_rating,935242,Sisters,,51,Sisters,US,3,,,,,,,,,,,,,,,
null,,confidence_buffer,935343,confidence_buffer,,null,,,,,,,,,,,,,,,,,,
5376.0999999940395,,pt2_unique_rating,940721,Sisters,,51,,,3,,,,,,,,,,,,,,,
null,,confidence_buffer,940823,confidence_buffer,,null,,,,,,,,,,,,,,,,,,
3088.5999999940395,,pt2_memorable_rating,943913,Sisters,,52,,,4,,,,,,,,,,,,,,,
null,,confidence_buffer,944016,confidence_buffer,,null,,,,,,,,,,,,,,,,,,
1736.4000000059605,,recognition_phase,945753,Sisters,,52,,,,,,new,1,1,,,,,,,,,,
null,,confidence_buffer,945856,confidence_buffer,,null,,,,,,,,,,,,,,,,,,
null,,thebreak,946361,break,,null,,,,,,,,,,,,,,,,,,
2614.8999999910593,,realistic_rating,948977,New Hope,,53,New Hope,US,5,,,,,,,,,,,,,,,
null,,confidence_buffer,949079,confidence_buffer,,null,,,,,,,,,,,,,,,,,,
2848.7000000029802,,pt2_unique_rating,951928,New Hope,,50,,,2,,,,,,,,,,,,,,,
null,,confidence_buffer,952033,confidence_buffer,,null,,,,,,,,,,,,,,,,,,
1534.4000000059605,,pt2_memorable_rating,953568,New Hope,,52,,,4,,,,,,,,,,,,,,,
null,,confidence_buffer,953670,confidence_buffer,,null,,,,,,,,,,,,,,,,,,
2473.3999999910593,,recognition_phase,956145,New Hope,,49,,,,,,old,1,1,,,,,,,,,,
null,,confidence_buffer,956247,confidence_buffer,,null,,,,,,,,,,,,,,,,,,
null,,thebreak,956751,break,,null,,,,,,,,,,,,,,,,,,
3221.0999999940395,,realistic_rating,959973,Orr,,53,Orr,US,5,,,,,,,,,,,,,,,
null,,confidence_buffer,960077,confidence_buffer,,null,,,,,,,,,,,,,,,,,,
2358.7999999970198,,probe_rating,962438,probe_rating,,52,,,,4,1,,,,,,,,,,,,,
null,,confidence_buffer,962540,confidence_buffer,,null,,,,,,,,,,,,,,,,,,
2360.699999988079,,pt2_unique_rating,964902,Orr,,51,,,3,,,,,,,,,,,,,,,
null,,confidence_buffer,965006,confidence_buffer,,null,,,,,,,,,,,,,,,,,,
4102.100000008941,,pt2_memorable_rating,969109,Orr,,52,,,4,,,,,,,,,,,,,,,
null,,confidence_buffer,969214,confidence_buffer,,null,,,,,,,,,,,,,,,,,,
1477,,recognition_phase,970693,Orr,,49,,,,,,old,1,1,,,,,,,,,,
null,,confidence_buffer,970794,confidence_buffer,,null,,,,,,,,,,,,,,,,,,
null,,thebreak,971298,break,,null,,,,,,,,,,,,,,,,,,
4208.899999991059,,realistic_rating,975508,Montelake,,52,Montelake,Fictional,4,,,,,,,,,,,,,,,
null,,confidence_buffer,975611,confidence_buffer,,null,,,,,,,,,,,,,,,,,,
6312.199999988079,,pt2_unique_rating,981924,Montelake,,51,,,3,,,,,,,,,,,,,,,
null,,confidence_buffer,982026,confidence_buffer,,null,,,,,,,,,,,,,,,,,,
1352.5999999940395,,pt2_memorable_rating,983380,Montelake,,51,,,3,,,,,,,,,,,,,,,
null,,confidence_buffer,983482,confidence_buffer,,null,,,,,,,,,,,,,,,,,,
2887.9000000059605,,recognition_phase,986372,Montelake,,52,,,,,,new,1,1,,,,,,,,,,
null,,confidence_buffer,986473,confidence_buffer,,null,,,,,,,,,,,,,,,,,,
null,,thebreak,986977,break,,null,,,,,,,,,,,,,,,,,,
4329.600000008941,,realistic_rating,991308,Brookmere,,51,Brookmere,Fictional,3,,,,,,,,,,,,,,,
null,,confidence_buffer,991413,confidence_buffer,,null,,,,,,,,,,,,,,,,,,
3774.2999999970198,,pt2_unique_rating,995188,Brookmere,,50,,,2,,,,,,,,,,,,,,,
null,,confidence_buffer,995290,confidence_buffer,,null,,,,,,,,,,,,,,,,,,
1912.3999999910593,,pt2_memorable_rating,997204,Brookmere,,51,,,3,,,,,,,,,,,,,,,
null,,confidence_buffer,997308,confidence_buffer,,null,,,,,,,,,,,,,,,,,,
1582.8999999910593,,recognition_phase,998892,Brookmere,,49,,,,,,old,1,1,,,,,,,,,,
null,,confidence_buffer,998994,confidence_buffer,,null,,,,,,,,,,,,,,,,,,
null,,thebreak,999498,break,,null,,,,,,,,,,,,,,,,,,
7070,,realistic_rating,1006569,Sierra Hollow,,52,Sierra Hollow,Fictional,4,,,,,,,,,,,,,,,
null,,confidence_buffer,1006673,confidence_buffer,,null,,,,,,,,,,,,,,,,,,
1973.8999999910593,,pt2_unique_rating,1008649,Sierra Hollow,,51,,,3,,,,,,,,,,,,,,,
null,,confidence_buffer,1008751,confidence_buffer,,null,,,,,,,,,,,,,,,,,,
1696.800000011921,,pt2_memorable_rating,1010449,Sierra Hollow,,51,,,3,,,,,,,,,,,,,,,
null,,confidence_buffer,1010553,confidence_buffer,,null,,,,,,,,,,,,,,,,,,
6459.5,,recognition_phase,1017014,Sierra Hollow,,50,,,,,,old,0,0.96875,,,,,,,,,,
null,,confidence_buffer,1017116,confidence_buffer,,null,,,,,,,,,,,,,,,,,,
null,,thebreak,1017621,break,,null,,,,,,,,,,,,,,,,,,
2703.300000011921,,realistic_rating,1020326,Watkins Glen,,53,Watkins Glen,US,5,,,,,,,,,,,,,,,
null,,confidence_buffer,1020431,confidence_buffer,,null,,,,,,,,,,,,,,,,,,
4352.5,,pt2_unique_rating,1024785,Watkins Glen,,51,,,3,,,,,,,,,,,,,,,
null,,confidence_buffer,1024889,confidence_buffer,,null,,,,,,,,,,,,,,,,,,
1446.3999999910593,,pt2_memorable_rating,1026337,Watkins Glen,,51,,,3,,,,,,,,,,,,,,,
null,,confidence_buffer,1026439,confidence_buffer,,null,,,,,,,,,,,,,,,,,,
3273.1000000089407,,recognition_phase,1029713,Watkins Glen,,52,,,,,,new,1,0.9696969696969697,,,,,,,,,,
null,,confidence_buffer,1029817,confidence_buffer,,null,,,,,,,,,,,,,,,,,,
null,,thebreak,1030321,break,,null,,,,,,,,,,,,,,,,,,
3349.8999999910593,,realistic_rating,1033672,Falconridge,,53,Falconridge,Fictional,5,,,,,,,,,,,,,,,
null,,confidence_buffer,1033776,confidence_buffer,,null,,,,,,,,,,,,,,,,,,
2118.7999999970198,,probe_rating,1035896,probe_rating,,51,,,,3,1,,,,,,,,,,,,,
null,,confidence_buffer,1036001,confidence_buffer,,null,,,,,,,,,,,,,,,,,,
5739.9000000059605,,pt2_unique_rating,1041742,Falconridge,,50,,,2,,,,,,,,,,,,,,,
null,,confidence_buffer,1041845,confidence_buffer,,null,,,,,,,,,,,,,,,,,,
3159.7999999970198,,pt2_memorable_rating,1045006,Falconridge,,51,,,3,,,,,,,,,,,,,,,
null,,confidence_buffer,1045108,confidence_buffer,,null,,,,,,,,,,,,,,,,,,
2272.9000000059605,,recognition_phase,1047382,Falconridge,,52,,,,,,new,1,0.9705882352941176,,,,,,,,,,
null,,confidence_buffer,1047487,confidence_buffer,,null,,,,,,,,,,,,,,,,,,
null,,thebreak,1047992,break,,null,,,,,,,,,,,,,,,,,,
2732.7999999970198,,realistic_rating,1050726,Fairhaven,,53,Fairhaven,Fictional,5,,,,,,,,,,,,,,,
null,,confidence_buffer,1050830,confidence_buffer,,null,,,,,,,,,,,,,,,,,,
1774.7000000029802,,pt2_unique_rating,1052606,Fairhaven,,50,,,2,,,,,,,,,,,,,,,
null,,confidence_buffer,1052711,confidence_buffer,,null,,,,,,,,,,,,,,,,,,
5553.0999999940395,,pt2_memorable_rating,1058265,Fairhaven,,51,,,3,,,,,,,,,,,,,,,
null,,confidence_buffer,1058367,confidence_buffer,,null,,,,,,,,,,,,,,,,,,
2624.5999999940395,,recognition_phase,1060993,Fairhaven,,49,,,,,,old,0,0.9428571428571428,,,,,,,,,,
null,,confidence_buffer,1061094,confidence_buffer,,null,,,,,,,,,,,,,,,,,,
null,,thebreak,1061598,break,,null,,,,,,,,,,,,,,,,,,
1569.5,,realistic_rating,1063169,Boulder,,53,Boulder,US,5,,,,,,,,,,,,,,,
null,,confidence_buffer,1063271,confidence_buffer,,null,,,,,,,,,,,,,,,,,,
7713.5,,pt2_unique_rating,1070986,Boulder,,50,,,2,,,,,,,,,,,,,,,
null,,confidence_buffer,1071089,confidence_buffer,,null,,,,,,,,,,,,,,,,,,
2184.3999999910593,,pt2_memorable_rating,1073274,Boulder,,52,,,4,,,,,,,,,,,,,,,
null,,confidence_buffer,1073376,confidence_buffer,,null,,,,,,,,,,,,,,,,,,
2712.300000011921,,recognition_phase,1076089,Boulder,,52,,,,,,new,1,0.9444444444444444,,,,,,,,,,
null,,confidence_buffer,1076191,confidence_buffer,,null,,,,,,,,,,,,,,,,,,
null,,thebreak,1076697,break,,null,,,,,,,,,,,,,,,,,,
3119.5999999940395,,realistic_rating,1079817,Alliance,,52,Alliance,US,4,,,,,,,,,,,,,,,
null,,confidence_buffer,1079919,confidence_buffer,,null,,,,,,,,,,,,,,,,,,
2744.5999999940395,,pt2_unique_rating,1082665,Alliance,,51,,,3,,,,,,,,,,,,,,,
null,,confidence_buffer,1082769,confidence_buffer,,null,,,,,,,,,,,,,,,,,,
2256.0999999940395,,pt2_memorable_rating,1085026,Alliance,,52,,,4,,,,,,,,,,,,,,,
null,,confidence_buffer,1085130,confidence_buffer,,null,,,,,,,,,,,,,,,,,,
1821.4000000059605,,recognition_phase,1086953,Alliance,,49,,,,,,old,1,0.9459459459459459,,,,,,,,,,
null,,confidence_buffer,1087058,confidence_buffer,,null,,,,,,,,,,,,,,,,,,
null,,thebreak,1087563,break,,null,,,,,,,,,,,,,,,,,,
4993.4000000059605,,realistic_rating,1092557,Delaro Park,,52,Delaro Park,Fictional,4,,,,,,,,,,,,,,,
null,,confidence_buffer,1092659,confidence_buffer,,null,,,,,,,,,,,,,,,,,,
1872.3999999910593,,pt2_unique_rating,1094533,Delaro Park,,51,,,3,,,,,,,,,,,,,,,
null,,confidence_buffer,1094635,confidence_buffer,,null,,,,,,,,,,,,,,,,,,
2753.6000000089407,,pt2_memorable_rating,1097390,Delaro Park,,51,,,3,,,,,,,,,,,,,,,
null,,confidence_buffer,1097495,confidence_buffer,,null,,,,,,,,,,,,,,,,,,
3521.9000000059605,,recognition_phase,1101018,Delaro Park,,50,,,,,,old,1,0.9473684210526315,,,,,,,,,,
null,,confidence_buffer,1101123,confidence_buffer,,null,,,,,,,,,,,,,,,,,,
null,,thebreak,1101628,break,,null,,,,,,,,,,,,,,,,,,
2516.1000000089407,,realistic_rating,1104146,Newport,,53,Newport,US,5,,,,,,,,,,,,,,,
null,,confidence_buffer,1104248,confidence_buffer,,null,,,,,,,,,,,,,,,,,,
2057,,pt2_unique_rating,1106306,Newport,,52,,,4,,,,,,,,,,,,,,,
null,,confidence_buffer,1106411,confidence_buffer,,null,,,,,,,,,,,,,,,,,,
1734.1000000089407,,pt2_memorable_rating,1108146,Newport,,52,,,4,,,,,,,,,,,,,,,
null,,confidence_buffer,1108251,confidence_buffer,,null,,,,,,,,,,,,,,,,,,
11449.79999999702,,recognition_phase,1119702,Newport,,52,,,,,,new,0,0.9230769230769231,,,,,,,,,,
null,,confidence_buffer,1119803,confidence_buffer,,null,,,,,,,,,,,,,,,,,,
null,,thebreak,1120307,break,,null,,,,,,,,,,,,,,,,,,
3824.7000000029802,,realistic_rating,1124133,Clearbrook,,52,Clearbrook,Fictional,4,,,,,,,,,,,,,,,
null,,confidence_buffer,1124238,confidence_buffer,,null,,,,,,,,,,,,,,,,,,
3967.699999988079,,pt2_unique_rating,1128207,Clearbrook,,50,,,2,,,,,,,,,,,,,,,
null,,confidence_buffer,1128312,confidence_buffer,,null,,,,,,,,,,,,,,,,,,
1550.6000000089407,,pt2_memorable_rating,1129864,Clearbrook,,51,,,3,,,,,,,,,,,,,,,
null,,confidence_buffer,1129967,confidence_buffer,,null,,,,,,,,,,,,,,,,,,
2614.9000000059605,,recognition_phase,1132583,Clearbrook,,52,,,,,,new,1,0.925,,,,,,,,,,
null,,confidence_buffer,1132685,confidence_buffer,,null,,,,,,,,,,,,,,,,,,
null,,thebreak,1133188,break,,null,,,,,,,,,,,,,,,,,,
1833.4000000059605,,realistic_rating,1135023,Shreveport,,53,Shreveport,US,5,,,,,,,,,,,,,,,
null,,confidence_buffer,1135127,confidence_buffer,,null,,,,,,,,,,,,,,,,,,
8773.29999999702,,pt2_unique_rating,1143902,Shreveport,,50,,,2,,,,,,,,,,,,,,,
null,,confidence_buffer,1144005,confidence_buffer,,null,,,,,,,,,,,,,,,,,,
1775.1000000089407,,pt2_memorable_rating,1145782,Shreveport,,52,,,4,,,,,,,,,,,,,,,
null,,confidence_buffer,1145884,confidence_buffer,,null,,,,,,,,,,,,,,,,,,
2319.6000000089407,,probe_rating,1148206,probe_rating,,52,,,,4,1,,,,,,,,,,,,,
null,,confidence_buffer,1148310,confidence_buffer,,null,,,,,,,,,,,,,,,,,,
1349.9000000059605,,recognition_phase,1149662,Shreveport,,49,,,,,,old,1,0.926829268292683,,,,,,,,,,
null,,confidence_buffer,1149763,confidence_buffer,,null,,,,,,,,,,,,,,,,,,
null,,thebreak,1150266,break,,null,,,,,,,,,,,,,,,,,,
3517.2000000029802,,realistic_rating,1153785,Hollendale,,52,Hollendale,Fictional,4,,,,,,,,,,,,,,,
null,,confidence_buffer,1153889,confidence_buffer,,null,,,,,,,,,,,,,,,,,,
1646.7000000029802,,probe_rating,1155537,probe_rating,,49,,,,1,1,,,,,,,,,,,,,
null,,confidence_buffer,1155642,confidence_buffer,,null,,,,,,,,,,,,,,,,,,
7430,,pt2_unique_rating,1163073,Hollendale,,50,,,2,,,,,,,,,,,,,,,
null,,confidence_buffer,1163175,confidence_buffer,,null,,,,,,,,,,,,,,,,,,
4480.70000000298,,pt2_memorable_rating,1167658,Hollendale,,52,,,4,,,,,,,,,,,,,,,
null,,confidence_buffer,1167759,confidence_buffer,,null,,,,,,,,,,,,,,,,,,
4428.20000000298,,recognition_phase,1172189,Hollendale,,52,,,,,,new,1,0.9285714285714286,,,,,,,,,,
null,,confidence_buffer,1172291,confidence_buffer,,null,,,,,,,,,,,,,,,,,,
null,,thebreak,1172795,break,,null,,,,,,,,,,,,,,,,,,
13483.59999999404,,realistic_rating,1186280,Berkeley Springs,,53,Berkeley Springs,US,5,,,,,,,,,,,,,,,
null,,confidence_buffer,1186382,confidence_buffer,,null,,,,,,,,,,,,,,,,,,
6536.699999988079,,pt2_unique_rating,1192919,Berkeley Springs,,51,,,3,,,,,,,,,,,,,,,
null,,confidence_buffer,1193022,confidence_buffer,,null,,,,,,,,,,,,,,,,,,
2295.5999999940395,,pt2_memorable_rating,1195319,Berkeley Springs,,52,,,4,,,,,,,,,,,,,,,
null,,confidence_buffer,1195422,confidence_buffer,,null,,,,,,,,,,,,,,,,,,
2080,,probe_rating,1197504,probe_rating,,50,,,,2,1,,,,,,,,,,,,,
null,,confidence_buffer,1197606,confidence_buffer,,null,,,,,,,,,,,,,,,,,,
1896.0999999940395,,recognition_phase,1199503,Berkeley Springs,,49,,,,,,old,1,0.9302325581395349,,,,,,,,,,
null,,confidence_buffer,1199607,confidence_buffer,,null,,,,,,,,,,,,,,,,,,
null,,thebreak,1200112,break,,null,,,,,,,,,,,,,,,,,,
2142.1000000089407,,realistic_rating,1202255,Abilene,,53,Abilene,US,5,,,,,,,,,,,,,,,
null,,confidence_buffer,1202359,confidence_buffer,,null,,,,,,,,,,,,,,,,,,
3118.7999999970198,,pt2_unique_rating,1205479,Abilene,,51,,,3,,,,,,,,,,,,,,,
null,,confidence_buffer,1205581,confidence_buffer,,null,,,,,,,,,,,,,,,,,,
1664.7999999970198,,pt2_memorable_rating,1207247,Abilene,,52,,,4,,,,,,,,,,,,,,,
null,,confidence_buffer,1207352,confidence_buffer,,null,,,,,,,,,,,,,,,,,,
1486.2000000029802,,probe_rating,1208839,probe_rating,,51,,,,3,1,,,,,,,,,,,,,
null,,confidence_buffer,1208942,confidence_buffer,,null,,,,,,,,,,,,,,,,,,
1552,,recognition_phase,1210495,Abilene,,49,,,,,,old,1,0.9318181818181818,,,,,,,,,,
null,,confidence_buffer,1210597,confidence_buffer,,null,,,,,,,,,,,,,,,,,,
null,,thebreak,1211101,break,,null,,,,,,,,,,,,,,,,,,
3439.2000000029802,,realistic_rating,1214542,Millstone,,53,Millstone,Fictional,5,,,,,,,,,,,,,,,
null,,confidence_buffer,1214644,confidence_buffer,,null,,,,,,,,,,,,,,,,,,
3376.9000000059605,,pt2_unique_rating,1218022,Millstone,,50,,,2,,,,,,,,,,,,,,,
null,,confidence_buffer,1218125,confidence_buffer,,null,,,,,,,,,,,,,,,,,,
1808.4000000059605,,pt2_memorable_rating,1219935,Millstone,,51,,,3,,,,,,,,,,,,,,,
null,,confidence_buffer,1220037,confidence_buffer,,null,,,,,,,,,,,,,,,,,,
1687.9000000059605,,recognition_phase,1221726,Millstone,,49,,,,,,old,1,0.9333333333333333,,,,,,,,,,
null,,confidence_buffer,1221828,confidence_buffer,,null,,,,,,,,,,,,,,,,,,
null,,thebreak,1222329,break,,null,,,,,,,,,,,,,,,,,,
7227.5999999940395,,realistic_rating,1229558,Willowford,,53,Willowford,Fictional,5,,,,,,,,,,,,,,,
null,,confidence_buffer,1229660,confidence_buffer,,null,,,,,,,,,,,,,,,,,,
3993.2999999970198,,pt2_unique_rating,1233655,Willowford,,51,,,3,,,,,,,,,,,,,,,
null,,confidence_buffer,1233756,confidence_buffer,,null,,,,,,,,,,,,,,,,,,
2408.3999999910593,,pt2_memorable_rating,1236166,Willowford,,51,,,3,,,,,,,,,,,,,,,
null,,confidence_buffer,1236267,confidence_buffer,,null,,,,,,,,,,,,,,,,,,
1488.7999999970198,,probe_rating,1237758,probe_rating,,49,,,,1,1,,,,,,,,,,,,,
null,,confidence_buffer,1237861,confidence_buffer,,null,,,,,,,,,,,,,,,,,,
2087.3999999910593,,recognition_phase,1239950,Willowford,,50,,,,,,old,1,0.9347826086956522,,,,,,,,,,
null,,confidence_buffer,1240052,confidence_buffer,,null,,,,,,,,,,,,,,,,,,
null,,thebreak,1240554,break,,null,,,,,,,,,,,,,,,,,,
3921.5999999940395,,realistic_rating,1244477,Redgrove,,52,Redgrove,Fictional,4,,,,,,,,,,,,,,,
null,,confidence_buffer,1244579,confidence_buffer,,null,,,,,,,,,,,,,,,,,,
1952.300000011921,,pt2_unique_rating,1246533,Redgrove,,50,,,2,,,,,,,,,,,,,,,
null,,confidence_buffer,1246636,confidence_buffer,,null,,,,,,,,,,,,,,,,,,
1919.0999999940395,,pt2_memorable_rating,1248557,Redgrove,,51,,,3,,,,,,,,,,,,,,,
null,,confidence_buffer,1248658,confidence_buffer,,null,,,,,,,,,,,,,,,,,,
1409,,recognition_phase,1250069,Redgrove,,49,,,,,,old,1,0.9361702127659575,,,,,,,,,,
null,,confidence_buffer,1250173,confidence_buffer,,null,,,,,,,,,,,,,,,,,,
null,,thebreak,1250678,break,,null,,,,,,,,,,,,,,,,,,
2564.800000011921,,realistic_rating,1253245,Healdsburg,,52,Healdsburg,US,4,,,,,,,,,,,,,,,
null,,confidence_buffer,1253348,confidence_buffer,,null,,,,,,,,,,,,,,,,,,
2119.800000011921,,pt2_unique_rating,1255469,Healdsburg,,51,,,3,,,,,,,,,,,,,,,
null,,confidence_buffer,1255572,confidence_buffer,,null,,,,,,,,,,,,,,,,,,
4965.5,,pt2_memorable_rating,1260538,Healdsburg,,52,,,4,,,,,,,,,,,,,,,
null,,confidence_buffer,1260640,confidence_buffer,,null,,,,,,,,,,,,,,,,,,
1385.3999999910593,,recognition_phase,1262027,Healdsburg,,49,,,,,,old,1,0.9375,,,,,,,,,,
null,,confidence_buffer,1262130,confidence_buffer,,null,,,,,,,,,,,,,,,,,,
null,,thebreak,1262636,break,,null,,,,,,,,,,,,,,,,,,
1780.9000000059605,,realistic_rating,1264419,Livingston,,53,Livingston,US,5,,,,,,,,,,,,,,,
null,,confidence_buffer,1264522,confidence_buffer,,null,,,,,,,,,,,,,,,,,,
1895.9000000059605,,pt2_unique_rating,1266419,Livingston,,51,,,3,,,,,,,,,,,,,,,
null,,confidence_buffer,1266521,confidence_buffer,,null,,,,,,,,,,,,,,,,,,
1760.0999999940395,,pt2_memorable_rating,1268283,Livingston,,51,,,3,,,,,,,,,,,,,,,
null,,confidence_buffer,1268388,confidence_buffer,,null,,,,,,,,,,,,,,,,,,
1613.6000000089407,,recognition_phase,1270003,Livingston,,49,,,,,,old,1,0.9387755102040817,,,,,,,,,,
null,,confidence_buffer,1270104,confidence_buffer,,null,,,,,,,,,,,,,,,,,,
null,,thebreak,1270606,break,,null,,,,,,,,,,,,,,,,,,
2403.2000000029802,,realistic_rating,1273010,Racine,,53,Racine,US,5,,,,,,,,,,,,,,,
null,,confidence_buffer,1273112,confidence_buffer,,null,,,,,,,,,,,,,,,,,,
4434.20000000298,,pt2_unique_rating,1277547,Racine,,51,,,3,,,,,,,,,,,,,,,
null,,confidence_buffer,1277649,confidence_buffer,,null,,,,,,,,,,,,,,,,,,
1711.7999999970198,,pt2_memorable_rating,1279362,Racine,,51,,,3,,,,,,,,,,,,,,,
null,,confidence_buffer,1279464,confidence_buffer,,null,,,,,,,,,,,,,,,,,,
1304.7000000029802,,recognition_phase,1280770,Racine,,49,,,,,,old,1,0.94,,,,,,,,,,
null,,confidence_buffer,1280873,confidence_buffer,,null,,,,,,,,,,,,,,,,,,
null,,thebreak,1281379,break,,null,,,,,,,,,,,,,,,,,,
4516.0999999940395,,realistic_rating,1285897,Driftwood Bay,,53,Driftwood Bay,Fictional,5,,,,,,,,,,,,,,,
null,,confidence_buffer,1285998,confidence_buffer,,null,,,,,,,,,,,,,,,,,,
2425.7000000029802,,pt2_unique_rating,1288425,Driftwood Bay,,52,,,4,,,,,,,,,,,,,,,
null,,confidence_buffer,1288527,confidence_buffer,,null,,,,,,,,,,,,,,,,,,
1712,,pt2_memorable_rating,1290241,Driftwood Bay,,52,,,4,,,,,,,,,,,,,,,
null,,confidence_buffer,1290342,confidence_buffer,,null,,,,,,,,,,,,,,,,,,
4233,,recognition_phase,1294576,Driftwood Bay,,52,,,,,,new,1,0.9411764705882353,,,,,,,,,,
null,,confidence_buffer,1294678,confidence_buffer,,null,,,,,,,,,,,,,,,,,,
null,,thebreak,1295184,break,,null,,,,,,,,,,,,,,,,,,
1975.2999999970198,,realistic_rating,1297161,Bar Harbor,,53,Bar Harbor,US,5,,,,,,,,,,,,,,,
null,,confidence_buffer,1297262,confidence_buffer,,null,,,,,,,,,,,,,,,,,,
5372.79999999702,,pt2_unique_rating,1302636,Bar Harbor,,50,,,2,,,,,,,,,,,,,,,
null,,confidence_buffer,1302739,confidence_buffer,,null,,,,,,,,,,,,,,,,,,
1807,,pt2_memorable_rating,1304548,Bar Harbor,,51,,,3,,,,,,,,,,,,,,,
null,,confidence_buffer,1304649,confidence_buffer,,null,,,,,,,,,,,,,,,,,,
3464.8999999910593,,recognition_phase,1308116,Bar Harbor,,52,,,,,,new,1,0.9423076923076923,,,,,,,,,,
null,,confidence_buffer,1308221,confidence_buffer,,null,,,,,,,,,,,,,,,,,,
null,,thebreak,1308726,break,,null,,,,,,,,,,,,,,,,,,
8006.699999988079,,realistic_rating,1316734,Cedarwyn,,51,Cedarwyn,Fictional,3,,,,,,,,,,,,,,,
null,,confidence_buffer,1316836,confidence_buffer,,null,,,,,,,,,,,,,,,,,,
5145.9000000059605,,pt2_unique_rating,1321983,Cedarwyn,,49,,,1,,,,,,,,,,,,,,,
null,,confidence_buffer,1322088,confidence_buffer,,null,,,,,,,,,,,,,,,,,,
1989.8999999910593,,pt2_memorable_rating,1324080,Cedarwyn,,51,,,3,,,,,,,,,,,,,,,
null,,confidence_buffer,1324181,confidence_buffer,,null,,,,,,,,,,,,,,,,,,
4769.70000000298,,recognition_phase,1328952,Cedarwyn,,50,,,,,,old,0,0.9245283018867925,,,,,,,,,,
null,,confidence_buffer,1329055,confidence_buffer,,null,,,,,,,,,,,,,,,,,,
null,,thebreak,1329560,break,,null,,,,,,,,,,,,,,,,,,
5198.79999999702,,realistic_rating,1334759,Highvale,,52,Highvale,Fictional,4,,,,,,,,,,,,,,,
null,,confidence_buffer,1334862,confidence_buffer,,null,,,,,,,,,,,,,,,,,,
3816.2000000029802,,pt2_unique_rating,1338679,Highvale,,51,,,3,,,,,,,,,,,,,,,
null,,confidence_buffer,1338781,confidence_buffer,,null,,,,,,,,,,,,,,,,,,
1634,,pt2_memorable_rating,1340416,Highvale,,51,,,3,,,,,,,,,,,,,,,
null,,confidence_buffer,1340519,confidence_buffer,,null,,,,,,,,,,,,,,,,,,
4246.9000000059605,,recognition_phase,1344767,Highvale,,50,,,,,,old,1,0.9259259259259259,,,,,,,,,,
null,,confidence_buffer,1344872,confidence_buffer,,null,,,,,,,,,,,,,,,,,,
null,,thebreak,1345377,break,,null,,,,,,,,,,,,,,,,,,
6301.4000000059605,,realistic_rating,1351680,Tamarisk Hills,,52,Tamarisk Hills,Fictional,4,,,,,,,,,,,,,,,
null,,confidence_buffer,1351782,confidence_buffer,,null,,,,,,,,,,,,,,,,,,
1552.6000000089407,,pt2_unique_rating,1353336,Tamarisk Hills,,50,,,2,,,,,,,,,,,,,,,
null,,confidence_buffer,1353440,confidence_buffer,,null,,,,,,,,,,,,,,,,,,
2149.800000011921,,probe_rating,1355592,probe_rating,,52,,,,4,1,,,,,,,,,,,,,
null,,confidence_buffer,1355694,confidence_buffer,,null,,,,,,,,,,,,,,,,,,
2368.3999999910593,,pt2_memorable_rating,1358064,Tamarisk Hills,,52,,,4,,,,,,,,,,,,,,,
null,,confidence_buffer,1358166,confidence_buffer,,null,,,,,,,,,,,,,,,,,,
1663.5999999940395,,recognition_phase,1359831,Tamarisk Hills,,49,,,,,,old,1,0.9272727272727272,,,,,,,,,,
null,,confidence_buffer,1359933,confidence_buffer,,null,,,,,,,,,,,,,,,,,,
null,,thebreak,1360436,break,,null,,,,,,,,,,,,,,,,,,
2339.2999999970198,,realistic_rating,1362776,Silverpine,,53,Silverpine,Fictional,5,,,,,,,,,,,,,,,
null,,confidence_buffer,1362879,confidence_buffer,,null,,,,,,,,,,,,,,,,,,
2359,,pt2_unique_rating,1365239,Silverpine,,50,,,2,,,,,,,,,,,,,,,
null,,confidence_buffer,1365341,confidence_buffer,,null,,,,,,,,,,,,,,,,,,
1545.1000000089407,,pt2_memorable_rating,1366888,Silverpine,,51,,,3,,,,,,,,,,,,,,,
null,,confidence_buffer,1366989,confidence_buffer,,null,,,,,,,,,,,,,,,,,,
1648.6000000089407,,recognition_phase,1368639,Silverpine,,49,,,,,,old,1,0.9285714285714286,,,,,,,,,,
null,,confidence_buffer,1368741,confidence_buffer,,null,,,,,,,,,,,,,,,,,,
null,,thebreak,1369247,break,,null,,,,,,,,,,,,,,,,,,
2852.8999999910593,,realistic_rating,1372101,Huntsville,,53,Huntsville,US,5,,,,,,,,,,,,,,,
null,,confidence_buffer,1372202,confidence_buffer,,null,,,,,,,,,,,,,,,,,,
3633.7000000029802,,pt2_unique_rating,1375837,Huntsville,,50,,,2,,,,,,,,,,,,,,,
null,,confidence_buffer,1375940,confidence_buffer,,null,,,,,,,,,,,,,,,,,,
4679.4000000059605,,pt2_memorable_rating,1380621,Huntsville,,52,,,4,,,,,,,,,,,,,,,
null,,confidence_buffer,1380723,confidence_buffer,,null,,,,,,,,,,,,,,,,,,
6351.5,,recognition_phase,1387076,Huntsville,,52,,,,,,new,1,0.9298245614035088,,,,,,,,,,
null,,confidence_buffer,1387179,confidence_buffer,,null,,,,,,,,,,,,,,,,,,
null,,thebreak,1387683,break,,null,,,,,,,,,,,,,,,,,,
2279.199999988079,,realistic_rating,1389963,Cornwall,,53,Cornwall,US,5,,,,,,,,,,,,,,,
null,,confidence_buffer,1390065,confidence_buffer,,null,,,,,,,,,,,,,,,,,,
5699.300000011921,,pt2_unique_rating,1395765,Cornwall,,50,,,2,,,,,,,,,,,,,,,
null,,confidence_buffer,1395870,confidence_buffer,,null,,,,,,,,,,,,,,,,,,
1950.2999999970198,,pt2_memorable_rating,1397822,Cornwall,,51,,,3,,,,,,,,,,,,,,,
null,,confidence_buffer,1397923,confidence_buffer,,null,,,,,,,,,,,,,,,,,,
1584.2999999970198,,recognition_phase,1399509,Cornwall,,49,,,,,,old,1,0.9310344827586207,,,,,,,,,,
null,,confidence_buffer,1399612,confidence_buffer,,null,,,,,,,,,,,,,,,,,,
null,,thebreak,1400118,break,,null,,,,,,,,,,,,,,,,,,
2014,,realistic_rating,1402133,West Palm Beach,,53,West Palm Beach,US,5,,,,,,,,,,,,,,,
null,,confidence_buffer,1402235,confidence_buffer,,null,,,,,,,,,,,,,,,,,,
4775.5,,pt2_unique_rating,1407012,West Palm Beach,,51,,,3,,,,,,,,,,,,,,,
null,,confidence_buffer,1407114,confidence_buffer,,null,,,,,,,,,,,,,,,,,,
3217.2000000029802,,pt2_memorable_rating,1410332,West Palm Beach,,52,,,4,,,,,,,,,,,,,,,
null,,confidence_buffer,1410435,confidence_buffer,,null,,,,,,,,,,,,,,,,,,
5962.20000000298,,recognition_phase,1416399,West Palm Beach,,50,,,,,,old,1,0.9322033898305084,,,,,,,,,,
null,,confidence_buffer,1416504,confidence_buffer,,null,,,,,,,,,,,,,,,,,,
null,,thebreak,1417009,break,,null,,,,,,,,,,,,,,,,,,
1893.5,,realistic_rating,1418904,Park City,,53,Park City,US,5,,,,,,,,,,,,,,,
null,,confidence_buffer,1419006,confidence_buffer,,null,,,,,,,,,,,,,,,,,,
5162.79999999702,,pt2_unique_rating,1424170,Park City,,49,,,1,,,,,,,,,,,,,,,
null,,confidence_buffer,1424273,confidence_buffer,,null,,,,,,,,,,,,,,,,,,
1543.6000000089407,,pt2_memorable_rating,1425818,Park City,,51,,,3,,,,,,,,,,,,,,,
null,,confidence_buffer,1425919,confidence_buffer,,null,,,,,,,,,,,,,,,,,,
1568.9000000059605,,probe_rating,1427490,probe_rating,,53,,,,5,1,,,,,,,,,,,,,
null,,confidence_buffer,1427592,confidence_buffer,,null,,,,,,,,,,,,,,,,,,
4448.5,,recognition_phase,1432042,Park City,,50,,,,,,old,1,0.9333333333333333,,,,,,,,,,
null,,confidence_buffer,1432144,confidence_buffer,,null,,,,,,,,,,,,,,,,,,
null,,thebreak,1432648,break,,null,,,,,,,,,,,,,,,,,,
,,survey,1765541,survey-questions,,,,,,,,,,,none,high,Nothing else.,I just weighed whether or not I was familiar with the city names.,I judged whether I'd heard or seen the name before.,Some of the town names were the same as towns I've been to.,There were quite a few I'd never heard of, but they may have seemed as though they could be typical of many states.,I found most of the names I wasn't familiar with to be realistic and could probably be found on a map of the USA.,No similar study has been seen by me.,It was interesting, and as I said, I've been to some towns with the same names as some of these examples.
