rt,responses,trial_type,time_elapsed,stimulus,button_pressed,key_press,name_trial,city_type,rating,probe,probe_accuracy,response,correct,accuracy,problems,smooth,distraction,strategies,familiar,memorable,unique,realistic,similar,comments
8576.300000000017,{worker_id:6151e479b4ee16668948c7f2},id_enter,8577,,,,,,,,,,,,,,,,,,,,,
32341.70000000001,,fullscreen,40921,fullscreen,0,,,,,,,,,,,,,,,,,,,
21017.29999999999,,intro_0,61942,instruct,,32,,,,,,,,,,,,,,,,,,
19442.900000000023,,intro_1,81387,instruct,,32,,,,,,,,,,,,,,,,,,
9365.100000000035,,intro_2,90753,instruct,,32,,,,,,,,,,,,,,,,,,
null,,instruct_dir_4,92256,instruct,,null,,,,,,,,,,,,,,,,,,
null,,thebreak,92759,break,,null,,,,,,,,,,,,,,,,,,
9353,,familiar_rating,102113,Westridge,,49,Westridge,Fictional,1,,,,,,,,,,,,,,,
null,,confidence_buffer,102217,confidence_buffer,,null,,,,,,,,,,,,,,,,,,
6461.900000000023,,unique_rating,108681,Westridge,,49,,,1,,,,,,,,,,,,,,,
null,,confidence_buffer,108785,confidence_buffer,,null,,,,,,,,,,,,,,,,,,
7511.100000000035,,memorable_rating,116298,Westridge,,52,,,4,,,,,,,,,,,,,,,
null,,confidence_buffer,116400,confidence_buffer,,null,,,,,,,,,,,,,,,,,,
null,,thebreak,116903,break,,null,,,,,,,,,,,,,,,,,,
5655.799999999988,,familiar_rating,122561,Cape May,,50,Cape May,US,2,,,,,,,,,,,,,,,
null,,confidence_buffer,122665,confidence_buffer,,null,,,,,,,,,,,,,,,,,,
4534.599999999977,,probe_rating,127201,probe_rating,,50,,,,2,1,,,,,,,,,,,,,
null,,confidence_buffer,127305,confidence_buffer,,null,,,,,,,,,,,,,,,,,,
3446.5,,unique_rating,130753,Cape May,,51,,,3,,,,,,,,,,,,,,,
null,,confidence_buffer,130855,confidence_buffer,,null,,,,,,,,,,,,,,,,,,
7304.600000000035,,memorable_rating,138161,Cape May,,52,,,4,,,,,,,,,,,,,,,
null,,confidence_buffer,138265,confidence_buffer,,null,,,,,,,,,,,,,,,,,,
null,,thebreak,138767,break,,null,,,,,,,,,,,,,,,,,,
4055.5,,familiar_rating,142824,Bowling Green,,49,Bowling Green,US,1,,,,,,,,,,,,,,,
null,,confidence_buffer,142928,confidence_buffer,,null,,,,,,,,,,,,,,,,,,
6783.599999999977,,unique_rating,149714,Bowling Green,,50,,,2,,,,,,,,,,,,,,,
null,,confidence_buffer,149816,confidence_buffer,,null,,,,,,,,,,,,,,,,,,
3286.4000000000233,,memorable_rating,153105,Bowling Green,,49,,,1,,,,,,,,,,,,,,,
null,,confidence_buffer,153208,confidence_buffer,,null,,,,,,,,,,,,,,,,,,
null,,thebreak,153711,break,,null,,,,,,,,,,,,,,,,,,
3528.2000000000116,,familiar_rating,157241,Oakridge,,51,Oakridge,Fictional,3,,,,,,,,,,,,,,,
null,,confidence_buffer,157345,confidence_buffer,,null,,,,,,,,,,,,,,,,,,
4511,,unique_rating,161857,Oakridge,,49,,,1,,,,,,,,,,,,,,,
null,,confidence_buffer,161961,confidence_buffer,,null,,,,,,,,,,,,,,,,,,
3878.2999999999884,,memorable_rating,165841,Oakridge,,53,,,5,,,,,,,,,,,,,,,
null,,confidence_buffer,165943,confidence_buffer,,null,,,,,,,,,,,,,,,,,,
null,,thebreak,166446,break,,null,,,,,,,,,,,,,,,,,,
3240.7999999999884,,familiar_rating,169689,Leesburg,,49,Leesburg,US,1,,,,,,,,,,,,,,,
null,,confidence_buffer,169792,confidence_buffer,,null,,,,,,,,,,,,,,,,,,
5031.400000000023,,unique_rating,174825,Leesburg,,52,,,4,,,,,,,,,,,,,,,
null,,confidence_buffer,174928,confidence_buffer,,null,,,,,,,,,,,,,,,,,,
5887.399999999965,,memorable_rating,180817,Leesburg,,49,,,1,,,,,,,,,,,,,,,
null,,confidence_buffer,180921,confidence_buffer,,null,,,,,,,,,,,,,,,,,,
null,,thebreak,181423,break,,null,,,,,,,,,,,,,,,,,,
3824.2999999999884,,familiar_rating,185250,Sunmere,,49,Sunmere,Fictional,1,,,,,,,,,,,,,,,
null,,confidence_buffer,185352,confidence_buffer,,null,,,,,,,,,,,,,,,,,,
3927.5,,unique_rating,189281,Sunmere,,51,,,3,,,,,,,,,,,,,,,
null,,confidence_buffer,189383,confidence_buffer,,null,,,,,,,,,,,,,,,,,,
3959.9000000000233,,memorable_rating,193345,Sunmere,,50,,,2,,,,,,,,,,,,,,,
null,,confidence_buffer,193447,confidence_buffer,,null,,,,,,,,,,,,,,,,,,
null,,thebreak,193949,break,,null,,,,,,,,,,,,,,,,,,
3538.5,,familiar_rating,197489,Park City,,51,Park City,US,3,,,,,,,,,,,,,,,
null,,confidence_buffer,197593,confidence_buffer,,null,,,,,,,,,,,,,,,,,,
3133.2000000000116,,unique_rating,200728,Park City,,49,,,1,,,,,,,,,,,,,,,
null,,confidence_buffer,200831,confidence_buffer,,null,,,,,,,,,,,,,,,,,,
2655.4000000000233,,memorable_rating,203488,Park City,,53,,,5,,,,,,,,,,,,,,,
null,,confidence_buffer,203591,confidence_buffer,,null,,,,,,,,,,,,,,,,,,
null,,thebreak,204094,break,,null,,,,,,,,,,,,,,,,,,
5553.599999999977,,familiar_rating,209649,Solara Glen,,49,Solara Glen,Fictional,1,,,,,,,,,,,,,,,
null,,confidence_buffer,209752,confidence_buffer,,null,,,,,,,,,,,,,,,,,,
2358.399999999965,,unique_rating,212112,Solara Glen,,50,,,2,,,,,,,,,,,,,,,
null,,confidence_buffer,212216,confidence_buffer,,null,,,,,,,,,,,,,,,,,,
2455,,memorable_rating,214673,Solara Glen,,51,,,3,,,,,,,,,,,,,,,
null,,confidence_buffer,214775,confidence_buffer,,null,,,,,,,,,,,,,,,,,,
null,,thebreak,215278,break,,null,,,,,,,,,,,,,,,,,,
4961.299999999988,,familiar_rating,220241,Pine Hollow,,50,Pine Hollow,Fictional,2,,,,,,,,,,,,,,,
null,,confidence_buffer,220345,confidence_buffer,,null,,,,,,,,,,,,,,,,,,
2234.7999999999884,,unique_rating,222581,Pine Hollow,,51,,,3,,,,,,,,,,,,,,,
null,,confidence_buffer,222683,confidence_buffer,,null,,,,,,,,,,,,,,,,,,
2316.2000000000116,,memorable_rating,225001,Pine Hollow,,52,,,4,,,,,,,,,,,,,,,
null,,confidence_buffer,225104,confidence_buffer,,null,,,,,,,,,,,,,,,,,,
null,,thebreak,225607,break,,null,,,,,,,,,,,,,,,,,,
4455.900000000023,,familiar_rating,230065,Willowford,,49,Willowford,Fictional,1,,,,,,,,,,,,,,,
null,,confidence_buffer,230167,confidence_buffer,,null,,,,,,,,,,,,,,,,,,
3976.100000000035,,unique_rating,234145,Willowford,,52,,,4,,,,,,,,,,,,,,,
null,,confidence_buffer,234247,confidence_buffer,,null,,,,,,,,,,,,,,,,,,
3287.7999999999884,,memorable_rating,237537,Willowford,,50,,,2,,,,,,,,,,,,,,,
null,,confidence_buffer,237640,confidence_buffer,,null,,,,,,,,,,,,,,,,,,
null,,thebreak,238143,break,,null,,,,,,,,,,,,,,,,,,
4533.599999999977,,familiar_rating,242678,Newport,,52,Newport,US,4,,,,,,,,,,,,,,,
null,,confidence_buffer,242780,confidence_buffer,,null,,,,,,,,,,,,,,,,,,
2979.7000000000116,,unique_rating,245761,Newport,,49,,,1,,,,,,,,,,,,,,,
null,,confidence_buffer,245863,confidence_buffer,,null,,,,,,,,,,,,,,,,,,
3576,,memorable_rating,249441,Newport,,52,,,4,,,,,,,,,,,,,,,
null,,confidence_buffer,249544,confidence_buffer,,null,,,,,,,,,,,,,,,,,,
null,,thebreak,250046,break,,null,,,,,,,,,,,,,,,,,,
8392.5,,familiar_rating,258440,Okoboji,,49,Okoboji,US,1,,,,,,,,,,,,,,,
null,,confidence_buffer,258543,confidence_buffer,,null,,,,,,,,,,,,,,,,,,
3231.7000000000116,,unique_rating,261777,Okoboji,,49,,,1,,,,,,,,,,,,,,,
null,,confidence_buffer,261880,confidence_buffer,,null,,,,,,,,,,,,,,,,,,
5590.799999999988,,memorable_rating,267473,Okoboji,,49,,,1,,,,,,,,,,,,,,,
null,,confidence_buffer,267576,confidence_buffer,,null,,,,,,,,,,,,,,,,,,
null,,thebreak,268079,break,,null,,,,,,,,,,,,,,,,,,
5672.599999999977,,familiar_rating,273753,Highvale,,50,Highvale,Fictional,2,,,,,,,,,,,,,,,
null,,confidence_buffer,273857,confidence_buffer,,null,,,,,,,,,,,,,,,,,,
2750.4000000000233,,unique_rating,276609,Highvale,,52,,,4,,,,,,,,,,,,,,,
null,,confidence_buffer,276711,confidence_buffer,,null,,,,,,,,,,,,,,,,,,
3038.899999999965,,memorable_rating,279752,Highvale,,50,,,2,,,,,,,,,,,,,,,
null,,confidence_buffer,279856,confidence_buffer,,null,,,,,,,,,,,,,,,,,,
null,,thebreak,280359,break,,null,,,,,,,,,,,,,,,,,,
4496.5,,familiar_rating,284857,Cleveland,,53,Cleveland,US,5,,,,,,,,,,,,,,,
null,,confidence_buffer,284961,confidence_buffer,,null,,,,,,,,,,,,,,,,,,
3125.7000000000116,,unique_rating,288088,Cleveland,,49,,,1,,,,,,,,,,,,,,,
null,,confidence_buffer,288191,confidence_buffer,,null,,,,,,,,,,,,,,,,,,
2799.2000000000116,,memorable_rating,290992,Cleveland,,52,,,4,,,,,,,,,,,,,,,
null,,confidence_buffer,291096,confidence_buffer,,null,,,,,,,,,,,,,,,,,,
null,,thebreak,291598,break,,null,,,,,,,,,,,,,,,,,,
2440.7000000000116,,familiar_rating,294041,Redgrove,,52,Redgrove,Fictional,4,,,,,,,,,,,,,,,
null,,confidence_buffer,294145,confidence_buffer,,null,,,,,,,,,,,,,,,,,,
3662.5,,unique_rating,297809,Redgrove,,50,,,2,,,,,,,,,,,,,,,
null,,confidence_buffer,297912,confidence_buffer,,null,,,,,,,,,,,,,,,,,,
2830.100000000035,,memorable_rating,300744,Redgrove,,52,,,4,,,,,,,,,,,,,,,
null,,confidence_buffer,300847,confidence_buffer,,null,,,,,,,,,,,,,,,,,,
3847.5,,probe_rating,304697,probe_rating,,53,,,,5,1,,,,,,,,,,,,,
null,,confidence_buffer,304801,confidence_buffer,,null,,,,,,,,,,,,,,,,,,
null,,thebreak,305303,break,,null,,,,,,,,,,,,,,,,,,
5480,,familiar_rating,310785,Riverlyn,,50,Riverlyn,Fictional,2,,,,,,,,,,,,,,,
null,,confidence_buffer,310888,confidence_buffer,,null,,,,,,,,,,,,,,,,,,
4726.5,,unique_rating,315617,Riverlyn,,52,,,4,,,,,,,,,,,,,,,
null,,confidence_buffer,315721,confidence_buffer,,null,,,,,,,,,,,,,,,,,,
4366.399999999965,,memorable_rating,320089,Riverlyn,,50,,,2,,,,,,,,,,,,,,,
null,,confidence_buffer,320192,confidence_buffer,,null,,,,,,,,,,,,,,,,,,
null,,thebreak,320694,break,,null,,,,,,,,,,,,,,,,,,
3993.0999999999767,,familiar_rating,324689,West Talora,,49,West Talora,Fictional,1,,,,,,,,,,,,,,,
null,,confidence_buffer,324792,confidence_buffer,,null,,,,,,,,,,,,,,,,,,
5751,,unique_rating,330545,West Talora,,51,,,3,,,,,,,,,,,,,,,
null,,confidence_buffer,330648,confidence_buffer,,null,,,,,,,,,,,,,,,,,,
2646.3000000000466,,memorable_rating,333296,West Talora,,50,,,2,,,,,,,,,,,,,,,
null,,confidence_buffer,333399,confidence_buffer,,null,,,,,,,,,,,,,,,,,,
null,,thebreak,333902,break,,null,,,,,,,,,,,,,,,,,,
3584.6999999999534,,familiar_rating,337489,Racine,,49,Racine,US,1,,,,,,,,,,,,,,,
null,,confidence_buffer,337592,confidence_buffer,,null,,,,,,,,,,,,,,,,,,
2711.100000000093,,unique_rating,340305,Racine,,53,,,5,,,,,,,,,,,,,,,
null,,confidence_buffer,340407,confidence_buffer,,null,,,,,,,,,,,,,,,,,,
1911.9000000000233,,memorable_rating,342320,Racine,,49,,,1,,,,,,,,,,,,,,,
null,,confidence_buffer,342424,confidence_buffer,,null,,,,,,,,,,,,,,,,,,
null,,thebreak,342927,break,,null,,,,,,,,,,,,,,,,,,
3104.0999999999767,,familiar_rating,346033,Sitka,,52,Sitka,US,4,,,,,,,,,,,,,,,
null,,confidence_buffer,346136,confidence_buffer,,null,,,,,,,,,,,,,,,,,,
5679.099999999977,,unique_rating,351817,Sitka,,50,,,2,,,,,,,,,,,,,,,
null,,confidence_buffer,351921,confidence_buffer,,null,,,,,,,,,,,,,,,,,,
2478,,memorable_rating,354400,Sitka,,51,,,3,,,,,,,,,,,,,,,
null,,confidence_buffer,354503,confidence_buffer,,null,,,,,,,,,,,,,,,,,,
null,,thebreak,355005,break,,null,,,,,,,,,,,,,,,,,,
4657.199999999953,,familiar_rating,359664,Granton Ridge,,50,Granton Ridge,Fictional,2,,,,,,,,,,,,,,,
null,,confidence_buffer,359768,confidence_buffer,,null,,,,,,,,,,,,,,,,,,
4039.29999999993,,unique_rating,363809,Granton Ridge,,51,,,3,,,,,,,,,,,,,,,
null,,confidence_buffer,363912,confidence_buffer,,null,,,,,,,,,,,,,,,,,,
2462.5,,memorable_rating,366376,Granton Ridge,,50,,,2,,,,,,,,,,,,,,,
null,,confidence_buffer,366479,confidence_buffer,,null,,,,,,,,,,,,,,,,,,
null,,thebreak,366982,break,,null,,,,,,,,,,,,,,,,,,
3328.5,,familiar_rating,370312,Natchez,,49,Natchez,US,1,,,,,,,,,,,,,,,
null,,confidence_buffer,370416,confidence_buffer,,null,,,,,,,,,,,,,,,,,,
5399.20000000007,,unique_rating,375817,Natchez,,52,,,4,,,,,,,,,,,,,,,
null,,confidence_buffer,375920,confidence_buffer,,null,,,,,,,,,,,,,,,,,,
2533.8000000000466,,memorable_rating,378456,Natchez,,49,,,1,,,,,,,,,,,,,,,
null,,confidence_buffer,378559,confidence_buffer,,null,,,,,,,,,,,,,,,,,,
null,,thebreak,379063,break,,null,,,,,,,,,,,,,,,,,,
3664.1999999999534,,familiar_rating,382728,Hilo,,49,Hilo,US,1,,,,,,,,,,,,,,,
null,,confidence_buffer,382832,confidence_buffer,,null,,,,,,,,,,,,,,,,,,
5214.900000000023,,unique_rating,388049,Hilo,,52,,,4,,,,,,,,,,,,,,,
null,,confidence_buffer,388151,confidence_buffer,,null,,,,,,,,,,,,,,,,,,
3686.9000000000233,,memorable_rating,391840,Hilo,,50,,,2,,,,,,,,,,,,,,,
null,,confidence_buffer,391943,confidence_buffer,,null,,,,,,,,,,,,,,,,,,
null,,thebreak,392446,break,,null,,,,,,,,,,,,,,,,,,
3464.8000000000466,,familiar_rating,395913,Brookmere,,50,Brookmere,Fictional,2,,,,,,,,,,,,,,,
null,,confidence_buffer,396015,confidence_buffer,,null,,,,,,,,,,,,,,,,,,
4112.29999999993,,unique_rating,400129,Brookmere,,50,,,2,,,,,,,,,,,,,,,
null,,confidence_buffer,400233,confidence_buffer,,null,,,,,,,,,,,,,,,,,,
1949.8999999999069,,memorable_rating,402185,Brookmere,,50,,,2,,,,,,,,,,,,,,,
null,,confidence_buffer,402288,confidence_buffer,,null,,,,,,,,,,,,,,,,,,
null,,thebreak,402791,break,,null,,,,,,,,,,,,,,,,,,
1960,,familiar_rating,404752,Hot Springs,,53,Hot Springs,US,5,,,,,,,,,,,,,,,
null,,confidence_buffer,404856,confidence_buffer,,null,,,,,,,,,,,,,,,,,,
5207.400000000023,,unique_rating,410065,Hot Springs,,50,,,2,,,,,,,,,,,,,,,
null,,confidence_buffer,410169,confidence_buffer,,null,,,,,,,,,,,,,,,,,,
2766.899999999907,,memorable_rating,412937,Hot Springs,,52,,,4,,,,,,,,,,,,,,,
null,,confidence_buffer,413041,confidence_buffer,,null,,,,,,,,,,,,,,,,,,
null,,thebreak,413544,break,,null,,,,,,,,,,,,,,,,,,
5590.699999999953,,familiar_rating,419137,Summershade,,50,Summershade,Fictional,2,,,,,,,,,,,,,,,
null,,confidence_buffer,419240,confidence_buffer,,null,,,,,,,,,,,,,,,,,,
2286.5,,unique_rating,421528,Summershade,,51,,,3,,,,,,,,,,,,,,,
null,,confidence_buffer,421631,confidence_buffer,,null,,,,,,,,,,,,,,,,,,
2023.7000000000698,,memorable_rating,423657,Summershade,,52,,,4,,,,,,,,,,,,,,,
null,,confidence_buffer,423760,confidence_buffer,,null,,,,,,,,,,,,,,,,,,
null,,thebreak,424263,break,,null,,,,,,,,,,,,,,,,,,
3847.1999999999534,,familiar_rating,428112,Albuquerque,,49,Albuquerque,US,1,,,,,,,,,,,,,,,
null,,confidence_buffer,428216,confidence_buffer,,null,,,,,,,,,,,,,,,,,,
4126.900000000023,,unique_rating,432345,Albuquerque,,53,,,5,,,,,,,,,,,,,,,
null,,confidence_buffer,432448,confidence_buffer,,null,,,,,,,,,,,,,,,,,,
3879.5999999999767,,memorable_rating,436329,Albuquerque,,49,,,1,,,,,,,,,,,,,,,
null,,confidence_buffer,436432,confidence_buffer,,null,,,,,,,,,,,,,,,,,,
null,,thebreak,436935,break,,null,,,,,,,,,,,,,,,,,,
2319.5999999999767,,familiar_rating,439256,Hanover,,53,Hanover,US,5,,,,,,,,,,,,,,,
null,,confidence_buffer,439360,confidence_buffer,,null,,,,,,,,,,,,,,,,,,
4614.300000000047,,unique_rating,443976,Hanover,,50,,,2,,,,,,,,,,,,,,,
null,,confidence_buffer,444080,confidence_buffer,,null,,,,,,,,,,,,,,,,,,
4191.300000000047,,memorable_rating,448273,Hanover,,51,,,3,,,,,,,,,,,,,,,
null,,confidence_buffer,448377,confidence_buffer,,null,,,,,,,,,,,,,,,,,,
null,,thebreak,448880,break,,null,,,,,,,,,,,,,,,,,,
3830.8000000000466,,familiar_rating,452712,Rosehollow,,49,Rosehollow,Fictional,1,,,,,,,,,,,,,,,
null,,confidence_buffer,452816,confidence_buffer,,null,,,,,,,,,,,,,,,,,,
3294.4000000000233,,unique_rating,456112,Rosehollow,,52,,,4,,,,,,,,,,,,,,,
null,,confidence_buffer,456215,confidence_buffer,,null,,,,,,,,,,,,,,,,,,
2823.5,,memorable_rating,459041,Rosehollow,,51,,,3,,,,,,,,,,,,,,,
null,,confidence_buffer,459144,confidence_buffer,,null,,,,,,,,,,,,,,,,,,
null,,thebreak,459647,break,,null,,,,,,,,,,,,,,,,,,
4336.20000000007,,familiar_rating,463985,Custer,,49,Custer,US,1,,,,,,,,,,,,,,,
null,,confidence_buffer,464088,confidence_buffer,,null,,,,,,,,,,,,,,,,,,
2494.29999999993,,unique_rating,466584,Custer,,51,,,3,,,,,,,,,,,,,,,
null,,confidence_buffer,466688,confidence_buffer,,null,,,,,,,,,,,,,,,,,,
4591.29999999993,,probe_rating,471281,probe_rating,,53,,,,5,1,,,,,,,,,,,,,
null,,confidence_buffer,471385,confidence_buffer,,null,,,,,,,,,,,,,,,,,,
5862.100000000093,,memorable_rating,477248,Custer,,50,,,2,,,,,,,,,,,,,,,
null,,confidence_buffer,477352,confidence_buffer,,null,,,,,,,,,,,,,,,,,,
null,,thebreak,477855,break,,null,,,,,,,,,,,,,,,,,,
2599.3000000000466,,familiar_rating,480456,Crestwood,,50,Crestwood,Fictional,2,,,,,,,,,,,,,,,
null,,confidence_buffer,480560,confidence_buffer,,null,,,,,,,,,,,,,,,,,,
2951.600000000093,,unique_rating,483513,Crestwood,,50,,,2,,,,,,,,,,,,,,,
null,,confidence_buffer,483616,confidence_buffer,,null,,,,,,,,,,,,,,,,,,
4110.099999999977,,memorable_rating,487728,Crestwood,,51,,,3,,,,,,,,,,,,,,,
null,,confidence_buffer,487832,confidence_buffer,,null,,,,,,,,,,,,,,,,,,
null,,thebreak,488335,break,,null,,,,,,,,,,,,,,,,,,
7625,,intro_0,495961,instruct,,32,,,,,,,,,,,,,,,,,,
20742.099999999977,,intro_1,516704,instruct,,32,,,,,,,,,,,,,,,,,,
56536.49999999994,,intro_2,573241,instruct,,32,,,,,,,,,,,,,,,,,,
null,,instruct_dir_4,574743,instruct,,null,,,,,,,,,,,,,,,,,,
8823.799999999814,,realistic_rating,583568,Briarfield,,50,Briarfield,Fictional,2,,,,,,,,,,,,,,,
null,,confidence_buffer,583671,confidence_buffer,,null,,,,,,,,,,,,,,,,,,
3039.4000000001397,,pt2_unique_rating,586712,Briarfield,,51,,,3,,,,,,,,,,,,,,,
null,,confidence_buffer,586815,confidence_buffer,,null,,,,,,,,,,,,,,,,,,
4087.4000000001397,,pt2_memorable_rating,590904,Briarfield,,50,,,2,,,,,,,,,,,,,,,
null,,confidence_buffer,591007,confidence_buffer,,null,,,,,,,,,,,,,,,,,,
3288.1999999999534,,recognition_phase,594297,Briarfield,,52,,,,,,new,1,1,,,,,,,,,,
null,,confidence_buffer,594401,confidence_buffer,,null,,,,,,,,,,,,,,,,,,
null,,thebreak,594903,break,,null,,,,,,,,,,,,,,,,,,
6855.300000000047,,realistic_rating,601760,Albuquerque,,50,Albuquerque,US,2,,,,,,,,,,,,,,,
null,,confidence_buffer,601863,confidence_buffer,,null,,,,,,,,,,,,,,,,,,
2896.0999999998603,,pt2_unique_rating,604761,Albuquerque,,52,,,4,,,,,,,,,,,,,,,
null,,confidence_buffer,604864,confidence_buffer,,null,,,,,,,,,,,,,,,,,,
1950.5,,pt2_memorable_rating,606816,Albuquerque,,49,,,1,,,,,,,,,,,,,,,
null,,confidence_buffer,606919,confidence_buffer,,null,,,,,,,,,,,,,,,,,,
2767.3000000000466,,recognition_phase,609688,Albuquerque,,49,,,,,,old,1,1,,,,,,,,,,
null,,confidence_buffer,609792,confidence_buffer,,null,,,,,,,,,,,,,,,,,,
null,,thebreak,610295,break,,null,,,,,,,,,,,,,,,,,,
3359.9000000001397,,realistic_rating,613656,Orr,,49,Orr,US,1,,,,,,,,,,,,,,,
null,,confidence_buffer,613759,confidence_buffer,,null,,,,,,,,,,,,,,,,,,
2199.3000000000466,,probe_rating,615961,probe_rating,,51,,,,3,1,,,,,,,,,,,,,
null,,confidence_buffer,616064,confidence_buffer,,null,,,,,,,,,,,,,,,,,,
3350.5,,pt2_unique_rating,619416,Orr,,53,,,5,,,,,,,,,,,,,,,
null,,confidence_buffer,619519,confidence_buffer,,null,,,,,,,,,,,,,,,,,,
2727.399999999907,,pt2_memorable_rating,622248,Orr,,49,,,1,,,,,,,,,,,,,,,
null,,confidence_buffer,622352,confidence_buffer,,null,,,,,,,,,,,,,,,,,,
2822.399999999907,,recognition_phase,625176,Orr,,52,,,,,,new,1,1,,,,,,,,,,
null,,confidence_buffer,625280,confidence_buffer,,null,,,,,,,,,,,,,,,,,,
null,,thebreak,625783,break,,null,,,,,,,,,,,,,,,,,,
8688,,realistic_rating,634472,Crestwood,,52,Crestwood,Fictional,4,,,,,,,,,,,,,,,
null,,confidence_buffer,634576,confidence_buffer,,null,,,,,,,,,,,,,,,,,,
2878.100000000093,,pt2_unique_rating,637456,Crestwood,,50,,,2,,,,,,,,,,,,,,,
null,,confidence_buffer,637560,confidence_buffer,,null,,,,,,,,,,,,,,,,,,
2390.600000000093,,pt2_memorable_rating,639952,Crestwood,,52,,,4,,,,,,,,,,,,,,,
null,,confidence_buffer,640054,confidence_buffer,,null,,,,,,,,,,,,,,,,,,
3487.8000000000466,,recognition_phase,643544,Crestwood,,50,,,,,,old,1,1,,,,,,,,,,
null,,confidence_buffer,643648,confidence_buffer,,null,,,,,,,,,,,,,,,,,,
null,,thebreak,644151,break,,null,,,,,,,,,,,,,,,,,,
4815.800000000047,,realistic_rating,648969,Pine Hollow,,51,Pine Hollow,Fictional,3,,,,,,,,,,,,,,,
null,,confidence_buffer,649072,confidence_buffer,,null,,,,,,,,,,,,,,,,,,
2197.8000000000466,,pt2_unique_rating,651272,Pine Hollow,,50,,,2,,,,,,,,,,,,,,,
null,,confidence_buffer,651375,confidence_buffer,,null,,,,,,,,,,,,,,,,,,
4887.299999999814,,pt2_memorable_rating,656264,Pine Hollow,,52,,,4,,,,,,,,,,,,,,,
null,,confidence_buffer,656367,confidence_buffer,,null,,,,,,,,,,,,,,,,,,
4015.8000000000466,,recognition_phase,660385,Pine Hollow,,49,,,,,,old,1,1,,,,,,,,,,
null,,confidence_buffer,660488,confidence_buffer,,null,,,,,,,,,,,,,,,,,,
null,,thebreak,660991,break,,null,,,,,,,,,,,,,,,,,,
8022.399999999907,,realistic_rating,669015,Shreveport,,50,Shreveport,US,2,,,,,,,,,,,,,,,
null,,confidence_buffer,669118,confidence_buffer,,null,,,,,,,,,,,,,,,,,,
3424.600000000093,,pt2_unique_rating,672545,Shreveport,,52,,,4,,,,,,,,,,,,,,,
null,,confidence_buffer,672648,confidence_buffer,,null,,,,,,,,,,,,,,,,,,
2206.0999999998603,,probe_rating,674856,probe_rating,,51,,,,3,1,,,,,,,,,,,,,
null,,confidence_buffer,674960,confidence_buffer,,null,,,,,,,,,,,,,,,,,,
3742,,pt2_memorable_rating,678704,Shreveport,,49,,,1,,,,,,,,,,,,,,,
null,,confidence_buffer,678807,confidence_buffer,,null,,,,,,,,,,,,,,,,,,
2486.8000000000466,,recognition_phase,681296,Shreveport,,52,,,,,,new,1,1,,,,,,,,,,
null,,confidence_buffer,681399,confidence_buffer,,null,,,,,,,,,,,,,,,,,,
null,,thebreak,681902,break,,null,,,,,,,,,,,,,,,,,,
6409.199999999953,,realistic_rating,688313,Sitka,,52,Sitka,US,4,,,,,,,,,,,,,,,
null,,confidence_buffer,688416,confidence_buffer,,null,,,,,,,,,,,,,,,,,,
3518.5,,pt2_unique_rating,691936,Sitka,,50,,,2,,,,,,,,,,,,,,,
null,,confidence_buffer,692040,confidence_buffer,,null,,,,,,,,,,,,,,,,,,
2726.8000000000466,,pt2_memorable_rating,694768,Sitka,,52,,,4,,,,,,,,,,,,,,,
null,,confidence_buffer,694871,confidence_buffer,,null,,,,,,,,,,,,,,,,,,
2847,,recognition_phase,697720,Sitka,,49,,,,,,old,1,1,,,,,,,,,,
null,,confidence_buffer,697823,confidence_buffer,,null,,,,,,,,,,,,,,,,,,
null,,thebreak,698326,break,,null,,,,,,,,,,,,,,,,,,
4921,,realistic_rating,703249,East Ladera,,52,East Ladera,Fictional,4,,,,,,,,,,,,,,,
null,,confidence_buffer,703351,confidence_buffer,,null,,,,,,,,,,,,,,,,,,
1879.3000000000466,,pt2_unique_rating,705232,East Ladera,,50,,,2,,,,,,,,,,,,,,,
null,,confidence_buffer,705335,confidence_buffer,,null,,,,,,,,,,,,,,,,,,
4967,,pt2_memorable_rating,710304,East Ladera,,51,,,3,,,,,,,,,,,,,,,
null,,confidence_buffer,710407,confidence_buffer,,null,,,,,,,,,,,,,,,,,,
1935.1000000000931,,recognition_phase,712344,East Ladera,,52,,,,,,new,1,1,,,,,,,,,,
null,,confidence_buffer,712448,confidence_buffer,,null,,,,,,,,,,,,,,,,,,
null,,thebreak,712950,break,,null,,,,,,,,,,,,,,,,,,
4432.600000000093,,realistic_rating,717385,Racine,,51,Racine,US,3,,,,,,,,,,,,,,,
null,,confidence_buffer,717489,confidence_buffer,,null,,,,,,,,,,,,,,,,,,
1741.1999999999534,,pt2_unique_rating,719232,Racine,,52,,,4,,,,,,,,,,,,,,,
null,,confidence_buffer,719335,confidence_buffer,,null,,,,,,,,,,,,,,,,,,
2447.1999999999534,,pt2_memorable_rating,721784,Racine,,50,,,2,,,,,,,,,,,,,,,
null,,confidence_buffer,721888,confidence_buffer,,null,,,,,,,,,,,,,,,,,,
2086.600000000093,,recognition_phase,723976,Racine,,52,,,,,,new,0,0.8888888888888888,,,,,,,,,,
null,,confidence_buffer,724080,confidence_buffer,,null,,,,,,,,,,,,,,,,,,
null,,thebreak,724582,break,,null,,,,,,,,,,,,,,,,,,
7168.800000000047,,realistic_rating,731753,Bar Harbor,,51,Bar Harbor,US,3,,,,,,,,,,,,,,,
null,,confidence_buffer,731857,confidence_buffer,,null,,,,,,,,,,,,,,,,,,
2262,,pt2_unique_rating,734120,Bar Harbor,,52,,,4,,,,,,,,,,,,,,,
null,,confidence_buffer,734223,confidence_buffer,,null,,,,,,,,,,,,,,,,,,
5519.300000000047,,pt2_memorable_rating,739744,Bar Harbor,,52,,,4,,,,,,,,,,,,,,,
null,,confidence_buffer,739847,confidence_buffer,,null,,,,,,,,,,,,,,,,,,
2495.5999999998603,,recognition_phase,742345,Bar Harbor,,52,,,,,,new,1,0.9,,,,,,,,,,
null,,confidence_buffer,742448,confidence_buffer,,null,,,,,,,,,,,,,,,,,,
null,,thebreak,742951,break,,null,,,,,,,,,,,,,,,,,,
3662.9000000001397,,realistic_rating,746616,Cody,,51,Cody,US,3,,,,,,,,,,,,,,,
null,,confidence_buffer,746720,confidence_buffer,,null,,,,,,,,,,,,,,,,,,
2142.6999999999534,,pt2_unique_rating,748864,Cody,,52,,,4,,,,,,,,,,,,,,,
null,,confidence_buffer,748968,confidence_buffer,,null,,,,,,,,,,,,,,,,,,
2022.0999999998603,,pt2_memorable_rating,750992,Cody,,50,,,2,,,,,,,,,,,,,,,
null,,confidence_buffer,751095,confidence_buffer,,null,,,,,,,,,,,,,,,,,,
1823.1999999999534,,recognition_phase,752921,Cody,,52,,,,,,new,1,0.9090909090909091,,,,,,,,,,
null,,confidence_buffer,753023,confidence_buffer,,null,,,,,,,,,,,,,,,,,,
null,,thebreak,753526,break,,null,,,,,,,,,,,,,,,,,,
6073,,realistic_rating,759600,Lake of the Ozarks,,50,Lake of the Ozarks,US,2,,,,,,,,,,,,,,,
null,,confidence_buffer,759704,confidence_buffer,,null,,,,,,,,,,,,,,,,,,
4135.5,,pt2_unique_rating,763841,Lake of the Ozarks,,51,,,3,,,,,,,,,,,,,,,
null,,confidence_buffer,763944,confidence_buffer,,null,,,,,,,,,,,,,,,,,,
3558.399999999907,,pt2_memorable_rating,767505,Lake of the Ozarks,,51,,,3,,,,,,,,,,,,,,,
null,,confidence_buffer,767608,confidence_buffer,,null,,,,,,,,,,,,,,,,,,
1821.3999999999069,,recognition_phase,769432,Lake of the Ozarks,,52,,,,,,new,1,0.9166666666666666,,,,,,,,,,
null,,confidence_buffer,769535,confidence_buffer,,null,,,,,,,,,,,,,,,,,,
null,,thebreak,770037,break,,null,,,,,,,,,,,,,,,,,,
4481,,realistic_rating,774520,Granton Ridge,,51,Granton Ridge,Fictional,3,,,,,,,,,,,,,,,
null,,confidence_buffer,774623,confidence_buffer,,null,,,,,,,,,,,,,,,,,,
2422.899999999907,,pt2_unique_rating,777048,Granton Ridge,,50,,,2,,,,,,,,,,,,,,,
null,,confidence_buffer,777151,confidence_buffer,,null,,,,,,,,,,,,,,,,,,
1575.1000000000931,,pt2_memorable_rating,778728,Granton Ridge,,51,,,3,,,,,,,,,,,,,,,
null,,confidence_buffer,778831,confidence_buffer,,null,,,,,,,,,,,,,,,,,,
2087.6999999999534,,recognition_phase,780920,Granton Ridge,,49,,,,,,old,1,0.9230769230769231,,,,,,,,,,
null,,confidence_buffer,781024,confidence_buffer,,null,,,,,,,,,,,,,,,,,,
null,,thebreak,781527,break,,null,,,,,,,,,,,,,,,,,,
5694.699999999953,,realistic_rating,787224,Oakridge,,53,Oakridge,Fictional,5,,,,,,,,,,,,,,,
null,,confidence_buffer,787327,confidence_buffer,,null,,,,,,,,,,,,,,,,,,
5823.199999999953,,pt2_unique_rating,793152,Oakridge,,49,,,1,,,,,,,,,,,,,,,
null,,confidence_buffer,793256,confidence_buffer,,null,,,,,,,,,,,,,,,,,,
2110.600000000093,,pt2_memorable_rating,795368,Oakridge,,52,,,4,,,,,,,,,,,,,,,
null,,confidence_buffer,795471,confidence_buffer,,null,,,,,,,,,,,,,,,,,,
2199.8000000000466,,recognition_phase,797673,Oakridge,,49,,,,,,old,1,0.9285714285714286,,,,,,,,,,
null,,confidence_buffer,797776,confidence_buffer,,null,,,,,,,,,,,,,,,,,,
null,,thebreak,798278,break,,null,,,,,,,,,,,,,,,,,,
6152,,realistic_rating,804432,Solara Glen,,50,Solara Glen,Fictional,2,,,,,,,,,,,,,,,
null,,confidence_buffer,804535,confidence_buffer,,null,,,,,,,,,,,,,,,,,,
3135.1999999999534,,pt2_unique_rating,807672,Solara Glen,,51,,,3,,,,,,,,,,,,,,,
null,,confidence_buffer,807775,confidence_buffer,,null,,,,,,,,,,,,,,,,,,
2184.399999999907,,pt2_memorable_rating,809961,Solara Glen,,51,,,3,,,,,,,,,,,,,,,
null,,confidence_buffer,810064,confidence_buffer,,null,,,,,,,,,,,,,,,,,,
2174,,recognition_phase,812240,Solara Glen,,49,,,,,,old,1,0.9333333333333333,,,,,,,,,,
null,,confidence_buffer,812343,confidence_buffer,,null,,,,,,,,,,,,,,,,,,
null,,thebreak,812846,break,,null,,,,,,,,,,,,,,,,,,
5599.90000000014,,realistic_rating,818448,Bowling Green,,51,Bowling Green,US,3,,,,,,,,,,,,,,,
null,,confidence_buffer,818551,confidence_buffer,,null,,,,,,,,,,,,,,,,,,
1903.6000000000931,,probe_rating,820456,probe_rating,,49,,,,1,1,,,,,,,,,,,,,
null,,confidence_buffer,820560,confidence_buffer,,null,,,,,,,,,,,,,,,,,,
7238.600000000093,,pt2_unique_rating,827800,Bowling Green,,50,,,2,,,,,,,,,,,,,,,
null,,confidence_buffer,827904,confidence_buffer,,null,,,,,,,,,,,,,,,,,,
2165.100000000093,,pt2_memorable_rating,830070,Bowling Green,,51,,,3,,,,,,,,,,,,,,,
null,,confidence_buffer,830173,confidence_buffer,,null,,,,,,,,,,,,,,,,,,
3682.100000000093,,recognition_phase,833857,Bowling Green,,49,,,,,,old,1,0.9375,,,,,,,,,,
null,,confidence_buffer,833960,confidence_buffer,,null,,,,,,,,,,,,,,,,,,
null,,thebreak,834463,break,,null,,,,,,,,,,,,,,,,,,
4575.199999999953,,realistic_rating,839040,Custer,,50,Custer,US,2,,,,,,,,,,,,,,,
null,,confidence_buffer,839143,confidence_buffer,,null,,,,,,,,,,,,,,,,,,
1542.8000000000466,,pt2_unique_rating,840688,Custer,,51,,,3,,,,,,,,,,,,,,,
null,,confidence_buffer,840792,confidence_buffer,,null,,,,,,,,,,,,,,,,,,
3039.0999999998603,,pt2_memorable_rating,843832,Custer,,50,,,2,,,,,,,,,,,,,,,
null,,confidence_buffer,843936,confidence_buffer,,null,,,,,,,,,,,,,,,,,,
2887,,recognition_phase,846824,Custer,,50,,,,,,old,1,0.9411764705882353,,,,,,,,,,
null,,confidence_buffer,846927,confidence_buffer,,null,,,,,,,,,,,,,,,,,,
null,,thebreak,847430,break,,null,,,,,,,,,,,,,,,,,,
5921,,realistic_rating,853352,Millstone,,53,Millstone,Fictional,5,,,,,,,,,,,,,,,
null,,confidence_buffer,853455,confidence_buffer,,null,,,,,,,,,,,,,,,,,,
2862.899999999907,,pt2_unique_rating,856320,Millstone,,50,,,2,,,,,,,,,,,,,,,
null,,confidence_buffer,856423,confidence_buffer,,null,,,,,,,,,,,,,,,,,,
1919.5999999998603,,pt2_memorable_rating,858345,Millstone,,52,,,4,,,,,,,,,,,,,,,
null,,confidence_buffer,858447,confidence_buffer,,null,,,,,,,,,,,,,,,,,,
5855.5,,recognition_phase,864304,Millstone,,51,,,,,,new,1,0.9444444444444444,,,,,,,,,,
null,,confidence_buffer,864408,confidence_buffer,,null,,,,,,,,,,,,,,,,,,
null,,thebreak,864911,break,,null,,,,,,,,,,,,,,,,,,
4359.699999999953,,realistic_rating,869273,New Verdan,,52,New Verdan,Fictional,4,,,,,,,,,,,,,,,
null,,confidence_buffer,869376,confidence_buffer,,null,,,,,,,,,,,,,,,,,,
2206.5,,pt2_unique_rating,871584,New Verdan,,51,,,3,,,,,,,,,,,,,,,
null,,confidence_buffer,871688,confidence_buffer,,null,,,,,,,,,,,,,,,,,,
4598.899999999907,,pt2_memorable_rating,876288,New Verdan,,52,,,4,,,,,,,,,,,,,,,
null,,confidence_buffer,876392,confidence_buffer,,null,,,,,,,,,,,,,,,,,,
2582.899999999907,,recognition_phase,878976,New Verdan,,52,,,,,,new,1,0.9473684210526315,,,,,,,,,,
null,,confidence_buffer,879080,confidence_buffer,,null,,,,,,,,,,,,,,,,,,
null,,thebreak,879583,break,,null,,,,,,,,,,,,,,,,,,
7074.90000000014,,realistic_rating,886659,Manistee,,50,Manistee,US,2,,,,,,,,,,,,,,,
null,,confidence_buffer,886762,confidence_buffer,,null,,,,,,,,,,,,,,,,,,
2333,,pt2_unique_rating,889096,Manistee,,52,,,4,,,,,,,,,,,,,,,
null,,confidence_buffer,889198,confidence_buffer,,null,,,,,,,,,,,,,,,,,,
1520.1000000000931,,pt2_memorable_rating,890720,Manistee,,49,,,1,,,,,,,,,,,,,,,
null,,confidence_buffer,890824,confidence_buffer,,null,,,,,,,,,,,,,,,,,,
2886.4000000001397,,recognition_phase,893712,Manistee,,52,,,,,,new,1,0.95,,,,,,,,,,
null,,confidence_buffer,893816,confidence_buffer,,null,,,,,,,,,,,,,,,,,,
null,,thebreak,894318,break,,null,,,,,,,,,,,,,,,,,,
6736.199999999953,,realistic_rating,901056,Linden Trace,,51,Linden Trace,Fictional,3,,,,,,,,,,,,,,,
null,,confidence_buffer,901160,confidence_buffer,,null,,,,,,,,,,,,,,,,,,
3366.4000000001397,,pt2_unique_rating,904528,Linden Trace,,51,,,3,,,,,,,,,,,,,,,
null,,confidence_buffer,904632,confidence_buffer,,null,,,,,,,,,,,,,,,,,,
2166.8000000000466,,pt2_memorable_rating,906800,Linden Trace,,50,,,2,,,,,,,,,,,,,,,
null,,confidence_buffer,906903,confidence_buffer,,null,,,,,,,,,,,,,,,,,,
2223.100000000093,,recognition_phase,909128,Linden Trace,,52,,,,,,new,1,0.9523809523809523,,,,,,,,,,
null,,confidence_buffer,909231,confidence_buffer,,null,,,,,,,,,,,,,,,,,,
null,,thebreak,909734,break,,null,,,,,,,,,,,,,,,,,,
5792.199999999953,,realistic_rating,915528,Hollendale,,51,Hollendale,Fictional,3,,,,,,,,,,,,,,,
null,,confidence_buffer,915631,confidence_buffer,,null,,,,,,,,,,,,,,,,,,
2759.100000000093,,pt2_unique_rating,918392,Hollendale,,50,,,2,,,,,,,,,,,,,,,
null,,confidence_buffer,918495,confidence_buffer,,null,,,,,,,,,,,,,,,,,,
4487.100000000093,,pt2_memorable_rating,922984,Hollendale,,51,,,3,,,,,,,,,,,,,,,
null,,confidence_buffer,923088,confidence_buffer,,null,,,,,,,,,,,,,,,,,,
5655.5,,recognition_phase,928745,Hollendale,,51,,,,,,new,1,0.9545454545454546,,,,,,,,,,
null,,confidence_buffer,928848,confidence_buffer,,null,,,,,,,,,,,,,,,,,,
null,,thebreak,929351,break,,null,,,,,,,,,,,,,,,,,,
6183.100000000093,,realistic_rating,935536,Barnard,,52,Barnard,US,4,,,,,,,,,,,,,,,
null,,confidence_buffer,935640,confidence_buffer,,null,,,,,,,,,,,,,,,,,,
1702.0999999998603,,pt2_unique_rating,937343,Barnard,,50,,,2,,,,,,,,,,,,,,,
null,,confidence_buffer,937446,confidence_buffer,,null,,,,,,,,,,,,,,,,,,
3448.100000000093,,pt2_memorable_rating,940896,Barnard,,51,,,3,,,,,,,,,,,,,,,
null,,confidence_buffer,940999,confidence_buffer,,null,,,,,,,,,,,,,,,,,,
4086.399999999907,,recognition_phase,945088,Barnard,,51,,,,,,new,1,0.9565217391304348,,,,,,,,,,
null,,confidence_buffer,945190,confidence_buffer,,null,,,,,,,,,,,,,,,,,,
null,,thebreak,945693,break,,null,,,,,,,,,,,,,,,,,,
6530,,realistic_rating,952225,Juniper Creek,,51,Juniper Creek,Fictional,3,,,,,,,,,,,,,,,
null,,confidence_buffer,952329,confidence_buffer,,null,,,,,,,,,,,,,,,,,,
3109.1999999999534,,pt2_unique_rating,955440,Juniper Creek,,51,,,3,,,,,,,,,,,,,,,
null,,confidence_buffer,955543,confidence_buffer,,null,,,,,,,,,,,,,,,,,,
4710.699999999953,,pt2_memorable_rating,960255,Juniper Creek,,50,,,2,,,,,,,,,,,,,,,
null,,confidence_buffer,960359,confidence_buffer,,null,,,,,,,,,,,,,,,,,,
2231.100000000093,,recognition_phase,962592,Juniper Creek,,52,,,,,,new,1,0.9583333333333334,,,,,,,,,,
null,,confidence_buffer,962695,confidence_buffer,,null,,,,,,,,,,,,,,,,,,
null,,thebreak,963198,break,,null,,,,,,,,,,,,,,,,,,
5640.199999999953,,realistic_rating,968840,Riverlyn,,51,Riverlyn,Fictional,3,,,,,,,,,,,,,,,
null,,confidence_buffer,968943,confidence_buffer,,null,,,,,,,,,,,,,,,,,,
2038.5,,pt2_unique_rating,970984,Riverlyn,,50,,,2,,,,,,,,,,,,,,,
null,,confidence_buffer,971087,confidence_buffer,,null,,,,,,,,,,,,,,,,,,
3367.3000000000466,,pt2_memorable_rating,974457,Riverlyn,,50,,,2,,,,,,,,,,,,,,,
null,,confidence_buffer,974560,confidence_buffer,,null,,,,,,,,,,,,,,,,,,
2982.1999999999534,,recognition_phase,977544,Riverlyn,,50,,,,,,old,1,0.96,,,,,,,,,,
null,,confidence_buffer,977647,confidence_buffer,,null,,,,,,,,,,,,,,,,,,
null,,thebreak,978150,break,,null,,,,,,,,,,,,,,,,,,
6504.399999999907,,realistic_rating,984657,Ironwood Heights,,51,Ironwood Heights,Fictional,3,,,,,,,,,,,,,,,
null,,confidence_buffer,984761,confidence_buffer,,null,,,,,,,,,,,,,,,,,,
1861.3999999999069,,pt2_unique_rating,986624,Ironwood Heights,,50,,,2,,,,,,,,,,,,,,,
null,,confidence_buffer,986728,confidence_buffer,,null,,,,,,,,,,,,,,,,,,
4894.5,,pt2_memorable_rating,991624,Ironwood Heights,,51,,,3,,,,,,,,,,,,,,,
null,,confidence_buffer,991727,confidence_buffer,,null,,,,,,,,,,,,,,,,,,
3192,,recognition_phase,994920,Ironwood Heights,,51,,,,,,new,1,0.9615384615384616,,,,,,,,,,
null,,confidence_buffer,995024,confidence_buffer,,null,,,,,,,,,,,,,,,,,,
null,,thebreak,995527,break,,null,,,,,,,,,,,,,,,,,,
5294.40000000014,,realistic_rating,1000823,Willowford,,51,Willowford,Fictional,3,,,,,,,,,,,,,,,
null,,confidence_buffer,1000927,confidence_buffer,,null,,,,,,,,,,,,,,,,,,
2231.600000000093,,pt2_unique_rating,1003160,Willowford,,51,,,3,,,,,,,,,,,,,,,
null,,confidence_buffer,1003264,confidence_buffer,,null,,,,,,,,,,,,,,,,,,
1798.7999999998137,,pt2_memorable_rating,1005064,Willowford,,50,,,2,,,,,,,,,,,,,,,
null,,confidence_buffer,1005168,confidence_buffer,,null,,,,,,,,,,,,,,,,,,
3582.600000000093,,recognition_phase,1008752,Willowford,,50,,,,,,old,1,0.9629629629629629,,,,,,,,,,
null,,confidence_buffer,1008855,confidence_buffer,,null,,,,,,,,,,,,,,,,,,
null,,thebreak,1009358,break,,null,,,,,,,,,,,,,,,,,,
8016,,realistic_rating,1017376,Coeur d'Alene,,50,Coeur d'Alene,US,2,,,,,,,,,,,,,,,
null,,confidence_buffer,1017479,confidence_buffer,,null,,,,,,,,,,,,,,,,,,
2871.6999999999534,,pt2_unique_rating,1020352,Coeur d'Alene,,52,,,4,,,,,,,,,,,,,,,
null,,confidence_buffer,1020455,confidence_buffer,,null,,,,,,,,,,,,,,,,,,
3070.600000000093,,pt2_memorable_rating,1023528,Coeur d'Alene,,49,,,1,,,,,,,,,,,,,,,
null,,confidence_buffer,1023631,confidence_buffer,,null,,,,,,,,,,,,,,,,,,
2174.899999999907,,recognition_phase,1025808,Coeur d'Alene,,52,,,,,,new,1,0.9642857142857143,,,,,,,,,,
null,,confidence_buffer,1025911,confidence_buffer,,null,,,,,,,,,,,,,,,,,,
null,,thebreak,1026414,break,,null,,,,,,,,,,,,,,,,,,
6257.100000000093,,realistic_rating,1032673,Athens,,53,Athens,US,5,,,,,,,,,,,,,,,
null,,confidence_buffer,1032777,confidence_buffer,,null,,,,,,,,,,,,,,,,,,
3541.5999999998603,,pt2_unique_rating,1036320,Athens,,50,,,2,,,,,,,,,,,,,,,
null,,confidence_buffer,1036423,confidence_buffer,,null,,,,,,,,,,,,,,,,,,
3871.1999999999534,,pt2_memorable_rating,1040296,Athens,,52,,,4,,,,,,,,,,,,,,,
null,,confidence_buffer,1040399,confidence_buffer,,null,,,,,,,,,,,,,,,,,,
2367.600000000093,,recognition_phase,1042769,Athens,,52,,,,,,new,1,0.9655172413793104,,,,,,,,,,
null,,confidence_buffer,1042872,confidence_buffer,,null,,,,,,,,,,,,,,,,,,
null,,thebreak,1043375,break,,null,,,,,,,,,,,,,,,,,,
6239.300000000047,,realistic_rating,1049616,Sierra Hollow,,51,Sierra Hollow,Fictional,3,,,,,,,,,,,,,,,
null,,confidence_buffer,1049720,confidence_buffer,,null,,,,,,,,,,,,,,,,,,
4063,,pt2_unique_rating,1053785,Sierra Hollow,,52,,,4,,,,,,,,,,,,,,,
null,,confidence_buffer,1053888,confidence_buffer,,null,,,,,,,,,,,,,,,,,,
4069.5,,pt2_memorable_rating,1057960,Sierra Hollow,,51,,,3,,,,,,,,,,,,,,,
null,,confidence_buffer,1058063,confidence_buffer,,null,,,,,,,,,,,,,,,,,,
3350.9000000001397,,recognition_phase,1061416,Sierra Hollow,,51,,,,,,new,1,0.9666666666666667,,,,,,,,,,
null,,confidence_buffer,1061519,confidence_buffer,,null,,,,,,,,,,,,,,,,,,
null,,thebreak,1062022,break,,null,,,,,,,,,,,,,,,,,,
4368.699999999953,,realistic_rating,1066393,Leesburg,,50,Leesburg,US,2,,,,,,,,,,,,,,,
null,,confidence_buffer,1066496,confidence_buffer,,null,,,,,,,,,,,,,,,,,,
1469.8000000000466,,pt2_unique_rating,1067968,Leesburg,,51,,,3,,,,,,,,,,,,,,,
null,,confidence_buffer,1068072,confidence_buffer,,null,,,,,,,,,,,,,,,,,,
3342.3000000000466,,pt2_memorable_rating,1071416,Leesburg,,50,,,2,,,,,,,,,,,,,,,
null,,confidence_buffer,1071519,confidence_buffer,,null,,,,,,,,,,,,,,,,,,
2463.3000000000466,,recognition_phase,1073984,Leesburg,,49,,,,,,old,1,0.967741935483871,,,,,,,,,,
null,,confidence_buffer,1074087,confidence_buffer,,null,,,,,,,,,,,,,,,,,,
null,,thebreak,1074590,break,,null,,,,,,,,,,,,,,,,,,
6393.40000000014,,realistic_rating,1080985,Summershade,,52,Summershade,Fictional,4,,,,,,,,,,,,,,,
null,,confidence_buffer,1081087,confidence_buffer,,null,,,,,,,,,,,,,,,,,,
2678.6999999999534,,pt2_unique_rating,1083767,Summershade,,51,,,3,,,,,,,,,,,,,,,
null,,confidence_buffer,1083871,confidence_buffer,,null,,,,,,,,,,,,,,,,,,
3631.5,,pt2_memorable_rating,1087504,Summershade,,52,,,4,,,,,,,,,,,,,,,
null,,confidence_buffer,1087607,confidence_buffer,,null,,,,,,,,,,,,,,,,,,
2511.1999999999534,,recognition_phase,1090120,Summershade,,49,,,,,,old,1,0.96875,,,,,,,,,,
null,,confidence_buffer,1090224,confidence_buffer,,null,,,,,,,,,,,,,,,,,,
null,,thebreak,1090727,break,,null,,,,,,,,,,,,,,,,,,
4791.199999999953,,realistic_rating,1095520,Hanover,,53,Hanover,US,5,,,,,,,,,,,,,,,
null,,confidence_buffer,1095623,confidence_buffer,,null,,,,,,,,,,,,,,,,,,
2990.9000000001397,,pt2_unique_rating,1098616,Hanover,,51,,,3,,,,,,,,,,,,,,,
null,,confidence_buffer,1098720,confidence_buffer,,null,,,,,,,,,,,,,,,,,,
2510,,pt2_memorable_rating,1101231,Hanover,,53,,,5,,,,,,,,,,,,,,,
null,,confidence_buffer,1101334,confidence_buffer,,null,,,,,,,,,,,,,,,,,,
2983.3000000000466,,recognition_phase,1104319,Hanover,,49,,,,,,old,1,0.9696969696969697,,,,,,,,,,
null,,confidence_buffer,1104423,confidence_buffer,,null,,,,,,,,,,,,,,,,,,
null,,thebreak,1104925,break,,null,,,,,,,,,,,,,,,,,,
8112.699999999953,,realistic_rating,1113040,Ashford Hills,,51,Ashford Hills,Fictional,3,,,,,,,,,,,,,,,
null,,confidence_buffer,1113143,confidence_buffer,,null,,,,,,,,,,,,,,,,,,
2230.3000000000466,,pt2_unique_rating,1115376,Ashford Hills,,50,,,2,,,,,,,,,,,,,,,
null,,confidence_buffer,1115479,confidence_buffer,,null,,,,,,,,,,,,,,,,,,
2118.3000000000466,,pt2_memorable_rating,1117599,Ashford Hills,,50,,,2,,,,,,,,,,,,,,,
null,,confidence_buffer,1117702,confidence_buffer,,null,,,,,,,,,,,,,,,,,,
2871.7999999998137,,recognition_phase,1120576,Ashford Hills,,50,,,,,,old,0,0.9411764705882353,,,,,,,,,,
null,,confidence_buffer,1120680,confidence_buffer,,null,,,,,,,,,,,,,,,,,,
null,,thebreak,1121183,break,,null,,,,,,,,,,,,,,,,,,
5855.800000000047,,realistic_rating,1127040,Okoboji,,50,Okoboji,US,2,,,,,,,,,,,,,,,
null,,confidence_buffer,1127144,confidence_buffer,,null,,,,,,,,,,,,,,,,,,
4997.600000000093,,pt2_unique_rating,1132144,Okoboji,,52,,,4,,,,,,,,,,,,,,,
null,,confidence_buffer,1132247,confidence_buffer,,null,,,,,,,,,,,,,,,,,,
3150.8000000000466,,probe_rating,1135400,probe_rating,,53,,,,5,1,,,,,,,,,,,,,
null,,confidence_buffer,1135503,confidence_buffer,,null,,,,,,,,,,,,,,,,,,
3688.100000000093,,pt2_memorable_rating,1139193,Okoboji,,49,,,1,,,,,,,,,,,,,,,
null,,confidence_buffer,1139295,confidence_buffer,,null,,,,,,,,,,,,,,,,,,
2751.3000000000466,,recognition_phase,1142048,Okoboji,,49,,,,,,old,1,0.9428571428571428,,,,,,,,,,
null,,confidence_buffer,1142151,confidence_buffer,,null,,,,,,,,,,,,,,,,,,
null,,thebreak,1142654,break,,null,,,,,,,,,,,,,,,,,,
4344,,realistic_rating,1147000,Lakehaven,,51,Lakehaven,Fictional,3,,,,,,,,,,,,,,,
null,,confidence_buffer,1147103,confidence_buffer,,null,,,,,,,,,,,,,,,,,,
2839.9000000001397,,pt2_unique_rating,1149944,Lakehaven,,50,,,2,,,,,,,,,,,,,,,
null,,confidence_buffer,1150048,confidence_buffer,,null,,,,,,,,,,,,,,,,,,
1806.2000000001863,,pt2_memorable_rating,1151856,Lakehaven,,51,,,3,,,,,,,,,,,,,,,
null,,confidence_buffer,1151958,confidence_buffer,,null,,,,,,,,,,,,,,,,,,
4183.59999999986,,recognition_phase,1156144,Lakehaven,,51,,,,,,new,1,0.9444444444444444,,,,,,,,,,
null,,confidence_buffer,1156248,confidence_buffer,,null,,,,,,,,,,,,,,,,,,
null,,thebreak,1156750,break,,null,,,,,,,,,,,,,,,,,,
5208.5,,realistic_rating,1161960,Sunmere,,51,Sunmere,Fictional,3,,,,,,,,,,,,,,,
null,,confidence_buffer,1162064,confidence_buffer,,null,,,,,,,,,,,,,,,,,,
3662.2999999998137,,pt2_unique_rating,1165728,Sunmere,,51,,,3,,,,,,,,,,,,,,,
null,,confidence_buffer,1165831,confidence_buffer,,null,,,,,,,,,,,,,,,,,,
1686.4000000001397,,pt2_memorable_rating,1167519,Sunmere,,50,,,2,,,,,,,,,,,,,,,
null,,confidence_buffer,1167623,confidence_buffer,,null,,,,,,,,,,,,,,,,,,
2351.3000000000466,,probe_rating,1169976,probe_rating,,51,,,,3,1,,,,,,,,,,,,,
null,,confidence_buffer,1170079,confidence_buffer,,null,,,,,,,,,,,,,,,,,,
2814.6999999999534,,recognition_phase,1172896,Sunmere,,49,,,,,,old,1,0.9459459459459459,,,,,,,,,,
null,,confidence_buffer,1172998,confidence_buffer,,null,,,,,,,,,,,,,,,,,,
null,,thebreak,1173501,break,,null,,,,,,,,,,,,,,,,,,
7353.09999999986,,realistic_rating,1180856,Hilo,,50,Hilo,US,2,,,,,,,,,,,,,,,
null,,confidence_buffer,1180960,confidence_buffer,,null,,,,,,,,,,,,,,,,,,
2790.6999999999534,,pt2_unique_rating,1183752,Hilo,,52,,,4,,,,,,,,,,,,,,,
null,,confidence_buffer,1183856,confidence_buffer,,null,,,,,,,,,,,,,,,,,,
2022.0999999998603,,pt2_memorable_rating,1185880,Hilo,,51,,,3,,,,,,,,,,,,,,,
null,,confidence_buffer,1185983,confidence_buffer,,null,,,,,,,,,,,,,,,,,,
3735.1999999999534,,recognition_phase,1189720,Hilo,,51,,,,,,new,0,0.9210526315789473,,,,,,,,,,
null,,confidence_buffer,1189824,confidence_buffer,,null,,,,,,,,,,,,,,,,,,
null,,thebreak,1190327,break,,null,,,,,,,,,,,,,,,,,,
2647,,realistic_rating,1192976,Park City,,53,Park City,US,5,,,,,,,,,,,,,,,
null,,confidence_buffer,1193079,confidence_buffer,,null,,,,,,,,,,,,,,,,,,
2767.5,,probe_rating,1195849,probe_rating,,52,,,,4,1,,,,,,,,,,,,,
null,,confidence_buffer,1195952,confidence_buffer,,null,,,,,,,,,,,,,,,,,,
2477.899999999907,,pt2_unique_rating,1198432,Park City,,50,,,2,,,,,,,,,,,,,,,
null,,confidence_buffer,1198535,confidence_buffer,,null,,,,,,,,,,,,,,,,,,
1999,,pt2_memorable_rating,1200536,Park City,,53,,,5,,,,,,,,,,,,,,,
null,,confidence_buffer,1200640,confidence_buffer,,null,,,,,,,,,,,,,,,,,,
3572.3000000000466,,recognition_phase,1204214,Park City,,51,,,,,,new,0,0.8974358974358975,,,,,,,,,,
null,,confidence_buffer,1204317,confidence_buffer,,null,,,,,,,,,,,,,,,,,,
null,,thebreak,1204819,break,,null,,,,,,,,,,,,,,,,,,
4876.300000000047,,realistic_rating,1209703,Bayshore Haven,,51,Bayshore Haven,Fictional,3,,,,,,,,,,,,,,,
null,,confidence_buffer,1209806,confidence_buffer,,null,,,,,,,,,,,,,,,,,,
3358.100000000093,,pt2_unique_rating,1213169,Bayshore Haven,,50,,,2,,,,,,,,,,,,,,,
null,,confidence_buffer,1213272,confidence_buffer,,null,,,,,,,,,,,,,,,,,,
1303.3999999999069,,pt2_memorable_rating,1214579,Bayshore Haven,,51,,,3,,,,,,,,,,,,,,,
null,,confidence_buffer,1214682,confidence_buffer,,null,,,,,,,,,,,,,,,,,,
3910.4000000001397,,recognition_phase,1218598,Bayshore Haven,,51,,,,,,new,1,0.9,,,,,,,,,,
null,,confidence_buffer,1218700,confidence_buffer,,null,,,,,,,,,,,,,,,,,,
null,,thebreak,1219204,break,,null,,,,,,,,,,,,,,,,,,
2217.2000000001863,,realistic_rating,1221424,Newport,,53,Newport,US,5,,,,,,,,,,,,,,,
null,,confidence_buffer,1221528,confidence_buffer,,null,,,,,,,,,,,,,,,,,,
4453.399999999907,,pt2_unique_rating,1225985,Newport,,50,,,2,,,,,,,,,,,,,,,
null,,confidence_buffer,1226088,confidence_buffer,,null,,,,,,,,,,,,,,,,,,
1591.2999999998137,,pt2_memorable_rating,1227682,Newport,,52,,,4,,,,,,,,,,,,,,,
null,,confidence_buffer,1227786,confidence_buffer,,null,,,,,,,,,,,,,,,,,,
5751.09999999986,,recognition_phase,1233540,Newport,,49,,,,,,old,1,0.9024390243902439,,,,,,,,,,
null,,confidence_buffer,1233643,confidence_buffer,,null,,,,,,,,,,,,,,,,,,
null,,thebreak,1234146,break,,null,,,,,,,,,,,,,,,,,,
3351.9000000001397,,realistic_rating,1237501,Cleveland,,53,Cleveland,US,5,,,,,,,,,,,,,,,
null,,confidence_buffer,1237604,confidence_buffer,,null,,,,,,,,,,,,,,,,,,
3190.9000000001397,,pt2_unique_rating,1240797,Cleveland,,50,,,2,,,,,,,,,,,,,,,
null,,confidence_buffer,1240901,confidence_buffer,,null,,,,,,,,,,,,,,,,,,
2663.100000000093,,probe_rating,1243566,probe_rating,,49,,,,1,1,,,,,,,,,,,,,
null,,confidence_buffer,1243670,confidence_buffer,,null,,,,,,,,,,,,,,,,,,
3422,,pt2_memorable_rating,1247094,Cleveland,,51,,,3,,,,,,,,,,,,,,,
null,,confidence_buffer,1247197,confidence_buffer,,null,,,,,,,,,,,,,,,,,,
5199,,recognition_phase,1252399,Cleveland,,50,,,,,,old,1,0.9047619047619048,,,,,,,,,,
null,,confidence_buffer,1252502,confidence_buffer,,null,,,,,,,,,,,,,,,,,,
null,,thebreak,1253005,break,,null,,,,,,,,,,,,,,,,,,
6624.899999999907,,realistic_rating,1259632,West Talora,,50,West Talora,Fictional,2,,,,,,,,,,,,,,,
null,,confidence_buffer,1259735,confidence_buffer,,null,,,,,,,,,,,,,,,,,,
1717.8999999999069,,pt2_unique_rating,1261455,West Talora,,50,,,2,,,,,,,,,,,,,,,
null,,confidence_buffer,1261559,confidence_buffer,,null,,,,,,,,,,,,,,,,,,
3439.2000000001863,,pt2_memorable_rating,1265000,West Talora,,50,,,2,,,,,,,,,,,,,,,
null,,confidence_buffer,1265103,confidence_buffer,,null,,,,,,,,,,,,,,,,,,
4126.800000000047,,recognition_phase,1269232,West Talora,,49,,,,,,old,1,0.9069767441860465,,,,,,,,,,
null,,confidence_buffer,1269336,confidence_buffer,,null,,,,,,,,,,,,,,,,,,
null,,thebreak,1269839,break,,null,,,,,,,,,,,,,,,,,,
6799.300000000047,,realistic_rating,1276640,Folly Beach,,51,Folly Beach,US,3,,,,,,,,,,,,,,,
null,,confidence_buffer,1276744,confidence_buffer,,null,,,,,,,,,,,,,,,,,,
2173.899999999907,,pt2_unique_rating,1278920,Folly Beach,,50,,,2,,,,,,,,,,,,,,,
null,,confidence_buffer,1279023,confidence_buffer,,null,,,,,,,,,,,,,,,,,,
1582.9000000001397,,pt2_memorable_rating,1280608,Folly Beach,,51,,,3,,,,,,,,,,,,,,,
null,,confidence_buffer,1280711,confidence_buffer,,null,,,,,,,,,,,,,,,,,,
2374.8000000000466,,recognition_phase,1283088,Folly Beach,,52,,,,,,new,1,0.9090909090909091,,,,,,,,,,
null,,confidence_buffer,1283192,confidence_buffer,,null,,,,,,,,,,,,,,,,,,
null,,thebreak,1283695,break,,null,,,,,,,,,,,,,,,,,,
5175.600000000093,,realistic_rating,1288873,Rosehollow,,51,Rosehollow,Fictional,3,,,,,,,,,,,,,,,
null,,confidence_buffer,1288977,confidence_buffer,,null,,,,,,,,,,,,,,,,,,
1885.6000000000931,,pt2_unique_rating,1290864,Rosehollow,,50,,,2,,,,,,,,,,,,,,,
null,,confidence_buffer,1290967,confidence_buffer,,null,,,,,,,,,,,,,,,,,,
2223.0999999998603,,pt2_memorable_rating,1293192,Rosehollow,,51,,,3,,,,,,,,,,,,,,,
null,,confidence_buffer,1293296,confidence_buffer,,null,,,,,,,,,,,,,,,,,,
4750.5,,recognition_phase,1298048,Rosehollow,,49,,,,,,old,1,0.9111111111111111,,,,,,,,,,
null,,confidence_buffer,1298152,confidence_buffer,,null,,,,,,,,,,,,,,,,,,
null,,thebreak,1298655,break,,null,,,,,,,,,,,,,,,,,,
9775.40000000014,,realistic_rating,1308432,Meadowspire,,50,Meadowspire,Fictional,2,,,,,,,,,,,,,,,
null,,confidence_buffer,1308535,confidence_buffer,,null,,,,,,,,,,,,,,,,,,
2566.899999999907,,pt2_unique_rating,1311104,Meadowspire,,51,,,3,,,,,,,,,,,,,,,
null,,confidence_buffer,1311208,confidence_buffer,,null,,,,,,,,,,,,,,,,,,
2102.600000000093,,pt2_memorable_rating,1313312,Meadowspire,,50,,,2,,,,,,,,,,,,,,,
null,,confidence_buffer,1313416,confidence_buffer,,null,,,,,,,,,,,,,,,,,,
4054.6999999999534,,recognition_phase,1317472,Meadowspire,,52,,,,,,new,1,0.9130434782608695,,,,,,,,,,
null,,confidence_buffer,1317576,confidence_buffer,,null,,,,,,,,,,,,,,,,,,
null,,thebreak,1318080,break,,null,,,,,,,,,,,,,,,,,,
6847.699999999953,,realistic_rating,1324929,Natchez,,51,Natchez,US,3,,,,,,,,,,,,,,,
null,,confidence_buffer,1325032,confidence_buffer,,null,,,,,,,,,,,,,,,,,,
2862.399999999907,,pt2_unique_rating,1327896,Natchez,,52,,,4,,,,,,,,,,,,,,,
null,,confidence_buffer,1328000,confidence_buffer,,null,,,,,,,,,,,,,,,,,,
1918.3999999999069,,pt2_memorable_rating,1329921,Natchez,,50,,,2,,,,,,,,,,,,,,,
null,,confidence_buffer,1330024,confidence_buffer,,null,,,,,,,,,,,,,,,,,,
2142.4000000001397,,recognition_phase,1332168,Natchez,,49,,,,,,old,1,0.9148936170212766,,,,,,,,,,
null,,confidence_buffer,1332272,confidence_buffer,,null,,,,,,,,,,,,,,,,,,
null,,thebreak,1332775,break,,null,,,,,,,,,,,,,,,,,,
5152.100000000093,,realistic_rating,1337929,Westridge,,52,Westridge,Fictional,4,,,,,,,,,,,,,,,
null,,confidence_buffer,1338032,confidence_buffer,,null,,,,,,,,,,,,,,,,,,
2117.399999999907,,pt2_unique_rating,1340152,Westridge,,50,,,2,,,,,,,,,,,,,,,
null,,confidence_buffer,1340255,confidence_buffer,,null,,,,,,,,,,,,,,,,,,
2143.0999999998603,,pt2_memorable_rating,1342400,Westridge,,52,,,4,,,,,,,,,,,,,,,
null,,confidence_buffer,1342504,confidence_buffer,,null,,,,,,,,,,,,,,,,,,
1814.6999999999534,,recognition_phase,1344320,Westridge,,49,,,,,,old,1,0.9166666666666666,,,,,,,,,,
null,,confidence_buffer,1344424,confidence_buffer,,null,,,,,,,,,,,,,,,,,,
null,,thebreak,1344927,break,,null,,,,,,,,,,,,,,,,,,
4488,,realistic_rating,1349417,Brookmere,,51,Brookmere,Fictional,3,,,,,,,,,,,,,,,
null,,confidence_buffer,1349520,confidence_buffer,,null,,,,,,,,,,,,,,,,,,
2366.9000000001397,,pt2_unique_rating,1351888,Brookmere,,50,,,2,,,,,,,,,,,,,,,
null,,confidence_buffer,1351992,confidence_buffer,,null,,,,,,,,,,,,,,,,,,
2238.100000000093,,pt2_memorable_rating,1354232,Brookmere,,51,,,3,,,,,,,,,,,,,,,
null,,confidence_buffer,1354335,confidence_buffer,,null,,,,,,,,,,,,,,,,,,
3935.600000000093,,recognition_phase,1358273,Brookmere,,51,,,,,,new,0,0.8979591836734694,,,,,,,,,,
null,,confidence_buffer,1358376,confidence_buffer,,null,,,,,,,,,,,,,,,,,,
null,,thebreak,1358880,break,,null,,,,,,,,,,,,,,,,,,
6231.5,,realistic_rating,1365113,Alliance,,50,Alliance,US,2,,,,,,,,,,,,,,,
null,,confidence_buffer,1365216,confidence_buffer,,null,,,,,,,,,,,,,,,,,,
2886.600000000093,,pt2_unique_rating,1368105,Alliance,,51,,,3,,,,,,,,,,,,,,,
null,,confidence_buffer,1368208,confidence_buffer,,null,,,,,,,,,,,,,,,,,,
4062.5999999998603,,pt2_memorable_rating,1372273,Alliance,,50,,,2,,,,,,,,,,,,,,,
null,,confidence_buffer,1372376,confidence_buffer,,null,,,,,,,,,,,,,,,,,,
1894.0999999998603,,recognition_phase,1374273,Alliance,,52,,,,,,new,1,0.9,,,,,,,,,,
null,,confidence_buffer,1374376,confidence_buffer,,null,,,,,,,,,,,,,,,,,,
null,,thebreak,1374880,break,,null,,,,,,,,,,,,,,,,,,
3727.4000000001397,,realistic_rating,1378609,Delaro Park,,51,Delaro Park,Fictional,3,,,,,,,,,,,,,,,
null,,confidence_buffer,1378713,confidence_buffer,,null,,,,,,,,,,,,,,,,,,
2765.600000000093,,pt2_unique_rating,1381480,Delaro Park,,50,,,2,,,,,,,,,,,,,,,
null,,confidence_buffer,1381583,confidence_buffer,,null,,,,,,,,,,,,,,,,,,
1759.1999999999534,,pt2_memorable_rating,1383345,Delaro Park,,51,,,3,,,,,,,,,,,,,,,
null,,confidence_buffer,1383448,confidence_buffer,,null,,,,,,,,,,,,,,,,,,
3974.399999999907,,recognition_phase,1387424,Delaro Park,,52,,,,,,new,1,0.9019607843137255,,,,,,,,,,
null,,confidence_buffer,1387527,confidence_buffer,,null,,,,,,,,,,,,,,,,,,
null,,thebreak,1388030,break,,null,,,,,,,,,,,,,,,,,,
8136.300000000047,,realistic_rating,1396168,Assateague Island,,50,Assateague Island,US,2,,,,,,,,,,,,,,,
null,,confidence_buffer,1396272,confidence_buffer,,null,,,,,,,,,,,,,,,,,,
3574.399999999907,,pt2_unique_rating,1399848,Assateague Island,,49,,,1,,,,,,,,,,,,,,,
null,,confidence_buffer,1399952,confidence_buffer,,null,,,,,,,,,,,,,,,,,,
4591,,pt2_memorable_rating,1404545,Assateague Island,,49,,,1,,,,,,,,,,,,,,,
null,,confidence_buffer,1404648,confidence_buffer,,null,,,,,,,,,,,,,,,,,,
1967,,recognition_phase,1406617,Assateague Island,,52,,,,,,new,1,0.9038461538461539,,,,,,,,,,
null,,confidence_buffer,1406721,confidence_buffer,,null,,,,,,,,,,,,,,,,,,
null,,thebreak,1407224,break,,null,,,,,,,,,,,,,,,,,,
7031.399999999907,,realistic_rating,1414257,Peoria,,50,Peoria,US,2,,,,,,,,,,,,,,,
null,,confidence_buffer,1414360,confidence_buffer,,null,,,,,,,,,,,,,,,,,,
4239,,pt2_unique_rating,1418601,Peoria,,52,,,4,,,,,,,,,,,,,,,
null,,confidence_buffer,1418705,confidence_buffer,,null,,,,,,,,,,,,,,,,,,
1918.0999999998603,,pt2_memorable_rating,1420625,Peoria,,50,,,2,,,,,,,,,,,,,,,
null,,confidence_buffer,1420728,confidence_buffer,,null,,,,,,,,,,,,,,,,,,
2110.5,,recognition_phase,1422841,Peoria,,52,,,,,,new,1,0.9056603773584906,,,,,,,,,,
null,,confidence_buffer,1422945,confidence_buffer,,null,,,,,,,,,,,,,,,,,,
null,,thebreak,1423447,break,,null,,,,,,,,,,,,,,,,,,
4367.399999999907,,realistic_rating,1427817,Yukon,,52,Yukon,US,4,,,,,,,,,,,,,,,
null,,confidence_buffer,1427920,confidence_buffer,,null,,,,,,,,,,,,,,,,,,
2886.8000000000466,,pt2_unique_rating,1430809,Yukon,,51,,,3,,,,,,,,,,,,,,,
null,,confidence_buffer,1430913,confidence_buffer,,null,,,,,,,,,,,,,,,,,,
2301.8000000000466,,pt2_memorable_rating,1433217,Yukon,,51,,,3,,,,,,,,,,,,,,,
null,,confidence_buffer,1433320,confidence_buffer,,null,,,,,,,,,,,,,,,,,,
2582.5,,recognition_phase,1435905,Yukon,,52,,,,,,new,1,0.9074074074074074,,,,,,,,,,
null,,confidence_buffer,1436007,confidence_buffer,,null,,,,,,,,,,,,,,,,,,
null,,thebreak,1436510,break,,null,,,,,,,,,,,,,,,,,,
6481.399999999907,,realistic_rating,1442993,Redgrove,,51,Redgrove,Fictional,3,,,,,,,,,,,,,,,
null,,confidence_buffer,1443097,confidence_buffer,,null,,,,,,,,,,,,,,,,,,
2102,,pt2_unique_rating,1445201,Redgrove,,50,,,2,,,,,,,,,,,,,,,
null,,confidence_buffer,1445304,confidence_buffer,,null,,,,,,,,,,,,,,,,,,
3038.8000000000466,,pt2_memorable_rating,1448344,Redgrove,,51,,,3,,,,,,,,,,,,,,,
null,,confidence_buffer,1448448,confidence_buffer,,null,,,,,,,,,,,,,,,,,,
5311.699999999953,,recognition_phase,1453761,Redgrove,,50,,,,,,old,1,0.9090909090909091,,,,,,,,,,
null,,confidence_buffer,1453864,confidence_buffer,,null,,,,,,,,,,,,,,,,,,
null,,thebreak,1454367,break,,null,,,,,,,,,,,,,,,,,,
5895.800000000047,,realistic_rating,1460265,Healdsburg,,50,Healdsburg,US,2,,,,,,,,,,,,,,,
null,,confidence_buffer,1460368,confidence_buffer,,null,,,,,,,,,,,,,,,,,,
3583.399999999907,,pt2_unique_rating,1463953,Healdsburg,,52,,,4,,,,,,,,,,,,,,,
null,,confidence_buffer,1464056,confidence_buffer,,null,,,,,,,,,,,,,,,,,,
3430.8000000000466,,pt2_memorable_rating,1467489,Healdsburg,,49,,,1,,,,,,,,,,,,,,,
null,,confidence_buffer,1467592,confidence_buffer,,null,,,,,,,,,,,,,,,,,,
3351.8000000000466,,recognition_phase,1470945,Healdsburg,,52,,,,,,new,1,0.9107142857142857,,,,,,,,,,
null,,confidence_buffer,1471048,confidence_buffer,,null,,,,,,,,,,,,,,,,,,
null,,thebreak,1471551,break,,null,,,,,,,,,,,,,,,,,,
5320.699999999953,,realistic_rating,1476873,Cape May,,53,Cape May,US,5,,,,,,,,,,,,,,,
null,,confidence_buffer,1476977,confidence_buffer,,null,,,,,,,,,,,,,,,,,,
3766.2999999998137,,pt2_unique_rating,1480745,Cape May,,51,,,3,,,,,,,,,,,,,,,
null,,confidence_buffer,1480849,confidence_buffer,,null,,,,,,,,,,,,,,,,,,
2886.399999999907,,pt2_memorable_rating,1483737,Cape May,,52,,,4,,,,,,,,,,,,,,,
null,,confidence_buffer,1483841,confidence_buffer,,null,,,,,,,,,,,,,,,,,,
1806.3999999999069,,probe_rating,1485649,probe_rating,,51,,,,3,1,,,,,,,,,,,,,
null,,confidence_buffer,1485752,confidence_buffer,,null,,,,,,,,,,,,,,,,,,
3167.5,,recognition_phase,1488922,Cape May,,49,,,,,,old,1,0.9122807017543859,,,,,,,,,,
null,,confidence_buffer,1489025,confidence_buffer,,null,,,,,,,,,,,,,,,,,,
null,,thebreak,1489529,break,,null,,,,,,,,,,,,,,,,,,
6670.5,,realistic_rating,1496201,Stonebrook,,53,Stonebrook,Fictional,5,,,,,,,,,,,,,,,
null,,confidence_buffer,1496304,confidence_buffer,,null,,,,,,,,,,,,,,,,,,
2687.3000000000466,,probe_rating,1498994,probe_rating,,53,,,,5,1,,,,,,,,,,,,,
null,,confidence_buffer,1499098,confidence_buffer,,null,,,,,,,,,,,,,,,,,,
5029.100000000093,,pt2_unique_rating,1504129,Stonebrook,,50,,,2,,,,,,,,,,,,,,,
null,,confidence_buffer,1504232,confidence_buffer,,null,,,,,,,,,,,,,,,,,,
3142.899999999907,,pt2_memorable_rating,1507377,Stonebrook,,52,,,4,,,,,,,,,,,,,,,
null,,confidence_buffer,1507480,confidence_buffer,,null,,,,,,,,,,,,,,,,,,
4495.699999999953,,recognition_phase,1511978,Stonebrook,,50,,,,,,old,0,0.896551724137931,,,,,,,,,,
null,,confidence_buffer,1512081,confidence_buffer,,null,,,,,,,,,,,,,,,,,,
null,,thebreak,1512585,break,,null,,,,,,,,,,,,,,,,,,
5110.300000000047,,realistic_rating,1517697,Hot Springs,,53,Hot Springs,US,5,,,,,,,,,,,,,,,
null,,confidence_buffer,1517801,confidence_buffer,,null,,,,,,,,,,,,,,,,,,
3166.399999999907,,pt2_unique_rating,1520969,Hot Springs,,49,,,1,,,,,,,,,,,,,,,
null,,confidence_buffer,1521072,confidence_buffer,,null,,,,,,,,,,,,,,,,,,
2007.9000000001397,,pt2_memorable_rating,1523082,Hot Springs,,52,,,4,,,,,,,,,,,,,,,
null,,confidence_buffer,1523186,confidence_buffer,,null,,,,,,,,,,,,,,,,,,
2973.399999999907,,recognition_phase,1526161,Hot Springs,,50,,,,,,old,1,0.8983050847457628,,,,,,,,,,
null,,confidence_buffer,1526265,confidence_buffer,,null,,,,,,,,,,,,,,,,,,
null,,thebreak,1526768,break,,null,,,,,,,,,,,,,,,,,,
6023.199999999953,,realistic_rating,1532793,Highvale,,50,Highvale,Fictional,2,,,,,,,,,,,,,,,
null,,confidence_buffer,1532896,confidence_buffer,,null,,,,,,,,,,,,,,,,,,
3255.1999999999534,,pt2_unique_rating,1536154,Highvale,,51,,,3,,,,,,,,,,,,,,,
null,,confidence_buffer,1536257,confidence_buffer,,null,,,,,,,,,,,,,,,,,,
2470,,pt2_memorable_rating,1538729,Highvale,,50,,,2,,,,,,,,,,,,,,,
null,,confidence_buffer,1538832,confidence_buffer,,null,,,,,,,,,,,,,,,,,,
3846.9000000001397,,recognition_phase,1542681,Highvale,,49,,,,,,old,1,0.9,,,,,,,,,,
null,,confidence_buffer,1542784,confidence_buffer,,null,,,,,,,,,,,,,,,,,,
null,,thebreak,1543287,break,,null,,,,,,,,,,,,,,,,,,
,,survey,1859949,survey-questions,,,,,,,,,,,none,high,no,I tried to remember by saying names aloud,Trying to remember whether I saw the image before,Whether the image will stand in my mind,How it sounds to me,Whether the image possible in real life,no,no
