rt,responses,trial_type,time_elapsed,stimulus,button_pressed,key_press,name_trial,city_type,rating,probe,probe_accuracy,response,correct,accuracy,problems,smooth,distraction,strategies,familiar,memorable,unique,realistic,similar,comments
4470.0999999940395,{worker_id:62fbdda6e4b5a034b71296f8},id_enter,4471,,,,,,,,,,,,,,,,,,,,,
15637.59999999404,,fullscreen,20111,fullscreen,0,,,,,,,,,,,,,,,,,,,
6595.799999982119,,intro_0,26708,instruct,,32,,,,,,,,,,,,,,,,,,
9559,,intro_1,36269,instruct,,32,,,,,,,,,,,,,,,,,,
5576.699999988079,,intro_2,41847,instruct,,32,,,,,,,,,,,,,,,,,,
null,,instruct_dir_4,43350,instruct,,null,,,,,,,,,,,,,,,,,,
null,,thebreak,43852,break,,null,,,,,,,,,,,,,,,,,,
4084.399999976158,,familiar_rating,47938,Okoboji,,49,Okoboji,US,1,,,,,,,,,,,,,,,
null,,confidence_buffer,48041,confidence_buffer,,null,,,,,,,,,,,,,,,,,,
2256.100000023842,,unique_rating,50298,Okoboji,,53,,,5,,,,,,,,,,,,,,,
null,,confidence_buffer,50413,confidence_buffer,,null,,,,,,,,,,,,,,,,,,
2138.2999999821186,,memorable_rating,52552,Okoboji,,52,,,4,,,,,,,,,,,,,,,
null,,confidence_buffer,52654,confidence_buffer,,null,,,,,,,,,,,,,,,,,,
null,,thebreak,53155,break,,null,,,,,,,,,,,,,,,,,,
2526.199999988079,,familiar_rating,55682,Manistee,,49,Manistee,US,1,,,,,,,,,,,,,,,
null,,confidence_buffer,55784,confidence_buffer,,null,,,,,,,,,,,,,,,,,,
3364.800000011921,,unique_rating,59150,Manistee,,52,,,4,,,,,,,,,,,,,,,
null,,confidence_buffer,59252,confidence_buffer,,null,,,,,,,,,,,,,,,,,,
2455.899999976158,,memorable_rating,61709,Manistee,,52,,,4,,,,,,,,,,,,,,,
null,,confidence_buffer,61821,confidence_buffer,,null,,,,,,,,,,,,,,,,,,
null,,thebreak,62323,break,,null,,,,,,,,,,,,,,,,,,
2179.5,,familiar_rating,64504,Highvale,,51,Highvale,Fictional,3,,,,,,,,,,,,,,,
null,,confidence_buffer,64606,confidence_buffer,,null,,,,,,,,,,,,,,,,,,
2357.699999988079,,unique_rating,66964,Highvale,,53,,,5,,,,,,,,,,,,,,,
null,,confidence_buffer,67066,confidence_buffer,,null,,,,,,,,,,,,,,,,,,
2044.9000000059605,,memorable_rating,69112,Highvale,,53,,,5,,,,,,,,,,,,,,,
null,,confidence_buffer,69214,confidence_buffer,,null,,,,,,,,,,,,,,,,,,
2114.100000023842,,probe_rating,71330,probe_rating,,51,,,,3,1,,,,,,,,,,,,,
null,,confidence_buffer,71433,confidence_buffer,,null,,,,,,,,,,,,,,,,,,
null,,thebreak,71934,break,,null,,,,,,,,,,,,,,,,,,
2713.5999999940395,,familiar_rating,74649,Shreveport,,53,Shreveport,US,5,,,,,,,,,,,,,,,
null,,confidence_buffer,74755,confidence_buffer,,null,,,,,,,,,,,,,,,,,,
2209.699999988079,,unique_rating,76965,Shreveport,,51,,,3,,,,,,,,,,,,,,,
null,,confidence_buffer,77068,confidence_buffer,,null,,,,,,,,,,,,,,,,,,
1921.5,,memorable_rating,78990,Shreveport,,53,,,5,,,,,,,,,,,,,,,
null,,confidence_buffer,79092,confidence_buffer,,null,,,,,,,,,,,,,,,,,,
null,,thebreak,79594,break,,null,,,,,,,,,,,,,,,,,,
1459.300000011921,,familiar_rating,81054,Sitka,,49,Sitka,US,1,,,,,,,,,,,,,,,
null,,confidence_buffer,81155,confidence_buffer,,null,,,,,,,,,,,,,,,,,,
1609.800000011921,,unique_rating,82766,Sitka,,53,,,5,,,,,,,,,,,,,,,
null,,confidence_buffer,82867,confidence_buffer,,null,,,,,,,,,,,,,,,,,,
1328.199999988079,,memorable_rating,84196,Sitka,,51,,,3,,,,,,,,,,,,,,,
null,,confidence_buffer,84299,confidence_buffer,,null,,,,,,,,,,,,,,,,,,
null,,thebreak,84801,break,,null,,,,,,,,,,,,,,,,,,
2048.2999999821186,,familiar_rating,86850,Bisbee,,51,Bisbee,US,3,,,,,,,,,,,,,,,
null,,confidence_buffer,86953,confidence_buffer,,null,,,,,,,,,,,,,,,,,,
1359.9000000059605,,unique_rating,88314,Bisbee,,50,,,2,,,,,,,,,,,,,,,
null,,confidence_buffer,88415,confidence_buffer,,null,,,,,,,,,,,,,,,,,,
998.5999999940395,,memorable_rating,89415,Bisbee,,50,,,2,,,,,,,,,,,,,,,
null,,confidence_buffer,89516,confidence_buffer,,null,,,,,,,,,,,,,,,,,,
null,,thebreak,90018,break,,null,,,,,,,,,,,,,,,,,,
3131.699999988079,,familiar_rating,93151,Park City,,52,Park City,US,4,,,,,,,,,,,,,,,
null,,confidence_buffer,93254,confidence_buffer,,null,,,,,,,,,,,,,,,,,,
722.7999999821186,,unique_rating,93977,Park City,,49,,,1,,,,,,,,,,,,,,,
null,,confidence_buffer,94079,confidence_buffer,,null,,,,,,,,,,,,,,,,,,
1603,,probe_rating,95683,probe_rating,,52,,,,4,1,,,,,,,,,,,,,
null,,confidence_buffer,95786,confidence_buffer,,null,,,,,,,,,,,,,,,,,,
1766.9000000059605,,memorable_rating,97554,Park City,,51,,,3,,,,,,,,,,,,,,,
null,,confidence_buffer,97655,confidence_buffer,,null,,,,,,,,,,,,,,,,,,
null,,thebreak,98156,break,,null,,,,,,,,,,,,,,,,,,
3050,,familiar_rating,101207,Hanover,,52,Hanover,US,4,,,,,,,,,,,,,,,
null,,confidence_buffer,101309,confidence_buffer,,null,,,,,,,,,,,,,,,,,,
1339.5,,unique_rating,102649,Hanover,,51,,,3,,,,,,,,,,,,,,,
null,,confidence_buffer,102754,confidence_buffer,,null,,,,,,,,,,,,,,,,,,
938.6000000238419,,memorable_rating,103693,Hanover,,51,,,3,,,,,,,,,,,,,,,
null,,confidence_buffer,103794,confidence_buffer,,null,,,,,,,,,,,,,,,,,,
null,,thebreak,104295,break,,null,,,,,,,,,,,,,,,,,,
2063.9000000059605,,familiar_rating,106360,Summershade,,50,Summershade,Fictional,2,,,,,,,,,,,,,,,
null,,confidence_buffer,106463,confidence_buffer,,null,,,,,,,,,,,,,,,,,,
1400.300000011921,,unique_rating,107864,Summershade,,52,,,4,,,,,,,,,,,,,,,
null,,confidence_buffer,107966,confidence_buffer,,null,,,,,,,,,,,,,,,,,,
1281.699999988079,,memorable_rating,109249,Summershade,,52,,,4,,,,,,,,,,,,,,,
null,,confidence_buffer,109352,confidence_buffer,,null,,,,,,,,,,,,,,,,,,
null,,thebreak,109854,break,,null,,,,,,,,,,,,,,,,,,
4077.0999999940395,,familiar_rating,113932,Delaware City,,50,Delaware City,US,2,,,,,,,,,,,,,,,
null,,confidence_buffer,114035,confidence_buffer,,null,,,,,,,,,,,,,,,,,,
1295.7999999821186,,unique_rating,115331,Delaware City,,49,,,1,,,,,,,,,,,,,,,
null,,confidence_buffer,115433,confidence_buffer,,null,,,,,,,,,,,,,,,,,,
2535.9000000059605,,memorable_rating,117970,Delaware City,,49,,,1,,,,,,,,,,,,,,,
null,,confidence_buffer,118073,confidence_buffer,,null,,,,,,,,,,,,,,,,,,
null,,thebreak,118574,break,,null,,,,,,,,,,,,,,,,,,
2689.2000000178814,,familiar_rating,121264,West Talora,,49,West Talora,Fictional,1,,,,,,,,,,,,,,,
null,,confidence_buffer,121366,confidence_buffer,,null,,,,,,,,,,,,,,,,,,
2216.5,,unique_rating,123583,West Talora,,50,,,2,,,,,,,,,,,,,,,
null,,confidence_buffer,123686,confidence_buffer,,null,,,,,,,,,,,,,,,,,,
786.3000000119209,,memorable_rating,124473,West Talora,,49,,,1,,,,,,,,,,,,,,,
null,,confidence_buffer,124574,confidence_buffer,,null,,,,,,,,,,,,,,,,,,
null,,thebreak,125076,break,,null,,,,,,,,,,,,,,,,,,
2685.100000023842,,familiar_rating,127762,Natchez,,49,Natchez,US,1,,,,,,,,,,,,,,,
null,,confidence_buffer,127864,confidence_buffer,,null,,,,,,,,,,,,,,,,,,
1301.7000000178814,,unique_rating,129167,Natchez,,53,,,5,,,,,,,,,,,,,,,
null,,confidence_buffer,129279,confidence_buffer,,null,,,,,,,,,,,,,,,,,,
1081,,memorable_rating,130361,Natchez,,52,,,4,,,,,,,,,,,,,,,
null,,confidence_buffer,130463,confidence_buffer,,null,,,,,,,,,,,,,,,,,,
null,,thebreak,130964,break,,null,,,,,,,,,,,,,,,,,,
2680.5999999940395,,familiar_rating,133646,Gatlinburg,,53,Gatlinburg,US,5,,,,,,,,,,,,,,,
null,,confidence_buffer,133748,confidence_buffer,,null,,,,,,,,,,,,,,,,,,
3449.9000000059605,,unique_rating,137198,Gatlinburg,,52,,,4,,,,,,,,,,,,,,,
null,,confidence_buffer,137301,confidence_buffer,,null,,,,,,,,,,,,,,,,,,
880,,memorable_rating,138182,Gatlinburg,,53,,,5,,,,,,,,,,,,,,,
null,,confidence_buffer,138284,confidence_buffer,,null,,,,,,,,,,,,,,,,,,
null,,thebreak,138786,break,,null,,,,,,,,,,,,,,,,,,
1774.0999999940395,,familiar_rating,140561,Claywater,,50,Claywater,Fictional,2,,,,,,,,,,,,,,,
null,,confidence_buffer,140664,confidence_buffer,,null,,,,,,,,,,,,,,,,,,
1092.2999999821186,,unique_rating,141757,Claywater,,51,,,3,,,,,,,,,,,,,,,
null,,confidence_buffer,141858,confidence_buffer,,null,,,,,,,,,,,,,,,,,,
955.2999999821186,,memorable_rating,142814,Claywater,,51,,,3,,,,,,,,,,,,,,,
null,,confidence_buffer,142916,confidence_buffer,,null,,,,,,,,,,,,,,,,,,
null,,thebreak,143419,break,,null,,,,,,,,,,,,,,,,,,
1814.3999999761581,,familiar_rating,145235,Racine,,52,Racine,US,4,,,,,,,,,,,,,,,
null,,confidence_buffer,145336,confidence_buffer,,null,,,,,,,,,,,,,,,,,,
1293.0999999940395,,unique_rating,146630,Racine,,52,,,4,,,,,,,,,,,,,,,
null,,confidence_buffer,146732,confidence_buffer,,null,,,,,,,,,,,,,,,,,,
1087.7000000178814,,memorable_rating,147821,Racine,,51,,,3,,,,,,,,,,,,,,,
null,,confidence_buffer,147923,confidence_buffer,,null,,,,,,,,,,,,,,,,,,
null,,thebreak,148424,break,,null,,,,,,,,,,,,,,,,,,
1754.0999999940395,,familiar_rating,150179,Custer,,50,Custer,US,2,,,,,,,,,,,,,,,
null,,confidence_buffer,150280,confidence_buffer,,null,,,,,,,,,,,,,,,,,,
1144.9000000059605,,unique_rating,151426,Custer,,50,,,2,,,,,,,,,,,,,,,
null,,confidence_buffer,151528,confidence_buffer,,null,,,,,,,,,,,,,,,,,,
722.3000000119209,,memorable_rating,152251,Custer,,50,,,2,,,,,,,,,,,,,,,
null,,confidence_buffer,152353,confidence_buffer,,null,,,,,,,,,,,,,,,,,,
null,,thebreak,152864,break,,null,,,,,,,,,,,,,,,,,,
1482.6000000238419,,familiar_rating,154348,Riverlyn,,51,Riverlyn,Fictional,3,,,,,,,,,,,,,,,
null,,confidence_buffer,154451,confidence_buffer,,null,,,,,,,,,,,,,,,,,,
3068.5,,unique_rating,157520,Riverlyn,,50,,,2,,,,,,,,,,,,,,,
null,,confidence_buffer,157622,confidence_buffer,,null,,,,,,,,,,,,,,,,,,
1219,,memorable_rating,158842,Riverlyn,,51,,,3,,,,,,,,,,,,,,,
null,,confidence_buffer,158944,confidence_buffer,,null,,,,,,,,,,,,,,,,,,
null,,thebreak,159448,break,,null,,,,,,,,,,,,,,,,,,
2531.5999999940395,,familiar_rating,161981,Newport,,53,Newport,US,5,,,,,,,,,,,,,,,
null,,confidence_buffer,162084,confidence_buffer,,null,,,,,,,,,,,,,,,,,,
1030,,unique_rating,163115,Newport,,49,,,1,,,,,,,,,,,,,,,
null,,confidence_buffer,163216,confidence_buffer,,null,,,,,,,,,,,,,,,,,,
810.2000000178814,,memorable_rating,164027,Newport,,51,,,3,,,,,,,,,,,,,,,
null,,confidence_buffer,164129,confidence_buffer,,null,,,,,,,,,,,,,,,,,,
null,,thebreak,164631,break,,null,,,,,,,,,,,,,,,,,,
2599.699999988079,,familiar_rating,167232,New Verdan,,49,New Verdan,Fictional,1,,,,,,,,,,,,,,,
null,,confidence_buffer,167334,confidence_buffer,,null,,,,,,,,,,,,,,,,,,
2060.399999976158,,unique_rating,169395,New Verdan,,51,,,3,,,,,,,,,,,,,,,
null,,confidence_buffer,169497,confidence_buffer,,null,,,,,,,,,,,,,,,,,,
1548.4000000059605,,memorable_rating,171047,New Verdan,,50,,,2,,,,,,,,,,,,,,,
null,,confidence_buffer,171150,confidence_buffer,,null,,,,,,,,,,,,,,,,,,
null,,thebreak,171652,break,,null,,,,,,,,,,,,,,,,,,
3149.0999999940395,,familiar_rating,174802,Baymarsh,,51,Baymarsh,Fictional,3,,,,,,,,,,,,,,,
null,,confidence_buffer,174904,confidence_buffer,,null,,,,,,,,,,,,,,,,,,
2664,,unique_rating,177569,Baymarsh,,51,,,3,,,,,,,,,,,,,,,
null,,confidence_buffer,177671,confidence_buffer,,null,,,,,,,,,,,,,,,,,,
1432.2999999821186,,memorable_rating,179104,Baymarsh,,52,,,4,,,,,,,,,,,,,,,
null,,confidence_buffer,179206,confidence_buffer,,null,,,,,,,,,,,,,,,,,,
null,,thebreak,179708,break,,null,,,,,,,,,,,,,,,,,,
2576,,familiar_rating,182285,Sierra Hollow,,52,Sierra Hollow,Fictional,4,,,,,,,,,,,,,,,
null,,confidence_buffer,182387,confidence_buffer,,null,,,,,,,,,,,,,,,,,,
1106.4000000059605,,unique_rating,183494,Sierra Hollow,,53,,,5,,,,,,,,,,,,,,,
null,,confidence_buffer,183595,confidence_buffer,,null,,,,,,,,,,,,,,,,,,
919.7999999821186,,memorable_rating,184516,Sierra Hollow,,53,,,5,,,,,,,,,,,,,,,
null,,confidence_buffer,184618,confidence_buffer,,null,,,,,,,,,,,,,,,,,,
null,,thebreak,185120,break,,null,,,,,,,,,,,,,,,,,,
1864.2000000178814,,familiar_rating,186985,Rosehollow,,52,Rosehollow,Fictional,4,,,,,,,,,,,,,,,
null,,confidence_buffer,187087,confidence_buffer,,null,,,,,,,,,,,,,,,,,,
1501.6000000238419,,unique_rating,188590,Rosehollow,,52,,,4,,,,,,,,,,,,,,,
null,,confidence_buffer,188692,confidence_buffer,,null,,,,,,,,,,,,,,,,,,
1553,,memorable_rating,190246,Rosehollow,,52,,,4,,,,,,,,,,,,,,,
null,,confidence_buffer,190349,confidence_buffer,,null,,,,,,,,,,,,,,,,,,
null,,thebreak,190851,break,,null,,,,,,,,,,,,,,,,,,
2542.699999988079,,familiar_rating,193395,Tamarisk Hills,,49,Tamarisk Hills,Fictional,1,,,,,,,,,,,,,,,
null,,confidence_buffer,193496,confidence_buffer,,null,,,,,,,,,,,,,,,,,,
826.0999999940395,,unique_rating,194323,Tamarisk Hills,,53,,,5,,,,,,,,,,,,,,,
null,,confidence_buffer,194425,confidence_buffer,,null,,,,,,,,,,,,,,,,,,
1273.199999988079,,memorable_rating,195699,Tamarisk Hills,,52,,,4,,,,,,,,,,,,,,,
null,,confidence_buffer,195802,confidence_buffer,,null,,,,,,,,,,,,,,,,,,
null,,thebreak,196303,break,,null,,,,,,,,,,,,,,,,,,
1604.800000011921,,familiar_rating,197909,San Antonio,,53,San Antonio,US,5,,,,,,,,,,,,,,,
null,,confidence_buffer,198012,confidence_buffer,,null,,,,,,,,,,,,,,,,,,
2140.7000000178814,,unique_rating,200153,San Antonio,,52,,,4,,,,,,,,,,,,,,,
null,,confidence_buffer,200255,confidence_buffer,,null,,,,,,,,,,,,,,,,,,
945.0999999940395,,memorable_rating,201201,San Antonio,,53,,,5,,,,,,,,,,,,,,,
null,,confidence_buffer,201303,confidence_buffer,,null,,,,,,,,,,,,,,,,,,
null,,thebreak,201804,break,,null,,,,,,,,,,,,,,,,,,
2574,,familiar_rating,204379,Golden Trace,,49,Golden Trace,Fictional,1,,,,,,,,,,,,,,,
null,,confidence_buffer,204481,confidence_buffer,,null,,,,,,,,,,,,,,,,,,
1443.5999999940395,,unique_rating,205925,Golden Trace,,52,,,4,,,,,,,,,,,,,,,
null,,confidence_buffer,206027,confidence_buffer,,null,,,,,,,,,,,,,,,,,,
1429.800000011921,,memorable_rating,207458,Golden Trace,,53,,,5,,,,,,,,,,,,,,,
null,,confidence_buffer,207561,confidence_buffer,,null,,,,,,,,,,,,,,,,,,
null,,thebreak,208062,break,,null,,,,,,,,,,,,,,,,,,
2188.199999988079,,familiar_rating,210252,Juniper Creek,,53,Juniper Creek,Fictional,5,,,,,,,,,,,,,,,
null,,confidence_buffer,210353,confidence_buffer,,null,,,,,,,,,,,,,,,,,,
684.4000000059605,,unique_rating,211039,Juniper Creek,,49,,,1,,,,,,,,,,,,,,,
null,,confidence_buffer,211156,confidence_buffer,,null,,,,,,,,,,,,,,,,,,
2061,,probe_rating,213218,probe_rating,,51,,,,3,1,,,,,,,,,,,,,
null,,confidence_buffer,213320,confidence_buffer,,null,,,,,,,,,,,,,,,,,,
1038.5,,memorable_rating,214360,Juniper Creek,,50,,,2,,,,,,,,,,,,,,,
null,,confidence_buffer,214462,confidence_buffer,,null,,,,,,,,,,,,,,,,,,
null,,thebreak,214964,break,,null,,,,,,,,,,,,,,,,,,
1600.300000011921,,familiar_rating,216565,Elmsbury,,51,Elmsbury,Fictional,3,,,,,,,,,,,,,,,
null,,confidence_buffer,216668,confidence_buffer,,null,,,,,,,,,,,,,,,,,,
1654.2000000178814,,unique_rating,218323,Elmsbury,,51,,,3,,,,,,,,,,,,,,,
null,,confidence_buffer,218426,confidence_buffer,,null,,,,,,,,,,,,,,,,,,
1248,,memorable_rating,219675,Elmsbury,,51,,,3,,,,,,,,,,,,,,,
null,,confidence_buffer,219778,confidence_buffer,,null,,,,,,,,,,,,,,,,,,
null,,thebreak,220279,break,,null,,,,,,,,,,,,,,,,,,
2413,,familiar_rating,222693,Watkins Glen,,49,Watkins Glen,US,1,,,,,,,,,,,,,,,
null,,confidence_buffer,222796,confidence_buffer,,null,,,,,,,,,,,,,,,,,,
1806.5,,unique_rating,224603,Watkins Glen,,52,,,4,,,,,,,,,,,,,,,
null,,confidence_buffer,224705,confidence_buffer,,null,,,,,,,,,,,,,,,,,,
1131.0999999940395,,memorable_rating,225837,Watkins Glen,,51,,,3,,,,,,,,,,,,,,,
null,,confidence_buffer,225940,confidence_buffer,,null,,,,,,,,,,,,,,,,,,
null,,thebreak,226443,break,,null,,,,,,,,,,,,,,,,,,
5747.9000000059605,,familiar_rating,232192,East Ladera,,49,East Ladera,Fictional,1,,,,,,,,,,,,,,,
null,,confidence_buffer,232293,confidence_buffer,,null,,,,,,,,,,,,,,,,,,
2227.300000011921,,unique_rating,234521,East Ladera,,53,,,5,,,,,,,,,,,,,,,
null,,confidence_buffer,234623,confidence_buffer,,null,,,,,,,,,,,,,,,,,,
2000.300000011921,,memorable_rating,236624,East Ladera,,52,,,4,,,,,,,,,,,,,,,
null,,confidence_buffer,236725,confidence_buffer,,null,,,,,,,,,,,,,,,,,,
null,,thebreak,237228,break,,null,,,,,,,,,,,,,,,,,,
2178.5999999940395,,familiar_rating,239407,Solara Glen,,49,Solara Glen,Fictional,1,,,,,,,,,,,,,,,
null,,confidence_buffer,239510,confidence_buffer,,null,,,,,,,,,,,,,,,,,,
1837.2000000178814,,probe_rating,241348,probe_rating,,50,,,,2,1,,,,,,,,,,,,,
null,,confidence_buffer,241449,confidence_buffer,,null,,,,,,,,,,,,,,,,,,
1436.2000000178814,,unique_rating,242887,Solara Glen,,53,,,5,,,,,,,,,,,,,,,
null,,confidence_buffer,242988,confidence_buffer,,null,,,,,,,,,,,,,,,,,,
1331,,memorable_rating,244320,Solara Glen,,52,,,4,,,,,,,,,,,,,,,
null,,confidence_buffer,244422,confidence_buffer,,null,,,,,,,,,,,,,,,,,,
null,,thebreak,244924,break,,null,,,,,,,,,,,,,,,,,,
5676.5,,intro_0,250601,instruct,,32,,,,,,,,,,,,,,,,,,
9075.90000000596,,intro_1,259678,instruct,,32,,,,,,,,,,,,,,,,,,
13446.699999988079,,intro_2,273126,instruct,,32,,,,,,,,,,,,,,,,,,
null,,instruct_dir_4,274627,instruct,,null,,,,,,,,,,,,,,,,,,
3535.300000011921,,realistic_rating,278163,Elmsbury,,52,Elmsbury,Fictional,4,,,,,,,,,,,,,,,
null,,confidence_buffer,278265,confidence_buffer,,null,,,,,,,,,,,,,,,,,,
2181.0999999940395,,pt2_unique_rating,280447,Elmsbury,,51,,,3,,,,,,,,,,,,,,,
null,,confidence_buffer,280549,confidence_buffer,,null,,,,,,,,,,,,,,,,,,
2369.2000000178814,,pt2_memorable_rating,282920,Elmsbury,,51,,,3,,,,,,,,,,,,,,,
null,,confidence_buffer,283022,confidence_buffer,,null,,,,,,,,,,,,,,,,,,
1987.0999999940395,,recognition_phase,285010,Elmsbury,,49,,,,,,old,1,1,,,,,,,,,,
null,,confidence_buffer,285112,confidence_buffer,,null,,,,,,,,,,,,,,,,,,
null,,thebreak,285614,break,,null,,,,,,,,,,,,,,,,,,
2407.300000011921,,realistic_rating,288022,Juniper Creek,,52,Juniper Creek,Fictional,4,,,,,,,,,,,,,,,
null,,confidence_buffer,288124,confidence_buffer,,null,,,,,,,,,,,,,,,,,,
1162.199999988079,,pt2_unique_rating,289287,Juniper Creek,,49,,,1,,,,,,,,,,,,,,,
null,,confidence_buffer,289391,confidence_buffer,,null,,,,,,,,,,,,,,,,,,
1652.5999999940395,,pt2_memorable_rating,291044,Juniper Creek,,50,,,2,,,,,,,,,,,,,,,
null,,confidence_buffer,291145,confidence_buffer,,null,,,,,,,,,,,,,,,,,,
1102.0999999940395,,recognition_phase,292248,Juniper Creek,,49,,,,,,old,1,1,,,,,,,,,,
null,,confidence_buffer,292350,confidence_buffer,,null,,,,,,,,,,,,,,,,,,
null,,thebreak,292852,break,,null,,,,,,,,,,,,,,,,,,
3532.7999999821186,,realistic_rating,296386,Cornwall,,51,Cornwall,US,3,,,,,,,,,,,,,,,
null,,confidence_buffer,296488,confidence_buffer,,null,,,,,,,,,,,,,,,,,,
2091.600000023842,,pt2_unique_rating,298581,Cornwall,,50,,,2,,,,,,,,,,,,,,,
null,,confidence_buffer,298683,confidence_buffer,,null,,,,,,,,,,,,,,,,,,
1541.300000011921,,pt2_memorable_rating,300225,Cornwall,,50,,,2,,,,,,,,,,,,,,,
null,,confidence_buffer,300326,confidence_buffer,,null,,,,,,,,,,,,,,,,,,
3143.4000000059605,,probe_rating,303470,probe_rating,,52,,,,4,1,,,,,,,,,,,,,
null,,confidence_buffer,303572,confidence_buffer,,null,,,,,,,,,,,,,,,,,,
3737.899999976158,,recognition_phase,307311,Cornwall,,52,,,,,,new,1,1,,,,,,,,,,
null,,confidence_buffer,307413,confidence_buffer,,null,,,,,,,,,,,,,,,,,,
null,,thebreak,307916,break,,null,,,,,,,,,,,,,,,,,,
2851.5999999940395,,realistic_rating,310769,Athens,,53,Athens,US,5,,,,,,,,,,,,,,,
null,,confidence_buffer,310872,confidence_buffer,,null,,,,,,,,,,,,,,,,,,
1578.7999999821186,,pt2_unique_rating,312452,Athens,,53,,,5,,,,,,,,,,,,,,,
null,,confidence_buffer,312554,confidence_buffer,,null,,,,,,,,,,,,,,,,,,
957.1999999880791,,pt2_memorable_rating,313512,Athens,,53,,,5,,,,,,,,,,,,,,,
null,,confidence_buffer,313614,confidence_buffer,,null,,,,,,,,,,,,,,,,,,
2131.199999988079,,recognition_phase,315746,Athens,,52,,,,,,new,1,1,,,,,,,,,,
null,,confidence_buffer,315848,confidence_buffer,,null,,,,,,,,,,,,,,,,,,
null,,thebreak,316350,break,,null,,,,,,,,,,,,,,,,,,
3087.9000000059605,,realistic_rating,319438,Delaware City,,53,Delaware City,US,5,,,,,,,,,,,,,,,
null,,confidence_buffer,319542,confidence_buffer,,null,,,,,,,,,,,,,,,,,,
1081.699999988079,,pt2_unique_rating,320624,Delaware City,,49,,,1,,,,,,,,,,,,,,,
null,,confidence_buffer,320726,confidence_buffer,,null,,,,,,,,,,,,,,,,,,
998.2000000178814,,pt2_memorable_rating,321725,Delaware City,,49,,,1,,,,,,,,,,,,,,,
null,,confidence_buffer,321827,confidence_buffer,,null,,,,,,,,,,,,,,,,,,
1275.1000000238419,,recognition_phase,323103,Delaware City,,49,,,,,,old,1,1,,,,,,,,,,
null,,confidence_buffer,323206,confidence_buffer,,null,,,,,,,,,,,,,,,,,,
null,,thebreak,323708,break,,null,,,,,,,,,,,,,,,,,,
2897.9000000059605,,realistic_rating,326607,Summershade,,53,Summershade,Fictional,5,,,,,,,,,,,,,,,
null,,confidence_buffer,326708,confidence_buffer,,null,,,,,,,,,,,,,,,,,,
1540.9000000059605,,pt2_unique_rating,328251,Summershade,,52,,,4,,,,,,,,,,,,,,,
null,,confidence_buffer,328352,confidence_buffer,,null,,,,,,,,,,,,,,,,,,
1966.9000000059605,,pt2_memorable_rating,330320,Summershade,,52,,,4,,,,,,,,,,,,,,,
null,,confidence_buffer,330422,confidence_buffer,,null,,,,,,,,,,,,,,,,,,
2986.100000023842,,recognition_phase,333409,Summershade,,49,,,,,,old,1,1,,,,,,,,,,
null,,confidence_buffer,333512,confidence_buffer,,null,,,,,,,,,,,,,,,,,,
null,,thebreak,334013,break,,null,,,,,,,,,,,,,,,,,,
3079.5,,realistic_rating,337094,Maravilla Springs,,51,Maravilla Springs,Fictional,3,,,,,,,,,,,,,,,
null,,confidence_buffer,337196,confidence_buffer,,null,,,,,,,,,,,,,,,,,,
1053.300000011921,,pt2_unique_rating,338250,Maravilla Springs,,51,,,3,,,,,,,,,,,,,,,
null,,confidence_buffer,338353,confidence_buffer,,null,,,,,,,,,,,,,,,,,,
1006,,pt2_memorable_rating,339360,Maravilla Springs,,51,,,3,,,,,,,,,,,,,,,
null,,confidence_buffer,339476,confidence_buffer,,null,,,,,,,,,,,,,,,,,,
1590.5,,recognition_phase,341068,Maravilla Springs,,52,,,,,,new,1,1,,,,,,,,,,
null,,confidence_buffer,341169,confidence_buffer,,null,,,,,,,,,,,,,,,,,,
null,,thebreak,341671,break,,null,,,,,,,,,,,,,,,,,,
4288.200000017881,,realistic_rating,345960,Northbridge,,52,Northbridge,Fictional,4,,,,,,,,,,,,,,,
null,,confidence_buffer,346062,confidence_buffer,,null,,,,,,,,,,,,,,,,,,
1582.7999999821186,,pt2_unique_rating,347645,Northbridge,,49,,,1,,,,,,,,,,,,,,,
null,,confidence_buffer,347746,confidence_buffer,,null,,,,,,,,,,,,,,,,,,
725,,pt2_memorable_rating,348472,Northbridge,,49,,,1,,,,,,,,,,,,,,,
null,,confidence_buffer,348574,confidence_buffer,,null,,,,,,,,,,,,,,,,,,
2131.5,,recognition_phase,350707,Northbridge,,51,,,,,,new,1,1,,,,,,,,,,
null,,confidence_buffer,350809,confidence_buffer,,null,,,,,,,,,,,,,,,,,,
null,,thebreak,351311,break,,null,,,,,,,,,,,,,,,,,,
2583.5,,realistic_rating,353895,West Talora,,51,West Talora,Fictional,3,,,,,,,,,,,,,,,
null,,confidence_buffer,353997,confidence_buffer,,null,,,,,,,,,,,,,,,,,,
1190.2999999821186,,pt2_unique_rating,355188,West Talora,,51,,,3,,,,,,,,,,,,,,,
null,,confidence_buffer,355291,confidence_buffer,,null,,,,,,,,,,,,,,,,,,
934.8999999761581,,pt2_memorable_rating,356227,West Talora,,51,,,3,,,,,,,,,,,,,,,
null,,confidence_buffer,356329,confidence_buffer,,null,,,,,,,,,,,,,,,,,,
2828.199999988079,,recognition_phase,359159,West Talora,,49,,,,,,old,1,1,,,,,,,,,,
null,,confidence_buffer,359261,confidence_buffer,,null,,,,,,,,,,,,,,,,,,
null,,thebreak,359763,break,,null,,,,,,,,,,,,,,,,,,
2038.7999999821186,,realistic_rating,361803,Duck,,49,Duck,US,1,,,,,,,,,,,,,,,
null,,confidence_buffer,361904,confidence_buffer,,null,,,,,,,,,,,,,,,,,,
3229.4000000059605,,pt2_unique_rating,365135,Duck,,50,,,2,,,,,,,,,,,,,,,
null,,confidence_buffer,365237,confidence_buffer,,null,,,,,,,,,,,,,,,,,,
1756.9000000059605,,pt2_memorable_rating,366995,Duck,,51,,,3,,,,,,,,,,,,,,,
null,,confidence_buffer,367097,confidence_buffer,,null,,,,,,,,,,,,,,,,,,
1916.800000011921,,recognition_phase,369014,Duck,,52,,,,,,new,1,1,,,,,,,,,,
null,,confidence_buffer,369116,confidence_buffer,,null,,,,,,,,,,,,,,,,,,
null,,thebreak,369616,break,,null,,,,,,,,,,,,,,,,,,
3128.100000023842,,realistic_rating,372746,Lake of the Ozarks,,51,Lake of the Ozarks,US,3,,,,,,,,,,,,,,,
null,,confidence_buffer,372847,confidence_buffer,,null,,,,,,,,,,,,,,,,,,
1013.3000000119209,,pt2_unique_rating,373862,Lake of the Ozarks,,53,,,5,,,,,,,,,,,,,,,
null,,confidence_buffer,373964,confidence_buffer,,null,,,,,,,,,,,,,,,,,,
987,,pt2_memorable_rating,374952,Lake of the Ozarks,,53,,,5,,,,,,,,,,,,,,,
null,,confidence_buffer,375054,confidence_buffer,,null,,,,,,,,,,,,,,,,,,
1432.9000000059605,,recognition_phase,376489,Lake of the Ozarks,,52,,,,,,new,1,1,,,,,,,,,,
null,,confidence_buffer,376598,confidence_buffer,,null,,,,,,,,,,,,,,,,,,
null,,thebreak,377100,break,,null,,,,,,,,,,,,,,,,,,
1314.9000000059605,,realistic_rating,378416,San Antonio,,53,San Antonio,US,5,,,,,,,,,,,,,,,
null,,confidence_buffer,378517,confidence_buffer,,null,,,,,,,,,,,,,,,,,,
1159.5,,pt2_unique_rating,379678,San Antonio,,53,,,5,,,,,,,,,,,,,,,
null,,confidence_buffer,379779,confidence_buffer,,null,,,,,,,,,,,,,,,,,,
1699.5,,probe_rating,381479,probe_rating,,52,,,,4,1,,,,,,,,,,,,,
null,,confidence_buffer,381582,confidence_buffer,,null,,,,,,,,,,,,,,,,,,
1222.699999988079,,pt2_memorable_rating,382806,San Antonio,,53,,,5,,,,,,,,,,,,,,,
null,,confidence_buffer,382907,confidence_buffer,,null,,,,,,,,,,,,,,,,,,
1120.3999999761581,,recognition_phase,384029,San Antonio,,49,,,,,,old,1,1,,,,,,,,,,
null,,confidence_buffer,384132,confidence_buffer,,null,,,,,,,,,,,,,,,,,,
null,,thebreak,384633,break,,null,,,,,,,,,,,,,,,,,,
2149.7999999821186,,realistic_rating,386784,Delaro Park,,51,Delaro Park,Fictional,3,,,,,,,,,,,,,,,
null,,confidence_buffer,386886,confidence_buffer,,null,,,,,,,,,,,,,,,,,,
1093.699999988079,,pt2_unique_rating,387981,Delaro Park,,52,,,4,,,,,,,,,,,,,,,
null,,confidence_buffer,388083,confidence_buffer,,null,,,,,,,,,,,,,,,,,,
1164.5,,pt2_memorable_rating,389249,Delaro Park,,51,,,3,,,,,,,,,,,,,,,
null,,confidence_buffer,389352,confidence_buffer,,null,,,,,,,,,,,,,,,,,,
2372.899999976158,,recognition_phase,391726,Delaro Park,,52,,,,,,new,1,1,,,,,,,,,,
null,,confidence_buffer,391827,confidence_buffer,,null,,,,,,,,,,,,,,,,,,
null,,thebreak,392329,break,,null,,,,,,,,,,,,,,,,,,
2980.699999988079,,realistic_rating,395311,Sitka,,50,Sitka,US,2,,,,,,,,,,,,,,,
null,,confidence_buffer,395414,confidence_buffer,,null,,,,,,,,,,,,,,,,,,
1693.7999999821186,,pt2_unique_rating,397108,Sitka,,52,,,4,,,,,,,,,,,,,,,
null,,confidence_buffer,397211,confidence_buffer,,null,,,,,,,,,,,,,,,,,,
1070,,pt2_memorable_rating,398282,Sitka,,51,,,3,,,,,,,,,,,,,,,
null,,confidence_buffer,398396,confidence_buffer,,null,,,,,,,,,,,,,,,,,,
1186.7999999821186,,recognition_phase,399584,Sitka,,49,,,,,,old,1,1,,,,,,,,,,
null,,confidence_buffer,399686,confidence_buffer,,null,,,,,,,,,,,,,,,,,,
null,,thebreak,400188,break,,null,,,,,,,,,,,,,,,,,,
2604.5,,realistic_rating,402793,Watkins Glen,,53,Watkins Glen,US,5,,,,,,,,,,,,,,,
null,,confidence_buffer,402896,confidence_buffer,,null,,,,,,,,,,,,,,,,,,
1691.4000000059605,,pt2_unique_rating,404588,Watkins Glen,,52,,,4,,,,,,,,,,,,,,,
null,,confidence_buffer,404704,confidence_buffer,,null,,,,,,,,,,,,,,,,,,
1056.4000000059605,,pt2_memorable_rating,405762,Watkins Glen,,52,,,4,,,,,,,,,,,,,,,
null,,confidence_buffer,405864,confidence_buffer,,null,,,,,,,,,,,,,,,,,,
1112.5999999940395,,recognition_phase,406978,Watkins Glen,,49,,,,,,old,1,1,,,,,,,,,,
null,,confidence_buffer,407081,confidence_buffer,,null,,,,,,,,,,,,,,,,,,
null,,thebreak,407583,break,,null,,,,,,,,,,,,,,,,,,
1881.2000000178814,,realistic_rating,409465,Cape May,,50,Cape May,US,2,,,,,,,,,,,,,,,
null,,confidence_buffer,409566,confidence_buffer,,null,,,,,,,,,,,,,,,,,,
1209,,pt2_unique_rating,410777,Cape May,,52,,,4,,,,,,,,,,,,,,,
null,,confidence_buffer,410893,confidence_buffer,,null,,,,,,,,,,,,,,,,,,
1145.0999999940395,,pt2_memorable_rating,412039,Cape May,,51,,,3,,,,,,,,,,,,,,,
null,,confidence_buffer,412141,confidence_buffer,,null,,,,,,,,,,,,,,,,,,
1976,,recognition_phase,414118,Cape May,,52,,,,,,new,1,1,,,,,,,,,,
null,,confidence_buffer,414221,confidence_buffer,,null,,,,,,,,,,,,,,,,,,
null,,thebreak,414723,break,,null,,,,,,,,,,,,,,,,,,
2742.7999999821186,,realistic_rating,417467,New Verdan,,50,New Verdan,Fictional,2,,,,,,,,,,,,,,,
null,,confidence_buffer,417569,confidence_buffer,,null,,,,,,,,,,,,,,,,,,
1159.7000000178814,,pt2_unique_rating,418730,New Verdan,,52,,,4,,,,,,,,,,,,,,,
null,,confidence_buffer,418832,confidence_buffer,,null,,,,,,,,,,,,,,,,,,
1099.5999999940395,,pt2_memorable_rating,419933,New Verdan,,52,,,4,,,,,,,,,,,,,,,
null,,confidence_buffer,420034,confidence_buffer,,null,,,,,,,,,,,,,,,,,,
1073.699999988079,,recognition_phase,421110,New Verdan,,49,,,,,,old,1,1,,,,,,,,,,
null,,confidence_buffer,421212,confidence_buffer,,null,,,,,,,,,,,,,,,,,,
null,,thebreak,421712,break,,null,,,,,,,,,,,,,,,,,,
1937.699999988079,,realistic_rating,423651,Bisbee,,51,Bisbee,US,3,,,,,,,,,,,,,,,
null,,confidence_buffer,423752,confidence_buffer,,null,,,,,,,,,,,,,,,,,,
2340,,pt2_unique_rating,426093,Bisbee,,50,,,2,,,,,,,,,,,,,,,
null,,confidence_buffer,426195,confidence_buffer,,null,,,,,,,,,,,,,,,,,,
921.0999999940395,,pt2_memorable_rating,427117,Bisbee,,50,,,2,,,,,,,,,,,,,,,
null,,confidence_buffer,427223,confidence_buffer,,null,,,,,,,,,,,,,,,,,,
1042.3999999761581,,recognition_phase,428266,Bisbee,,49,,,,,,old,1,1,,,,,,,,,,
null,,confidence_buffer,428368,confidence_buffer,,null,,,,,,,,,,,,,,,,,,
null,,thebreak,428869,break,,null,,,,,,,,,,,,,,,,,,
3051.899999976158,,realistic_rating,431923,Albuquerque,,52,Albuquerque,US,4,,,,,,,,,,,,,,,
null,,confidence_buffer,432024,confidence_buffer,,null,,,,,,,,,,,,,,,,,,
1479.300000011921,,pt2_unique_rating,433504,Albuquerque,,52,,,4,,,,,,,,,,,,,,,
null,,confidence_buffer,433607,confidence_buffer,,null,,,,,,,,,,,,,,,,,,
991.2000000178814,,pt2_memorable_rating,434599,Albuquerque,,52,,,4,,,,,,,,,,,,,,,
null,,confidence_buffer,434702,confidence_buffer,,null,,,,,,,,,,,,,,,,,,
1386.1000000238419,,recognition_phase,436089,Albuquerque,,52,,,,,,new,1,1,,,,,,,,,,
null,,confidence_buffer,436191,confidence_buffer,,null,,,,,,,,,,,,,,,,,,
null,,thebreak,436692,break,,null,,,,,,,,,,,,,,,,,,
4013.2999999821186,,realistic_rating,440707,Hawthorne Bluffs,,52,Hawthorne Bluffs,Fictional,4,,,,,,,,,,,,,,,
null,,confidence_buffer,440808,confidence_buffer,,null,,,,,,,,,,,,,,,,,,
1237.699999988079,,pt2_unique_rating,442047,Hawthorne Bluffs,,53,,,5,,,,,,,,,,,,,,,
null,,confidence_buffer,442148,confidence_buffer,,null,,,,,,,,,,,,,,,,,,
1218.3999999761581,,pt2_memorable_rating,443368,Hawthorne Bluffs,,53,,,5,,,,,,,,,,,,,,,
null,,confidence_buffer,443481,confidence_buffer,,null,,,,,,,,,,,,,,,,,,
1385.3999999761581,,recognition_phase,444868,Hawthorne Bluffs,,52,,,,,,new,1,1,,,,,,,,,,
null,,confidence_buffer,444972,confidence_buffer,,null,,,,,,,,,,,,,,,,,,
null,,thebreak,445473,break,,null,,,,,,,,,,,,,,,,,,
8914.09999999404,,realistic_rating,454388,Sammamish,,49,Sammamish,US,1,,,,,,,,,,,,,,,
null,,confidence_buffer,454491,confidence_buffer,,null,,,,,,,,,,,,,,,,,,
704.5999999940395,,pt2_unique_rating,455196,Sammamish,,52,,,4,,,,,,,,,,,,,,,
null,,confidence_buffer,455298,confidence_buffer,,null,,,,,,,,,,,,,,,,,,
1504.5999999940395,,pt2_memorable_rating,456804,Sammamish,,52,,,4,,,,,,,,,,,,,,,
null,,confidence_buffer,456907,confidence_buffer,,null,,,,,,,,,,,,,,,,,,
3825.800000011921,,recognition_phase,460734,Sammamish,,52,,,,,,new,1,1,,,,,,,,,,
null,,confidence_buffer,460836,confidence_buffer,,null,,,,,,,,,,,,,,,,,,
null,,thebreak,461337,break,,null,,,,,,,,,,,,,,,,,,
10859.90000000596,,realistic_rating,472198,Natchez,,50,Natchez,US,2,,,,,,,,,,,,,,,
null,,confidence_buffer,472300,confidence_buffer,,null,,,,,,,,,,,,,,,,,,
1118.7000000178814,,pt2_unique_rating,473419,Natchez,,51,,,3,,,,,,,,,,,,,,,
null,,confidence_buffer,473522,confidence_buffer,,null,,,,,,,,,,,,,,,,,,
3006.100000023842,,pt2_memorable_rating,476529,Natchez,,51,,,3,,,,,,,,,,,,,,,
null,,confidence_buffer,476631,confidence_buffer,,null,,,,,,,,,,,,,,,,,,
1109.800000011921,,recognition_phase,477742,Natchez,,49,,,,,,old,1,1,,,,,,,,,,
null,,confidence_buffer,477845,confidence_buffer,,null,,,,,,,,,,,,,,,,,,
null,,thebreak,478346,break,,null,,,,,,,,,,,,,,,,,,
2428.7999999821186,,realistic_rating,480777,Hollendale,,52,Hollendale,Fictional,4,,,,,,,,,,,,,,,
null,,confidence_buffer,480878,confidence_buffer,,null,,,,,,,,,,,,,,,,,,
1094.5,,pt2_unique_rating,481974,Hollendale,,49,,,1,,,,,,,,,,,,,,,
null,,confidence_buffer,482076,confidence_buffer,,null,,,,,,,,,,,,,,,,,,
1177.7999999821186,,pt2_memorable_rating,483254,Hollendale,,51,,,3,,,,,,,,,,,,,,,
null,,confidence_buffer,483356,confidence_buffer,,null,,,,,,,,,,,,,,,,,,
924.5,,recognition_phase,484282,Hollendale,,52,,,,,,new,1,1,,,,,,,,,,
null,,confidence_buffer,484385,confidence_buffer,,null,,,,,,,,,,,,,,,,,,
null,,thebreak,484887,break,,null,,,,,,,,,,,,,,,,,,
2979.5,,realistic_rating,487868,Montelake,,50,Montelake,Fictional,2,,,,,,,,,,,,,,,
null,,confidence_buffer,487970,confidence_buffer,,null,,,,,,,,,,,,,,,,,,
1055.7999999821186,,pt2_unique_rating,489027,Montelake,,51,,,3,,,,,,,,,,,,,,,
null,,confidence_buffer,489128,confidence_buffer,,null,,,,,,,,,,,,,,,,,,
735.8999999761581,,pt2_memorable_rating,489865,Montelake,,50,,,2,,,,,,,,,,,,,,,
null,,confidence_buffer,489967,confidence_buffer,,null,,,,,,,,,,,,,,,,,,
1188.199999988079,,recognition_phase,491156,Montelake,,52,,,,,,new,1,1,,,,,,,,,,
null,,confidence_buffer,491258,confidence_buffer,,null,,,,,,,,,,,,,,,,,,
null,,thebreak,491761,break,,null,,,,,,,,,,,,,,,,,,
1931.5,,realistic_rating,493693,Hot Springs,,53,Hot Springs,US,5,,,,,,,,,,,,,,,
null,,confidence_buffer,493795,confidence_buffer,,null,,,,,,,,,,,,,,,,,,
1033.0999999940395,,pt2_unique_rating,494829,Hot Springs,,49,,,1,,,,,,,,,,,,,,,
null,,confidence_buffer,494931,confidence_buffer,,null,,,,,,,,,,,,,,,,,,
1216.699999988079,,probe_rating,496149,probe_rating,,50,,,,2,1,,,,,,,,,,,,,
null,,confidence_buffer,496252,confidence_buffer,,null,,,,,,,,,,,,,,,,,,
3613.2000000178814,,pt2_memorable_rating,499866,Hot Springs,,51,,,3,,,,,,,,,,,,,,,
null,,confidence_buffer,499968,confidence_buffer,,null,,,,,,,,,,,,,,,,,,
978,,recognition_phase,500948,Hot Springs,,52,,,,,,new,1,1,,,,,,,,,,
null,,confidence_buffer,501059,confidence_buffer,,null,,,,,,,,,,,,,,,,,,
null,,thebreak,501560,break,,null,,,,,,,,,,,,,,,,,,
2046.699999988079,,realistic_rating,503608,Maplehurst,,52,Maplehurst,Fictional,4,,,,,,,,,,,,,,,
null,,confidence_buffer,503711,confidence_buffer,,null,,,,,,,,,,,,,,,,,,
787.6999999880791,,pt2_unique_rating,504500,Maplehurst,,52,,,4,,,,,,,,,,,,,,,
null,,confidence_buffer,504601,confidence_buffer,,null,,,,,,,,,,,,,,,,,,
1050.9000000059605,,pt2_memorable_rating,505653,Maplehurst,,51,,,3,,,,,,,,,,,,,,,
null,,confidence_buffer,505755,confidence_buffer,,null,,,,,,,,,,,,,,,,,,
1249.0999999940395,,recognition_phase,507005,Maplehurst,,52,,,,,,new,1,1,,,,,,,,,,
null,,confidence_buffer,507108,confidence_buffer,,null,,,,,,,,,,,,,,,,,,
null,,thebreak,507610,break,,null,,,,,,,,,,,,,,,,,,
1235.5,,realistic_rating,508847,Abilene,,53,Abilene,US,5,,,,,,,,,,,,,,,
null,,confidence_buffer,508961,confidence_buffer,,null,,,,,,,,,,,,,,,,,,
1609.4000000059605,,pt2_unique_rating,510572,Abilene,,53,,,5,,,,,,,,,,,,,,,
null,,confidence_buffer,510674,confidence_buffer,,null,,,,,,,,,,,,,,,,,,
844.6999999880791,,pt2_memorable_rating,511519,Abilene,,53,,,5,,,,,,,,,,,,,,,
null,,confidence_buffer,511621,confidence_buffer,,null,,,,,,,,,,,,,,,,,,
1385.1000000238419,,recognition_phase,513007,Abilene,,52,,,,,,new,1,1,,,,,,,,,,
null,,confidence_buffer,513110,confidence_buffer,,null,,,,,,,,,,,,,,,,,,
null,,thebreak,513613,break,,null,,,,,,,,,,,,,,,,,,
1963.0999999940395,,realistic_rating,515577,Gatlinburg,,53,Gatlinburg,US,5,,,,,,,,,,,,,,,
null,,confidence_buffer,515679,confidence_buffer,,null,,,,,,,,,,,,,,,,,,
1264.2000000178814,,pt2_unique_rating,516945,Gatlinburg,,52,,,4,,,,,,,,,,,,,,,
null,,confidence_buffer,517046,confidence_buffer,,null,,,,,,,,,,,,,,,,,,
1071.300000011921,,pt2_memorable_rating,518119,Gatlinburg,,53,,,5,,,,,,,,,,,,,,,
null,,confidence_buffer,518222,confidence_buffer,,null,,,,,,,,,,,,,,,,,,
1083.8999999761581,,recognition_phase,519307,Gatlinburg,,49,,,,,,old,1,1,,,,,,,,,,
null,,confidence_buffer,519408,confidence_buffer,,null,,,,,,,,,,,,,,,,,,
null,,thebreak,519911,break,,null,,,,,,,,,,,,,,,,,,
2078.300000011921,,realistic_rating,521990,Riverlyn,,52,Riverlyn,Fictional,4,,,,,,,,,,,,,,,
null,,confidence_buffer,522092,confidence_buffer,,null,,,,,,,,,,,,,,,,,,
1137.199999988079,,pt2_unique_rating,523230,Riverlyn,,52,,,4,,,,,,,,,,,,,,,
null,,confidence_buffer,523333,confidence_buffer,,null,,,,,,,,,,,,,,,,,,
1073.300000011921,,pt2_memorable_rating,524407,Riverlyn,,51,,,3,,,,,,,,,,,,,,,
null,,confidence_buffer,524518,confidence_buffer,,null,,,,,,,,,,,,,,,,,,
1509.9000000059605,,recognition_phase,526030,Riverlyn,,49,,,,,,old,1,1,,,,,,,,,,
null,,confidence_buffer,526132,confidence_buffer,,null,,,,,,,,,,,,,,,,,,
null,,thebreak,526634,break,,null,,,,,,,,,,,,,,,,,,
1645.0999999940395,,realistic_rating,528280,Baymarsh,,53,Baymarsh,Fictional,5,,,,,,,,,,,,,,,
null,,confidence_buffer,528382,confidence_buffer,,null,,,,,,,,,,,,,,,,,,
3902.2999999821186,,pt2_unique_rating,532285,Baymarsh,,53,,,5,,,,,,,,,,,,,,,
null,,confidence_buffer,532386,confidence_buffer,,null,,,,,,,,,,,,,,,,,,
1424.3999999761581,,pt2_memorable_rating,533812,Baymarsh,,52,,,4,,,,,,,,,,,,,,,
null,,confidence_buffer,533915,confidence_buffer,,null,,,,,,,,,,,,,,,,,,
596.2999999821186,,recognition_phase,534512,Baymarsh,,49,,,,,,old,1,1,,,,,,,,,,
null,,confidence_buffer,534615,confidence_buffer,,null,,,,,,,,,,,,,,,,,,
null,,thebreak,535116,break,,null,,,,,,,,,,,,,,,,,,
1441.9000000059605,,realistic_rating,536559,Newport,,53,Newport,US,5,,,,,,,,,,,,,,,
null,,confidence_buffer,536663,confidence_buffer,,null,,,,,,,,,,,,,,,,,,
2409.4000000059605,,pt2_unique_rating,539073,Newport,,50,,,2,,,,,,,,,,,,,,,
null,,confidence_buffer,539175,confidence_buffer,,null,,,,,,,,,,,,,,,,,,
959.5999999940395,,pt2_memorable_rating,540136,Newport,,51,,,3,,,,,,,,,,,,,,,
null,,confidence_buffer,540238,confidence_buffer,,null,,,,,,,,,,,,,,,,,,
988.1000000238419,,recognition_phase,541228,Newport,,49,,,,,,old,1,1,,,,,,,,,,
null,,confidence_buffer,541342,confidence_buffer,,null,,,,,,,,,,,,,,,,,,
null,,thebreak,541844,break,,null,,,,,,,,,,,,,,,,,,
2102.399999976158,,realistic_rating,543947,Driftwood Bay,,51,Driftwood Bay,Fictional,3,,,,,,,,,,,,,,,
null,,confidence_buffer,544049,confidence_buffer,,null,,,,,,,,,,,,,,,,,,
1921.2000000178814,,pt2_unique_rating,545971,Driftwood Bay,,50,,,2,,,,,,,,,,,,,,,
null,,confidence_buffer,546073,confidence_buffer,,null,,,,,,,,,,,,,,,,,,
1768.2000000178814,,pt2_memorable_rating,547842,Driftwood Bay,,50,,,2,,,,,,,,,,,,,,,
null,,confidence_buffer,547944,confidence_buffer,,null,,,,,,,,,,,,,,,,,,
2006,,recognition_phase,549951,Driftwood Bay,,50,,,,,,old,0,0.96875,,,,,,,,,,
null,,confidence_buffer,550052,confidence_buffer,,null,,,,,,,,,,,,,,,,,,
null,,thebreak,550553,break,,null,,,,,,,,,,,,,,,,,,
2110.9000000059605,,realistic_rating,552665,Highvale,,53,Highvale,Fictional,5,,,,,,,,,,,,,,,
null,,confidence_buffer,552767,confidence_buffer,,null,,,,,,,,,,,,,,,,,,
2649.699999988079,,pt2_unique_rating,555418,Highvale,,51,,,3,,,,,,,,,,,,,,,
null,,confidence_buffer,555521,confidence_buffer,,null,,,,,,,,,,,,,,,,,,
1061.5,,probe_rating,556583,probe_rating,,50,,,,2,1,,,,,,,,,,,,,
null,,confidence_buffer,556685,confidence_buffer,,null,,,,,,,,,,,,,,,,,,
2460.4000000059605,,pt2_memorable_rating,559146,Highvale,,50,,,2,,,,,,,,,,,,,,,
null,,confidence_buffer,559248,confidence_buffer,,null,,,,,,,,,,,,,,,,,,
1393.699999988079,,recognition_phase,560643,Highvale,,49,,,,,,old,1,0.9696969696969697,,,,,,,,,,
null,,confidence_buffer,560745,confidence_buffer,,null,,,,,,,,,,,,,,,,,,
null,,thebreak,561246,break,,null,,,,,,,,,,,,,,,,,,
5048.5999999940395,,realistic_rating,566296,Folly Beach,,52,Folly Beach,US,4,,,,,,,,,,,,,,,
null,,confidence_buffer,566398,confidence_buffer,,null,,,,,,,,,,,,,,,,,,
10901.09999999404,,pt2_unique_rating,577300,Folly Beach,,50,,,2,,,,,,,,,,,,,,,
null,,confidence_buffer,577407,confidence_buffer,,null,,,,,,,,,,,,,,,,,,
11516,,pt2_memorable_rating,588925,Folly Beach,,50,,,2,,,,,,,,,,,,,,,
null,,confidence_buffer,589026,confidence_buffer,,null,,,,,,,,,,,,,,,,,,
1447.7000000178814,,recognition_phase,590475,Folly Beach,,51,,,,,,new,1,0.9705882352941176,,,,,,,,,,
null,,confidence_buffer,590577,confidence_buffer,,null,,,,,,,,,,,,,,,,,,
null,,thebreak,591078,break,,null,,,,,,,,,,,,,,,,,,
1809.2999999821186,,realistic_rating,592889,Claywater,,51,Claywater,Fictional,3,,,,,,,,,,,,,,,
null,,confidence_buffer,592992,confidence_buffer,,null,,,,,,,,,,,,,,,,,,
3838.0999999940395,,pt2_unique_rating,596831,Claywater,,51,,,3,,,,,,,,,,,,,,,
null,,confidence_buffer,596933,confidence_buffer,,null,,,,,,,,,,,,,,,,,,
1651.2999999821186,,pt2_memorable_rating,598585,Claywater,,51,,,3,,,,,,,,,,,,,,,
null,,confidence_buffer,598687,confidence_buffer,,null,,,,,,,,,,,,,,,,,,
1072.800000011921,,recognition_phase,599761,Claywater,,49,,,,,,old,1,0.9714285714285714,,,,,,,,,,
null,,confidence_buffer,599863,confidence_buffer,,null,,,,,,,,,,,,,,,,,,
null,,thebreak,600368,break,,null,,,,,,,,,,,,,,,,,,
1787.199999988079,,realistic_rating,602156,Hilo,,50,Hilo,US,2,,,,,,,,,,,,,,,
null,,confidence_buffer,602259,confidence_buffer,,null,,,,,,,,,,,,,,,,,,
1251.2999999821186,,pt2_unique_rating,603512,Hilo,,52,,,4,,,,,,,,,,,,,,,
null,,confidence_buffer,603615,confidence_buffer,,null,,,,,,,,,,,,,,,,,,
1071,,pt2_memorable_rating,604687,Hilo,,51,,,3,,,,,,,,,,,,,,,
null,,confidence_buffer,604788,confidence_buffer,,null,,,,,,,,,,,,,,,,,,
726.5999999940395,,recognition_phase,605517,Hilo,,52,,,,,,new,1,0.9722222222222222,,,,,,,,,,
null,,confidence_buffer,605618,confidence_buffer,,null,,,,,,,,,,,,,,,,,,
null,,thebreak,606120,break,,null,,,,,,,,,,,,,,,,,,
2020.199999988079,,realistic_rating,608141,Ashford Hills,,53,Ashford Hills,Fictional,5,,,,,,,,,,,,,,,
null,,confidence_buffer,608243,confidence_buffer,,null,,,,,,,,,,,,,,,,,,
2084.699999988079,,pt2_unique_rating,610328,Ashford Hills,,50,,,2,,,,,,,,,,,,,,,
null,,confidence_buffer,610431,confidence_buffer,,null,,,,,,,,,,,,,,,,,,
3344.7999999821186,,pt2_memorable_rating,613777,Ashford Hills,,52,,,4,,,,,,,,,,,,,,,
null,,confidence_buffer,613879,confidence_buffer,,null,,,,,,,,,,,,,,,,,,
2814.300000011921,,recognition_phase,616694,Ashford Hills,,52,,,,,,new,1,0.972972972972973,,,,,,,,,,
null,,confidence_buffer,616796,confidence_buffer,,null,,,,,,,,,,,,,,,,,,
null,,thebreak,617297,break,,null,,,,,,,,,,,,,,,,,,
4668.699999988079,,realistic_rating,621967,Racine,,50,Racine,US,2,,,,,,,,,,,,,,,
null,,confidence_buffer,622074,confidence_buffer,,null,,,,,,,,,,,,,,,,,,
1510.699999988079,,pt2_unique_rating,623586,Racine,,51,,,3,,,,,,,,,,,,,,,
null,,confidence_buffer,623688,confidence_buffer,,null,,,,,,,,,,,,,,,,,,
1094.4000000059605,,pt2_memorable_rating,624784,Racine,,50,,,2,,,,,,,,,,,,,,,
null,,confidence_buffer,624886,confidence_buffer,,null,,,,,,,,,,,,,,,,,,
1881.699999988079,,recognition_phase,626770,Racine,,49,,,,,,old,1,0.9736842105263158,,,,,,,,,,
null,,confidence_buffer,626872,confidence_buffer,,null,,,,,,,,,,,,,,,,,,
null,,thebreak,627374,break,,null,,,,,,,,,,,,,,,,,,
4824.300000011921,,realistic_rating,632199,Assateague Island,,50,Assateague Island,US,2,,,,,,,,,,,,,,,
null,,confidence_buffer,632302,confidence_buffer,,null,,,,,,,,,,,,,,,,,,
761.2000000178814,,pt2_unique_rating,633064,Assateague Island,,52,,,4,,,,,,,,,,,,,,,
null,,confidence_buffer,633166,confidence_buffer,,null,,,,,,,,,,,,,,,,,,
2161,,pt2_memorable_rating,635328,Assateague Island,,53,,,5,,,,,,,,,,,,,,,
null,,confidence_buffer,635433,confidence_buffer,,null,,,,,,,,,,,,,,,,,,
2118.300000011921,,recognition_phase,637553,Assateague Island,,51,,,,,,new,1,0.9743589743589743,,,,,,,,,,
null,,confidence_buffer,637654,confidence_buffer,,null,,,,,,,,,,,,,,,,,,
null,,thebreak,638155,break,,null,,,,,,,,,,,,,,,,,,
1922.0999999940395,,realistic_rating,640079,Park City,,52,Park City,US,4,,,,,,,,,,,,,,,
null,,confidence_buffer,640182,confidence_buffer,,null,,,,,,,,,,,,,,,,,,
888.0999999940395,,pt2_unique_rating,641071,Park City,,49,,,1,,,,,,,,,,,,,,,
null,,confidence_buffer,641173,confidence_buffer,,null,,,,,,,,,,,,,,,,,,
625.2000000178814,,pt2_memorable_rating,641799,Park City,,49,,,1,,,,,,,,,,,,,,,
null,,confidence_buffer,641901,confidence_buffer,,null,,,,,,,,,,,,,,,,,,
1591.800000011921,,recognition_phase,643494,Park City,,49,,,,,,old,1,0.975,,,,,,,,,,
null,,confidence_buffer,643596,confidence_buffer,,null,,,,,,,,,,,,,,,,,,
null,,thebreak,644098,break,,null,,,,,,,,,,,,,,,,,,
1534.9000000059605,,realistic_rating,645634,Hanover,,52,Hanover,US,4,,,,,,,,,,,,,,,
null,,confidence_buffer,645735,confidence_buffer,,null,,,,,,,,,,,,,,,,,,
3159.7000000178814,,pt2_unique_rating,648896,Hanover,,51,,,3,,,,,,,,,,,,,,,
null,,confidence_buffer,649000,confidence_buffer,,null,,,,,,,,,,,,,,,,,,
846.5,,pt2_memorable_rating,649847,Hanover,,53,,,5,,,,,,,,,,,,,,,
null,,confidence_buffer,649949,confidence_buffer,,null,,,,,,,,,,,,,,,,,,
1000.1999999880791,,recognition_phase,650951,Hanover,,49,,,,,,old,1,0.975609756097561,,,,,,,,,,
null,,confidence_buffer,651053,confidence_buffer,,null,,,,,,,,,,,,,,,,,,
null,,thebreak,651554,break,,null,,,,,,,,,,,,,,,,,,
2421.9000000059605,,realistic_rating,653977,Cody,,53,Cody,US,5,,,,,,,,,,,,,,,
null,,confidence_buffer,654080,confidence_buffer,,null,,,,,,,,,,,,,,,,,,
1284.2000000178814,,pt2_unique_rating,655365,Cody,,50,,,2,,,,,,,,,,,,,,,
null,,confidence_buffer,655466,confidence_buffer,,null,,,,,,,,,,,,,,,,,,
1018.9000000059605,,pt2_memorable_rating,656486,Cody,,50,,,2,,,,,,,,,,,,,,,
null,,confidence_buffer,656588,confidence_buffer,,null,,,,,,,,,,,,,,,,,,
1908.2000000178814,,recognition_phase,658498,Cody,,52,,,,,,new,1,0.9761904761904762,,,,,,,,,,
null,,confidence_buffer,658602,confidence_buffer,,null,,,,,,,,,,,,,,,,,,
null,,thebreak,659105,break,,null,,,,,,,,,,,,,,,,,,
1285,,realistic_rating,660391,Willowford,,53,Willowford,Fictional,5,,,,,,,,,,,,,,,
null,,confidence_buffer,660493,confidence_buffer,,null,,,,,,,,,,,,,,,,,,
962.7999999821186,,pt2_unique_rating,661457,Willowford,,52,,,4,,,,,,,,,,,,,,,
null,,confidence_buffer,661558,confidence_buffer,,null,,,,,,,,,,,,,,,,,,
909.5999999940395,,pt2_memorable_rating,662469,Willowford,,53,,,5,,,,,,,,,,,,,,,
null,,confidence_buffer,662571,confidence_buffer,,null,,,,,,,,,,,,,,,,,,
1850.2999999821186,,probe_rating,664422,probe_rating,,51,,,,3,1,,,,,,,,,,,,,
null,,confidence_buffer,664525,confidence_buffer,,null,,,,,,,,,,,,,,,,,,
2645.5999999940395,,recognition_phase,667171,Willowford,,51,,,,,,new,1,0.9767441860465116,,,,,,,,,,
null,,confidence_buffer,667273,confidence_buffer,,null,,,,,,,,,,,,,,,,,,
null,,thebreak,667774,break,,null,,,,,,,,,,,,,,,,,,
2049.800000011921,,realistic_rating,669825,Tamarisk Hills,,51,Tamarisk Hills,Fictional,3,,,,,,,,,,,,,,,
null,,confidence_buffer,669927,confidence_buffer,,null,,,,,,,,,,,,,,,,,,
713.8000000119209,,pt2_unique_rating,670641,Tamarisk Hills,,52,,,4,,,,,,,,,,,,,,,
null,,confidence_buffer,670743,confidence_buffer,,null,,,,,,,,,,,,,,,,,,
1171.199999988079,,pt2_memorable_rating,671915,Tamarisk Hills,,51,,,3,,,,,,,,,,,,,,,
null,,confidence_buffer,672017,confidence_buffer,,null,,,,,,,,,,,,,,,,,,
1663.4000000059605,,recognition_phase,673681,Tamarisk Hills,,52,,,,,,new,0,0.9545454545454546,,,,,,,,,,
null,,confidence_buffer,673783,confidence_buffer,,null,,,,,,,,,,,,,,,,,,
null,,thebreak,674284,break,,null,,,,,,,,,,,,,,,,,,
2222.199999988079,,realistic_rating,676507,Manistee,,50,Manistee,US,2,,,,,,,,,,,,,,,
null,,confidence_buffer,676612,confidence_buffer,,null,,,,,,,,,,,,,,,,,,
1119.5999999940395,,pt2_unique_rating,677733,Manistee,,52,,,4,,,,,,,,,,,,,,,
null,,confidence_buffer,677835,confidence_buffer,,null,,,,,,,,,,,,,,,,,,
1249.0999999940395,,pt2_memorable_rating,679086,Manistee,,51,,,3,,,,,,,,,,,,,,,
null,,confidence_buffer,679187,confidence_buffer,,null,,,,,,,,,,,,,,,,,,
2770.2000000178814,,recognition_phase,681958,Manistee,,49,,,,,,old,1,0.9555555555555556,,,,,,,,,,
null,,confidence_buffer,682059,confidence_buffer,,null,,,,,,,,,,,,,,,,,,
null,,thebreak,682560,break,,null,,,,,,,,,,,,,,,,,,
3114.7000000178814,,realistic_rating,685676,Sierra Hollow,,51,Sierra Hollow,Fictional,3,,,,,,,,,,,,,,,
null,,confidence_buffer,685778,confidence_buffer,,null,,,,,,,,,,,,,,,,,,
1183.800000011921,,pt2_unique_rating,686963,Sierra Hollow,,53,,,5,,,,,,,,,,,,,,,
null,,confidence_buffer,687065,confidence_buffer,,null,,,,,,,,,,,,,,,,,,
1060.4000000059605,,pt2_memorable_rating,688127,Sierra Hollow,,53,,,5,,,,,,,,,,,,,,,
null,,confidence_buffer,688236,confidence_buffer,,null,,,,,,,,,,,,,,,,,,
2684.5999999940395,,recognition_phase,690921,Sierra Hollow,,50,,,,,,old,1,0.9565217391304348,,,,,,,,,,
null,,confidence_buffer,691023,confidence_buffer,,null,,,,,,,,,,,,,,,,,,
null,,thebreak,691525,break,,null,,,,,,,,,,,,,,,,,,
1999.5999999940395,,realistic_rating,693526,Rosehollow,,53,Rosehollow,Fictional,5,,,,,,,,,,,,,,,
null,,confidence_buffer,693629,confidence_buffer,,null,,,,,,,,,,,,,,,,,,
1413,,pt2_unique_rating,695043,Rosehollow,,52,,,4,,,,,,,,,,,,,,,
null,,confidence_buffer,695146,confidence_buffer,,null,,,,,,,,,,,,,,,,,,
1356.199999988079,,probe_rating,696504,probe_rating,,53,,,,5,1,,,,,,,,,,,,,
null,,confidence_buffer,696606,confidence_buffer,,null,,,,,,,,,,,,,,,,,,
2533.9000000059605,,pt2_memorable_rating,699141,Rosehollow,,52,,,4,,,,,,,,,,,,,,,
null,,confidence_buffer,699243,confidence_buffer,,null,,,,,,,,,,,,,,,,,,
948.9000000059605,,recognition_phase,700193,Rosehollow,,49,,,,,,old,1,0.9574468085106383,,,,,,,,,,
null,,confidence_buffer,700295,confidence_buffer,,null,,,,,,,,,,,,,,,,,,
null,,thebreak,700796,break,,null,,,,,,,,,,,,,,,,,,
2995.4000000059605,,realistic_rating,703793,Golden Trace,,50,Golden Trace,Fictional,2,,,,,,,,,,,,,,,
null,,confidence_buffer,703895,confidence_buffer,,null,,,,,,,,,,,,,,,,,,
1295.5999999940395,,pt2_unique_rating,705192,Golden Trace,,51,,,3,,,,,,,,,,,,,,,
null,,confidence_buffer,705295,confidence_buffer,,null,,,,,,,,,,,,,,,,,,
2773.9000000059605,,pt2_memorable_rating,708070,Golden Trace,,51,,,3,,,,,,,,,,,,,,,
null,,confidence_buffer,708172,confidence_buffer,,null,,,,,,,,,,,,,,,,,,
891.5999999940395,,recognition_phase,709065,Golden Trace,,49,,,,,,old,1,0.9583333333333334,,,,,,,,,,
null,,confidence_buffer,709165,confidence_buffer,,null,,,,,,,,,,,,,,,,,,
null,,thebreak,709668,break,,null,,,,,,,,,,,,,,,,,,
1660.7000000178814,,realistic_rating,711330,Custer,,49,Custer,US,1,,,,,,,,,,,,,,,
null,,confidence_buffer,711432,confidence_buffer,,null,,,,,,,,,,,,,,,,,,
1598.6000000238419,,pt2_unique_rating,713032,Custer,,50,,,2,,,,,,,,,,,,,,,
null,,confidence_buffer,713133,confidence_buffer,,null,,,,,,,,,,,,,,,,,,
717.6999999880791,,pt2_memorable_rating,713851,Custer,,49,,,1,,,,,,,,,,,,,,,
null,,confidence_buffer,713954,confidence_buffer,,null,,,,,,,,,,,,,,,,,,
985,,recognition_phase,714940,Custer,,49,,,,,,old,1,0.9591836734693877,,,,,,,,,,
null,,confidence_buffer,715042,confidence_buffer,,null,,,,,,,,,,,,,,,,,,
null,,thebreak,715544,break,,null,,,,,,,,,,,,,,,,,,
3416.300000011921,,realistic_rating,718962,Solara Glen,,49,Solara Glen,Fictional,1,,,,,,,,,,,,,,,
null,,confidence_buffer,719064,confidence_buffer,,null,,,,,,,,,,,,,,,,,,
1976.5,,probe_rating,721042,probe_rating,,50,,,,2,1,,,,,,,,,,,,,
null,,confidence_buffer,721144,confidence_buffer,,null,,,,,,,,,,,,,,,,,,
1593.9000000059605,,pt2_unique_rating,722738,Solara Glen,,51,,,3,,,,,,,,,,,,,,,
null,,confidence_buffer,722848,confidence_buffer,,null,,,,,,,,,,,,,,,,,,
1239.6000000238419,,pt2_memorable_rating,724089,Solara Glen,,52,,,4,,,,,,,,,,,,,,,
null,,confidence_buffer,724203,confidence_buffer,,null,,,,,,,,,,,,,,,,,,
2218,,recognition_phase,726422,Solara Glen,,51,,,,,,new,0,0.94,,,,,,,,,,
null,,confidence_buffer,726524,confidence_buffer,,null,,,,,,,,,,,,,,,,,,
null,,thebreak,727026,break,,null,,,,,,,,,,,,,,,,,,
1818.2000000178814,,realistic_rating,728845,Okoboji,,49,Okoboji,US,1,,,,,,,,,,,,,,,
null,,confidence_buffer,728948,confidence_buffer,,null,,,,,,,,,,,,,,,,,,
1740.9000000059605,,pt2_unique_rating,730690,Okoboji,,52,,,4,,,,,,,,,,,,,,,
null,,confidence_buffer,730798,confidence_buffer,,null,,,,,,,,,,,,,,,,,,
1463.800000011921,,pt2_memorable_rating,732263,Okoboji,,52,,,4,,,,,,,,,,,,,,,
null,,confidence_buffer,732365,confidence_buffer,,null,,,,,,,,,,,,,,,,,,
884.8000000119209,,recognition_phase,733251,Okoboji,,49,,,,,,old,1,0.9411764705882353,,,,,,,,,,
null,,confidence_buffer,733354,confidence_buffer,,null,,,,,,,,,,,,,,,,,,
null,,thebreak,733855,break,,null,,,,,,,,,,,,,,,,,,
3598.5,,realistic_rating,737455,East Ladera,,50,East Ladera,Fictional,2,,,,,,,,,,,,,,,
null,,confidence_buffer,737556,confidence_buffer,,null,,,,,,,,,,,,,,,,,,
1416.4000000059605,,pt2_unique_rating,738974,East Ladera,,51,,,3,,,,,,,,,,,,,,,
null,,confidence_buffer,739077,confidence_buffer,,null,,,,,,,,,,,,,,,,,,
870.4000000059605,,pt2_memorable_rating,739948,East Ladera,,51,,,3,,,,,,,,,,,,,,,
null,,confidence_buffer,740056,confidence_buffer,,null,,,,,,,,,,,,,,,,,,
1572.300000011921,,recognition_phase,741629,East Ladera,,50,,,,,,old,1,0.9423076923076923,,,,,,,,,,
null,,confidence_buffer,741732,confidence_buffer,,null,,,,,,,,,,,,,,,,,,
null,,thebreak,742233,break,,null,,,,,,,,,,,,,,,,,,
1379.0999999940395,,realistic_rating,743613,Yukon,,52,Yukon,US,4,,,,,,,,,,,,,,,
null,,confidence_buffer,743715,confidence_buffer,,null,,,,,,,,,,,,,,,,,,
1941.9000000059605,,pt2_unique_rating,745658,Yukon,,52,,,4,,,,,,,,,,,,,,,
null,,confidence_buffer,745775,confidence_buffer,,null,,,,,,,,,,,,,,,,,,
866.3000000119209,,pt2_memorable_rating,746642,Yukon,,52,,,4,,,,,,,,,,,,,,,
null,,confidence_buffer,746744,confidence_buffer,,null,,,,,,,,,,,,,,,,,,
1195.699999988079,,recognition_phase,747941,Yukon,,52,,,,,,new,1,0.9433962264150944,,,,,,,,,,
null,,confidence_buffer,748043,confidence_buffer,,null,,,,,,,,,,,,,,,,,,
null,,thebreak,748545,break,,null,,,,,,,,,,,,,,,,,,
2227.9000000059605,,realistic_rating,750774,Sisters,,49,Sisters,US,1,,,,,,,,,,,,,,,
null,,confidence_buffer,750876,confidence_buffer,,null,,,,,,,,,,,,,,,,,,
2757.199999988079,,pt2_unique_rating,753634,Sisters,,50,,,2,,,,,,,,,,,,,,,
null,,confidence_buffer,753736,confidence_buffer,,null,,,,,,,,,,,,,,,,,,
1094.7999999821186,,pt2_memorable_rating,754832,Sisters,,50,,,2,,,,,,,,,,,,,,,
null,,confidence_buffer,754934,confidence_buffer,,null,,,,,,,,,,,,,,,,,,
1874.5999999940395,,recognition_phase,756810,Sisters,,52,,,,,,new,1,0.9444444444444444,,,,,,,,,,
null,,confidence_buffer,756913,confidence_buffer,,null,,,,,,,,,,,,,,,,,,
null,,thebreak,757414,break,,null,,,,,,,,,,,,,,,,,,
1082,,realistic_rating,758498,Shreveport,,53,Shreveport,US,5,,,,,,,,,,,,,,,
null,,confidence_buffer,758601,confidence_buffer,,null,,,,,,,,,,,,,,,,,,
1755.5,,pt2_unique_rating,760357,Shreveport,,51,,,3,,,,,,,,,,,,,,,
null,,confidence_buffer,760459,confidence_buffer,,null,,,,,,,,,,,,,,,,,,
3206.800000011921,,pt2_memorable_rating,763667,Shreveport,,53,,,5,,,,,,,,,,,,,,,
null,,confidence_buffer,763769,confidence_buffer,,null,,,,,,,,,,,,,,,,,,
1032.0999999940395,,recognition_phase,764802,Shreveport,,49,,,,,,old,1,0.9454545454545454,,,,,,,,,,
null,,confidence_buffer,764904,confidence_buffer,,null,,,,,,,,,,,,,,,,,,
null,,thebreak,765416,break,,null,,,,,,,,,,,,,,,,,,
1967.199999988079,,realistic_rating,767384,Crestwood,,53,Crestwood,Fictional,5,,,,,,,,,,,,,,,
null,,confidence_buffer,767486,confidence_buffer,,null,,,,,,,,,,,,,,,,,,
787.8000000119209,,pt2_unique_rating,768275,Crestwood,,50,,,2,,,,,,,,,,,,,,,
null,,confidence_buffer,768377,confidence_buffer,,null,,,,,,,,,,,,,,,,,,
806.4000000059605,,pt2_memorable_rating,769184,Crestwood,,51,,,3,,,,,,,,,,,,,,,
null,,confidence_buffer,769286,confidence_buffer,,null,,,,,,,,,,,,,,,,,,
2215.9000000059605,,recognition_phase,771503,Crestwood,,52,,,,,,new,1,0.9464285714285714,,,,,,,,,,
null,,confidence_buffer,771605,confidence_buffer,,null,,,,,,,,,,,,,,,,,,
null,,thebreak,772107,break,,null,,,,,,,,,,,,,,,,,,
6659.699999988079,,realistic_rating,778768,Millstone,,51,Millstone,Fictional,3,,,,,,,,,,,,,,,
null,,confidence_buffer,778870,confidence_buffer,,null,,,,,,,,,,,,,,,,,,
1248,,pt2_unique_rating,780119,Millstone,,51,,,3,,,,,,,,,,,,,,,
null,,confidence_buffer,780235,confidence_buffer,,null,,,,,,,,,,,,,,,,,,
1859.5,,pt2_memorable_rating,782095,Millstone,,50,,,2,,,,,,,,,,,,,,,
null,,confidence_buffer,782196,confidence_buffer,,null,,,,,,,,,,,,,,,,,,
1504.5,,recognition_phase,783702,Millstone,,52,,,,,,new,1,0.9473684210526315,,,,,,,,,,
null,,confidence_buffer,783804,confidence_buffer,,null,,,,,,,,,,,,,,,,,,
null,,thebreak,784305,break,,null,,,,,,,,,,,,,,,,,,
1721.5999999940395,,realistic_rating,786028,Lakehaven,,53,Lakehaven,Fictional,5,,,,,,,,,,,,,,,
null,,confidence_buffer,786130,confidence_buffer,,null,,,,,,,,,,,,,,,,,,
946.7999999821186,,pt2_unique_rating,787078,Lakehaven,,51,,,3,,,,,,,,,,,,,,,
null,,confidence_buffer,787180,confidence_buffer,,null,,,,,,,,,,,,,,,,,,
665.7999999821186,,pt2_memorable_rating,787847,Lakehaven,,52,,,4,,,,,,,,,,,,,,,
null,,confidence_buffer,787949,confidence_buffer,,null,,,,,,,,,,,,,,,,,,
1032.699999988079,,probe_rating,788982,probe_rating,,49,,,,1,1,,,,,,,,,,,,,
null,,confidence_buffer,789084,confidence_buffer,,null,,,,,,,,,,,,,,,,,,
3547.5999999940395,,recognition_phase,792632,Lakehaven,,51,,,,,,new,1,0.9482758620689655,,,,,,,,,,
null,,confidence_buffer,792734,confidence_buffer,,null,,,,,,,,,,,,,,,,,,
null,,thebreak,793248,break,,null,,,,,,,,,,,,,,,,,,
1576.9000000059605,,realistic_rating,794826,Coralridge,,52,Coralridge,Fictional,4,,,,,,,,,,,,,,,
null,,confidence_buffer,794928,confidence_buffer,,null,,,,,,,,,,,,,,,,,,
745.0999999940395,,pt2_unique_rating,795675,Coralridge,,51,,,3,,,,,,,,,,,,,,,
null,,confidence_buffer,795776,confidence_buffer,,null,,,,,,,,,,,,,,,,,,
1313,,pt2_memorable_rating,797090,Coralridge,,51,,,3,,,,,,,,,,,,,,,
null,,confidence_buffer,797192,confidence_buffer,,null,,,,,,,,,,,,,,,,,,
1227.199999988079,,probe_rating,798421,probe_rating,,50,,,,2,1,,,,,,,,,,,,,
null,,confidence_buffer,798524,confidence_buffer,,null,,,,,,,,,,,,,,,,,,
1764.0999999940395,,recognition_phase,800289,Coralridge,,52,,,,,,new,1,0.9491525423728814,,,,,,,,,,
null,,confidence_buffer,800391,confidence_buffer,,null,,,,,,,,,,,,,,,,,,
null,,thebreak,800893,break,,null,,,,,,,,,,,,,,,,,,
1210.800000011921,,realistic_rating,802105,Fairhaven,,52,Fairhaven,Fictional,4,,,,,,,,,,,,,,,
null,,confidence_buffer,802206,confidence_buffer,,null,,,,,,,,,,,,,,,,,,
1138.7000000178814,,probe_rating,803346,probe_rating,,49,,,,1,1,,,,,,,,,,,,,
null,,confidence_buffer,803448,confidence_buffer,,null,,,,,,,,,,,,,,,,,,
1688.199999988079,,pt2_unique_rating,805137,Fairhaven,,51,,,3,,,,,,,,,,,,,,,
null,,confidence_buffer,805239,confidence_buffer,,null,,,,,,,,,,,,,,,,,,
1461.4000000059605,,pt2_memorable_rating,806702,Fairhaven,,50,,,2,,,,,,,,,,,,,,,
null,,confidence_buffer,806804,confidence_buffer,,null,,,,,,,,,,,,,,,,,,
1230,,recognition_phase,808035,Fairhaven,,49,,,,,,old,0,0.9333333333333333,,,,,,,,,,
null,,confidence_buffer,808137,confidence_buffer,,null,,,,,,,,,,,,,,,,,,
null,,thebreak,808640,break,,null,,,,,,,,,,,,,,,,,,
,,survey,1008499,survey-questions,,,,,,,,,,,none,high,No, I was concentrated on my computer the whole time.,I didn't; I just naturally drew the names from memory.,If I have heard of the city, it was familiar; if I thought I heard of it, I would rate it higher.,How easy I could grasp the name from memory; highly unique names were memorable, or if it is a famous city, it was memorable.,Unique spellings and names that aren't just something generic, I guess.,If it could realistically be a town in America; if it didn't sound American, or if I had difficulty pronouncing it, I found it less realistic.,No,No
