rt,responses,trial_type,time_elapsed,stimulus,button_pressed,key_press,name_trial,city_type,rating,probe,probe_accuracy,response,correct,accuracy,problems,smooth,distraction,strategies,familiar,memorable,unique,realistic,similar,comments
4623.299999713898,{worker_id:65edd3b5dab4b33aaf29cbd0},id_enter,4625,,,,,,,,,,,,,,,,,,,,,
11486.099999904633,,fullscreen,16113,fullscreen,0,,,,,,,,,,,,,,,,,,,
9851,,intro_0,25965,instruct,,32,,,,,,,,,,,,,,,,,,
8243.5,,intro_1,34209,instruct,,32,,,,,,,,,,,,,,,,,,
8342.60000038147,,intro_2,42553,instruct,,32,,,,,,,,,,,,,,,,,,
null,,instruct_dir_4,44068,instruct,,null,,,,,,,,,,,,,,,,,,
null,,thebreak,44570,break,,null,,,,,,,,,,,,,,,,,,
10046.299999713898,,familiar_rating,54616,Hollendale,,49,Hollendale,Fictional,1,,,,,,,,,,,,,,,
null,,confidence_buffer,54718,confidence_buffer,,null,,,,,,,,,,,,,,,,,,
5616.89999961853,,unique_rating,60336,Hollendale,,51,,,3,,,,,,,,,,,,,,,
null,,confidence_buffer,60438,confidence_buffer,,null,,,,,,,,,,,,,,,,,,
4708.400000095367,,memorable_rating,65147,Hollendale,,51,,,3,,,,,,,,,,,,,,,
null,,confidence_buffer,65248,confidence_buffer,,null,,,,,,,,,,,,,,,,,,
null,,thebreak,65750,break,,null,,,,,,,,,,,,,,,,,,
5927.200000286102,,familiar_rating,71678,Manistee,,49,Manistee,US,1,,,,,,,,,,,,,,,
null,,confidence_buffer,71780,confidence_buffer,,null,,,,,,,,,,,,,,,,,,
5186.800000190735,,unique_rating,76968,Manistee,,52,,,4,,,,,,,,,,,,,,,
null,,confidence_buffer,77070,confidence_buffer,,null,,,,,,,,,,,,,,,,,,
4195.699999809265,,memorable_rating,81266,Manistee,,52,,,4,,,,,,,,,,,,,,,
null,,confidence_buffer,81367,confidence_buffer,,null,,,,,,,,,,,,,,,,,,
null,,thebreak,81869,break,,null,,,,,,,,,,,,,,,,,,
4314.099999904633,,familiar_rating,86184,Gatlinburg,,53,Gatlinburg,US,5,,,,,,,,,,,,,,,
null,,confidence_buffer,86287,confidence_buffer,,null,,,,,,,,,,,,,,,,,,
18706.599999904633,,unique_rating,104994,Gatlinburg,,51,,,3,,,,,,,,,,,,,,,
null,,confidence_buffer,105095,confidence_buffer,,null,,,,,,,,,,,,,,,,,,
3099.300000190735,,memorable_rating,108195,Gatlinburg,,53,,,5,,,,,,,,,,,,,,,
null,,confidence_buffer,108296,confidence_buffer,,null,,,,,,,,,,,,,,,,,,
null,,thebreak,108812,break,,null,,,,,,,,,,,,,,,,,,
8334.200000286102,,familiar_rating,117147,Bar Harbor,,51,Bar Harbor,US,3,,,,,,,,,,,,,,,
null,,confidence_buffer,117248,confidence_buffer,,null,,,,,,,,,,,,,,,,,,
3748.5999999046326,,unique_rating,120997,Bar Harbor,,52,,,4,,,,,,,,,,,,,,,
null,,confidence_buffer,121099,confidence_buffer,,null,,,,,,,,,,,,,,,,,,
2525,,memorable_rating,123624,Bar Harbor,,52,,,4,,,,,,,,,,,,,,,
null,,confidence_buffer,123726,confidence_buffer,,null,,,,,,,,,,,,,,,,,,
null,,thebreak,124240,break,,null,,,,,,,,,,,,,,,,,,
6124.199999809265,,familiar_rating,130365,Cleveland,,53,Cleveland,US,5,,,,,,,,,,,,,,,
null,,confidence_buffer,130468,confidence_buffer,,null,,,,,,,,,,,,,,,,,,
3165,,unique_rating,133633,Cleveland,,53,,,5,,,,,,,,,,,,,,,
null,,confidence_buffer,133735,confidence_buffer,,null,,,,,,,,,,,,,,,,,,
1384.2000002861023,,memorable_rating,135120,Cleveland,,53,,,5,,,,,,,,,,,,,,,
null,,confidence_buffer,135221,confidence_buffer,,null,,,,,,,,,,,,,,,,,,
null,,thebreak,135723,break,,null,,,,,,,,,,,,,,,,,,
4382.900000095367,,familiar_rating,140107,Cody,,53,Cody,US,5,,,,,,,,,,,,,,,
null,,confidence_buffer,140208,confidence_buffer,,null,,,,,,,,,,,,,,,,,,
3444.5,,unique_rating,143653,Cody,,52,,,4,,,,,,,,,,,,,,,
null,,confidence_buffer,143754,confidence_buffer,,null,,,,,,,,,,,,,,,,,,
3572.0999999046326,,memorable_rating,147328,Cody,,53,,,5,,,,,,,,,,,,,,,
null,,confidence_buffer,147430,confidence_buffer,,null,,,,,,,,,,,,,,,,,,
null,,thebreak,147931,break,,null,,,,,,,,,,,,,,,,,,
4852.599999904633,,familiar_rating,152785,Livingston,,53,Livingston,US,5,,,,,,,,,,,,,,,
null,,confidence_buffer,152886,confidence_buffer,,null,,,,,,,,,,,,,,,,,,
1959.0999999046326,,unique_rating,154846,Livingston,,53,,,5,,,,,,,,,,,,,,,
null,,confidence_buffer,154949,confidence_buffer,,null,,,,,,,,,,,,,,,,,,
1468.4000000953674,,memorable_rating,156418,Livingston,,53,,,5,,,,,,,,,,,,,,,
null,,confidence_buffer,156519,confidence_buffer,,null,,,,,,,,,,,,,,,,,,
null,,thebreak,157020,break,,null,,,,,,,,,,,,,,,,,,
5472.700000286102,,familiar_rating,162494,Lakehaven,,49,Lakehaven,Fictional,1,,,,,,,,,,,,,,,
null,,confidence_buffer,162595,confidence_buffer,,null,,,,,,,,,,,,,,,,,,
5613.099999904633,,probe_rating,168209,probe_rating,,53,,,,5,1,,,,,,,,,,,,,
null,,confidence_buffer,168311,confidence_buffer,,null,,,,,,,,,,,,,,,,,,
31221,,unique_rating,199533,Lakehaven,,53,,,5,,,,,,,,,,,,,,,
null,,confidence_buffer,199634,confidence_buffer,,null,,,,,,,,,,,,,,,,,,
2193.800000190735,,memorable_rating,201829,Lakehaven,,53,,,5,,,,,,,,,,,,,,,
null,,confidence_buffer,201931,confidence_buffer,,null,,,,,,,,,,,,,,,,,,
null,,thebreak,202433,break,,null,,,,,,,,,,,,,,,,,,
5900.300000190735,,familiar_rating,208334,Carmel,,49,Carmel,US,1,,,,,,,,,,,,,,,
null,,confidence_buffer,208435,confidence_buffer,,null,,,,,,,,,,,,,,,,,,
2564.5999999046326,,unique_rating,211001,Carmel,,53,,,5,,,,,,,,,,,,,,,
null,,confidence_buffer,211103,confidence_buffer,,null,,,,,,,,,,,,,,,,,,
3818,,memorable_rating,214921,Carmel,,52,,,4,,,,,,,,,,,,,,,
null,,confidence_buffer,215023,confidence_buffer,,null,,,,,,,,,,,,,,,,,,
3297.699999809265,,probe_rating,218321,probe_rating,,49,,,,1,1,,,,,,,,,,,,,
null,,confidence_buffer,218423,confidence_buffer,,null,,,,,,,,,,,,,,,,,,
null,,thebreak,218925,break,,null,,,,,,,,,,,,,,,,,,
8162.400000095367,,familiar_rating,227088,Fairhaven,,53,Fairhaven,Fictional,5,,,,,,,,,,,,,,,
null,,confidence_buffer,227190,confidence_buffer,,null,,,,,,,,,,,,,,,,,,
6487.400000095367,,unique_rating,233678,Fairhaven,,53,,,5,,,,,,,,,,,,,,,
null,,confidence_buffer,233779,confidence_buffer,,null,,,,,,,,,,,,,,,,,,
3028.5999999046326,,memorable_rating,236808,Fairhaven,,53,,,5,,,,,,,,,,,,,,,
null,,confidence_buffer,236910,confidence_buffer,,null,,,,,,,,,,,,,,,,,,
null,,thebreak,237412,break,,null,,,,,,,,,,,,,,,,,,
3624.800000190735,,familiar_rating,241038,Duck,,49,Duck,US,1,,,,,,,,,,,,,,,
null,,confidence_buffer,241141,confidence_buffer,,null,,,,,,,,,,,,,,,,,,
1641.5,,unique_rating,242783,Duck,,53,,,5,,,,,,,,,,,,,,,
null,,confidence_buffer,242886,confidence_buffer,,null,,,,,,,,,,,,,,,,,,
3550.800000190735,,memorable_rating,246437,Duck,,52,,,4,,,,,,,,,,,,,,,
null,,confidence_buffer,246539,confidence_buffer,,null,,,,,,,,,,,,,,,,,,
null,,thebreak,247041,break,,null,,,,,,,,,,,,,,,,,,
3956.6000003814697,,familiar_rating,250998,West Palm Beach,,53,West Palm Beach,US,5,,,,,,,,,,,,,,,
null,,confidence_buffer,251100,confidence_buffer,,null,,,,,,,,,,,,,,,,,,
2385.5,,unique_rating,253486,West Palm Beach,,52,,,4,,,,,,,,,,,,,,,
null,,confidence_buffer,253588,confidence_buffer,,null,,,,,,,,,,,,,,,,,,
2500.9000000953674,,memorable_rating,256090,West Palm Beach,,53,,,5,,,,,,,,,,,,,,,
null,,confidence_buffer,256192,confidence_buffer,,null,,,,,,,,,,,,,,,,,,
null,,thebreak,256694,break,,null,,,,,,,,,,,,,,,,,,
3923.199999809265,,familiar_rating,260618,West Talora,,49,West Talora,Fictional,1,,,,,,,,,,,,,,,
null,,confidence_buffer,260719,confidence_buffer,,null,,,,,,,,,,,,,,,,,,
6902.5,,unique_rating,267622,West Talora,,52,,,4,,,,,,,,,,,,,,,
null,,confidence_buffer,267724,confidence_buffer,,null,,,,,,,,,,,,,,,,,,
2002.7000002861023,,memorable_rating,269728,West Talora,,51,,,3,,,,,,,,,,,,,,,
null,,confidence_buffer,269829,confidence_buffer,,null,,,,,,,,,,,,,,,,,,
null,,thebreak,270331,break,,null,,,,,,,,,,,,,,,,,,
4725.60000038147,,familiar_rating,275057,Gardnerville,,49,Gardnerville,US,1,,,,,,,,,,,,,,,
null,,confidence_buffer,275158,confidence_buffer,,null,,,,,,,,,,,,,,,,,,
4599.700000286102,,unique_rating,279759,Gardnerville,,51,,,3,,,,,,,,,,,,,,,
null,,confidence_buffer,279860,confidence_buffer,,null,,,,,,,,,,,,,,,,,,
1349.2000002861023,,memorable_rating,281210,Gardnerville,,51,,,3,,,,,,,,,,,,,,,
null,,confidence_buffer,281312,confidence_buffer,,null,,,,,,,,,,,,,,,,,,
null,,thebreak,281814,break,,null,,,,,,,,,,,,,,,,,,
4590.599999904633,,familiar_rating,286405,Hawthorne Bluffs,,49,Hawthorne Bluffs,Fictional,1,,,,,,,,,,,,,,,
null,,confidence_buffer,286507,confidence_buffer,,null,,,,,,,,,,,,,,,,,,
1752.4000000953674,,unique_rating,288260,Hawthorne Bluffs,,53,,,5,,,,,,,,,,,,,,,
null,,confidence_buffer,288361,confidence_buffer,,null,,,,,,,,,,,,,,,,,,
2338.699999809265,,memorable_rating,290700,Hawthorne Bluffs,,52,,,4,,,,,,,,,,,,,,,
null,,confidence_buffer,290803,confidence_buffer,,null,,,,,,,,,,,,,,,,,,
null,,thebreak,291305,break,,null,,,,,,,,,,,,,,,,,,
5260.900000095367,,familiar_rating,296566,Hilo,,49,Hilo,US,1,,,,,,,,,,,,,,,
null,,confidence_buffer,296668,confidence_buffer,,null,,,,,,,,,,,,,,,,,,
3555.300000190735,,unique_rating,300224,Hilo,,53,,,5,,,,,,,,,,,,,,,
null,,confidence_buffer,300327,confidence_buffer,,null,,,,,,,,,,,,,,,,,,
2319.199999809265,,memorable_rating,302647,Hilo,,51,,,3,,,,,,,,,,,,,,,
null,,confidence_buffer,302748,confidence_buffer,,null,,,,,,,,,,,,,,,,,,
null,,thebreak,303251,break,,null,,,,,,,,,,,,,,,,,,
10284.5,,familiar_rating,313536,Barnard,,51,Barnard,US,3,,,,,,,,,,,,,,,
null,,confidence_buffer,313637,confidence_buffer,,null,,,,,,,,,,,,,,,,,,
1735.6000003814697,,unique_rating,315374,Barnard,,51,,,3,,,,,,,,,,,,,,,
null,,confidence_buffer,315475,confidence_buffer,,null,,,,,,,,,,,,,,,,,,
1427.8000001907349,,memorable_rating,316903,Barnard,,51,,,3,,,,,,,,,,,,,,,
null,,confidence_buffer,317004,confidence_buffer,,null,,,,,,,,,,,,,,,,,,
null,,thebreak,317507,break,,null,,,,,,,,,,,,,,,,,,
6381.199999809265,,familiar_rating,323889,Clearbrook,,49,Clearbrook,Fictional,1,,,,,,,,,,,,,,,
null,,confidence_buffer,323990,confidence_buffer,,null,,,,,,,,,,,,,,,,,,
2312.7000002861023,,unique_rating,326304,Clearbrook,,53,,,5,,,,,,,,,,,,,,,
null,,confidence_buffer,326405,confidence_buffer,,null,,,,,,,,,,,,,,,,,,
2712.2000002861023,,memorable_rating,329118,Clearbrook,,52,,,4,,,,,,,,,,,,,,,
null,,confidence_buffer,329220,confidence_buffer,,null,,,,,,,,,,,,,,,,,,
2095.9000000953674,,probe_rating,331316,probe_rating,,49,,,,1,1,,,,,,,,,,,,,
null,,confidence_buffer,331419,confidence_buffer,,null,,,,,,,,,,,,,,,,,,
null,,thebreak,331920,break,,null,,,,,,,,,,,,,,,,,,
3978.9000000953674,,familiar_rating,335900,Sierra Hollow,,49,Sierra Hollow,Fictional,1,,,,,,,,,,,,,,,
null,,confidence_buffer,336001,confidence_buffer,,null,,,,,,,,,,,,,,,,,,
2508.5,,unique_rating,338510,Sierra Hollow,,53,,,5,,,,,,,,,,,,,,,
null,,confidence_buffer,338612,confidence_buffer,,null,,,,,,,,,,,,,,,,,,
2360,,memorable_rating,340972,Sierra Hollow,,51,,,3,,,,,,,,,,,,,,,
null,,confidence_buffer,341075,confidence_buffer,,null,,,,,,,,,,,,,,,,,,
null,,thebreak,341578,break,,null,,,,,,,,,,,,,,,,,,
3243.199999809265,,familiar_rating,344822,Bayshore Haven,,49,Bayshore Haven,Fictional,1,,,,,,,,,,,,,,,
null,,confidence_buffer,344923,confidence_buffer,,null,,,,,,,,,,,,,,,,,,
1819.5999999046326,,unique_rating,346744,Bayshore Haven,,53,,,5,,,,,,,,,,,,,,,
null,,confidence_buffer,346854,confidence_buffer,,null,,,,,,,,,,,,,,,,,,
1750.2999997138977,,memorable_rating,348605,Bayshore Haven,,51,,,3,,,,,,,,,,,,,,,
null,,confidence_buffer,348706,confidence_buffer,,null,,,,,,,,,,,,,,,,,,
null,,thebreak,349212,break,,null,,,,,,,,,,,,,,,,,,
2669.199999809265,,familiar_rating,351882,Riverlyn,,49,Riverlyn,Fictional,1,,,,,,,,,,,,,,,
null,,confidence_buffer,351983,confidence_buffer,,null,,,,,,,,,,,,,,,,,,
6831.200000286102,,unique_rating,358815,Riverlyn,,52,,,4,,,,,,,,,,,,,,,
null,,confidence_buffer,358917,confidence_buffer,,null,,,,,,,,,,,,,,,,,,
1403.6999998092651,,memorable_rating,360321,Riverlyn,,51,,,3,,,,,,,,,,,,,,,
null,,confidence_buffer,360423,confidence_buffer,,null,,,,,,,,,,,,,,,,,,
null,,thebreak,360925,break,,null,,,,,,,,,,,,,,,,,,
2946.800000190735,,familiar_rating,363873,Shreveport,,53,Shreveport,US,5,,,,,,,,,,,,,,,
null,,confidence_buffer,363974,confidence_buffer,,null,,,,,,,,,,,,,,,,,,
2736.199999809265,,unique_rating,366711,Shreveport,,52,,,4,,,,,,,,,,,,,,,
null,,confidence_buffer,366813,confidence_buffer,,null,,,,,,,,,,,,,,,,,,
3263.4000000953674,,memorable_rating,370077,Shreveport,,52,,,4,,,,,,,,,,,,,,,
null,,confidence_buffer,370178,confidence_buffer,,null,,,,,,,,,,,,,,,,,,
null,,thebreak,370680,break,,null,,,,,,,,,,,,,,,,,,
2099.2000002861023,,familiar_rating,372780,Meadowspire,,49,Meadowspire,Fictional,1,,,,,,,,,,,,,,,
null,,confidence_buffer,372881,confidence_buffer,,null,,,,,,,,,,,,,,,,,,
2633.8999996185303,,unique_rating,375516,Meadowspire,,53,,,5,,,,,,,,,,,,,,,
null,,confidence_buffer,375618,confidence_buffer,,null,,,,,,,,,,,,,,,,,,
1472.5,,memorable_rating,377091,Meadowspire,,51,,,3,,,,,,,,,,,,,,,
null,,confidence_buffer,377193,confidence_buffer,,null,,,,,,,,,,,,,,,,,,
null,,thebreak,377695,break,,null,,,,,,,,,,,,,,,,,,
3133.9000000953674,,familiar_rating,380829,Leesburg,,53,Leesburg,US,5,,,,,,,,,,,,,,,
null,,confidence_buffer,380931,confidence_buffer,,null,,,,,,,,,,,,,,,,,,
3039.0999999046326,,unique_rating,383971,Leesburg,,51,,,3,,,,,,,,,,,,,,,
null,,confidence_buffer,384073,confidence_buffer,,null,,,,,,,,,,,,,,,,,,
1684.4000000953674,,memorable_rating,385758,Leesburg,,52,,,4,,,,,,,,,,,,,,,
null,,confidence_buffer,385859,confidence_buffer,,null,,,,,,,,,,,,,,,,,,
null,,thebreak,386360,break,,null,,,,,,,,,,,,,,,,,,
3488.9000000953674,,familiar_rating,389850,Redgrove,,50,Redgrove,Fictional,2,,,,,,,,,,,,,,,
null,,confidence_buffer,389951,confidence_buffer,,null,,,,,,,,,,,,,,,,,,
3609.7999997138977,,unique_rating,393562,Redgrove,,52,,,4,,,,,,,,,,,,,,,
null,,confidence_buffer,393663,confidence_buffer,,null,,,,,,,,,,,,,,,,,,
2874.0999999046326,,memorable_rating,396538,Redgrove,,51,,,3,,,,,,,,,,,,,,,
null,,confidence_buffer,396639,confidence_buffer,,null,,,,,,,,,,,,,,,,,,
null,,thebreak,397141,break,,null,,,,,,,,,,,,,,,,,,
2250.5,,familiar_rating,399392,North Arroya,,49,North Arroya,Fictional,1,,,,,,,,,,,,,,,
null,,confidence_buffer,399493,confidence_buffer,,null,,,,,,,,,,,,,,,,,,
2298.5999999046326,,unique_rating,401792,North Arroya,,52,,,4,,,,,,,,,,,,,,,
null,,confidence_buffer,401895,confidence_buffer,,null,,,,,,,,,,,,,,,,,,
1972.9000000953674,,memorable_rating,403868,North Arroya,,51,,,3,,,,,,,,,,,,,,,
null,,confidence_buffer,403970,confidence_buffer,,null,,,,,,,,,,,,,,,,,,
null,,thebreak,404471,break,,null,,,,,,,,,,,,,,,,,,
1958.5999999046326,,familiar_rating,406430,Huntsville,,53,Huntsville,US,5,,,,,,,,,,,,,,,
null,,confidence_buffer,406532,confidence_buffer,,null,,,,,,,,,,,,,,,,,,
2485.5999999046326,,unique_rating,409018,Huntsville,,53,,,5,,,,,,,,,,,,,,,
null,,confidence_buffer,409120,confidence_buffer,,null,,,,,,,,,,,,,,,,,,
2076.5999999046326,,memorable_rating,411197,Huntsville,,53,,,5,,,,,,,,,,,,,,,
null,,confidence_buffer,411298,confidence_buffer,,null,,,,,,,,,,,,,,,,,,
null,,thebreak,411799,break,,null,,,,,,,,,,,,,,,,,,
3581.0999999046326,,familiar_rating,415381,Westridge,,51,Westridge,Fictional,3,,,,,,,,,,,,,,,
null,,confidence_buffer,415483,confidence_buffer,,null,,,,,,,,,,,,,,,,,,
2293.1000003814697,,unique_rating,417777,Westridge,,52,,,4,,,,,,,,,,,,,,,
null,,confidence_buffer,417878,confidence_buffer,,null,,,,,,,,,,,,,,,,,,
4140.5,,memorable_rating,422019,Westridge,,51,,,3,,,,,,,,,,,,,,,
null,,confidence_buffer,422122,confidence_buffer,,null,,,,,,,,,,,,,,,,,,
null,,thebreak,422623,break,,null,,,,,,,,,,,,,,,,,,
2445.0999999046326,,familiar_rating,425069,Ravenport,,49,Ravenport,Fictional,1,,,,,,,,,,,,,,,
null,,confidence_buffer,425171,confidence_buffer,,null,,,,,,,,,,,,,,,,,,
1782,,unique_rating,426954,Ravenport,,52,,,4,,,,,,,,,,,,,,,
null,,confidence_buffer,427055,confidence_buffer,,null,,,,,,,,,,,,,,,,,,
2587.800000190735,,memorable_rating,429643,Ravenport,,51,,,3,,,,,,,,,,,,,,,
null,,confidence_buffer,429744,confidence_buffer,,null,,,,,,,,,,,,,,,,,,
null,,thebreak,430246,break,,null,,,,,,,,,,,,,,,,,,
2316.699999809265,,familiar_rating,432563,East Ladera,,49,East Ladera,Fictional,1,,,,,,,,,,,,,,,
null,,confidence_buffer,432672,confidence_buffer,,null,,,,,,,,,,,,,,,,,,
9360.10000038147,,unique_rating,442033,East Ladera,,52,,,4,,,,,,,,,,,,,,,
null,,confidence_buffer,442135,confidence_buffer,,null,,,,,,,,,,,,,,,,,,
2107,,memorable_rating,444242,East Ladera,,51,,,3,,,,,,,,,,,,,,,
null,,confidence_buffer,444344,confidence_buffer,,null,,,,,,,,,,,,,,,,,,
null,,thebreak,444845,break,,null,,,,,,,,,,,,,,,,,,
21949.300000190735,,intro_0,466796,instruct,,32,,,,,,,,,,,,,,,,,,
7535.900000095367,,intro_1,474332,instruct,,32,,,,,,,,,,,,,,,,,,
8704.099999904633,,intro_2,483037,instruct,,32,,,,,,,,,,,,,,,,,,
null,,instruct_dir_4,484539,instruct,,null,,,,,,,,,,,,,,,,,,
10744.300000190735,,realistic_rating,495284,Fairhaven,,53,Fairhaven,Fictional,5,,,,,,,,,,,,,,,
null,,confidence_buffer,495386,confidence_buffer,,null,,,,,,,,,,,,,,,,,,
6041.599999904633,,pt2_unique_rating,501428,Fairhaven,,53,,,5,,,,,,,,,,,,,,,
null,,confidence_buffer,501530,confidence_buffer,,null,,,,,,,,,,,,,,,,,,
4594.900000095367,,pt2_memorable_rating,506126,Fairhaven,,53,,,5,,,,,,,,,,,,,,,
null,,confidence_buffer,506228,confidence_buffer,,null,,,,,,,,,,,,,,,,,,
5778.299999713898,,recognition_phase,512007,Fairhaven,,49,,,,,,old,1,1,,,,,,,,,,
null,,confidence_buffer,512108,confidence_buffer,,null,,,,,,,,,,,,,,,,,,
null,,thebreak,512611,break,,null,,,,,,,,,,,,,,,,,,
8881.199999809265,,realistic_rating,521492,Sisters,,49,Sisters,US,1,,,,,,,,,,,,,,,
null,,confidence_buffer,521595,confidence_buffer,,null,,,,,,,,,,,,,,,,,,
3752,,pt2_unique_rating,525348,Sisters,,52,,,4,,,,,,,,,,,,,,,
null,,confidence_buffer,525449,confidence_buffer,,null,,,,,,,,,,,,,,,,,,
3492,,pt2_memorable_rating,528941,Sisters,,52,,,4,,,,,,,,,,,,,,,
null,,confidence_buffer,529043,confidence_buffer,,null,,,,,,,,,,,,,,,,,,
2879,,recognition_phase,531923,Sisters,,52,,,,,,new,1,1,,,,,,,,,,
null,,confidence_buffer,532025,confidence_buffer,,null,,,,,,,,,,,,,,,,,,
null,,thebreak,532526,break,,null,,,,,,,,,,,,,,,,,,
5693.5,,realistic_rating,538220,North Arroya,,51,North Arroya,Fictional,3,,,,,,,,,,,,,,,
null,,confidence_buffer,538322,confidence_buffer,,null,,,,,,,,,,,,,,,,,,
5459.699999809265,,pt2_unique_rating,543782,North Arroya,,52,,,4,,,,,,,,,,,,,,,
null,,confidence_buffer,543884,confidence_buffer,,null,,,,,,,,,,,,,,,,,,
4785.199999809265,,pt2_memorable_rating,548670,North Arroya,,52,,,4,,,,,,,,,,,,,,,
null,,confidence_buffer,548772,confidence_buffer,,null,,,,,,,,,,,,,,,,,,
2703.4000000953674,,recognition_phase,551476,North Arroya,,49,,,,,,old,1,1,,,,,,,,,,
null,,confidence_buffer,551578,confidence_buffer,,null,,,,,,,,,,,,,,,,,,
null,,thebreak,552080,break,,null,,,,,,,,,,,,,,,,,,
3631.7000002861023,,realistic_rating,555712,Gardnerville,,53,Gardnerville,US,5,,,,,,,,,,,,,,,
null,,confidence_buffer,555814,confidence_buffer,,null,,,,,,,,,,,,,,,,,,
5451.800000190735,,pt2_unique_rating,561266,Gardnerville,,52,,,4,,,,,,,,,,,,,,,
null,,confidence_buffer,561368,confidence_buffer,,null,,,,,,,,,,,,,,,,,,
3292.300000190735,,pt2_memorable_rating,564661,Gardnerville,,53,,,5,,,,,,,,,,,,,,,
null,,confidence_buffer,564763,confidence_buffer,,null,,,,,,,,,,,,,,,,,,
2585.199999809265,,recognition_phase,567348,Gardnerville,,49,,,,,,old,1,1,,,,,,,,,,
null,,confidence_buffer,567450,confidence_buffer,,null,,,,,,,,,,,,,,,,,,
null,,thebreak,567952,break,,null,,,,,,,,,,,,,,,,,,
8072.400000095367,,realistic_rating,576025,Hilo,,51,Hilo,US,3,,,,,,,,,,,,,,,
null,,confidence_buffer,576126,confidence_buffer,,null,,,,,,,,,,,,,,,,,,
5974.799999713898,,pt2_unique_rating,582102,Hilo,,53,,,5,,,,,,,,,,,,,,,
null,,confidence_buffer,582203,confidence_buffer,,null,,,,,,,,,,,,,,,,,,
3790.3999996185303,,pt2_memorable_rating,585994,Hilo,,52,,,4,,,,,,,,,,,,,,,
null,,confidence_buffer,586096,confidence_buffer,,null,,,,,,,,,,,,,,,,,,
2427.300000190735,,recognition_phase,588524,Hilo,,49,,,,,,old,1,1,,,,,,,,,,
null,,confidence_buffer,588628,confidence_buffer,,null,,,,,,,,,,,,,,,,,,
null,,thebreak,589130,break,,null,,,,,,,,,,,,,,,,,,
4114.400000095367,,realistic_rating,593245,Duck,,49,Duck,US,1,,,,,,,,,,,,,,,
null,,confidence_buffer,593346,confidence_buffer,,null,,,,,,,,,,,,,,,,,,
2221.7000002861023,,pt2_unique_rating,595568,Duck,,53,,,5,,,,,,,,,,,,,,,
null,,confidence_buffer,595669,confidence_buffer,,null,,,,,,,,,,,,,,,,,,
2035.5,,pt2_memorable_rating,597705,Duck,,53,,,5,,,,,,,,,,,,,,,
null,,confidence_buffer,597807,confidence_buffer,,null,,,,,,,,,,,,,,,,,,
2401,,probe_rating,600209,probe_rating,,50,,,,2,1,,,,,,,,,,,,,
null,,confidence_buffer,600310,confidence_buffer,,null,,,,,,,,,,,,,,,,,,
2285.9000000953674,,recognition_phase,602597,Duck,,49,,,,,,old,1,1,,,,,,,,,,
null,,confidence_buffer,602699,confidence_buffer,,null,,,,,,,,,,,,,,,,,,
null,,thebreak,603200,break,,null,,,,,,,,,,,,,,,,,,
4780.60000038147,,realistic_rating,607982,West Talora,,51,West Talora,Fictional,3,,,,,,,,,,,,,,,
null,,confidence_buffer,608084,confidence_buffer,,null,,,,,,,,,,,,,,,,,,
4720.400000095367,,pt2_unique_rating,612805,West Talora,,53,,,5,,,,,,,,,,,,,,,
null,,confidence_buffer,612906,confidence_buffer,,null,,,,,,,,,,,,,,,,,,
3184.9000000953674,,pt2_memorable_rating,616091,West Talora,,52,,,4,,,,,,,,,,,,,,,
null,,confidence_buffer,616192,confidence_buffer,,null,,,,,,,,,,,,,,,,,,
1807.0999999046326,,recognition_phase,618000,West Talora,,49,,,,,,old,1,1,,,,,,,,,,
null,,confidence_buffer,618102,confidence_buffer,,null,,,,,,,,,,,,,,,,,,
null,,thebreak,618604,break,,null,,,,,,,,,,,,,,,,,,
5132.5,,realistic_rating,623737,Juniper Creek,,53,Juniper Creek,Fictional,5,,,,,,,,,,,,,,,
null,,confidence_buffer,623839,confidence_buffer,,null,,,,,,,,,,,,,,,,,,
1993.4000000953674,,pt2_unique_rating,625833,Juniper Creek,,53,,,5,,,,,,,,,,,,,,,
null,,confidence_buffer,625934,confidence_buffer,,null,,,,,,,,,,,,,,,,,,
1432.7000002861023,,pt2_memorable_rating,627368,Juniper Creek,,53,,,5,,,,,,,,,,,,,,,
null,,confidence_buffer,627469,confidence_buffer,,null,,,,,,,,,,,,,,,,,,
3464.7999997138977,,recognition_phase,630935,Juniper Creek,,52,,,,,,new,1,1,,,,,,,,,,
null,,confidence_buffer,631037,confidence_buffer,,null,,,,,,,,,,,,,,,,,,
null,,thebreak,631539,break,,null,,,,,,,,,,,,,,,,,,
4546,,realistic_rating,636085,Hollendale,,51,Hollendale,Fictional,3,,,,,,,,,,,,,,,
null,,confidence_buffer,636188,confidence_buffer,,null,,,,,,,,,,,,,,,,,,
2260.300000190735,,pt2_unique_rating,638449,Hollendale,,52,,,4,,,,,,,,,,,,,,,
null,,confidence_buffer,638551,confidence_buffer,,null,,,,,,,,,,,,,,,,,,
2985.7999997138977,,pt2_memorable_rating,641537,Hollendale,,52,,,4,,,,,,,,,,,,,,,
null,,confidence_buffer,641638,confidence_buffer,,null,,,,,,,,,,,,,,,,,,
2120.300000190735,,recognition_phase,643759,Hollendale,,49,,,,,,old,1,1,,,,,,,,,,
null,,confidence_buffer,643860,confidence_buffer,,null,,,,,,,,,,,,,,,,,,
null,,thebreak,644362,break,,null,,,,,,,,,,,,,,,,,,
5826.200000286102,,realistic_rating,650189,Carmel,,52,Carmel,US,4,,,,,,,,,,,,,,,
null,,confidence_buffer,650289,confidence_buffer,,null,,,,,,,,,,,,,,,,,,
3717,,pt2_unique_rating,654007,Carmel,,53,,,5,,,,,,,,,,,,,,,
null,,confidence_buffer,654109,confidence_buffer,,null,,,,,,,,,,,,,,,,,,
3861.7999997138977,,pt2_memorable_rating,657971,Carmel,,52,,,4,,,,,,,,,,,,,,,
null,,confidence_buffer,658073,confidence_buffer,,null,,,,,,,,,,,,,,,,,,
1700.2999997138977,,recognition_phase,659774,Carmel,,49,,,,,,old,1,1,,,,,,,,,,
null,,confidence_buffer,659876,confidence_buffer,,null,,,,,,,,,,,,,,,,,,
null,,thebreak,660378,break,,null,,,,,,,,,,,,,,,,,,
5671.5,,realistic_rating,666050,Boulder,,53,Boulder,US,5,,,,,,,,,,,,,,,
null,,confidence_buffer,666151,confidence_buffer,,null,,,,,,,,,,,,,,,,,,
3637.5,,pt2_unique_rating,669789,Boulder,,53,,,5,,,,,,,,,,,,,,,
null,,confidence_buffer,669891,confidence_buffer,,null,,,,,,,,,,,,,,,,,,
1931.3000001907349,,pt2_memorable_rating,671823,Boulder,,53,,,5,,,,,,,,,,,,,,,
null,,confidence_buffer,671925,confidence_buffer,,null,,,,,,,,,,,,,,,,,,
2492.300000190735,,recognition_phase,674418,Boulder,,52,,,,,,new,1,1,,,,,,,,,,
null,,confidence_buffer,674519,confidence_buffer,,null,,,,,,,,,,,,,,,,,,
null,,thebreak,675021,break,,null,,,,,,,,,,,,,,,,,,
3575.5999999046326,,realistic_rating,678598,Livingston,,53,Livingston,US,5,,,,,,,,,,,,,,,
null,,confidence_buffer,678699,confidence_buffer,,null,,,,,,,,,,,,,,,,,,
2679.699999809265,,probe_rating,681380,probe_rating,,49,,,,1,1,,,,,,,,,,,,,
null,,confidence_buffer,681482,confidence_buffer,,null,,,,,,,,,,,,,,,,,,
2712.4000000953674,,pt2_unique_rating,684195,Livingston,,53,,,5,,,,,,,,,,,,,,,
null,,confidence_buffer,684298,confidence_buffer,,null,,,,,,,,,,,,,,,,,,
2184.7999997138977,,pt2_memorable_rating,686483,Livingston,,53,,,5,,,,,,,,,,,,,,,
null,,confidence_buffer,686585,confidence_buffer,,null,,,,,,,,,,,,,,,,,,
2316.5,,recognition_phase,688902,Livingston,,49,,,,,,old,1,1,,,,,,,,,,
null,,confidence_buffer,689003,confidence_buffer,,null,,,,,,,,,,,,,,,,,,
null,,thebreak,689505,break,,null,,,,,,,,,,,,,,,,,,
5513,,realistic_rating,695018,Hanover,,53,Hanover,US,5,,,,,,,,,,,,,,,
null,,confidence_buffer,695119,confidence_buffer,,null,,,,,,,,,,,,,,,,,,
1706.8000001907349,,pt2_unique_rating,696827,Hanover,,53,,,5,,,,,,,,,,,,,,,
null,,confidence_buffer,696928,confidence_buffer,,null,,,,,,,,,,,,,,,,,,
1528.7000002861023,,pt2_memorable_rating,698458,Hanover,,53,,,5,,,,,,,,,,,,,,,
null,,confidence_buffer,698560,confidence_buffer,,null,,,,,,,,,,,,,,,,,,
2900.199999809265,,recognition_phase,701460,Hanover,,52,,,,,,new,1,1,,,,,,,,,,
null,,confidence_buffer,701562,confidence_buffer,,null,,,,,,,,,,,,,,,,,,
null,,thebreak,702064,break,,null,,,,,,,,,,,,,,,,,,
4354.900000095367,,realistic_rating,706420,Sitka,,49,Sitka,US,1,,,,,,,,,,,,,,,
null,,confidence_buffer,706522,confidence_buffer,,null,,,,,,,,,,,,,,,,,,
3165.4000000953674,,probe_rating,709688,probe_rating,,49,,,,1,1,,,,,,,,,,,,,
null,,confidence_buffer,709788,confidence_buffer,,null,,,,,,,,,,,,,,,,,,
4244.300000190735,,pt2_unique_rating,714033,Sitka,,52,,,4,,,,,,,,,,,,,,,
null,,confidence_buffer,714134,confidence_buffer,,null,,,,,,,,,,,,,,,,,,
2578.5999999046326,,pt2_memorable_rating,716714,Sitka,,53,,,5,,,,,,,,,,,,,,,
null,,confidence_buffer,716816,confidence_buffer,,null,,,,,,,,,,,,,,,,,,
3081.1000003814697,,recognition_phase,719898,Sitka,,52,,,,,,new,1,1,,,,,,,,,,
null,,confidence_buffer,719999,confidence_buffer,,null,,,,,,,,,,,,,,,,,,
null,,thebreak,720501,break,,null,,,,,,,,,,,,,,,,,,
4003.5,,realistic_rating,724505,Cornwall,,53,Cornwall,US,5,,,,,,,,,,,,,,,
null,,confidence_buffer,724605,confidence_buffer,,null,,,,,,,,,,,,,,,,,,
1978.7000002861023,,pt2_unique_rating,726585,Cornwall,,53,,,5,,,,,,,,,,,,,,,
null,,confidence_buffer,726686,confidence_buffer,,null,,,,,,,,,,,,,,,,,,
1644.1000003814697,,pt2_memorable_rating,728331,Cornwall,,53,,,5,,,,,,,,,,,,,,,
null,,confidence_buffer,728432,confidence_buffer,,null,,,,,,,,,,,,,,,,,,
3548.1000003814697,,recognition_phase,731981,Cornwall,,52,,,,,,new,1,1,,,,,,,,,,
null,,confidence_buffer,732083,confidence_buffer,,null,,,,,,,,,,,,,,,,,,
null,,thebreak,732585,break,,null,,,,,,,,,,,,,,,,,,
5128.5,,realistic_rating,737715,Hawthorne Bluffs,,52,Hawthorne Bluffs,Fictional,4,,,,,,,,,,,,,,,
null,,confidence_buffer,737817,confidence_buffer,,null,,,,,,,,,,,,,,,,,,
2560.1000003814697,,pt2_unique_rating,740378,Hawthorne Bluffs,,53,,,5,,,,,,,,,,,,,,,
null,,confidence_buffer,740479,confidence_buffer,,null,,,,,,,,,,,,,,,,,,
2195.4000000953674,,pt2_memorable_rating,742676,Hawthorne Bluffs,,53,,,5,,,,,,,,,,,,,,,
null,,confidence_buffer,742778,confidence_buffer,,null,,,,,,,,,,,,,,,,,,
2140,,recognition_phase,744918,Hawthorne Bluffs,,49,,,,,,old,1,1,,,,,,,,,,
null,,confidence_buffer,745019,confidence_buffer,,null,,,,,,,,,,,,,,,,,,
null,,thebreak,745522,break,,null,,,,,,,,,,,,,,,,,,
12731.599999904633,,realistic_rating,758254,Golden Trace,,51,Golden Trace,Fictional,3,,,,,,,,,,,,,,,
null,,confidence_buffer,758356,confidence_buffer,,null,,,,,,,,,,,,,,,,,,
1901.2999997138977,,pt2_unique_rating,760258,Golden Trace,,52,,,4,,,,,,,,,,,,,,,
null,,confidence_buffer,760360,confidence_buffer,,null,,,,,,,,,,,,,,,,,,
2224,,probe_rating,762585,probe_rating,,53,,,,5,1,,,,,,,,,,,,,
null,,confidence_buffer,762687,confidence_buffer,,null,,,,,,,,,,,,,,,,,,
3544.4000000953674,,pt2_memorable_rating,766232,Golden Trace,,53,,,5,,,,,,,,,,,,,,,
null,,confidence_buffer,766343,confidence_buffer,,null,,,,,,,,,,,,,,,,,,
3029.699999809265,,recognition_phase,769374,Golden Trace,,49,,,,,,old,0,0.9411764705882353,,,,,,,,,,
null,,confidence_buffer,769475,confidence_buffer,,null,,,,,,,,,,,,,,,,,,
null,,thebreak,769977,break,,null,,,,,,,,,,,,,,,,,,
7149.200000286102,,realistic_rating,777127,Lakehaven,,53,Lakehaven,Fictional,5,,,,,,,,,,,,,,,
null,,confidence_buffer,777229,confidence_buffer,,null,,,,,,,,,,,,,,,,,,
2181.4000000953674,,pt2_unique_rating,779411,Lakehaven,,53,,,5,,,,,,,,,,,,,,,
null,,confidence_buffer,779514,confidence_buffer,,null,,,,,,,,,,,,,,,,,,
1527,,pt2_memorable_rating,781042,Lakehaven,,52,,,4,,,,,,,,,,,,,,,
null,,confidence_buffer,781143,confidence_buffer,,null,,,,,,,,,,,,,,,,,,
1750,,recognition_phase,782894,Lakehaven,,49,,,,,,old,1,0.9444444444444444,,,,,,,,,,
null,,confidence_buffer,782997,confidence_buffer,,null,,,,,,,,,,,,,,,,,,
null,,thebreak,783499,break,,null,,,,,,,,,,,,,,,,,,
7405.799999713898,,realistic_rating,790905,Granton Ridge,,51,Granton Ridge,Fictional,3,,,,,,,,,,,,,,,
null,,confidence_buffer,791007,confidence_buffer,,null,,,,,,,,,,,,,,,,,,
3448.0999999046326,,pt2_unique_rating,794456,Granton Ridge,,53,,,5,,,,,,,,,,,,,,,
null,,confidence_buffer,794557,confidence_buffer,,null,,,,,,,,,,,,,,,,,,
2078.5,,pt2_memorable_rating,796636,Granton Ridge,,52,,,4,,,,,,,,,,,,,,,
null,,confidence_buffer,796738,confidence_buffer,,null,,,,,,,,,,,,,,,,,,
4584,,recognition_phase,801323,Granton Ridge,,52,,,,,,new,1,0.9473684210526315,,,,,,,,,,
null,,confidence_buffer,801425,confidence_buffer,,null,,,,,,,,,,,,,,,,,,
null,,thebreak,801927,break,,null,,,,,,,,,,,,,,,,,,
3361.699999809265,,realistic_rating,805289,Okoboji,,49,Okoboji,US,1,,,,,,,,,,,,,,,
null,,confidence_buffer,805391,confidence_buffer,,null,,,,,,,,,,,,,,,,,,
2987.0999999046326,,pt2_unique_rating,808380,Okoboji,,53,,,5,,,,,,,,,,,,,,,
null,,confidence_buffer,808481,confidence_buffer,,null,,,,,,,,,,,,,,,,,,
3215.6000003814697,,pt2_memorable_rating,811697,Okoboji,,52,,,4,,,,,,,,,,,,,,,
null,,confidence_buffer,811799,confidence_buffer,,null,,,,,,,,,,,,,,,,,,
2511.5999999046326,,recognition_phase,814311,Okoboji,,52,,,,,,new,1,0.95,,,,,,,,,,
null,,confidence_buffer,814412,confidence_buffer,,null,,,,,,,,,,,,,,,,,,
null,,thebreak,814914,break,,null,,,,,,,,,,,,,,,,,,
3716.699999809265,,realistic_rating,818632,Shreveport,,53,Shreveport,US,5,,,,,,,,,,,,,,,
null,,confidence_buffer,818735,confidence_buffer,,null,,,,,,,,,,,,,,,,,,
2942.0999999046326,,pt2_unique_rating,821677,Shreveport,,53,,,5,,,,,,,,,,,,,,,
null,,confidence_buffer,821778,confidence_buffer,,null,,,,,,,,,,,,,,,,,,
1483.6999998092651,,pt2_memorable_rating,823263,Shreveport,,53,,,5,,,,,,,,,,,,,,,
null,,confidence_buffer,823364,confidence_buffer,,null,,,,,,,,,,,,,,,,,,
1819.3999996185303,,recognition_phase,825184,Shreveport,,49,,,,,,old,1,0.9523809523809523,,,,,,,,,,
null,,confidence_buffer,825285,confidence_buffer,,null,,,,,,,,,,,,,,,,,,
null,,thebreak,825787,break,,null,,,,,,,,,,,,,,,,,,
4987,,realistic_rating,830775,Willowford,,52,Willowford,Fictional,4,,,,,,,,,,,,,,,
null,,confidence_buffer,830876,confidence_buffer,,null,,,,,,,,,,,,,,,,,,
1756.3999996185303,,pt2_unique_rating,832633,Willowford,,53,,,5,,,,,,,,,,,,,,,
null,,confidence_buffer,832736,confidence_buffer,,null,,,,,,,,,,,,,,,,,,
1700.0999999046326,,pt2_memorable_rating,834437,Willowford,,51,,,3,,,,,,,,,,,,,,,
null,,confidence_buffer,834538,confidence_buffer,,null,,,,,,,,,,,,,,,,,,
1758.1999998092651,,probe_rating,836297,probe_rating,,51,,,,3,1,,,,,,,,,,,,,
null,,confidence_buffer,836398,confidence_buffer,,null,,,,,,,,,,,,,,,,,,
2777.5,,recognition_phase,839176,Willowford,,52,,,,,,new,1,0.9545454545454546,,,,,,,,,,
null,,confidence_buffer,839278,confidence_buffer,,null,,,,,,,,,,,,,,,,,,
null,,thebreak,839780,break,,null,,,,,,,,,,,,,,,,,,
5264.699999809265,,realistic_rating,845045,Silverpine,,53,Silverpine,Fictional,5,,,,,,,,,,,,,,,
null,,confidence_buffer,845146,confidence_buffer,,null,,,,,,,,,,,,,,,,,,
1635.7999997138977,,pt2_unique_rating,846783,Silverpine,,52,,,4,,,,,,,,,,,,,,,
null,,confidence_buffer,846885,confidence_buffer,,null,,,,,,,,,,,,,,,,,,
2332.6000003814697,,pt2_memorable_rating,849218,Silverpine,,52,,,4,,,,,,,,,,,,,,,
null,,confidence_buffer,849319,confidence_buffer,,null,,,,,,,,,,,,,,,,,,
3485.199999809265,,recognition_phase,852805,Silverpine,,52,,,,,,new,1,0.9565217391304348,,,,,,,,,,
null,,confidence_buffer,852906,confidence_buffer,,null,,,,,,,,,,,,,,,,,,
null,,thebreak,853414,break,,null,,,,,,,,,,,,,,,,,,
7418.599999904633,,realistic_rating,860833,Bar Harbor,,51,Bar Harbor,US,3,,,,,,,,,,,,,,,
null,,confidence_buffer,860934,confidence_buffer,,null,,,,,,,,,,,,,,,,,,
1791.5999999046326,,pt2_unique_rating,862726,Bar Harbor,,52,,,4,,,,,,,,,,,,,,,
null,,confidence_buffer,862828,confidence_buffer,,null,,,,,,,,,,,,,,,,,,
1884,,pt2_memorable_rating,864712,Bar Harbor,,51,,,3,,,,,,,,,,,,,,,
null,,confidence_buffer,864814,confidence_buffer,,null,,,,,,,,,,,,,,,,,,
2895,,recognition_phase,867710,Bar Harbor,,49,,,,,,old,1,0.9583333333333334,,,,,,,,,,
null,,confidence_buffer,867811,confidence_buffer,,null,,,,,,,,,,,,,,,,,,
null,,thebreak,868313,break,,null,,,,,,,,,,,,,,,,,,
3316.4000000953674,,realistic_rating,871630,Redgrove,,53,Redgrove,Fictional,5,,,,,,,,,,,,,,,
null,,confidence_buffer,871731,confidence_buffer,,null,,,,,,,,,,,,,,,,,,
1620.3000001907349,,pt2_unique_rating,873353,Redgrove,,53,,,5,,,,,,,,,,,,,,,
null,,confidence_buffer,873454,confidence_buffer,,null,,,,,,,,,,,,,,,,,,
1308.1000003814697,,pt2_memorable_rating,874763,Redgrove,,52,,,4,,,,,,,,,,,,,,,
null,,confidence_buffer,874864,confidence_buffer,,null,,,,,,,,,,,,,,,,,,
1285.7999997138977,,recognition_phase,876151,Redgrove,,49,,,,,,old,1,0.96,,,,,,,,,,
null,,confidence_buffer,876252,confidence_buffer,,null,,,,,,,,,,,,,,,,,,
null,,thebreak,876755,break,,null,,,,,,,,,,,,,,,,,,
16230.300000190735,,realistic_rating,892986,Baymarsh,,50,Baymarsh,Fictional,2,,,,,,,,,,,,,,,
null,,confidence_buffer,893088,confidence_buffer,,null,,,,,,,,,,,,,,,,,,
1935.3999996185303,,pt2_unique_rating,895024,Baymarsh,,52,,,4,,,,,,,,,,,,,,,
null,,confidence_buffer,895125,confidence_buffer,,null,,,,,,,,,,,,,,,,,,
1476.4000000953674,,pt2_memorable_rating,896602,Baymarsh,,51,,,3,,,,,,,,,,,,,,,
null,,confidence_buffer,896704,confidence_buffer,,null,,,,,,,,,,,,,,,,,,
1697.1999998092651,,recognition_phase,898402,Baymarsh,,52,,,,,,new,1,0.9615384615384616,,,,,,,,,,
null,,confidence_buffer,898503,confidence_buffer,,null,,,,,,,,,,,,,,,,,,
null,,thebreak,899005,break,,null,,,,,,,,,,,,,,,,,,
4285,,realistic_rating,903291,Manistee,,51,Manistee,US,3,,,,,,,,,,,,,,,
null,,confidence_buffer,903392,confidence_buffer,,null,,,,,,,,,,,,,,,,,,
1673.1000003814697,,pt2_unique_rating,905066,Manistee,,52,,,4,,,,,,,,,,,,,,,
null,,confidence_buffer,905169,confidence_buffer,,null,,,,,,,,,,,,,,,,,,
3654.4000000953674,,pt2_memorable_rating,908824,Manistee,,53,,,5,,,,,,,,,,,,,,,
null,,confidence_buffer,908925,confidence_buffer,,null,,,,,,,,,,,,,,,,,,
1454.5999999046326,,recognition_phase,910381,Manistee,,49,,,,,,old,1,0.9629629629629629,,,,,,,,,,
null,,confidence_buffer,910483,confidence_buffer,,null,,,,,,,,,,,,,,,,,,
null,,thebreak,910984,break,,null,,,,,,,,,,,,,,,,,,
3328.699999809265,,realistic_rating,914314,Huntsville,,53,Huntsville,US,5,,,,,,,,,,,,,,,
null,,confidence_buffer,914416,confidence_buffer,,null,,,,,,,,,,,,,,,,,,
1580.3000001907349,,pt2_unique_rating,915997,Huntsville,,53,,,5,,,,,,,,,,,,,,,
null,,confidence_buffer,916098,confidence_buffer,,null,,,,,,,,,,,,,,,,,,
1145.5999999046326,,pt2_memorable_rating,917244,Huntsville,,53,,,5,,,,,,,,,,,,,,,
null,,confidence_buffer,917346,confidence_buffer,,null,,,,,,,,,,,,,,,,,,
1743,,recognition_phase,919090,Huntsville,,49,,,,,,old,1,0.9642857142857143,,,,,,,,,,
null,,confidence_buffer,919192,confidence_buffer,,null,,,,,,,,,,,,,,,,,,
null,,thebreak,919694,break,,null,,,,,,,,,,,,,,,,,,
2810.0999999046326,,realistic_rating,922505,Stonebrook,,51,Stonebrook,Fictional,3,,,,,,,,,,,,,,,
null,,confidence_buffer,922608,confidence_buffer,,null,,,,,,,,,,,,,,,,,,
2657.5999999046326,,pt2_unique_rating,925266,Stonebrook,,51,,,3,,,,,,,,,,,,,,,
null,,confidence_buffer,925367,confidence_buffer,,null,,,,,,,,,,,,,,,,,,
4063.2000002861023,,pt2_memorable_rating,929431,Stonebrook,,52,,,4,,,,,,,,,,,,,,,
null,,confidence_buffer,929533,confidence_buffer,,null,,,,,,,,,,,,,,,,,,
1887.2000002861023,,recognition_phase,931421,Stonebrook,,52,,,,,,new,1,0.9655172413793104,,,,,,,,,,
null,,confidence_buffer,931522,confidence_buffer,,null,,,,,,,,,,,,,,,,,,
null,,thebreak,932024,break,,null,,,,,,,,,,,,,,,,,,
5688,,realistic_rating,937713,Linden Trace,,51,Linden Trace,Fictional,3,,,,,,,,,,,,,,,
null,,confidence_buffer,937814,confidence_buffer,,null,,,,,,,,,,,,,,,,,,
2306.2999997138977,,pt2_unique_rating,940121,Linden Trace,,51,,,3,,,,,,,,,,,,,,,
null,,confidence_buffer,940223,confidence_buffer,,null,,,,,,,,,,,,,,,,,,
3268.4000000953674,,pt2_memorable_rating,943493,Linden Trace,,52,,,4,,,,,,,,,,,,,,,
null,,confidence_buffer,943594,confidence_buffer,,null,,,,,,,,,,,,,,,,,,
3991,,recognition_phase,947587,Linden Trace,,52,,,,,,new,1,0.9666666666666667,,,,,,,,,,
null,,confidence_buffer,947688,confidence_buffer,,null,,,,,,,,,,,,,,,,,,
null,,thebreak,948190,break,,null,,,,,,,,,,,,,,,,,,
2642.0999999046326,,realistic_rating,950833,Sierra Hollow,,51,Sierra Hollow,Fictional,3,,,,,,,,,,,,,,,
null,,confidence_buffer,950935,confidence_buffer,,null,,,,,,,,,,,,,,,,,,
1778.9000000953674,,pt2_unique_rating,952715,Sierra Hollow,,52,,,4,,,,,,,,,,,,,,,
null,,confidence_buffer,952830,confidence_buffer,,null,,,,,,,,,,,,,,,,,,
2424.0999999046326,,pt2_memorable_rating,955255,Sierra Hollow,,53,,,5,,,,,,,,,,,,,,,
null,,confidence_buffer,955356,confidence_buffer,,null,,,,,,,,,,,,,,,,,,
2811.0999999046326,,recognition_phase,958168,Sierra Hollow,,49,,,,,,old,1,0.967741935483871,,,,,,,,,,
null,,confidence_buffer,958269,confidence_buffer,,null,,,,,,,,,,,,,,,,,,
null,,thebreak,958770,break,,null,,,,,,,,,,,,,,,,,,
17592.89999961853,,realistic_rating,976364,Riverlyn,,51,Riverlyn,Fictional,3,,,,,,,,,,,,,,,
null,,confidence_buffer,976466,confidence_buffer,,null,,,,,,,,,,,,,,,,,,
2900.800000190735,,pt2_unique_rating,979368,Riverlyn,,52,,,4,,,,,,,,,,,,,,,
null,,confidence_buffer,979469,confidence_buffer,,null,,,,,,,,,,,,,,,,,,
3955.699999809265,,pt2_memorable_rating,983426,Riverlyn,,52,,,4,,,,,,,,,,,,,,,
null,,confidence_buffer,983527,confidence_buffer,,null,,,,,,,,,,,,,,,,,,
1524.0999999046326,,recognition_phase,985052,Riverlyn,,49,,,,,,old,1,0.96875,,,,,,,,,,
null,,confidence_buffer,985153,confidence_buffer,,null,,,,,,,,,,,,,,,,,,
null,,thebreak,985654,break,,null,,,,,,,,,,,,,,,,,,
3610,,realistic_rating,989265,Sammamish,,49,Sammamish,US,1,,,,,,,,,,,,,,,
null,,confidence_buffer,989366,confidence_buffer,,null,,,,,,,,,,,,,,,,,,
2181.1000003814697,,probe_rating,991548,probe_rating,,52,,,,4,1,,,,,,,,,,,,,
null,,confidence_buffer,991651,confidence_buffer,,null,,,,,,,,,,,,,,,,,,
2662.4000000953674,,pt2_unique_rating,994314,Sammamish,,52,,,4,,,,,,,,,,,,,,,
null,,confidence_buffer,994416,confidence_buffer,,null,,,,,,,,,,,,,,,,,,
2810.5999999046326,,pt2_memorable_rating,997227,Sammamish,,52,,,4,,,,,,,,,,,,,,,
null,,confidence_buffer,997328,confidence_buffer,,null,,,,,,,,,,,,,,,,,,
2199.4000000953674,,recognition_phase,999528,Sammamish,,52,,,,,,new,1,0.9696969696969697,,,,,,,,,,
null,,confidence_buffer,999631,confidence_buffer,,null,,,,,,,,,,,,,,,,,,
null,,thebreak,1000133,break,,null,,,,,,,,,,,,,,,,,,
2609.2999997138977,,realistic_rating,1002743,Cody,,53,Cody,US,5,,,,,,,,,,,,,,,
null,,confidence_buffer,1002847,confidence_buffer,,null,,,,,,,,,,,,,,,,,,
2308,,pt2_unique_rating,1005156,Cody,,53,,,5,,,,,,,,,,,,,,,
null,,confidence_buffer,1005258,confidence_buffer,,null,,,,,,,,,,,,,,,,,,
1127.5,,pt2_memorable_rating,1006386,Cody,,53,,,5,,,,,,,,,,,,,,,
null,,confidence_buffer,1006489,confidence_buffer,,null,,,,,,,,,,,,,,,,,,
1425.6000003814697,,recognition_phase,1007915,Cody,,49,,,,,,old,1,0.9705882352941176,,,,,,,,,,
null,,confidence_buffer,1008016,confidence_buffer,,null,,,,,,,,,,,,,,,,,,
null,,thebreak,1008519,break,,null,,,,,,,,,,,,,,,,,,
1980,,realistic_rating,1010499,Cleveland,,53,Cleveland,US,5,,,,,,,,,,,,,,,
null,,confidence_buffer,1010600,confidence_buffer,,null,,,,,,,,,,,,,,,,,,
2196.7999997138977,,pt2_unique_rating,1012798,Cleveland,,53,,,5,,,,,,,,,,,,,,,
null,,confidence_buffer,1012899,confidence_buffer,,null,,,,,,,,,,,,,,,,,,
1248.5999999046326,,pt2_memorable_rating,1014148,Cleveland,,53,,,5,,,,,,,,,,,,,,,
null,,confidence_buffer,1014249,confidence_buffer,,null,,,,,,,,,,,,,,,,,,
1628.5,,recognition_phase,1015879,Cleveland,,49,,,,,,old,1,0.9714285714285714,,,,,,,,,,
null,,confidence_buffer,1015980,confidence_buffer,,null,,,,,,,,,,,,,,,,,,
null,,thebreak,1016482,break,,null,,,,,,,,,,,,,,,,,,
4016,,realistic_rating,1020499,Oakridge,,53,Oakridge,Fictional,5,,,,,,,,,,,,,,,
null,,confidence_buffer,1020600,confidence_buffer,,null,,,,,,,,,,,,,,,,,,
1679,,pt2_unique_rating,1022280,Oakridge,,52,,,4,,,,,,,,,,,,,,,
null,,confidence_buffer,1022383,confidence_buffer,,null,,,,,,,,,,,,,,,,,,
2801.5999999046326,,pt2_memorable_rating,1025185,Oakridge,,52,,,4,,,,,,,,,,,,,,,
null,,confidence_buffer,1025287,confidence_buffer,,null,,,,,,,,,,,,,,,,,,
4678.400000095367,,recognition_phase,1029966,Oakridge,,52,,,,,,new,1,0.9722222222222222,,,,,,,,,,
null,,confidence_buffer,1030067,confidence_buffer,,null,,,,,,,,,,,,,,,,,,
null,,thebreak,1030569,break,,null,,,,,,,,,,,,,,,,,,
3389.800000190735,,realistic_rating,1033959,Lake of the Ozarks,,53,Lake of the Ozarks,US,5,,,,,,,,,,,,,,,
null,,confidence_buffer,1034061,confidence_buffer,,null,,,,,,,,,,,,,,,,,,
4018.800000190735,,pt2_unique_rating,1038080,Lake of the Ozarks,,53,,,5,,,,,,,,,,,,,,,
null,,confidence_buffer,1038182,confidence_buffer,,null,,,,,,,,,,,,,,,,,,
2184.0999999046326,,pt2_memorable_rating,1040367,Lake of the Ozarks,,53,,,5,,,,,,,,,,,,,,,
null,,confidence_buffer,1040469,confidence_buffer,,null,,,,,,,,,,,,,,,,,,
1555.7000002861023,,recognition_phase,1042026,Lake of the Ozarks,,52,,,,,,new,1,0.972972972972973,,,,,,,,,,
null,,confidence_buffer,1042127,confidence_buffer,,null,,,,,,,,,,,,,,,,,,
null,,thebreak,1042628,break,,null,,,,,,,,,,,,,,,,,,
3271.0999999046326,,realistic_rating,1045900,Bayshore Haven,,51,Bayshore Haven,Fictional,3,,,,,,,,,,,,,,,
null,,confidence_buffer,1046001,confidence_buffer,,null,,,,,,,,,,,,,,,,,,
2022,,pt2_unique_rating,1048023,Bayshore Haven,,53,,,5,,,,,,,,,,,,,,,
null,,confidence_buffer,1048125,confidence_buffer,,null,,,,,,,,,,,,,,,,,,
1806.4000000953674,,pt2_memorable_rating,1049932,Bayshore Haven,,52,,,4,,,,,,,,,,,,,,,
null,,confidence_buffer,1050040,confidence_buffer,,null,,,,,,,,,,,,,,,,,,
1809.5,,recognition_phase,1051851,Bayshore Haven,,52,,,,,,new,0,0.9473684210526315,,,,,,,,,,
null,,confidence_buffer,1051952,confidence_buffer,,null,,,,,,,,,,,,,,,,,,
null,,thebreak,1052454,break,,null,,,,,,,,,,,,,,,,,,
3326,,realistic_rating,1055781,New Hope,,53,New Hope,US,5,,,,,,,,,,,,,,,
null,,confidence_buffer,1055883,confidence_buffer,,null,,,,,,,,,,,,,,,,,,
2034,,probe_rating,1057918,probe_rating,,49,,,,1,1,,,,,,,,,,,,,
null,,confidence_buffer,1058021,confidence_buffer,,null,,,,,,,,,,,,,,,,,,
1431.5999999046326,,pt2_unique_rating,1059453,New Hope,,52,,,4,,,,,,,,,,,,,,,
null,,confidence_buffer,1059556,confidence_buffer,,null,,,,,,,,,,,,,,,,,,
1960.7000002861023,,pt2_memorable_rating,1061517,New Hope,,52,,,4,,,,,,,,,,,,,,,
null,,confidence_buffer,1061619,confidence_buffer,,null,,,,,,,,,,,,,,,,,,
2419.2999997138977,,recognition_phase,1064039,New Hope,,52,,,,,,new,1,0.9487179487179487,,,,,,,,,,
null,,confidence_buffer,1064141,confidence_buffer,,null,,,,,,,,,,,,,,,,,,
null,,thebreak,1064643,break,,null,,,,,,,,,,,,,,,,,,
4590.60000038147,,realistic_rating,1069235,Gloucester,,53,Gloucester,US,5,,,,,,,,,,,,,,,
null,,confidence_buffer,1069337,confidence_buffer,,null,,,,,,,,,,,,,,,,,,
1371.8000001907349,,probe_rating,1070710,probe_rating,,49,,,,1,1,,,,,,,,,,,,,
null,,confidence_buffer,1070811,confidence_buffer,,null,,,,,,,,,,,,,,,,,,
1781.9000000953674,,pt2_unique_rating,1072593,Gloucester,,53,,,5,,,,,,,,,,,,,,,
null,,confidence_buffer,1072695,confidence_buffer,,null,,,,,,,,,,,,,,,,,,
2758.8999996185303,,pt2_memorable_rating,1075455,Gloucester,,53,,,5,,,,,,,,,,,,,,,
null,,confidence_buffer,1075557,confidence_buffer,,null,,,,,,,,,,,,,,,,,,
3363.3999996185303,,recognition_phase,1078921,Gloucester,,52,,,,,,new,1,0.95,,,,,,,,,,
null,,confidence_buffer,1079022,confidence_buffer,,null,,,,,,,,,,,,,,,,,,
null,,thebreak,1079524,break,,null,,,,,,,,,,,,,,,,,,
6799.5,,realistic_rating,1086325,Meadowspire,,52,Meadowspire,Fictional,4,,,,,,,,,,,,,,,
null,,confidence_buffer,1086426,confidence_buffer,,null,,,,,,,,,,,,,,,,,,
2644.5999999046326,,pt2_unique_rating,1089071,Meadowspire,,53,,,5,,,,,,,,,,,,,,,
null,,confidence_buffer,1089172,confidence_buffer,,null,,,,,,,,,,,,,,,,,,
1922,,pt2_memorable_rating,1091094,Meadowspire,,53,,,5,,,,,,,,,,,,,,,
null,,confidence_buffer,1091196,confidence_buffer,,null,,,,,,,,,,,,,,,,,,
2177.4000000953674,,recognition_phase,1093374,Meadowspire,,52,,,,,,new,0,0.926829268292683,,,,,,,,,,
null,,confidence_buffer,1093478,confidence_buffer,,null,,,,,,,,,,,,,,,,,,
null,,thebreak,1093980,break,,null,,,,,,,,,,,,,,,,,,
2405.0999999046326,,realistic_rating,1096386,Clearbrook,,53,Clearbrook,Fictional,5,,,,,,,,,,,,,,,
null,,confidence_buffer,1096488,confidence_buffer,,null,,,,,,,,,,,,,,,,,,
3859.0999999046326,,pt2_unique_rating,1100348,Clearbrook,,52,,,4,,,,,,,,,,,,,,,
null,,confidence_buffer,1100449,confidence_buffer,,null,,,,,,,,,,,,,,,,,,
2015.0999999046326,,pt2_memorable_rating,1102465,Clearbrook,,52,,,4,,,,,,,,,,,,,,,
null,,confidence_buffer,1102568,confidence_buffer,,null,,,,,,,,,,,,,,,,,,
2103.7999997138977,,recognition_phase,1104673,Clearbrook,,52,,,,,,new,0,0.9047619047619048,,,,,,,,,,
null,,confidence_buffer,1104774,confidence_buffer,,null,,,,,,,,,,,,,,,,,,
null,,thebreak,1105275,break,,null,,,,,,,,,,,,,,,,,,
2588.699999809265,,realistic_rating,1107865,Westridge,,53,Westridge,Fictional,5,,,,,,,,,,,,,,,
null,,confidence_buffer,1107966,confidence_buffer,,null,,,,,,,,,,,,,,,,,,
2107.3999996185303,,pt2_unique_rating,1110075,Westridge,,52,,,4,,,,,,,,,,,,,,,
null,,confidence_buffer,1110178,confidence_buffer,,null,,,,,,,,,,,,,,,,,,
1770.4000000953674,,pt2_memorable_rating,1111949,Westridge,,51,,,3,,,,,,,,,,,,,,,
null,,confidence_buffer,1112051,confidence_buffer,,null,,,,,,,,,,,,,,,,,,
1904.3000001907349,,recognition_phase,1113956,Westridge,,52,,,,,,new,0,0.8837209302325582,,,,,,,,,,
null,,confidence_buffer,1114058,confidence_buffer,,null,,,,,,,,,,,,,,,,,,
null,,thebreak,1114559,break,,null,,,,,,,,,,,,,,,,,,
3612.5999999046326,,realistic_rating,1118172,Gatlinburg,,53,Gatlinburg,US,5,,,,,,,,,,,,,,,
null,,confidence_buffer,1118274,confidence_buffer,,null,,,,,,,,,,,,,,,,,,
1330.9000000953674,,pt2_unique_rating,1119606,Gatlinburg,,52,,,4,,,,,,,,,,,,,,,
null,,confidence_buffer,1119707,confidence_buffer,,null,,,,,,,,,,,,,,,,,,
2889,,pt2_memorable_rating,1122597,Gatlinburg,,52,,,4,,,,,,,,,,,,,,,
null,,confidence_buffer,1122698,confidence_buffer,,null,,,,,,,,,,,,,,,,,,
1523.1000003814697,,recognition_phase,1124222,Gatlinburg,,49,,,,,,old,1,0.8863636363636364,,,,,,,,,,
null,,confidence_buffer,1124323,confidence_buffer,,null,,,,,,,,,,,,,,,,,,
null,,thebreak,1124825,break,,null,,,,,,,,,,,,,,,,,,
6596.5,,realistic_rating,1131422,Barnard,,52,Barnard,US,4,,,,,,,,,,,,,,,
null,,confidence_buffer,1131524,confidence_buffer,,null,,,,,,,,,,,,,,,,,,
2124.199999809265,,pt2_unique_rating,1133649,Barnard,,53,,,5,,,,,,,,,,,,,,,
null,,confidence_buffer,1133751,confidence_buffer,,null,,,,,,,,,,,,,,,,,,
1821.5,,pt2_memorable_rating,1135574,Barnard,,52,,,4,,,,,,,,,,,,,,,
null,,confidence_buffer,1135676,confidence_buffer,,null,,,,,,,,,,,,,,,,,,
4243.800000190735,,recognition_phase,1139921,Barnard,,49,,,,,,old,1,0.8888888888888888,,,,,,,,,,
null,,confidence_buffer,1140021,confidence_buffer,,null,,,,,,,,,,,,,,,,,,
null,,thebreak,1140524,break,,null,,,,,,,,,,,,,,,,,,
3871.2000002861023,,realistic_rating,1144397,Custer,,50,Custer,US,2,,,,,,,,,,,,,,,
null,,confidence_buffer,1144498,confidence_buffer,,null,,,,,,,,,,,,,,,,,,
2095,,pt2_unique_rating,1146593,Custer,,52,,,4,,,,,,,,,,,,,,,
null,,confidence_buffer,1146697,confidence_buffer,,null,,,,,,,,,,,,,,,,,,
2067.9000000953674,,pt2_memorable_rating,1148766,Custer,,51,,,3,,,,,,,,,,,,,,,
null,,confidence_buffer,1148868,confidence_buffer,,null,,,,,,,,,,,,,,,,,,
1627.9000000953674,,probe_rating,1150497,probe_rating,,50,,,,2,1,,,,,,,,,,,,,
null,,confidence_buffer,1150598,confidence_buffer,,null,,,,,,,,,,,,,,,,,,
2109.3999996185303,,recognition_phase,1152709,Custer,,52,,,,,,new,1,0.8913043478260869,,,,,,,,,,
null,,confidence_buffer,1152810,confidence_buffer,,null,,,,,,,,,,,,,,,,,,
null,,thebreak,1153311,break,,null,,,,,,,,,,,,,,,,,,
2975.699999809265,,realistic_rating,1156287,Claywater,,50,Claywater,Fictional,2,,,,,,,,,,,,,,,
null,,confidence_buffer,1156388,confidence_buffer,,null,,,,,,,,,,,,,,,,,,
1695.2999997138977,,pt2_unique_rating,1158084,Claywater,,52,,,4,,,,,,,,,,,,,,,
null,,confidence_buffer,1158186,confidence_buffer,,null,,,,,,,,,,,,,,,,,,
3718.300000190735,,pt2_memorable_rating,1161905,Claywater,,52,,,4,,,,,,,,,,,,,,,
null,,confidence_buffer,1162006,confidence_buffer,,null,,,,,,,,,,,,,,,,,,
2338.2999997138977,,recognition_phase,1164346,Claywater,,52,,,,,,new,1,0.8936170212765957,,,,,,,,,,
null,,confidence_buffer,1164448,confidence_buffer,,null,,,,,,,,,,,,,,,,,,
null,,thebreak,1164950,break,,null,,,,,,,,,,,,,,,,,,
4075.5999999046326,,realistic_rating,1169026,East Ladera,,50,East Ladera,Fictional,2,,,,,,,,,,,,,,,
null,,confidence_buffer,1169128,confidence_buffer,,null,,,,,,,,,,,,,,,,,,
2126.5,,pt2_unique_rating,1171256,East Ladera,,52,,,4,,,,,,,,,,,,,,,
null,,confidence_buffer,1171358,confidence_buffer,,null,,,,,,,,,,,,,,,,,,
1590.5999999046326,,pt2_memorable_rating,1172949,East Ladera,,51,,,3,,,,,,,,,,,,,,,
null,,confidence_buffer,1173050,confidence_buffer,,null,,,,,,,,,,,,,,,,,,
1696.2999997138977,,probe_rating,1174747,probe_rating,,53,,,,5,1,,,,,,,,,,,,,
null,,confidence_buffer,1174848,confidence_buffer,,null,,,,,,,,,,,,,,,,,,
1917.4000000953674,,recognition_phase,1176766,East Ladera,,49,,,,,,old,1,0.8958333333333334,,,,,,,,,,
null,,confidence_buffer,1176868,confidence_buffer,,null,,,,,,,,,,,,,,,,,,
null,,thebreak,1177369,break,,null,,,,,,,,,,,,,,,,,,
1767.3999996185303,,realistic_rating,1179137,West Palm Beach,,53,West Palm Beach,US,5,,,,,,,,,,,,,,,
null,,confidence_buffer,1179239,confidence_buffer,,null,,,,,,,,,,,,,,,,,,
682,,pt2_unique_rating,1179921,West Palm Beach,,53,,,5,,,,,,,,,,,,,,,
null,,confidence_buffer,1180022,confidence_buffer,,null,,,,,,,,,,,,,,,,,,
1053.5999999046326,,pt2_memorable_rating,1181076,West Palm Beach,,53,,,5,,,,,,,,,,,,,,,
null,,confidence_buffer,1181178,confidence_buffer,,null,,,,,,,,,,,,,,,,,,
6971.400000095367,,recognition_phase,1188150,West Palm Beach,,49,,,,,,old,1,0.8979591836734694,,,,,,,,,,
null,,confidence_buffer,1188252,confidence_buffer,,null,,,,,,,,,,,,,,,,,,
null,,thebreak,1188753,break,,null,,,,,,,,,,,,,,,,,,
7505.599999904633,,realistic_rating,1196259,Maravilla Springs,,51,Maravilla Springs,Fictional,3,,,,,,,,,,,,,,,
null,,confidence_buffer,1196360,confidence_buffer,,null,,,,,,,,,,,,,,,,,,
2383,,pt2_unique_rating,1198744,Maravilla Springs,,52,,,4,,,,,,,,,,,,,,,
null,,confidence_buffer,1198847,confidence_buffer,,null,,,,,,,,,,,,,,,,,,
2375.4000000953674,,pt2_memorable_rating,1201224,Maravilla Springs,,52,,,4,,,,,,,,,,,,,,,
null,,confidence_buffer,1201325,confidence_buffer,,null,,,,,,,,,,,,,,,,,,
1849.1999998092651,,recognition_phase,1203175,Maravilla Springs,,52,,,,,,new,1,0.9,,,,,,,,,,
null,,confidence_buffer,1203276,confidence_buffer,,null,,,,,,,,,,,,,,,,,,
null,,thebreak,1203778,break,,null,,,,,,,,,,,,,,,,,,
3803.0999999046326,,realistic_rating,1207582,Coralridge,,52,Coralridge,Fictional,4,,,,,,,,,,,,,,,
null,,confidence_buffer,1207683,confidence_buffer,,null,,,,,,,,,,,,,,,,,,
1585.7999997138977,,pt2_unique_rating,1209270,Coralridge,,52,,,4,,,,,,,,,,,,,,,
null,,confidence_buffer,1209371,confidence_buffer,,null,,,,,,,,,,,,,,,,,,
1415,,pt2_memorable_rating,1210787,Coralridge,,53,,,5,,,,,,,,,,,,,,,
null,,confidence_buffer,1210889,confidence_buffer,,null,,,,,,,,,,,,,,,,,,
1898.0999999046326,,recognition_phase,1212787,Coralridge,,52,,,,,,new,1,0.9019607843137255,,,,,,,,,,
null,,confidence_buffer,1212889,confidence_buffer,,null,,,,,,,,,,,,,,,,,,
null,,thebreak,1213391,break,,null,,,,,,,,,,,,,,,,,,
3527,,realistic_rating,1216919,Park City,,53,Park City,US,5,,,,,,,,,,,,,,,
null,,confidence_buffer,1217021,confidence_buffer,,null,,,,,,,,,,,,,,,,,,
1899.2000002861023,,pt2_unique_rating,1218921,Park City,,52,,,4,,,,,,,,,,,,,,,
null,,confidence_buffer,1219023,confidence_buffer,,null,,,,,,,,,,,,,,,,,,
1427.5999999046326,,pt2_memorable_rating,1220451,Park City,,53,,,5,,,,,,,,,,,,,,,
null,,confidence_buffer,1220552,confidence_buffer,,null,,,,,,,,,,,,,,,,,,
3381.800000190735,,recognition_phase,1223935,Park City,,52,,,,,,new,1,0.9038461538461539,,,,,,,,,,
null,,confidence_buffer,1224036,confidence_buffer,,null,,,,,,,,,,,,,,,,,,
null,,thebreak,1224543,break,,null,,,,,,,,,,,,,,,,,,
3984.6000003814697,,realistic_rating,1228528,Maplehurst,,50,Maplehurst,Fictional,2,,,,,,,,,,,,,,,
null,,confidence_buffer,1228629,confidence_buffer,,null,,,,,,,,,,,,,,,,,,
2413.5,,pt2_unique_rating,1231043,Maplehurst,,52,,,4,,,,,,,,,,,,,,,
null,,confidence_buffer,1231157,confidence_buffer,,null,,,,,,,,,,,,,,,,,,
2518.4000000953674,,pt2_memorable_rating,1233676,Maplehurst,,51,,,3,,,,,,,,,,,,,,,
null,,confidence_buffer,1233778,confidence_buffer,,null,,,,,,,,,,,,,,,,,,
2236.9000000953674,,recognition_phase,1236016,Maplehurst,,52,,,,,,new,1,0.9056603773584906,,,,,,,,,,
null,,confidence_buffer,1236117,confidence_buffer,,null,,,,,,,,,,,,,,,,,,
null,,thebreak,1236618,break,,null,,,,,,,,,,,,,,,,,,
4219.199999809265,,realistic_rating,1240838,Ravenport,,53,Ravenport,Fictional,5,,,,,,,,,,,,,,,
null,,confidence_buffer,1240940,confidence_buffer,,null,,,,,,,,,,,,,,,,,,
1460.8000001907349,,probe_rating,1242402,probe_rating,,49,,,,1,1,,,,,,,,,,,,,
null,,confidence_buffer,1242503,confidence_buffer,,null,,,,,,,,,,,,,,,,,,
2883.199999809265,,pt2_unique_rating,1245387,Ravenport,,51,,,3,,,,,,,,,,,,,,,
null,,confidence_buffer,1245488,confidence_buffer,,null,,,,,,,,,,,,,,,,,,
3244.800000190735,,pt2_memorable_rating,1248734,Ravenport,,53,,,5,,,,,,,,,,,,,,,
null,,confidence_buffer,1248838,confidence_buffer,,null,,,,,,,,,,,,,,,,,,
1788,,recognition_phase,1250627,Ravenport,,49,,,,,,old,1,0.9074074074074074,,,,,,,,,,
null,,confidence_buffer,1250729,confidence_buffer,,null,,,,,,,,,,,,,,,,,,
null,,thebreak,1251229,break,,null,,,,,,,,,,,,,,,,,,
2572.5999999046326,,realistic_rating,1253803,Yukon,,53,Yukon,US,5,,,,,,,,,,,,,,,
null,,confidence_buffer,1253904,confidence_buffer,,null,,,,,,,,,,,,,,,,,,
1403.1999998092651,,pt2_unique_rating,1255307,Yukon,,53,,,5,,,,,,,,,,,,,,,
null,,confidence_buffer,1255410,confidence_buffer,,null,,,,,,,,,,,,,,,,,,
1353.1999998092651,,pt2_memorable_rating,1256763,Yukon,,53,,,5,,,,,,,,,,,,,,,
null,,confidence_buffer,1256865,confidence_buffer,,null,,,,,,,,,,,,,,,,,,
1570.5,,probe_rating,1258436,probe_rating,,53,,,,5,1,,,,,,,,,,,,,
null,,confidence_buffer,1258538,confidence_buffer,,null,,,,,,,,,,,,,,,,,,
2623.199999809265,,recognition_phase,1261162,Yukon,,52,,,,,,new,1,0.9090909090909091,,,,,,,,,,
null,,confidence_buffer,1261264,confidence_buffer,,null,,,,,,,,,,,,,,,,,,
null,,thebreak,1261765,break,,null,,,,,,,,,,,,,,,,,,
9228.200000286102,,realistic_rating,1270995,Hot Springs,,53,Hot Springs,US,5,,,,,,,,,,,,,,,
null,,confidence_buffer,1271096,confidence_buffer,,null,,,,,,,,,,,,,,,,,,
2006.5,,pt2_unique_rating,1273104,Hot Springs,,53,,,5,,,,,,,,,,,,,,,
null,,confidence_buffer,1273205,confidence_buffer,,null,,,,,,,,,,,,,,,,,,
1647.5,,pt2_memorable_rating,1274854,Hot Springs,,53,,,5,,,,,,,,,,,,,,,
null,,confidence_buffer,1274955,confidence_buffer,,null,,,,,,,,,,,,,,,,,,
2847,,recognition_phase,1277803,Hot Springs,,52,,,,,,new,1,0.9107142857142857,,,,,,,,,,
null,,confidence_buffer,1277905,confidence_buffer,,null,,,,,,,,,,,,,,,,,,
null,,thebreak,1278407,break,,null,,,,,,,,,,,,,,,,,,
5417.900000095367,,realistic_rating,1283825,Leesburg,,53,Leesburg,US,5,,,,,,,,,,,,,,,
null,,confidence_buffer,1283928,confidence_buffer,,null,,,,,,,,,,,,,,,,,,
1350.1999998092651,,pt2_unique_rating,1285278,Leesburg,,52,,,4,,,,,,,,,,,,,,,
null,,confidence_buffer,1285379,confidence_buffer,,null,,,,,,,,,,,,,,,,,,
1840.5999999046326,,pt2_memorable_rating,1287221,Leesburg,,52,,,4,,,,,,,,,,,,,,,
null,,confidence_buffer,1287322,confidence_buffer,,null,,,,,,,,,,,,,,,,,,
1424.5,,probe_rating,1288748,probe_rating,,49,,,,1,1,,,,,,,,,,,,,
null,,confidence_buffer,1288849,confidence_buffer,,null,,,,,,,,,,,,,,,,,,
1541.5999999046326,,recognition_phase,1290392,Leesburg,,49,,,,,,old,1,0.9122807017543859,,,,,,,,,,
null,,confidence_buffer,1290494,confidence_buffer,,null,,,,,,,,,,,,,,,,,,
null,,thebreak,1290995,break,,null,,,,,,,,,,,,,,,,,,
4251.300000190735,,realistic_rating,1295247,Summershade,,50,Summershade,Fictional,2,,,,,,,,,,,,,,,
null,,confidence_buffer,1295349,confidence_buffer,,null,,,,,,,,,,,,,,,,,,
1546.0999999046326,,probe_rating,1296895,probe_rating,,51,,,,3,1,,,,,,,,,,,,,
null,,confidence_buffer,1296997,confidence_buffer,,null,,,,,,,,,,,,,,,,,,
7548,,pt2_unique_rating,1304546,Summershade,,53,,,5,,,,,,,,,,,,,,,
null,,confidence_buffer,1304647,confidence_buffer,,null,,,,,,,,,,,,,,,,,,
1468.8000001907349,,pt2_memorable_rating,1306117,Summershade,,52,,,4,,,,,,,,,,,,,,,
null,,confidence_buffer,1306219,confidence_buffer,,null,,,,,,,,,,,,,,,,,,
1543.2999997138977,,recognition_phase,1307763,Summershade,,52,,,,,,new,1,0.9137931034482759,,,,,,,,,,
null,,confidence_buffer,1307864,confidence_buffer,,null,,,,,,,,,,,,,,,,,,
null,,thebreak,1308365,break,,null,,,,,,,,,,,,,,,,,,
3271.2999997138977,,realistic_rating,1311637,Brookmere,,50,Brookmere,Fictional,2,,,,,,,,,,,,,,,
null,,confidence_buffer,1311739,confidence_buffer,,null,,,,,,,,,,,,,,,,,,
2077.2000002861023,,pt2_unique_rating,1313817,Brookmere,,53,,,5,,,,,,,,,,,,,,,
null,,confidence_buffer,1313919,confidence_buffer,,null,,,,,,,,,,,,,,,,,,
4439.900000095367,,pt2_memorable_rating,1318360,Brookmere,,51,,,3,,,,,,,,,,,,,,,
null,,confidence_buffer,1318461,confidence_buffer,,null,,,,,,,,,,,,,,,,,,
1779.6000003814697,,recognition_phase,1320242,Brookmere,,52,,,,,,new,1,0.9152542372881356,,,,,,,,,,
null,,confidence_buffer,1320344,confidence_buffer,,null,,,,,,,,,,,,,,,,,,
null,,thebreak,1320846,break,,null,,,,,,,,,,,,,,,,,,
3715.4000000953674,,realistic_rating,1324562,Orr,,50,Orr,US,2,,,,,,,,,,,,,,,
null,,confidence_buffer,1324664,confidence_buffer,,null,,,,,,,,,,,,,,,,,,
1501.6999998092651,,pt2_unique_rating,1326167,Orr,,53,,,5,,,,,,,,,,,,,,,
null,,confidence_buffer,1326269,confidence_buffer,,null,,,,,,,,,,,,,,,,,,
2273.5999999046326,,pt2_memorable_rating,1328543,Orr,,52,,,4,,,,,,,,,,,,,,,
null,,confidence_buffer,1328645,confidence_buffer,,null,,,,,,,,,,,,,,,,,,
1980.5,,recognition_phase,1330626,Orr,,52,,,,,,new,1,0.9166666666666666,,,,,,,,,,
null,,confidence_buffer,1330728,confidence_buffer,,null,,,,,,,,,,,,,,,,,,
null,,thebreak,1331229,break,,null,,,,,,,,,,,,,,,,,,
,,survey,1599416,survey-questions,,,,,,,,,,,,0,No.,I based my answers on whether or not I had heard the name before and I made an association with it.,I rated it higher on the metrics if I was familiar with the name.,I thought it was more memorable if it was familiar or sounded unique.,I rated the names I was familiar with as unique and also the names that I thought were unusual.,I thought the names were realistic if I was familiar with the name.,No.,No comments.
