rt,responses,trial_type,time_elapsed,stimulus,button_pressed,key_press,name_trial,city_type,rating,probe,probe_accuracy,response,correct,accuracy,problems,smooth,distraction,strategies,familiar,memorable,unique,realistic,similar,comments
5412,{worker_id:66f1a9b26134a9b4505f31b1},id_enter,5417,,,,,,,,,,,,,,,,,,,,,
31207.100000000093,,fullscreen,36631,fullscreen,0,,,,,,,,,,,,,,,,,,,
13806.700000000186,,intro_0,50442,instruct,,32,,,,,,,,,,,,,,,,,,
8251.700000000186,,intro_1,58696,instruct,,32,,,,,,,,,,,,,,,,,,
4693.600000000093,,intro_2,63391,instruct,,32,,,,,,,,,,,,,,,,,,
null,,instruct_dir_4,64903,instruct,,null,,,,,,,,,,,,,,,,,,
null,,thebreak,65411,break,,null,,,,,,,,,,,,,,,,,,
9787.799999999814,,familiar_rating,75202,New Hope,,49,New Hope,US,1,,,,,,,,,,,,,,,
null,,confidence_buffer,75309,confidence_buffer,,null,,,,,,,,,,,,,,,,,,
8444.900000000373,,unique_rating,83756,New Hope,,51,,,3,,,,,,,,,,,,,,,
null,,confidence_buffer,83859,confidence_buffer,,null,,,,,,,,,,,,,,,,,,
2689.100000000093,,memorable_rating,86549,New Hope,,51,,,3,,,,,,,,,,,,,,,
null,,confidence_buffer,86652,confidence_buffer,,null,,,,,,,,,,,,,,,,,,
null,,thebreak,87166,break,,null,,,,,,,,,,,,,,,,,,
1898.5999999996275,,familiar_rating,89066,Pine Hollow,,49,Pine Hollow,Fictional,1,,,,,,,,,,,,,,,
null,,confidence_buffer,89170,confidence_buffer,,null,,,,,,,,,,,,,,,,,,
1754.5999999996275,,probe_rating,90926,probe_rating,,50,,,,2,1,,,,,,,,,,,,,
null,,confidence_buffer,91035,confidence_buffer,,null,,,,,,,,,,,,,,,,,,
4078.899999999907,,unique_rating,95116,Pine Hollow,,51,,,3,,,,,,,,,,,,,,,
null,,confidence_buffer,95230,confidence_buffer,,null,,,,,,,,,,,,,,,,,,
1609.6000000000931,,memorable_rating,96842,Pine Hollow,,51,,,3,,,,,,,,,,,,,,,
null,,confidence_buffer,96944,confidence_buffer,,null,,,,,,,,,,,,,,,,,,
null,,thebreak,97458,break,,null,,,,,,,,,,,,,,,,,,
1371.3999999999069,,familiar_rating,98832,Custer,,49,Custer,US,1,,,,,,,,,,,,,,,
null,,confidence_buffer,98937,confidence_buffer,,null,,,,,,,,,,,,,,,,,,
2743.899999999907,,unique_rating,101683,Custer,,52,,,4,,,,,,,,,,,,,,,
null,,confidence_buffer,101791,confidence_buffer,,null,,,,,,,,,,,,,,,,,,
2296.100000000093,,memorable_rating,104089,Custer,,52,,,4,,,,,,,,,,,,,,,
null,,confidence_buffer,104199,confidence_buffer,,null,,,,,,,,,,,,,,,,,,
null,,thebreak,104708,break,,null,,,,,,,,,,,,,,,,,,
1331.4000000003725,,familiar_rating,106041,Manistee,,49,Manistee,US,1,,,,,,,,,,,,,,,
null,,confidence_buffer,106149,confidence_buffer,,null,,,,,,,,,,,,,,,,,,
3047.899999999907,,unique_rating,109198,Manistee,,53,,,5,,,,,,,,,,,,,,,
null,,confidence_buffer,109307,confidence_buffer,,null,,,,,,,,,,,,,,,,,,
2137.6999999997206,,memorable_rating,111446,Manistee,,52,,,4,,,,,,,,,,,,,,,
null,,confidence_buffer,111557,confidence_buffer,,null,,,,,,,,,,,,,,,,,,
null,,thebreak,112069,break,,null,,,,,,,,,,,,,,,,,,
1450.5999999996275,,familiar_rating,113522,Cedarwyn,,49,Cedarwyn,Fictional,1,,,,,,,,,,,,,,,
null,,confidence_buffer,113625,confidence_buffer,,null,,,,,,,,,,,,,,,,,,
1657.2999999998137,,unique_rating,115284,Cedarwyn,,52,,,4,,,,,,,,,,,,,,,
null,,confidence_buffer,115390,confidence_buffer,,null,,,,,,,,,,,,,,,,,,
1774.1000000000931,,memorable_rating,117166,Cedarwyn,,52,,,4,,,,,,,,,,,,,,,
null,,confidence_buffer,117273,confidence_buffer,,null,,,,,,,,,,,,,,,,,,
1124.7999999998137,,probe_rating,118400,probe_rating,,50,,,,2,1,,,,,,,,,,,,,
null,,confidence_buffer,118507,confidence_buffer,,null,,,,,,,,,,,,,,,,,,
null,,thebreak,119015,break,,null,,,,,,,,,,,,,,,,,,
1918.4000000003725,,familiar_rating,120936,Gardnerville,,49,Gardnerville,US,1,,,,,,,,,,,,,,,
null,,confidence_buffer,121040,confidence_buffer,,null,,,,,,,,,,,,,,,,,,
4077.6999999997206,,probe_rating,125120,probe_rating,,52,,,,4,1,,,,,,,,,,,,,
null,,confidence_buffer,125235,confidence_buffer,,null,,,,,,,,,,,,,,,,,,
3865.5999999996275,,unique_rating,129102,Gardnerville,,51,,,3,,,,,,,,,,,,,,,
null,,confidence_buffer,129221,confidence_buffer,,null,,,,,,,,,,,,,,,,,,
2610.899999999907,,memorable_rating,131834,Gardnerville,,51,,,3,,,,,,,,,,,,,,,
null,,confidence_buffer,131944,confidence_buffer,,null,,,,,,,,,,,,,,,,,,
null,,thebreak,132446,break,,null,,,,,,,,,,,,,,,,,,
2599.6999999997206,,familiar_rating,135048,Delaware City,,50,Delaware City,US,2,,,,,,,,,,,,,,,
null,,confidence_buffer,135153,confidence_buffer,,null,,,,,,,,,,,,,,,,,,
4255.399999999907,,unique_rating,139410,Delaware City,,49,,,1,,,,,,,,,,,,,,,
null,,confidence_buffer,139516,confidence_buffer,,null,,,,,,,,,,,,,,,,,,
2801.5,,memorable_rating,142319,Delaware City,,50,,,2,,,,,,,,,,,,,,,
null,,confidence_buffer,142427,confidence_buffer,,null,,,,,,,,,,,,,,,,,,
null,,thebreak,142945,break,,null,,,,,,,,,,,,,,,,,,
1312.2999999998137,,familiar_rating,144259,Elmsbury,,49,Elmsbury,Fictional,1,,,,,,,,,,,,,,,
null,,confidence_buffer,144362,confidence_buffer,,null,,,,,,,,,,,,,,,,,,
2818,,unique_rating,147183,Elmsbury,,51,,,3,,,,,,,,,,,,,,,
null,,confidence_buffer,147289,confidence_buffer,,null,,,,,,,,,,,,,,,,,,
1138,,memorable_rating,148429,Elmsbury,,51,,,3,,,,,,,,,,,,,,,
null,,confidence_buffer,148533,confidence_buffer,,null,,,,,,,,,,,,,,,,,,
null,,thebreak,149037,break,,null,,,,,,,,,,,,,,,,,,
1801.7000000001863,,familiar_rating,150841,Newport,,51,Newport,US,3,,,,,,,,,,,,,,,
null,,confidence_buffer,150954,confidence_buffer,,null,,,,,,,,,,,,,,,,,,
4398.899999999907,,unique_rating,155355,Newport,,50,,,2,,,,,,,,,,,,,,,
null,,confidence_buffer,155457,confidence_buffer,,null,,,,,,,,,,,,,,,,,,
1727.3000000002794,,memorable_rating,157186,Newport,,51,,,3,,,,,,,,,,,,,,,
null,,confidence_buffer,157296,confidence_buffer,,null,,,,,,,,,,,,,,,,,,
null,,thebreak,157816,break,,null,,,,,,,,,,,,,,,,,,
2386,,familiar_rating,160204,Summershade,,49,Summershade,Fictional,1,,,,,,,,,,,,,,,
null,,confidence_buffer,160321,confidence_buffer,,null,,,,,,,,,,,,,,,,,,
4911.600000000093,,unique_rating,165235,Summershade,,50,,,2,,,,,,,,,,,,,,,
null,,confidence_buffer,165339,confidence_buffer,,null,,,,,,,,,,,,,,,,,,
2048.7000000001863,,memorable_rating,167389,Summershade,,50,,,2,,,,,,,,,,,,,,,
null,,confidence_buffer,167499,confidence_buffer,,null,,,,,,,,,,,,,,,,,,
null,,thebreak,168017,break,,null,,,,,,,,,,,,,,,,,,
1599.3999999999069,,familiar_rating,169618,Westridge,,49,Westridge,Fictional,1,,,,,,,,,,,,,,,
null,,confidence_buffer,169729,confidence_buffer,,null,,,,,,,,,,,,,,,,,,
1339.5,,probe_rating,171072,probe_rating,,52,,,,4,1,,,,,,,,,,,,,
null,,confidence_buffer,171187,confidence_buffer,,null,,,,,,,,,,,,,,,,,,
2532.7000000001863,,unique_rating,173722,Westridge,,50,,,2,,,,,,,,,,,,,,,
null,,confidence_buffer,173827,confidence_buffer,,null,,,,,,,,,,,,,,,,,,
1542.8000000002794,,memorable_rating,175372,Westridge,,50,,,2,,,,,,,,,,,,,,,
null,,confidence_buffer,175492,confidence_buffer,,null,,,,,,,,,,,,,,,,,,
null,,thebreak,176000,break,,null,,,,,,,,,,,,,,,,,,
1492,,familiar_rating,177496,Claywater,,49,Claywater,Fictional,1,,,,,,,,,,,,,,,
null,,confidence_buffer,177612,confidence_buffer,,null,,,,,,,,,,,,,,,,,,
3116.100000000093,,unique_rating,180730,Claywater,,51,,,3,,,,,,,,,,,,,,,
null,,confidence_buffer,180838,confidence_buffer,,null,,,,,,,,,,,,,,,,,,
1737.7000000001863,,memorable_rating,182577,Claywater,,51,,,3,,,,,,,,,,,,,,,
null,,confidence_buffer,182687,confidence_buffer,,null,,,,,,,,,,,,,,,,,,
null,,thebreak,183199,break,,null,,,,,,,,,,,,,,,,,,
3982.2999999998137,,familiar_rating,187183,Bowling Green,,51,Bowling Green,US,3,,,,,,,,,,,,,,,
null,,confidence_buffer,187300,confidence_buffer,,null,,,,,,,,,,,,,,,,,,
1617.3999999999069,,unique_rating,188919,Bowling Green,,52,,,4,,,,,,,,,,,,,,,
null,,confidence_buffer,189029,confidence_buffer,,null,,,,,,,,,,,,,,,,,,
1354.2999999998137,,memorable_rating,190387,Bowling Green,,52,,,4,,,,,,,,,,,,,,,
null,,confidence_buffer,190505,confidence_buffer,,null,,,,,,,,,,,,,,,,,,
null,,thebreak,191008,break,,null,,,,,,,,,,,,,,,,,,
1183.1000000000931,,familiar_rating,192193,Duck,,49,Duck,US,1,,,,,,,,,,,,,,,
null,,confidence_buffer,192305,confidence_buffer,,null,,,,,,,,,,,,,,,,,,
1914.3999999999069,,unique_rating,194221,Duck,,49,,,1,,,,,,,,,,,,,,,
null,,confidence_buffer,194336,confidence_buffer,,null,,,,,,,,,,,,,,,,,,
1364.7999999998137,,memorable_rating,195702,Duck,,49,,,1,,,,,,,,,,,,,,,
null,,confidence_buffer,195806,confidence_buffer,,null,,,,,,,,,,,,,,,,,,
null,,thebreak,196327,break,,null,,,,,,,,,,,,,,,,,,
2526.5,,familiar_rating,198856,Lake of the Ozarks,,52,Lake of the Ozarks,US,4,,,,,,,,,,,,,,,
null,,confidence_buffer,198966,confidence_buffer,,null,,,,,,,,,,,,,,,,,,
4265.5,,unique_rating,203233,Lake of the Ozarks,,49,,,1,,,,,,,,,,,,,,,
null,,confidence_buffer,203338,confidence_buffer,,null,,,,,,,,,,,,,,,,,,
2240.2999999998137,,memorable_rating,205580,Lake of the Ozarks,,51,,,3,,,,,,,,,,,,,,,
null,,confidence_buffer,205695,confidence_buffer,,null,,,,,,,,,,,,,,,,,,
null,,thebreak,206201,break,,null,,,,,,,,,,,,,,,,,,
2570.5,,familiar_rating,208773,Hot Springs,,50,Hot Springs,US,2,,,,,,,,,,,,,,,
null,,confidence_buffer,208883,confidence_buffer,,null,,,,,,,,,,,,,,,,,,
1844.8000000002794,,unique_rating,210729,Hot Springs,,49,,,1,,,,,,,,,,,,,,,
null,,confidence_buffer,210838,confidence_buffer,,null,,,,,,,,,,,,,,,,,,
1680,,memorable_rating,212519,Hot Springs,,49,,,1,,,,,,,,,,,,,,,
null,,confidence_buffer,212632,confidence_buffer,,null,,,,,,,,,,,,,,,,,,
null,,thebreak,213143,break,,null,,,,,,,,,,,,,,,,,,
2915.600000000093,,familiar_rating,216061,Tamarisk Hills,,49,Tamarisk Hills,Fictional,1,,,,,,,,,,,,,,,
null,,confidence_buffer,216172,confidence_buffer,,null,,,,,,,,,,,,,,,,,,
1509.8000000002794,,unique_rating,217684,Tamarisk Hills,,50,,,2,,,,,,,,,,,,,,,
null,,confidence_buffer,217799,confidence_buffer,,null,,,,,,,,,,,,,,,,,,
1271.1000000000931,,memorable_rating,219072,Tamarisk Hills,,50,,,2,,,,,,,,,,,,,,,
null,,confidence_buffer,219178,confidence_buffer,,null,,,,,,,,,,,,,,,,,,
null,,thebreak,219680,break,,null,,,,,,,,,,,,,,,,,,
1136.7000000001863,,familiar_rating,220819,North Arroya,,49,North Arroya,Fictional,1,,,,,,,,,,,,,,,
null,,confidence_buffer,220934,confidence_buffer,,null,,,,,,,,,,,,,,,,,,
1476.0999999996275,,unique_rating,222411,North Arroya,,50,,,2,,,,,,,,,,,,,,,
null,,confidence_buffer,222521,confidence_buffer,,null,,,,,,,,,,,,,,,,,,
1388.5999999996275,,memorable_rating,223911,North Arroya,,50,,,2,,,,,,,,,,,,,,,
null,,confidence_buffer,224022,confidence_buffer,,null,,,,,,,,,,,,,,,,,,
null,,thebreak,224526,break,,null,,,,,,,,,,,,,,,,,,
1878.1999999997206,,familiar_rating,226406,Northbridge,,49,Northbridge,Fictional,1,,,,,,,,,,,,,,,
null,,confidence_buffer,226513,confidence_buffer,,null,,,,,,,,,,,,,,,,,,
1786.5999999996275,,unique_rating,228301,Northbridge,,49,,,1,,,,,,,,,,,,,,,
null,,confidence_buffer,228416,confidence_buffer,,null,,,,,,,,,,,,,,,,,,
1000.1000000000931,,memorable_rating,229418,Northbridge,,49,,,1,,,,,,,,,,,,,,,
null,,confidence_buffer,229522,confidence_buffer,,null,,,,,,,,,,,,,,,,,,
null,,thebreak,230027,break,,null,,,,,,,,,,,,,,,,,,
1260.5999999996275,,familiar_rating,231290,Bisbee,,49,Bisbee,US,1,,,,,,,,,,,,,,,
null,,confidence_buffer,231394,confidence_buffer,,null,,,,,,,,,,,,,,,,,,
5296.200000000186,,unique_rating,236692,Bisbee,,51,,,3,,,,,,,,,,,,,,,
null,,confidence_buffer,236800,confidence_buffer,,null,,,,,,,,,,,,,,,,,,
1337.3999999999069,,memorable_rating,238139,Bisbee,,51,,,3,,,,,,,,,,,,,,,
null,,confidence_buffer,238247,confidence_buffer,,null,,,,,,,,,,,,,,,,,,
null,,thebreak,238766,break,,null,,,,,,,,,,,,,,,,,,
1540.1999999997206,,familiar_rating,240308,Falconridge,,49,Falconridge,Fictional,1,,,,,,,,,,,,,,,
null,,confidence_buffer,240417,confidence_buffer,,null,,,,,,,,,,,,,,,,,,
951.1000000000931,,unique_rating,241370,Falconridge,,49,,,1,,,,,,,,,,,,,,,
null,,confidence_buffer,241474,confidence_buffer,,null,,,,,,,,,,,,,,,,,,
2897.7999999998137,,memorable_rating,244373,Falconridge,,50,,,2,,,,,,,,,,,,,,,
null,,confidence_buffer,244479,confidence_buffer,,null,,,,,,,,,,,,,,,,,,
null,,thebreak,244984,break,,null,,,,,,,,,,,,,,,,,,
1880.6000000000931,,familiar_rating,246867,Alliance,,49,Alliance,US,1,,,,,,,,,,,,,,,
null,,confidence_buffer,246971,confidence_buffer,,null,,,,,,,,,,,,,,,,,,
710.8999999999069,,unique_rating,247684,Alliance,,49,,,1,,,,,,,,,,,,,,,
null,,confidence_buffer,247788,confidence_buffer,,null,,,,,,,,,,,,,,,,,,
1151.8999999999069,,memorable_rating,248942,Alliance,,49,,,1,,,,,,,,,,,,,,,
null,,confidence_buffer,249058,confidence_buffer,,null,,,,,,,,,,,,,,,,,,
null,,thebreak,249569,break,,null,,,,,,,,,,,,,,,,,,
2910.2999999998137,,familiar_rating,252481,Coralridge,,49,Coralridge,Fictional,1,,,,,,,,,,,,,,,
null,,confidence_buffer,252585,confidence_buffer,,null,,,,,,,,,,,,,,,,,,
3177,,unique_rating,255764,Coralridge,,51,,,3,,,,,,,,,,,,,,,
null,,confidence_buffer,255880,confidence_buffer,,null,,,,,,,,,,,,,,,,,,
2844.5,,memorable_rating,258726,Coralridge,,50,,,2,,,,,,,,,,,,,,,
null,,confidence_buffer,258837,confidence_buffer,,null,,,,,,,,,,,,,,,,,,
null,,thebreak,259345,break,,null,,,,,,,,,,,,,,,,,,
2208.600000000093,,familiar_rating,261556,Ironwood Heights,,49,Ironwood Heights,Fictional,1,,,,,,,,,,,,,,,
null,,confidence_buffer,261664,confidence_buffer,,null,,,,,,,,,,,,,,,,,,
974.0999999996275,,unique_rating,262642,Ironwood Heights,,50,,,2,,,,,,,,,,,,,,,
null,,confidence_buffer,262751,confidence_buffer,,null,,,,,,,,,,,,,,,,,,
1644.8000000002794,,memorable_rating,264398,Ironwood Heights,,50,,,2,,,,,,,,,,,,,,,
null,,confidence_buffer,264501,confidence_buffer,,null,,,,,,,,,,,,,,,,,,
null,,thebreak,265009,break,,null,,,,,,,,,,,,,,,,,,
2542.0999999996275,,familiar_rating,267553,Abilene,,52,Abilene,US,4,,,,,,,,,,,,,,,
null,,confidence_buffer,267655,confidence_buffer,,null,,,,,,,,,,,,,,,,,,
4681.199999999721,,unique_rating,272338,Abilene,,51,,,3,,,,,,,,,,,,,,,
null,,confidence_buffer,272456,confidence_buffer,,null,,,,,,,,,,,,,,,,,,
1062.8999999999069,,memorable_rating,273521,Abilene,,51,,,3,,,,,,,,,,,,,,,
null,,confidence_buffer,273637,confidence_buffer,,null,,,,,,,,,,,,,,,,,,
null,,thebreak,274142,break,,null,,,,,,,,,,,,,,,,,,
1754.7000000001863,,familiar_rating,275899,Millstone,,49,Millstone,Fictional,1,,,,,,,,,,,,,,,
null,,confidence_buffer,276010,confidence_buffer,,null,,,,,,,,,,,,,,,,,,
2393.600000000093,,unique_rating,278405,Millstone,,50,,,2,,,,,,,,,,,,,,,
null,,confidence_buffer,278518,confidence_buffer,,null,,,,,,,,,,,,,,,,,,
1276.3999999999069,,memorable_rating,279796,Millstone,,50,,,2,,,,,,,,,,,,,,,
null,,confidence_buffer,279906,confidence_buffer,,null,,,,,,,,,,,,,,,,,,
null,,thebreak,280418,break,,null,,,,,,,,,,,,,,,,,,
1310.5999999996275,,familiar_rating,281730,Watkins Glen,,49,Watkins Glen,US,1,,,,,,,,,,,,,,,
null,,confidence_buffer,281846,confidence_buffer,,null,,,,,,,,,,,,,,,,,,
1401.0999999996275,,unique_rating,283249,Watkins Glen,,50,,,2,,,,,,,,,,,,,,,
null,,confidence_buffer,283351,confidence_buffer,,null,,,,,,,,,,,,,,,,,,
659.2000000001863,,memorable_rating,284012,Watkins Glen,,50,,,2,,,,,,,,,,,,,,,
null,,confidence_buffer,284120,confidence_buffer,,null,,,,,,,,,,,,,,,,,,
null,,thebreak,284630,break,,null,,,,,,,,,,,,,,,,,,
4523.300000000279,,familiar_rating,289156,Gatlinburg,,51,Gatlinburg,US,3,,,,,,,,,,,,,,,
null,,confidence_buffer,289260,confidence_buffer,,null,,,,,,,,,,,,,,,,,,
1906,,unique_rating,291168,Gatlinburg,,51,,,3,,,,,,,,,,,,,,,
null,,confidence_buffer,291285,confidence_buffer,,null,,,,,,,,,,,,,,,,,,
1532,,memorable_rating,292818,Gatlinburg,,51,,,3,,,,,,,,,,,,,,,
null,,confidence_buffer,292921,confidence_buffer,,null,,,,,,,,,,,,,,,,,,
null,,thebreak,293430,break,,null,,,,,,,,,,,,,,,,,,
1271,,familiar_rating,294703,Hollendale,,49,Hollendale,Fictional,1,,,,,,,,,,,,,,,
null,,confidence_buffer,294806,confidence_buffer,,null,,,,,,,,,,,,,,,,,,
2280.7999999998137,,unique_rating,297089,Hollendale,,50,,,2,,,,,,,,,,,,,,,
null,,confidence_buffer,297193,confidence_buffer,,null,,,,,,,,,,,,,,,,,,
826.6000000000931,,memorable_rating,298021,Hollendale,,50,,,2,,,,,,,,,,,,,,,
null,,confidence_buffer,298137,confidence_buffer,,null,,,,,,,,,,,,,,,,,,
null,,thebreak,298652,break,,null,,,,,,,,,,,,,,,,,,
871.2999999998137,,familiar_rating,299525,Ashford Hills,,49,Ashford Hills,Fictional,1,,,,,,,,,,,,,,,
null,,confidence_buffer,299640,confidence_buffer,,null,,,,,,,,,,,,,,,,,,
3026.399999999907,,unique_rating,302668,Ashford Hills,,50,,,2,,,,,,,,,,,,,,,
null,,confidence_buffer,302774,confidence_buffer,,null,,,,,,,,,,,,,,,,,,
1259.3999999999069,,memorable_rating,304035,Ashford Hills,,50,,,2,,,,,,,,,,,,,,,
null,,confidence_buffer,304139,confidence_buffer,,null,,,,,,,,,,,,,,,,,,
null,,thebreak,304645,break,,null,,,,,,,,,,,,,,,,,,
9862.399999999907,,intro_0,314509,instruct,,32,,,,,,,,,,,,,,,,,,
6625.200000000186,,intro_1,321136,instruct,,32,,,,,,,,,,,,,,,,,,
21806,,intro_2,342943,instruct,,32,,,,,,,,,,,,,,,,,,
null,,instruct_dir_4,344460,instruct,,null,,,,,,,,,,,,,,,,,,
9425.899999999907,,realistic_rating,353887,Falconridge,,52,Falconridge,Fictional,4,,,,,,,,,,,,,,,
null,,confidence_buffer,353996,confidence_buffer,,null,,,,,,,,,,,,,,,,,,
1753.8000000002794,,pt2_unique_rating,355752,Falconridge,,51,,,3,,,,,,,,,,,,,,,
null,,confidence_buffer,355857,confidence_buffer,,null,,,,,,,,,,,,,,,,,,
1187.3999999999069,,pt2_memorable_rating,357047,Falconridge,,51,,,3,,,,,,,,,,,,,,,
null,,confidence_buffer,357152,confidence_buffer,,null,,,,,,,,,,,,,,,,,,
2761.2000000001863,,recognition_phase,359918,Falconridge,,49,,,,,,old,1,1,,,,,,,,,,
null,,confidence_buffer,360024,confidence_buffer,,null,,,,,,,,,,,,,,,,,,
null,,thebreak,360535,break,,null,,,,,,,,,,,,,,,,,,
3975.7000000001863,,realistic_rating,364513,Watkins Glen,,51,Watkins Glen,US,3,,,,,,,,,,,,,,,
null,,confidence_buffer,364624,confidence_buffer,,null,,,,,,,,,,,,,,,,,,
5834.600000000093,,pt2_unique_rating,370460,Watkins Glen,,51,,,3,,,,,,,,,,,,,,,
null,,confidence_buffer,370569,confidence_buffer,,null,,,,,,,,,,,,,,,,,,
1829.3000000002794,,pt2_memorable_rating,372400,Watkins Glen,,51,,,3,,,,,,,,,,,,,,,
null,,confidence_buffer,372503,confidence_buffer,,null,,,,,,,,,,,,,,,,,,
1398.1999999997206,,recognition_phase,373903,Watkins Glen,,49,,,,,,old,1,1,,,,,,,,,,
null,,confidence_buffer,374006,confidence_buffer,,null,,,,,,,,,,,,,,,,,,
null,,thebreak,374519,break,,null,,,,,,,,,,,,,,,,,,
2517.399999999907,,realistic_rating,377039,Coralridge,,50,Coralridge,Fictional,2,,,,,,,,,,,,,,,
null,,confidence_buffer,377142,confidence_buffer,,null,,,,,,,,,,,,,,,,,,
3269.4000000003725,,pt2_unique_rating,380413,Coralridge,,51,,,3,,,,,,,,,,,,,,,
null,,confidence_buffer,380517,confidence_buffer,,null,,,,,,,,,,,,,,,,,,
1173.6000000000931,,pt2_memorable_rating,381692,Coralridge,,51,,,3,,,,,,,,,,,,,,,
null,,confidence_buffer,381808,confidence_buffer,,null,,,,,,,,,,,,,,,,,,
1887.7999999998137,,probe_rating,383698,probe_rating,,51,,,,3,1,,,,,,,,,,,,,
null,,confidence_buffer,383807,confidence_buffer,,null,,,,,,,,,,,,,,,,,,
1818,,recognition_phase,385627,Coralridge,,49,,,,,,old,1,1,,,,,,,,,,
null,,confidence_buffer,385734,confidence_buffer,,null,,,,,,,,,,,,,,,,,,
null,,thebreak,386253,break,,null,,,,,,,,,,,,,,,,,,
5031.399999999907,,realistic_rating,391286,Alliance,,51,Alliance,US,3,,,,,,,,,,,,,,,
null,,confidence_buffer,391395,confidence_buffer,,null,,,,,,,,,,,,,,,,,,
1667.3999999999069,,pt2_unique_rating,393064,Alliance,,49,,,1,,,,,,,,,,,,,,,
null,,confidence_buffer,393169,confidence_buffer,,null,,,,,,,,,,,,,,,,,,
1906.3999999999069,,pt2_memorable_rating,395077,Alliance,,49,,,1,,,,,,,,,,,,,,,
null,,confidence_buffer,395181,confidence_buffer,,null,,,,,,,,,,,,,,,,,,
1049.1000000000931,,recognition_phase,396232,Alliance,,49,,,,,,old,1,1,,,,,,,,,,
null,,confidence_buffer,396336,confidence_buffer,,null,,,,,,,,,,,,,,,,,,
null,,thebreak,396839,break,,null,,,,,,,,,,,,,,,,,,
5808.799999999814,,realistic_rating,402650,Hilo,,50,Hilo,US,2,,,,,,,,,,,,,,,
null,,confidence_buffer,402759,confidence_buffer,,null,,,,,,,,,,,,,,,,,,
1831.0999999996275,,pt2_unique_rating,404592,Hilo,,51,,,3,,,,,,,,,,,,,,,
null,,confidence_buffer,404697,confidence_buffer,,null,,,,,,,,,,,,,,,,,,
757.6000000000931,,pt2_memorable_rating,405457,Hilo,,51,,,3,,,,,,,,,,,,,,,
null,,confidence_buffer,405560,confidence_buffer,,null,,,,,,,,,,,,,,,,,,
2034,,recognition_phase,407596,Hilo,,52,,,,,,new,1,1,,,,,,,,,,
null,,confidence_buffer,407703,confidence_buffer,,null,,,,,,,,,,,,,,,,,,
null,,thebreak,408218,break,,null,,,,,,,,,,,,,,,,,,
6474.0999999996275,,realistic_rating,414694,Claywater,,50,Claywater,Fictional,2,,,,,,,,,,,,,,,
null,,confidence_buffer,414807,confidence_buffer,,null,,,,,,,,,,,,,,,,,,
2921.5,,pt2_unique_rating,417730,Claywater,,51,,,3,,,,,,,,,,,,,,,
null,,confidence_buffer,417833,confidence_buffer,,null,,,,,,,,,,,,,,,,,,
607.4000000003725,,pt2_memorable_rating,418442,Claywater,,51,,,3,,,,,,,,,,,,,,,
null,,confidence_buffer,418553,confidence_buffer,,null,,,,,,,,,,,,,,,,,,
3168,,recognition_phase,421724,Claywater,,50,,,,,,old,1,1,,,,,,,,,,
null,,confidence_buffer,421836,confidence_buffer,,null,,,,,,,,,,,,,,,,,,
null,,thebreak,422349,break,,null,,,,,,,,,,,,,,,,,,
3207,,realistic_rating,425557,San Antonio,,53,San Antonio,US,5,,,,,,,,,,,,,,,
null,,confidence_buffer,425675,confidence_buffer,,null,,,,,,,,,,,,,,,,,,
4128.100000000093,,pt2_unique_rating,429805,San Antonio,,53,,,5,,,,,,,,,,,,,,,
null,,confidence_buffer,429908,confidence_buffer,,null,,,,,,,,,,,,,,,,,,
744.8999999999069,,pt2_memorable_rating,430655,San Antonio,,53,,,5,,,,,,,,,,,,,,,
null,,confidence_buffer,430769,confidence_buffer,,null,,,,,,,,,,,,,,,,,,
2303.399999999907,,recognition_phase,433075,San Antonio,,52,,,,,,new,1,1,,,,,,,,,,
null,,confidence_buffer,433181,confidence_buffer,,null,,,,,,,,,,,,,,,,,,
null,,thebreak,433686,break,,null,,,,,,,,,,,,,,,,,,
2867.399999999907,,realistic_rating,436555,Millstone,,51,Millstone,Fictional,3,,,,,,,,,,,,,,,
null,,confidence_buffer,436660,confidence_buffer,,null,,,,,,,,,,,,,,,,,,
1057.5,,pt2_unique_rating,437719,Millstone,,51,,,3,,,,,,,,,,,,,,,
null,,confidence_buffer,437836,confidence_buffer,,null,,,,,,,,,,,,,,,,,,
1159,,pt2_memorable_rating,438996,Millstone,,51,,,3,,,,,,,,,,,,,,,
null,,confidence_buffer,439105,confidence_buffer,,null,,,,,,,,,,,,,,,,,,
3538.3000000002794,,recognition_phase,442646,Millstone,,50,,,,,,old,1,1,,,,,,,,,,
null,,confidence_buffer,442753,confidence_buffer,,null,,,,,,,,,,,,,,,,,,
null,,thebreak,443270,break,,null,,,,,,,,,,,,,,,,,,
3912.1999999997206,,realistic_rating,447184,Newport,,53,Newport,US,5,,,,,,,,,,,,,,,
null,,confidence_buffer,447298,confidence_buffer,,null,,,,,,,,,,,,,,,,,,
1950.8000000002794,,pt2_unique_rating,449251,Newport,,51,,,3,,,,,,,,,,,,,,,
null,,confidence_buffer,449357,confidence_buffer,,null,,,,,,,,,,,,,,,,,,
1705.8999999999069,,pt2_memorable_rating,451064,Newport,,51,,,3,,,,,,,,,,,,,,,
null,,confidence_buffer,451171,confidence_buffer,,null,,,,,,,,,,,,,,,,,,
1191.5,,recognition_phase,452364,Newport,,49,,,,,,old,1,1,,,,,,,,,,
null,,confidence_buffer,452470,confidence_buffer,,null,,,,,,,,,,,,,,,,,,
null,,thebreak,452983,break,,null,,,,,,,,,,,,,,,,,,
3632.100000000093,,realistic_rating,456620,Briarfield,,51,Briarfield,Fictional,3,,,,,,,,,,,,,,,
null,,confidence_buffer,456735,confidence_buffer,,null,,,,,,,,,,,,,,,,,,
1326.8999999999069,,pt2_unique_rating,458063,Briarfield,,51,,,3,,,,,,,,,,,,,,,
null,,confidence_buffer,458168,confidence_buffer,,null,,,,,,,,,,,,,,,,,,
1513.7999999998137,,pt2_memorable_rating,459683,Briarfield,,51,,,3,,,,,,,,,,,,,,,
null,,confidence_buffer,459789,confidence_buffer,,null,,,,,,,,,,,,,,,,,,
1787.7999999998137,,recognition_phase,461578,Briarfield,,52,,,,,,new,1,1,,,,,,,,,,
null,,confidence_buffer,461686,confidence_buffer,,null,,,,,,,,,,,,,,,,,,
null,,thebreak,462201,break,,null,,,,,,,,,,,,,,,,,,
3817.2999999998137,,realistic_rating,466020,Folly Beach,,52,Folly Beach,US,4,,,,,,,,,,,,,,,
null,,confidence_buffer,466136,confidence_buffer,,null,,,,,,,,,,,,,,,,,,
983.4000000003725,,pt2_unique_rating,467121,Folly Beach,,52,,,4,,,,,,,,,,,,,,,
null,,confidence_buffer,467229,confidence_buffer,,null,,,,,,,,,,,,,,,,,,
940.7999999998137,,pt2_memorable_rating,468172,Folly Beach,,52,,,4,,,,,,,,,,,,,,,
null,,confidence_buffer,468275,confidence_buffer,,null,,,,,,,,,,,,,,,,,,
1160.8999999999069,,recognition_phase,469438,Folly Beach,,52,,,,,,new,1,1,,,,,,,,,,
null,,confidence_buffer,469542,confidence_buffer,,null,,,,,,,,,,,,,,,,,,
null,,thebreak,470048,break,,null,,,,,,,,,,,,,,,,,,
3063.6999999997206,,realistic_rating,473114,Golden Trace,,51,Golden Trace,Fictional,3,,,,,,,,,,,,,,,
null,,confidence_buffer,473224,confidence_buffer,,null,,,,,,,,,,,,,,,,,,
2603.7999999998137,,pt2_unique_rating,475830,Golden Trace,,51,,,3,,,,,,,,,,,,,,,
null,,confidence_buffer,475935,confidence_buffer,,null,,,,,,,,,,,,,,,,,,
1359.7999999998137,,pt2_memorable_rating,477297,Golden Trace,,50,,,2,,,,,,,,,,,,,,,
null,,confidence_buffer,477403,confidence_buffer,,null,,,,,,,,,,,,,,,,,,
1500,,recognition_phase,478904,Golden Trace,,52,,,,,,new,1,1,,,,,,,,,,
null,,confidence_buffer,479008,confidence_buffer,,null,,,,,,,,,,,,,,,,,,
null,,thebreak,479510,break,,null,,,,,,,,,,,,,,,,,,
5363.600000000093,,realistic_rating,484875,Peoria,,51,Peoria,US,3,,,,,,,,,,,,,,,
null,,confidence_buffer,484986,confidence_buffer,,null,,,,,,,,,,,,,,,,,,
1699.5,,pt2_unique_rating,486687,Peoria,,51,,,3,,,,,,,,,,,,,,,
null,,confidence_buffer,486792,confidence_buffer,,null,,,,,,,,,,,,,,,,,,
1385,,pt2_memorable_rating,488178,Peoria,,52,,,4,,,,,,,,,,,,,,,
null,,confidence_buffer,488283,confidence_buffer,,null,,,,,,,,,,,,,,,,,,
1999.7999999998137,,recognition_phase,490285,Peoria,,52,,,,,,new,1,1,,,,,,,,,,
null,,confidence_buffer,490391,confidence_buffer,,null,,,,,,,,,,,,,,,,,,
null,,thebreak,490901,break,,null,,,,,,,,,,,,,,,,,,
2471.399999999907,,realistic_rating,493377,Orchard Bend,,50,Orchard Bend,Fictional,2,,,,,,,,,,,,,,,
null,,confidence_buffer,493485,confidence_buffer,,null,,,,,,,,,,,,,,,,,,
1605.5999999996275,,probe_rating,495093,probe_rating,,49,,,,1,1,,,,,,,,,,,,,
null,,confidence_buffer,495200,confidence_buffer,,null,,,,,,,,,,,,,,,,,,
3476.6999999997206,,pt2_unique_rating,498680,Orchard Bend,,51,,,3,,,,,,,,,,,,,,,
null,,confidence_buffer,498784,confidence_buffer,,null,,,,,,,,,,,,,,,,,,
1419.3999999999069,,pt2_memorable_rating,500206,Orchard Bend,,51,,,3,,,,,,,,,,,,,,,
null,,confidence_buffer,500320,confidence_buffer,,null,,,,,,,,,,,,,,,,,,
3734.2000000001863,,recognition_phase,504056,Orchard Bend,,51,,,,,,new,1,1,,,,,,,,,,
null,,confidence_buffer,504161,confidence_buffer,,null,,,,,,,,,,,,,,,,,,
null,,thebreak,504667,break,,null,,,,,,,,,,,,,,,,,,
3772.7000000001863,,realistic_rating,508442,Delaware City,,53,Delaware City,US,5,,,,,,,,,,,,,,,
null,,confidence_buffer,508559,confidence_buffer,,null,,,,,,,,,,,,,,,,,,
2405.5,,pt2_unique_rating,510966,Delaware City,,49,,,1,,,,,,,,,,,,,,,
null,,confidence_buffer,511076,confidence_buffer,,null,,,,,,,,,,,,,,,,,,
3385.399999999907,,pt2_memorable_rating,514463,Delaware City,,50,,,2,,,,,,,,,,,,,,,
null,,confidence_buffer,514576,confidence_buffer,,null,,,,,,,,,,,,,,,,,,
1642.5,,probe_rating,516220,probe_rating,,52,,,,4,1,,,,,,,,,,,,,
null,,confidence_buffer,516336,confidence_buffer,,null,,,,,,,,,,,,,,,,,,
1496.8000000002794,,recognition_phase,517835,Delaware City,,49,,,,,,old,1,1,,,,,,,,,,
null,,confidence_buffer,517937,confidence_buffer,,null,,,,,,,,,,,,,,,,,,
null,,thebreak,518450,break,,null,,,,,,,,,,,,,,,,,,
1894.1000000000931,,realistic_rating,520346,New Verdan,,50,New Verdan,Fictional,2,,,,,,,,,,,,,,,
null,,confidence_buffer,520458,confidence_buffer,,null,,,,,,,,,,,,,,,,,,
2555.3000000002794,,pt2_unique_rating,523015,New Verdan,,52,,,4,,,,,,,,,,,,,,,
null,,confidence_buffer,523126,confidence_buffer,,null,,,,,,,,,,,,,,,,,,
1450.5,,probe_rating,524578,probe_rating,,51,,,,3,1,,,,,,,,,,,,,
null,,confidence_buffer,524686,confidence_buffer,,null,,,,,,,,,,,,,,,,,,
2372.2000000001863,,pt2_memorable_rating,527060,New Verdan,,51,,,3,,,,,,,,,,,,,,,
null,,confidence_buffer,527166,confidence_buffer,,null,,,,,,,,,,,,,,,,,,
1886.8000000002794,,recognition_phase,529055,New Verdan,,52,,,,,,new,1,1,,,,,,,,,,
null,,confidence_buffer,529159,confidence_buffer,,null,,,,,,,,,,,,,,,,,,
null,,thebreak,529678,break,,null,,,,,,,,,,,,,,,,,,
1843.5,,realistic_rating,531524,Huntsville,,53,Huntsville,US,5,,,,,,,,,,,,,,,
null,,confidence_buffer,531633,confidence_buffer,,null,,,,,,,,,,,,,,,,,,
1744.8000000002794,,probe_rating,533380,probe_rating,,51,,,,3,1,,,,,,,,,,,,,
null,,confidence_buffer,533493,confidence_buffer,,null,,,,,,,,,,,,,,,,,,
3178.7000000001863,,pt2_unique_rating,536673,Huntsville,,51,,,3,,,,,,,,,,,,,,,
null,,confidence_buffer,536776,confidence_buffer,,null,,,,,,,,,,,,,,,,,,
1677,,pt2_memorable_rating,538454,Huntsville,,52,,,4,,,,,,,,,,,,,,,
null,,confidence_buffer,538571,confidence_buffer,,null,,,,,,,,,,,,,,,,,,
1687.6999999997206,,recognition_phase,540261,Huntsville,,52,,,,,,new,1,1,,,,,,,,,,
null,,confidence_buffer,540377,confidence_buffer,,null,,,,,,,,,,,,,,,,,,
null,,thebreak,540883,break,,null,,,,,,,,,,,,,,,,,,
2512,,realistic_rating,543396,West Talora,,51,West Talora,Fictional,3,,,,,,,,,,,,,,,
null,,confidence_buffer,543501,confidence_buffer,,null,,,,,,,,,,,,,,,,,,
2314.4000000003725,,pt2_unique_rating,545817,West Talora,,51,,,3,,,,,,,,,,,,,,,
null,,confidence_buffer,545924,confidence_buffer,,null,,,,,,,,,,,,,,,,,,
1740,,pt2_memorable_rating,547666,West Talora,,51,,,3,,,,,,,,,,,,,,,
null,,confidence_buffer,547769,confidence_buffer,,null,,,,,,,,,,,,,,,,,,
1994,,recognition_phase,549765,West Talora,,52,,,,,,new,1,1,,,,,,,,,,
null,,confidence_buffer,549872,confidence_buffer,,null,,,,,,,,,,,,,,,,,,
null,,thebreak,550384,break,,null,,,,,,,,,,,,,,,,,,
2120.5,,realistic_rating,552507,Cornwall,,51,Cornwall,US,3,,,,,,,,,,,,,,,
null,,confidence_buffer,552614,confidence_buffer,,null,,,,,,,,,,,,,,,,,,
2432.100000000093,,pt2_unique_rating,555048,Cornwall,,50,,,2,,,,,,,,,,,,,,,
null,,confidence_buffer,555154,confidence_buffer,,null,,,,,,,,,,,,,,,,,,
2877.100000000093,,pt2_memorable_rating,558033,Cornwall,,50,,,2,,,,,,,,,,,,,,,
null,,confidence_buffer,558145,confidence_buffer,,null,,,,,,,,,,,,,,,,,,
2881,,recognition_phase,561028,Cornwall,,52,,,,,,new,1,1,,,,,,,,,,
null,,confidence_buffer,561142,confidence_buffer,,null,,,,,,,,,,,,,,,,,,
null,,thebreak,561652,break,,null,,,,,,,,,,,,,,,,,,
2990.2999999998137,,realistic_rating,564645,Hollendale,,51,Hollendale,Fictional,3,,,,,,,,,,,,,,,
null,,confidence_buffer,564755,confidence_buffer,,null,,,,,,,,,,,,,,,,,,
11726.600000000093,,pt2_unique_rating,576484,Hollendale,,52,,,4,,,,,,,,,,,,,,,
null,,confidence_buffer,576587,confidence_buffer,,null,,,,,,,,,,,,,,,,,,
2016.1000000000931,,pt2_memorable_rating,578605,Hollendale,,51,,,3,,,,,,,,,,,,,,,
null,,confidence_buffer,578720,confidence_buffer,,null,,,,,,,,,,,,,,,,,,
1428.2000000001863,,recognition_phase,580150,Hollendale,,50,,,,,,old,1,1,,,,,,,,,,
null,,confidence_buffer,580254,confidence_buffer,,null,,,,,,,,,,,,,,,,,,
null,,thebreak,580765,break,,null,,,,,,,,,,,,,,,,,,
1551.1000000000931,,realistic_rating,582318,North Arroya,,51,North Arroya,Fictional,3,,,,,,,,,,,,,,,
null,,confidence_buffer,582427,confidence_buffer,,null,,,,,,,,,,,,,,,,,,
1193.8000000002794,,pt2_unique_rating,583622,North Arroya,,51,,,3,,,,,,,,,,,,,,,
null,,confidence_buffer,583726,confidence_buffer,,null,,,,,,,,,,,,,,,,,,
1270.8000000002794,,pt2_memorable_rating,584998,North Arroya,,51,,,3,,,,,,,,,,,,,,,
null,,confidence_buffer,585105,confidence_buffer,,null,,,,,,,,,,,,,,,,,,
1183.1000000000931,,recognition_phase,586289,North Arroya,,50,,,,,,old,1,1,,,,,,,,,,
null,,confidence_buffer,586394,confidence_buffer,,null,,,,,,,,,,,,,,,,,,
null,,thebreak,586900,break,,null,,,,,,,,,,,,,,,,,,
3725.899999999907,,realistic_rating,590627,Maplehurst,,50,Maplehurst,Fictional,2,,,,,,,,,,,,,,,
null,,confidence_buffer,590732,confidence_buffer,,null,,,,,,,,,,,,,,,,,,
2149.3000000002794,,pt2_unique_rating,592883,Maplehurst,,51,,,3,,,,,,,,,,,,,,,
null,,confidence_buffer,592987,confidence_buffer,,null,,,,,,,,,,,,,,,,,,
2740.600000000093,,pt2_memorable_rating,595729,Maplehurst,,51,,,3,,,,,,,,,,,,,,,
null,,confidence_buffer,595843,confidence_buffer,,null,,,,,,,,,,,,,,,,,,
2019.6000000000931,,recognition_phase,597865,Maplehurst,,52,,,,,,new,1,1,,,,,,,,,,
null,,confidence_buffer,597975,confidence_buffer,,null,,,,,,,,,,,,,,,,,,
null,,thebreak,598477,break,,null,,,,,,,,,,,,,,,,,,
1990.1000000000931,,realistic_rating,600470,Duck,,49,Duck,US,1,,,,,,,,,,,,,,,
null,,confidence_buffer,600579,confidence_buffer,,null,,,,,,,,,,,,,,,,,,
936.2999999998137,,probe_rating,601517,probe_rating,,50,,,,2,1,,,,,,,,,,,,,
null,,confidence_buffer,601620,confidence_buffer,,null,,,,,,,,,,,,,,,,,,
2563.899999999907,,pt2_unique_rating,604186,Duck,,52,,,4,,,,,,,,,,,,,,,
null,,confidence_buffer,604295,confidence_buffer,,null,,,,,,,,,,,,,,,,,,
1484.6000000000931,,pt2_memorable_rating,605781,Duck,,52,,,4,,,,,,,,,,,,,,,
null,,confidence_buffer,605897,confidence_buffer,,null,,,,,,,,,,,,,,,,,,
1365.6999999997206,,recognition_phase,607264,Duck,,49,,,,,,old,1,1,,,,,,,,,,
null,,confidence_buffer,607381,confidence_buffer,,null,,,,,,,,,,,,,,,,,,
null,,thebreak,607884,break,,null,,,,,,,,,,,,,,,,,,
1828.1000000000931,,realistic_rating,609714,Stonebrook,,51,Stonebrook,Fictional,3,,,,,,,,,,,,,,,
null,,confidence_buffer,609822,confidence_buffer,,null,,,,,,,,,,,,,,,,,,
1309.8999999999069,,pt2_unique_rating,611134,Stonebrook,,51,,,3,,,,,,,,,,,,,,,
null,,confidence_buffer,611244,confidence_buffer,,null,,,,,,,,,,,,,,,,,,
2514.100000000093,,pt2_memorable_rating,613759,Stonebrook,,51,,,3,,,,,,,,,,,,,,,
null,,confidence_buffer,613867,confidence_buffer,,null,,,,,,,,,,,,,,,,,,
2344.5,,recognition_phase,616214,Stonebrook,,50,,,,,,old,0,0.9583333333333334,,,,,,,,,,
null,,confidence_buffer,616318,confidence_buffer,,null,,,,,,,,,,,,,,,,,,
null,,thebreak,616834,break,,null,,,,,,,,,,,,,,,,,,
3292.7999999998137,,realistic_rating,620129,Gloucester,,51,Gloucester,US,3,,,,,,,,,,,,,,,
null,,confidence_buffer,620233,confidence_buffer,,null,,,,,,,,,,,,,,,,,,
1528.7000000001863,,pt2_unique_rating,621763,Gloucester,,52,,,4,,,,,,,,,,,,,,,
null,,confidence_buffer,621866,confidence_buffer,,null,,,,,,,,,,,,,,,,,,
3048.600000000093,,pt2_memorable_rating,624917,Gloucester,,52,,,4,,,,,,,,,,,,,,,
null,,confidence_buffer,625024,confidence_buffer,,null,,,,,,,,,,,,,,,,,,
2126.899999999907,,recognition_phase,627152,Gloucester,,52,,,,,,new,1,0.96,,,,,,,,,,
null,,confidence_buffer,627261,confidence_buffer,,null,,,,,,,,,,,,,,,,,,
null,,thebreak,627769,break,,null,,,,,,,,,,,,,,,,,,
1987.1000000000931,,realistic_rating,629758,Ravenport,,52,Ravenport,Fictional,4,,,,,,,,,,,,,,,
null,,confidence_buffer,629872,confidence_buffer,,null,,,,,,,,,,,,,,,,,,
1896.6000000000931,,pt2_unique_rating,631771,Ravenport,,50,,,2,,,,,,,,,,,,,,,
null,,confidence_buffer,631887,confidence_buffer,,null,,,,,,,,,,,,,,,,,,
1400.7000000001863,,pt2_memorable_rating,633290,Ravenport,,51,,,3,,,,,,,,,,,,,,,
null,,confidence_buffer,633396,confidence_buffer,,null,,,,,,,,,,,,,,,,,,
1000.2999999998137,,recognition_phase,634398,Ravenport,,52,,,,,,new,1,0.9615384615384616,,,,,,,,,,
null,,confidence_buffer,634507,confidence_buffer,,null,,,,,,,,,,,,,,,,,,
null,,thebreak,635023,break,,null,,,,,,,,,,,,,,,,,,
1838.0999999996275,,realistic_rating,636863,Bowling Green,,53,Bowling Green,US,5,,,,,,,,,,,,,,,
null,,confidence_buffer,636973,confidence_buffer,,null,,,,,,,,,,,,,,,,,,
1363.1000000000931,,pt2_unique_rating,638338,Bowling Green,,53,,,5,,,,,,,,,,,,,,,
null,,confidence_buffer,638443,confidence_buffer,,null,,,,,,,,,,,,,,,,,,
2882.5,,pt2_memorable_rating,641328,Bowling Green,,53,,,5,,,,,,,,,,,,,,,
null,,confidence_buffer,641445,confidence_buffer,,null,,,,,,,,,,,,,,,,,,
1025.2999999998137,,recognition_phase,642472,Bowling Green,,49,,,,,,old,1,0.9629629629629629,,,,,,,,,,
null,,confidence_buffer,642586,confidence_buffer,,null,,,,,,,,,,,,,,,,,,
null,,thebreak,643096,break,,null,,,,,,,,,,,,,,,,,,
1258.8000000002794,,realistic_rating,644357,Leesburg,,51,Leesburg,US,3,,,,,,,,,,,,,,,
null,,confidence_buffer,644474,confidence_buffer,,null,,,,,,,,,,,,,,,,,,
1904,,pt2_unique_rating,646380,Leesburg,,50,,,2,,,,,,,,,,,,,,,
null,,confidence_buffer,646484,confidence_buffer,,null,,,,,,,,,,,,,,,,,,
1460.5,,pt2_memorable_rating,647946,Leesburg,,50,,,2,,,,,,,,,,,,,,,
null,,confidence_buffer,648059,confidence_buffer,,null,,,,,,,,,,,,,,,,,,
2052.7000000001863,,recognition_phase,650113,Leesburg,,52,,,,,,new,1,0.9642857142857143,,,,,,,,,,
null,,confidence_buffer,650220,confidence_buffer,,null,,,,,,,,,,,,,,,,,,
null,,thebreak,650736,break,,null,,,,,,,,,,,,,,,,,,
6076.899999999907,,realistic_rating,656816,Elmsbury,,52,Elmsbury,Fictional,4,,,,,,,,,,,,,,,
null,,confidence_buffer,656939,confidence_buffer,,null,,,,,,,,,,,,,,,,,,
1660.2000000001863,,pt2_unique_rating,658601,Elmsbury,,51,,,3,,,,,,,,,,,,,,,
null,,confidence_buffer,658706,confidence_buffer,,null,,,,,,,,,,,,,,,,,,
1091.1000000000931,,pt2_memorable_rating,659799,Elmsbury,,51,,,3,,,,,,,,,,,,,,,
null,,confidence_buffer,659906,confidence_buffer,,null,,,,,,,,,,,,,,,,,,
1127.2999999998137,,recognition_phase,661035,Elmsbury,,50,,,,,,old,1,0.9655172413793104,,,,,,,,,,
null,,confidence_buffer,661152,confidence_buffer,,null,,,,,,,,,,,,,,,,,,
null,,thebreak,661667,break,,null,,,,,,,,,,,,,,,,,,
3174.2000000001863,,realistic_rating,664843,Barnard,,50,Barnard,US,2,,,,,,,,,,,,,,,
null,,confidence_buffer,664949,confidence_buffer,,null,,,,,,,,,,,,,,,,,,
1914.0999999996275,,pt2_unique_rating,666865,Barnard,,50,,,2,,,,,,,,,,,,,,,
null,,confidence_buffer,666971,confidence_buffer,,null,,,,,,,,,,,,,,,,,,
1204.3999999999069,,pt2_memorable_rating,668178,Barnard,,50,,,2,,,,,,,,,,,,,,,
null,,confidence_buffer,668295,confidence_buffer,,null,,,,,,,,,,,,,,,,,,
1576.3000000002794,,recognition_phase,669872,Barnard,,52,,,,,,new,1,0.9666666666666667,,,,,,,,,,
null,,confidence_buffer,669979,confidence_buffer,,null,,,,,,,,,,,,,,,,,,
null,,thebreak,670494,break,,null,,,,,,,,,,,,,,,,,,
2833.600000000093,,realistic_rating,673329,Oakridge,,53,Oakridge,Fictional,5,,,,,,,,,,,,,,,
null,,confidence_buffer,673438,confidence_buffer,,null,,,,,,,,,,,,,,,,,,
2166.100000000093,,pt2_unique_rating,675606,Oakridge,,49,,,1,,,,,,,,,,,,,,,
null,,confidence_buffer,675714,confidence_buffer,,null,,,,,,,,,,,,,,,,,,
2771.2000000001863,,pt2_memorable_rating,678487,Oakridge,,49,,,1,,,,,,,,,,,,,,,
null,,confidence_buffer,678599,confidence_buffer,,null,,,,,,,,,,,,,,,,,,
1835.5,,recognition_phase,680436,Oakridge,,51,,,,,,new,1,0.967741935483871,,,,,,,,,,
null,,confidence_buffer,680552,confidence_buffer,,null,,,,,,,,,,,,,,,,,,
null,,thebreak,681057,break,,null,,,,,,,,,,,,,,,,,,
3277.100000000093,,realistic_rating,684337,Hawthorne Bluffs,,51,Hawthorne Bluffs,Fictional,3,,,,,,,,,,,,,,,
null,,confidence_buffer,684440,confidence_buffer,,null,,,,,,,,,,,,,,,,,,
2852.3000000002794,,pt2_unique_rating,687294,Hawthorne Bluffs,,51,,,3,,,,,,,,,,,,,,,
null,,confidence_buffer,687400,confidence_buffer,,null,,,,,,,,,,,,,,,,,,
813.5,,pt2_memorable_rating,688215,Hawthorne Bluffs,,51,,,3,,,,,,,,,,,,,,,
null,,confidence_buffer,688319,confidence_buffer,,null,,,,,,,,,,,,,,,,,,
2599.899999999907,,recognition_phase,690920,Hawthorne Bluffs,,52,,,,,,new,1,0.96875,,,,,,,,,,
null,,confidence_buffer,691037,confidence_buffer,,null,,,,,,,,,,,,,,,,,,
null,,thebreak,691557,break,,null,,,,,,,,,,,,,,,,,,
4120.300000000279,,realistic_rating,695680,Custer,,51,Custer,US,3,,,,,,,,,,,,,,,
null,,confidence_buffer,695783,confidence_buffer,,null,,,,,,,,,,,,,,,,,,
989.2999999998137,,pt2_unique_rating,696774,Custer,,51,,,3,,,,,,,,,,,,,,,
null,,confidence_buffer,696891,confidence_buffer,,null,,,,,,,,,,,,,,,,,,
1513.2999999998137,,pt2_memorable_rating,698407,Custer,,51,,,3,,,,,,,,,,,,,,,
null,,confidence_buffer,698510,confidence_buffer,,null,,,,,,,,,,,,,,,,,,
961.1999999997206,,recognition_phase,699472,Custer,,50,,,,,,old,1,0.9696969696969697,,,,,,,,,,
null,,confidence_buffer,699577,confidence_buffer,,null,,,,,,,,,,,,,,,,,,
null,,thebreak,700080,break,,null,,,,,,,,,,,,,,,,,,
4114.799999999814,,realistic_rating,704196,Manistee,,51,Manistee,US,3,,,,,,,,,,,,,,,
null,,confidence_buffer,704301,confidence_buffer,,null,,,,,,,,,,,,,,,,,,
1608.3999999999069,,pt2_unique_rating,705911,Manistee,,52,,,4,,,,,,,,,,,,,,,
null,,confidence_buffer,706021,confidence_buffer,,null,,,,,,,,,,,,,,,,,,
1271.7000000001863,,pt2_memorable_rating,707295,Manistee,,52,,,4,,,,,,,,,,,,,,,
null,,confidence_buffer,707402,confidence_buffer,,null,,,,,,,,,,,,,,,,,,
690.3999999999069,,recognition_phase,708094,Manistee,,49,,,,,,old,1,0.9705882352941176,,,,,,,,,,
null,,confidence_buffer,708198,confidence_buffer,,null,,,,,,,,,,,,,,,,,,
null,,thebreak,708710,break,,null,,,,,,,,,,,,,,,,,,
2600.7000000001863,,realistic_rating,711312,Summershade,,51,Summershade,Fictional,3,,,,,,,,,,,,,,,
null,,confidence_buffer,711417,confidence_buffer,,null,,,,,,,,,,,,,,,,,,
1854.0999999996275,,pt2_unique_rating,713273,Summershade,,50,,,2,,,,,,,,,,,,,,,
null,,confidence_buffer,713387,confidence_buffer,,null,,,,,,,,,,,,,,,,,,
983.8999999999069,,pt2_memorable_rating,714372,Summershade,,50,,,2,,,,,,,,,,,,,,,
null,,confidence_buffer,714477,confidence_buffer,,null,,,,,,,,,,,,,,,,,,
1491.8999999999069,,recognition_phase,715971,Summershade,,50,,,,,,old,1,0.9714285714285714,,,,,,,,,,
null,,confidence_buffer,716082,confidence_buffer,,null,,,,,,,,,,,,,,,,,,
null,,thebreak,716599,break,,null,,,,,,,,,,,,,,,,,,
1301.2000000001863,,realistic_rating,717903,Lake of the Ozarks,,53,Lake of the Ozarks,US,5,,,,,,,,,,,,,,,
null,,confidence_buffer,718019,confidence_buffer,,null,,,,,,,,,,,,,,,,,,
3147.7999999998137,,pt2_unique_rating,721168,Lake of the Ozarks,,49,,,1,,,,,,,,,,,,,,,
null,,confidence_buffer,721272,confidence_buffer,,null,,,,,,,,,,,,,,,,,,
1099.8000000002794,,probe_rating,722374,probe_rating,,50,,,,2,1,,,,,,,,,,,,,
null,,confidence_buffer,722483,confidence_buffer,,null,,,,,,,,,,,,,,,,,,
1692.6000000000931,,pt2_memorable_rating,724178,Lake of the Ozarks,,53,,,5,,,,,,,,,,,,,,,
null,,confidence_buffer,724284,confidence_buffer,,null,,,,,,,,,,,,,,,,,,
1118.6000000000931,,recognition_phase,725404,Lake of the Ozarks,,49,,,,,,old,1,0.9722222222222222,,,,,,,,,,
null,,confidence_buffer,725515,confidence_buffer,,null,,,,,,,,,,,,,,,,,,
null,,thebreak,726025,break,,null,,,,,,,,,,,,,,,,,,
3006.100000000093,,realistic_rating,729033,Gardnerville,,51,Gardnerville,US,3,,,,,,,,,,,,,,,
null,,confidence_buffer,729142,confidence_buffer,,null,,,,,,,,,,,,,,,,,,
1873.6000000000931,,pt2_unique_rating,731017,Gardnerville,,49,,,1,,,,,,,,,,,,,,,
null,,confidence_buffer,731120,confidence_buffer,,null,,,,,,,,,,,,,,,,,,
1461.6000000000931,,pt2_memorable_rating,732585,Gardnerville,,50,,,2,,,,,,,,,,,,,,,
null,,confidence_buffer,732689,confidence_buffer,,null,,,,,,,,,,,,,,,,,,
1327.5,,recognition_phase,734018,Gardnerville,,50,,,,,,old,1,0.972972972972973,,,,,,,,,,
null,,confidence_buffer,734127,confidence_buffer,,null,,,,,,,,,,,,,,,,,,
null,,thebreak,734644,break,,null,,,,,,,,,,,,,,,,,,
2950.899999999907,,realistic_rating,737597,Ironwood Heights,,51,Ironwood Heights,Fictional,3,,,,,,,,,,,,,,,
null,,confidence_buffer,737706,confidence_buffer,,null,,,,,,,,,,,,,,,,,,
6128.799999999814,,pt2_unique_rating,743836,Ironwood Heights,,51,,,3,,,,,,,,,,,,,,,
null,,confidence_buffer,743944,confidence_buffer,,null,,,,,,,,,,,,,,,,,,
1192.5,,probe_rating,745138,probe_rating,,51,,,,3,1,,,,,,,,,,,,,
null,,confidence_buffer,745247,confidence_buffer,,null,,,,,,,,,,,,,,,,,,
1963.7999999998137,,pt2_memorable_rating,747216,Ironwood Heights,,50,,,2,,,,,,,,,,,,,,,
null,,confidence_buffer,747326,confidence_buffer,,null,,,,,,,,,,,,,,,,,,
797.3999999999069,,recognition_phase,748126,Ironwood Heights,,50,,,,,,old,1,0.9736842105263158,,,,,,,,,,
null,,confidence_buffer,748228,confidence_buffer,,null,,,,,,,,,,,,,,,,,,
null,,thebreak,748736,break,,null,,,,,,,,,,,,,,,,,,
3455.7000000001863,,realistic_rating,752193,Meadowspire,,50,Meadowspire,Fictional,2,,,,,,,,,,,,,,,
null,,confidence_buffer,752296,confidence_buffer,,null,,,,,,,,,,,,,,,,,,
2777.899999999907,,pt2_unique_rating,755076,Meadowspire,,52,,,4,,,,,,,,,,,,,,,
null,,confidence_buffer,755179,confidence_buffer,,null,,,,,,,,,,,,,,,,,,
1453.5,,pt2_memorable_rating,756635,Meadowspire,,52,,,4,,,,,,,,,,,,,,,
null,,confidence_buffer,756741,confidence_buffer,,null,,,,,,,,,,,,,,,,,,
3161.5,,recognition_phase,759904,Meadowspire,,52,,,,,,new,1,0.9743589743589743,,,,,,,,,,
null,,confidence_buffer,760021,confidence_buffer,,null,,,,,,,,,,,,,,,,,,
null,,thebreak,760525,break,,null,,,,,,,,,,,,,,,,,,
6669.600000000093,,realistic_rating,767196,Ashford Hills,,51,Ashford Hills,Fictional,3,,,,,,,,,,,,,,,
null,,confidence_buffer,767312,confidence_buffer,,null,,,,,,,,,,,,,,,,,,
2156.2999999998137,,pt2_unique_rating,769471,Ashford Hills,,50,,,2,,,,,,,,,,,,,,,
null,,confidence_buffer,769586,confidence_buffer,,null,,,,,,,,,,,,,,,,,,
1087.7999999998137,,pt2_memorable_rating,770676,Ashford Hills,,51,,,3,,,,,,,,,,,,,,,
null,,confidence_buffer,770783,confidence_buffer,,null,,,,,,,,,,,,,,,,,,
990.5,,recognition_phase,771776,Ashford Hills,,50,,,,,,old,1,0.975,,,,,,,,,,
null,,confidence_buffer,771879,confidence_buffer,,null,,,,,,,,,,,,,,,,,,
null,,thebreak,772382,break,,null,,,,,,,,,,,,,,,,,,
1391.5,,realistic_rating,773775,Abilene,,53,Abilene,US,5,,,,,,,,,,,,,,,
null,,confidence_buffer,773880,confidence_buffer,,null,,,,,,,,,,,,,,,,,,
3148.3000000002794,,pt2_unique_rating,777030,Abilene,,53,,,5,,,,,,,,,,,,,,,
null,,confidence_buffer,777138,confidence_buffer,,null,,,,,,,,,,,,,,,,,,
879,,pt2_memorable_rating,778020,Abilene,,53,,,5,,,,,,,,,,,,,,,
null,,confidence_buffer,778125,confidence_buffer,,null,,,,,,,,,,,,,,,,,,
1158.1000000000931,,recognition_phase,779285,Abilene,,49,,,,,,old,1,0.975609756097561,,,,,,,,,,
null,,confidence_buffer,779399,confidence_buffer,,null,,,,,,,,,,,,,,,,,,
null,,thebreak,779906,break,,null,,,,,,,,,,,,,,,,,,
1760.8999999999069,,realistic_rating,781668,Linden Trace,,50,Linden Trace,Fictional,2,,,,,,,,,,,,,,,
null,,confidence_buffer,781779,confidence_buffer,,null,,,,,,,,,,,,,,,,,,
1730.5,,pt2_unique_rating,783511,Linden Trace,,50,,,2,,,,,,,,,,,,,,,
null,,confidence_buffer,783614,confidence_buffer,,null,,,,,,,,,,,,,,,,,,
1662.5,,pt2_memorable_rating,785278,Linden Trace,,50,,,2,,,,,,,,,,,,,,,
null,,confidence_buffer,785383,confidence_buffer,,null,,,,,,,,,,,,,,,,,,
1979.1000000000931,,recognition_phase,787364,Linden Trace,,52,,,,,,new,1,0.9761904761904762,,,,,,,,,,
null,,confidence_buffer,787466,confidence_buffer,,null,,,,,,,,,,,,,,,,,,
null,,thebreak,787975,break,,null,,,,,,,,,,,,,,,,,,
3384.1999999997206,,realistic_rating,791361,Natchez,,51,Natchez,US,3,,,,,,,,,,,,,,,
null,,confidence_buffer,791465,confidence_buffer,,null,,,,,,,,,,,,,,,,,,
2271.899999999907,,pt2_unique_rating,793739,Natchez,,52,,,4,,,,,,,,,,,,,,,
null,,confidence_buffer,793842,confidence_buffer,,null,,,,,,,,,,,,,,,,,,
1080.3000000002794,,pt2_memorable_rating,794924,Natchez,,52,,,4,,,,,,,,,,,,,,,
null,,confidence_buffer,795028,confidence_buffer,,null,,,,,,,,,,,,,,,,,,
1219,,recognition_phase,796249,Natchez,,52,,,,,,new,1,0.9767441860465116,,,,,,,,,,
null,,confidence_buffer,796352,confidence_buffer,,null,,,,,,,,,,,,,,,,,,
null,,thebreak,796859,break,,null,,,,,,,,,,,,,,,,,,
2200.1999999997206,,realistic_rating,799061,Sisters,,50,Sisters,US,2,,,,,,,,,,,,,,,
null,,confidence_buffer,799165,confidence_buffer,,null,,,,,,,,,,,,,,,,,,
4136.899999999907,,pt2_unique_rating,803304,Sisters,,49,,,1,,,,,,,,,,,,,,,
null,,confidence_buffer,803412,confidence_buffer,,null,,,,,,,,,,,,,,,,,,
701.7999999998137,,pt2_memorable_rating,804116,Sisters,,50,,,2,,,,,,,,,,,,,,,
null,,confidence_buffer,804230,confidence_buffer,,null,,,,,,,,,,,,,,,,,,
1798.8999999999069,,recognition_phase,806031,Sisters,,52,,,,,,new,1,0.9772727272727273,,,,,,,,,,
null,,confidence_buffer,806139,confidence_buffer,,null,,,,,,,,,,,,,,,,,,
null,,thebreak,806659,break,,null,,,,,,,,,,,,,,,,,,
2771.1999999997206,,realistic_rating,809432,Coeur d'Alene,,50,Coeur d'Alene,US,2,,,,,,,,,,,,,,,
null,,confidence_buffer,809545,confidence_buffer,,null,,,,,,,,,,,,,,,,,,
3442.2000000001863,,pt2_unique_rating,812989,Coeur d'Alene,,53,,,5,,,,,,,,,,,,,,,
null,,confidence_buffer,813101,confidence_buffer,,null,,,,,,,,,,,,,,,,,,
1359.8999999999069,,pt2_memorable_rating,814462,Coeur d'Alene,,53,,,5,,,,,,,,,,,,,,,
null,,confidence_buffer,814579,confidence_buffer,,null,,,,,,,,,,,,,,,,,,
1321.3999999999069,,recognition_phase,815902,Coeur d'Alene,,52,,,,,,new,1,0.9777777777777777,,,,,,,,,,
null,,confidence_buffer,816011,confidence_buffer,,null,,,,,,,,,,,,,,,,,,
null,,thebreak,816515,break,,null,,,,,,,,,,,,,,,,,,
2522.2999999998137,,realistic_rating,819039,Gatlinburg,,53,Gatlinburg,US,5,,,,,,,,,,,,,,,
null,,confidence_buffer,819150,confidence_buffer,,null,,,,,,,,,,,,,,,,,,
1833.8000000002794,,pt2_unique_rating,820985,Gatlinburg,,51,,,3,,,,,,,,,,,,,,,
null,,confidence_buffer,821088,confidence_buffer,,null,,,,,,,,,,,,,,,,,,
1989.1999999997206,,pt2_memorable_rating,823078,Gatlinburg,,51,,,3,,,,,,,,,,,,,,,
null,,confidence_buffer,823182,confidence_buffer,,null,,,,,,,,,,,,,,,,,,
1621.8999999999069,,recognition_phase,824806,Gatlinburg,,49,,,,,,old,1,0.9782608695652174,,,,,,,,,,
null,,confidence_buffer,824921,confidence_buffer,,null,,,,,,,,,,,,,,,,,,
null,,thebreak,825434,break,,null,,,,,,,,,,,,,,,,,,
1850.6000000000931,,realistic_rating,827286,Medora,,53,Medora,US,5,,,,,,,,,,,,,,,
null,,confidence_buffer,827393,confidence_buffer,,null,,,,,,,,,,,,,,,,,,
2014.7000000001863,,pt2_unique_rating,829409,Medora,,52,,,4,,,,,,,,,,,,,,,
null,,confidence_buffer,829512,confidence_buffer,,null,,,,,,,,,,,,,,,,,,
1038,,pt2_memorable_rating,830552,Medora,,53,,,5,,,,,,,,,,,,,,,
null,,confidence_buffer,830658,confidence_buffer,,null,,,,,,,,,,,,,,,,,,
1585.4000000003725,,recognition_phase,832245,Medora,,50,,,,,,old,0,0.9574468085106383,,,,,,,,,,
null,,confidence_buffer,832361,confidence_buffer,,null,,,,,,,,,,,,,,,,,,
null,,thebreak,832876,break,,null,,,,,,,,,,,,,,,,,,
3822.2000000001863,,realistic_rating,836701,Pine Hollow,,52,Pine Hollow,Fictional,4,,,,,,,,,,,,,,,
null,,confidence_buffer,836813,confidence_buffer,,null,,,,,,,,,,,,,,,,,,
1743.8000000002794,,pt2_unique_rating,838559,Pine Hollow,,51,,,3,,,,,,,,,,,,,,,
null,,confidence_buffer,838666,confidence_buffer,,null,,,,,,,,,,,,,,,,,,
890.1000000000931,,pt2_memorable_rating,839558,Pine Hollow,,51,,,3,,,,,,,,,,,,,,,
null,,confidence_buffer,839669,confidence_buffer,,null,,,,,,,,,,,,,,,,,,
2748.0999999996275,,recognition_phase,842419,Pine Hollow,,51,,,,,,new,0,0.9375,,,,,,,,,,
null,,confidence_buffer,842522,confidence_buffer,,null,,,,,,,,,,,,,,,,,,
null,,thebreak,843025,break,,null,,,,,,,,,,,,,,,,,,
3641.600000000093,,realistic_rating,846669,Bisbee,,51,Bisbee,US,3,,,,,,,,,,,,,,,
null,,confidence_buffer,846776,confidence_buffer,,null,,,,,,,,,,,,,,,,,,
6789.5,,pt2_unique_rating,853567,Bisbee,,52,,,4,,,,,,,,,,,,,,,
null,,confidence_buffer,853671,confidence_buffer,,null,,,,,,,,,,,,,,,,,,
1520.8999999999069,,pt2_memorable_rating,855194,Bisbee,,52,,,4,,,,,,,,,,,,,,,
null,,confidence_buffer,855311,confidence_buffer,,null,,,,,,,,,,,,,,,,,,
671.2000000001863,,recognition_phase,855984,Bisbee,,49,,,,,,old,1,0.9387755102040817,,,,,,,,,,
null,,confidence_buffer,856089,confidence_buffer,,null,,,,,,,,,,,,,,,,,,
null,,thebreak,856597,break,,null,,,,,,,,,,,,,,,,,,
1503.7999999998137,,realistic_rating,858103,Northbridge,,50,Northbridge,Fictional,2,,,,,,,,,,,,,,,
null,,confidence_buffer,858212,confidence_buffer,,null,,,,,,,,,,,,,,,,,,
6182.100000000093,,pt2_unique_rating,864396,Northbridge,,50,,,2,,,,,,,,,,,,,,,
null,,confidence_buffer,864507,confidence_buffer,,null,,,,,,,,,,,,,,,,,,
963.2000000001863,,pt2_memorable_rating,865473,Northbridge,,50,,,2,,,,,,,,,,,,,,,
null,,confidence_buffer,865581,confidence_buffer,,null,,,,,,,,,,,,,,,,,,
2549.2999999998137,,recognition_phase,868132,Northbridge,,50,,,,,,old,1,0.94,,,,,,,,,,
null,,confidence_buffer,868243,confidence_buffer,,null,,,,,,,,,,,,,,,,,,
null,,thebreak,868747,break,,null,,,,,,,,,,,,,,,,,,
1867.8000000002794,,realistic_rating,870616,Bar Harbor,,51,Bar Harbor,US,3,,,,,,,,,,,,,,,
null,,confidence_buffer,870719,confidence_buffer,,null,,,,,,,,,,,,,,,,,,
2536.1999999997206,,pt2_unique_rating,873257,Bar Harbor,,51,,,3,,,,,,,,,,,,,,,
null,,confidence_buffer,873371,confidence_buffer,,null,,,,,,,,,,,,,,,,,,
4790.799999999814,,pt2_memorable_rating,878164,Bar Harbor,,51,,,3,,,,,,,,,,,,,,,
null,,confidence_buffer,878272,confidence_buffer,,null,,,,,,,,,,,,,,,,,,
2855.399999999907,,recognition_phase,881130,Bar Harbor,,52,,,,,,new,1,0.9411764705882353,,,,,,,,,,
null,,confidence_buffer,881233,confidence_buffer,,null,,,,,,,,,,,,,,,,,,
null,,thebreak,881747,break,,null,,,,,,,,,,,,,,,,,,
11615.900000000373,,realistic_rating,893365,Maravilla Springs,,51,Maravilla Springs,Fictional,3,,,,,,,,,,,,,,,
null,,confidence_buffer,893470,confidence_buffer,,null,,,,,,,,,,,,,,,,,,
5792.799999999814,,pt2_unique_rating,899264,Maravilla Springs,,52,,,4,,,,,,,,,,,,,,,
null,,confidence_buffer,899368,confidence_buffer,,null,,,,,,,,,,,,,,,,,,
2791.5999999996275,,pt2_memorable_rating,902161,Maravilla Springs,,51,,,3,,,,,,,,,,,,,,,
null,,confidence_buffer,902272,confidence_buffer,,null,,,,,,,,,,,,,,,,,,
1290.3000000002794,,recognition_phase,903564,Maravilla Springs,,52,,,,,,new,1,0.9423076923076923,,,,,,,,,,
null,,confidence_buffer,903674,confidence_buffer,,null,,,,,,,,,,,,,,,,,,
null,,thebreak,904189,break,,null,,,,,,,,,,,,,,,,,,
1673.1000000000931,,realistic_rating,905866,Juniper Creek,,50,Juniper Creek,Fictional,2,,,,,,,,,,,,,,,
null,,confidence_buffer,905969,confidence_buffer,,null,,,,,,,,,,,,,,,,,,
2208.1999999997206,,pt2_unique_rating,908179,Juniper Creek,,51,,,3,,,,,,,,,,,,,,,
null,,confidence_buffer,908285,confidence_buffer,,null,,,,,,,,,,,,,,,,,,
2192.399999999907,,pt2_memorable_rating,910479,Juniper Creek,,51,,,3,,,,,,,,,,,,,,,
null,,confidence_buffer,910584,confidence_buffer,,null,,,,,,,,,,,,,,,,,,
1502.7000000001863,,recognition_phase,912088,Juniper Creek,,52,,,,,,new,1,0.9433962264150944,,,,,,,,,,
null,,confidence_buffer,912206,confidence_buffer,,null,,,,,,,,,,,,,,,,,,
null,,thebreak,912711,break,,null,,,,,,,,,,,,,,,,,,
2521,,realistic_rating,915234,New Hope,,53,New Hope,US,5,,,,,,,,,,,,,,,
null,,confidence_buffer,915338,confidence_buffer,,null,,,,,,,,,,,,,,,,,,
5735.699999999721,,pt2_unique_rating,921076,New Hope,,49,,,1,,,,,,,,,,,,,,,
null,,confidence_buffer,921186,confidence_buffer,,null,,,,,,,,,,,,,,,,,,
1741.2000000001863,,pt2_memorable_rating,922929,New Hope,,50,,,2,,,,,,,,,,,,,,,
null,,confidence_buffer,923035,confidence_buffer,,null,,,,,,,,,,,,,,,,,,
4032.2000000001863,,recognition_phase,927069,New Hope,,49,,,,,,old,1,0.9444444444444444,,,,,,,,,,
null,,confidence_buffer,927183,confidence_buffer,,null,,,,,,,,,,,,,,,,,,
null,,thebreak,927689,break,,null,,,,,,,,,,,,,,,,,,
1406.4000000003725,,realistic_rating,929097,West Palm Beach,,53,West Palm Beach,US,5,,,,,,,,,,,,,,,
null,,confidence_buffer,929210,confidence_buffer,,null,,,,,,,,,,,,,,,,,,
1723.2999999998137,,pt2_unique_rating,930936,West Palm Beach,,51,,,3,,,,,,,,,,,,,,,
null,,confidence_buffer,931048,confidence_buffer,,null,,,,,,,,,,,,,,,,,,
1059.6000000000931,,pt2_memorable_rating,932109,West Palm Beach,,51,,,3,,,,,,,,,,,,,,,
null,,confidence_buffer,932221,confidence_buffer,,null,,,,,,,,,,,,,,,,,,
1533.2999999998137,,recognition_phase,933756,West Palm Beach,,52,,,,,,new,1,0.9454545454545454,,,,,,,,,,
null,,confidence_buffer,933869,confidence_buffer,,null,,,,,,,,,,,,,,,,,,
null,,thebreak,934380,break,,null,,,,,,,,,,,,,,,,,,
2311,,realistic_rating,936693,Hot Springs,,50,Hot Springs,US,2,,,,,,,,,,,,,,,
null,,confidence_buffer,936798,confidence_buffer,,null,,,,,,,,,,,,,,,,,,
2417.399999999907,,pt2_unique_rating,939217,Hot Springs,,50,,,2,,,,,,,,,,,,,,,
null,,confidence_buffer,939325,confidence_buffer,,null,,,,,,,,,,,,,,,,,,
603.7999999998137,,pt2_memorable_rating,939930,Hot Springs,,50,,,2,,,,,,,,,,,,,,,
null,,confidence_buffer,940039,confidence_buffer,,null,,,,,,,,,,,,,,,,,,
3958.100000000093,,recognition_phase,943999,Hot Springs,,51,,,,,,new,0,0.9285714285714286,,,,,,,,,,
null,,confidence_buffer,944112,confidence_buffer,,null,,,,,,,,,,,,,,,,,,
null,,thebreak,944615,break,,null,,,,,,,,,,,,,,,,,,
2429.7999999998137,,realistic_rating,947047,Tamarisk Hills,,50,Tamarisk Hills,Fictional,2,,,,,,,,,,,,,,,
null,,confidence_buffer,947154,confidence_buffer,,null,,,,,,,,,,,,,,,,,,
1609.3999999999069,,pt2_unique_rating,948765,Tamarisk Hills,,50,,,2,,,,,,,,,,,,,,,
null,,confidence_buffer,948870,confidence_buffer,,null,,,,,,,,,,,,,,,,,,
2421.399999999907,,pt2_memorable_rating,951293,Tamarisk Hills,,51,,,3,,,,,,,,,,,,,,,
null,,confidence_buffer,951401,confidence_buffer,,null,,,,,,,,,,,,,,,,,,
1036.2000000001863,,recognition_phase,952439,Tamarisk Hills,,51,,,,,,new,0,0.9122807017543859,,,,,,,,,,
null,,confidence_buffer,952550,confidence_buffer,,null,,,,,,,,,,,,,,,,,,
null,,thebreak,953064,break,,null,,,,,,,,,,,,,,,,,,
1634.7000000001863,,realistic_rating,954701,Cedarwyn,,51,Cedarwyn,Fictional,3,,,,,,,,,,,,,,,
null,,confidence_buffer,954810,confidence_buffer,,null,,,,,,,,,,,,,,,,,,
2244.100000000093,,pt2_unique_rating,957055,Cedarwyn,,51,,,3,,,,,,,,,,,,,,,
null,,confidence_buffer,957157,confidence_buffer,,null,,,,,,,,,,,,,,,,,,
981.5,,pt2_memorable_rating,958142,Cedarwyn,,51,,,3,,,,,,,,,,,,,,,
null,,confidence_buffer,958253,confidence_buffer,,null,,,,,,,,,,,,,,,,,,
936,,recognition_phase,959191,Cedarwyn,,49,,,,,,old,1,0.9137931034482759,,,,,,,,,,
null,,confidence_buffer,959294,confidence_buffer,,null,,,,,,,,,,,,,,,,,,
null,,thebreak,959796,break,,null,,,,,,,,,,,,,,,,,,
1858,,realistic_rating,961657,Westridge,,51,Westridge,Fictional,3,,,,,,,,,,,,,,,
null,,confidence_buffer,961773,confidence_buffer,,null,,,,,,,,,,,,,,,,,,
3675.9000000003725,,pt2_unique_rating,965450,Westridge,,50,,,2,,,,,,,,,,,,,,,
null,,confidence_buffer,965556,confidence_buffer,,null,,,,,,,,,,,,,,,,,,
1201.7000000001863,,pt2_memorable_rating,966760,Westridge,,50,,,2,,,,,,,,,,,,,,,
null,,confidence_buffer,966876,confidence_buffer,,null,,,,,,,,,,,,,,,,,,
2863.0999999996275,,recognition_phase,969741,Westridge,,49,,,,,,old,1,0.9152542372881356,,,,,,,,,,
null,,confidence_buffer,969857,confidence_buffer,,null,,,,,,,,,,,,,,,,,,
null,,thebreak,970371,break,,null,,,,,,,,,,,,,,,,,,
2259.1999999997206,,realistic_rating,972632,Lakehaven,,50,Lakehaven,Fictional,2,,,,,,,,,,,,,,,
null,,confidence_buffer,972739,confidence_buffer,,null,,,,,,,,,,,,,,,,,,
1164.3999999999069,,pt2_unique_rating,973905,Lakehaven,,50,,,2,,,,,,,,,,,,,,,
null,,confidence_buffer,974022,confidence_buffer,,null,,,,,,,,,,,,,,,,,,
983.3999999999069,,pt2_memorable_rating,975008,Lakehaven,,50,,,2,,,,,,,,,,,,,,,
null,,confidence_buffer,975112,confidence_buffer,,null,,,,,,,,,,,,,,,,,,
1907.3999999999069,,recognition_phase,977022,Lakehaven,,50,,,,,,old,0,0.9,,,,,,,,,,
null,,confidence_buffer,977126,confidence_buffer,,null,,,,,,,,,,,,,,,,,,
null,,thebreak,977639,break,,null,,,,,,,,,,,,,,,,,,
,,survey,1203215,survey-questions,,,,,,,,,,,none,high,No I was focused on the study,I did not use specific strategies, I just tried to think of whether I had heard of the city and then tried to use visual recall if it was seen in phase 1,Have I heard of this city or not,Was the word more common or unique. More unique are often easier to remember,Did the word sound strange or use common words,This was the hardest one because I knew there are a lot of random city names. I did it by whether I thought it sounded more like a city name or a streetname. ,no,No great experiment ran smoothly. 
