rt,responses,trial_type,time_elapsed,stimulus,button_pressed,key_press,name_trial,city_type,rating,probe,probe_accuracy,response,correct,accuracy,problems,smooth,distraction,strategies,familiar,memorable,unique,realistic,similar,comments
9111,{worker_id:664f8b82befb70ab3ce022b7},id_enter,9114,,,,,,,,,,,,,,,,,,,,,
16809.29999999702,,fullscreen,25929,fullscreen,0,,,,,,,,,,,,,,,,,,,
2125.1999999955297,,intro_0,28058,instruct,,32,,,,,,,,,,,,,,,,,,
14204.30000000447,,intro_1,42265,instruct,,32,,,,,,,,,,,,,,,,,,
8318.89999999851,,intro_2,50586,instruct,,32,,,,,,,,,,,,,,,,,,
null,,instruct_dir_4,52089,instruct,,null,,,,,,,,,,,,,,,,,,
null,,thebreak,52591,break,,null,,,,,,,,,,,,,,,,,,
10230,,familiar_rating,62824,Falconridge,,49,Falconridge,Fictional,1,,,,,,,,,,,,,,,
null,,confidence_buffer,62928,confidence_buffer,,null,,,,,,,,,,,,,,,,,,
4674,,unique_rating,67605,Falconridge,,51,,,3,,,,,,,,,,,,,,,
null,,confidence_buffer,67709,confidence_buffer,,null,,,,,,,,,,,,,,,,,,
4033.10000000149,,memorable_rating,71745,Falconridge,,50,,,2,,,,,,,,,,,,,,,
null,,confidence_buffer,71848,confidence_buffer,,null,,,,,,,,,,,,,,,,,,
3649.39999999851,,probe_rating,75499,probe_rating,,53,,,,5,1,,,,,,,,,,,,,
null,,confidence_buffer,75602,confidence_buffer,,null,,,,,,,,,,,,,,,,,,
null,,thebreak,76106,break,,null,,,,,,,,,,,,,,,,,,
8674.40000000596,,familiar_rating,84784,Silverpine,,49,Silverpine,Fictional,1,,,,,,,,,,,,,,,
null,,confidence_buffer,84887,confidence_buffer,,null,,,,,,,,,,,,,,,,,,
4465.79999999702,,unique_rating,89355,Silverpine,,51,,,3,,,,,,,,,,,,,,,
null,,confidence_buffer,89457,confidence_buffer,,null,,,,,,,,,,,,,,,,,,
4534.70000000298,,memorable_rating,93993,Silverpine,,52,,,4,,,,,,,,,,,,,,,
null,,confidence_buffer,94097,confidence_buffer,,null,,,,,,,,,,,,,,,,,,
null,,thebreak,94599,break,,null,,,,,,,,,,,,,,,,,,
7064.70000000298,,familiar_rating,101666,Tamarisk Hills,,49,Tamarisk Hills,Fictional,1,,,,,,,,,,,,,,,
null,,confidence_buffer,101769,confidence_buffer,,null,,,,,,,,,,,,,,,,,,
4100.39999999851,,unique_rating,105871,Tamarisk Hills,,51,,,3,,,,,,,,,,,,,,,
null,,confidence_buffer,105973,confidence_buffer,,null,,,,,,,,,,,,,,,,,,
4963.69999999553,,memorable_rating,110939,Tamarisk Hills,,51,,,3,,,,,,,,,,,,,,,
null,,confidence_buffer,111042,confidence_buffer,,null,,,,,,,,,,,,,,,,,,
null,,thebreak,111545,break,,null,,,,,,,,,,,,,,,,,,
4719,,familiar_rating,116267,Riverlyn,,49,Riverlyn,Fictional,1,,,,,,,,,,,,,,,
null,,confidence_buffer,116371,confidence_buffer,,null,,,,,,,,,,,,,,,,,,
5706.89999999851,,unique_rating,122080,Riverlyn,,51,,,3,,,,,,,,,,,,,,,
null,,confidence_buffer,122184,confidence_buffer,,null,,,,,,,,,,,,,,,,,,
4214.70000000298,,memorable_rating,126401,Riverlyn,,50,,,2,,,,,,,,,,,,,,,
null,,confidence_buffer,126505,confidence_buffer,,null,,,,,,,,,,,,,,,,,,
null,,thebreak,127008,break,,null,,,,,,,,,,,,,,,,,,
6062.5999999940395,,familiar_rating,133072,Yukon,,50,Yukon,US,2,,,,,,,,,,,,,,,
null,,confidence_buffer,133174,confidence_buffer,,null,,,,,,,,,,,,,,,,,,
3681.2999999970198,,unique_rating,136858,Yukon,,51,,,3,,,,,,,,,,,,,,,
null,,confidence_buffer,136968,confidence_buffer,,null,,,,,,,,,,,,,,,,,,
2345.0999999940395,,memorable_rating,139316,Yukon,,51,,,3,,,,,,,,,,,,,,,
null,,confidence_buffer,139420,confidence_buffer,,null,,,,,,,,,,,,,,,,,,
null,,thebreak,139922,break,,null,,,,,,,,,,,,,,,,,,
8138.69999999553,,familiar_rating,148063,Park City,,50,Park City,US,2,,,,,,,,,,,,,,,
null,,confidence_buffer,148166,confidence_buffer,,null,,,,,,,,,,,,,,,,,,
4337.89999999851,,unique_rating,152506,Park City,,49,,,1,,,,,,,,,,,,,,,
null,,confidence_buffer,152608,confidence_buffer,,null,,,,,,,,,,,,,,,,,,
3283.5,,memorable_rating,155894,Park City,,52,,,4,,,,,,,,,,,,,,,
null,,confidence_buffer,155996,confidence_buffer,,null,,,,,,,,,,,,,,,,,,
null,,thebreak,156498,break,,null,,,,,,,,,,,,,,,,,,
7490.20000000298,,familiar_rating,163991,Rosehollow,,49,Rosehollow,Fictional,1,,,,,,,,,,,,,,,
null,,confidence_buffer,164095,confidence_buffer,,null,,,,,,,,,,,,,,,,,,
2652.2999999970198,,unique_rating,166749,Rosehollow,,50,,,2,,,,,,,,,,,,,,,
null,,confidence_buffer,166853,confidence_buffer,,null,,,,,,,,,,,,,,,,,,
2292.39999999851,,memorable_rating,169148,Rosehollow,,51,,,3,,,,,,,,,,,,,,,
null,,confidence_buffer,169250,confidence_buffer,,null,,,,,,,,,,,,,,,,,,
4328.79999999702,,probe_rating,173581,probe_rating,,49,,,,1,1,,,,,,,,,,,,,
null,,confidence_buffer,173685,confidence_buffer,,null,,,,,,,,,,,,,,,,,,
null,,thebreak,174187,break,,null,,,,,,,,,,,,,,,,,,
4042.10000000149,,familiar_rating,178231,Lake of the Ozarks,,49,Lake of the Ozarks,US,1,,,,,,,,,,,,,,,
null,,confidence_buffer,178333,confidence_buffer,,null,,,,,,,,,,,,,,,,,,
2661.1999999955297,,unique_rating,180996,Lake of the Ozarks,,51,,,3,,,,,,,,,,,,,,,
null,,confidence_buffer,181104,confidence_buffer,,null,,,,,,,,,,,,,,,,,,
3096.6999999955297,,memorable_rating,184203,Lake of the Ozarks,,50,,,2,,,,,,,,,,,,,,,
null,,confidence_buffer,184306,confidence_buffer,,null,,,,,,,,,,,,,,,,,,
null,,thebreak,184808,break,,null,,,,,,,,,,,,,,,,,,
5248.0999999940395,,familiar_rating,190058,Duck,,49,Duck,US,1,,,,,,,,,,,,,,,
null,,confidence_buffer,190162,confidence_buffer,,null,,,,,,,,,,,,,,,,,,
3024.60000000149,,unique_rating,193189,Duck,,51,,,3,,,,,,,,,,,,,,,
null,,confidence_buffer,193293,confidence_buffer,,null,,,,,,,,,,,,,,,,,,
2409.7999999970198,,memorable_rating,195705,Duck,,51,,,3,,,,,,,,,,,,,,,
null,,confidence_buffer,195808,confidence_buffer,,null,,,,,,,,,,,,,,,,,,
null,,thebreak,196310,break,,null,,,,,,,,,,,,,,,,,,
4470.29999999702,,familiar_rating,200783,Sierra Hollow,,49,Sierra Hollow,Fictional,1,,,,,,,,,,,,,,,
null,,confidence_buffer,200887,confidence_buffer,,null,,,,,,,,,,,,,,,,,,
2427.89999999851,,unique_rating,203317,Sierra Hollow,,50,,,2,,,,,,,,,,,,,,,
null,,confidence_buffer,203435,confidence_buffer,,null,,,,,,,,,,,,,,,,,,
2440.60000000149,,memorable_rating,205878,Sierra Hollow,,50,,,2,,,,,,,,,,,,,,,
null,,confidence_buffer,205981,confidence_buffer,,null,,,,,,,,,,,,,,,,,,
null,,thebreak,206484,break,,null,,,,,,,,,,,,,,,,,,
5681.5,,familiar_rating,212168,Willowford,,49,Willowford,Fictional,1,,,,,,,,,,,,,,,
null,,confidence_buffer,212271,confidence_buffer,,null,,,,,,,,,,,,,,,,,,
1941.6000000014901,,unique_rating,214215,Willowford,,50,,,2,,,,,,,,,,,,,,,
null,,confidence_buffer,214318,confidence_buffer,,null,,,,,,,,,,,,,,,,,,
2060.39999999851,,memorable_rating,216381,Willowford,,51,,,3,,,,,,,,,,,,,,,
null,,confidence_buffer,216485,confidence_buffer,,null,,,,,,,,,,,,,,,,,,
null,,thebreak,216987,break,,null,,,,,,,,,,,,,,,,,,
3615.39999999851,,familiar_rating,220605,Peoria,,49,Peoria,US,1,,,,,,,,,,,,,,,
null,,confidence_buffer,220709,confidence_buffer,,null,,,,,,,,,,,,,,,,,,
4135.89999999851,,unique_rating,224847,Peoria,,52,,,4,,,,,,,,,,,,,,,
null,,confidence_buffer,224948,confidence_buffer,,null,,,,,,,,,,,,,,,,,,
4403.60000000149,,memorable_rating,229354,Peoria,,50,,,2,,,,,,,,,,,,,,,
null,,confidence_buffer,229457,confidence_buffer,,null,,,,,,,,,,,,,,,,,,
null,,thebreak,229960,break,,null,,,,,,,,,,,,,,,,,,
5957.5,,familiar_rating,235920,Sisters,,49,Sisters,US,1,,,,,,,,,,,,,,,
null,,confidence_buffer,236023,confidence_buffer,,null,,,,,,,,,,,,,,,,,,
9324.5,,unique_rating,245350,Sisters,,51,,,3,,,,,,,,,,,,,,,
null,,confidence_buffer,245454,confidence_buffer,,null,,,,,,,,,,,,,,,,,,
2961.7999999970198,,memorable_rating,248418,Sisters,,51,,,3,,,,,,,,,,,,,,,
null,,confidence_buffer,248521,confidence_buffer,,null,,,,,,,,,,,,,,,,,,
null,,thebreak,249024,break,,null,,,,,,,,,,,,,,,,,,
6052.39999999851,,familiar_rating,255079,Ravenport,,50,Ravenport,Fictional,2,,,,,,,,,,,,,,,
null,,confidence_buffer,255183,confidence_buffer,,null,,,,,,,,,,,,,,,,,,
2406.7999999970198,,unique_rating,257592,Ravenport,,50,,,2,,,,,,,,,,,,,,,
null,,confidence_buffer,257695,confidence_buffer,,null,,,,,,,,,,,,,,,,,,
2821.60000000149,,probe_rating,260519,probe_rating,,51,,,,3,1,,,,,,,,,,,,,
null,,confidence_buffer,260623,confidence_buffer,,null,,,,,,,,,,,,,,,,,,
4646.20000000298,,memorable_rating,265271,Ravenport,,51,,,3,,,,,,,,,,,,,,,
null,,confidence_buffer,265373,confidence_buffer,,null,,,,,,,,,,,,,,,,,,
null,,thebreak,265875,break,,null,,,,,,,,,,,,,,,,,,
4734.60000000149,,familiar_rating,270612,Sitka,,49,Sitka,US,1,,,,,,,,,,,,,,,
null,,confidence_buffer,270715,confidence_buffer,,null,,,,,,,,,,,,,,,,,,
3674.0999999940395,,unique_rating,274391,Sitka,,51,,,3,,,,,,,,,,,,,,,
null,,confidence_buffer,274494,confidence_buffer,,null,,,,,,,,,,,,,,,,,,
1938.8999999985099,,probe_rating,276435,probe_rating,,53,,,,5,1,,,,,,,,,,,,,
null,,confidence_buffer,276539,confidence_buffer,,null,,,,,,,,,,,,,,,,,,
2678.2000000029802,,memorable_rating,279220,Sitka,,49,,,1,,,,,,,,,,,,,,,
null,,confidence_buffer,279322,confidence_buffer,,null,,,,,,,,,,,,,,,,,,
null,,thebreak,279825,break,,null,,,,,,,,,,,,,,,,,,
2943.5,,familiar_rating,282771,New Hope,,50,New Hope,US,2,,,,,,,,,,,,,,,
null,,confidence_buffer,282875,confidence_buffer,,null,,,,,,,,,,,,,,,,,,
2378.39999999851,,unique_rating,285256,New Hope,,50,,,2,,,,,,,,,,,,,,,
null,,confidence_buffer,285359,confidence_buffer,,null,,,,,,,,,,,,,,,,,,
2819.6999999955297,,memorable_rating,288181,New Hope,,51,,,3,,,,,,,,,,,,,,,
null,,confidence_buffer,288285,confidence_buffer,,null,,,,,,,,,,,,,,,,,,
null,,thebreak,288787,break,,null,,,,,,,,,,,,,,,,,,
2857.7999999970198,,familiar_rating,291647,Bar Harbor,,49,Bar Harbor,US,1,,,,,,,,,,,,,,,
null,,confidence_buffer,291755,confidence_buffer,,null,,,,,,,,,,,,,,,,,,
2320.8000000044703,,unique_rating,294079,Bar Harbor,,50,,,2,,,,,,,,,,,,,,,
null,,confidence_buffer,294182,confidence_buffer,,null,,,,,,,,,,,,,,,,,,
4083.7999999970198,,memorable_rating,298268,Bar Harbor,,51,,,3,,,,,,,,,,,,,,,
null,,confidence_buffer,298371,confidence_buffer,,null,,,,,,,,,,,,,,,,,,
null,,thebreak,298873,break,,null,,,,,,,,,,,,,,,,,,
3216.60000000149,,familiar_rating,302093,Redgrove,,49,Redgrove,Fictional,1,,,,,,,,,,,,,,,
null,,confidence_buffer,302197,confidence_buffer,,null,,,,,,,,,,,,,,,,,,
4304.5,,unique_rating,306504,Redgrove,,50,,,2,,,,,,,,,,,,,,,
null,,confidence_buffer,306607,confidence_buffer,,null,,,,,,,,,,,,,,,,,,
3918.8000000044703,,memorable_rating,310528,Redgrove,,51,,,3,,,,,,,,,,,,,,,
null,,confidence_buffer,310630,confidence_buffer,,null,,,,,,,,,,,,,,,,,,
null,,thebreak,311133,break,,null,,,,,,,,,,,,,,,,,,
3634,,familiar_rating,314769,Maravilla Springs,,49,Maravilla Springs,Fictional,1,,,,,,,,,,,,,,,
null,,confidence_buffer,314872,confidence_buffer,,null,,,,,,,,,,,,,,,,,,
2980.5,,unique_rating,317855,Maravilla Springs,,51,,,3,,,,,,,,,,,,,,,
null,,confidence_buffer,317959,confidence_buffer,,null,,,,,,,,,,,,,,,,,,
2908.2999999970198,,memorable_rating,320869,Maravilla Springs,,50,,,2,,,,,,,,,,,,,,,
null,,confidence_buffer,320972,confidence_buffer,,null,,,,,,,,,,,,,,,,,,
null,,thebreak,321474,break,,null,,,,,,,,,,,,,,,,,,
3041.8000000044703,,familiar_rating,324519,West Talora,,49,West Talora,Fictional,1,,,,,,,,,,,,,,,
null,,confidence_buffer,324623,confidence_buffer,,null,,,,,,,,,,,,,,,,,,
1941.9000000059605,,unique_rating,326568,West Talora,,51,,,3,,,,,,,,,,,,,,,
null,,confidence_buffer,326671,confidence_buffer,,null,,,,,,,,,,,,,,,,,,
2338.2000000029802,,memorable_rating,329012,West Talora,,50,,,2,,,,,,,,,,,,,,,
null,,confidence_buffer,329115,confidence_buffer,,null,,,,,,,,,,,,,,,,,,
null,,thebreak,329617,break,,null,,,,,,,,,,,,,,,,,,
2536.60000000149,,familiar_rating,332157,Coeur d'Alene,,49,Coeur d'Alene,US,1,,,,,,,,,,,,,,,
null,,confidence_buffer,332260,confidence_buffer,,null,,,,,,,,,,,,,,,,,,
3591.7000000029802,,unique_rating,335855,Coeur d'Alene,,52,,,4,,,,,,,,,,,,,,,
null,,confidence_buffer,335957,confidence_buffer,,null,,,,,,,,,,,,,,,,,,
3285.89999999851,,memorable_rating,339246,Coeur d'Alene,,49,,,1,,,,,,,,,,,,,,,
null,,confidence_buffer,339349,confidence_buffer,,null,,,,,,,,,,,,,,,,,,
2923.2000000029802,,probe_rating,342276,probe_rating,,52,,,,4,1,,,,,,,,,,,,,
null,,confidence_buffer,342381,confidence_buffer,,null,,,,,,,,,,,,,,,,,,
null,,thebreak,342882,break,,null,,,,,,,,,,,,,,,,,,
3310.8000000044703,,familiar_rating,346196,Sammamish,,49,Sammamish,US,1,,,,,,,,,,,,,,,
null,,confidence_buffer,346299,confidence_buffer,,null,,,,,,,,,,,,,,,,,,
2620,,unique_rating,348922,Sammamish,,52,,,4,,,,,,,,,,,,,,,
null,,confidence_buffer,349025,confidence_buffer,,null,,,,,,,,,,,,,,,,,,
2883,,memorable_rating,351911,Sammamish,,49,,,1,,,,,,,,,,,,,,,
null,,confidence_buffer,352014,confidence_buffer,,null,,,,,,,,,,,,,,,,,,
null,,thebreak,352516,break,,null,,,,,,,,,,,,,,,,,,
5154.10000000149,,familiar_rating,357673,Orr,,49,Orr,US,1,,,,,,,,,,,,,,,
null,,confidence_buffer,357775,confidence_buffer,,null,,,,,,,,,,,,,,,,,,
2315.7999999970198,,unique_rating,360093,Orr,,51,,,3,,,,,,,,,,,,,,,
null,,confidence_buffer,360197,confidence_buffer,,null,,,,,,,,,,,,,,,,,,
3618.10000000149,,memorable_rating,363817,Orr,,51,,,3,,,,,,,,,,,,,,,
null,,confidence_buffer,363920,confidence_buffer,,null,,,,,,,,,,,,,,,,,,
null,,thebreak,364422,break,,null,,,,,,,,,,,,,,,,,,
2846.7999999970198,,familiar_rating,367271,Delaware City,,49,Delaware City,US,1,,,,,,,,,,,,,,,
null,,confidence_buffer,367374,confidence_buffer,,null,,,,,,,,,,,,,,,,,,
2620,,unique_rating,369995,Delaware City,,50,,,2,,,,,,,,,,,,,,,
null,,confidence_buffer,370098,confidence_buffer,,null,,,,,,,,,,,,,,,,,,
2637.5,,memorable_rating,372737,Delaware City,,51,,,3,,,,,,,,,,,,,,,
null,,confidence_buffer,372841,confidence_buffer,,null,,,,,,,,,,,,,,,,,,
null,,thebreak,373343,break,,null,,,,,,,,,,,,,,,,,,
2653.2000000029802,,familiar_rating,375999,San Antonio,,49,San Antonio,US,1,,,,,,,,,,,,,,,
null,,confidence_buffer,376103,confidence_buffer,,null,,,,,,,,,,,,,,,,,,
2921.5999999940395,,unique_rating,379027,San Antonio,,50,,,2,,,,,,,,,,,,,,,
null,,confidence_buffer,379131,confidence_buffer,,null,,,,,,,,,,,,,,,,,,
3770.7999999970198,,memorable_rating,382904,San Antonio,,51,,,3,,,,,,,,,,,,,,,
null,,confidence_buffer,383008,confidence_buffer,,null,,,,,,,,,,,,,,,,,,
null,,thebreak,383509,break,,null,,,,,,,,,,,,,,,,,,
4410.0999999940395,,familiar_rating,387922,Bayshore Haven,,49,Bayshore Haven,Fictional,1,,,,,,,,,,,,,,,
null,,confidence_buffer,388025,confidence_buffer,,null,,,,,,,,,,,,,,,,,,
1936,,unique_rating,389964,Bayshore Haven,,50,,,2,,,,,,,,,,,,,,,
null,,confidence_buffer,390067,confidence_buffer,,null,,,,,,,,,,,,,,,,,,
2116.39999999851,,memorable_rating,392186,Bayshore Haven,,51,,,3,,,,,,,,,,,,,,,
null,,confidence_buffer,392289,confidence_buffer,,null,,,,,,,,,,,,,,,,,,
null,,thebreak,392791,break,,null,,,,,,,,,,,,,,,,,,
3189.39999999851,,familiar_rating,395983,Claywater,,49,Claywater,Fictional,1,,,,,,,,,,,,,,,
null,,confidence_buffer,396087,confidence_buffer,,null,,,,,,,,,,,,,,,,,,
1782.7000000029802,,probe_rating,397873,probe_rating,,53,,,,5,1,,,,,,,,,,,,,
null,,confidence_buffer,397976,confidence_buffer,,null,,,,,,,,,,,,,,,,,,
3492.2999999970198,,unique_rating,401471,Claywater,,51,,,3,,,,,,,,,,,,,,,
null,,confidence_buffer,401574,confidence_buffer,,null,,,,,,,,,,,,,,,,,,
2886.10000000149,,memorable_rating,404463,Claywater,,51,,,3,,,,,,,,,,,,,,,
null,,confidence_buffer,404566,confidence_buffer,,null,,,,,,,,,,,,,,,,,,
null,,thebreak,405080,break,,null,,,,,,,,,,,,,,,,,,
3473.2000000029802,,familiar_rating,408556,Boulder,,50,Boulder,US,2,,,,,,,,,,,,,,,
null,,confidence_buffer,408659,confidence_buffer,,null,,,,,,,,,,,,,,,,,,
3918.10000000149,,unique_rating,412580,Boulder,,50,,,2,,,,,,,,,,,,,,,
null,,confidence_buffer,412683,confidence_buffer,,null,,,,,,,,,,,,,,,,,,
2931.8000000044703,,memorable_rating,415617,Boulder,,50,,,2,,,,,,,,,,,,,,,
null,,confidence_buffer,415721,confidence_buffer,,null,,,,,,,,,,,,,,,,,,
null,,thebreak,416224,break,,null,,,,,,,,,,,,,,,,,,
2562.60000000149,,familiar_rating,418789,Millstone,,49,Millstone,Fictional,1,,,,,,,,,,,,,,,
null,,confidence_buffer,418893,confidence_buffer,,null,,,,,,,,,,,,,,,,,,
3365.39999999851,,unique_rating,422261,Millstone,,50,,,2,,,,,,,,,,,,,,,
null,,confidence_buffer,422364,confidence_buffer,,null,,,,,,,,,,,,,,,,,,
3866.60000000149,,memorable_rating,426233,Millstone,,50,,,2,,,,,,,,,,,,,,,
null,,confidence_buffer,426335,confidence_buffer,,null,,,,,,,,,,,,,,,,,,
null,,thebreak,426837,break,,null,,,,,,,,,,,,,,,,,,
2646.2000000029802,,familiar_rating,429486,Westridge,,49,Westridge,Fictional,1,,,,,,,,,,,,,,,
null,,confidence_buffer,429589,confidence_buffer,,null,,,,,,,,,,,,,,,,,,
1494.5,,unique_rating,431087,Westridge,,50,,,2,,,,,,,,,,,,,,,
null,,confidence_buffer,431189,confidence_buffer,,null,,,,,,,,,,,,,,,,,,
1794,,probe_rating,432986,probe_rating,,51,,,,3,1,,,,,,,,,,,,,
null,,confidence_buffer,433089,confidence_buffer,,null,,,,,,,,,,,,,,,,,,
4029.6999999955297,,memorable_rating,437122,Westridge,,50,,,2,,,,,,,,,,,,,,,
null,,confidence_buffer,437225,confidence_buffer,,null,,,,,,,,,,,,,,,,,,
null,,thebreak,437728,break,,null,,,,,,,,,,,,,,,,,,
6434.29999999702,,intro_0,444164,instruct,,32,,,,,,,,,,,,,,,,,,
12151.69999999553,,intro_1,456318,instruct,,32,,,,,,,,,,,,,,,,,,
30417.69999999553,,intro_2,486738,instruct,,32,,,,,,,,,,,,,,,,,,
null,,instruct_dir_4,488241,instruct,,null,,,,,,,,,,,,,,,,,,
7273.10000000149,,realistic_rating,495516,Claywater,,50,Claywater,Fictional,2,,,,,,,,,,,,,,,
null,,confidence_buffer,495619,confidence_buffer,,null,,,,,,,,,,,,,,,,,,
3431.6999999955297,,pt2_unique_rating,499053,Claywater,,50,,,2,,,,,,,,,,,,,,,
null,,confidence_buffer,499156,confidence_buffer,,null,,,,,,,,,,,,,,,,,,
3346.89999999851,,pt2_memorable_rating,502506,Claywater,,50,,,2,,,,,,,,,,,,,,,
null,,confidence_buffer,502610,confidence_buffer,,null,,,,,,,,,,,,,,,,,,
5862.60000000149,,recognition_phase,508475,Claywater,,49,,,,,,old,1,1,,,,,,,,,,
null,,confidence_buffer,508579,confidence_buffer,,null,,,,,,,,,,,,,,,,,,
null,,thebreak,509081,break,,null,,,,,,,,,,,,,,,,,,
5447.89999999851,,realistic_rating,514532,Lake of the Ozarks,,49,Lake of the Ozarks,US,1,,,,,,,,,,,,,,,
null,,confidence_buffer,514636,confidence_buffer,,null,,,,,,,,,,,,,,,,,,
2796.7999999970198,,pt2_unique_rating,517435,Lake of the Ozarks,,51,,,3,,,,,,,,,,,,,,,
null,,confidence_buffer,517539,confidence_buffer,,null,,,,,,,,,,,,,,,,,,
2266.10000000149,,probe_rating,519808,probe_rating,,52,,,,4,1,,,,,,,,,,,,,
null,,confidence_buffer,519911,confidence_buffer,,null,,,,,,,,,,,,,,,,,,
3485.10000000149,,pt2_memorable_rating,523399,Lake of the Ozarks,,50,,,2,,,,,,,,,,,,,,,
null,,confidence_buffer,523502,confidence_buffer,,null,,,,,,,,,,,,,,,,,,
2181.7999999970198,,recognition_phase,525687,Lake of the Ozarks,,49,,,,,,old,1,1,,,,,,,,,,
null,,confidence_buffer,525790,confidence_buffer,,null,,,,,,,,,,,,,,,,,,
null,,thebreak,526292,break,,null,,,,,,,,,,,,,,,,,,
5780.89999999851,,realistic_rating,532077,Sierra Hollow,,50,Sierra Hollow,Fictional,2,,,,,,,,,,,,,,,
null,,confidence_buffer,532181,confidence_buffer,,null,,,,,,,,,,,,,,,,,,
2093.89999999851,,pt2_unique_rating,534278,Sierra Hollow,,51,,,3,,,,,,,,,,,,,,,
null,,confidence_buffer,534382,confidence_buffer,,null,,,,,,,,,,,,,,,,,,
2671,,pt2_memorable_rating,537055,Sierra Hollow,,51,,,3,,,,,,,,,,,,,,,
null,,confidence_buffer,537158,confidence_buffer,,null,,,,,,,,,,,,,,,,,,
2038.2999999970198,,recognition_phase,539200,Sierra Hollow,,49,,,,,,old,1,1,,,,,,,,,,
null,,confidence_buffer,539303,confidence_buffer,,null,,,,,,,,,,,,,,,,,,
null,,thebreak,539805,break,,null,,,,,,,,,,,,,,,,,,
5386.9000000059605,,realistic_rating,545195,Riverlyn,,49,Riverlyn,Fictional,1,,,,,,,,,,,,,,,
null,,confidence_buffer,545299,confidence_buffer,,null,,,,,,,,,,,,,,,,,,
3261.2000000029802,,pt2_unique_rating,548562,Riverlyn,,51,,,3,,,,,,,,,,,,,,,
null,,confidence_buffer,548666,confidence_buffer,,null,,,,,,,,,,,,,,,,,,
3080.39999999851,,pt2_memorable_rating,551749,Riverlyn,,50,,,2,,,,,,,,,,,,,,,
null,,confidence_buffer,551853,confidence_buffer,,null,,,,,,,,,,,,,,,,,,
1782.3999999985099,,recognition_phase,553638,Riverlyn,,49,,,,,,old,1,1,,,,,,,,,,
null,,confidence_buffer,553753,confidence_buffer,,null,,,,,,,,,,,,,,,,,,
null,,thebreak,554255,break,,null,,,,,,,,,,,,,,,,,,
6539.0999999940395,,realistic_rating,560797,Hawthorne Bluffs,,50,Hawthorne Bluffs,Fictional,2,,,,,,,,,,,,,,,
null,,confidence_buffer,560900,confidence_buffer,,null,,,,,,,,,,,,,,,,,,
3338.60000000149,,pt2_unique_rating,564240,Hawthorne Bluffs,,51,,,3,,,,,,,,,,,,,,,
null,,confidence_buffer,564344,confidence_buffer,,null,,,,,,,,,,,,,,,,,,
4143.89999999851,,pt2_memorable_rating,568490,Hawthorne Bluffs,,50,,,2,,,,,,,,,,,,,,,
null,,confidence_buffer,568593,confidence_buffer,,null,,,,,,,,,,,,,,,,,,
3896.89999999851,,recognition_phase,572491,Hawthorne Bluffs,,51,,,,,,new,1,1,,,,,,,,,,
null,,confidence_buffer,572594,confidence_buffer,,null,,,,,,,,,,,,,,,,,,
null,,thebreak,573096,break,,null,,,,,,,,,,,,,,,,,,
5654.29999999702,,realistic_rating,578752,Delaro Park,,51,Delaro Park,Fictional,3,,,,,,,,,,,,,,,
null,,confidence_buffer,578856,confidence_buffer,,null,,,,,,,,,,,,,,,,,,
4678.70000000298,,pt2_unique_rating,583538,Delaro Park,,51,,,3,,,,,,,,,,,,,,,
null,,confidence_buffer,583641,confidence_buffer,,null,,,,,,,,,,,,,,,,,,
2676.7999999970198,,pt2_memorable_rating,586320,Delaro Park,,50,,,2,,,,,,,,,,,,,,,
null,,confidence_buffer,586424,confidence_buffer,,null,,,,,,,,,,,,,,,,,,
9633.19999999553,,probe_rating,596060,probe_rating,,52,,,,4,1,,,,,,,,,,,,,
null,,confidence_buffer,596163,confidence_buffer,,null,,,,,,,,,,,,,,,,,,
2842.39999999851,,recognition_phase,599008,Delaro Park,,51,,,,,,new,1,1,,,,,,,,,,
null,,confidence_buffer,599112,confidence_buffer,,null,,,,,,,,,,,,,,,,,,
null,,thebreak,599616,break,,null,,,,,,,,,,,,,,,,,,
8577.40000000596,,realistic_rating,608196,Juniper Creek,,50,Juniper Creek,Fictional,2,,,,,,,,,,,,,,,
null,,confidence_buffer,608299,confidence_buffer,,null,,,,,,,,,,,,,,,,,,
3246,,pt2_unique_rating,611548,Juniper Creek,,51,,,3,,,,,,,,,,,,,,,
null,,confidence_buffer,611651,confidence_buffer,,null,,,,,,,,,,,,,,,,,,
2947.9000000059605,,pt2_memorable_rating,614601,Juniper Creek,,50,,,2,,,,,,,,,,,,,,,
null,,confidence_buffer,614705,confidence_buffer,,null,,,,,,,,,,,,,,,,,,
2574.8000000044703,,recognition_phase,617283,Juniper Creek,,52,,,,,,new,1,1,,,,,,,,,,
null,,confidence_buffer,617387,confidence_buffer,,null,,,,,,,,,,,,,,,,,,
null,,thebreak,617889,break,,null,,,,,,,,,,,,,,,,,,
3162.60000000149,,realistic_rating,621054,Yukon,,50,Yukon,US,2,,,,,,,,,,,,,,,
null,,confidence_buffer,621157,confidence_buffer,,null,,,,,,,,,,,,,,,,,,
2173,,pt2_unique_rating,623333,Yukon,,50,,,2,,,,,,,,,,,,,,,
null,,confidence_buffer,623436,confidence_buffer,,null,,,,,,,,,,,,,,,,,,
2280,,pt2_memorable_rating,625718,Yukon,,51,,,3,,,,,,,,,,,,,,,
null,,confidence_buffer,625822,confidence_buffer,,null,,,,,,,,,,,,,,,,,,
1945.5,,recognition_phase,627771,Yukon,,49,,,,,,old,1,1,,,,,,,,,,
null,,confidence_buffer,627874,confidence_buffer,,null,,,,,,,,,,,,,,,,,,
null,,thebreak,628376,break,,null,,,,,,,,,,,,,,,,,,
4265.89999999851,,realistic_rating,632644,Watkins Glen,,50,Watkins Glen,US,2,,,,,,,,,,,,,,,
null,,confidence_buffer,632747,confidence_buffer,,null,,,,,,,,,,,,,,,,,,
5322.9000000059605,,pt2_unique_rating,638072,Watkins Glen,,51,,,3,,,,,,,,,,,,,,,
null,,confidence_buffer,638175,confidence_buffer,,null,,,,,,,,,,,,,,,,,,
4510.30000000447,,pt2_memorable_rating,642688,Watkins Glen,,50,,,2,,,,,,,,,,,,,,,
null,,confidence_buffer,642790,confidence_buffer,,null,,,,,,,,,,,,,,,,,,
2865.7999999970198,,recognition_phase,645659,Watkins Glen,,52,,,,,,new,1,1,,,,,,,,,,
null,,confidence_buffer,645762,confidence_buffer,,null,,,,,,,,,,,,,,,,,,
null,,thebreak,646265,break,,null,,,,,,,,,,,,,,,,,,
4276.79999999702,,realistic_rating,650544,Willowford,,50,Willowford,Fictional,2,,,,,,,,,,,,,,,
null,,confidence_buffer,650648,confidence_buffer,,null,,,,,,,,,,,,,,,,,,
3707.1999999955297,,pt2_unique_rating,654357,Willowford,,50,,,2,,,,,,,,,,,,,,,
null,,confidence_buffer,654459,confidence_buffer,,null,,,,,,,,,,,,,,,,,,
2638.5,,pt2_memorable_rating,657101,Willowford,,50,,,2,,,,,,,,,,,,,,,
null,,confidence_buffer,657205,confidence_buffer,,null,,,,,,,,,,,,,,,,,,
1655.7000000029802,,recognition_phase,658863,Willowford,,49,,,,,,old,1,1,,,,,,,,,,
null,,confidence_buffer,658966,confidence_buffer,,null,,,,,,,,,,,,,,,,,,
null,,thebreak,659467,break,,null,,,,,,,,,,,,,,,,,,
4696.89999999851,,realistic_rating,664166,Maravilla Springs,,51,Maravilla Springs,Fictional,3,,,,,,,,,,,,,,,
null,,confidence_buffer,664269,confidence_buffer,,null,,,,,,,,,,,,,,,,,,
2402.7000000029802,,pt2_unique_rating,666675,Maravilla Springs,,51,,,3,,,,,,,,,,,,,,,
null,,confidence_buffer,666779,confidence_buffer,,null,,,,,,,,,,,,,,,,,,
3934,,pt2_memorable_rating,670715,Maravilla Springs,,50,,,2,,,,,,,,,,,,,,,
null,,confidence_buffer,670817,confidence_buffer,,null,,,,,,,,,,,,,,,,,,
2453.10000000149,,recognition_phase,673273,Maravilla Springs,,49,,,,,,old,1,1,,,,,,,,,,
null,,confidence_buffer,673376,confidence_buffer,,null,,,,,,,,,,,,,,,,,,
null,,thebreak,673881,break,,null,,,,,,,,,,,,,,,,,,
3715.1999999955297,,realistic_rating,677599,Boulder,,51,Boulder,US,3,,,,,,,,,,,,,,,
null,,confidence_buffer,677702,confidence_buffer,,null,,,,,,,,,,,,,,,,,,
3905.60000000149,,pt2_unique_rating,681610,Boulder,,51,,,3,,,,,,,,,,,,,,,
null,,confidence_buffer,681713,confidence_buffer,,null,,,,,,,,,,,,,,,,,,
2445.89999999851,,pt2_memorable_rating,684161,Boulder,,51,,,3,,,,,,,,,,,,,,,
null,,confidence_buffer,684264,confidence_buffer,,null,,,,,,,,,,,,,,,,,,
1679.1000000014901,,recognition_phase,685946,Boulder,,49,,,,,,old,1,1,,,,,,,,,,
null,,confidence_buffer,686050,confidence_buffer,,null,,,,,,,,,,,,,,,,,,
null,,thebreak,686552,break,,null,,,,,,,,,,,,,,,,,,
6258.4000000059605,,realistic_rating,692813,Racine,,49,Racine,US,1,,,,,,,,,,,,,,,
null,,confidence_buffer,692917,confidence_buffer,,null,,,,,,,,,,,,,,,,,,
2430.1999999955297,,pt2_unique_rating,695349,Racine,,51,,,3,,,,,,,,,,,,,,,
null,,confidence_buffer,695455,confidence_buffer,,null,,,,,,,,,,,,,,,,,,
4049.2000000029802,,pt2_memorable_rating,699507,Racine,,50,,,2,,,,,,,,,,,,,,,
null,,confidence_buffer,699621,confidence_buffer,,null,,,,,,,,,,,,,,,,,,
1755,,probe_rating,701379,probe_rating,,53,,,,5,1,,,,,,,,,,,,,
null,,confidence_buffer,701482,confidence_buffer,,null,,,,,,,,,,,,,,,,,,
4571.20000000298,,recognition_phase,706056,Racine,,52,,,,,,new,1,1,,,,,,,,,,
null,,confidence_buffer,706160,confidence_buffer,,null,,,,,,,,,,,,,,,,,,
null,,thebreak,706662,break,,null,,,,,,,,,,,,,,,,,,
3594.5,,realistic_rating,710259,Hilo,,50,Hilo,US,2,,,,,,,,,,,,,,,
null,,confidence_buffer,710363,confidence_buffer,,null,,,,,,,,,,,,,,,,,,
2935.89999999851,,pt2_unique_rating,713301,Hilo,,51,,,3,,,,,,,,,,,,,,,
null,,confidence_buffer,713404,confidence_buffer,,null,,,,,,,,,,,,,,,,,,
2110.7999999970198,,pt2_memorable_rating,715517,Hilo,,51,,,3,,,,,,,,,,,,,,,
null,,confidence_buffer,715620,confidence_buffer,,null,,,,,,,,,,,,,,,,,,
5008.10000000149,,recognition_phase,720631,Hilo,,52,,,,,,new,1,1,,,,,,,,,,
null,,confidence_buffer,720734,confidence_buffer,,null,,,,,,,,,,,,,,,,,,
null,,thebreak,721236,break,,null,,,,,,,,,,,,,,,,,,
6991.0999999940395,,realistic_rating,728230,Livingston,,51,Livingston,US,3,,,,,,,,,,,,,,,
null,,confidence_buffer,728334,confidence_buffer,,null,,,,,,,,,,,,,,,,,,
2836.89999999851,,probe_rating,731173,probe_rating,,52,,,,4,1,,,,,,,,,,,,,
null,,confidence_buffer,731277,confidence_buffer,,null,,,,,,,,,,,,,,,,,,
2642.2000000029802,,pt2_unique_rating,733922,Livingston,,50,,,2,,,,,,,,,,,,,,,
null,,confidence_buffer,734025,confidence_buffer,,null,,,,,,,,,,,,,,,,,,
2568.6999999955297,,pt2_memorable_rating,736596,Livingston,,51,,,3,,,,,,,,,,,,,,,
null,,confidence_buffer,736703,confidence_buffer,,null,,,,,,,,,,,,,,,,,,
3057.4000000059605,,recognition_phase,739764,Livingston,,51,,,,,,new,1,1,,,,,,,,,,
null,,confidence_buffer,739868,confidence_buffer,,null,,,,,,,,,,,,,,,,,,
null,,thebreak,740369,break,,null,,,,,,,,,,,,,,,,,,
4328.10000000149,,realistic_rating,744700,Rosehollow,,50,Rosehollow,Fictional,2,,,,,,,,,,,,,,,
null,,confidence_buffer,744803,confidence_buffer,,null,,,,,,,,,,,,,,,,,,
4503.89999999851,,pt2_unique_rating,749310,Rosehollow,,50,,,2,,,,,,,,,,,,,,,
null,,confidence_buffer,749412,confidence_buffer,,null,,,,,,,,,,,,,,,,,,
2972.89999999851,,pt2_memorable_rating,752388,Rosehollow,,51,,,3,,,,,,,,,,,,,,,
null,,confidence_buffer,752491,confidence_buffer,,null,,,,,,,,,,,,,,,,,,
3300.39999999851,,recognition_phase,755794,Rosehollow,,50,,,,,,old,1,1,,,,,,,,,,
null,,confidence_buffer,755898,confidence_buffer,,null,,,,,,,,,,,,,,,,,,
null,,thebreak,756401,break,,null,,,,,,,,,,,,,,,,,,
4933.79999999702,,realistic_rating,761336,Ravenport,,51,Ravenport,Fictional,3,,,,,,,,,,,,,,,
null,,confidence_buffer,761439,confidence_buffer,,null,,,,,,,,,,,,,,,,,,
2034.8000000044703,,pt2_unique_rating,763475,Ravenport,,50,,,2,,,,,,,,,,,,,,,
null,,confidence_buffer,763578,confidence_buffer,,null,,,,,,,,,,,,,,,,,,
2028.6000000014901,,pt2_memorable_rating,765609,Ravenport,,51,,,3,,,,,,,,,,,,,,,
null,,confidence_buffer,765713,confidence_buffer,,null,,,,,,,,,,,,,,,,,,
3370.7000000029802,,recognition_phase,769086,Ravenport,,51,,,,,,new,0,0.9411764705882353,,,,,,,,,,
null,,confidence_buffer,769190,confidence_buffer,,null,,,,,,,,,,,,,,,,,,
null,,thebreak,769692,break,,null,,,,,,,,,,,,,,,,,,
4889.69999999553,,realistic_rating,774584,Delaware City,,52,Delaware City,US,4,,,,,,,,,,,,,,,
null,,confidence_buffer,774687,confidence_buffer,,null,,,,,,,,,,,,,,,,,,
3322.4000000059605,,pt2_unique_rating,778012,Delaware City,,50,,,2,,,,,,,,,,,,,,,
null,,confidence_buffer,778115,confidence_buffer,,null,,,,,,,,,,,,,,,,,,
2565.5,,pt2_memorable_rating,780683,Delaware City,,51,,,3,,,,,,,,,,,,,,,
null,,confidence_buffer,780786,confidence_buffer,,null,,,,,,,,,,,,,,,,,,
2094.60000000149,,recognition_phase,782884,Delaware City,,49,,,,,,old,1,0.9444444444444444,,,,,,,,,,
null,,confidence_buffer,782987,confidence_buffer,,null,,,,,,,,,,,,,,,,,,
null,,thebreak,783490,break,,null,,,,,,,,,,,,,,,,,,
4403.69999999553,,realistic_rating,787896,Medora,,49,Medora,US,1,,,,,,,,,,,,,,,
null,,confidence_buffer,787999,confidence_buffer,,null,,,,,,,,,,,,,,,,,,
1796.3999999985099,,pt2_unique_rating,789798,Medora,,50,,,2,,,,,,,,,,,,,,,
null,,confidence_buffer,789900,confidence_buffer,,null,,,,,,,,,,,,,,,,,,
2762.1999999955297,,pt2_memorable_rating,792665,Medora,,50,,,2,,,,,,,,,,,,,,,
null,,confidence_buffer,792768,confidence_buffer,,null,,,,,,,,,,,,,,,,,,
2424.3000000044703,,recognition_phase,795196,Medora,,52,,,,,,new,1,0.9473684210526315,,,,,,,,,,
null,,confidence_buffer,795300,confidence_buffer,,null,,,,,,,,,,,,,,,,,,
null,,thebreak,795803,break,,null,,,,,,,,,,,,,,,,,,
4376.20000000298,,realistic_rating,800182,Millstone,,50,Millstone,Fictional,2,,,,,,,,,,,,,,,
null,,confidence_buffer,800286,confidence_buffer,,null,,,,,,,,,,,,,,,,,,
3022.1999999955297,,pt2_unique_rating,803311,Millstone,,50,,,2,,,,,,,,,,,,,,,
null,,confidence_buffer,803415,confidence_buffer,,null,,,,,,,,,,,,,,,,,,
1570.3999999985099,,probe_rating,804988,probe_rating,,52,,,,4,1,,,,,,,,,,,,,
null,,confidence_buffer,805092,confidence_buffer,,null,,,,,,,,,,,,,,,,,,
2528.60000000149,,pt2_memorable_rating,807623,Millstone,,51,,,3,,,,,,,,,,,,,,,
null,,confidence_buffer,807727,confidence_buffer,,null,,,,,,,,,,,,,,,,,,
1616.5,,recognition_phase,809346,Millstone,,49,,,,,,old,1,0.95,,,,,,,,,,
null,,confidence_buffer,809450,confidence_buffer,,null,,,,,,,,,,,,,,,,,,
null,,thebreak,809953,break,,null,,,,,,,,,,,,,,,,,,
3016.7999999970198,,realistic_rating,812972,Duck,,49,Duck,US,1,,,,,,,,,,,,,,,
null,,confidence_buffer,813075,confidence_buffer,,null,,,,,,,,,,,,,,,,,,
3430,,pt2_unique_rating,816508,Duck,,51,,,3,,,,,,,,,,,,,,,
null,,confidence_buffer,816611,confidence_buffer,,null,,,,,,,,,,,,,,,,,,
1999.3000000044703,,pt2_memorable_rating,818613,Duck,,51,,,3,,,,,,,,,,,,,,,
null,,confidence_buffer,818717,confidence_buffer,,null,,,,,,,,,,,,,,,,,,
2353.5,,recognition_phase,821072,Duck,,49,,,,,,old,1,0.9523809523809523,,,,,,,,,,
null,,confidence_buffer,821175,confidence_buffer,,null,,,,,,,,,,,,,,,,,,
null,,thebreak,821677,break,,null,,,,,,,,,,,,,,,,,,
7718.20000000298,,realistic_rating,829398,Gatlinburg,,52,Gatlinburg,US,4,,,,,,,,,,,,,,,
null,,confidence_buffer,829502,confidence_buffer,,null,,,,,,,,,,,,,,,,,,
2174.7999999970198,,pt2_unique_rating,831680,Gatlinburg,,50,,,2,,,,,,,,,,,,,,,
null,,confidence_buffer,831784,confidence_buffer,,null,,,,,,,,,,,,,,,,,,
2370.0999999940395,,pt2_memorable_rating,834157,Gatlinburg,,51,,,3,,,,,,,,,,,,,,,
null,,confidence_buffer,834260,confidence_buffer,,null,,,,,,,,,,,,,,,,,,
3760.1999999955297,,recognition_phase,838023,Gatlinburg,,51,,,,,,new,1,0.9545454545454546,,,,,,,,,,
null,,confidence_buffer,838124,confidence_buffer,,null,,,,,,,,,,,,,,,,,,
null,,thebreak,838625,break,,null,,,,,,,,,,,,,,,,,,
5305.19999999553,,realistic_rating,843932,Tamarisk Hills,,51,Tamarisk Hills,Fictional,3,,,,,,,,,,,,,,,
null,,confidence_buffer,844034,confidence_buffer,,null,,,,,,,,,,,,,,,,,,
2678,,pt2_unique_rating,846714,Tamarisk Hills,,50,,,2,,,,,,,,,,,,,,,
null,,confidence_buffer,846819,confidence_buffer,,null,,,,,,,,,,,,,,,,,,
2985.5,,pt2_memorable_rating,849807,Tamarisk Hills,,50,,,2,,,,,,,,,,,,,,,
null,,confidence_buffer,849919,confidence_buffer,,null,,,,,,,,,,,,,,,,,,
4718.70000000298,,recognition_phase,854640,Tamarisk Hills,,51,,,,,,new,0,0.9130434782608695,,,,,,,,,,
null,,confidence_buffer,854743,confidence_buffer,,null,,,,,,,,,,,,,,,,,,
null,,thebreak,855245,break,,null,,,,,,,,,,,,,,,,,,
6946,,realistic_rating,862194,Westridge,,51,Westridge,Fictional,3,,,,,,,,,,,,,,,
null,,confidence_buffer,862298,confidence_buffer,,null,,,,,,,,,,,,,,,,,,
4602.19999999553,,pt2_unique_rating,866903,Westridge,,50,,,2,,,,,,,,,,,,,,,
null,,confidence_buffer,867006,confidence_buffer,,null,,,,,,,,,,,,,,,,,,
2983.39999999851,,pt2_memorable_rating,869992,Westridge,,51,,,3,,,,,,,,,,,,,,,
null,,confidence_buffer,870096,confidence_buffer,,null,,,,,,,,,,,,,,,,,,
3457.89999999851,,recognition_phase,873556,Westridge,,51,,,,,,new,0,0.875,,,,,,,,,,
null,,confidence_buffer,873658,confidence_buffer,,null,,,,,,,,,,,,,,,,,,
null,,thebreak,874159,break,,null,,,,,,,,,,,,,,,,,,
4273.39999999851,,realistic_rating,878435,Summershade,,49,Summershade,Fictional,1,,,,,,,,,,,,,,,
null,,confidence_buffer,878538,confidence_buffer,,null,,,,,,,,,,,,,,,,,,
2809.39999999851,,pt2_unique_rating,881350,Summershade,,50,,,2,,,,,,,,,,,,,,,
null,,confidence_buffer,881453,confidence_buffer,,null,,,,,,,,,,,,,,,,,,
2775.10000000149,,pt2_memorable_rating,884229,Summershade,,51,,,3,,,,,,,,,,,,,,,
null,,confidence_buffer,884333,confidence_buffer,,null,,,,,,,,,,,,,,,,,,
2381.10000000149,,recognition_phase,886717,Summershade,,52,,,,,,new,1,0.88,,,,,,,,,,
null,,confidence_buffer,886820,confidence_buffer,,null,,,,,,,,,,,,,,,,,,
null,,thebreak,887322,break,,null,,,,,,,,,,,,,,,,,,
6420,,realistic_rating,893745,Assateague Island,,50,Assateague Island,US,2,,,,,,,,,,,,,,,
null,,confidence_buffer,893848,confidence_buffer,,null,,,,,,,,,,,,,,,,,,
3170.10000000149,,pt2_unique_rating,897021,Assateague Island,,51,,,3,,,,,,,,,,,,,,,
null,,confidence_buffer,897124,confidence_buffer,,null,,,,,,,,,,,,,,,,,,
3154.7000000029802,,pt2_memorable_rating,900281,Assateague Island,,50,,,2,,,,,,,,,,,,,,,
null,,confidence_buffer,900384,confidence_buffer,,null,,,,,,,,,,,,,,,,,,
2802.1999999955297,,recognition_phase,903189,Assateague Island,,52,,,,,,new,1,0.8846153846153846,,,,,,,,,,
null,,confidence_buffer,903293,confidence_buffer,,null,,,,,,,,,,,,,,,,,,
null,,thebreak,903795,break,,null,,,,,,,,,,,,,,,,,,
2757,,realistic_rating,906555,Okoboji,,49,Okoboji,US,1,,,,,,,,,,,,,,,
null,,confidence_buffer,906658,confidence_buffer,,null,,,,,,,,,,,,,,,,,,
2565.5,,pt2_unique_rating,909226,Okoboji,,51,,,3,,,,,,,,,,,,,,,
null,,confidence_buffer,909330,confidence_buffer,,null,,,,,,,,,,,,,,,,,,
2372.2000000029802,,pt2_memorable_rating,911705,Okoboji,,50,,,2,,,,,,,,,,,,,,,
null,,confidence_buffer,911808,confidence_buffer,,null,,,,,,,,,,,,,,,,,,
2299.7000000029802,,recognition_phase,914110,Okoboji,,52,,,,,,new,1,0.8888888888888888,,,,,,,,,,
null,,confidence_buffer,914212,confidence_buffer,,null,,,,,,,,,,,,,,,,,,
null,,thebreak,914714,break,,null,,,,,,,,,,,,,,,,,,
3445.7999999970198,,realistic_rating,918163,Clearbrook,,51,Clearbrook,Fictional,3,,,,,,,,,,,,,,,
null,,confidence_buffer,918266,confidence_buffer,,null,,,,,,,,,,,,,,,,,,
2863.5,,pt2_unique_rating,921132,Clearbrook,,50,,,2,,,,,,,,,,,,,,,
null,,confidence_buffer,921235,confidence_buffer,,null,,,,,,,,,,,,,,,,,,
3362,,pt2_memorable_rating,924599,Clearbrook,,51,,,3,,,,,,,,,,,,,,,
null,,confidence_buffer,924701,confidence_buffer,,null,,,,,,,,,,,,,,,,,,
3542.2999999970198,,recognition_phase,928245,Clearbrook,,51,,,,,,new,1,0.8928571428571429,,,,,,,,,,
null,,confidence_buffer,928349,confidence_buffer,,null,,,,,,,,,,,,,,,,,,
null,,thebreak,928851,break,,null,,,,,,,,,,,,,,,,,,
3952.6999999955297,,realistic_rating,932805,Falconridge,,50,Falconridge,Fictional,2,,,,,,,,,,,,,,,
null,,confidence_buffer,932908,confidence_buffer,,null,,,,,,,,,,,,,,,,,,
3845.5,,pt2_unique_rating,936755,Falconridge,,50,,,2,,,,,,,,,,,,,,,
null,,confidence_buffer,936858,confidence_buffer,,null,,,,,,,,,,,,,,,,,,
3199.60000000149,,pt2_memorable_rating,940060,Falconridge,,51,,,3,,,,,,,,,,,,,,,
null,,confidence_buffer,940163,confidence_buffer,,null,,,,,,,,,,,,,,,,,,
3798.5,,recognition_phase,943964,Falconridge,,51,,,,,,new,0,0.8620689655172413,,,,,,,,,,
null,,confidence_buffer,944068,confidence_buffer,,null,,,,,,,,,,,,,,,,,,
null,,thebreak,944570,break,,null,,,,,,,,,,,,,,,,,,
3484.5,,realistic_rating,948057,Hollendale,,51,Hollendale,Fictional,3,,,,,,,,,,,,,,,
null,,confidence_buffer,948161,confidence_buffer,,null,,,,,,,,,,,,,,,,,,
3052.2000000029802,,pt2_unique_rating,951216,Hollendale,,50,,,2,,,,,,,,,,,,,,,
null,,confidence_buffer,951320,confidence_buffer,,null,,,,,,,,,,,,,,,,,,
2707.7000000029802,,pt2_memorable_rating,954030,Hollendale,,51,,,3,,,,,,,,,,,,,,,
null,,confidence_buffer,954134,confidence_buffer,,null,,,,,,,,,,,,,,,,,,
3799.2000000029802,,recognition_phase,957936,Hollendale,,52,,,,,,new,1,0.8666666666666667,,,,,,,,,,
null,,confidence_buffer,958040,confidence_buffer,,null,,,,,,,,,,,,,,,,,,
null,,thebreak,958541,break,,null,,,,,,,,,,,,,,,,,,
10686,,realistic_rating,969230,Granton Ridge,,49,Granton Ridge,Fictional,1,,,,,,,,,,,,,,,
null,,confidence_buffer,969334,confidence_buffer,,null,,,,,,,,,,,,,,,,,,
2228.89999999851,,pt2_unique_rating,971565,Granton Ridge,,51,,,3,,,,,,,,,,,,,,,
null,,confidence_buffer,971667,confidence_buffer,,null,,,,,,,,,,,,,,,,,,
2743.7999999970198,,pt2_memorable_rating,974413,Granton Ridge,,51,,,3,,,,,,,,,,,,,,,
null,,confidence_buffer,974516,confidence_buffer,,null,,,,,,,,,,,,,,,,,,
2010.8000000044703,,recognition_phase,976529,Granton Ridge,,52,,,,,,new,1,0.8709677419354839,,,,,,,,,,
null,,confidence_buffer,976632,confidence_buffer,,null,,,,,,,,,,,,,,,,,,
null,,thebreak,977134,break,,null,,,,,,,,,,,,,,,,,,
2773.2999999970198,,realistic_rating,979910,Hanover,,50,Hanover,US,2,,,,,,,,,,,,,,,
null,,confidence_buffer,980011,confidence_buffer,,null,,,,,,,,,,,,,,,,,,
1658.9000000059605,,pt2_unique_rating,981672,Hanover,,50,,,2,,,,,,,,,,,,,,,
null,,confidence_buffer,981774,confidence_buffer,,null,,,,,,,,,,,,,,,,,,
3735.2999999970198,,pt2_memorable_rating,985512,Hanover,,51,,,3,,,,,,,,,,,,,,,
null,,confidence_buffer,985616,confidence_buffer,,null,,,,,,,,,,,,,,,,,,
2686.2000000029802,,recognition_phase,988305,Hanover,,52,,,,,,new,1,0.875,,,,,,,,,,
null,,confidence_buffer,988408,confidence_buffer,,null,,,,,,,,,,,,,,,,,,
null,,thebreak,988911,break,,null,,,,,,,,,,,,,,,,,,
3437,,realistic_rating,992351,Bar Harbor,,50,Bar Harbor,US,2,,,,,,,,,,,,,,,
null,,confidence_buffer,992454,confidence_buffer,,null,,,,,,,,,,,,,,,,,,
1710,,pt2_unique_rating,994166,Bar Harbor,,51,,,3,,,,,,,,,,,,,,,
null,,confidence_buffer,994269,confidence_buffer,,null,,,,,,,,,,,,,,,,,,
1643.8999999985099,,pt2_memorable_rating,995916,Bar Harbor,,51,,,3,,,,,,,,,,,,,,,
null,,confidence_buffer,996018,confidence_buffer,,null,,,,,,,,,,,,,,,,,,
2688.39999999851,,recognition_phase,998710,Bar Harbor,,49,,,,,,old,1,0.8787878787878788,,,,,,,,,,
null,,confidence_buffer,998813,confidence_buffer,,null,,,,,,,,,,,,,,,,,,
null,,thebreak,999315,break,,null,,,,,,,,,,,,,,,,,,
4258.10000000149,,realistic_rating,1003577,West Talora,,50,West Talora,Fictional,2,,,,,,,,,,,,,,,
null,,confidence_buffer,1003682,confidence_buffer,,null,,,,,,,,,,,,,,,,,,
2227.2000000029802,,pt2_unique_rating,1005912,West Talora,,50,,,2,,,,,,,,,,,,,,,
null,,confidence_buffer,1006016,confidence_buffer,,null,,,,,,,,,,,,,,,,,,
1930.6000000014901,,pt2_memorable_rating,1007949,West Talora,,50,,,2,,,,,,,,,,,,,,,
null,,confidence_buffer,1008052,confidence_buffer,,null,,,,,,,,,,,,,,,,,,
2790.60000000149,,recognition_phase,1010846,West Talora,,51,,,,,,new,0,0.8529411764705882,,,,,,,,,,
null,,confidence_buffer,1010949,confidence_buffer,,null,,,,,,,,,,,,,,,,,,
null,,thebreak,1011451,break,,null,,,,,,,,,,,,,,,,,,
5597.79999999702,,realistic_rating,1017052,Solara Glen,,49,Solara Glen,Fictional,1,,,,,,,,,,,,,,,
null,,confidence_buffer,1017156,confidence_buffer,,null,,,,,,,,,,,,,,,,,,
3072.5,,pt2_unique_rating,1020231,Solara Glen,,50,,,2,,,,,,,,,,,,,,,
null,,confidence_buffer,1020335,confidence_buffer,,null,,,,,,,,,,,,,,,,,,
2562.3000000044703,,pt2_memorable_rating,1022900,Solara Glen,,50,,,2,,,,,,,,,,,,,,,
null,,confidence_buffer,1023003,confidence_buffer,,null,,,,,,,,,,,,,,,,,,
2540.2000000029802,,recognition_phase,1025546,Solara Glen,,52,,,,,,new,1,0.8571428571428571,,,,,,,,,,
null,,confidence_buffer,1025650,confidence_buffer,,null,,,,,,,,,,,,,,,,,,
null,,thebreak,1026153,break,,null,,,,,,,,,,,,,,,,,,
4106.60000000149,,realistic_rating,1030262,Brookmere,,50,Brookmere,Fictional,2,,,,,,,,,,,,,,,
null,,confidence_buffer,1030365,confidence_buffer,,null,,,,,,,,,,,,,,,,,,
1827.1999999955297,,probe_rating,1032195,probe_rating,,53,,,,5,1,,,,,,,,,,,,,
null,,confidence_buffer,1032299,confidence_buffer,,null,,,,,,,,,,,,,,,,,,
3032.3000000044703,,pt2_unique_rating,1035334,Brookmere,,50,,,2,,,,,,,,,,,,,,,
null,,confidence_buffer,1035436,confidence_buffer,,null,,,,,,,,,,,,,,,,,,
1814.5,,pt2_memorable_rating,1037253,Brookmere,,51,,,3,,,,,,,,,,,,,,,
null,,confidence_buffer,1037358,confidence_buffer,,null,,,,,,,,,,,,,,,,,,
2504.10000000149,,recognition_phase,1039865,Brookmere,,52,,,,,,new,1,0.8611111111111112,,,,,,,,,,
null,,confidence_buffer,1039970,confidence_buffer,,null,,,,,,,,,,,,,,,,,,
null,,thebreak,1040472,break,,null,,,,,,,,,,,,,,,,,,
3397.89999999851,,realistic_rating,1043872,Ashford Hills,,51,Ashford Hills,Fictional,3,,,,,,,,,,,,,,,
null,,confidence_buffer,1043976,confidence_buffer,,null,,,,,,,,,,,,,,,,,,
2104.2999999970198,,pt2_unique_rating,1046083,Ashford Hills,,50,,,2,,,,,,,,,,,,,,,
null,,confidence_buffer,1046187,confidence_buffer,,null,,,,,,,,,,,,,,,,,,
2349.7000000029802,,pt2_memorable_rating,1048539,Ashford Hills,,51,,,3,,,,,,,,,,,,,,,
null,,confidence_buffer,1048643,confidence_buffer,,null,,,,,,,,,,,,,,,,,,
3013.2999999970198,,recognition_phase,1051659,Ashford Hills,,50,,,,,,old,0,0.8378378378378378,,,,,,,,,,
null,,confidence_buffer,1051762,confidence_buffer,,null,,,,,,,,,,,,,,,,,,
null,,thebreak,1052264,break,,null,,,,,,,,,,,,,,,,,,
3225.3000000044703,,realistic_rating,1055492,San Antonio,,52,San Antonio,US,4,,,,,,,,,,,,,,,
null,,confidence_buffer,1055594,confidence_buffer,,null,,,,,,,,,,,,,,,,,,
2284.5,,probe_rating,1057881,probe_rating,,52,,,,4,1,,,,,,,,,,,,,
null,,confidence_buffer,1057985,confidence_buffer,,null,,,,,,,,,,,,,,,,,,
4439.5,,pt2_unique_rating,1062427,San Antonio,,49,,,1,,,,,,,,,,,,,,,
null,,confidence_buffer,1062531,confidence_buffer,,null,,,,,,,,,,,,,,,,,,
3640.89999999851,,pt2_memorable_rating,1066174,San Antonio,,51,,,3,,,,,,,,,,,,,,,
null,,confidence_buffer,1066277,confidence_buffer,,null,,,,,,,,,,,,,,,,,,
3146,,recognition_phase,1069426,San Antonio,,49,,,,,,old,1,0.8421052631578947,,,,,,,,,,
null,,confidence_buffer,1069530,confidence_buffer,,null,,,,,,,,,,,,,,,,,,
null,,thebreak,1070032,break,,null,,,,,,,,,,,,,,,,,,
6581.5,,realistic_rating,1076616,Orchard Bend,,50,Orchard Bend,Fictional,2,,,,,,,,,,,,,,,
null,,confidence_buffer,1076720,confidence_buffer,,null,,,,,,,,,,,,,,,,,,
2911.10000000149,,pt2_unique_rating,1079634,Orchard Bend,,50,,,2,,,,,,,,,,,,,,,
null,,confidence_buffer,1079736,confidence_buffer,,null,,,,,,,,,,,,,,,,,,
2266.89999999851,,pt2_memorable_rating,1082005,Orchard Bend,,51,,,3,,,,,,,,,,,,,,,
null,,confidence_buffer,1082108,confidence_buffer,,null,,,,,,,,,,,,,,,,,,
3328.89999999851,,recognition_phase,1085440,Orchard Bend,,51,,,,,,new,1,0.8461538461538461,,,,,,,,,,
null,,confidence_buffer,1085543,confidence_buffer,,null,,,,,,,,,,,,,,,,,,
null,,thebreak,1086046,break,,null,,,,,,,,,,,,,,,,,,
3808.60000000149,,realistic_rating,1089857,Fairhaven,,52,Fairhaven,Fictional,4,,,,,,,,,,,,,,,
null,,confidence_buffer,1089961,confidence_buffer,,null,,,,,,,,,,,,,,,,,,
1932.6000000014901,,probe_rating,1091896,probe_rating,,51,,,,3,1,,,,,,,,,,,,,
null,,confidence_buffer,1092004,confidence_buffer,,null,,,,,,,,,,,,,,,,,,
3787.5,,pt2_unique_rating,1095794,Fairhaven,,50,,,2,,,,,,,,,,,,,,,
null,,confidence_buffer,1095898,confidence_buffer,,null,,,,,,,,,,,,,,,,,,
2027.8000000044703,,pt2_memorable_rating,1097928,Fairhaven,,51,,,3,,,,,,,,,,,,,,,
null,,confidence_buffer,1098032,confidence_buffer,,null,,,,,,,,,,,,,,,,,,
3944.2999999970198,,recognition_phase,1101979,Fairhaven,,52,,,,,,new,1,0.85,,,,,,,,,,
null,,confidence_buffer,1102083,confidence_buffer,,null,,,,,,,,,,,,,,,,,,
null,,thebreak,1102585,break,,null,,,,,,,,,,,,,,,,,,
4973.5,,realistic_rating,1107560,Gardnerville,,51,Gardnerville,US,3,,,,,,,,,,,,,,,
null,,confidence_buffer,1107664,confidence_buffer,,null,,,,,,,,,,,,,,,,,,
2549.7999999970198,,pt2_unique_rating,1110216,Gardnerville,,50,,,2,,,,,,,,,,,,,,,
null,,confidence_buffer,1110319,confidence_buffer,,null,,,,,,,,,,,,,,,,,,
2183.39999999851,,pt2_memorable_rating,1112506,Gardnerville,,51,,,3,,,,,,,,,,,,,,,
null,,confidence_buffer,1112609,confidence_buffer,,null,,,,,,,,,,,,,,,,,,
2607.2999999970198,,recognition_phase,1115220,Gardnerville,,51,,,,,,new,1,0.8536585365853658,,,,,,,,,,
null,,confidence_buffer,1115323,confidence_buffer,,null,,,,,,,,,,,,,,,,,,
null,,thebreak,1115825,break,,null,,,,,,,,,,,,,,,,,,
2954.39999999851,,realistic_rating,1118783,Park City,,52,Park City,US,4,,,,,,,,,,,,,,,
null,,confidence_buffer,1118886,confidence_buffer,,null,,,,,,,,,,,,,,,,,,
3002.7000000029802,,pt2_unique_rating,1121891,Park City,,49,,,1,,,,,,,,,,,,,,,
null,,confidence_buffer,1121995,confidence_buffer,,null,,,,,,,,,,,,,,,,,,
2762.89999999851,,pt2_memorable_rating,1124760,Park City,,51,,,3,,,,,,,,,,,,,,,
null,,confidence_buffer,1124862,confidence_buffer,,null,,,,,,,,,,,,,,,,,,
2429.6999999955297,,recognition_phase,1127294,Park City,,49,,,,,,old,1,0.8571428571428571,,,,,,,,,,
null,,confidence_buffer,1127398,confidence_buffer,,null,,,,,,,,,,,,,,,,,,
null,,thebreak,1127900,break,,null,,,,,,,,,,,,,,,,,,
4046.5,,realistic_rating,1131949,Barnard,,49,Barnard,US,1,,,,,,,,,,,,,,,
null,,confidence_buffer,1132052,confidence_buffer,,null,,,,,,,,,,,,,,,,,,
2561.5,,pt2_unique_rating,1134616,Barnard,,50,,,2,,,,,,,,,,,,,,,
null,,confidence_buffer,1134720,confidence_buffer,,null,,,,,,,,,,,,,,,,,,
2836.3000000044703,,pt2_memorable_rating,1137559,Barnard,,51,,,3,,,,,,,,,,,,,,,
null,,confidence_buffer,1137662,confidence_buffer,,null,,,,,,,,,,,,,,,,,,
3348.5,,recognition_phase,1141014,Barnard,,51,,,,,,new,1,0.8604651162790697,,,,,,,,,,
null,,confidence_buffer,1141118,confidence_buffer,,null,,,,,,,,,,,,,,,,,,
null,,thebreak,1141620,break,,null,,,,,,,,,,,,,,,,,,
3434.6999999955297,,realistic_rating,1145058,Redgrove,,51,Redgrove,Fictional,3,,,,,,,,,,,,,,,
null,,confidence_buffer,1145161,confidence_buffer,,null,,,,,,,,,,,,,,,,,,
2625.5,,pt2_unique_rating,1147788,Redgrove,,50,,,2,,,,,,,,,,,,,,,
null,,confidence_buffer,1147891,confidence_buffer,,null,,,,,,,,,,,,,,,,,,
4750.5,,pt2_memorable_rating,1152645,Redgrove,,51,,,3,,,,,,,,,,,,,,,
null,,confidence_buffer,1152747,confidence_buffer,,null,,,,,,,,,,,,,,,,,,
2115,,recognition_phase,1154865,Redgrove,,50,,,,,,old,1,0.8636363636363636,,,,,,,,,,
null,,confidence_buffer,1154969,confidence_buffer,,null,,,,,,,,,,,,,,,,,,
null,,thebreak,1155472,break,,null,,,,,,,,,,,,,,,,,,
5619.29999999702,,realistic_rating,1161093,Sisters,,49,Sisters,US,1,,,,,,,,,,,,,,,
null,,confidence_buffer,1161198,confidence_buffer,,null,,,,,,,,,,,,,,,,,,
3059,,pt2_unique_rating,1164259,Sisters,,50,,,2,,,,,,,,,,,,,,,
null,,confidence_buffer,1164362,confidence_buffer,,null,,,,,,,,,,,,,,,,,,
5432.5,,pt2_memorable_rating,1169796,Sisters,,52,,,4,,,,,,,,,,,,,,,
null,,confidence_buffer,1169898,confidence_buffer,,null,,,,,,,,,,,,,,,,,,
1997,,probe_rating,1171897,probe_rating,,51,,,,3,1,,,,,,,,,,,,,
null,,confidence_buffer,1172001,confidence_buffer,,null,,,,,,,,,,,,,,,,,,
2773,,recognition_phase,1174777,Sisters,,49,,,,,,old,1,0.8666666666666667,,,,,,,,,,
null,,confidence_buffer,1174881,confidence_buffer,,null,,,,,,,,,,,,,,,,,,
null,,thebreak,1175383,break,,null,,,,,,,,,,,,,,,,,,
4419.5,,realistic_rating,1179805,Sunmere,,50,Sunmere,Fictional,2,,,,,,,,,,,,,,,
null,,confidence_buffer,1179909,confidence_buffer,,null,,,,,,,,,,,,,,,,,,
2244.2999999970198,,pt2_unique_rating,1182156,Sunmere,,51,,,3,,,,,,,,,,,,,,,
null,,confidence_buffer,1182260,confidence_buffer,,null,,,,,,,,,,,,,,,,,,
2513.7999999970198,,pt2_memorable_rating,1184775,Sunmere,,51,,,3,,,,,,,,,,,,,,,
null,,confidence_buffer,1184878,confidence_buffer,,null,,,,,,,,,,,,,,,,,,
1851.7999999970198,,recognition_phase,1186732,Sunmere,,52,,,,,,new,1,0.8695652173913043,,,,,,,,,,
null,,confidence_buffer,1186835,confidence_buffer,,null,,,,,,,,,,,,,,,,,,
null,,thebreak,1187337,break,,null,,,,,,,,,,,,,,,,,,
3220.7000000029802,,realistic_rating,1190560,Sitka,,49,Sitka,US,1,,,,,,,,,,,,,,,
null,,confidence_buffer,1190664,confidence_buffer,,null,,,,,,,,,,,,,,,,,,
2185.5,,pt2_unique_rating,1192853,Sitka,,51,,,3,,,,,,,,,,,,,,,
null,,confidence_buffer,1192956,confidence_buffer,,null,,,,,,,,,,,,,,,,,,
2919.2000000029802,,pt2_memorable_rating,1195878,Sitka,,50,,,2,,,,,,,,,,,,,,,
null,,confidence_buffer,1195981,confidence_buffer,,null,,,,,,,,,,,,,,,,,,
2550.6999999955297,,recognition_phase,1198534,Sitka,,52,,,,,,new,0,0.851063829787234,,,,,,,,,,
null,,confidence_buffer,1198637,confidence_buffer,,null,,,,,,,,,,,,,,,,,,
null,,thebreak,1199138,break,,null,,,,,,,,,,,,,,,,,,
4852,,realistic_rating,1203993,Coeur d'Alene,,49,Coeur d'Alene,US,1,,,,,,,,,,,,,,,
null,,confidence_buffer,1204096,confidence_buffer,,null,,,,,,,,,,,,,,,,,,
1681.6000000014901,,pt2_unique_rating,1205781,Coeur d'Alene,,51,,,3,,,,,,,,,,,,,,,
null,,confidence_buffer,1205885,confidence_buffer,,null,,,,,,,,,,,,,,,,,,
2820.5,,pt2_memorable_rating,1208708,Coeur d'Alene,,49,,,1,,,,,,,,,,,,,,,
null,,confidence_buffer,1208813,confidence_buffer,,null,,,,,,,,,,,,,,,,,,
1944.8999999985099,,recognition_phase,1210761,Coeur d'Alene,,49,,,,,,old,1,0.8541666666666666,,,,,,,,,,
null,,confidence_buffer,1210865,confidence_buffer,,null,,,,,,,,,,,,,,,,,,
null,,thebreak,1211368,break,,null,,,,,,,,,,,,,,,,,,
4747.0999999940395,,realistic_rating,1216118,Sammamish,,49,Sammamish,US,1,,,,,,,,,,,,,,,
null,,confidence_buffer,1216221,confidence_buffer,,null,,,,,,,,,,,,,,,,,,
1713,,pt2_unique_rating,1217936,Sammamish,,51,,,3,,,,,,,,,,,,,,,
null,,confidence_buffer,1218039,confidence_buffer,,null,,,,,,,,,,,,,,,,,,
1454.1000000014901,,pt2_memorable_rating,1219496,Sammamish,,50,,,2,,,,,,,,,,,,,,,
null,,confidence_buffer,1219599,confidence_buffer,,null,,,,,,,,,,,,,,,,,,
2327.5,,recognition_phase,1221930,Sammamish,,52,,,,,,new,0,0.8367346938775511,,,,,,,,,,
null,,confidence_buffer,1222033,confidence_buffer,,null,,,,,,,,,,,,,,,,,,
null,,thebreak,1222535,break,,null,,,,,,,,,,,,,,,,,,
3584.89999999851,,realistic_rating,1226123,Silverpine,,50,Silverpine,Fictional,2,,,,,,,,,,,,,,,
null,,confidence_buffer,1226227,confidence_buffer,,null,,,,,,,,,,,,,,,,,,
2018.2999999970198,,pt2_unique_rating,1228248,Silverpine,,50,,,2,,,,,,,,,,,,,,,
null,,confidence_buffer,1228352,confidence_buffer,,null,,,,,,,,,,,,,,,,,,
1934.5,,pt2_memorable_rating,1230289,Silverpine,,51,,,3,,,,,,,,,,,,,,,
null,,confidence_buffer,1230393,confidence_buffer,,null,,,,,,,,,,,,,,,,,,
5386.29999999702,,recognition_phase,1235782,Silverpine,,51,,,,,,new,0,0.82,,,,,,,,,,
null,,confidence_buffer,1235885,confidence_buffer,,null,,,,,,,,,,,,,,,,,,
null,,thebreak,1236387,break,,null,,,,,,,,,,,,,,,,,,
3299.60000000149,,realistic_rating,1239689,Orr,,49,Orr,US,1,,,,,,,,,,,,,,,
null,,confidence_buffer,1239792,confidence_buffer,,null,,,,,,,,,,,,,,,,,,
2203.89999999851,,pt2_unique_rating,1241999,Orr,,51,,,3,,,,,,,,,,,,,,,
null,,confidence_buffer,1242102,confidence_buffer,,null,,,,,,,,,,,,,,,,,,
2430.10000000149,,pt2_memorable_rating,1244535,Orr,,51,,,3,,,,,,,,,,,,,,,
null,,confidence_buffer,1244638,confidence_buffer,,null,,,,,,,,,,,,,,,,,,
5240.60000000149,,recognition_phase,1249881,Orr,,50,,,,,,old,1,0.8235294117647058,,,,,,,,,,
null,,confidence_buffer,1249984,confidence_buffer,,null,,,,,,,,,,,,,,,,,,
null,,thebreak,1250486,break,,null,,,,,,,,,,,,,,,,,,
5762.89999999851,,realistic_rating,1256252,Albuquerque,,52,Albuquerque,US,4,,,,,,,,,,,,,,,
null,,confidence_buffer,1256356,confidence_buffer,,null,,,,,,,,,,,,,,,,,,
2157.60000000149,,probe_rating,1258516,probe_rating,,49,,,,1,1,,,,,,,,,,,,,
null,,confidence_buffer,1258619,confidence_buffer,,null,,,,,,,,,,,,,,,,,,
2633.89999999851,,pt2_unique_rating,1261254,Albuquerque,,50,,,2,,,,,,,,,,,,,,,
null,,confidence_buffer,1261357,confidence_buffer,,null,,,,,,,,,,,,,,,,,,
2525.5999999940395,,pt2_memorable_rating,1263886,Albuquerque,,51,,,3,,,,,,,,,,,,,,,
null,,confidence_buffer,1263989,confidence_buffer,,null,,,,,,,,,,,,,,,,,,
3267.2999999970198,,recognition_phase,1267258,Albuquerque,,52,,,,,,new,1,0.8269230769230769,,,,,,,,,,
null,,confidence_buffer,1267362,confidence_buffer,,null,,,,,,,,,,,,,,,,,,
null,,thebreak,1267865,break,,null,,,,,,,,,,,,,,,,,,
5533.5,,realistic_rating,1273401,Peoria,,50,Peoria,US,2,,,,,,,,,,,,,,,
null,,confidence_buffer,1273505,confidence_buffer,,null,,,,,,,,,,,,,,,,,,
2200.7000000029802,,pt2_unique_rating,1275708,Peoria,,51,,,3,,,,,,,,,,,,,,,
null,,confidence_buffer,1275812,confidence_buffer,,null,,,,,,,,,,,,,,,,,,
3095.8000000044703,,pt2_memorable_rating,1278911,Peoria,,50,,,2,,,,,,,,,,,,,,,
null,,confidence_buffer,1279015,confidence_buffer,,null,,,,,,,,,,,,,,,,,,
2145.7000000029802,,recognition_phase,1281163,Peoria,,49,,,,,,old,1,0.8301886792452831,,,,,,,,,,
null,,confidence_buffer,1281267,confidence_buffer,,null,,,,,,,,,,,,,,,,,,
null,,thebreak,1281769,break,,null,,,,,,,,,,,,,,,,,,
4694.0999999940395,,realistic_rating,1286465,Pine Hollow,,51,Pine Hollow,Fictional,3,,,,,,,,,,,,,,,
null,,confidence_buffer,1286568,confidence_buffer,,null,,,,,,,,,,,,,,,,,,
2462.0999999940395,,pt2_unique_rating,1289032,Pine Hollow,,50,,,2,,,,,,,,,,,,,,,
null,,confidence_buffer,1289138,confidence_buffer,,null,,,,,,,,,,,,,,,,,,
2232.2000000029802,,pt2_memorable_rating,1291373,Pine Hollow,,51,,,3,,,,,,,,,,,,,,,
null,,confidence_buffer,1291475,confidence_buffer,,null,,,,,,,,,,,,,,,,,,
7515,,recognition_phase,1298992,Pine Hollow,,51,,,,,,new,1,0.8333333333333334,,,,,,,,,,
null,,confidence_buffer,1299095,confidence_buffer,,null,,,,,,,,,,,,,,,,,,
null,,thebreak,1299597,break,,null,,,,,,,,,,,,,,,,,,
3613.39999999851,,realistic_rating,1303213,Bayshore Haven,,51,Bayshore Haven,Fictional,3,,,,,,,,,,,,,,,
null,,confidence_buffer,1303318,confidence_buffer,,null,,,,,,,,,,,,,,,,,,
2249.10000000149,,pt2_unique_rating,1305570,Bayshore Haven,,50,,,2,,,,,,,,,,,,,,,
null,,confidence_buffer,1305674,confidence_buffer,,null,,,,,,,,,,,,,,,,,,
4629.5999999940395,,pt2_memorable_rating,1310307,Bayshore Haven,,51,,,3,,,,,,,,,,,,,,,
null,,confidence_buffer,1310410,confidence_buffer,,null,,,,,,,,,,,,,,,,,,
2227,,probe_rating,1312640,probe_rating,,50,,,,2,1,,,,,,,,,,,,,
null,,confidence_buffer,1312744,confidence_buffer,,null,,,,,,,,,,,,,,,,,,
4449.5,,recognition_phase,1317195,Bayshore Haven,,51,,,,,,new,0,0.8181818181818182,,,,,,,,,,
null,,confidence_buffer,1317298,confidence_buffer,,null,,,,,,,,,,,,,,,,,,
null,,thebreak,1317801,break,,null,,,,,,,,,,,,,,,,,,
3783.5,,realistic_rating,1321588,Alliance,,49,Alliance,US,1,,,,,,,,,,,,,,,
null,,confidence_buffer,1321691,confidence_buffer,,null,,,,,,,,,,,,,,,,,,
1869.1999999955297,,pt2_unique_rating,1323563,Alliance,,50,,,2,,,,,,,,,,,,,,,
null,,confidence_buffer,1323666,confidence_buffer,,null,,,,,,,,,,,,,,,,,,
2188.1999999955297,,pt2_memorable_rating,1325856,Alliance,,51,,,3,,,,,,,,,,,,,,,
null,,confidence_buffer,1325959,confidence_buffer,,null,,,,,,,,,,,,,,,,,,
2339.60000000149,,recognition_phase,1328302,Alliance,,52,,,,,,new,1,0.8214285714285714,,,,,,,,,,
null,,confidence_buffer,1328406,confidence_buffer,,null,,,,,,,,,,,,,,,,,,
null,,thebreak,1328908,break,,null,,,,,,,,,,,,,,,,,,
5515.30000000447,,realistic_rating,1334426,New Hope,,52,New Hope,US,4,,,,,,,,,,,,,,,
null,,confidence_buffer,1334528,confidence_buffer,,null,,,,,,,,,,,,,,,,,,
4773.5,,pt2_unique_rating,1339304,New Hope,,50,,,2,,,,,,,,,,,,,,,
null,,confidence_buffer,1339406,confidence_buffer,,null,,,,,,,,,,,,,,,,,,
1959.2999999970198,,pt2_memorable_rating,1341368,New Hope,,51,,,3,,,,,,,,,,,,,,,
null,,confidence_buffer,1341472,confidence_buffer,,null,,,,,,,,,,,,,,,,,,
5831.4000000059605,,recognition_phase,1347306,New Hope,,50,,,,,,old,1,0.8245614035087719,,,,,,,,,,
null,,confidence_buffer,1347410,confidence_buffer,,null,,,,,,,,,,,,,,,,,,
null,,thebreak,1347912,break,,null,,,,,,,,,,,,,,,,,,
6020.5,,realistic_rating,1353936,Crestwood,,50,Crestwood,Fictional,2,,,,,,,,,,,,,,,
null,,confidence_buffer,1354039,confidence_buffer,,null,,,,,,,,,,,,,,,,,,
1803.0999999940395,,pt2_unique_rating,1355845,Crestwood,,50,,,2,,,,,,,,,,,,,,,
null,,confidence_buffer,1355948,confidence_buffer,,null,,,,,,,,,,,,,,,,,,
1878.3999999985099,,pt2_memorable_rating,1357829,Crestwood,,51,,,3,,,,,,,,,,,,,,,
null,,confidence_buffer,1357932,confidence_buffer,,null,,,,,,,,,,,,,,,,,,
3359.6999999955297,,recognition_phase,1361295,Crestwood,,51,,,,,,new,1,0.8275862068965517,,,,,,,,,,
null,,confidence_buffer,1361398,confidence_buffer,,null,,,,,,,,,,,,,,,,,,
null,,thebreak,1361901,break,,null,,,,,,,,,,,,,,,,,,
3950.39999999851,,realistic_rating,1365854,Custer,,49,Custer,US,1,,,,,,,,,,,,,,,
null,,confidence_buffer,1365958,confidence_buffer,,null,,,,,,,,,,,,,,,,,,
3755.89999999851,,probe_rating,1369717,probe_rating,,52,,,,4,1,,,,,,,,,,,,,
null,,confidence_buffer,1369820,confidence_buffer,,null,,,,,,,,,,,,,,,,,,
4721.70000000298,,pt2_unique_rating,1374545,Custer,,51,,,3,,,,,,,,,,,,,,,
null,,confidence_buffer,1374647,confidence_buffer,,null,,,,,,,,,,,,,,,,,,
3289.6999999955297,,pt2_memorable_rating,1377940,Custer,,51,,,3,,,,,,,,,,,,,,,
null,,confidence_buffer,1378043,confidence_buffer,,null,,,,,,,,,,,,,,,,,,
2330.7999999970198,,recognition_phase,1380377,Custer,,52,,,,,,new,1,0.8305084745762712,,,,,,,,,,
null,,confidence_buffer,1380481,confidence_buffer,,null,,,,,,,,,,,,,,,,,,
null,,thebreak,1380984,break,,null,,,,,,,,,,,,,,,,,,
6351.69999999553,,realistic_rating,1387338,Manistee,,49,Manistee,US,1,,,,,,,,,,,,,,,
null,,confidence_buffer,1387442,confidence_buffer,,null,,,,,,,,,,,,,,,,,,
2010.8999999985099,,probe_rating,1389455,probe_rating,,51,,,,3,1,,,,,,,,,,,,,
null,,confidence_buffer,1389559,confidence_buffer,,null,,,,,,,,,,,,,,,,,,
3175.2000000029802,,pt2_unique_rating,1392737,Manistee,,51,,,3,,,,,,,,,,,,,,,
null,,confidence_buffer,1392840,confidence_buffer,,null,,,,,,,,,,,,,,,,,,
3254.60000000149,,pt2_memorable_rating,1396096,Manistee,,50,,,2,,,,,,,,,,,,,,,
null,,confidence_buffer,1396202,confidence_buffer,,null,,,,,,,,,,,,,,,,,,
1974.2999999970198,,recognition_phase,1398179,Manistee,,52,,,,,,new,1,0.8333333333333334,,,,,,,,,,
null,,confidence_buffer,1398282,confidence_buffer,,null,,,,,,,,,,,,,,,,,,
null,,thebreak,1398785,break,,null,,,,,,,,,,,,,,,,,,
,,survey,2085474,survey-questions,,,,,,,,,,,none,high,NO,I focused and tried to remember as much of the cities as possible,I rated whether or not I have heard of the city,I rated if I remembered seeing the particular city,I rated as if the name of the place sounded strange to me or I have never heard of such.,I rated them realistic if I knew and have heard of the place,NO,I enjoyed the different task
