rt,responses,trial_type,time_elapsed,stimulus,button_pressed,key_press,name_trial,city_type,rating,probe,probe_accuracy,response,correct,accuracy,problems,smooth,distraction,strategies,familiar,memorable,unique,realistic,similar,comments
3944.5,{worker_id:6643be675817fd2a43298a04},id_enter,3952,,,,,,,,,,,,,,,,,,,,,
8373.199999988079,,fullscreen,12338,fullscreen,0,,,,,,,,,,,,,,,,,,,
5302.699999988079,,intro_0,17644,instruct,,32,,,,,,,,,,,,,,,,,,
7697.800000011921,,intro_1,25344,instruct,,32,,,,,,,,,,,,,,,,,,
12913.199999988079,,intro_2,38260,instruct,,32,,,,,,,,,,,,,,,,,,
null,,instruct_dir_4,39767,instruct,,null,,,,,,,,,,,,,,,,,,
null,,thebreak,40272,break,,null,,,,,,,,,,,,,,,,,,
5222.600000023842,,familiar_rating,45497,Manistee,,49,Manistee,US,1,,,,,,,,,,,,,,,
null,,confidence_buffer,45603,confidence_buffer,,null,,,,,,,,,,,,,,,,,,
4657.699999988079,,unique_rating,50263,Manistee,,52,,,4,,,,,,,,,,,,,,,
null,,confidence_buffer,50374,confidence_buffer,,null,,,,,,,,,,,,,,,,,,
9880.400000035763,,memorable_rating,60256,Manistee,,49,,,1,,,,,,,,,,,,,,,
null,,confidence_buffer,60366,confidence_buffer,,null,,,,,,,,,,,,,,,,,,
null,,thebreak,60870,break,,null,,,,,,,,,,,,,,,,,,
2204.399999976158,,familiar_rating,63077,Riverlyn,,49,Riverlyn,Fictional,1,,,,,,,,,,,,,,,
null,,confidence_buffer,63184,confidence_buffer,,null,,,,,,,,,,,,,,,,,,
3175.699999988079,,unique_rating,66362,Riverlyn,,51,,,3,,,,,,,,,,,,,,,
null,,confidence_buffer,66475,confidence_buffer,,null,,,,,,,,,,,,,,,,,,
1745,,memorable_rating,68222,Riverlyn,,49,,,1,,,,,,,,,,,,,,,
null,,confidence_buffer,68331,confidence_buffer,,null,,,,,,,,,,,,,,,,,,
2084.5,,probe_rating,70418,probe_rating,,49,,,,1,1,,,,,,,,,,,,,
null,,confidence_buffer,70530,confidence_buffer,,null,,,,,,,,,,,,,,,,,,
null,,thebreak,71044,break,,null,,,,,,,,,,,,,,,,,,
2792,,familiar_rating,73838,Gatlinburg,,49,Gatlinburg,US,1,,,,,,,,,,,,,,,
null,,confidence_buffer,73950,confidence_buffer,,null,,,,,,,,,,,,,,,,,,
1961.4000000357628,,unique_rating,75914,Gatlinburg,,51,,,3,,,,,,,,,,,,,,,
null,,confidence_buffer,76030,confidence_buffer,,null,,,,,,,,,,,,,,,,,,
1185.5,,memorable_rating,77218,Gatlinburg,,49,,,1,,,,,,,,,,,,,,,
null,,confidence_buffer,77332,confidence_buffer,,null,,,,,,,,,,,,,,,,,,
null,,thebreak,77835,break,,null,,,,,,,,,,,,,,,,,,
1620.9000000357628,,familiar_rating,79458,Bowling Green,,49,Bowling Green,US,1,,,,,,,,,,,,,,,
null,,confidence_buffer,79575,confidence_buffer,,null,,,,,,,,,,,,,,,,,,
1782,,unique_rating,81359,Bowling Green,,52,,,4,,,,,,,,,,,,,,,
null,,confidence_buffer,81467,confidence_buffer,,null,,,,,,,,,,,,,,,,,,
2820.5,,memorable_rating,84289,Bowling Green,,49,,,1,,,,,,,,,,,,,,,
null,,confidence_buffer,84398,confidence_buffer,,null,,,,,,,,,,,,,,,,,,
1413.2999999523163,,probe_rating,85813,probe_rating,,50,,,,2,1,,,,,,,,,,,,,
null,,confidence_buffer,85929,confidence_buffer,,null,,,,,,,,,,,,,,,,,,
null,,thebreak,86442,break,,null,,,,,,,,,,,,,,,,,,
6411.699999988079,,familiar_rating,92856,Cape May,,49,Cape May,US,1,,,,,,,,,,,,,,,
null,,confidence_buffer,92964,confidence_buffer,,null,,,,,,,,,,,,,,,,,,
1515.699999988079,,unique_rating,94481,Cape May,,51,,,3,,,,,,,,,,,,,,,
null,,confidence_buffer,94594,confidence_buffer,,null,,,,,,,,,,,,,,,,,,
2945.2000000476837,,memorable_rating,97541,Cape May,,49,,,1,,,,,,,,,,,,,,,
null,,confidence_buffer,97649,confidence_buffer,,null,,,,,,,,,,,,,,,,,,
null,,thebreak,98162,break,,null,,,,,,,,,,,,,,,,,,
4657,,familiar_rating,102822,San Antonio,,51,San Antonio,US,3,,,,,,,,,,,,,,,
null,,confidence_buffer,102927,confidence_buffer,,null,,,,,,,,,,,,,,,,,,
2657.100000023842,,unique_rating,105586,San Antonio,,49,,,1,,,,,,,,,,,,,,,
null,,confidence_buffer,105696,confidence_buffer,,null,,,,,,,,,,,,,,,,,,
2150.399999976158,,memorable_rating,107848,San Antonio,,51,,,3,,,,,,,,,,,,,,,
null,,confidence_buffer,107956,confidence_buffer,,null,,,,,,,,,,,,,,,,,,
null,,thebreak,108470,break,,null,,,,,,,,,,,,,,,,,,
1110.800000011921,,familiar_rating,109583,Baymarsh,,49,Baymarsh,Fictional,1,,,,,,,,,,,,,,,
null,,confidence_buffer,109689,confidence_buffer,,null,,,,,,,,,,,,,,,,,,
6127.299999952316,,unique_rating,115819,Baymarsh,,49,,,1,,,,,,,,,,,,,,,
null,,confidence_buffer,115924,confidence_buffer,,null,,,,,,,,,,,,,,,,,,
997.3999999761581,,memorable_rating,116923,Baymarsh,,49,,,1,,,,,,,,,,,,,,,
null,,confidence_buffer,117031,confidence_buffer,,null,,,,,,,,,,,,,,,,,,
null,,thebreak,117543,break,,null,,,,,,,,,,,,,,,,,,
1798.1000000238419,,familiar_rating,119344,East Ladera,,49,East Ladera,Fictional,1,,,,,,,,,,,,,,,
null,,confidence_buffer,119447,confidence_buffer,,null,,,,,,,,,,,,,,,,,,
1509,,unique_rating,120959,East Ladera,,49,,,1,,,,,,,,,,,,,,,
null,,confidence_buffer,121073,confidence_buffer,,null,,,,,,,,,,,,,,,,,,
1373.6000000238419,,probe_rating,122449,probe_rating,,50,,,,2,1,,,,,,,,,,,,,
null,,confidence_buffer,122567,confidence_buffer,,null,,,,,,,,,,,,,,,,,,
2084.900000035763,,memorable_rating,124654,East Ladera,,49,,,1,,,,,,,,,,,,,,,
null,,confidence_buffer,124757,confidence_buffer,,null,,,,,,,,,,,,,,,,,,
null,,thebreak,125269,break,,null,,,,,,,,,,,,,,,,,,
1316.8999999761581,,familiar_rating,126589,North Arroya,,49,North Arroya,Fictional,1,,,,,,,,,,,,,,,
null,,confidence_buffer,126694,confidence_buffer,,null,,,,,,,,,,,,,,,,,,
812.5,,unique_rating,127509,North Arroya,,49,,,1,,,,,,,,,,,,,,,
null,,confidence_buffer,127627,confidence_buffer,,null,,,,,,,,,,,,,,,,,,
1171.699999988079,,memorable_rating,128801,North Arroya,,49,,,1,,,,,,,,,,,,,,,
null,,confidence_buffer,128907,confidence_buffer,,null,,,,,,,,,,,,,,,,,,
null,,thebreak,129418,break,,null,,,,,,,,,,,,,,,,,,
819.4000000357628,,familiar_rating,130240,Shreveport,,49,Shreveport,US,1,,,,,,,,,,,,,,,
null,,confidence_buffer,130348,confidence_buffer,,null,,,,,,,,,,,,,,,,,,
610.8000000119209,,unique_rating,130961,Shreveport,,49,,,1,,,,,,,,,,,,,,,
null,,confidence_buffer,131079,confidence_buffer,,null,,,,,,,,,,,,,,,,,,
583.2999999523163,,memorable_rating,131665,Shreveport,,49,,,1,,,,,,,,,,,,,,,
null,,confidence_buffer,131772,confidence_buffer,,null,,,,,,,,,,,,,,,,,,
null,,thebreak,132284,break,,null,,,,,,,,,,,,,,,,,,
2343.599999964237,,familiar_rating,134630,Millstone,,50,Millstone,Fictional,2,,,,,,,,,,,,,,,
null,,confidence_buffer,134747,confidence_buffer,,null,,,,,,,,,,,,,,,,,,
2532.099999964237,,unique_rating,137281,Millstone,,49,,,1,,,,,,,,,,,,,,,
null,,confidence_buffer,137397,confidence_buffer,,null,,,,,,,,,,,,,,,,,,
1097.699999988079,,memorable_rating,138497,Millstone,,50,,,2,,,,,,,,,,,,,,,
null,,confidence_buffer,138613,confidence_buffer,,null,,,,,,,,,,,,,,,,,,
null,,thebreak,139127,break,,null,,,,,,,,,,,,,,,,,,
1272,,familiar_rating,140401,Ironwood Heights,,49,Ironwood Heights,Fictional,1,,,,,,,,,,,,,,,
null,,confidence_buffer,140514,confidence_buffer,,null,,,,,,,,,,,,,,,,,,
525,,unique_rating,141041,Ironwood Heights,,49,,,1,,,,,,,,,,,,,,,
null,,confidence_buffer,141155,confidence_buffer,,null,,,,,,,,,,,,,,,,,,
613.7999999523163,,memorable_rating,141771,Ironwood Heights,,49,,,1,,,,,,,,,,,,,,,
null,,confidence_buffer,141879,confidence_buffer,,null,,,,,,,,,,,,,,,,,,
null,,thebreak,142394,break,,null,,,,,,,,,,,,,,,,,,
721.5,,familiar_rating,143117,Orchard Bend,,49,Orchard Bend,Fictional,1,,,,,,,,,,,,,,,
null,,confidence_buffer,143227,confidence_buffer,,null,,,,,,,,,,,,,,,,,,
2077,,probe_rating,145306,probe_rating,,53,,,,5,1,,,,,,,,,,,,,
null,,confidence_buffer,145411,confidence_buffer,,null,,,,,,,,,,,,,,,,,,
877.8000000119209,,unique_rating,146292,Orchard Bend,,49,,,1,,,,,,,,,,,,,,,
null,,confidence_buffer,146406,confidence_buffer,,null,,,,,,,,,,,,,,,,,,
813.6000000238419,,memorable_rating,147222,Orchard Bend,,49,,,1,,,,,,,,,,,,,,,
null,,confidence_buffer,147329,confidence_buffer,,null,,,,,,,,,,,,,,,,,,
null,,thebreak,147831,break,,null,,,,,,,,,,,,,,,,,,
839.1999999880791,,familiar_rating,148673,Clearbrook,,49,Clearbrook,Fictional,1,,,,,,,,,,,,,,,
null,,confidence_buffer,148787,confidence_buffer,,null,,,,,,,,,,,,,,,,,,
478.69999998807907,,unique_rating,149268,Clearbrook,,49,,,1,,,,,,,,,,,,,,,
null,,confidence_buffer,149374,confidence_buffer,,null,,,,,,,,,,,,,,,,,,
450.7999999523163,,memorable_rating,149827,Clearbrook,,49,,,1,,,,,,,,,,,,,,,
null,,confidence_buffer,149929,confidence_buffer,,null,,,,,,,,,,,,,,,,,,
null,,thebreak,150436,break,,null,,,,,,,,,,,,,,,,,,
2555,,familiar_rating,152993,West Palm Beach,,52,West Palm Beach,US,4,,,,,,,,,,,,,,,
null,,confidence_buffer,153104,confidence_buffer,,null,,,,,,,,,,,,,,,,,,
1617.199999988079,,unique_rating,154723,West Palm Beach,,49,,,1,,,,,,,,,,,,,,,
null,,confidence_buffer,154838,confidence_buffer,,null,,,,,,,,,,,,,,,,,,
1267.5,,memorable_rating,156108,West Palm Beach,,52,,,4,,,,,,,,,,,,,,,
null,,confidence_buffer,156222,confidence_buffer,,null,,,,,,,,,,,,,,,,,,
null,,thebreak,156733,break,,null,,,,,,,,,,,,,,,,,,
947.1999999880791,,familiar_rating,157683,Bisbee,,49,Bisbee,US,1,,,,,,,,,,,,,,,
null,,confidence_buffer,157788,confidence_buffer,,null,,,,,,,,,,,,,,,,,,
513,,unique_rating,158303,Bisbee,,49,,,1,,,,,,,,,,,,,,,
null,,confidence_buffer,158408,confidence_buffer,,null,,,,,,,,,,,,,,,,,,
477,,memorable_rating,158887,Bisbee,,49,,,1,,,,,,,,,,,,,,,
null,,confidence_buffer,159004,confidence_buffer,,null,,,,,,,,,,,,,,,,,,
null,,thebreak,159516,break,,null,,,,,,,,,,,,,,,,,,
1015.1000000238419,,familiar_rating,160533,Linden Trace,,49,Linden Trace,Fictional,1,,,,,,,,,,,,,,,
null,,confidence_buffer,160645,confidence_buffer,,null,,,,,,,,,,,,,,,,,,
700.5,,unique_rating,161348,Linden Trace,,49,,,1,,,,,,,,,,,,,,,
null,,confidence_buffer,161451,confidence_buffer,,null,,,,,,,,,,,,,,,,,,
630.4000000357628,,memorable_rating,162083,Linden Trace,,49,,,1,,,,,,,,,,,,,,,
null,,confidence_buffer,162192,confidence_buffer,,null,,,,,,,,,,,,,,,,,,
null,,thebreak,162696,break,,null,,,,,,,,,,,,,,,,,,
1765.9000000357628,,familiar_rating,164463,Maplehurst,,49,Maplehurst,Fictional,1,,,,,,,,,,,,,,,
null,,confidence_buffer,164570,confidence_buffer,,null,,,,,,,,,,,,,,,,,,
716.8000000119209,,unique_rating,165288,Maplehurst,,49,,,1,,,,,,,,,,,,,,,
null,,confidence_buffer,165402,confidence_buffer,,null,,,,,,,,,,,,,,,,,,
428.19999998807907,,memorable_rating,165832,Maplehurst,,49,,,1,,,,,,,,,,,,,,,
null,,confidence_buffer,165943,confidence_buffer,,null,,,,,,,,,,,,,,,,,,
null,,thebreak,166455,break,,null,,,,,,,,,,,,,,,,,,
1462.800000011921,,familiar_rating,167920,Sammamish,,49,Sammamish,US,1,,,,,,,,,,,,,,,
null,,confidence_buffer,168031,confidence_buffer,,null,,,,,,,,,,,,,,,,,,
706.1999999880791,,unique_rating,168739,Sammamish,,49,,,1,,,,,,,,,,,,,,,
null,,confidence_buffer,168844,confidence_buffer,,null,,,,,,,,,,,,,,,,,,
597.1999999880791,,memorable_rating,169444,Sammamish,,49,,,1,,,,,,,,,,,,,,,
null,,confidence_buffer,169555,confidence_buffer,,null,,,,,,,,,,,,,,,,,,
null,,thebreak,170065,break,,null,,,,,,,,,,,,,,,,,,
10534.300000011921,,familiar_rating,180601,Maravilla Springs,,49,Maravilla Springs,Fictional,1,,,,,,,,,,,,,,,
null,,confidence_buffer,180706,confidence_buffer,,null,,,,,,,,,,,,,,,,,,
653.2000000476837,,unique_rating,181361,Maravilla Springs,,49,,,1,,,,,,,,,,,,,,,
null,,confidence_buffer,181478,confidence_buffer,,null,,,,,,,,,,,,,,,,,,
646.8000000119209,,memorable_rating,182127,Maravilla Springs,,49,,,1,,,,,,,,,,,,,,,
null,,confidence_buffer,182243,confidence_buffer,,null,,,,,,,,,,,,,,,,,,
null,,thebreak,182757,break,,null,,,,,,,,,,,,,,,,,,
947,,familiar_rating,183706,Okoboji,,49,Okoboji,US,1,,,,,,,,,,,,,,,
null,,confidence_buffer,183809,confidence_buffer,,null,,,,,,,,,,,,,,,,,,
866,,unique_rating,184678,Okoboji,,49,,,1,,,,,,,,,,,,,,,
null,,confidence_buffer,184793,confidence_buffer,,null,,,,,,,,,,,,,,,,,,
507,,memorable_rating,185303,Okoboji,,49,,,1,,,,,,,,,,,,,,,
null,,confidence_buffer,185406,confidence_buffer,,null,,,,,,,,,,,,,,,,,,
null,,thebreak,185922,break,,null,,,,,,,,,,,,,,,,,,
1822.3999999761581,,familiar_rating,187747,Silverpine,,51,Silverpine,Fictional,3,,,,,,,,,,,,,,,
null,,confidence_buffer,187860,confidence_buffer,,null,,,,,,,,,,,,,,,,,,
1249.5999999642372,,unique_rating,189112,Silverpine,,51,,,3,,,,,,,,,,,,,,,
null,,confidence_buffer,189220,confidence_buffer,,null,,,,,,,,,,,,,,,,,,
1794.5999999642372,,memorable_rating,191017,Silverpine,,51,,,3,,,,,,,,,,,,,,,
null,,confidence_buffer,191121,confidence_buffer,,null,,,,,,,,,,,,,,,,,,
null,,thebreak,191628,break,,null,,,,,,,,,,,,,,,,,,
817.3000000119209,,familiar_rating,192448,Coeur d'Alene,,49,Coeur d'Alene,US,1,,,,,,,,,,,,,,,
null,,confidence_buffer,192559,confidence_buffer,,null,,,,,,,,,,,,,,,,,,
751.1000000238419,,unique_rating,193313,Coeur d'Alene,,49,,,1,,,,,,,,,,,,,,,
null,,confidence_buffer,193418,confidence_buffer,,null,,,,,,,,,,,,,,,,,,
1078.2999999523163,,probe_rating,194499,probe_rating,,50,,,,2,1,,,,,,,,,,,,,
null,,confidence_buffer,194607,confidence_buffer,,null,,,,,,,,,,,,,,,,,,
459.80000001192093,,memorable_rating,195068,Coeur d'Alene,,49,,,1,,,,,,,,,,,,,,,
null,,confidence_buffer,195174,confidence_buffer,,null,,,,,,,,,,,,,,,,,,
null,,thebreak,195681,break,,null,,,,,,,,,,,,,,,,,,
749.8999999761581,,familiar_rating,196433,Assateague Island,,49,Assateague Island,US,1,,,,,,,,,,,,,,,
null,,confidence_buffer,196539,confidence_buffer,,null,,,,,,,,,,,,,,,,,,
447.80000001192093,,unique_rating,196988,Assateague Island,,49,,,1,,,,,,,,,,,,,,,
null,,confidence_buffer,197103,confidence_buffer,,null,,,,,,,,,,,,,,,,,,
506.60000002384186,,memorable_rating,197611,Assateague Island,,49,,,1,,,,,,,,,,,,,,,
null,,confidence_buffer,197721,confidence_buffer,,null,,,,,,,,,,,,,,,,,,
null,,thebreak,198230,break,,null,,,,,,,,,,,,,,,,,,
1892.1000000238419,,familiar_rating,200124,Hot Springs,,52,Hot Springs,US,4,,,,,,,,,,,,,,,
null,,confidence_buffer,200234,confidence_buffer,,null,,,,,,,,,,,,,,,,,,
1014.5,,unique_rating,201251,Hot Springs,,52,,,4,,,,,,,,,,,,,,,
null,,confidence_buffer,201360,confidence_buffer,,null,,,,,,,,,,,,,,,,,,
1032.199999988079,,memorable_rating,202394,Hot Springs,,52,,,4,,,,,,,,,,,,,,,
null,,confidence_buffer,202507,confidence_buffer,,null,,,,,,,,,,,,,,,,,,
null,,thebreak,203012,break,,null,,,,,,,,,,,,,,,,,,
879.8999999761581,,familiar_rating,203894,Redgrove,,49,Redgrove,Fictional,1,,,,,,,,,,,,,,,
null,,confidence_buffer,204001,confidence_buffer,,null,,,,,,,,,,,,,,,,,,
991.1999999880791,,unique_rating,204994,Redgrove,,49,,,1,,,,,,,,,,,,,,,
null,,confidence_buffer,205109,confidence_buffer,,null,,,,,,,,,,,,,,,,,,
535.3999999761581,,memorable_rating,205647,Redgrove,,49,,,1,,,,,,,,,,,,,,,
null,,confidence_buffer,205756,confidence_buffer,,null,,,,,,,,,,,,,,,,,,
null,,thebreak,206264,break,,null,,,,,,,,,,,,,,,,,,
1124,,familiar_rating,207390,Briarfield,,49,Briarfield,Fictional,1,,,,,,,,,,,,,,,
null,,confidence_buffer,207496,confidence_buffer,,null,,,,,,,,,,,,,,,,,,
641.5,,unique_rating,208140,Briarfield,,49,,,1,,,,,,,,,,,,,,,
null,,confidence_buffer,208251,confidence_buffer,,null,,,,,,,,,,,,,,,,,,
1761.199999988079,,probe_rating,210015,probe_rating,,53,,,,5,1,,,,,,,,,,,,,
null,,confidence_buffer,210123,confidence_buffer,,null,,,,,,,,,,,,,,,,,,
836.7000000476837,,memorable_rating,210962,Briarfield,,49,,,1,,,,,,,,,,,,,,,
null,,confidence_buffer,211070,confidence_buffer,,null,,,,,,,,,,,,,,,,,,
null,,thebreak,211579,break,,null,,,,,,,,,,,,,,,,,,
2173.699999988079,,familiar_rating,213755,Cleveland,,52,Cleveland,US,4,,,,,,,,,,,,,,,
null,,confidence_buffer,213858,confidence_buffer,,null,,,,,,,,,,,,,,,,,,
1030.5,,unique_rating,214890,Cleveland,,52,,,4,,,,,,,,,,,,,,,
null,,confidence_buffer,215006,confidence_buffer,,null,,,,,,,,,,,,,,,,,,
577.5,,memorable_rating,215586,Cleveland,,52,,,4,,,,,,,,,,,,,,,
null,,confidence_buffer,215692,confidence_buffer,,null,,,,,,,,,,,,,,,,,,
null,,thebreak,216200,break,,null,,,,,,,,,,,,,,,,,,
864.6000000238419,,familiar_rating,217066,Summershade,,49,Summershade,Fictional,1,,,,,,,,,,,,,,,
null,,confidence_buffer,217173,confidence_buffer,,null,,,,,,,,,,,,,,,,,,
436.9000000357628,,unique_rating,217612,Summershade,,49,,,1,,,,,,,,,,,,,,,
null,,confidence_buffer,217720,confidence_buffer,,null,,,,,,,,,,,,,,,,,,
383.80000001192093,,memorable_rating,218106,Summershade,,49,,,1,,,,,,,,,,,,,,,
null,,confidence_buffer,218208,confidence_buffer,,null,,,,,,,,,,,,,,,,,,
null,,thebreak,218723,break,,null,,,,,,,,,,,,,,,,,,
1512.300000011921,,familiar_rating,220237,Abilene,,49,Abilene,US,1,,,,,,,,,,,,,,,
null,,confidence_buffer,220355,confidence_buffer,,null,,,,,,,,,,,,,,,,,,
544.5,,unique_rating,220901,Abilene,,49,,,1,,,,,,,,,,,,,,,
null,,confidence_buffer,221009,confidence_buffer,,null,,,,,,,,,,,,,,,,,,
560.5,,memorable_rating,221571,Abilene,,49,,,1,,,,,,,,,,,,,,,
null,,confidence_buffer,221675,confidence_buffer,,null,,,,,,,,,,,,,,,,,,
null,,thebreak,222191,break,,null,,,,,,,,,,,,,,,,,,
11175.5,,intro_0,233368,instruct,,32,,,,,,,,,,,,,,,,,,
16383.800000011921,,intro_1,249752,instruct,,32,,,,,,,,,,,,,,,,,,
165922.60000002384,,intro_2,415676,instruct,,32,,,,,,,,,,,,,,,,,,
null,,instruct_dir_4,417187,instruct,,null,,,,,,,,,,,,,,,,,,
6298.599999964237,,realistic_rating,423488,Baymarsh,,51,Baymarsh,Fictional,3,,,,,,,,,,,,,,,
null,,confidence_buffer,423596,confidence_buffer,,null,,,,,,,,,,,,,,,,,,
2821.300000011921,,pt2_unique_rating,426419,Baymarsh,,51,,,3,,,,,,,,,,,,,,,
null,,confidence_buffer,426525,confidence_buffer,,null,,,,,,,,,,,,,,,,,,
1681.199999988079,,probe_rating,428208,probe_rating,,52,,,,4,1,,,,,,,,,,,,,
null,,confidence_buffer,428313,confidence_buffer,,null,,,,,,,,,,,,,,,,,,
1769,,pt2_memorable_rating,430084,Baymarsh,,49,,,1,,,,,,,,,,,,,,,
null,,confidence_buffer,430193,confidence_buffer,,null,,,,,,,,,,,,,,,,,,
5608.800000011921,,recognition_phase,435804,Baymarsh,,50,,,,,,old,1,1,,,,,,,,,,
null,,confidence_buffer,435911,confidence_buffer,,null,,,,,,,,,,,,,,,,,,
null,,thebreak,436415,break,,null,,,,,,,,,,,,,,,,,,
2585.800000011921,,realistic_rating,439003,Montelake,,49,Montelake,Fictional,1,,,,,,,,,,,,,,,
null,,confidence_buffer,439112,confidence_buffer,,null,,,,,,,,,,,,,,,,,,
2136.199999988079,,pt2_unique_rating,441250,Montelake,,51,,,3,,,,,,,,,,,,,,,
null,,confidence_buffer,441357,confidence_buffer,,null,,,,,,,,,,,,,,,,,,
901.5,,pt2_memorable_rating,442261,Montelake,,51,,,3,,,,,,,,,,,,,,,
null,,confidence_buffer,442375,confidence_buffer,,null,,,,,,,,,,,,,,,,,,
3097.800000011921,,recognition_phase,445475,Montelake,,51,,,,,,new,1,1,,,,,,,,,,
null,,confidence_buffer,445587,confidence_buffer,,null,,,,,,,,,,,,,,,,,,
null,,thebreak,446091,break,,null,,,,,,,,,,,,,,,,,,
1972.4000000357628,,realistic_rating,448066,San Antonio,,51,San Antonio,US,3,,,,,,,,,,,,,,,
null,,confidence_buffer,448178,confidence_buffer,,null,,,,,,,,,,,,,,,,,,
2219.900000035763,,probe_rating,450401,probe_rating,,53,,,,5,1,,,,,,,,,,,,,
null,,confidence_buffer,450507,confidence_buffer,,null,,,,,,,,,,,,,,,,,,
2001.800000011921,,pt2_unique_rating,452512,San Antonio,,52,,,4,,,,,,,,,,,,,,,
null,,confidence_buffer,452627,confidence_buffer,,null,,,,,,,,,,,,,,,,,,
989,,pt2_memorable_rating,453618,San Antonio,,53,,,5,,,,,,,,,,,,,,,
null,,confidence_buffer,453736,confidence_buffer,,null,,,,,,,,,,,,,,,,,,
2557.800000011921,,recognition_phase,456297,San Antonio,,49,,,,,,old,1,1,,,,,,,,,,
null,,confidence_buffer,456413,confidence_buffer,,null,,,,,,,,,,,,,,,,,,
null,,thebreak,456927,break,,null,,,,,,,,,,,,,,,,,,
1392.199999988079,,realistic_rating,458322,Sammamish,,49,Sammamish,US,1,,,,,,,,,,,,,,,
null,,confidence_buffer,458430,confidence_buffer,,null,,,,,,,,,,,,,,,,,,
1089.8999999761581,,pt2_unique_rating,459522,Sammamish,,49,,,1,,,,,,,,,,,,,,,
null,,confidence_buffer,459629,confidence_buffer,,null,,,,,,,,,,,,,,,,,,
1079,,pt2_memorable_rating,460711,Sammamish,,49,,,1,,,,,,,,,,,,,,,
null,,confidence_buffer,460813,confidence_buffer,,null,,,,,,,,,,,,,,,,,,
3526.399999976158,,recognition_phase,464342,Sammamish,,51,,,,,,new,0,0.75,,,,,,,,,,
null,,confidence_buffer,464460,confidence_buffer,,null,,,,,,,,,,,,,,,,,,
null,,thebreak,464976,break,,null,,,,,,,,,,,,,,,,,,
2695.099999964237,,realistic_rating,467673,Healdsburg,,49,Healdsburg,US,1,,,,,,,,,,,,,,,
null,,confidence_buffer,467779,confidence_buffer,,null,,,,,,,,,,,,,,,,,,
1405.2000000476837,,pt2_unique_rating,469186,Healdsburg,,49,,,1,,,,,,,,,,,,,,,
null,,confidence_buffer,469296,confidence_buffer,,null,,,,,,,,,,,,,,,,,,
858.3999999761581,,pt2_memorable_rating,470156,Healdsburg,,49,,,1,,,,,,,,,,,,,,,
null,,confidence_buffer,470261,confidence_buffer,,null,,,,,,,,,,,,,,,,,,
2426.5,,recognition_phase,472690,Healdsburg,,51,,,,,,new,1,0.8,,,,,,,,,,
null,,confidence_buffer,472794,confidence_buffer,,null,,,,,,,,,,,,,,,,,,
null,,thebreak,473298,break,,null,,,,,,,,,,,,,,,,,,
936.1999999880791,,realistic_rating,474236,Redgrove,,49,Redgrove,Fictional,1,,,,,,,,,,,,,,,
null,,confidence_buffer,474342,confidence_buffer,,null,,,,,,,,,,,,,,,,,,
782.1999999880791,,pt2_unique_rating,475126,Redgrove,,49,,,1,,,,,,,,,,,,,,,
null,,confidence_buffer,475240,confidence_buffer,,null,,,,,,,,,,,,,,,,,,
705,,pt2_memorable_rating,475947,Redgrove,,49,,,1,,,,,,,,,,,,,,,
null,,confidence_buffer,476056,confidence_buffer,,null,,,,,,,,,,,,,,,,,,
1842.800000011921,,recognition_phase,477901,Redgrove,,51,,,,,,new,0,0.6666666666666666,,,,,,,,,,
null,,confidence_buffer,478007,confidence_buffer,,null,,,,,,,,,,,,,,,,,,
null,,thebreak,478525,break,,null,,,,,,,,,,,,,,,,,,
1223.9000000357628,,realistic_rating,479751,Silverpine,,49,Silverpine,Fictional,1,,,,,,,,,,,,,,,
null,,confidence_buffer,479870,confidence_buffer,,null,,,,,,,,,,,,,,,,,,
895.5,,pt2_unique_rating,480767,Silverpine,,49,,,1,,,,,,,,,,,,,,,
null,,confidence_buffer,480872,confidence_buffer,,null,,,,,,,,,,,,,,,,,,
911.5,,probe_rating,481786,probe_rating,,49,,,,1,1,,,,,,,,,,,,,
null,,confidence_buffer,481894,confidence_buffer,,null,,,,,,,,,,,,,,,,,,
973.6999999880791,,pt2_memorable_rating,482870,Silverpine,,49,,,1,,,,,,,,,,,,,,,
null,,confidence_buffer,482978,confidence_buffer,,null,,,,,,,,,,,,,,,,,,
3321.199999988079,,recognition_phase,486302,Silverpine,,51,,,,,,new,0,0.5714285714285714,,,,,,,,,,
null,,confidence_buffer,486405,confidence_buffer,,null,,,,,,,,,,,,,,,,,,
null,,thebreak,486914,break,,null,,,,,,,,,,,,,,,,,,
1432.5,,realistic_rating,488349,East Ladera,,49,East Ladera,Fictional,1,,,,,,,,,,,,,,,
null,,confidence_buffer,488461,confidence_buffer,,null,,,,,,,,,,,,,,,,,,
1352.8999999761581,,pt2_unique_rating,489817,East Ladera,,49,,,1,,,,,,,,,,,,,,,
null,,confidence_buffer,489919,confidence_buffer,,null,,,,,,,,,,,,,,,,,,
3588.2000000476837,,pt2_memorable_rating,493510,East Ladera,,51,,,3,,,,,,,,,,,,,,,
null,,confidence_buffer,493626,confidence_buffer,,null,,,,,,,,,,,,,,,,,,
2006.800000011921,,recognition_phase,495635,East Ladera,,51,,,,,,new,0,0.5,,,,,,,,,,
null,,confidence_buffer,495754,confidence_buffer,,null,,,,,,,,,,,,,,,,,,
null,,thebreak,496261,break,,null,,,,,,,,,,,,,,,,,,
1307.2999999523163,,realistic_rating,497571,Riverlyn,,51,Riverlyn,Fictional,3,,,,,,,,,,,,,,,
null,,confidence_buffer,497685,confidence_buffer,,null,,,,,,,,,,,,,,,,,,
1203.699999988079,,pt2_unique_rating,498891,Riverlyn,,51,,,3,,,,,,,,,,,,,,,
null,,confidence_buffer,499004,confidence_buffer,,null,,,,,,,,,,,,,,,,,,
1619.5,,pt2_memorable_rating,500626,Riverlyn,,51,,,3,,,,,,,,,,,,,,,
null,,confidence_buffer,500735,confidence_buffer,,null,,,,,,,,,,,,,,,,,,
1922.699999988079,,recognition_phase,502660,Riverlyn,,50,,,,,,old,1,0.5555555555555556,,,,,,,,,,
null,,confidence_buffer,502777,confidence_buffer,,null,,,,,,,,,,,,,,,,,,
null,,thebreak,503292,break,,null,,,,,,,,,,,,,,,,,,
1756.2999999523163,,realistic_rating,505050,Folly Beach,,49,Folly Beach,US,1,,,,,,,,,,,,,,,
null,,confidence_buffer,505159,confidence_buffer,,null,,,,,,,,,,,,,,,,,,
1949.800000011921,,pt2_unique_rating,507111,Folly Beach,,49,,,1,,,,,,,,,,,,,,,
null,,confidence_buffer,507217,confidence_buffer,,null,,,,,,,,,,,,,,,,,,
1949.699999988079,,pt2_memorable_rating,509170,Folly Beach,,50,,,2,,,,,,,,,,,,,,,
null,,confidence_buffer,509276,confidence_buffer,,null,,,,,,,,,,,,,,,,,,
1587,,recognition_phase,510865,Folly Beach,,50,,,,,,old,0,0.5,,,,,,,,,,
null,,confidence_buffer,510968,confidence_buffer,,null,,,,,,,,,,,,,,,,,,
null,,thebreak,511470,break,,null,,,,,,,,,,,,,,,,,,
1762.0999999642372,,realistic_rating,513235,Carmel,,51,Carmel,US,3,,,,,,,,,,,,,,,
null,,confidence_buffer,513340,confidence_buffer,,null,,,,,,,,,,,,,,,,,,
1397.3999999761581,,pt2_unique_rating,514740,Carmel,,51,,,3,,,,,,,,,,,,,,,
null,,confidence_buffer,514855,confidence_buffer,,null,,,,,,,,,,,,,,,,,,
668,,pt2_memorable_rating,515525,Carmel,,51,,,3,,,,,,,,,,,,,,,
null,,confidence_buffer,515643,confidence_buffer,,null,,,,,,,,,,,,,,,,,,
1535.199999988079,,recognition_phase,517180,Carmel,,51,,,,,,new,1,0.5454545454545454,,,,,,,,,,
null,,confidence_buffer,517284,confidence_buffer,,null,,,,,,,,,,,,,,,,,,
null,,thebreak,517797,break,,null,,,,,,,,,,,,,,,,,,
1390.4000000357628,,realistic_rating,519190,Berkeley Springs,,49,Berkeley Springs,US,1,,,,,,,,,,,,,,,
null,,confidence_buffer,519305,confidence_buffer,,null,,,,,,,,,,,,,,,,,,
1223.2999999523163,,pt2_unique_rating,520530,Berkeley Springs,,49,,,1,,,,,,,,,,,,,,,
null,,confidence_buffer,520636,confidence_buffer,,null,,,,,,,,,,,,,,,,,,
1426.4000000357628,,probe_rating,522065,probe_rating,,51,,,,3,1,,,,,,,,,,,,,
null,,confidence_buffer,522172,confidence_buffer,,null,,,,,,,,,,,,,,,,,,
6495.600000023842,,pt2_memorable_rating,528670,Berkeley Springs,,49,,,1,,,,,,,,,,,,,,,
null,,confidence_buffer,528775,confidence_buffer,,null,,,,,,,,,,,,,,,,,,
3103.399999976158,,recognition_phase,531881,Berkeley Springs,,50,,,,,,old,0,0.5,,,,,,,,,,
null,,confidence_buffer,531987,confidence_buffer,,null,,,,,,,,,,,,,,,,,,
null,,thebreak,532493,break,,null,,,,,,,,,,,,,,,,,,
2354.800000011921,,realistic_rating,534850,Delaro Park,,49,Delaro Park,Fictional,1,,,,,,,,,,,,,,,
null,,confidence_buffer,534954,confidence_buffer,,null,,,,,,,,,,,,,,,,,,
1594.5,,pt2_unique_rating,536551,Delaro Park,,49,,,1,,,,,,,,,,,,,,,
null,,confidence_buffer,536666,confidence_buffer,,null,,,,,,,,,,,,,,,,,,
1856.5999999642372,,pt2_memorable_rating,538525,Delaro Park,,49,,,1,,,,,,,,,,,,,,,
null,,confidence_buffer,538641,confidence_buffer,,null,,,,,,,,,,,,,,,,,,
4285.699999988079,,recognition_phase,542929,Delaro Park,,51,,,,,,new,1,0.5384615384615384,,,,,,,,,,
null,,confidence_buffer,543042,confidence_buffer,,null,,,,,,,,,,,,,,,,,,
null,,thebreak,543557,break,,null,,,,,,,,,,,,,,,,,,
5690.899999976158,,realistic_rating,549250,Abilene,,49,Abilene,US,1,,,,,,,,,,,,,,,
null,,confidence_buffer,549367,confidence_buffer,,null,,,,,,,,,,,,,,,,,,
1861.300000011921,,pt2_unique_rating,551230,Abilene,,49,,,1,,,,,,,,,,,,,,,
null,,confidence_buffer,551338,confidence_buffer,,null,,,,,,,,,,,,,,,,,,
759.3999999761581,,pt2_memorable_rating,552100,Abilene,,49,,,1,,,,,,,,,,,,,,,
null,,confidence_buffer,552207,confidence_buffer,,null,,,,,,,,,,,,,,,,,,
3443.7999999523163,,recognition_phase,555653,Abilene,,51,,,,,,new,0,0.5,,,,,,,,,,
null,,confidence_buffer,555758,confidence_buffer,,null,,,,,,,,,,,,,,,,,,
null,,thebreak,556261,break,,null,,,,,,,,,,,,,,,,,,
1765.9000000357628,,realistic_rating,558029,Duck,,49,Duck,US,1,,,,,,,,,,,,,,,
null,,confidence_buffer,558138,confidence_buffer,,null,,,,,,,,,,,,,,,,,,
1218.0999999642372,,pt2_unique_rating,559359,Duck,,49,,,1,,,,,,,,,,,,,,,
null,,confidence_buffer,559472,confidence_buffer,,null,,,,,,,,,,,,,,,,,,
1479.5,,pt2_memorable_rating,560954,Duck,,51,,,3,,,,,,,,,,,,,,,
null,,confidence_buffer,561064,confidence_buffer,,null,,,,,,,,,,,,,,,,,,
1697.0999999642372,,recognition_phase,562764,Duck,,52,,,,,,new,1,0.5333333333333333,,,,,,,,,,
null,,confidence_buffer,562872,confidence_buffer,,null,,,,,,,,,,,,,,,,,,
null,,thebreak,563377,break,,null,,,,,,,,,,,,,,,,,,
1910.699999988079,,realistic_rating,565290,Claywater,,51,Claywater,Fictional,3,,,,,,,,,,,,,,,
null,,confidence_buffer,565396,confidence_buffer,,null,,,,,,,,,,,,,,,,,,
1219.5,,pt2_unique_rating,566618,Claywater,,51,,,3,,,,,,,,,,,,,,,
null,,confidence_buffer,566728,confidence_buffer,,null,,,,,,,,,,,,,,,,,,
768.5999999642372,,pt2_memorable_rating,567499,Claywater,,51,,,3,,,,,,,,,,,,,,,
null,,confidence_buffer,567604,confidence_buffer,,null,,,,,,,,,,,,,,,,,,
2543.699999988079,,recognition_phase,570150,Claywater,,52,,,,,,new,1,0.5625,,,,,,,,,,
null,,confidence_buffer,570257,confidence_buffer,,null,,,,,,,,,,,,,,,,,,
null,,thebreak,570771,break,,null,,,,,,,,,,,,,,,,,,
1790.800000011921,,realistic_rating,572564,Hanover,,52,Hanover,US,4,,,,,,,,,,,,,,,
null,,confidence_buffer,572673,confidence_buffer,,null,,,,,,,,,,,,,,,,,,
2118.100000023842,,pt2_unique_rating,574794,Hanover,,51,,,3,,,,,,,,,,,,,,,
null,,confidence_buffer,574900,confidence_buffer,,null,,,,,,,,,,,,,,,,,,
1552.199999988079,,pt2_memorable_rating,576454,Hanover,,52,,,4,,,,,,,,,,,,,,,
null,,confidence_buffer,576570,confidence_buffer,,null,,,,,,,,,,,,,,,,,,
2041.5,,recognition_phase,578615,Hanover,,52,,,,,,new,1,0.5882352941176471,,,,,,,,,,
null,,confidence_buffer,578722,confidence_buffer,,null,,,,,,,,,,,,,,,,,,
null,,thebreak,579238,break,,null,,,,,,,,,,,,,,,,,,
1809.699999988079,,realistic_rating,581049,Maravilla Springs,,49,Maravilla Springs,Fictional,1,,,,,,,,,,,,,,,
null,,confidence_buffer,581167,confidence_buffer,,null,,,,,,,,,,,,,,,,,,
824.5999999642372,,pt2_unique_rating,581994,Maravilla Springs,,49,,,1,,,,,,,,,,,,,,,
null,,confidence_buffer,582102,confidence_buffer,,null,,,,,,,,,,,,,,,,,,
545.3999999761581,,pt2_memorable_rating,582650,Maravilla Springs,,49,,,1,,,,,,,,,,,,,,,
null,,confidence_buffer,582765,confidence_buffer,,null,,,,,,,,,,,,,,,,,,
1287.1000000238419,,recognition_phase,584054,Maravilla Springs,,51,,,,,,new,0,0.5555555555555556,,,,,,,,,,
null,,confidence_buffer,584166,confidence_buffer,,null,,,,,,,,,,,,,,,,,,
null,,thebreak,584682,break,,null,,,,,,,,,,,,,,,,,,
1254.300000011921,,realistic_rating,585939,Hot Springs,,51,Hot Springs,US,3,,,,,,,,,,,,,,,
null,,confidence_buffer,586051,confidence_buffer,,null,,,,,,,,,,,,,,,,,,
1167.4000000357628,,pt2_unique_rating,587220,Hot Springs,,51,,,3,,,,,,,,,,,,,,,
null,,confidence_buffer,587339,confidence_buffer,,null,,,,,,,,,,,,,,,,,,
1437.300000011921,,pt2_memorable_rating,588778,Hot Springs,,52,,,4,,,,,,,,,,,,,,,
null,,confidence_buffer,588886,confidence_buffer,,null,,,,,,,,,,,,,,,,,,
1450.8999999761581,,recognition_phase,590339,Hot Springs,,51,,,,,,new,0,0.5263157894736842,,,,,,,,,,
null,,confidence_buffer,590454,confidence_buffer,,null,,,,,,,,,,,,,,,,,,
null,,thebreak,590970,break,,null,,,,,,,,,,,,,,,,,,
992.1999999880791,,realistic_rating,591964,Briarfield,,49,Briarfield,Fictional,1,,,,,,,,,,,,,,,
null,,confidence_buffer,592072,confidence_buffer,,null,,,,,,,,,,,,,,,,,,
1479.3999999761581,,pt2_unique_rating,593554,Briarfield,,49,,,1,,,,,,,,,,,,,,,
null,,confidence_buffer,593661,confidence_buffer,,null,,,,,,,,,,,,,,,,,,
1060.5999999642372,,pt2_memorable_rating,594724,Briarfield,,49,,,1,,,,,,,,,,,,,,,
null,,confidence_buffer,594839,confidence_buffer,,null,,,,,,,,,,,,,,,,,,
1174.0999999642372,,recognition_phase,596015,Briarfield,,49,,,,,,old,1,0.55,,,,,,,,,,
null,,confidence_buffer,596131,confidence_buffer,,null,,,,,,,,,,,,,,,,,,
null,,thebreak,596633,break,,null,,,,,,,,,,,,,,,,,,
1160.5,,realistic_rating,597796,Sunmere,,49,Sunmere,Fictional,1,,,,,,,,,,,,,,,
null,,confidence_buffer,597903,confidence_buffer,,null,,,,,,,,,,,,,,,,,,
2267.5,,pt2_unique_rating,600172,Sunmere,,49,,,1,,,,,,,,,,,,,,,
null,,confidence_buffer,600274,confidence_buffer,,null,,,,,,,,,,,,,,,,,,
1669.9000000357628,,probe_rating,601946,probe_rating,,52,,,,4,1,,,,,,,,,,,,,
null,,confidence_buffer,602055,confidence_buffer,,null,,,,,,,,,,,,,,,,,,
2129.399999976158,,pt2_memorable_rating,604186,Sunmere,,49,,,1,,,,,,,,,,,,,,,
null,,confidence_buffer,604298,confidence_buffer,,null,,,,,,,,,,,,,,,,,,
2450,,recognition_phase,606751,Sunmere,,52,,,,,,new,1,0.5714285714285714,,,,,,,,,,
null,,confidence_buffer,606863,confidence_buffer,,null,,,,,,,,,,,,,,,,,,
null,,thebreak,607374,break,,null,,,,,,,,,,,,,,,,,,
1443.800000011921,,realistic_rating,608820,Maplehurst,,49,Maplehurst,Fictional,1,,,,,,,,,,,,,,,
null,,confidence_buffer,608934,confidence_buffer,,null,,,,,,,,,,,,,,,,,,
968.2999999523163,,pt2_unique_rating,609905,Maplehurst,,49,,,1,,,,,,,,,,,,,,,
null,,confidence_buffer,610014,confidence_buffer,,null,,,,,,,,,,,,,,,,,,
1398.4000000357628,,pt2_memorable_rating,611414,Maplehurst,,49,,,1,,,,,,,,,,,,,,,
null,,confidence_buffer,611517,confidence_buffer,,null,,,,,,,,,,,,,,,,,,
1856,,recognition_phase,613375,Maplehurst,,52,,,,,,new,0,0.5454545454545454,,,,,,,,,,
null,,confidence_buffer,613486,confidence_buffer,,null,,,,,,,,,,,,,,,,,,
null,,thebreak,614002,break,,null,,,,,,,,,,,,,,,,,,
4112.100000023842,,realistic_rating,618117,Gardnerville,,49,Gardnerville,US,1,,,,,,,,,,,,,,,
null,,confidence_buffer,618219,confidence_buffer,,null,,,,,,,,,,,,,,,,,,
558.8999999761581,,pt2_unique_rating,618781,Gardnerville,,49,,,1,,,,,,,,,,,,,,,
null,,confidence_buffer,618888,confidence_buffer,,null,,,,,,,,,,,,,,,,,,
846.8000000119209,,pt2_memorable_rating,619737,Gardnerville,,49,,,1,,,,,,,,,,,,,,,
null,,confidence_buffer,619854,confidence_buffer,,null,,,,,,,,,,,,,,,,,,
1454.699999988079,,recognition_phase,621311,Gardnerville,,52,,,,,,new,1,0.5652173913043478,,,,,,,,,,
null,,confidence_buffer,621419,confidence_buffer,,null,,,,,,,,,,,,,,,,,,
null,,thebreak,621937,break,,null,,,,,,,,,,,,,,,,,,
3158.699999988079,,realistic_rating,625098,Linden Trace,,50,Linden Trace,Fictional,2,,,,,,,,,,,,,,,
null,,confidence_buffer,625212,confidence_buffer,,null,,,,,,,,,,,,,,,,,,
1271.699999988079,,probe_rating,626486,probe_rating,,52,,,,4,1,,,,,,,,,,,,,
null,,confidence_buffer,626603,confidence_buffer,,null,,,,,,,,,,,,,,,,,,
1615.800000011921,,pt2_unique_rating,628221,Linden Trace,,50,,,2,,,,,,,,,,,,,,,
null,,confidence_buffer,628337,confidence_buffer,,null,,,,,,,,,,,,,,,,,,
957.3000000119209,,pt2_memorable_rating,629296,Linden Trace,,50,,,2,,,,,,,,,,,,,,,
null,,confidence_buffer,629410,confidence_buffer,,null,,,,,,,,,,,,,,,,,,
1478.2000000476837,,recognition_phase,630891,Linden Trace,,51,,,,,,new,0,0.5416666666666666,,,,,,,,,,
null,,confidence_buffer,630997,confidence_buffer,,null,,,,,,,,,,,,,,,,,,
null,,thebreak,631498,break,,null,,,,,,,,,,,,,,,,,,
2185.300000011921,,realistic_rating,633686,North Arroya,,50,North Arroya,Fictional,2,,,,,,,,,,,,,,,
null,,confidence_buffer,633802,confidence_buffer,,null,,,,,,,,,,,,,,,,,,
852.0999999642372,,pt2_unique_rating,634656,North Arroya,,50,,,2,,,,,,,,,,,,,,,
null,,confidence_buffer,634768,confidence_buffer,,null,,,,,,,,,,,,,,,,,,
1202.300000011921,,pt2_memorable_rating,635973,North Arroya,,49,,,1,,,,,,,,,,,,,,,
null,,confidence_buffer,636077,confidence_buffer,,null,,,,,,,,,,,,,,,,,,
2118.100000023842,,recognition_phase,638197,North Arroya,,50,,,,,,old,1,0.56,,,,,,,,,,
null,,confidence_buffer,638305,confidence_buffer,,null,,,,,,,,,,,,,,,,,,
null,,thebreak,638816,break,,null,,,,,,,,,,,,,,,,,,
1539.9000000357628,,realistic_rating,640358,Tamarisk Hills,,49,Tamarisk Hills,Fictional,1,,,,,,,,,,,,,,,
null,,confidence_buffer,640463,confidence_buffer,,null,,,,,,,,,,,,,,,,,,
957,,pt2_unique_rating,641422,Tamarisk Hills,,49,,,1,,,,,,,,,,,,,,,
null,,confidence_buffer,641528,confidence_buffer,,null,,,,,,,,,,,,,,,,,,
902.8999999761581,,pt2_memorable_rating,642433,Tamarisk Hills,,49,,,1,,,,,,,,,,,,,,,
null,,confidence_buffer,642539,confidence_buffer,,null,,,,,,,,,,,,,,,,,,
2566,,recognition_phase,645107,Tamarisk Hills,,51,,,,,,new,1,0.5769230769230769,,,,,,,,,,
null,,confidence_buffer,645225,confidence_buffer,,null,,,,,,,,,,,,,,,,,,
null,,thebreak,645730,break,,null,,,,,,,,,,,,,,,,,,
1384.6000000238419,,realistic_rating,647117,Summershade,,50,Summershade,Fictional,2,,,,,,,,,,,,,,,
null,,confidence_buffer,647235,confidence_buffer,,null,,,,,,,,,,,,,,,,,,
1305.300000011921,,pt2_unique_rating,648542,Summershade,,50,,,2,,,,,,,,,,,,,,,
null,,confidence_buffer,648655,confidence_buffer,,null,,,,,,,,,,,,,,,,,,
1100.5,,pt2_memorable_rating,649758,Summershade,,50,,,2,,,,,,,,,,,,,,,
null,,confidence_buffer,649863,confidence_buffer,,null,,,,,,,,,,,,,,,,,,
1541.5,,recognition_phase,651407,Summershade,,51,,,,,,new,0,0.5555555555555556,,,,,,,,,,
null,,confidence_buffer,651514,confidence_buffer,,null,,,,,,,,,,,,,,,,,,
null,,thebreak,652020,break,,null,,,,,,,,,,,,,,,,,,
1634.199999988079,,realistic_rating,653656,Ashford Hills,,50,Ashford Hills,Fictional,2,,,,,,,,,,,,,,,
null,,confidence_buffer,653761,confidence_buffer,,null,,,,,,,,,,,,,,,,,,
968.5,,pt2_unique_rating,654732,Ashford Hills,,50,,,2,,,,,,,,,,,,,,,
null,,confidence_buffer,654846,confidence_buffer,,null,,,,,,,,,,,,,,,,,,
741.1000000238419,,pt2_memorable_rating,655589,Ashford Hills,,50,,,2,,,,,,,,,,,,,,,
null,,confidence_buffer,655703,confidence_buffer,,null,,,,,,,,,,,,,,,,,,
1081.8999999761581,,recognition_phase,656788,Ashford Hills,,51,,,,,,new,1,0.5714285714285714,,,,,,,,,,
null,,confidence_buffer,656897,confidence_buffer,,null,,,,,,,,,,,,,,,,,,
null,,thebreak,657399,break,,null,,,,,,,,,,,,,,,,,,
1721.5999999642372,,realistic_rating,659123,Shreveport,,49,Shreveport,US,1,,,,,,,,,,,,,,,
null,,confidence_buffer,659229,confidence_buffer,,null,,,,,,,,,,,,,,,,,,
933,,pt2_unique_rating,660164,Shreveport,,49,,,1,,,,,,,,,,,,,,,
null,,confidence_buffer,660282,confidence_buffer,,null,,,,,,,,,,,,,,,,,,
464.5999999642372,,pt2_memorable_rating,660749,Shreveport,,49,,,1,,,,,,,,,,,,,,,
null,,confidence_buffer,660863,confidence_buffer,,null,,,,,,,,,,,,,,,,,,
1614.199999988079,,recognition_phase,662479,Shreveport,,51,,,,,,new,0,0.5517241379310345,,,,,,,,,,
null,,confidence_buffer,662583,confidence_buffer,,null,,,,,,,,,,,,,,,,,,
null,,thebreak,663087,break,,null,,,,,,,,,,,,,,,,,,
1399.5,,realistic_rating,664488,Willowford,,51,Willowford,Fictional,3,,,,,,,,,,,,,,,
null,,confidence_buffer,664599,confidence_buffer,,null,,,,,,,,,,,,,,,,,,
1811,,pt2_unique_rating,666413,Willowford,,50,,,2,,,,,,,,,,,,,,,
null,,confidence_buffer,666516,confidence_buffer,,null,,,,,,,,,,,,,,,,,,
784.1999999880791,,pt2_memorable_rating,667303,Willowford,,50,,,2,,,,,,,,,,,,,,,
null,,confidence_buffer,667409,confidence_buffer,,null,,,,,,,,,,,,,,,,,,
995.8000000119209,,recognition_phase,668408,Willowford,,51,,,,,,new,1,0.5666666666666667,,,,,,,,,,
null,,confidence_buffer,668516,confidence_buffer,,null,,,,,,,,,,,,,,,,,,
null,,thebreak,669032,break,,null,,,,,,,,,,,,,,,,,,
1229.2000000476837,,realistic_rating,670263,Bar Harbor,,49,Bar Harbor,US,1,,,,,,,,,,,,,,,
null,,confidence_buffer,670368,confidence_buffer,,null,,,,,,,,,,,,,,,,,,
563.8000000119209,,pt2_unique_rating,670934,Bar Harbor,,49,,,1,,,,,,,,,,,,,,,
null,,confidence_buffer,671043,confidence_buffer,,null,,,,,,,,,,,,,,,,,,
277.80000001192093,,pt2_memorable_rating,671323,Bar Harbor,,49,,,1,,,,,,,,,,,,,,,
null,,confidence_buffer,671430,confidence_buffer,,null,,,,,,,,,,,,,,,,,,
1322.300000011921,,recognition_phase,672754,Bar Harbor,,51,,,,,,new,1,0.5806451612903226,,,,,,,,,,
null,,confidence_buffer,672862,confidence_buffer,,null,,,,,,,,,,,,,,,,,,
null,,thebreak,673375,break,,null,,,,,,,,,,,,,,,,,,
1196,,realistic_rating,674573,Sitka,,49,Sitka,US,1,,,,,,,,,,,,,,,
null,,confidence_buffer,674691,confidence_buffer,,null,,,,,,,,,,,,,,,,,,
520.6000000238419,,pt2_unique_rating,675214,Sitka,,49,,,1,,,,,,,,,,,,,,,
null,,confidence_buffer,675325,confidence_buffer,,null,,,,,,,,,,,,,,,,,,
566.1999999880791,,pt2_memorable_rating,675894,Sitka,,49,,,1,,,,,,,,,,,,,,,
null,,confidence_buffer,676007,confidence_buffer,,null,,,,,,,,,,,,,,,,,,
963.9000000357628,,recognition_phase,676974,Sitka,,51,,,,,,new,1,0.59375,,,,,,,,,,
null,,confidence_buffer,677080,confidence_buffer,,null,,,,,,,,,,,,,,,,,,
null,,thebreak,677594,break,,null,,,,,,,,,,,,,,,,,,
1027.6000000238419,,realistic_rating,678624,Natchez,,49,Natchez,US,1,,,,,,,,,,,,,,,
null,,confidence_buffer,678729,confidence_buffer,,null,,,,,,,,,,,,,,,,,,
318.19999998807907,,pt2_unique_rating,679050,Natchez,,49,,,1,,,,,,,,,,,,,,,
null,,confidence_buffer,679166,confidence_buffer,,null,,,,,,,,,,,,,,,,,,
516.6999999880791,,pt2_memorable_rating,679684,Natchez,,49,,,1,,,,,,,,,,,,,,,
null,,confidence_buffer,679794,confidence_buffer,,null,,,,,,,,,,,,,,,,,,
841.8000000119209,,recognition_phase,680639,Natchez,,51,,,,,,new,1,0.6060606060606061,,,,,,,,,,
null,,confidence_buffer,680746,confidence_buffer,,null,,,,,,,,,,,,,,,,,,
null,,thebreak,681261,break,,null,,,,,,,,,,,,,,,,,,
2281.400000035763,,realistic_rating,683545,Assateague Island,,49,Assateague Island,US,1,,,,,,,,,,,,,,,
null,,confidence_buffer,683649,confidence_buffer,,null,,,,,,,,,,,,,,,,,,
1004.0999999642372,,pt2_unique_rating,684655,Assateague Island,,50,,,2,,,,,,,,,,,,,,,
null,,confidence_buffer,684765,confidence_buffer,,null,,,,,,,,,,,,,,,,,,
1282.5,,pt2_memorable_rating,686050,Assateague Island,,50,,,2,,,,,,,,,,,,,,,
null,,confidence_buffer,686157,confidence_buffer,,null,,,,,,,,,,,,,,,,,,
2004.800000011921,,recognition_phase,688165,Assateague Island,,51,,,,,,new,0,0.5882352941176471,,,,,,,,,,
null,,confidence_buffer,688280,confidence_buffer,,null,,,,,,,,,,,,,,,,,,
null,,thebreak,688784,break,,null,,,,,,,,,,,,,,,,,,
2238,,realistic_rating,691024,Cleveland,,52,Cleveland,US,4,,,,,,,,,,,,,,,
null,,confidence_buffer,691133,confidence_buffer,,null,,,,,,,,,,,,,,,,,,
1475.6000000238419,,pt2_unique_rating,692611,Cleveland,,51,,,3,,,,,,,,,,,,,,,
null,,confidence_buffer,692716,confidence_buffer,,null,,,,,,,,,,,,,,,,,,
1877.7000000476837,,pt2_memorable_rating,694596,Cleveland,,52,,,4,,,,,,,,,,,,,,,
null,,confidence_buffer,694700,confidence_buffer,,null,,,,,,,,,,,,,,,,,,
1943.199999988079,,recognition_phase,696645,Cleveland,,49,,,,,,old,1,0.6,,,,,,,,,,
null,,confidence_buffer,696749,confidence_buffer,,null,,,,,,,,,,,,,,,,,,
null,,thebreak,697262,break,,null,,,,,,,,,,,,,,,,,,
1006,,realistic_rating,698270,Orchard Bend,,49,Orchard Bend,Fictional,1,,,,,,,,,,,,,,,
null,,confidence_buffer,698385,confidence_buffer,,null,,,,,,,,,,,,,,,,,,
628.0999999642372,,pt2_unique_rating,699016,Orchard Bend,,49,,,1,,,,,,,,,,,,,,,
null,,confidence_buffer,699130,confidence_buffer,,null,,,,,,,,,,,,,,,,,,
523.6999999880791,,pt2_memorable_rating,699656,Orchard Bend,,49,,,1,,,,,,,,,,,,,,,
null,,confidence_buffer,699771,confidence_buffer,,null,,,,,,,,,,,,,,,,,,
1399.5,,probe_rating,701173,probe_rating,,51,,,,3,1,,,,,,,,,,,,,
null,,confidence_buffer,701278,confidence_buffer,,null,,,,,,,,,,,,,,,,,,
2685.600000023842,,recognition_phase,703965,Orchard Bend,,51,,,,,,new,0,0.5833333333333334,,,,,,,,,,
null,,confidence_buffer,704082,confidence_buffer,,null,,,,,,,,,,,,,,,,,,
null,,thebreak,704598,break,,null,,,,,,,,,,,,,,,,,,
2136.300000011921,,realistic_rating,706737,Bisbee,,49,Bisbee,US,1,,,,,,,,,,,,,,,
null,,confidence_buffer,706848,confidence_buffer,,null,,,,,,,,,,,,,,,,,,
595,,pt2_unique_rating,707446,Bisbee,,49,,,1,,,,,,,,,,,,,,,
null,,confidence_buffer,707560,confidence_buffer,,null,,,,,,,,,,,,,,,,,,
498.0999999642372,,pt2_memorable_rating,708061,Bisbee,,49,,,1,,,,,,,,,,,,,,,
null,,confidence_buffer,708165,confidence_buffer,,null,,,,,,,,,,,,,,,,,,
1308.699999988079,,recognition_phase,709476,Bisbee,,49,,,,,,old,1,0.5945945945945946,,,,,,,,,,
null,,confidence_buffer,709594,confidence_buffer,,null,,,,,,,,,,,,,,,,,,
null,,thebreak,710099,break,,null,,,,,,,,,,,,,,,,,,
2604,,realistic_rating,712706,Rosehollow,,50,Rosehollow,Fictional,2,,,,,,,,,,,,,,,
null,,confidence_buffer,712812,confidence_buffer,,null,,,,,,,,,,,,,,,,,,
806.7999999523163,,pt2_unique_rating,713621,Rosehollow,,49,,,1,,,,,,,,,,,,,,,
null,,confidence_buffer,713729,confidence_buffer,,null,,,,,,,,,,,,,,,,,,
24654.5,,pt2_memorable_rating,738386,Rosehollow,,50,,,2,,,,,,,,,,,,,,,
null,,confidence_buffer,738496,confidence_buffer,,null,,,,,,,,,,,,,,,,,,
2267.100000023842,,recognition_phase,740766,Rosehollow,,51,,,,,,new,1,0.6052631578947368,,,,,,,,,,
null,,confidence_buffer,740879,confidence_buffer,,null,,,,,,,,,,,,,,,,,,
null,,thebreak,741395,break,,null,,,,,,,,,,,,,,,,,,
1503.699999988079,,realistic_rating,742901,Elmsbury,,49,Elmsbury,Fictional,1,,,,,,,,,,,,,,,
null,,confidence_buffer,743006,confidence_buffer,,null,,,,,,,,,,,,,,,,,,
302.7999999523163,,pt2_unique_rating,743311,Elmsbury,,49,,,1,,,,,,,,,,,,,,,
null,,confidence_buffer,743421,confidence_buffer,,null,,,,,,,,,,,,,,,,,,
312.5,,pt2_memorable_rating,743736,Elmsbury,,49,,,1,,,,,,,,,,,,,,,
null,,confidence_buffer,743843,confidence_buffer,,null,,,,,,,,,,,,,,,,,,
1180.2999999523163,,recognition_phase,745026,Elmsbury,,51,,,,,,new,1,0.6153846153846154,,,,,,,,,,
null,,confidence_buffer,745138,confidence_buffer,,null,,,,,,,,,,,,,,,,,,
null,,thebreak,745649,break,,null,,,,,,,,,,,,,,,,,,
1289.300000011921,,realistic_rating,746941,Orr,,49,Orr,US,1,,,,,,,,,,,,,,,
null,,confidence_buffer,747057,confidence_buffer,,null,,,,,,,,,,,,,,,,,,
322.30000001192093,,pt2_unique_rating,747382,Orr,,49,,,1,,,,,,,,,,,,,,,
null,,confidence_buffer,747488,confidence_buffer,,null,,,,,,,,,,,,,,,,,,
326.4000000357628,,pt2_memorable_rating,747816,Orr,,49,,,1,,,,,,,,,,,,,,,
null,,confidence_buffer,747924,confidence_buffer,,null,,,,,,,,,,,,,,,,,,
894.6999999880791,,recognition_phase,748821,Orr,,51,,,,,,new,1,0.625,,,,,,,,,,
null,,confidence_buffer,748930,confidence_buffer,,null,,,,,,,,,,,,,,,,,,
null,,thebreak,749435,break,,null,,,,,,,,,,,,,,,,,,
1528.800000011921,,realistic_rating,750966,West Palm Beach,,51,West Palm Beach,US,3,,,,,,,,,,,,,,,
null,,confidence_buffer,751071,confidence_buffer,,null,,,,,,,,,,,,,,,,,,
1722.5,,pt2_unique_rating,752796,West Palm Beach,,50,,,2,,,,,,,,,,,,,,,
null,,confidence_buffer,752912,confidence_buffer,,null,,,,,,,,,,,,,,,,,,
1711.9000000357628,,pt2_memorable_rating,754626,West Palm Beach,,50,,,2,,,,,,,,,,,,,,,
null,,confidence_buffer,754740,confidence_buffer,,null,,,,,,,,,,,,,,,,,,
2957.600000023842,,recognition_phase,757700,West Palm Beach,,51,,,,,,new,0,0.6097560975609756,,,,,,,,,,
null,,confidence_buffer,757804,confidence_buffer,,null,,,,,,,,,,,,,,,,,,
null,,thebreak,758316,break,,null,,,,,,,,,,,,,,,,,,
1231.300000011921,,realistic_rating,759550,West Talora,,49,West Talora,Fictional,1,,,,,,,,,,,,,,,
null,,confidence_buffer,759654,confidence_buffer,,null,,,,,,,,,,,,,,,,,,
560.4000000357628,,pt2_unique_rating,760217,West Talora,,49,,,1,,,,,,,,,,,,,,,
null,,confidence_buffer,760329,confidence_buffer,,null,,,,,,,,,,,,,,,,,,
745.8999999761581,,pt2_memorable_rating,761077,West Talora,,49,,,1,,,,,,,,,,,,,,,
null,,confidence_buffer,761191,confidence_buffer,,null,,,,,,,,,,,,,,,,,,
1492.699999988079,,recognition_phase,762686,West Talora,,52,,,,,,new,1,0.6190476190476191,,,,,,,,,,
null,,confidence_buffer,762797,confidence_buffer,,null,,,,,,,,,,,,,,,,,,
null,,thebreak,763311,break,,null,,,,,,,,,,,,,,,,,,
1823,,realistic_rating,765136,Park City,,51,Park City,US,3,,,,,,,,,,,,,,,
null,,confidence_buffer,765240,confidence_buffer,,null,,,,,,,,,,,,,,,,,,
738.8999999761581,,pt2_unique_rating,765981,Park City,,50,,,2,,,,,,,,,,,,,,,
null,,confidence_buffer,766088,confidence_buffer,,null,,,,,,,,,,,,,,,,,,
1200.699999988079,,pt2_memorable_rating,767291,Park City,,49,,,1,,,,,,,,,,,,,,,
null,,confidence_buffer,767397,confidence_buffer,,null,,,,,,,,,,,,,,,,,,
2053,,recognition_phase,769452,Park City,,52,,,,,,new,1,0.627906976744186,,,,,,,,,,
null,,confidence_buffer,769567,confidence_buffer,,null,,,,,,,,,,,,,,,,,,
null,,thebreak,770081,break,,null,,,,,,,,,,,,,,,,,,
1702.5,,realistic_rating,771785,Okoboji,,49,Okoboji,US,1,,,,,,,,,,,,,,,
null,,confidence_buffer,771894,confidence_buffer,,null,,,,,,,,,,,,,,,,,,
669.3999999761581,,pt2_unique_rating,772566,Okoboji,,49,,,1,,,,,,,,,,,,,,,
null,,confidence_buffer,772674,confidence_buffer,,null,,,,,,,,,,,,,,,,,,
549.4000000357628,,pt2_memorable_rating,773226,Okoboji,,49,,,1,,,,,,,,,,,,,,,
null,,confidence_buffer,773338,confidence_buffer,,null,,,,,,,,,,,,,,,,,,
1040.699999988079,,recognition_phase,774381,Okoboji,,49,,,,,,old,1,0.6363636363636364,,,,,,,,,,
null,,confidence_buffer,774490,confidence_buffer,,null,,,,,,,,,,,,,,,,,,
null,,thebreak,774997,break,,null,,,,,,,,,,,,,,,,,,
2926.599999964237,,realistic_rating,777926,Cape May,,49,Cape May,US,1,,,,,,,,,,,,,,,
null,,confidence_buffer,778029,confidence_buffer,,null,,,,,,,,,,,,,,,,,,
524.4000000357628,,pt2_unique_rating,778556,Cape May,,49,,,1,,,,,,,,,,,,,,,
null,,confidence_buffer,778659,confidence_buffer,,null,,,,,,,,,,,,,,,,,,
1251.1000000238419,,pt2_memorable_rating,779912,Cape May,,49,,,1,,,,,,,,,,,,,,,
null,,confidence_buffer,780020,confidence_buffer,,null,,,,,,,,,,,,,,,,,,
959.2999999523163,,recognition_phase,780981,Cape May,,49,,,,,,old,1,0.6444444444444445,,,,,,,,,,
null,,confidence_buffer,781089,confidence_buffer,,null,,,,,,,,,,,,,,,,,,
null,,thebreak,781594,break,,null,,,,,,,,,,,,,,,,,,
2558.800000011921,,realistic_rating,784155,Manistee,,50,Manistee,US,2,,,,,,,,,,,,,,,
null,,confidence_buffer,784262,confidence_buffer,,null,,,,,,,,,,,,,,,,,,
531.3000000119209,,pt2_unique_rating,784795,Manistee,,49,,,1,,,,,,,,,,,,,,,
null,,confidence_buffer,784911,confidence_buffer,,null,,,,,,,,,,,,,,,,,,
342.5,,pt2_memorable_rating,785256,Manistee,,49,,,1,,,,,,,,,,,,,,,
null,,confidence_buffer,785370,confidence_buffer,,null,,,,,,,,,,,,,,,,,,
648.3999999761581,,recognition_phase,786020,Manistee,,49,,,,,,old,1,0.6521739130434783,,,,,,,,,,
null,,confidence_buffer,786123,confidence_buffer,,null,,,,,,,,,,,,,,,,,,
null,,thebreak,786633,break,,null,,,,,,,,,,,,,,,,,,
1321.199999988079,,realistic_rating,787956,Sisters,,49,Sisters,US,1,,,,,,,,,,,,,,,
null,,confidence_buffer,788072,confidence_buffer,,null,,,,,,,,,,,,,,,,,,
331.5999999642372,,pt2_unique_rating,788406,Sisters,,49,,,1,,,,,,,,,,,,,,,
null,,confidence_buffer,788517,confidence_buffer,,null,,,,,,,,,,,,,,,,,,
332.19999998807907,,pt2_memorable_rating,788853,Sisters,,49,,,1,,,,,,,,,,,,,,,
null,,confidence_buffer,788968,confidence_buffer,,null,,,,,,,,,,,,,,,,,,
1799.1000000238419,,recognition_phase,790770,Sisters,,52,,,,,,new,1,0.6595744680851063,,,,,,,,,,
null,,confidence_buffer,790878,confidence_buffer,,null,,,,,,,,,,,,,,,,,,
null,,thebreak,791391,break,,null,,,,,,,,,,,,,,,,,,
1942.300000011921,,realistic_rating,793335,Bowling Green,,50,Bowling Green,US,2,,,,,,,,,,,,,,,
null,,confidence_buffer,793443,confidence_buffer,,null,,,,,,,,,,,,,,,,,,
655.3999999761581,,pt2_unique_rating,794100,Bowling Green,,49,,,1,,,,,,,,,,,,,,,
null,,confidence_buffer,794218,confidence_buffer,,null,,,,,,,,,,,,,,,,,,
208.89999997615814,,pt2_memorable_rating,794429,Bowling Green,,49,,,1,,,,,,,,,,,,,,,
null,,confidence_buffer,794538,confidence_buffer,,null,,,,,,,,,,,,,,,,,,
1290.6000000238419,,recognition_phase,795831,Bowling Green,,52,,,,,,new,0,0.6458333333333334,,,,,,,,,,
null,,confidence_buffer,795939,confidence_buffer,,null,,,,,,,,,,,,,,,,,,
null,,thebreak,796455,break,,null,,,,,,,,,,,,,,,,,,
2443.100000023842,,realistic_rating,798900,Westridge,,52,Westridge,Fictional,4,,,,,,,,,,,,,,,
null,,confidence_buffer,799010,confidence_buffer,,null,,,,,,,,,,,,,,,,,,
173.4000000357628,,pt2_unique_rating,799186,Westridge,,51,,,3,,,,,,,,,,,,,,,
null,,confidence_buffer,799291,confidence_buffer,,null,,,,,,,,,,,,,,,,,,
1110.300000011921,,pt2_memorable_rating,800403,Westridge,,49,,,1,,,,,,,,,,,,,,,
null,,confidence_buffer,800509,confidence_buffer,,null,,,,,,,,,,,,,,,,,,
3633.899999976158,,recognition_phase,804145,Westridge,,51,,,,,,new,1,0.6530612244897959,,,,,,,,,,
null,,confidence_buffer,804259,confidence_buffer,,null,,,,,,,,,,,,,,,,,,
null,,thebreak,804763,break,,null,,,,,,,,,,,,,,,,,,
1058.5999999642372,,realistic_rating,805824,Livingston,,49,Livingston,US,1,,,,,,,,,,,,,,,
null,,confidence_buffer,805943,confidence_buffer,,null,,,,,,,,,,,,,,,,,,
655,,pt2_unique_rating,806600,Livingston,,49,,,1,,,,,,,,,,,,,,,
null,,confidence_buffer,806709,confidence_buffer,,null,,,,,,,,,,,,,,,,,,
1058.4000000357628,,pt2_memorable_rating,807769,Livingston,,49,,,1,,,,,,,,,,,,,,,
null,,confidence_buffer,807872,confidence_buffer,,null,,,,,,,,,,,,,,,,,,
2310.399999976158,,recognition_phase,810185,Livingston,,49,,,,,,old,0,0.64,,,,,,,,,,
null,,confidence_buffer,810299,confidence_buffer,,null,,,,,,,,,,,,,,,,,,
null,,thebreak,810804,break,,null,,,,,,,,,,,,,,,,,,
2083.300000011921,,realistic_rating,812890,Millstone,,52,Millstone,Fictional,4,,,,,,,,,,,,,,,
null,,confidence_buffer,813002,confidence_buffer,,null,,,,,,,,,,,,,,,,,,
387,,pt2_unique_rating,813391,Millstone,,49,,,1,,,,,,,,,,,,,,,
null,,confidence_buffer,813509,confidence_buffer,,null,,,,,,,,,,,,,,,,,,
423.5999999642372,,probe_rating,813936,probe_rating,,49,,,,1,0,,,,,,,,,,,,,
null,,confidence_buffer,814041,confidence_buffer,,null,,,,,,,,,,,,,,,,,,
7087.199999988079,,pt2_memorable_rating,821130,Millstone,,49,,,1,,,,,,,,,,,,,,,
null,,confidence_buffer,821243,confidence_buffer,,null,,,,,,,,,,,,,,,,,,
2256.100000023842,,recognition_phase,823501,Millstone,,49,,,,,,old,1,0.6470588235294118,,,,,,,,,,
null,,confidence_buffer,823607,confidence_buffer,,null,,,,,,,,,,,,,,,,,,
null,,thebreak,824118,break,,null,,,,,,,,,,,,,,,,,,
2336.899999976158,,realistic_rating,826458,Falconridge,,49,Falconridge,Fictional,1,,,,,,,,,,,,,,,
null,,confidence_buffer,826574,confidence_buffer,,null,,,,,,,,,,,,,,,,,,
1925.300000011921,,pt2_unique_rating,828501,Falconridge,,49,,,1,,,,,,,,,,,,,,,
null,,confidence_buffer,828620,confidence_buffer,,null,,,,,,,,,,,,,,,,,,
304.89999997615814,,pt2_memorable_rating,828927,Falconridge,,49,,,1,,,,,,,,,,,,,,,
null,,confidence_buffer,829038,confidence_buffer,,null,,,,,,,,,,,,,,,,,,
1385.8999999761581,,recognition_phase,830426,Falconridge,,52,,,,,,new,1,0.6538461538461539,,,,,,,,,,
null,,confidence_buffer,830539,confidence_buffer,,null,,,,,,,,,,,,,,,,,,
null,,thebreak,831042,break,,null,,,,,,,,,,,,,,,,,,
886.6999999880791,,realistic_rating,831931,New Verdan,,49,New Verdan,Fictional,1,,,,,,,,,,,,,,,
null,,confidence_buffer,832038,confidence_buffer,,null,,,,,,,,,,,,,,,,,,
1061,,pt2_unique_rating,833101,New Verdan,,49,,,1,,,,,,,,,,,,,,,
null,,confidence_buffer,833208,confidence_buffer,,null,,,,,,,,,,,,,,,,,,
816.7000000476837,,pt2_memorable_rating,834027,New Verdan,,49,,,1,,,,,,,,,,,,,,,
null,,confidence_buffer,834133,confidence_buffer,,null,,,,,,,,,,,,,,,,,,
1365.8999999761581,,recognition_phase,835502,New Verdan,,52,,,,,,new,1,0.660377358490566,,,,,,,,,,
null,,confidence_buffer,835619,confidence_buffer,,null,,,,,,,,,,,,,,,,,,
null,,thebreak,836126,break,,null,,,,,,,,,,,,,,,,,,
124.5,,realistic_rating,836252,Coeur d'Alene,,49,Coeur d'Alene,US,1,,,,,,,,,,,,,,,
null,,confidence_buffer,836366,confidence_buffer,,null,,,,,,,,,,,,,,,,,,
534,,pt2_unique_rating,836901,Coeur d'Alene,,49,,,1,,,,,,,,,,,,,,,
null,,confidence_buffer,837008,confidence_buffer,,null,,,,,,,,,,,,,,,,,,
532.1000000238419,,pt2_memorable_rating,837543,Coeur d'Alene,,49,,,1,,,,,,,,,,,,,,,
null,,confidence_buffer,837651,confidence_buffer,,null,,,,,,,,,,,,,,,,,,
838.6999999880791,,recognition_phase,838491,Coeur d'Alene,,52,,,,,,new,0,0.6481481481481481,,,,,,,,,,
null,,confidence_buffer,838608,confidence_buffer,,null,,,,,,,,,,,,,,,,,,
null,,thebreak,839120,break,,null,,,,,,,,,,,,,,,,,,
1369.8999999761581,,realistic_rating,840492,Ironwood Heights,,49,Ironwood Heights,Fictional,1,,,,,,,,,,,,,,,
null,,confidence_buffer,840599,confidence_buffer,,null,,,,,,,,,,,,,,,,,,
956,,pt2_unique_rating,841557,Ironwood Heights,,49,,,1,,,,,,,,,,,,,,,
null,,confidence_buffer,841668,confidence_buffer,,null,,,,,,,,,,,,,,,,,,
1216.800000011921,,pt2_memorable_rating,842888,Ironwood Heights,,49,,,1,,,,,,,,,,,,,,,
null,,confidence_buffer,842998,confidence_buffer,,null,,,,,,,,,,,,,,,,,,
1457.699999988079,,recognition_phase,844458,Ironwood Heights,,52,,,,,,new,0,0.6363636363636364,,,,,,,,,,
null,,confidence_buffer,844572,confidence_buffer,,null,,,,,,,,,,,,,,,,,,
null,,thebreak,845076,break,,null,,,,,,,,,,,,,,,,,,
683.6000000238419,,realistic_rating,845762,Custer,,49,Custer,US,1,,,,,,,,,,,,,,,
null,,confidence_buffer,845875,confidence_buffer,,null,,,,,,,,,,,,,,,,,,
414.60000002384186,,probe_rating,846292,probe_rating,,49,,,,1,0,,,,,,,,,,,,,
null,,confidence_buffer,846402,confidence_buffer,,null,,,,,,,,,,,,,,,,,,
21618,,pt2_unique_rating,868023,Custer,,49,,,1,,,,,,,,,,,,,,,
null,,confidence_buffer,868140,confidence_buffer,,null,,,,,,,,,,,,,,,,,,
1858.8999999761581,,pt2_memorable_rating,870001,Custer,,49,,,1,,,,,,,,,,,,,,,
null,,confidence_buffer,870103,confidence_buffer,,null,,,,,,,,,,,,,,,,,,
3927.2999999523163,,recognition_phase,874032,Custer,,52,,,,,,new,1,0.6428571428571429,,,,,,,,,,
null,,confidence_buffer,874139,confidence_buffer,,null,,,,,,,,,,,,,,,,,,
null,,thebreak,874643,break,,null,,,,,,,,,,,,,,,,,,
2412,,realistic_rating,877057,Highvale,,52,Highvale,Fictional,4,,,,,,,,,,,,,,,
null,,confidence_buffer,877173,confidence_buffer,,null,,,,,,,,,,,,,,,,,,
2829.600000023842,,pt2_unique_rating,880004,Highvale,,49,,,1,,,,,,,,,,,,,,,
null,,confidence_buffer,880118,confidence_buffer,,null,,,,,,,,,,,,,,,,,,
576.9000000357628,,pt2_memorable_rating,880697,Highvale,,49,,,1,,,,,,,,,,,,,,,
null,,confidence_buffer,880803,confidence_buffer,,null,,,,,,,,,,,,,,,,,,
1847.2999999523163,,recognition_phase,882653,Highvale,,52,,,,,,new,1,0.6491228070175439,,,,,,,,,,
null,,confidence_buffer,882767,confidence_buffer,,null,,,,,,,,,,,,,,,,,,
null,,thebreak,883279,break,,null,,,,,,,,,,,,,,,,,,
1480.9000000357628,,realistic_rating,884762,Clearbrook,,51,Clearbrook,Fictional,3,,,,,,,,,,,,,,,
null,,confidence_buffer,884872,confidence_buffer,,null,,,,,,,,,,,,,,,,,,
707.3999999761581,,pt2_unique_rating,885582,Clearbrook,,49,,,1,,,,,,,,,,,,,,,
null,,confidence_buffer,885696,confidence_buffer,,null,,,,,,,,,,,,,,,,,,
1833.0999999642372,,probe_rating,887532,probe_rating,,51,,,,3,1,,,,,,,,,,,,,
null,,confidence_buffer,887639,confidence_buffer,,null,,,,,,,,,,,,,,,,,,
1849.3999999761581,,pt2_memorable_rating,889491,Clearbrook,,49,,,1,,,,,,,,,,,,,,,
null,,confidence_buffer,889601,confidence_buffer,,null,,,,,,,,,,,,,,,,,,
1777.8999999761581,,recognition_phase,891381,Clearbrook,,52,,,,,,new,0,0.6379310344827587,,,,,,,,,,
null,,confidence_buffer,891487,confidence_buffer,,null,,,,,,,,,,,,,,,,,,
null,,thebreak,892005,break,,null,,,,,,,,,,,,,,,,,,
18278.600000023842,,realistic_rating,910286,Hollendale,,49,Hollendale,Fictional,1,,,,,,,,,,,,,,,
null,,confidence_buffer,910394,confidence_buffer,,null,,,,,,,,,,,,,,,,,,
1065.5999999642372,,pt2_unique_rating,911462,Hollendale,,49,,,1,,,,,,,,,,,,,,,
null,,confidence_buffer,911568,confidence_buffer,,null,,,,,,,,,,,,,,,,,,
711.7000000476837,,pt2_memorable_rating,912282,Hollendale,,49,,,1,,,,,,,,,,,,,,,
null,,confidence_buffer,912387,confidence_buffer,,null,,,,,,,,,,,,,,,,,,
1637.0999999642372,,recognition_phase,914027,Hollendale,,52,,,,,,new,1,0.6440677966101694,,,,,,,,,,
null,,confidence_buffer,914134,confidence_buffer,,null,,,,,,,,,,,,,,,,,,
null,,thebreak,914638,break,,null,,,,,,,,,,,,,,,,,,
2848.199999988079,,realistic_rating,917488,Gatlinburg,,49,Gatlinburg,US,1,,,,,,,,,,,,,,,
null,,confidence_buffer,917596,confidence_buffer,,null,,,,,,,,,,,,,,,,,,
1124.300000011921,,pt2_unique_rating,918723,Gatlinburg,,49,,,1,,,,,,,,,,,,,,,
null,,confidence_buffer,918837,confidence_buffer,,null,,,,,,,,,,,,,,,,,,
538.1000000238419,,pt2_memorable_rating,919377,Gatlinburg,,49,,,1,,,,,,,,,,,,,,,
null,,confidence_buffer,919485,confidence_buffer,,null,,,,,,,,,,,,,,,,,,
611.4000000357628,,recognition_phase,920099,Gatlinburg,,49,,,,,,old,1,0.65,,,,,,,,,,
null,,confidence_buffer,920205,confidence_buffer,,null,,,,,,,,,,,,,,,,,,
null,,thebreak,920707,break,,null,,,,,,,,,,,,,,,,,,
,,survey,1093114,survey-questions,,,,,,,,,,,none,med,no,try to remember places I have heard of,have I heard of it,will I remember it,do I like it,is it possibly a place,no,no
