rt,responses,trial_type,time_elapsed,stimulus,button_pressed,key_press,name_trial,rating,probe,probe_accuracy,response,correct,accuracy,problems,smooth,distraction,strategies,familiar,memorable,unique,realistic,similar,comments
5390.4000000059605,{worker_id:666af0507b0a277a93214f66},id_enter,5393,,,,,,,,,,,,,,,,,,,,
6063,,fullscreen,11460,fullscreen,0,,,,,,,,,,,,,,,,,,
1796.2999999970198,,intro_0,13259,instruct,,32,,,,,,,,,,,,,,,,,
24044.79999999702,,intro_1,37306,instruct,,32,,,,,,,,,,,,,,,,,
15668.20000000298,,intro_2,52975,instruct,,32,,,,,,,,,,,,,,,,,
null,,instruct_dir_4,54478,instruct,,null,,,,,,,,,,,,,,,,,
null,,thebreak,54979,break,,null,,,,,,,,,,,,,,,,,
5925.79999999702,,familiar_rating,60906,Dothan,,50,Dothan,2,,,,,,,,,,,,,,,
null,,confidence_buffer,61008,confidence_buffer,,null,,,,,,,,,,,,,,,,,
6639.0999999940395,,unique_rating,67648,Dothan,,52,,4,,,,,,,,,,,,,,,
null,,confidence_buffer,67750,confidence_buffer,,null,,,,,,,,,,,,,,,,,
5721.79999999702,,memorable_rating,73473,Dothan,,51,,3,,,,,,,,,,,,,,,
null,,confidence_buffer,73576,confidence_buffer,,null,,,,,,,,,,,,,,,,,
null,,thebreak,74078,break,,null,,,,,,,,,,,,,,,,,
8925.70000000298,,familiar_rating,83005,Annapolis,,51,Annapolis,3,,,,,,,,,,,,,,,
null,,confidence_buffer,83107,confidence_buffer,,null,,,,,,,,,,,,,,,,,
2390.8999999910593,,unique_rating,85499,Annapolis,,52,,4,,,,,,,,,,,,,,,
null,,confidence_buffer,85601,confidence_buffer,,null,,,,,,,,,,,,,,,,,
2526.7999999970198,,memorable_rating,88128,Annapolis,,52,,4,,,,,,,,,,,,,,,
null,,confidence_buffer,88231,confidence_buffer,,null,,,,,,,,,,,,,,,,,
null,,thebreak,88732,break,,null,,,,,,,,,,,,,,,,,
3070.5,,familiar_rating,91803,Youngstown,,53,Youngstown,5,,,,,,,,,,,,,,,
null,,confidence_buffer,91905,confidence_buffer,,null,,,,,,,,,,,,,,,,,
4874,,unique_rating,96780,Youngstown,,49,,1,,,,,,,,,,,,,,,
null,,confidence_buffer,96883,confidence_buffer,,null,,,,,,,,,,,,,,,,,
4159.20000000298,,memorable_rating,101043,Youngstown,,53,,5,,,,,,,,,,,,,,,
null,,confidence_buffer,101145,confidence_buffer,,null,,,,,,,,,,,,,,,,,
null,,thebreak,101648,break,,null,,,,,,,,,,,,,,,,,
3145.2999999970198,,familiar_rating,104794,Fargo,,53,Fargo,5,,,,,,,,,,,,,,,
null,,confidence_buffer,104896,confidence_buffer,,null,,,,,,,,,,,,,,,,,
2962.699999988079,,unique_rating,107860,Fargo,,52,,4,,,,,,,,,,,,,,,
null,,confidence_buffer,107962,confidence_buffer,,null,,,,,,,,,,,,,,,,,
1900.6000000089407,,memorable_rating,109864,Fargo,,53,,5,,,,,,,,,,,,,,,
null,,confidence_buffer,109965,confidence_buffer,,null,,,,,,,,,,,,,,,,,
3507.7999999970198,,probe_rating,113474,probe_rating,,52,,,4,1,,,,,,,,,,,,,
null,,confidence_buffer,113575,confidence_buffer,,null,,,,,,,,,,,,,,,,,
null,,thebreak,114077,break,,null,,,,,,,,,,,,,,,,,
3929.300000011921,,familiar_rating,118008,Terre Haute,,50,Terre Haute,2,,,,,,,,,,,,,,,
null,,confidence_buffer,118109,confidence_buffer,,null,,,,,,,,,,,,,,,,,
2669.2000000029802,,unique_rating,120779,Terre Haute,,53,,5,,,,,,,,,,,,,,,
null,,confidence_buffer,120880,confidence_buffer,,null,,,,,,,,,,,,,,,,,
3192.300000011921,,memorable_rating,124073,Terre Haute,,51,,3,,,,,,,,,,,,,,,
null,,confidence_buffer,124175,confidence_buffer,,null,,,,,,,,,,,,,,,,,
null,,thebreak,124678,break,,null,,,,,,,,,,,,,,,,,
3379.2000000029802,,familiar_rating,128058,Ithaca,,53,Ithaca,5,,,,,,,,,,,,,,,
null,,confidence_buffer,128159,confidence_buffer,,null,,,,,,,,,,,,,,,,,
5559.4000000059605,,unique_rating,133719,Ithaca,,52,,4,,,,,,,,,,,,,,,
null,,confidence_buffer,133822,confidence_buffer,,null,,,,,,,,,,,,,,,,,
2145.7999999970198,,memorable_rating,135968,Ithaca,,53,,5,,,,,,,,,,,,,,,
null,,confidence_buffer,136071,confidence_buffer,,null,,,,,,,,,,,,,,,,,
1880.5999999940395,,probe_rating,137952,probe_rating,,53,,,5,1,,,,,,,,,,,,,
null,,confidence_buffer,138055,confidence_buffer,,null,,,,,,,,,,,,,,,,,
null,,thebreak,138557,break,,null,,,,,,,,,,,,,,,,,
4605,,familiar_rating,143163,Scottsdale,,53,Scottsdale,5,,,,,,,,,,,,,,,
null,,confidence_buffer,143264,confidence_buffer,,null,,,,,,,,,,,,,,,,,
5175.5999999940395,,unique_rating,148441,Scottsdale,,50,,2,,,,,,,,,,,,,,,
null,,confidence_buffer,148543,confidence_buffer,,null,,,,,,,,,,,,,,,,,
2359.2999999970198,,probe_rating,150903,probe_rating,,51,,,3,1,,,,,,,,,,,,,
null,,confidence_buffer,151005,confidence_buffer,,null,,,,,,,,,,,,,,,,,
2514.4000000059605,,memorable_rating,153521,Scottsdale,,53,,5,,,,,,,,,,,,,,,
null,,confidence_buffer,153622,confidence_buffer,,null,,,,,,,,,,,,,,,,,
null,,thebreak,154125,break,,null,,,,,,,,,,,,,,,,,
5776.0999999940395,,familiar_rating,159902,Pasadena,,53,Pasadena,5,,,,,,,,,,,,,,,
null,,confidence_buffer,160003,confidence_buffer,,null,,,,,,,,,,,,,,,,,
6130.899999991059,,unique_rating,166135,Pasadena,,50,,2,,,,,,,,,,,,,,,
null,,confidence_buffer,166238,confidence_buffer,,null,,,,,,,,,,,,,,,,,
2121,,probe_rating,168360,probe_rating,,52,,,4,1,,,,,,,,,,,,,
null,,confidence_buffer,168462,confidence_buffer,,null,,,,,,,,,,,,,,,,,
2121.9000000059605,,memorable_rating,170585,Pasadena,,53,,5,,,,,,,,,,,,,,,
null,,confidence_buffer,170687,confidence_buffer,,null,,,,,,,,,,,,,,,,,
null,,thebreak,171189,break,,null,,,,,,,,,,,,,,,,,
1546.2999999970198,,familiar_rating,172736,Cambridge,,53,Cambridge,5,,,,,,,,,,,,,,,
null,,confidence_buffer,172838,confidence_buffer,,null,,,,,,,,,,,,,,,,,
2895.2999999970198,,unique_rating,175735,Cambridge,,49,,1,,,,,,,,,,,,,,,
null,,confidence_buffer,175836,confidence_buffer,,null,,,,,,,,,,,,,,,,,
2259.6000000089407,,memorable_rating,178097,Cambridge,,53,,5,,,,,,,,,,,,,,,
null,,confidence_buffer,178199,confidence_buffer,,null,,,,,,,,,,,,,,,,,
null,,thebreak,178701,break,,null,,,,,,,,,,,,,,,,,
2800.2999999970198,,familiar_rating,181502,Las Cruces,,53,Las Cruces,5,,,,,,,,,,,,,,,
null,,confidence_buffer,181605,confidence_buffer,,null,,,,,,,,,,,,,,,,,
2233,,unique_rating,183838,Las Cruces,,50,,2,,,,,,,,,,,,,,,
null,,confidence_buffer,183940,confidence_buffer,,null,,,,,,,,,,,,,,,,,
136.79999999701977,,memorable_rating,184078,Las Cruces,,50,,2,,,,,,,,,,,,,,,
null,,confidence_buffer,184179,confidence_buffer,,null,,,,,,,,,,,,,,,,,
null,,thebreak,184681,break,,null,,,,,,,,,,,,,,,,,
8570.70000000298,,familiar_rating,193253,McKinney,,53,McKinney,5,,,,,,,,,,,,,,,
null,,confidence_buffer,193355,confidence_buffer,,null,,,,,,,,,,,,,,,,,
3370.300000011921,,unique_rating,196727,McKinney,,51,,3,,,,,,,,,,,,,,,
null,,confidence_buffer,196828,confidence_buffer,,null,,,,,,,,,,,,,,,,,
2758.800000011921,,memorable_rating,199588,McKinney,,53,,5,,,,,,,,,,,,,,,
null,,confidence_buffer,199689,confidence_buffer,,null,,,,,,,,,,,,,,,,,
null,,thebreak,200191,break,,null,,,,,,,,,,,,,,,,,
5344.20000000298,,familiar_rating,205536,Abilene,,52,Abilene,4,,,,,,,,,,,,,,,
null,,confidence_buffer,205637,confidence_buffer,,null,,,,,,,,,,,,,,,,,
2824.3999999910593,,unique_rating,208463,Abilene,,50,,2,,,,,,,,,,,,,,,
null,,confidence_buffer,208565,confidence_buffer,,null,,,,,,,,,,,,,,,,,
2690.8999999910593,,memorable_rating,211257,Abilene,,52,,4,,,,,,,,,,,,,,,
null,,confidence_buffer,211360,confidence_buffer,,null,,,,,,,,,,,,,,,,,
null,,thebreak,211862,break,,null,,,,,,,,,,,,,,,,,
2447,,familiar_rating,214310,Rock Springs,,53,Rock Springs,5,,,,,,,,,,,,,,,
null,,confidence_buffer,214412,confidence_buffer,,null,,,,,,,,,,,,,,,,,
3265.6000000089407,,unique_rating,217678,Rock Springs,,49,,1,,,,,,,,,,,,,,,
null,,confidence_buffer,217781,confidence_buffer,,null,,,,,,,,,,,,,,,,,
2332,,memorable_rating,220114,Rock Springs,,53,,5,,,,,,,,,,,,,,,
null,,confidence_buffer,220216,confidence_buffer,,null,,,,,,,,,,,,,,,,,
null,,thebreak,220718,break,,null,,,,,,,,,,,,,,,,,
4507.5,,familiar_rating,225227,Dubuque,,49,Dubuque,1,,,,,,,,,,,,,,,
null,,confidence_buffer,225329,confidence_buffer,,null,,,,,,,,,,,,,,,,,
3768.5,,unique_rating,229098,Dubuque,,53,,5,,,,,,,,,,,,,,,
null,,confidence_buffer,229200,confidence_buffer,,null,,,,,,,,,,,,,,,,,
2591.1000000089407,,memorable_rating,231792,Dubuque,,50,,2,,,,,,,,,,,,,,,
null,,confidence_buffer,231894,confidence_buffer,,null,,,,,,,,,,,,,,,,,
null,,thebreak,232396,break,,null,,,,,,,,,,,,,,,,,
3213.7999999970198,,familiar_rating,235611,Champaign,,53,Champaign,5,,,,,,,,,,,,,,,
null,,confidence_buffer,235712,confidence_buffer,,null,,,,,,,,,,,,,,,,,
3835.3999999910593,,unique_rating,239548,Champaign,,50,,2,,,,,,,,,,,,,,,
null,,confidence_buffer,239650,confidence_buffer,,null,,,,,,,,,,,,,,,,,
2582.1000000089407,,memorable_rating,242233,Champaign,,53,,5,,,,,,,,,,,,,,,
null,,confidence_buffer,242336,confidence_buffer,,null,,,,,,,,,,,,,,,,,
null,,thebreak,242838,break,,null,,,,,,,,,,,,,,,,,
1903.2000000029802,,familiar_rating,244742,Santa Monica,,53,Santa Monica,5,,,,,,,,,,,,,,,
null,,confidence_buffer,244845,confidence_buffer,,null,,,,,,,,,,,,,,,,,
2175,,unique_rating,247020,Santa Monica,,50,,2,,,,,,,,,,,,,,,
null,,confidence_buffer,247122,confidence_buffer,,null,,,,,,,,,,,,,,,,,
2273.2999999970198,,memorable_rating,249396,Santa Monica,,53,,5,,,,,,,,,,,,,,,
null,,confidence_buffer,249498,confidence_buffer,,null,,,,,,,,,,,,,,,,,
null,,thebreak,250001,break,,null,,,,,,,,,,,,,,,,,
1505.2000000029802,,familiar_rating,251507,Helena,,53,Helena,5,,,,,,,,,,,,,,,
null,,confidence_buffer,251609,confidence_buffer,,null,,,,,,,,,,,,,,,,,
2967.7999999970198,,unique_rating,254577,Helena,,50,,2,,,,,,,,,,,,,,,
null,,confidence_buffer,254680,confidence_buffer,,null,,,,,,,,,,,,,,,,,
4341.899999991059,,memorable_rating,259022,Helena,,53,,5,,,,,,,,,,,,,,,
null,,confidence_buffer,259124,confidence_buffer,,null,,,,,,,,,,,,,,,,,
null,,thebreak,259626,break,,null,,,,,,,,,,,,,,,,,
1495.7999999970198,,familiar_rating,261123,Ann Arbor,,53,Ann Arbor,5,,,,,,,,,,,,,,,
null,,confidence_buffer,261226,confidence_buffer,,null,,,,,,,,,,,,,,,,,
2391.5,,unique_rating,263618,Ann Arbor,,50,,2,,,,,,,,,,,,,,,
null,,confidence_buffer,263721,confidence_buffer,,null,,,,,,,,,,,,,,,,,
2393.9000000059605,,memorable_rating,266115,Ann Arbor,,52,,4,,,,,,,,,,,,,,,
null,,confidence_buffer,266217,confidence_buffer,,null,,,,,,,,,,,,,,,,,
null,,thebreak,266719,break,,null,,,,,,,,,,,,,,,,,
1363.5,,familiar_rating,268083,Fort Wayne,,53,Fort Wayne,5,,,,,,,,,,,,,,,
null,,confidence_buffer,268185,confidence_buffer,,null,,,,,,,,,,,,,,,,,
3079.7999999970198,,unique_rating,271265,Fort Wayne,,50,,2,,,,,,,,,,,,,,,
null,,confidence_buffer,271366,confidence_buffer,,null,,,,,,,,,,,,,,,,,
2196.9000000059605,,memorable_rating,273564,Fort Wayne,,52,,4,,,,,,,,,,,,,,,
null,,confidence_buffer,273666,confidence_buffer,,null,,,,,,,,,,,,,,,,,
null,,thebreak,274169,break,,null,,,,,,,,,,,,,,,,,
1900.2000000029802,,familiar_rating,276070,Salem,,53,Salem,5,,,,,,,,,,,,,,,
null,,confidence_buffer,276173,confidence_buffer,,null,,,,,,,,,,,,,,,,,
2897,,unique_rating,279071,Salem,,50,,2,,,,,,,,,,,,,,,
null,,confidence_buffer,279173,confidence_buffer,,null,,,,,,,,,,,,,,,,,
1994.8999999910593,,memorable_rating,281169,Salem,,53,,5,,,,,,,,,,,,,,,
null,,confidence_buffer,281271,confidence_buffer,,null,,,,,,,,,,,,,,,,,
null,,thebreak,281773,break,,null,,,,,,,,,,,,,,,,,
1784.6000000089407,,familiar_rating,283559,Tallahassee,,53,Tallahassee,5,,,,,,,,,,,,,,,
null,,confidence_buffer,283661,confidence_buffer,,null,,,,,,,,,,,,,,,,,
2902.4000000059605,,unique_rating,286564,Tallahassee,,51,,3,,,,,,,,,,,,,,,
null,,confidence_buffer,286666,confidence_buffer,,null,,,,,,,,,,,,,,,,,
2808.699999988079,,memorable_rating,289476,Tallahassee,,53,,5,,,,,,,,,,,,,,,
null,,confidence_buffer,289579,confidence_buffer,,null,,,,,,,,,,,,,,,,,
null,,thebreak,290081,break,,null,,,,,,,,,,,,,,,,,
2797.5,,familiar_rating,292880,Newport News,,51,Newport News,3,,,,,,,,,,,,,,,
null,,confidence_buffer,292982,confidence_buffer,,null,,,,,,,,,,,,,,,,,
2579.199999988079,,unique_rating,295562,Newport News,,50,,2,,,,,,,,,,,,,,,
null,,confidence_buffer,295664,confidence_buffer,,null,,,,,,,,,,,,,,,,,
1954.4000000059605,,memorable_rating,297620,Newport News,,51,,3,,,,,,,,,,,,,,,
null,,confidence_buffer,297721,confidence_buffer,,null,,,,,,,,,,,,,,,,,
null,,thebreak,298224,break,,null,,,,,,,,,,,,,,,,,
2663.2999999970198,,familiar_rating,300888,Cheyenne,,53,Cheyenne,5,,,,,,,,,,,,,,,
null,,confidence_buffer,300990,confidence_buffer,,null,,,,,,,,,,,,,,,,,
2028,,unique_rating,303019,Cheyenne,,50,,2,,,,,,,,,,,,,,,
null,,confidence_buffer,303121,confidence_buffer,,null,,,,,,,,,,,,,,,,,
13,,probe_rating,303134,probe_rating,,50,,,2,0,,,,,,,,,,,,,
null,,confidence_buffer,303237,confidence_buffer,,null,,,,,,,,,,,,,,,,,
9622.800000011921,,memorable_rating,312861,Cheyenne,,52,,4,,,,,,,,,,,,,,,
null,,confidence_buffer,312963,confidence_buffer,,null,,,,,,,,,,,,,,,,,
null,,thebreak,313465,break,,null,,,,,,,,,,,,,,,,,
4574,,familiar_rating,318040,Altoona,,49,Altoona,1,,,,,,,,,,,,,,,
null,,confidence_buffer,318142,confidence_buffer,,null,,,,,,,,,,,,,,,,,
2247.5,,unique_rating,320390,Altoona,,51,,3,,,,,,,,,,,,,,,
null,,confidence_buffer,320492,confidence_buffer,,null,,,,,,,,,,,,,,,,,
2393.7999999970198,,memorable_rating,322887,Altoona,,50,,2,,,,,,,,,,,,,,,
null,,confidence_buffer,322989,confidence_buffer,,null,,,,,,,,,,,,,,,,,
null,,thebreak,323492,break,,null,,,,,,,,,,,,,,,,,
2614.2999999970198,,familiar_rating,326107,Olympia,,53,Olympia,5,,,,,,,,,,,,,,,
null,,confidence_buffer,326210,confidence_buffer,,null,,,,,,,,,,,,,,,,,
3848.4000000059605,,unique_rating,330059,Olympia,,50,,2,,,,,,,,,,,,,,,
null,,confidence_buffer,330161,confidence_buffer,,null,,,,,,,,,,,,,,,,,
2122.3999999910593,,memorable_rating,332284,Olympia,,52,,4,,,,,,,,,,,,,,,
null,,confidence_buffer,332387,confidence_buffer,,null,,,,,,,,,,,,,,,,,
null,,thebreak,332888,break,,null,,,,,,,,,,,,,,,,,
8414.09999999404,,intro_0,341303,instruct,,32,,,,,,,,,,,,,,,,,
12825.29999999702,,intro_1,354130,instruct,,32,,,,,,,,,,,,,,,,,
20502.09999999404,,intro_2,374633,instruct,,32,,,,,,,,,,,,,,,,,
null,,instruct_dir_4,376136,instruct,,null,,,,,,,,,,,,,,,,,
7391.29999999702,,realistic_rating,383528,Newport News,,49,Newport News,1,,,,,,,,,,,,,,,
null,,confidence_buffer,383631,confidence_buffer,,null,,,,,,,,,,,,,,,,,
5106.5,,pt2_unique_rating,388739,Newport News,,52,,4,,,,,,,,,,,,,,,
null,,confidence_buffer,388841,confidence_buffer,,null,,,,,,,,,,,,,,,,,
2191.2999999970198,,probe_rating,391033,probe_rating,,52,,,4,1,,,,,,,,,,,,,
null,,confidence_buffer,391135,confidence_buffer,,null,,,,,,,,,,,,,,,,,
4707.29999999702,,pt2_memorable_rating,395843,Newport News,,52,,4,,,,,,,,,,,,,,,
null,,confidence_buffer,395946,confidence_buffer,,null,,,,,,,,,,,,,,,,,
9891.29999999702,,recognition_phase,405839,Newport News,,52,,,,,new,0,0,,,,,,,,,,
null,,confidence_buffer,405941,confidence_buffer,,null,,,,,,,,,,,,,,,,,
null,,thebreak,406443,break,,null,,,,,,,,,,,,,,,,,
5017,,realistic_rating,411461,Olympia,,53,Olympia,5,,,,,,,,,,,,,,,
null,,confidence_buffer,411563,confidence_buffer,,null,,,,,,,,,,,,,,,,,
2325.800000011921,,pt2_unique_rating,413890,Olympia,,50,,2,,,,,,,,,,,,,,,
null,,confidence_buffer,413991,confidence_buffer,,null,,,,,,,,,,,,,,,,,
2484.9000000059605,,pt2_memorable_rating,416477,Olympia,,52,,4,,,,,,,,,,,,,,,
null,,confidence_buffer,416579,confidence_buffer,,null,,,,,,,,,,,,,,,,,
2432.0999999940395,,recognition_phase,419012,Olympia,,49,,,,,old,1,0.5,,,,,,,,,,
null,,confidence_buffer,419113,confidence_buffer,,null,,,,,,,,,,,,,,,,,
null,,thebreak,419616,break,,null,,,,,,,,,,,,,,,,,
4063.7999999970198,,realistic_rating,423681,Cheyenne,,52,Cheyenne,4,,,,,,,,,,,,,,,
null,,confidence_buffer,423783,confidence_buffer,,null,,,,,,,,,,,,,,,,,
5229.199999988079,,pt2_unique_rating,429013,Cheyenne,,51,,3,,,,,,,,,,,,,,,
null,,confidence_buffer,429115,confidence_buffer,,null,,,,,,,,,,,,,,,,,
1779,,pt2_memorable_rating,430895,Cheyenne,,52,,4,,,,,,,,,,,,,,,
null,,confidence_buffer,430997,confidence_buffer,,null,,,,,,,,,,,,,,,,,
2962.0999999940395,,recognition_phase,433960,Cheyenne,,49,,,,,old,1,0.6666666666666666,,,,,,,,,,
null,,confidence_buffer,434062,confidence_buffer,,null,,,,,,,,,,,,,,,,,
null,,thebreak,434564,break,,null,,,,,,,,,,,,,,,,,
5026.100000008941,,realistic_rating,439591,Montpelier,,51,Montpelier,3,,,,,,,,,,,,,,,
null,,confidence_buffer,439693,confidence_buffer,,null,,,,,,,,,,,,,,,,,
3996.7999999970198,,pt2_unique_rating,443690,Montpelier,,51,,3,,,,,,,,,,,,,,,
null,,confidence_buffer,443792,confidence_buffer,,null,,,,,,,,,,,,,,,,,
1927.2999999970198,,pt2_memorable_rating,445721,Montpelier,,51,,3,,,,,,,,,,,,,,,
null,,confidence_buffer,445823,confidence_buffer,,null,,,,,,,,,,,,,,,,,
3149.2999999970198,,recognition_phase,448973,Montpelier,,52,,,,,new,1,0.75,,,,,,,,,,
null,,confidence_buffer,449075,confidence_buffer,,null,,,,,,,,,,,,,,,,,
null,,thebreak,449577,break,,null,,,,,,,,,,,,,,,,,
4338,,realistic_rating,453916,New Haven,,53,New Haven,5,,,,,,,,,,,,,,,
null,,confidence_buffer,454018,confidence_buffer,,null,,,,,,,,,,,,,,,,,
3161.1000000089407,,pt2_unique_rating,457180,New Haven,,50,,2,,,,,,,,,,,,,,,
null,,confidence_buffer,457282,confidence_buffer,,null,,,,,,,,,,,,,,,,,
1592.6000000089407,,pt2_memorable_rating,458875,New Haven,,52,,4,,,,,,,,,,,,,,,
null,,confidence_buffer,458977,confidence_buffer,,null,,,,,,,,,,,,,,,,,
2358.5,,probe_rating,461337,probe_rating,,49,,,1,1,,,,,,,,,,,,,
null,,confidence_buffer,461439,confidence_buffer,,null,,,,,,,,,,,,,,,,,
6747.79999999702,,recognition_phase,468188,New Haven,,52,,,,,new,1,0.8,,,,,,,,,,
null,,confidence_buffer,468289,confidence_buffer,,null,,,,,,,,,,,,,,,,,
null,,thebreak,468791,break,,null,,,,,,,,,,,,,,,,,
4091.0999999940395,,realistic_rating,472883,Ann Arbor,,53,Ann Arbor,5,,,,,,,,,,,,,,,
null,,confidence_buffer,472985,confidence_buffer,,null,,,,,,,,,,,,,,,,,
4497.79999999702,,pt2_unique_rating,477484,Ann Arbor,,51,,3,,,,,,,,,,,,,,,
null,,confidence_buffer,477586,confidence_buffer,,null,,,,,,,,,,,,,,,,,
1604,,pt2_memorable_rating,479191,Ann Arbor,,51,,3,,,,,,,,,,,,,,,
null,,confidence_buffer,479293,confidence_buffer,,null,,,,,,,,,,,,,,,,,
2014.2000000029802,,recognition_phase,481308,Ann Arbor,,49,,,,,old,1,0.8333333333333334,,,,,,,,,,
null,,confidence_buffer,481410,confidence_buffer,,null,,,,,,,,,,,,,,,,,
null,,thebreak,481912,break,,null,,,,,,,,,,,,,,,,,
2456.9000000059605,,realistic_rating,484370,Fargo,,53,Fargo,5,,,,,,,,,,,,,,,
null,,confidence_buffer,484473,confidence_buffer,,null,,,,,,,,,,,,,,,,,
2534.1000000089407,,pt2_unique_rating,487008,Fargo,,51,,3,,,,,,,,,,,,,,,
null,,confidence_buffer,487109,confidence_buffer,,null,,,,,,,,,,,,,,,,,
1837.3999999910593,,pt2_memorable_rating,488948,Fargo,,52,,4,,,,,,,,,,,,,,,
null,,confidence_buffer,489050,confidence_buffer,,null,,,,,,,,,,,,,,,,,
2000.800000011921,,recognition_phase,491052,Fargo,,49,,,,,old,1,0.8571428571428571,,,,,,,,,,
null,,confidence_buffer,491154,confidence_buffer,,null,,,,,,,,,,,,,,,,,
null,,thebreak,491657,break,,null,,,,,,,,,,,,,,,,,
4802.20000000298,,realistic_rating,496460,Bellingham,,53,Bellingham,5,,,,,,,,,,,,,,,
null,,confidence_buffer,496561,confidence_buffer,,null,,,,,,,,,,,,,,,,,
3380.0999999940395,,pt2_unique_rating,499942,Bellingham,,51,,3,,,,,,,,,,,,,,,
null,,confidence_buffer,500043,confidence_buffer,,null,,,,,,,,,,,,,,,,,
2017.9000000059605,,pt2_memorable_rating,502062,Bellingham,,52,,4,,,,,,,,,,,,,,,
null,,confidence_buffer,502164,confidence_buffer,,null,,,,,,,,,,,,,,,,,
4760,,recognition_phase,506925,Bellingham,,52,,,,,new,1,0.875,,,,,,,,,,
null,,confidence_buffer,507027,confidence_buffer,,null,,,,,,,,,,,,,,,,,
null,,thebreak,507529,break,,null,,,,,,,,,,,,,,,,,
3494.7999999970198,,realistic_rating,511025,Frankfort,,52,Frankfort,4,,,,,,,,,,,,,,,
null,,confidence_buffer,511127,confidence_buffer,,null,,,,,,,,,,,,,,,,,
2368.4000000059605,,pt2_unique_rating,513496,Frankfort,,50,,2,,,,,,,,,,,,,,,
null,,confidence_buffer,513598,confidence_buffer,,null,,,,,,,,,,,,,,,,,
1609.9000000059605,,pt2_memorable_rating,515209,Frankfort,,51,,3,,,,,,,,,,,,,,,
null,,confidence_buffer,515311,confidence_buffer,,null,,,,,,,,,,,,,,,,,
2346,,recognition_phase,517658,Frankfort,,52,,,,,new,1,0.8888888888888888,,,,,,,,,,
null,,confidence_buffer,517758,confidence_buffer,,null,,,,,,,,,,,,,,,,,
null,,thebreak,518261,break,,null,,,,,,,,,,,,,,,,,
3463.800000011921,,realistic_rating,521726,Toledo,,53,Toledo,5,,,,,,,,,,,,,,,
null,,confidence_buffer,521828,confidence_buffer,,null,,,,,,,,,,,,,,,,,
1810.2000000029802,,probe_rating,523639,probe_rating,,49,,,1,1,,,,,,,,,,,,,
null,,confidence_buffer,523741,confidence_buffer,,null,,,,,,,,,,,,,,,,,
6046,,pt2_unique_rating,529788,Toledo,,53,,5,,,,,,,,,,,,,,,
null,,confidence_buffer,529891,confidence_buffer,,null,,,,,,,,,,,,,,,,,
2147.6000000089407,,pt2_memorable_rating,532040,Toledo,,53,,5,,,,,,,,,,,,,,,
null,,confidence_buffer,532142,confidence_buffer,,null,,,,,,,,,,,,,,,,,
4161.5,,recognition_phase,536304,Toledo,,52,,,,,new,1,0.9,,,,,,,,,,
null,,confidence_buffer,536406,confidence_buffer,,null,,,,,,,,,,,,,,,,,
null,,thebreak,536908,break,,null,,,,,,,,,,,,,,,,,
5000.4000000059605,,realistic_rating,541910,Hagerstown,,50,Hagerstown,2,,,,,,,,,,,,,,,
null,,confidence_buffer,542011,confidence_buffer,,null,,,,,,,,,,,,,,,,,
5106.0999999940395,,pt2_unique_rating,547118,Hagerstown,,51,,3,,,,,,,,,,,,,,,
null,,confidence_buffer,547220,confidence_buffer,,null,,,,,,,,,,,,,,,,,
1929.5,,pt2_memorable_rating,549150,Hagerstown,,50,,2,,,,,,,,,,,,,,,
null,,confidence_buffer,549252,confidence_buffer,,null,,,,,,,,,,,,,,,,,
2653.0999999940395,,recognition_phase,551906,Hagerstown,,52,,,,,new,1,0.9090909090909091,,,,,,,,,,
null,,confidence_buffer,552008,confidence_buffer,,null,,,,,,,,,,,,,,,,,
null,,thebreak,552510,break,,null,,,,,,,,,,,,,,,,,
1999.2000000029802,,realistic_rating,554510,Las Cruces,,53,Las Cruces,5,,,,,,,,,,,,,,,
null,,confidence_buffer,554611,confidence_buffer,,null,,,,,,,,,,,,,,,,,
5711.5999999940395,,probe_rating,560324,probe_rating,,49,,,1,1,,,,,,,,,,,,,
null,,confidence_buffer,560427,confidence_buffer,,null,,,,,,,,,,,,,,,,,
3357.6000000089407,,pt2_unique_rating,563785,Las Cruces,,50,,2,,,,,,,,,,,,,,,
null,,confidence_buffer,563887,confidence_buffer,,null,,,,,,,,,,,,,,,,,
3113.2999999970198,,pt2_memorable_rating,567001,Las Cruces,,53,,5,,,,,,,,,,,,,,,
null,,confidence_buffer,567104,confidence_buffer,,null,,,,,,,,,,,,,,,,,
1831.0999999940395,,recognition_phase,568936,Las Cruces,,49,,,,,old,1,0.9166666666666666,,,,,,,,,,
null,,confidence_buffer,569037,confidence_buffer,,null,,,,,,,,,,,,,,,,,
null,,thebreak,569538,break,,null,,,,,,,,,,,,,,,,,
4076,,realistic_rating,573615,Berkeley,,53,Berkeley,5,,,,,,,,,,,,,,,
null,,confidence_buffer,573717,confidence_buffer,,null,,,,,,,,,,,,,,,,,
1878,,pt2_unique_rating,575595,Berkeley,,50,,2,,,,,,,,,,,,,,,
null,,confidence_buffer,575698,confidence_buffer,,null,,,,,,,,,,,,,,,,,
2261.8999999910593,,pt2_memorable_rating,577960,Berkeley,,52,,4,,,,,,,,,,,,,,,
null,,confidence_buffer,578062,confidence_buffer,,null,,,,,,,,,,,,,,,,,
3344.2000000029802,,recognition_phase,581408,Berkeley,,52,,,,,new,1,0.9230769230769231,,,,,,,,,,
null,,confidence_buffer,581509,confidence_buffer,,null,,,,,,,,,,,,,,,,,
null,,thebreak,582011,break,,null,,,,,,,,,,,,,,,,,
4501.9000000059605,,realistic_rating,586514,Concord,,53,Concord,5,,,,,,,,,,,,,,,
null,,confidence_buffer,586616,confidence_buffer,,null,,,,,,,,,,,,,,,,,
2159.2999999970198,,pt2_unique_rating,588776,Concord,,51,,3,,,,,,,,,,,,,,,
null,,confidence_buffer,588878,confidence_buffer,,null,,,,,,,,,,,,,,,,,
2154.5,,pt2_memorable_rating,591033,Concord,,52,,4,,,,,,,,,,,,,,,
null,,confidence_buffer,591135,confidence_buffer,,null,,,,,,,,,,,,,,,,,
2809.5,,recognition_phase,593946,Concord,,52,,,,,new,1,0.9285714285714286,,,,,,,,,,
null,,confidence_buffer,594047,confidence_buffer,,null,,,,,,,,,,,,,,,,,
null,,thebreak,594549,break,,null,,,,,,,,,,,,,,,,,
4089.4000000059605,,realistic_rating,598639,Ithaca,,53,Ithaca,5,,,,,,,,,,,,,,,
null,,confidence_buffer,598741,confidence_buffer,,null,,,,,,,,,,,,,,,,,
2377.7000000029802,,pt2_unique_rating,601119,Ithaca,,50,,2,,,,,,,,,,,,,,,
null,,confidence_buffer,601221,confidence_buffer,,null,,,,,,,,,,,,,,,,,
4717.800000011921,,pt2_memorable_rating,605940,Ithaca,,52,,4,,,,,,,,,,,,,,,
null,,confidence_buffer,606041,confidence_buffer,,null,,,,,,,,,,,,,,,,,
2907.5999999940395,,recognition_phase,608950,Ithaca,,52,,,,,new,0,0.8666666666666667,,,,,,,,,,
null,,confidence_buffer,609052,confidence_buffer,,null,,,,,,,,,,,,,,,,,
null,,thebreak,609554,break,,null,,,,,,,,,,,,,,,,,
4216.9000000059605,,realistic_rating,613772,McKinney,,52,McKinney,4,,,,,,,,,,,,,,,
null,,confidence_buffer,613874,confidence_buffer,,null,,,,,,,,,,,,,,,,,
1686,,pt2_unique_rating,615561,McKinney,,51,,3,,,,,,,,,,,,,,,
null,,confidence_buffer,615663,confidence_buffer,,null,,,,,,,,,,,,,,,,,
1808.8999999910593,,pt2_memorable_rating,617473,McKinney,,52,,4,,,,,,,,,,,,,,,
null,,confidence_buffer,617574,confidence_buffer,,null,,,,,,,,,,,,,,,,,
4090,,recognition_phase,621666,McKinney,,51,,,,,new,0,0.8125,,,,,,,,,,
null,,confidence_buffer,621768,confidence_buffer,,null,,,,,,,,,,,,,,,,,
null,,thebreak,622271,break,,null,,,,,,,,,,,,,,,,,
3244.800000011921,,realistic_rating,625516,Palo Alto,,53,Palo Alto,5,,,,,,,,,,,,,,,
null,,confidence_buffer,625618,confidence_buffer,,null,,,,,,,,,,,,,,,,,
2541.7000000029802,,pt2_unique_rating,628161,Palo Alto,,51,,3,,,,,,,,,,,,,,,
null,,confidence_buffer,628263,confidence_buffer,,null,,,,,,,,,,,,,,,,,
1646.8999999910593,,pt2_memorable_rating,629910,Palo Alto,,51,,3,,,,,,,,,,,,,,,
null,,confidence_buffer,630012,confidence_buffer,,null,,,,,,,,,,,,,,,,,
4637.0999999940395,,recognition_phase,634650,Palo Alto,,52,,,,,new,1,0.8235294117647058,,,,,,,,,,
null,,confidence_buffer,634752,confidence_buffer,,null,,,,,,,,,,,,,,,,,
null,,thebreak,635254,break,,null,,,,,,,,,,,,,,,,,
4213.29999999702,,realistic_rating,639469,Fort Collins,,53,Fort Collins,5,,,,,,,,,,,,,,,
null,,confidence_buffer,639570,confidence_buffer,,null,,,,,,,,,,,,,,,,,
2525.3999999910593,,pt2_unique_rating,642097,Fort Collins,,53,,5,,,,,,,,,,,,,,,
null,,confidence_buffer,642199,confidence_buffer,,null,,,,,,,,,,,,,,,,,
1679.5,,pt2_memorable_rating,643879,Fort Collins,,52,,4,,,,,,,,,,,,,,,
null,,confidence_buffer,643981,confidence_buffer,,null,,,,,,,,,,,,,,,,,
5224.4000000059605,,recognition_phase,649206,Fort Collins,,52,,,,,new,1,0.8333333333333334,,,,,,,,,,
null,,confidence_buffer,649308,confidence_buffer,,null,,,,,,,,,,,,,,,,,
null,,thebreak,649810,break,,null,,,,,,,,,,,,,,,,,
2234.7999999970198,,realistic_rating,652046,Burlington,,53,Burlington,5,,,,,,,,,,,,,,,
null,,confidence_buffer,652147,confidence_buffer,,null,,,,,,,,,,,,,,,,,
1747.6000000089407,,pt2_unique_rating,653895,Burlington,,51,,3,,,,,,,,,,,,,,,
null,,confidence_buffer,653997,confidence_buffer,,null,,,,,,,,,,,,,,,,,
2669.0999999940395,,pt2_memorable_rating,656667,Burlington,,52,,4,,,,,,,,,,,,,,,
null,,confidence_buffer,656770,confidence_buffer,,null,,,,,,,,,,,,,,,,,
2604.2999999970198,,recognition_phase,659375,Burlington,,52,,,,,new,1,0.8421052631578947,,,,,,,,,,
null,,confidence_buffer,659478,confidence_buffer,,null,,,,,,,,,,,,,,,,,
null,,thebreak,659981,break,,null,,,,,,,,,,,,,,,,,
2275.7999999970198,,realistic_rating,662257,Cambridge,,53,Cambridge,5,,,,,,,,,,,,,,,
null,,confidence_buffer,662359,confidence_buffer,,null,,,,,,,,,,,,,,,,,
3030,,pt2_unique_rating,665390,Cambridge,,50,,2,,,,,,,,,,,,,,,
null,,confidence_buffer,665493,confidence_buffer,,null,,,,,,,,,,,,,,,,,
3096.4000000059605,,pt2_memorable_rating,668590,Cambridge,,51,,3,,,,,,,,,,,,,,,
null,,confidence_buffer,668692,confidence_buffer,,null,,,,,,,,,,,,,,,,,
3606,,recognition_phase,672299,Cambridge,,51,,,,,new,0,0.8,,,,,,,,,,
null,,confidence_buffer,672402,confidence_buffer,,null,,,,,,,,,,,,,,,,,
null,,thebreak,672903,break,,null,,,,,,,,,,,,,,,,,
2589.3999999910593,,realistic_rating,675494,Athens,,53,Athens,5,,,,,,,,,,,,,,,
null,,confidence_buffer,675597,confidence_buffer,,null,,,,,,,,,,,,,,,,,
3374.7999999970198,,pt2_unique_rating,678972,Athens,,50,,2,,,,,,,,,,,,,,,
null,,confidence_buffer,679074,confidence_buffer,,null,,,,,,,,,,,,,,,,,
1939.2000000029802,,probe_rating,681014,probe_rating,,50,,,2,1,,,,,,,,,,,,,
null,,confidence_buffer,681117,confidence_buffer,,null,,,,,,,,,,,,,,,,,
2560.1000000089407,,pt2_memorable_rating,683678,Athens,,52,,4,,,,,,,,,,,,,,,
null,,confidence_buffer,683779,confidence_buffer,,null,,,,,,,,,,,,,,,,,
3537.1000000089407,,recognition_phase,687318,Athens,,52,,,,,new,1,0.8095238095238095,,,,,,,,,,
null,,confidence_buffer,687420,confidence_buffer,,null,,,,,,,,,,,,,,,,,
null,,thebreak,687922,break,,null,,,,,,,,,,,,,,,,,
6048.29999999702,,realistic_rating,693971,Marquette,,52,Marquette,4,,,,,,,,,,,,,,,
null,,confidence_buffer,694073,confidence_buffer,,null,,,,,,,,,,,,,,,,,
2912.2999999970198,,pt2_unique_rating,696986,Marquette,,51,,3,,,,,,,,,,,,,,,
null,,confidence_buffer,697089,confidence_buffer,,null,,,,,,,,,,,,,,,,,
4158.5999999940395,,pt2_memorable_rating,701249,Marquette,,50,,2,,,,,,,,,,,,,,,
null,,confidence_buffer,701351,confidence_buffer,,null,,,,,,,,,,,,,,,,,
2010.7999999970198,,recognition_phase,703363,Marquette,,52,,,,,new,1,0.8181818181818182,,,,,,,,,,
null,,confidence_buffer,703464,confidence_buffer,,null,,,,,,,,,,,,,,,,,
null,,thebreak,703966,break,,null,,,,,,,,,,,,,,,,,
8068.79999999702,,realistic_rating,712036,Tallahassee,,53,Tallahassee,5,,,,,,,,,,,,,,,
null,,confidence_buffer,712139,confidence_buffer,,null,,,,,,,,,,,,,,,,,
3731.7999999970198,,pt2_unique_rating,715871,Tallahassee,,51,,3,,,,,,,,,,,,,,,
null,,confidence_buffer,715973,confidence_buffer,,null,,,,,,,,,,,,,,,,,
1598.1000000089407,,pt2_memorable_rating,717572,Tallahassee,,52,,4,,,,,,,,,,,,,,,
null,,confidence_buffer,717674,confidence_buffer,,null,,,,,,,,,,,,,,,,,
2197,,recognition_phase,719872,Tallahassee,,49,,,,,old,1,0.8260869565217391,,,,,,,,,,
null,,confidence_buffer,719975,confidence_buffer,,null,,,,,,,,,,,,,,,,,
null,,thebreak,720477,break,,null,,,,,,,,,,,,,,,,,
6634.0999999940395,,realistic_rating,727112,Bozeman,,50,Bozeman,2,,,,,,,,,,,,,,,
null,,confidence_buffer,727213,confidence_buffer,,null,,,,,,,,,,,,,,,,,
3797.5,,pt2_unique_rating,731011,Bozeman,,52,,4,,,,,,,,,,,,,,,
null,,confidence_buffer,731114,confidence_buffer,,null,,,,,,,,,,,,,,,,,
2376.1000000089407,,pt2_memorable_rating,733491,Bozeman,,50,,2,,,,,,,,,,,,,,,
null,,confidence_buffer,733593,confidence_buffer,,null,,,,,,,,,,,,,,,,,
2342.4000000059605,,recognition_phase,735936,Bozeman,,52,,,,,new,1,0.8333333333333334,,,,,,,,,,
null,,confidence_buffer,736038,confidence_buffer,,null,,,,,,,,,,,,,,,,,
null,,thebreak,736541,break,,null,,,,,,,,,,,,,,,,,
2281.699999988079,,realistic_rating,738823,Norfolk,,52,Norfolk,4,,,,,,,,,,,,,,,
null,,confidence_buffer,738925,confidence_buffer,,null,,,,,,,,,,,,,,,,,
1616.0999999940395,,pt2_unique_rating,740542,Norfolk,,51,,3,,,,,,,,,,,,,,,
null,,confidence_buffer,740643,confidence_buffer,,null,,,,,,,,,,,,,,,,,
4100,,pt2_memorable_rating,744744,Norfolk,,50,,2,,,,,,,,,,,,,,,
null,,confidence_buffer,744846,confidence_buffer,,null,,,,,,,,,,,,,,,,,
2413.2000000029802,,recognition_phase,747260,Norfolk,,50,,,,,old,0,0.8,,,,,,,,,,
null,,confidence_buffer,747363,confidence_buffer,,null,,,,,,,,,,,,,,,,,
null,,thebreak,747864,break,,null,,,,,,,,,,,,,,,,,
4238.79999999702,,realistic_rating,752104,Stamford,,53,Stamford,5,,,,,,,,,,,,,,,
null,,confidence_buffer,752207,confidence_buffer,,null,,,,,,,,,,,,,,,,,
1613,,pt2_unique_rating,753821,Stamford,,51,,3,,,,,,,,,,,,,,,
null,,confidence_buffer,753923,confidence_buffer,,null,,,,,,,,,,,,,,,,,
1910,,probe_rating,755834,probe_rating,,51,,,3,1,,,,,,,,,,,,,
null,,confidence_buffer,755936,confidence_buffer,,null,,,,,,,,,,,,,,,,,
3593.2999999970198,,pt2_memorable_rating,759530,Stamford,,50,,2,,,,,,,,,,,,,,,
null,,confidence_buffer,759632,confidence_buffer,,null,,,,,,,,,,,,,,,,,
3124.6000000089407,,recognition_phase,762758,Stamford,,49,,,,,old,0,0.7692307692307693,,,,,,,,,,
null,,confidence_buffer,762859,confidence_buffer,,null,,,,,,,,,,,,,,,,,
null,,thebreak,763361,break,,null,,,,,,,,,,,,,,,,,
3881.5999999940395,,realistic_rating,767243,Helena,,52,Helena,4,,,,,,,,,,,,,,,
null,,confidence_buffer,767345,confidence_buffer,,null,,,,,,,,,,,,,,,,,
2643.800000011921,,pt2_unique_rating,769990,Helena,,51,,3,,,,,,,,,,,,,,,
null,,confidence_buffer,770093,confidence_buffer,,null,,,,,,,,,,,,,,,,,
2127.2999999970198,,pt2_memorable_rating,772221,Helena,,51,,3,,,,,,,,,,,,,,,
null,,confidence_buffer,772324,confidence_buffer,,null,,,,,,,,,,,,,,,,,
1705.4000000059605,,recognition_phase,774030,Helena,,50,,,,,old,1,0.7777777777777778,,,,,,,,,,
null,,confidence_buffer,774133,confidence_buffer,,null,,,,,,,,,,,,,,,,,
null,,thebreak,774635,break,,null,,,,,,,,,,,,,,,,,
7402.79999999702,,realistic_rating,782039,Youngstown,,53,Youngstown,5,,,,,,,,,,,,,,,
null,,confidence_buffer,782142,confidence_buffer,,null,,,,,,,,,,,,,,,,,
3705.7000000029802,,pt2_unique_rating,785848,Youngstown,,50,,2,,,,,,,,,,,,,,,
null,,confidence_buffer,785950,confidence_buffer,,null,,,,,,,,,,,,,,,,,
3280.7999999970198,,pt2_memorable_rating,789232,Youngstown,,52,,4,,,,,,,,,,,,,,,
null,,confidence_buffer,789334,confidence_buffer,,null,,,,,,,,,,,,,,,,,
4341.5,,recognition_phase,793676,Youngstown,,49,,,,,old,1,0.7857142857142857,,,,,,,,,,
null,,confidence_buffer,793778,confidence_buffer,,null,,,,,,,,,,,,,,,,,
null,,thebreak,794279,break,,null,,,,,,,,,,,,,,,,,
4697.600000008941,,realistic_rating,798978,Pueblo,,53,Pueblo,5,,,,,,,,,,,,,,,
null,,confidence_buffer,799079,confidence_buffer,,null,,,,,,,,,,,,,,,,,
4382,,pt2_unique_rating,803462,Pueblo,,51,,3,,,,,,,,,,,,,,,
null,,confidence_buffer,803564,confidence_buffer,,null,,,,,,,,,,,,,,,,,
1788.7000000029802,,pt2_memorable_rating,805353,Pueblo,,51,,3,,,,,,,,,,,,,,,
null,,confidence_buffer,805455,confidence_buffer,,null,,,,,,,,,,,,,,,,,
2507.5999999940395,,recognition_phase,807963,Pueblo,,52,,,,,new,1,0.7931034482758621,,,,,,,,,,
null,,confidence_buffer,808065,confidence_buffer,,null,,,,,,,,,,,,,,,,,
null,,thebreak,808567,break,,null,,,,,,,,,,,,,,,,,
2108.5999999940395,,realistic_rating,810676,Salem,,53,Salem,5,,,,,,,,,,,,,,,
null,,confidence_buffer,810779,confidence_buffer,,null,,,,,,,,,,,,,,,,,
3163.7999999970198,,pt2_unique_rating,813943,Salem,,52,,4,,,,,,,,,,,,,,,
null,,confidence_buffer,814045,confidence_buffer,,null,,,,,,,,,,,,,,,,,
2109,,pt2_memorable_rating,816155,Salem,,53,,5,,,,,,,,,,,,,,,
null,,confidence_buffer,816257,confidence_buffer,,null,,,,,,,,,,,,,,,,,
1889.4000000059605,,probe_rating,818148,probe_rating,,53,,,5,1,,,,,,,,,,,,,
null,,confidence_buffer,818249,confidence_buffer,,null,,,,,,,,,,,,,,,,,
1966,,recognition_phase,820217,Salem,,49,,,,,old,1,0.8,,,,,,,,,,
null,,confidence_buffer,820319,confidence_buffer,,null,,,,,,,,,,,,,,,,,
null,,thebreak,820821,break,,null,,,,,,,,,,,,,,,,,
3561,,realistic_rating,824383,Terre Haute,,50,Terre Haute,2,,,,,,,,,,,,,,,
null,,confidence_buffer,824485,confidence_buffer,,null,,,,,,,,,,,,,,,,,
2913.5,,probe_rating,827399,probe_rating,,49,,,1,1,,,,,,,,,,,,,
null,,confidence_buffer,827501,confidence_buffer,,null,,,,,,,,,,,,,,,,,
6985.600000008941,,pt2_unique_rating,834487,Terre Haute,,52,,4,,,,,,,,,,,,,,,
null,,confidence_buffer,834589,confidence_buffer,,null,,,,,,,,,,,,,,,,,
2723.8999999910593,,pt2_memorable_rating,837314,Terre Haute,,50,,2,,,,,,,,,,,,,,,
null,,confidence_buffer,837416,confidence_buffer,,null,,,,,,,,,,,,,,,,,
2072.8999999910593,,recognition_phase,839490,Terre Haute,,52,,,,,new,0,0.7741935483870968,,,,,,,,,,
null,,confidence_buffer,839592,confidence_buffer,,null,,,,,,,,,,,,,,,,,
null,,thebreak,840094,break,,null,,,,,,,,,,,,,,,,,
3908.7000000029802,,realistic_rating,844003,Muncie,,52,Muncie,4,,,,,,,,,,,,,,,
null,,confidence_buffer,844106,confidence_buffer,,null,,,,,,,,,,,,,,,,,
1752.5,,pt2_unique_rating,845859,Muncie,,52,,4,,,,,,,,,,,,,,,
null,,confidence_buffer,845961,confidence_buffer,,null,,,,,,,,,,,,,,,,,
1769.2000000029802,,pt2_memorable_rating,847731,Muncie,,52,,4,,,,,,,,,,,,,,,
null,,confidence_buffer,847833,confidence_buffer,,null,,,,,,,,,,,,,,,,,
1790.7999999970198,,recognition_phase,849625,Muncie,,52,,,,,new,1,0.78125,,,,,,,,,,
null,,confidence_buffer,849728,confidence_buffer,,null,,,,,,,,,,,,,,,,,
null,,thebreak,850230,break,,null,,,,,,,,,,,,,,,,,
2780.4000000059605,,realistic_rating,853011,Gainesville,,53,Gainesville,5,,,,,,,,,,,,,,,
null,,confidence_buffer,853113,confidence_buffer,,null,,,,,,,,,,,,,,,,,
4146,,pt2_unique_rating,857259,Gainesville,,51,,3,,,,,,,,,,,,,,,
null,,confidence_buffer,857361,confidence_buffer,,null,,,,,,,,,,,,,,,,,
2213.300000011921,,pt2_memorable_rating,859575,Gainesville,,52,,4,,,,,,,,,,,,,,,
null,,confidence_buffer,859678,confidence_buffer,,null,,,,,,,,,,,,,,,,,
2444.7000000029802,,recognition_phase,862123,Gainesville,,52,,,,,new,1,0.7878787878787878,,,,,,,,,,
null,,confidence_buffer,862226,confidence_buffer,,null,,,,,,,,,,,,,,,,,
null,,thebreak,862727,break,,null,,,,,,,,,,,,,,,,,
2850.3999999910593,,realistic_rating,865579,Topeka,,53,Topeka,5,,,,,,,,,,,,,,,
null,,confidence_buffer,865681,confidence_buffer,,null,,,,,,,,,,,,,,,,,
2006.699999988079,,probe_rating,867688,probe_rating,,52,,,4,1,,,,,,,,,,,,,
null,,confidence_buffer,867791,confidence_buffer,,null,,,,,,,,,,,,,,,,,
3233.2000000029802,,pt2_unique_rating,871025,Topeka,,52,,4,,,,,,,,,,,,,,,
null,,confidence_buffer,871127,confidence_buffer,,null,,,,,,,,,,,,,,,,,
1984.5999999940395,,pt2_memorable_rating,873113,Topeka,,52,,4,,,,,,,,,,,,,,,
null,,confidence_buffer,873215,confidence_buffer,,null,,,,,,,,,,,,,,,,,
2495.5,,recognition_phase,875712,Topeka,,52,,,,,new,1,0.7941176470588235,,,,,,,,,,
null,,confidence_buffer,875814,confidence_buffer,,null,,,,,,,,,,,,,,,,,
null,,thebreak,876317,break,,null,,,,,,,,,,,,,,,,,
2409.8999999910593,,realistic_rating,878728,Scottsdale,,53,Scottsdale,5,,,,,,,,,,,,,,,
null,,confidence_buffer,878829,confidence_buffer,,null,,,,,,,,,,,,,,,,,
4785.20000000298,,pt2_unique_rating,883615,Scottsdale,,50,,2,,,,,,,,,,,,,,,
null,,confidence_buffer,883716,confidence_buffer,,null,,,,,,,,,,,,,,,,,
1766,,pt2_memorable_rating,885483,Scottsdale,,51,,3,,,,,,,,,,,,,,,
null,,confidence_buffer,885586,confidence_buffer,,null,,,,,,,,,,,,,,,,,
5904.29999999702,,recognition_phase,891491,Scottsdale,,51,,,,,new,0,0.7714285714285715,,,,,,,,,,
null,,confidence_buffer,891593,confidence_buffer,,null,,,,,,,,,,,,,,,,,
null,,thebreak,892094,break,,null,,,,,,,,,,,,,,,,,
4382.29999999702,,realistic_rating,896477,Abilene,,51,Abilene,3,,,,,,,,,,,,,,,
null,,confidence_buffer,896579,confidence_buffer,,null,,,,,,,,,,,,,,,,,
4582.0999999940395,,pt2_unique_rating,901162,Abilene,,51,,3,,,,,,,,,,,,,,,
null,,confidence_buffer,901263,confidence_buffer,,null,,,,,,,,,,,,,,,,,
2168.199999988079,,pt2_memorable_rating,903432,Abilene,,51,,3,,,,,,,,,,,,,,,
null,,confidence_buffer,903535,confidence_buffer,,null,,,,,,,,,,,,,,,,,
5196.600000008941,,recognition_phase,908732,Abilene,,50,,,,,old,1,0.7777777777777778,,,,,,,,,,
null,,confidence_buffer,908835,confidence_buffer,,null,,,,,,,,,,,,,,,,,
null,,thebreak,909336,break,,null,,,,,,,,,,,,,,,,,
2735.4000000059605,,realistic_rating,912072,Boise,,53,Boise,5,,,,,,,,,,,,,,,
null,,confidence_buffer,912174,confidence_buffer,,null,,,,,,,,,,,,,,,,,
3782.699999988079,,pt2_unique_rating,915958,Boise,,52,,4,,,,,,,,,,,,,,,
null,,confidence_buffer,916061,confidence_buffer,,null,,,,,,,,,,,,,,,,,
1477.1000000089407,,pt2_memorable_rating,917539,Boise,,52,,4,,,,,,,,,,,,,,,
null,,confidence_buffer,917641,confidence_buffer,,null,,,,,,,,,,,,,,,,,
1858.1000000089407,,recognition_phase,919500,Boise,,52,,,,,new,1,0.7837837837837838,,,,,,,,,,
null,,confidence_buffer,919603,confidence_buffer,,null,,,,,,,,,,,,,,,,,
null,,thebreak,920105,break,,null,,,,,,,,,,,,,,,,,
1834.6000000089407,,realistic_rating,921941,Carson City,,52,Carson City,4,,,,,,,,,,,,,,,
null,,confidence_buffer,922043,confidence_buffer,,null,,,,,,,,,,,,,,,,,
1640.2999999970198,,probe_rating,923684,probe_rating,,52,,,4,1,,,,,,,,,,,,,
null,,confidence_buffer,923785,confidence_buffer,,null,,,,,,,,,,,,,,,,,
7162.29999999702,,pt2_unique_rating,930948,Carson City,,50,,2,,,,,,,,,,,,,,,
null,,confidence_buffer,931051,confidence_buffer,,null,,,,,,,,,,,,,,,,,
1834.800000011921,,pt2_memorable_rating,932886,Carson City,,52,,4,,,,,,,,,,,,,,,
null,,confidence_buffer,932989,confidence_buffer,,null,,,,,,,,,,,,,,,,,
2925.8999999910593,,recognition_phase,935915,Carson City,,52,,,,,new,1,0.7894736842105263,,,,,,,,,,
null,,confidence_buffer,936018,confidence_buffer,,null,,,,,,,,,,,,,,,,,
null,,thebreak,936520,break,,null,,,,,,,,,,,,,,,,,
5454.5,,realistic_rating,941976,Annapolis,,50,Annapolis,2,,,,,,,,,,,,,,,
null,,confidence_buffer,942078,confidence_buffer,,null,,,,,,,,,,,,,,,,,
1517.2999999970198,,pt2_unique_rating,943597,Annapolis,,52,,4,,,,,,,,,,,,,,,
null,,confidence_buffer,943698,confidence_buffer,,null,,,,,,,,,,,,,,,,,
4510.29999999702,,pt2_memorable_rating,948210,Annapolis,,50,,2,,,,,,,,,,,,,,,
null,,confidence_buffer,948311,confidence_buffer,,null,,,,,,,,,,,,,,,,,
2614.5999999940395,,recognition_phase,950927,Annapolis,,49,,,,,old,1,0.7948717948717948,,,,,,,,,,
null,,confidence_buffer,951029,confidence_buffer,,null,,,,,,,,,,,,,,,,,
null,,thebreak,951531,break,,null,,,,,,,,,,,,,,,,,
3389.0999999940395,,realistic_rating,954921,Peoria,,53,Peoria,5,,,,,,,,,,,,,,,
null,,confidence_buffer,955023,confidence_buffer,,null,,,,,,,,,,,,,,,,,
1509.0999999940395,,probe_rating,956533,probe_rating,,52,,,4,1,,,,,,,,,,,,,
null,,confidence_buffer,956636,confidence_buffer,,null,,,,,,,,,,,,,,,,,
3405.199999988079,,pt2_unique_rating,960042,Peoria,,53,,5,,,,,,,,,,,,,,,
null,,confidence_buffer,960143,confidence_buffer,,null,,,,,,,,,,,,,,,,,
2311.1000000089407,,pt2_memorable_rating,962455,Peoria,,51,,3,,,,,,,,,,,,,,,
null,,confidence_buffer,962557,confidence_buffer,,null,,,,,,,,,,,,,,,,,
2910.5,,recognition_phase,965468,Peoria,,52,,,,,new,1,0.8,,,,,,,,,,
null,,confidence_buffer,965570,confidence_buffer,,null,,,,,,,,,,,,,,,,,
null,,thebreak,966072,break,,null,,,,,,,,,,,,,,,,,
2485.5,,realistic_rating,968558,Dothan,,50,Dothan,2,,,,,,,,,,,,,,,
null,,confidence_buffer,968661,confidence_buffer,,null,,,,,,,,,,,,,,,,,
1707.7999999970198,,pt2_unique_rating,970370,Dothan,,52,,4,,,,,,,,,,,,,,,
null,,confidence_buffer,970472,confidence_buffer,,null,,,,,,,,,,,,,,,,,
2011.2000000029802,,pt2_memorable_rating,972484,Dothan,,51,,3,,,,,,,,,,,,,,,
null,,confidence_buffer,972585,confidence_buffer,,null,,,,,,,,,,,,,,,,,
1536.7999999970198,,recognition_phase,974123,Dothan,,49,,,,,old,1,0.8048780487804879,,,,,,,,,,
null,,confidence_buffer,974225,confidence_buffer,,null,,,,,,,,,,,,,,,,,
null,,thebreak,974728,break,,null,,,,,,,,,,,,,,,,,
2520.5999999940395,,realistic_rating,977250,Altoona,,50,Altoona,2,,,,,,,,,,,,,,,
null,,confidence_buffer,977352,confidence_buffer,,null,,,,,,,,,,,,,,,,,
3483.6000000089407,,pt2_unique_rating,980837,Altoona,,52,,4,,,,,,,,,,,,,,,
null,,confidence_buffer,980939,confidence_buffer,,null,,,,,,,,,,,,,,,,,
2357.699999988079,,pt2_memorable_rating,983297,Altoona,,52,,4,,,,,,,,,,,,,,,
null,,confidence_buffer,983400,confidence_buffer,,null,,,,,,,,,,,,,,,,,
2569.9000000059605,,recognition_phase,985970,Altoona,,49,,,,,old,1,0.8095238095238095,,,,,,,,,,
null,,confidence_buffer,986072,confidence_buffer,,null,,,,,,,,,,,,,,,,,
null,,thebreak,986574,break,,null,,,,,,,,,,,,,,,,,
2247.2000000029802,,realistic_rating,988823,Fort Wayne,,53,Fort Wayne,5,,,,,,,,,,,,,,,
null,,confidence_buffer,988924,confidence_buffer,,null,,,,,,,,,,,,,,,,,
4204.5,,pt2_unique_rating,993129,Fort Wayne,,50,,2,,,,,,,,,,,,,,,
null,,confidence_buffer,993231,confidence_buffer,,null,,,,,,,,,,,,,,,,,
1508,,pt2_memorable_rating,994740,Fort Wayne,,52,,4,,,,,,,,,,,,,,,
null,,confidence_buffer,994842,confidence_buffer,,null,,,,,,,,,,,,,,,,,
2081.2999999970198,,probe_rating,996925,probe_rating,,51,,,3,1,,,,,,,,,,,,,
null,,confidence_buffer,997027,confidence_buffer,,null,,,,,,,,,,,,,,,,,
2691.2999999970198,,recognition_phase,999719,Fort Wayne,,49,,,,,old,1,0.813953488372093,,,,,,,,,,
null,,confidence_buffer,999821,confidence_buffer,,null,,,,,,,,,,,,,,,,,
null,,thebreak,1000322,break,,null,,,,,,,,,,,,,,,,,
3159.8999999910593,,realistic_rating,1003483,Syracuse,,53,Syracuse,5,,,,,,,,,,,,,,,
null,,confidence_buffer,1003585,confidence_buffer,,null,,,,,,,,,,,,,,,,,
1562.7999999970198,,pt2_unique_rating,1005149,Syracuse,,52,,4,,,,,,,,,,,,,,,
null,,confidence_buffer,1005252,confidence_buffer,,null,,,,,,,,,,,,,,,,,
2071.4000000059605,,pt2_memorable_rating,1007324,Syracuse,,52,,4,,,,,,,,,,,,,,,
null,,confidence_buffer,1007425,confidence_buffer,,null,,,,,,,,,,,,,,,,,
3369,,recognition_phase,1010795,Syracuse,,52,,,,,new,1,0.8181818181818182,,,,,,,,,,
null,,confidence_buffer,1010898,confidence_buffer,,null,,,,,,,,,,,,,,,,,
null,,thebreak,1011400,break,,null,,,,,,,,,,,,,,,,,
2780.2999999970198,,realistic_rating,1014181,Dubuque,,50,Dubuque,2,,,,,,,,,,,,,,,
null,,confidence_buffer,1014284,confidence_buffer,,null,,,,,,,,,,,,,,,,,
1975.699999988079,,pt2_unique_rating,1016260,Dubuque,,52,,4,,,,,,,,,,,,,,,
null,,confidence_buffer,1016363,confidence_buffer,,null,,,,,,,,,,,,,,,,,
1585.5999999940395,,pt2_memorable_rating,1017950,Dubuque,,52,,4,,,,,,,,,,,,,,,
null,,confidence_buffer,1018052,confidence_buffer,,null,,,,,,,,,,,,,,,,,
1531.6000000089407,,recognition_phase,1019584,Dubuque,,49,,,,,old,1,0.8222222222222222,,,,,,,,,,
null,,confidence_buffer,1019687,confidence_buffer,,null,,,,,,,,,,,,,,,,,
null,,thebreak,1020189,break,,null,,,,,,,,,,,,,,,,,
5249.29999999702,,realistic_rating,1025439,Rock Springs,,53,Rock Springs,5,,,,,,,,,,,,,,,
null,,confidence_buffer,1025542,confidence_buffer,,null,,,,,,,,,,,,,,,,,
2421.5,,pt2_unique_rating,1027964,Rock Springs,,49,,1,,,,,,,,,,,,,,,
null,,confidence_buffer,1028066,confidence_buffer,,null,,,,,,,,,,,,,,,,,
2141.5,,pt2_memorable_rating,1030208,Rock Springs,,52,,4,,,,,,,,,,,,,,,
null,,confidence_buffer,1030309,confidence_buffer,,null,,,,,,,,,,,,,,,,,
1687.7000000029802,,recognition_phase,1031998,Rock Springs,,49,,,,,old,1,0.8260869565217391,,,,,,,,,,
null,,confidence_buffer,1032100,confidence_buffer,,null,,,,,,,,,,,,,,,,,
null,,thebreak,1032602,break,,null,,,,,,,,,,,,,,,,,
1953.9000000059605,,realistic_rating,1034557,Champaign,,53,Champaign,5,,,,,,,,,,,,,,,
null,,confidence_buffer,1034658,confidence_buffer,,null,,,,,,,,,,,,,,,,,
4600.20000000298,,pt2_unique_rating,1039259,Champaign,,50,,2,,,,,,,,,,,,,,,
null,,confidence_buffer,1039361,confidence_buffer,,null,,,,,,,,,,,,,,,,,
2883,,pt2_memorable_rating,1042245,Champaign,,53,,5,,,,,,,,,,,,,,,
null,,confidence_buffer,1042347,confidence_buffer,,null,,,,,,,,,,,,,,,,,
1079.9000000059605,,recognition_phase,1043428,Champaign,,49,,,,,old,1,0.8297872340425532,,,,,,,,,,
null,,confidence_buffer,1043530,confidence_buffer,,null,,,,,,,,,,,,,,,,,
null,,thebreak,1044032,break,,null,,,,,,,,,,,,,,,,,
2134.9000000059605,,realistic_rating,1046168,Reno,,53,Reno,5,,,,,,,,,,,,,,,
null,,confidence_buffer,1046270,confidence_buffer,,null,,,,,,,,,,,,,,,,,
3319.1000000089407,,pt2_unique_rating,1049590,Reno,,50,,2,,,,,,,,,,,,,,,
null,,confidence_buffer,1049692,confidence_buffer,,null,,,,,,,,,,,,,,,,,
1448.7000000029802,,pt2_memorable_rating,1051142,Reno,,52,,4,,,,,,,,,,,,,,,
null,,confidence_buffer,1051244,confidence_buffer,,null,,,,,,,,,,,,,,,,,
2692.5,,recognition_phase,1053937,Reno,,52,,,,,new,1,0.8333333333333334,,,,,,,,,,
null,,confidence_buffer,1054040,confidence_buffer,,null,,,,,,,,,,,,,,,,,
null,,thebreak,1054542,break,,null,,,,,,,,,,,,,,,,,
1958.4000000059605,,realistic_rating,1056501,Pasadena,,53,Pasadena,5,,,,,,,,,,,,,,,
null,,confidence_buffer,1056604,confidence_buffer,,null,,,,,,,,,,,,,,,,,
2106.5999999940395,,probe_rating,1058712,probe_rating,,50,,,2,1,,,,,,,,,,,,,
null,,confidence_buffer,1058813,confidence_buffer,,null,,,,,,,,,,,,,,,,,
3083.9000000059605,,pt2_unique_rating,1061897,Pasadena,,50,,2,,,,,,,,,,,,,,,
null,,confidence_buffer,1061999,confidence_buffer,,null,,,,,,,,,,,,,,,,,
4276.79999999702,,pt2_memorable_rating,1066277,Pasadena,,52,,4,,,,,,,,,,,,,,,
null,,confidence_buffer,1066379,confidence_buffer,,null,,,,,,,,,,,,,,,,,
2501.0999999940395,,recognition_phase,1068881,Pasadena,,49,,,,,old,1,0.8367346938775511,,,,,,,,,,
null,,confidence_buffer,1068982,confidence_buffer,,null,,,,,,,,,,,,,,,,,
null,,thebreak,1069485,break,,null,,,,,,,,,,,,,,,,,
1991.0999999940395,,realistic_rating,1071477,Santa Monica,,53,Santa Monica,5,,,,,,,,,,,,,,,
null,,confidence_buffer,1071578,confidence_buffer,,null,,,,,,,,,,,,,,,,,
2269.8999999910593,,pt2_unique_rating,1073849,Santa Monica,,50,,2,,,,,,,,,,,,,,,
null,,confidence_buffer,1073951,confidence_buffer,,null,,,,,,,,,,,,,,,,,
2319.4000000059605,,pt2_memorable_rating,1076272,Santa Monica,,52,,4,,,,,,,,,,,,,,,
null,,confidence_buffer,1076373,confidence_buffer,,null,,,,,,,,,,,,,,,,,
1177.6000000089407,,recognition_phase,1077552,Santa Monica,,49,,,,,old,1,0.84,,,,,,,,,,
null,,confidence_buffer,1077654,confidence_buffer,,null,,,,,,,,,,,,,,,,,
null,,thebreak,1078156,break,,null,,,,,,,,,,,,,,,,,
,,survey,1455237,survey-questions,,,,,,,,,,none,high,no,I just tried to be quick so that the names would stay fresher in my short term memory. I also tried to associate countries or states to the names to help remember if I had seen it before. ,IF I had heard the name in passing; past conversations with tourist (I work in hospitality) ; If I had been there. ,I wondered if it was a famous city from tv and movies or not. ,If the spellig was unconventional to the US. ,If the city sounded American; British; asian; middle eastern when I said it aloud. ,I have not done a similar study before,It was a little long. And the option to see how good/bad your own memory was would be interesting to see at the end. 
