rt,responses,trial_type,time_elapsed,stimulus,button_pressed,key_press,name_trial,city_type,rating,probe,probe_accuracy,response,correct,accuracy,problems,smooth,distraction,strategies,familiar,memorable,unique,realistic,similar,comments
35665.90000000596,{worker_id:673d1e032ff619fa7f57213a},id_enter,35670,,,,,,,,,,,,,,,,,,,,,
32228.69999998808,,fullscreen,67905,fullscreen,0,,,,,,,,,,,,,,,,,,,
2892,,intro_0,70801,instruct,,32,,,,,,,,,,,,,,,,,,
23396.69999998808,,intro_1,94201,instruct,,32,,,,,,,,,,,,,,,,,,
6252.0999999940395,,intro_2,100455,instruct,,32,,,,,,,,,,,,,,,,,,
null,,instruct_dir_4,101958,instruct,,null,,,,,,,,,,,,,,,,,,
null,,thebreak,102466,break,,null,,,,,,,,,,,,,,,,,,
14090.399999976158,,familiar_rating,116563,Ravenport,,49,Ravenport,Fictional,1,,,,,,,,,,,,,,,
null,,confidence_buffer,116673,confidence_buffer,,null,,,,,,,,,,,,,,,,,,
7440.800000011921,,unique_rating,124120,Ravenport,,51,,,3,,,,,,,,,,,,,,,
null,,confidence_buffer,124225,confidence_buffer,,null,,,,,,,,,,,,,,,,,,
8883.600000023842,,memorable_rating,133115,Ravenport,,51,,,3,,,,,,,,,,,,,,,
null,,confidence_buffer,133221,confidence_buffer,,null,,,,,,,,,,,,,,,,,,
null,,thebreak,133724,break,,null,,,,,,,,,,,,,,,,,,
4923,,familiar_rating,138650,Hawthorne Bluffs,,49,Hawthorne Bluffs,Fictional,1,,,,,,,,,,,,,,,
null,,confidence_buffer,138756,confidence_buffer,,null,,,,,,,,,,,,,,,,,,
18917.90000000596,,unique_rating,157679,Hawthorne Bluffs,,49,,,1,,,,,,,,,,,,,,,
null,,confidence_buffer,157786,confidence_buffer,,null,,,,,,,,,,,,,,,,,,
2282.199999988079,,memorable_rating,160074,Hawthorne Bluffs,,49,,,1,,,,,,,,,,,,,,,
null,,confidence_buffer,160185,confidence_buffer,,null,,,,,,,,,,,,,,,,,,
null,,thebreak,160687,break,,null,,,,,,,,,,,,,,,,,,
4109.699999988079,,familiar_rating,164800,Summershade,,49,Summershade,Fictional,1,,,,,,,,,,,,,,,
null,,confidence_buffer,164903,confidence_buffer,,null,,,,,,,,,,,,,,,,,,
4513.5,,unique_rating,169424,Summershade,,51,,,3,,,,,,,,,,,,,,,
null,,confidence_buffer,169530,confidence_buffer,,null,,,,,,,,,,,,,,,,,,
2236.5,,memorable_rating,171772,Summershade,,50,,,2,,,,,,,,,,,,,,,
null,,confidence_buffer,171879,confidence_buffer,,null,,,,,,,,,,,,,,,,,,
null,,thebreak,172382,break,,null,,,,,,,,,,,,,,,,,,
1970.5,,familiar_rating,174358,Sunmere,,49,Sunmere,Fictional,1,,,,,,,,,,,,,,,
null,,confidence_buffer,174465,confidence_buffer,,null,,,,,,,,,,,,,,,,,,
3209.4000000059605,,unique_rating,177677,Sunmere,,50,,,2,,,,,,,,,,,,,,,
null,,confidence_buffer,177783,confidence_buffer,,null,,,,,,,,,,,,,,,,,,
1125.800000011921,,memorable_rating,178913,Sunmere,,50,,,2,,,,,,,,,,,,,,,
null,,confidence_buffer,179019,confidence_buffer,,null,,,,,,,,,,,,,,,,,,
null,,thebreak,179522,break,,null,,,,,,,,,,,,,,,,,,
4449.9000000059605,,familiar_rating,183976,Maravilla Springs,,49,Maravilla Springs,Fictional,1,,,,,,,,,,,,,,,
null,,confidence_buffer,184085,confidence_buffer,,null,,,,,,,,,,,,,,,,,,
5463.200000017881,,unique_rating,189553,Maravilla Springs,,49,,,1,,,,,,,,,,,,,,,
null,,confidence_buffer,189658,confidence_buffer,,null,,,,,,,,,,,,,,,,,,
2169.0999999940395,,memorable_rating,191829,Maravilla Springs,,50,,,2,,,,,,,,,,,,,,,
null,,confidence_buffer,191933,confidence_buffer,,null,,,,,,,,,,,,,,,,,,
null,,thebreak,192435,break,,null,,,,,,,,,,,,,,,,,,
7603.5999999940395,,familiar_rating,200045,Baymarsh,,49,Baymarsh,Fictional,1,,,,,,,,,,,,,,,
null,,confidence_buffer,200152,confidence_buffer,,null,,,,,,,,,,,,,,,,,,
1316,,unique_rating,201474,Baymarsh,,51,,,3,,,,,,,,,,,,,,,
null,,confidence_buffer,201577,confidence_buffer,,null,,,,,,,,,,,,,,,,,,
1074.9000000059605,,memorable_rating,202658,Baymarsh,,51,,,3,,,,,,,,,,,,,,,
null,,confidence_buffer,202764,confidence_buffer,,null,,,,,,,,,,,,,,,,,,
null,,thebreak,203267,break,,null,,,,,,,,,,,,,,,,,,
3539.7999999821186,,familiar_rating,206814,Lakehaven,,51,Lakehaven,Fictional,3,,,,,,,,,,,,,,,
null,,confidence_buffer,206921,confidence_buffer,,null,,,,,,,,,,,,,,,,,,
4492.299999982119,,probe_rating,211417,probe_rating,,51,,,,3,1,,,,,,,,,,,,,
null,,confidence_buffer,211524,confidence_buffer,,null,,,,,,,,,,,,,,,,,,
4186.800000011921,,unique_rating,215713,Lakehaven,,52,,,4,,,,,,,,,,,,,,,
null,,confidence_buffer,215819,confidence_buffer,,null,,,,,,,,,,,,,,,,,,
4458.5,,memorable_rating,220280,Lakehaven,,52,,,4,,,,,,,,,,,,,,,
null,,confidence_buffer,220386,confidence_buffer,,null,,,,,,,,,,,,,,,,,,
null,,thebreak,220890,break,,null,,,,,,,,,,,,,,,,,,
2865.5,,familiar_rating,223761,Medora,,49,Medora,US,1,,,,,,,,,,,,,,,
null,,confidence_buffer,223867,confidence_buffer,,null,,,,,,,,,,,,,,,,,,
1229.2000000178814,,unique_rating,225100,Medora,,50,,,2,,,,,,,,,,,,,,,
null,,confidence_buffer,225206,confidence_buffer,,null,,,,,,,,,,,,,,,,,,
7132.699999988079,,memorable_rating,232344,Medora,,52,,,4,,,,,,,,,,,,,,,
null,,confidence_buffer,232449,confidence_buffer,,null,,,,,,,,,,,,,,,,,,
null,,thebreak,232952,break,,null,,,,,,,,,,,,,,,,,,
6744.100000023842,,familiar_rating,239701,Bowling Green,,49,Bowling Green,US,1,,,,,,,,,,,,,,,
null,,confidence_buffer,239807,confidence_buffer,,null,,,,,,,,,,,,,,,,,,
1052,,unique_rating,240865,Bowling Green,,50,,,2,,,,,,,,,,,,,,,
null,,confidence_buffer,240971,confidence_buffer,,null,,,,,,,,,,,,,,,,,,
2321.5999999940395,,memorable_rating,243297,Bowling Green,,49,,,1,,,,,,,,,,,,,,,
null,,confidence_buffer,243400,confidence_buffer,,null,,,,,,,,,,,,,,,,,,
null,,thebreak,243903,break,,null,,,,,,,,,,,,,,,,,,
1492.5,,familiar_rating,245401,Manistee,,49,Manistee,US,1,,,,,,,,,,,,,,,
null,,confidence_buffer,245508,confidence_buffer,,null,,,,,,,,,,,,,,,,,,
2009.300000011921,,unique_rating,247524,Manistee,,50,,,2,,,,,,,,,,,,,,,
null,,confidence_buffer,247628,confidence_buffer,,null,,,,,,,,,,,,,,,,,,
1256,,memorable_rating,248887,Manistee,,49,,,1,,,,,,,,,,,,,,,
null,,confidence_buffer,248993,confidence_buffer,,null,,,,,,,,,,,,,,,,,,
null,,thebreak,249495,break,,null,,,,,,,,,,,,,,,,,,
2817.2000000178814,,familiar_rating,252319,Gloucester,,49,Gloucester,US,1,,,,,,,,,,,,,,,
null,,confidence_buffer,252425,confidence_buffer,,null,,,,,,,,,,,,,,,,,,
3974,,unique_rating,256407,Gloucester,,49,,,1,,,,,,,,,,,,,,,
null,,confidence_buffer,256513,confidence_buffer,,null,,,,,,,,,,,,,,,,,,
2761.300000011921,,memorable_rating,259280,Gloucester,,50,,,2,,,,,,,,,,,,,,,
null,,confidence_buffer,259386,confidence_buffer,,null,,,,,,,,,,,,,,,,,,
null,,thebreak,259888,break,,null,,,,,,,,,,,,,,,,,,
4922.5999999940395,,familiar_rating,264820,Sisters,,50,Sisters,US,2,,,,,,,,,,,,,,,
null,,confidence_buffer,264923,confidence_buffer,,null,,,,,,,,,,,,,,,,,,
2743.5,,unique_rating,267672,Sisters,,51,,,3,,,,,,,,,,,,,,,
null,,confidence_buffer,267779,confidence_buffer,,null,,,,,,,,,,,,,,,,,,
5778.799999982119,,memorable_rating,273563,Sisters,,52,,,4,,,,,,,,,,,,,,,
null,,confidence_buffer,273669,confidence_buffer,,null,,,,,,,,,,,,,,,,,,
2415.0999999940395,,probe_rating,276092,probe_rating,,52,,,,4,1,,,,,,,,,,,,,
null,,confidence_buffer,276195,confidence_buffer,,null,,,,,,,,,,,,,,,,,,
null,,thebreak,276697,break,,null,,,,,,,,,,,,,,,,,,
5759,,familiar_rating,282462,Cody,,49,Cody,US,1,,,,,,,,,,,,,,,
null,,confidence_buffer,282567,confidence_buffer,,null,,,,,,,,,,,,,,,,,,
2705.0999999940395,,probe_rating,285281,probe_rating,,53,,,,5,1,,,,,,,,,,,,,
null,,confidence_buffer,285392,confidence_buffer,,null,,,,,,,,,,,,,,,,,,
3691.0999999940395,,unique_rating,289088,Cody,,50,,,2,,,,,,,,,,,,,,,
null,,confidence_buffer,289195,confidence_buffer,,null,,,,,,,,,,,,,,,,,,
1587.300000011921,,memorable_rating,290787,Cody,,50,,,2,,,,,,,,,,,,,,,
null,,confidence_buffer,290892,confidence_buffer,,null,,,,,,,,,,,,,,,,,,
null,,thebreak,291395,break,,null,,,,,,,,,,,,,,,,,,
6948.700000017881,,familiar_rating,298349,Highvale,,51,Highvale,Fictional,3,,,,,,,,,,,,,,,
null,,confidence_buffer,298454,confidence_buffer,,null,,,,,,,,,,,,,,,,,,
1406.4000000059605,,unique_rating,299868,Highvale,,51,,,3,,,,,,,,,,,,,,,
null,,confidence_buffer,299977,confidence_buffer,,null,,,,,,,,,,,,,,,,,,
1221.7999999821186,,memorable_rating,301205,Highvale,,51,,,3,,,,,,,,,,,,,,,
null,,confidence_buffer,301312,confidence_buffer,,null,,,,,,,,,,,,,,,,,,
null,,thebreak,301815,break,,null,,,,,,,,,,,,,,,,,,
6792.300000011921,,familiar_rating,308616,Natchez,,49,Natchez,US,1,,,,,,,,,,,,,,,
null,,confidence_buffer,308722,confidence_buffer,,null,,,,,,,,,,,,,,,,,,
1940.7999999821186,,unique_rating,310669,Natchez,,50,,,2,,,,,,,,,,,,,,,
null,,confidence_buffer,310775,confidence_buffer,,null,,,,,,,,,,,,,,,,,,
1470.199999988079,,memorable_rating,312250,Natchez,,50,,,2,,,,,,,,,,,,,,,
null,,confidence_buffer,312356,confidence_buffer,,null,,,,,,,,,,,,,,,,,,
null,,thebreak,312858,break,,null,,,,,,,,,,,,,,,,,,
3434.9000000059605,,familiar_rating,316298,Montelake,,51,Montelake,Fictional,3,,,,,,,,,,,,,,,
null,,confidence_buffer,316404,confidence_buffer,,null,,,,,,,,,,,,,,,,,,
2591.5,,unique_rating,319002,Montelake,,51,,,3,,,,,,,,,,,,,,,
null,,confidence_buffer,319106,confidence_buffer,,null,,,,,,,,,,,,,,,,,,
3294.5999999940395,,memorable_rating,322405,Montelake,,51,,,3,,,,,,,,,,,,,,,
null,,confidence_buffer,322514,confidence_buffer,,null,,,,,,,,,,,,,,,,,,
null,,thebreak,323016,break,,null,,,,,,,,,,,,,,,,,,
4009,,familiar_rating,327029,Coralridge,,50,Coralridge,Fictional,2,,,,,,,,,,,,,,,
null,,confidence_buffer,327134,confidence_buffer,,null,,,,,,,,,,,,,,,,,,
3350,,unique_rating,330486,Coralridge,,50,,,2,,,,,,,,,,,,,,,
null,,confidence_buffer,330590,confidence_buffer,,null,,,,,,,,,,,,,,,,,,
1305.5,,memorable_rating,331901,Coralridge,,50,,,2,,,,,,,,,,,,,,,
null,,confidence_buffer,332010,confidence_buffer,,null,,,,,,,,,,,,,,,,,,
null,,thebreak,332512,break,,null,,,,,,,,,,,,,,,,,,
2226.800000011921,,familiar_rating,334742,Bayshore Haven,,49,Bayshore Haven,Fictional,1,,,,,,,,,,,,,,,
null,,confidence_buffer,334847,confidence_buffer,,null,,,,,,,,,,,,,,,,,,
11090.09999999404,,unique_rating,345939,Bayshore Haven,,51,,,3,,,,,,,,,,,,,,,
null,,confidence_buffer,346045,confidence_buffer,,null,,,,,,,,,,,,,,,,,,
2372.7999999821186,,memorable_rating,348424,Bayshore Haven,,51,,,3,,,,,,,,,,,,,,,
null,,confidence_buffer,348529,confidence_buffer,,null,,,,,,,,,,,,,,,,,,
null,,thebreak,349031,break,,null,,,,,,,,,,,,,,,,,,
4813,,familiar_rating,353849,Crestwood,,49,Crestwood,Fictional,1,,,,,,,,,,,,,,,
null,,confidence_buffer,353957,confidence_buffer,,null,,,,,,,,,,,,,,,,,,
3132.800000011921,,unique_rating,357093,Crestwood,,51,,,3,,,,,,,,,,,,,,,
null,,confidence_buffer,357196,confidence_buffer,,null,,,,,,,,,,,,,,,,,,
2098.7999999821186,,memorable_rating,359297,Crestwood,,51,,,3,,,,,,,,,,,,,,,
null,,confidence_buffer,359404,confidence_buffer,,null,,,,,,,,,,,,,,,,,,
null,,thebreak,359907,break,,null,,,,,,,,,,,,,,,,,,
4383.9000000059605,,familiar_rating,364293,Huntsville,,53,Huntsville,US,5,,,,,,,,,,,,,,,
null,,confidence_buffer,364402,confidence_buffer,,null,,,,,,,,,,,,,,,,,,
4710.200000017881,,unique_rating,369115,Huntsville,,52,,,4,,,,,,,,,,,,,,,
null,,confidence_buffer,369220,confidence_buffer,,null,,,,,,,,,,,,,,,,,,
2192.199999988079,,memorable_rating,371419,Huntsville,,53,,,5,,,,,,,,,,,,,,,
null,,confidence_buffer,371525,confidence_buffer,,null,,,,,,,,,,,,,,,,,,
null,,thebreak,372028,break,,null,,,,,,,,,,,,,,,,,,
4709.5,,familiar_rating,376743,Sammamish,,49,Sammamish,US,1,,,,,,,,,,,,,,,
null,,confidence_buffer,376849,confidence_buffer,,null,,,,,,,,,,,,,,,,,,
5999.300000011921,,unique_rating,382853,Sammamish,,50,,,2,,,,,,,,,,,,,,,
null,,confidence_buffer,382959,confidence_buffer,,null,,,,,,,,,,,,,,,,,,
2877.7000000178814,,memorable_rating,385842,Sammamish,,50,,,2,,,,,,,,,,,,,,,
null,,confidence_buffer,385948,confidence_buffer,,null,,,,,,,,,,,,,,,,,,
null,,thebreak,386450,break,,null,,,,,,,,,,,,,,,,,,
3321.7000000178814,,familiar_rating,389777,Folly Beach,,49,Folly Beach,US,1,,,,,,,,,,,,,,,
null,,confidence_buffer,389883,confidence_buffer,,null,,,,,,,,,,,,,,,,,,
1025.9000000059605,,unique_rating,390915,Folly Beach,,50,,,2,,,,,,,,,,,,,,,
null,,confidence_buffer,391032,confidence_buffer,,null,,,,,,,,,,,,,,,,,,
1009.2000000178814,,memorable_rating,392048,Folly Beach,,50,,,2,,,,,,,,,,,,,,,
null,,confidence_buffer,392153,confidence_buffer,,null,,,,,,,,,,,,,,,,,,
null,,thebreak,392656,break,,null,,,,,,,,,,,,,,,,,,
3214.5,,familiar_rating,395879,Livingston,,53,Livingston,US,5,,,,,,,,,,,,,,,
null,,confidence_buffer,395986,confidence_buffer,,null,,,,,,,,,,,,,,,,,,
2738.100000023842,,unique_rating,398730,Livingston,,52,,,4,,,,,,,,,,,,,,,
null,,confidence_buffer,398835,confidence_buffer,,null,,,,,,,,,,,,,,,,,,
2147.699999988079,,memorable_rating,400988,Livingston,,53,,,5,,,,,,,,,,,,,,,
null,,confidence_buffer,401094,confidence_buffer,,null,,,,,,,,,,,,,,,,,,
null,,thebreak,401611,break,,null,,,,,,,,,,,,,,,,,,
4075.7999999821186,,familiar_rating,405690,Briarfield,,50,Briarfield,Fictional,2,,,,,,,,,,,,,,,
null,,confidence_buffer,405793,confidence_buffer,,null,,,,,,,,,,,,,,,,,,
1024.5999999940395,,unique_rating,406821,Briarfield,,50,,,2,,,,,,,,,,,,,,,
null,,confidence_buffer,406927,confidence_buffer,,null,,,,,,,,,,,,,,,,,,
1082.9000000059605,,memorable_rating,408016,Briarfield,,50,,,2,,,,,,,,,,,,,,,
null,,confidence_buffer,408127,confidence_buffer,,null,,,,,,,,,,,,,,,,,,
3332.199999988079,,probe_rating,411465,probe_rating,,53,,,,5,1,,,,,,,,,,,,,
null,,confidence_buffer,411571,confidence_buffer,,null,,,,,,,,,,,,,,,,,,
null,,thebreak,412073,break,,null,,,,,,,,,,,,,,,,,,
2578.7999999821186,,familiar_rating,414658,Driftwood Bay,,49,Driftwood Bay,Fictional,1,,,,,,,,,,,,,,,
null,,confidence_buffer,414764,confidence_buffer,,null,,,,,,,,,,,,,,,,,,
2373.699999988079,,unique_rating,417143,Driftwood Bay,,51,,,3,,,,,,,,,,,,,,,
null,,confidence_buffer,417248,confidence_buffer,,null,,,,,,,,,,,,,,,,,,
1559.5999999940395,,memorable_rating,418812,Driftwood Bay,,50,,,2,,,,,,,,,,,,,,,
null,,confidence_buffer,418927,confidence_buffer,,null,,,,,,,,,,,,,,,,,,
null,,thebreak,419429,break,,null,,,,,,,,,,,,,,,,,,
3551.4000000059605,,familiar_rating,422986,Delaware City,,53,Delaware City,US,5,,,,,,,,,,,,,,,
null,,confidence_buffer,423092,confidence_buffer,,null,,,,,,,,,,,,,,,,,,
3830.399999976158,,unique_rating,426929,Delaware City,,51,,,3,,,,,,,,,,,,,,,
null,,confidence_buffer,427035,confidence_buffer,,null,,,,,,,,,,,,,,,,,,
1660.300000011921,,memorable_rating,428700,Delaware City,,51,,,3,,,,,,,,,,,,,,,
null,,confidence_buffer,428805,confidence_buffer,,null,,,,,,,,,,,,,,,,,,
null,,thebreak,429319,break,,null,,,,,,,,,,,,,,,,,,
3026.5,,familiar_rating,432350,Redgrove,,53,Redgrove,Fictional,5,,,,,,,,,,,,,,,
null,,confidence_buffer,432456,confidence_buffer,,null,,,,,,,,,,,,,,,,,,
3475.9000000059605,,unique_rating,435938,Redgrove,,52,,,4,,,,,,,,,,,,,,,
null,,confidence_buffer,436045,confidence_buffer,,null,,,,,,,,,,,,,,,,,,
3476,,probe_rating,439526,probe_rating,,49,,,,1,1,,,,,,,,,,,,,
null,,confidence_buffer,439632,confidence_buffer,,null,,,,,,,,,,,,,,,,,,
8319.199999988079,,memorable_rating,447957,Redgrove,,52,,,4,,,,,,,,,,,,,,,
null,,confidence_buffer,448065,confidence_buffer,,null,,,,,,,,,,,,,,,,,,
null,,thebreak,448568,break,,null,,,,,,,,,,,,,,,,,,
6118.299999982119,,familiar_rating,454691,Newport,,53,Newport,US,5,,,,,,,,,,,,,,,
null,,confidence_buffer,454800,confidence_buffer,,null,,,,,,,,,,,,,,,,,,
6343.9000000059605,,unique_rating,461146,Newport,,51,,,3,,,,,,,,,,,,,,,
null,,confidence_buffer,461250,confidence_buffer,,null,,,,,,,,,,,,,,,,,,
2609.4000000059605,,memorable_rating,463864,Newport,,51,,,3,,,,,,,,,,,,,,,
null,,confidence_buffer,463968,confidence_buffer,,null,,,,,,,,,,,,,,,,,,
null,,thebreak,464470,break,,null,,,,,,,,,,,,,,,,,,
5163.699999988079,,familiar_rating,469639,Lake of the Ozarks,,49,Lake of the Ozarks,US,1,,,,,,,,,,,,,,,
null,,confidence_buffer,469743,confidence_buffer,,null,,,,,,,,,,,,,,,,,,
2456.600000023842,,unique_rating,472208,Lake of the Ozarks,,52,,,4,,,,,,,,,,,,,,,
null,,confidence_buffer,472314,confidence_buffer,,null,,,,,,,,,,,,,,,,,,
2354.699999988079,,memorable_rating,474674,Lake of the Ozarks,,51,,,3,,,,,,,,,,,,,,,
null,,confidence_buffer,474781,confidence_buffer,,null,,,,,,,,,,,,,,,,,,
null,,thebreak,475284,break,,null,,,,,,,,,,,,,,,,,,
5732.200000017881,,familiar_rating,481022,Berkeley Springs,,53,Berkeley Springs,US,5,,,,,,,,,,,,,,,
null,,confidence_buffer,481127,confidence_buffer,,null,,,,,,,,,,,,,,,,,,
3128.2000000178814,,unique_rating,484261,Berkeley Springs,,51,,,3,,,,,,,,,,,,,,,
null,,confidence_buffer,484367,confidence_buffer,,null,,,,,,,,,,,,,,,,,,
6443.199999988079,,memorable_rating,490816,Berkeley Springs,,52,,,4,,,,,,,,,,,,,,,
null,,confidence_buffer,490923,confidence_buffer,,null,,,,,,,,,,,,,,,,,,
null,,thebreak,491426,break,,null,,,,,,,,,,,,,,,,,,
10139,,intro_0,501567,instruct,,32,,,,,,,,,,,,,,,,,,
29421.80000001192,,intro_1,530992,instruct,,32,,,,,,,,,,,,,,,,,,
71110.30000001192,,intro_2,602106,instruct,,32,,,,,,,,,,,,,,,,,,
null,,instruct_dir_4,603608,instruct,,null,,,,,,,,,,,,,,,,,,
31037.79999998212,,realistic_rating,634649,Bayshore Haven,,53,Bayshore Haven,Fictional,5,,,,,,,,,,,,,,,
null,,confidence_buffer,634754,confidence_buffer,,null,,,,,,,,,,,,,,,,,,
5275.300000011921,,pt2_unique_rating,640034,Bayshore Haven,,52,,,4,,,,,,,,,,,,,,,
null,,confidence_buffer,640139,confidence_buffer,,null,,,,,,,,,,,,,,,,,,
4068.699999988079,,pt2_memorable_rating,644209,Bayshore Haven,,52,,,4,,,,,,,,,,,,,,,
null,,confidence_buffer,644317,confidence_buffer,,null,,,,,,,,,,,,,,,,,,
6493.800000011921,,recognition_phase,650815,Bayshore Haven,,49,,,,,,old,1,1,,,,,,,,,,
null,,confidence_buffer,650921,confidence_buffer,,null,,,,,,,,,,,,,,,,,,
null,,thebreak,651423,break,,null,,,,,,,,,,,,,,,,,,
16283.300000011921,,realistic_rating,667709,Claywater,,51,Claywater,Fictional,3,,,,,,,,,,,,,,,
null,,confidence_buffer,667812,confidence_buffer,,null,,,,,,,,,,,,,,,,,,
4029.199999988079,,pt2_unique_rating,671843,Claywater,,51,,,3,,,,,,,,,,,,,,,
null,,confidence_buffer,671947,confidence_buffer,,null,,,,,,,,,,,,,,,,,,
2590.5,,pt2_memorable_rating,674542,Claywater,,51,,,3,,,,,,,,,,,,,,,
null,,confidence_buffer,674646,confidence_buffer,,null,,,,,,,,,,,,,,,,,,
7612,,recognition_phase,682260,Claywater,,52,,,,,,new,1,1,,,,,,,,,,
null,,confidence_buffer,682363,confidence_buffer,,null,,,,,,,,,,,,,,,,,,
null,,thebreak,682866,break,,null,,,,,,,,,,,,,,,,,,
3828.4000000059605,,realistic_rating,686696,Bar Harbor,,51,Bar Harbor,US,3,,,,,,,,,,,,,,,
null,,confidence_buffer,686802,confidence_buffer,,null,,,,,,,,,,,,,,,,,,
1064.7999999821186,,pt2_unique_rating,687870,Bar Harbor,,51,,,3,,,,,,,,,,,,,,,
null,,confidence_buffer,687976,confidence_buffer,,null,,,,,,,,,,,,,,,,,,
2307.0999999940395,,pt2_memorable_rating,690285,Bar Harbor,,51,,,3,,,,,,,,,,,,,,,
null,,confidence_buffer,690390,confidence_buffer,,null,,,,,,,,,,,,,,,,,,
1387.8999999761581,,recognition_phase,691782,Bar Harbor,,52,,,,,,new,1,1,,,,,,,,,,
null,,confidence_buffer,691886,confidence_buffer,,null,,,,,,,,,,,,,,,,,,
null,,thebreak,692388,break,,null,,,,,,,,,,,,,,,,,,
15672.5,,realistic_rating,708064,Driftwood Bay,,51,Driftwood Bay,Fictional,3,,,,,,,,,,,,,,,
null,,confidence_buffer,708167,confidence_buffer,,null,,,,,,,,,,,,,,,,,,
2725.7000000178814,,pt2_unique_rating,710897,Driftwood Bay,,51,,,3,,,,,,,,,,,,,,,
null,,confidence_buffer,711001,confidence_buffer,,null,,,,,,,,,,,,,,,,,,
1329.9000000059605,,pt2_memorable_rating,712333,Driftwood Bay,,51,,,3,,,,,,,,,,,,,,,
null,,confidence_buffer,712436,confidence_buffer,,null,,,,,,,,,,,,,,,,,,
2433.0999999940395,,recognition_phase,714873,Driftwood Bay,,49,,,,,,old,1,1,,,,,,,,,,
null,,confidence_buffer,714977,confidence_buffer,,null,,,,,,,,,,,,,,,,,,
null,,thebreak,715479,break,,null,,,,,,,,,,,,,,,,,,
3276.300000011921,,realistic_rating,718757,Racine,,50,Racine,US,2,,,,,,,,,,,,,,,
null,,confidence_buffer,718862,confidence_buffer,,null,,,,,,,,,,,,,,,,,,
1316.8999999761581,,pt2_unique_rating,720182,Racine,,51,,,3,,,,,,,,,,,,,,,
null,,confidence_buffer,720287,confidence_buffer,,null,,,,,,,,,,,,,,,,,,
649.5999999940395,,pt2_memorable_rating,720938,Racine,,50,,,2,,,,,,,,,,,,,,,
null,,confidence_buffer,721042,confidence_buffer,,null,,,,,,,,,,,,,,,,,,
2757.600000023842,,recognition_phase,723802,Racine,,52,,,,,,new,1,1,,,,,,,,,,
null,,confidence_buffer,723907,confidence_buffer,,null,,,,,,,,,,,,,,,,,,
null,,thebreak,724410,break,,null,,,,,,,,,,,,,,,,,,
2750.600000023842,,realistic_rating,727163,Briarfield,,51,Briarfield,Fictional,3,,,,,,,,,,,,,,,
null,,confidence_buffer,727269,confidence_buffer,,null,,,,,,,,,,,,,,,,,,
1123.5,,pt2_unique_rating,728394,Briarfield,,51,,,3,,,,,,,,,,,,,,,
null,,confidence_buffer,728500,confidence_buffer,,null,,,,,,,,,,,,,,,,,,
4317.0999999940395,,pt2_memorable_rating,732821,Briarfield,,49,,,1,,,,,,,,,,,,,,,
null,,confidence_buffer,732926,confidence_buffer,,null,,,,,,,,,,,,,,,,,,
4875.5999999940395,,recognition_phase,737806,Briarfield,,52,,,,,,new,0,0.8333333333333334,,,,,,,,,,
null,,confidence_buffer,737911,confidence_buffer,,null,,,,,,,,,,,,,,,,,,
null,,thebreak,738414,break,,null,,,,,,,,,,,,,,,,,,
5129.100000023842,,realistic_rating,743547,West Palm Beach,,53,West Palm Beach,US,5,,,,,,,,,,,,,,,
null,,confidence_buffer,743651,confidence_buffer,,null,,,,,,,,,,,,,,,,,,
21801.70000001788,,pt2_unique_rating,765455,West Palm Beach,,52,,,4,,,,,,,,,,,,,,,
null,,confidence_buffer,765559,confidence_buffer,,null,,,,,,,,,,,,,,,,,,
2694.899999976158,,pt2_memorable_rating,768258,West Palm Beach,,52,,,4,,,,,,,,,,,,,,,
null,,confidence_buffer,768361,confidence_buffer,,null,,,,,,,,,,,,,,,,,,
4109.299999982119,,recognition_phase,772472,West Palm Beach,,52,,,,,,new,1,0.8571428571428571,,,,,,,,,,
null,,confidence_buffer,772579,confidence_buffer,,null,,,,,,,,,,,,,,,,,,
null,,thebreak,773080,break,,null,,,,,,,,,,,,,,,,,,
2677.4000000059605,,realistic_rating,775761,Cody,,51,Cody,US,3,,,,,,,,,,,,,,,
null,,confidence_buffer,775866,confidence_buffer,,null,,,,,,,,,,,,,,,,,,
3013.2999999821186,,pt2_unique_rating,778883,Cody,,49,,,1,,,,,,,,,,,,,,,
null,,confidence_buffer,778986,confidence_buffer,,null,,,,,,,,,,,,,,,,,,
3705.699999988079,,pt2_memorable_rating,782694,Cody,,53,,,5,,,,,,,,,,,,,,,
null,,confidence_buffer,782800,confidence_buffer,,null,,,,,,,,,,,,,,,,,,
2521.699999988079,,recognition_phase,785326,Cody,,52,,,,,,new,0,0.75,,,,,,,,,,
null,,confidence_buffer,785428,confidence_buffer,,null,,,,,,,,,,,,,,,,,,
null,,thebreak,785931,break,,null,,,,,,,,,,,,,,,,,,
4698.199999988079,,realistic_rating,790631,Cedarwyn,,49,Cedarwyn,Fictional,1,,,,,,,,,,,,,,,
null,,confidence_buffer,790734,confidence_buffer,,null,,,,,,,,,,,,,,,,,,
6347.9000000059605,,pt2_unique_rating,797084,Cedarwyn,,50,,,2,,,,,,,,,,,,,,,
null,,confidence_buffer,797189,confidence_buffer,,null,,,,,,,,,,,,,,,,,,
4005.4000000059605,,pt2_memorable_rating,801199,Cedarwyn,,49,,,1,,,,,,,,,,,,,,,
null,,confidence_buffer,801301,confidence_buffer,,null,,,,,,,,,,,,,,,,,,
2072.5999999940395,,recognition_phase,803375,Cedarwyn,,52,,,,,,new,1,0.7777777777777778,,,,,,,,,,
null,,confidence_buffer,803479,confidence_buffer,,null,,,,,,,,,,,,,,,,,,
null,,thebreak,803981,break,,null,,,,,,,,,,,,,,,,,,
2350.5,,realistic_rating,806334,Silverpine,,50,Silverpine,Fictional,2,,,,,,,,,,,,,,,
null,,confidence_buffer,806439,confidence_buffer,,null,,,,,,,,,,,,,,,,,,
1227.800000011921,,pt2_unique_rating,807669,Silverpine,,50,,,2,,,,,,,,,,,,,,,
null,,confidence_buffer,807774,confidence_buffer,,null,,,,,,,,,,,,,,,,,,
2456.5999999940395,,pt2_memorable_rating,810233,Silverpine,,49,,,1,,,,,,,,,,,,,,,
null,,confidence_buffer,810336,confidence_buffer,,null,,,,,,,,,,,,,,,,,,
1921.4000000059605,,recognition_phase,812261,Silverpine,,52,,,,,,new,1,0.8,,,,,,,,,,
null,,confidence_buffer,812367,confidence_buffer,,null,,,,,,,,,,,,,,,,,,
null,,thebreak,812869,break,,null,,,,,,,,,,,,,,,,,,
18607.80000001192,,realistic_rating,831479,Sunmere,,52,Sunmere,Fictional,4,,,,,,,,,,,,,,,
null,,confidence_buffer,831583,confidence_buffer,,null,,,,,,,,,,,,,,,,,,
2133.5,,pt2_unique_rating,833718,Sunmere,,51,,,3,,,,,,,,,,,,,,,
null,,confidence_buffer,833823,confidence_buffer,,null,,,,,,,,,,,,,,,,,,
2971.7000000178814,,pt2_memorable_rating,836797,Sunmere,,52,,,4,,,,,,,,,,,,,,,
null,,confidence_buffer,836900,confidence_buffer,,null,,,,,,,,,,,,,,,,,,
1240.0999999940395,,recognition_phase,838144,Sunmere,,52,,,,,,new,0,0.7272727272727273,,,,,,,,,,
null,,confidence_buffer,838249,confidence_buffer,,null,,,,,,,,,,,,,,,,,,
null,,thebreak,838752,break,,null,,,,,,,,,,,,,,,,,,
3850.699999988079,,realistic_rating,842606,Healdsburg,,50,Healdsburg,US,2,,,,,,,,,,,,,,,
null,,confidence_buffer,842709,confidence_buffer,,null,,,,,,,,,,,,,,,,,,
2740.2000000178814,,probe_rating,845451,probe_rating,,51,,,,3,0,,,,,,,,,,,,,
null,,confidence_buffer,845555,confidence_buffer,,null,,,,,,,,,,,,,,,,,,
10259.09999999404,,pt2_unique_rating,855818,Healdsburg,,52,,,4,,,,,,,,,,,,,,,
null,,confidence_buffer,855922,confidence_buffer,,null,,,,,,,,,,,,,,,,,,
8276.199999988079,,pt2_memorable_rating,864202,Healdsburg,,53,,,5,,,,,,,,,,,,,,,
null,,confidence_buffer,864305,confidence_buffer,,null,,,,,,,,,,,,,,,,,,
1231,,recognition_phase,865538,Healdsburg,,52,,,,,,new,1,0.75,,,,,,,,,,
null,,confidence_buffer,865640,confidence_buffer,,null,,,,,,,,,,,,,,,,,,
null,,thebreak,866143,break,,null,,,,,,,,,,,,,,,,,,
3465.4000000059605,,realistic_rating,869610,Folly Beach,,51,Folly Beach,US,3,,,,,,,,,,,,,,,
null,,confidence_buffer,869714,confidence_buffer,,null,,,,,,,,,,,,,,,,,,
3581.5999999940395,,pt2_unique_rating,873297,Folly Beach,,50,,,2,,,,,,,,,,,,,,,
null,,confidence_buffer,873400,confidence_buffer,,null,,,,,,,,,,,,,,,,,,
3192.199999988079,,pt2_memorable_rating,876594,Folly Beach,,51,,,3,,,,,,,,,,,,,,,
null,,confidence_buffer,876697,confidence_buffer,,null,,,,,,,,,,,,,,,,,,
2517.699999988079,,recognition_phase,879216,Folly Beach,,52,,,,,,new,0,0.6923076923076923,,,,,,,,,,
null,,confidence_buffer,879320,confidence_buffer,,null,,,,,,,,,,,,,,,,,,
null,,thebreak,879823,break,,null,,,,,,,,,,,,,,,,,,
6289.299999982119,,realistic_rating,886114,New Verdan,,50,New Verdan,Fictional,2,,,,,,,,,,,,,,,
null,,confidence_buffer,886219,confidence_buffer,,null,,,,,,,,,,,,,,,,,,
4625.4000000059605,,pt2_unique_rating,890849,New Verdan,,50,,,2,,,,,,,,,,,,,,,
null,,confidence_buffer,890952,confidence_buffer,,null,,,,,,,,,,,,,,,,,,
3166.5,,pt2_memorable_rating,894120,New Verdan,,49,,,1,,,,,,,,,,,,,,,
null,,confidence_buffer,894235,confidence_buffer,,null,,,,,,,,,,,,,,,,,,
3488.7999999821186,,recognition_phase,897727,New Verdan,,52,,,,,,new,1,0.7142857142857143,,,,,,,,,,
null,,confidence_buffer,897831,confidence_buffer,,null,,,,,,,,,,,,,,,,,,
null,,thebreak,898333,break,,null,,,,,,,,,,,,,,,,,,
4639.5999999940395,,realistic_rating,902975,Newport,,53,Newport,US,5,,,,,,,,,,,,,,,
null,,confidence_buffer,903078,confidence_buffer,,null,,,,,,,,,,,,,,,,,,
2711,,pt2_unique_rating,905791,Newport,,52,,,4,,,,,,,,,,,,,,,
null,,confidence_buffer,905894,confidence_buffer,,null,,,,,,,,,,,,,,,,,,
2100.4000000059605,,pt2_memorable_rating,907999,Newport,,53,,,5,,,,,,,,,,,,,,,
null,,confidence_buffer,908104,confidence_buffer,,null,,,,,,,,,,,,,,,,,,
4753.0999999940395,,recognition_phase,912862,Newport,,50,,,,,,old,1,0.7333333333333333,,,,,,,,,,
null,,confidence_buffer,912967,confidence_buffer,,null,,,,,,,,,,,,,,,,,,
null,,thebreak,913470,break,,null,,,,,,,,,,,,,,,,,,
6066.9000000059605,,realistic_rating,919541,Gloucester,,53,Gloucester,US,5,,,,,,,,,,,,,,,
null,,confidence_buffer,919645,confidence_buffer,,null,,,,,,,,,,,,,,,,,,
2587.0999999940395,,pt2_unique_rating,922236,Gloucester,,52,,,4,,,,,,,,,,,,,,,
null,,confidence_buffer,922340,confidence_buffer,,null,,,,,,,,,,,,,,,,,,
1501.800000011921,,pt2_memorable_rating,923845,Gloucester,,52,,,4,,,,,,,,,,,,,,,
null,,confidence_buffer,923950,confidence_buffer,,null,,,,,,,,,,,,,,,,,,
1789.699999988079,,recognition_phase,925742,Gloucester,,49,,,,,,old,1,0.75,,,,,,,,,,
null,,confidence_buffer,925847,confidence_buffer,,null,,,,,,,,,,,,,,,,,,
null,,thebreak,926350,break,,null,,,,,,,,,,,,,,,,,,
6218.800000011921,,realistic_rating,932572,Redgrove,,52,Redgrove,Fictional,4,,,,,,,,,,,,,,,
null,,confidence_buffer,932675,confidence_buffer,,null,,,,,,,,,,,,,,,,,,
3102.300000011921,,pt2_unique_rating,935780,Redgrove,,51,,,3,,,,,,,,,,,,,,,
null,,confidence_buffer,935883,confidence_buffer,,null,,,,,,,,,,,,,,,,,,
2837.5,,pt2_memorable_rating,938723,Redgrove,,52,,,4,,,,,,,,,,,,,,,
null,,confidence_buffer,938827,confidence_buffer,,null,,,,,,,,,,,,,,,,,,
2984,,recognition_phase,941814,Redgrove,,49,,,,,,old,1,0.7647058823529411,,,,,,,,,,
null,,confidence_buffer,941920,confidence_buffer,,null,,,,,,,,,,,,,,,,,,
null,,thebreak,942422,break,,null,,,,,,,,,,,,,,,,,,
12072.700000017881,,realistic_rating,954499,Delaware City,,52,Delaware City,US,4,,,,,,,,,,,,,,,
null,,confidence_buffer,954603,confidence_buffer,,null,,,,,,,,,,,,,,,,,,
2123.5,,pt2_unique_rating,956729,Delaware City,,51,,,3,,,,,,,,,,,,,,,
null,,confidence_buffer,956832,confidence_buffer,,null,,,,,,,,,,,,,,,,,,
1622.300000011921,,pt2_memorable_rating,958459,Delaware City,,52,,,4,,,,,,,,,,,,,,,
null,,confidence_buffer,958562,confidence_buffer,,null,,,,,,,,,,,,,,,,,,
1771.2999999821186,,recognition_phase,960336,Delaware City,,49,,,,,,old,1,0.7777777777777778,,,,,,,,,,
null,,confidence_buffer,960439,confidence_buffer,,null,,,,,,,,,,,,,,,,,,
null,,thebreak,960942,break,,null,,,,,,,,,,,,,,,,,,
22884.09999999404,,realistic_rating,983830,Medora,,51,Medora,US,3,,,,,,,,,,,,,,,
null,,confidence_buffer,983936,confidence_buffer,,null,,,,,,,,,,,,,,,,,,
5913.300000011921,,probe_rating,989851,probe_rating,,53,,,,5,1,,,,,,,,,,,,,
null,,confidence_buffer,989956,confidence_buffer,,null,,,,,,,,,,,,,,,,,,
4537.9000000059605,,pt2_unique_rating,994496,Medora,,51,,,3,,,,,,,,,,,,,,,
null,,confidence_buffer,994600,confidence_buffer,,null,,,,,,,,,,,,,,,,,,
2994.7999999821186,,pt2_memorable_rating,997596,Medora,,53,,,5,,,,,,,,,,,,,,,
null,,confidence_buffer,997699,confidence_buffer,,null,,,,,,,,,,,,,,,,,,
3339.5,,recognition_phase,1001040,Medora,,51,,,,,,new,0,0.7368421052631579,,,,,,,,,,
null,,confidence_buffer,1001144,confidence_buffer,,null,,,,,,,,,,,,,,,,,,
null,,thebreak,1001646,break,,null,,,,,,,,,,,,,,,,,,
3723,,realistic_rating,1005371,Albuquerque,,50,Albuquerque,US,2,,,,,,,,,,,,,,,
null,,confidence_buffer,1005476,confidence_buffer,,null,,,,,,,,,,,,,,,,,,
2831,,pt2_unique_rating,1008309,Albuquerque,,50,,,2,,,,,,,,,,,,,,,
null,,confidence_buffer,1008413,confidence_buffer,,null,,,,,,,,,,,,,,,,,,
1620.7999999821186,,pt2_memorable_rating,1010038,Albuquerque,,49,,,1,,,,,,,,,,,,,,,
null,,confidence_buffer,1010144,confidence_buffer,,null,,,,,,,,,,,,,,,,,,
3791.2000000178814,,recognition_phase,1013937,Albuquerque,,52,,,,,,new,1,0.75,,,,,,,,,,
null,,confidence_buffer,1014041,confidence_buffer,,null,,,,,,,,,,,,,,,,,,
null,,thebreak,1014543,break,,null,,,,,,,,,,,,,,,,,,
4204.800000011921,,realistic_rating,1018752,Sisters,,53,Sisters,US,5,,,,,,,,,,,,,,,
null,,confidence_buffer,1018859,confidence_buffer,,null,,,,,,,,,,,,,,,,,,
1421.0999999940395,,pt2_unique_rating,1020284,Sisters,,53,,,5,,,,,,,,,,,,,,,
null,,confidence_buffer,1020389,confidence_buffer,,null,,,,,,,,,,,,,,,,,,
1998,,probe_rating,1022389,probe_rating,,51,,,,3,1,,,,,,,,,,,,,
null,,confidence_buffer,1022498,confidence_buffer,,null,,,,,,,,,,,,,,,,,,
5378.100000023842,,pt2_memorable_rating,1027880,Sisters,,49,,,1,,,,,,,,,,,,,,,
null,,confidence_buffer,1027984,confidence_buffer,,null,,,,,,,,,,,,,,,,,,
1346.7000000178814,,recognition_phase,1029333,Sisters,,49,,,,,,old,1,0.7619047619047619,,,,,,,,,,
null,,confidence_buffer,1029437,confidence_buffer,,null,,,,,,,,,,,,,,,,,,
null,,thebreak,1029940,break,,null,,,,,,,,,,,,,,,,,,
27347.59999999404,,realistic_rating,1057290,Lake of the Ozarks,,52,Lake of the Ozarks,US,4,,,,,,,,,,,,,,,
null,,confidence_buffer,1057401,confidence_buffer,,null,,,,,,,,,,,,,,,,,,
4959.800000011921,,pt2_unique_rating,1062365,Lake of the Ozarks,,52,,,4,,,,,,,,,,,,,,,
null,,confidence_buffer,1062470,confidence_buffer,,null,,,,,,,,,,,,,,,,,,
2310.4000000059605,,pt2_memorable_rating,1064782,Lake of the Ozarks,,49,,,1,,,,,,,,,,,,,,,
null,,confidence_buffer,1064886,confidence_buffer,,null,,,,,,,,,,,,,,,,,,
1660.300000011921,,recognition_phase,1066551,Lake of the Ozarks,,49,,,,,,old,1,0.7727272727272727,,,,,,,,,,
null,,confidence_buffer,1066654,confidence_buffer,,null,,,,,,,,,,,,,,,,,,
null,,thebreak,1067155,break,,null,,,,,,,,,,,,,,,,,,
3980.199999988079,,realistic_rating,1071138,Crestwood,,53,Crestwood,Fictional,5,,,,,,,,,,,,,,,
null,,confidence_buffer,1071243,confidence_buffer,,null,,,,,,,,,,,,,,,,,,
2144,,pt2_unique_rating,1073389,Crestwood,,51,,,3,,,,,,,,,,,,,,,
null,,confidence_buffer,1073494,confidence_buffer,,null,,,,,,,,,,,,,,,,,,
3254.199999988079,,pt2_memorable_rating,1076750,Crestwood,,50,,,2,,,,,,,,,,,,,,,
null,,confidence_buffer,1076853,confidence_buffer,,null,,,,,,,,,,,,,,,,,,
2095.699999988079,,recognition_phase,1078953,Crestwood,,50,,,,,,old,1,0.782608695652174,,,,,,,,,,
null,,confidence_buffer,1079057,confidence_buffer,,null,,,,,,,,,,,,,,,,,,
null,,thebreak,1079559,break,,null,,,,,,,,,,,,,,,,,,
3649.2000000178814,,realistic_rating,1083213,Baymarsh,,51,Baymarsh,Fictional,3,,,,,,,,,,,,,,,
null,,confidence_buffer,1083318,confidence_buffer,,null,,,,,,,,,,,,,,,,,,
2196.800000011921,,pt2_unique_rating,1085517,Baymarsh,,51,,,3,,,,,,,,,,,,,,,
null,,confidence_buffer,1085621,confidence_buffer,,null,,,,,,,,,,,,,,,,,,
1767.3999999761581,,pt2_memorable_rating,1087393,Baymarsh,,51,,,3,,,,,,,,,,,,,,,
null,,confidence_buffer,1087498,confidence_buffer,,null,,,,,,,,,,,,,,,,,,
1676.800000011921,,recognition_phase,1089180,Baymarsh,,49,,,,,,old,1,0.7916666666666666,,,,,,,,,,
null,,confidence_buffer,1089283,confidence_buffer,,null,,,,,,,,,,,,,,,,,,
null,,thebreak,1089786,break,,null,,,,,,,,,,,,,,,,,,
4457,,realistic_rating,1094246,Cleveland,,53,Cleveland,US,5,,,,,,,,,,,,,,,
null,,confidence_buffer,1094350,confidence_buffer,,null,,,,,,,,,,,,,,,,,,
1991.3999999761581,,pt2_unique_rating,1096343,Cleveland,,52,,,4,,,,,,,,,,,,,,,
null,,confidence_buffer,1096447,confidence_buffer,,null,,,,,,,,,,,,,,,,,,
4163.800000011921,,pt2_memorable_rating,1100612,Cleveland,,52,,,4,,,,,,,,,,,,,,,
null,,confidence_buffer,1100716,confidence_buffer,,null,,,,,,,,,,,,,,,,,,
2847.800000011921,,recognition_phase,1103569,Cleveland,,51,,,,,,new,1,0.8,,,,,,,,,,
null,,confidence_buffer,1103677,confidence_buffer,,null,,,,,,,,,,,,,,,,,,
null,,thebreak,1104179,break,,null,,,,,,,,,,,,,,,,,,
5790.399999976158,,realistic_rating,1109972,Berkeley Springs,,53,Berkeley Springs,US,5,,,,,,,,,,,,,,,
null,,confidence_buffer,1110075,confidence_buffer,,null,,,,,,,,,,,,,,,,,,
1482.0999999940395,,pt2_unique_rating,1111561,Berkeley Springs,,52,,,4,,,,,,,,,,,,,,,
null,,confidence_buffer,1111667,confidence_buffer,,null,,,,,,,,,,,,,,,,,,
3833.9000000059605,,pt2_memorable_rating,1115505,Berkeley Springs,,52,,,4,,,,,,,,,,,,,,,
null,,confidence_buffer,1115610,confidence_buffer,,null,,,,,,,,,,,,,,,,,,
2487.0999999940395,,recognition_phase,1118099,Berkeley Springs,,49,,,,,,old,1,0.8076923076923077,,,,,,,,,,
null,,confidence_buffer,1118203,confidence_buffer,,null,,,,,,,,,,,,,,,,,,
null,,thebreak,1118705,break,,null,,,,,,,,,,,,,,,,,,
5741.0999999940395,,realistic_rating,1124449,Alliance,,51,Alliance,US,3,,,,,,,,,,,,,,,
null,,confidence_buffer,1124551,confidence_buffer,,null,,,,,,,,,,,,,,,,,,
3252.699999988079,,probe_rating,1127806,probe_rating,,53,,,,5,1,,,,,,,,,,,,,
null,,confidence_buffer,1127911,confidence_buffer,,null,,,,,,,,,,,,,,,,,,
7290.100000023842,,pt2_unique_rating,1135205,Alliance,,51,,,3,,,,,,,,,,,,,,,
null,,confidence_buffer,1135308,confidence_buffer,,null,,,,,,,,,,,,,,,,,,
3304.4000000059605,,pt2_memorable_rating,1138614,Alliance,,53,,,5,,,,,,,,,,,,,,,
null,,confidence_buffer,1138717,confidence_buffer,,null,,,,,,,,,,,,,,,,,,
1582.4000000059605,,recognition_phase,1140304,Alliance,,52,,,,,,new,1,0.8148148148148148,,,,,,,,,,
null,,confidence_buffer,1140409,confidence_buffer,,null,,,,,,,,,,,,,,,,,,
null,,thebreak,1140912,break,,null,,,,,,,,,,,,,,,,,,
4314.800000011921,,realistic_rating,1145230,Natchez,,51,Natchez,US,3,,,,,,,,,,,,,,,
null,,confidence_buffer,1145335,confidence_buffer,,null,,,,,,,,,,,,,,,,,,
1308.9000000059605,,pt2_unique_rating,1146647,Natchez,,51,,,3,,,,,,,,,,,,,,,
null,,confidence_buffer,1146751,confidence_buffer,,null,,,,,,,,,,,,,,,,,,
3133.9000000059605,,pt2_memorable_rating,1149888,Natchez,,52,,,4,,,,,,,,,,,,,,,
null,,confidence_buffer,1149991,confidence_buffer,,null,,,,,,,,,,,,,,,,,,
1592.199999988079,,recognition_phase,1151585,Natchez,,50,,,,,,old,1,0.8214285714285714,,,,,,,,,,
null,,confidence_buffer,1151691,confidence_buffer,,null,,,,,,,,,,,,,,,,,,
null,,thebreak,1152192,break,,null,,,,,,,,,,,,,,,,,,
4174.0999999940395,,realistic_rating,1156368,Hollendale,,52,Hollendale,Fictional,4,,,,,,,,,,,,,,,
null,,confidence_buffer,1156473,confidence_buffer,,null,,,,,,,,,,,,,,,,,,
6103,,pt2_unique_rating,1162578,Hollendale,,51,,,3,,,,,,,,,,,,,,,
null,,confidence_buffer,1162681,confidence_buffer,,null,,,,,,,,,,,,,,,,,,
1844.4000000059605,,pt2_memorable_rating,1164530,Hollendale,,52,,,4,,,,,,,,,,,,,,,
null,,confidence_buffer,1164634,confidence_buffer,,null,,,,,,,,,,,,,,,,,,
2493.4000000059605,,recognition_phase,1167133,Hollendale,,52,,,,,,new,1,0.8275862068965517,,,,,,,,,,
null,,confidence_buffer,1167236,confidence_buffer,,null,,,,,,,,,,,,,,,,,,
null,,thebreak,1167738,break,,null,,,,,,,,,,,,,,,,,,
5392.800000011921,,realistic_rating,1173133,Manistee,,50,Manistee,US,2,,,,,,,,,,,,,,,
null,,confidence_buffer,1173238,confidence_buffer,,null,,,,,,,,,,,,,,,,,,
3173.5999999940395,,pt2_unique_rating,1176414,Manistee,,50,,,2,,,,,,,,,,,,,,,
null,,confidence_buffer,1176518,confidence_buffer,,null,,,,,,,,,,,,,,,,,,
2366.0999999940395,,pt2_memorable_rating,1178886,Manistee,,49,,,1,,,,,,,,,,,,,,,
null,,confidence_buffer,1178990,confidence_buffer,,null,,,,,,,,,,,,,,,,,,
4079.5,,recognition_phase,1183075,Manistee,,52,,,,,,new,0,0.8,,,,,,,,,,
null,,confidence_buffer,1183180,confidence_buffer,,null,,,,,,,,,,,,,,,,,,
null,,thebreak,1183683,break,,null,,,,,,,,,,,,,,,,,,
15055,,realistic_rating,1198742,Fairhaven,,51,Fairhaven,Fictional,3,,,,,,,,,,,,,,,
null,,confidence_buffer,1198844,confidence_buffer,,null,,,,,,,,,,,,,,,,,,
2372.4000000059605,,pt2_unique_rating,1201219,Fairhaven,,51,,,3,,,,,,,,,,,,,,,
null,,confidence_buffer,1201322,confidence_buffer,,null,,,,,,,,,,,,,,,,,,
1333.5,,pt2_memorable_rating,1202658,Fairhaven,,51,,,3,,,,,,,,,,,,,,,
null,,confidence_buffer,1202765,confidence_buffer,,null,,,,,,,,,,,,,,,,,,
1531.3999999761581,,recognition_phase,1204298,Fairhaven,,49,,,,,,old,0,0.7741935483870968,,,,,,,,,,
null,,confidence_buffer,1204401,confidence_buffer,,null,,,,,,,,,,,,,,,,,,
null,,thebreak,1204904,break,,null,,,,,,,,,,,,,,,,,,
2792.5999999940395,,realistic_rating,1207700,Gatlinburg,,51,Gatlinburg,US,3,,,,,,,,,,,,,,,
null,,confidence_buffer,1207805,confidence_buffer,,null,,,,,,,,,,,,,,,,,,
1776.4000000059605,,pt2_unique_rating,1209583,Gatlinburg,,52,,,4,,,,,,,,,,,,,,,
null,,confidence_buffer,1209687,confidence_buffer,,null,,,,,,,,,,,,,,,,,,
1516,,pt2_memorable_rating,1211205,Gatlinburg,,50,,,2,,,,,,,,,,,,,,,
null,,confidence_buffer,1211309,confidence_buffer,,null,,,,,,,,,,,,,,,,,,
2739.100000023842,,recognition_phase,1214050,Gatlinburg,,52,,,,,,new,1,0.78125,,,,,,,,,,
null,,confidence_buffer,1214153,confidence_buffer,,null,,,,,,,,,,,,,,,,,,
null,,thebreak,1214656,break,,null,,,,,,,,,,,,,,,,,,
5302.5999999940395,,realistic_rating,1219960,Lakehaven,,51,Lakehaven,Fictional,3,,,,,,,,,,,,,,,
null,,confidence_buffer,1220066,confidence_buffer,,null,,,,,,,,,,,,,,,,,,
2288.699999988079,,pt2_unique_rating,1222356,Lakehaven,,52,,,4,,,,,,,,,,,,,,,
null,,confidence_buffer,1222460,confidence_buffer,,null,,,,,,,,,,,,,,,,,,
3094.4000000059605,,pt2_memorable_rating,1225556,Lakehaven,,53,,,5,,,,,,,,,,,,,,,
null,,confidence_buffer,1225659,confidence_buffer,,null,,,,,,,,,,,,,,,,,,
1273.8999999761581,,recognition_phase,1226937,Lakehaven,,49,,,,,,old,1,0.7878787878787878,,,,,,,,,,
null,,confidence_buffer,1227043,confidence_buffer,,null,,,,,,,,,,,,,,,,,,
null,,thebreak,1227545,break,,null,,,,,,,,,,,,,,,,,,
4291.200000017881,,realistic_rating,1231838,Maravilla Springs,,52,Maravilla Springs,Fictional,4,,,,,,,,,,,,,,,
null,,confidence_buffer,1231943,confidence_buffer,,null,,,,,,,,,,,,,,,,,,
2372.100000023842,,pt2_unique_rating,1234317,Maravilla Springs,,51,,,3,,,,,,,,,,,,,,,
null,,confidence_buffer,1234423,confidence_buffer,,null,,,,,,,,,,,,,,,,,,
3621.9000000059605,,pt2_memorable_rating,1238046,Maravilla Springs,,50,,,2,,,,,,,,,,,,,,,
null,,confidence_buffer,1238150,confidence_buffer,,null,,,,,,,,,,,,,,,,,,
2119.699999988079,,recognition_phase,1240274,Maravilla Springs,,50,,,,,,old,1,0.7941176470588235,,,,,,,,,,
null,,confidence_buffer,1240377,confidence_buffer,,null,,,,,,,,,,,,,,,,,,
null,,thebreak,1240879,break,,null,,,,,,,,,,,,,,,,,,
6822.199999988079,,realistic_rating,1247703,Coeur d'Alene,,52,Coeur d'Alene,US,4,,,,,,,,,,,,,,,
null,,confidence_buffer,1247807,confidence_buffer,,null,,,,,,,,,,,,,,,,,,
2102.699999988079,,pt2_unique_rating,1249913,Coeur d'Alene,,53,,,5,,,,,,,,,,,,,,,
null,,confidence_buffer,1250018,confidence_buffer,,null,,,,,,,,,,,,,,,,,,
2425.0999999940395,,pt2_memorable_rating,1252447,Coeur d'Alene,,53,,,5,,,,,,,,,,,,,,,
null,,confidence_buffer,1252551,confidence_buffer,,null,,,,,,,,,,,,,,,,,,
2778.5999999940395,,recognition_phase,1255334,Coeur d'Alene,,52,,,,,,new,1,0.8,,,,,,,,,,
null,,confidence_buffer,1255437,confidence_buffer,,null,,,,,,,,,,,,,,,,,,
null,,thebreak,1255940,break,,null,,,,,,,,,,,,,,,,,,
2625.7000000178814,,realistic_rating,1258567,Bisbee,,51,Bisbee,US,3,,,,,,,,,,,,,,,
null,,confidence_buffer,1258670,confidence_buffer,,null,,,,,,,,,,,,,,,,,,
1411.5999999940395,,pt2_unique_rating,1260084,Bisbee,,51,,,3,,,,,,,,,,,,,,,
null,,confidence_buffer,1260186,confidence_buffer,,null,,,,,,,,,,,,,,,,,,
2581.100000023842,,pt2_memorable_rating,1262769,Bisbee,,50,,,2,,,,,,,,,,,,,,,
null,,confidence_buffer,1262873,confidence_buffer,,null,,,,,,,,,,,,,,,,,,
2122.2999999821186,,recognition_phase,1264997,Bisbee,,52,,,,,,new,1,0.8055555555555556,,,,,,,,,,
null,,confidence_buffer,1265101,confidence_buffer,,null,,,,,,,,,,,,,,,,,,
null,,thebreak,1265609,break,,null,,,,,,,,,,,,,,,,,,
6763.300000011921,,realistic_rating,1272376,Sierra Hollow,,50,Sierra Hollow,Fictional,2,,,,,,,,,,,,,,,
null,,confidence_buffer,1272479,confidence_buffer,,null,,,,,,,,,,,,,,,,,,
2790.4000000059605,,pt2_unique_rating,1275274,Sierra Hollow,,51,,,3,,,,,,,,,,,,,,,
null,,confidence_buffer,1275377,confidence_buffer,,null,,,,,,,,,,,,,,,,,,
2415,,pt2_memorable_rating,1277793,Sierra Hollow,,50,,,2,,,,,,,,,,,,,,,
null,,confidence_buffer,1277898,confidence_buffer,,null,,,,,,,,,,,,,,,,,,
3176,,recognition_phase,1281077,Sierra Hollow,,51,,,,,,new,1,0.8108108108108109,,,,,,,,,,
null,,confidence_buffer,1281193,confidence_buffer,,null,,,,,,,,,,,,,,,,,,
null,,thebreak,1281696,break,,null,,,,,,,,,,,,,,,,,,
4680.5999999940395,,realistic_rating,1286378,Orr,,50,Orr,US,2,,,,,,,,,,,,,,,
null,,confidence_buffer,1286482,confidence_buffer,,null,,,,,,,,,,,,,,,,,,
2363.2000000178814,,pt2_unique_rating,1288847,Orr,,50,,,2,,,,,,,,,,,,,,,
null,,confidence_buffer,1288951,confidence_buffer,,null,,,,,,,,,,,,,,,,,,
3775.7000000178814,,pt2_memorable_rating,1292729,Orr,,52,,,4,,,,,,,,,,,,,,,
null,,confidence_buffer,1292835,confidence_buffer,,null,,,,,,,,,,,,,,,,,,
2321.4000000059605,,recognition_phase,1295158,Orr,,52,,,,,,new,1,0.8157894736842105,,,,,,,,,,
null,,confidence_buffer,1295261,confidence_buffer,,null,,,,,,,,,,,,,,,,,,
null,,thebreak,1295764,break,,null,,,,,,,,,,,,,,,,,,
3484,,realistic_rating,1299251,Maplehurst,,50,Maplehurst,Fictional,2,,,,,,,,,,,,,,,
null,,confidence_buffer,1299357,confidence_buffer,,null,,,,,,,,,,,,,,,,,,
4977.800000011921,,pt2_unique_rating,1304339,Maplehurst,,52,,,4,,,,,,,,,,,,,,,
null,,confidence_buffer,1304442,confidence_buffer,,null,,,,,,,,,,,,,,,,,,
2410.199999988079,,pt2_memorable_rating,1306856,Maplehurst,,52,,,4,,,,,,,,,,,,,,,
null,,confidence_buffer,1306959,confidence_buffer,,null,,,,,,,,,,,,,,,,,,
1797,,recognition_phase,1308760,Maplehurst,,52,,,,,,new,1,0.8205128205128205,,,,,,,,,,
null,,confidence_buffer,1308864,confidence_buffer,,null,,,,,,,,,,,,,,,,,,
null,,thebreak,1309366,break,,null,,,,,,,,,,,,,,,,,,
6907,,realistic_rating,1316278,Gardnerville,,52,Gardnerville,US,4,,,,,,,,,,,,,,,
null,,confidence_buffer,1316380,confidence_buffer,,null,,,,,,,,,,,,,,,,,,
1616.4000000059605,,pt2_unique_rating,1318001,Gardnerville,,52,,,4,,,,,,,,,,,,,,,
null,,confidence_buffer,1318105,confidence_buffer,,null,,,,,,,,,,,,,,,,,,
2406.9000000059605,,pt2_memorable_rating,1320516,Gardnerville,,52,,,4,,,,,,,,,,,,,,,
null,,confidence_buffer,1320619,confidence_buffer,,null,,,,,,,,,,,,,,,,,,
1975.7000000178814,,recognition_phase,1322599,Gardnerville,,50,,,,,,old,0,0.8,,,,,,,,,,
null,,confidence_buffer,1322703,confidence_buffer,,null,,,,,,,,,,,,,,,,,,
null,,thebreak,1323206,break,,null,,,,,,,,,,,,,,,,,,
3846.0999999940395,,realistic_rating,1327054,Okoboji,,50,Okoboji,US,2,,,,,,,,,,,,,,,
null,,confidence_buffer,1327157,confidence_buffer,,null,,,,,,,,,,,,,,,,,,
1496.7000000178814,,pt2_unique_rating,1328658,Okoboji,,50,,,2,,,,,,,,,,,,,,,
null,,confidence_buffer,1328761,confidence_buffer,,null,,,,,,,,,,,,,,,,,,
1549.1000000238419,,pt2_memorable_rating,1330315,Okoboji,,50,,,2,,,,,,,,,,,,,,,
null,,confidence_buffer,1330419,confidence_buffer,,null,,,,,,,,,,,,,,,,,,
2226.899999976158,,recognition_phase,1332650,Okoboji,,52,,,,,,new,1,0.8048780487804879,,,,,,,,,,
null,,confidence_buffer,1332754,confidence_buffer,,null,,,,,,,,,,,,,,,,,,
null,,thebreak,1333257,break,,null,,,,,,,,,,,,,,,,,,
2695,,realistic_rating,1335954,Meadowspire,,50,Meadowspire,Fictional,2,,,,,,,,,,,,,,,
null,,confidence_buffer,1336057,confidence_buffer,,null,,,,,,,,,,,,,,,,,,
1707.7999999821186,,pt2_unique_rating,1337767,Meadowspire,,50,,,2,,,,,,,,,,,,,,,
null,,confidence_buffer,1337870,confidence_buffer,,null,,,,,,,,,,,,,,,,,,
1101,,pt2_memorable_rating,1338975,Meadowspire,,50,,,2,,,,,,,,,,,,,,,
null,,confidence_buffer,1339079,confidence_buffer,,null,,,,,,,,,,,,,,,,,,
3220.199999988079,,recognition_phase,1342303,Meadowspire,,52,,,,,,new,1,0.8095238095238095,,,,,,,,,,
null,,confidence_buffer,1342408,confidence_buffer,,null,,,,,,,,,,,,,,,,,,
null,,thebreak,1342910,break,,null,,,,,,,,,,,,,,,,,,
2931,,realistic_rating,1345843,Riverlyn,,51,Riverlyn,Fictional,3,,,,,,,,,,,,,,,
null,,confidence_buffer,1345948,confidence_buffer,,null,,,,,,,,,,,,,,,,,,
3645.899999976158,,probe_rating,1349596,probe_rating,,49,,,,1,1,,,,,,,,,,,,,
null,,confidence_buffer,1349701,confidence_buffer,,null,,,,,,,,,,,,,,,,,,
4035.0999999940395,,pt2_unique_rating,1353740,Riverlyn,,51,,,3,,,,,,,,,,,,,,,
null,,confidence_buffer,1353844,confidence_buffer,,null,,,,,,,,,,,,,,,,,,
2032.199999988079,,pt2_memorable_rating,1355878,Riverlyn,,51,,,3,,,,,,,,,,,,,,,
null,,confidence_buffer,1355982,confidence_buffer,,null,,,,,,,,,,,,,,,,,,
1783,,recognition_phase,1357767,Riverlyn,,52,,,,,,new,1,0.813953488372093,,,,,,,,,,
null,,confidence_buffer,1357872,confidence_buffer,,null,,,,,,,,,,,,,,,,,,
null,,thebreak,1358374,break,,null,,,,,,,,,,,,,,,,,,
2723.699999988079,,realistic_rating,1361100,Montelake,,51,Montelake,Fictional,3,,,,,,,,,,,,,,,
null,,confidence_buffer,1361204,confidence_buffer,,null,,,,,,,,,,,,,,,,,,
1701.5,,pt2_unique_rating,1362907,Montelake,,51,,,3,,,,,,,,,,,,,,,
null,,confidence_buffer,1363011,confidence_buffer,,null,,,,,,,,,,,,,,,,,,
2360.699999988079,,pt2_memorable_rating,1365373,Montelake,,51,,,3,,,,,,,,,,,,,,,
null,,confidence_buffer,1365478,confidence_buffer,,null,,,,,,,,,,,,,,,,,,
1518.699999988079,,recognition_phase,1366999,Montelake,,51,,,,,,new,0,0.7954545454545454,,,,,,,,,,
null,,confidence_buffer,1367101,confidence_buffer,,null,,,,,,,,,,,,,,,,,,
null,,thebreak,1367604,break,,null,,,,,,,,,,,,,,,,,,
2476.7000000178814,,realistic_rating,1370083,Pine Hollow,,53,Pine Hollow,Fictional,5,,,,,,,,,,,,,,,
null,,confidence_buffer,1370189,confidence_buffer,,null,,,,,,,,,,,,,,,,,,
3342.7999999821186,,pt2_unique_rating,1373533,Pine Hollow,,53,,,5,,,,,,,,,,,,,,,
null,,confidence_buffer,1373637,confidence_buffer,,null,,,,,,,,,,,,,,,,,,
1829.199999988079,,pt2_memorable_rating,1375470,Pine Hollow,,53,,,5,,,,,,,,,,,,,,,
null,,confidence_buffer,1375571,confidence_buffer,,null,,,,,,,,,,,,,,,,,,
4120.5,,recognition_phase,1379694,Pine Hollow,,51,,,,,,new,1,0.8,,,,,,,,,,
null,,confidence_buffer,1379799,confidence_buffer,,null,,,,,,,,,,,,,,,,,,
null,,thebreak,1380302,break,,null,,,,,,,,,,,,,,,,,,
3760.199999988079,,realistic_rating,1384064,Livingston,,51,Livingston,US,3,,,,,,,,,,,,,,,
null,,confidence_buffer,1384168,confidence_buffer,,null,,,,,,,,,,,,,,,,,,
1072.199999988079,,pt2_unique_rating,1385244,Livingston,,51,,,3,,,,,,,,,,,,,,,
null,,confidence_buffer,1385346,confidence_buffer,,null,,,,,,,,,,,,,,,,,,
1652.199999988079,,probe_rating,1387000,probe_rating,,53,,,,5,1,,,,,,,,,,,,,
null,,confidence_buffer,1387105,confidence_buffer,,null,,,,,,,,,,,,,,,,,,
1200.2000000178814,,pt2_memorable_rating,1388308,Livingston,,51,,,3,,,,,,,,,,,,,,,
null,,confidence_buffer,1388411,confidence_buffer,,null,,,,,,,,,,,,,,,,,,
1330.0999999940395,,recognition_phase,1389746,Livingston,,49,,,,,,old,1,0.8043478260869565,,,,,,,,,,
null,,confidence_buffer,1389850,confidence_buffer,,null,,,,,,,,,,,,,,,,,,
null,,thebreak,1390353,break,,null,,,,,,,,,,,,,,,,,,
4612.699999988079,,realistic_rating,1394969,Boulder,,52,Boulder,US,4,,,,,,,,,,,,,,,
null,,confidence_buffer,1395073,confidence_buffer,,null,,,,,,,,,,,,,,,,,,
2529.5,,pt2_unique_rating,1397606,Boulder,,51,,,3,,,,,,,,,,,,,,,
null,,confidence_buffer,1397712,confidence_buffer,,null,,,,,,,,,,,,,,,,,,
4457,,pt2_memorable_rating,1402171,Boulder,,52,,,4,,,,,,,,,,,,,,,
null,,confidence_buffer,1402274,confidence_buffer,,null,,,,,,,,,,,,,,,,,,
2151.5,,recognition_phase,1404428,Boulder,,49,,,,,,old,0,0.7872340425531915,,,,,,,,,,
null,,confidence_buffer,1404531,confidence_buffer,,null,,,,,,,,,,,,,,,,,,
null,,thebreak,1405034,break,,null,,,,,,,,,,,,,,,,,,
2838.300000011921,,realistic_rating,1407876,Northbridge,,51,Northbridge,Fictional,3,,,,,,,,,,,,,,,
null,,confidence_buffer,1407982,confidence_buffer,,null,,,,,,,,,,,,,,,,,,
4614.800000011921,,pt2_unique_rating,1412599,Northbridge,,51,,,3,,,,,,,,,,,,,,,
null,,confidence_buffer,1412701,confidence_buffer,,null,,,,,,,,,,,,,,,,,,
790.2000000178814,,pt2_memorable_rating,1413494,Northbridge,,51,,,3,,,,,,,,,,,,,,,
null,,confidence_buffer,1413599,confidence_buffer,,null,,,,,,,,,,,,,,,,,,
1206.0999999940395,,recognition_phase,1414810,Northbridge,,49,,,,,,old,0,0.7708333333333334,,,,,,,,,,
null,,confidence_buffer,1414913,confidence_buffer,,null,,,,,,,,,,,,,,,,,,
null,,thebreak,1415423,break,,null,,,,,,,,,,,,,,,,,,
5820.4000000059605,,realistic_rating,1421245,Bowling Green,,52,Bowling Green,US,4,,,,,,,,,,,,,,,
null,,confidence_buffer,1421348,confidence_buffer,,null,,,,,,,,,,,,,,,,,,
1766.9000000059605,,pt2_unique_rating,1423118,Bowling Green,,53,,,5,,,,,,,,,,,,,,,
null,,confidence_buffer,1423221,confidence_buffer,,null,,,,,,,,,,,,,,,,,,
1563.699999988079,,pt2_memorable_rating,1424787,Bowling Green,,52,,,4,,,,,,,,,,,,,,,
null,,confidence_buffer,1424890,confidence_buffer,,null,,,,,,,,,,,,,,,,,,
3156.0999999940395,,recognition_phase,1428051,Bowling Green,,50,,,,,,old,1,0.7755102040816326,,,,,,,,,,
null,,confidence_buffer,1428156,confidence_buffer,,null,,,,,,,,,,,,,,,,,,
null,,thebreak,1428657,break,,null,,,,,,,,,,,,,,,,,,
8492.199999988079,,realistic_rating,1437152,Falconridge,,51,Falconridge,Fictional,3,,,,,,,,,,,,,,,
null,,confidence_buffer,1437257,confidence_buffer,,null,,,,,,,,,,,,,,,,,,
1821,,probe_rating,1439082,probe_rating,,51,,,,3,1,,,,,,,,,,,,,
null,,confidence_buffer,1439185,confidence_buffer,,null,,,,,,,,,,,,,,,,,,
3156,,pt2_unique_rating,1442343,Falconridge,,52,,,4,,,,,,,,,,,,,,,
null,,confidence_buffer,1442448,confidence_buffer,,null,,,,,,,,,,,,,,,,,,
1845.199999988079,,pt2_memorable_rating,1444295,Falconridge,,50,,,2,,,,,,,,,,,,,,,
null,,confidence_buffer,1444397,confidence_buffer,,null,,,,,,,,,,,,,,,,,,
4594.800000011921,,recognition_phase,1448994,Falconridge,,51,,,,,,new,1,0.78,,,,,,,,,,
null,,confidence_buffer,1449097,confidence_buffer,,null,,,,,,,,,,,,,,,,,,
null,,thebreak,1449599,break,,null,,,,,,,,,,,,,,,,,,
6756.4000000059605,,realistic_rating,1456357,Willowford,,51,Willowford,Fictional,3,,,,,,,,,,,,,,,
null,,confidence_buffer,1456461,confidence_buffer,,null,,,,,,,,,,,,,,,,,,
1077.4000000059605,,pt2_unique_rating,1457540,Willowford,,50,,,2,,,,,,,,,,,,,,,
null,,confidence_buffer,1457643,confidence_buffer,,null,,,,,,,,,,,,,,,,,,
1046,,pt2_memorable_rating,1458691,Willowford,,51,,,3,,,,,,,,,,,,,,,
null,,confidence_buffer,1458794,confidence_buffer,,null,,,,,,,,,,,,,,,,,,
931,,recognition_phase,1459728,Willowford,,50,,,,,,old,0,0.7647058823529411,,,,,,,,,,
null,,confidence_buffer,1459831,confidence_buffer,,null,,,,,,,,,,,,,,,,,,
null,,thebreak,1460333,break,,null,,,,,,,,,,,,,,,,,,
2502.699999988079,,realistic_rating,1462838,Highvale,,52,Highvale,Fictional,4,,,,,,,,,,,,,,,
null,,confidence_buffer,1462943,confidence_buffer,,null,,,,,,,,,,,,,,,,,,
842.1999999880791,,pt2_unique_rating,1463787,Highvale,,51,,,3,,,,,,,,,,,,,,,
null,,confidence_buffer,1463890,confidence_buffer,,null,,,,,,,,,,,,,,,,,,
868.5,,pt2_memorable_rating,1464761,Highvale,,50,,,2,,,,,,,,,,,,,,,
null,,confidence_buffer,1464866,confidence_buffer,,null,,,,,,,,,,,,,,,,,,
1823.8999999761581,,recognition_phase,1466692,Highvale,,50,,,,,,old,1,0.7692307692307693,,,,,,,,,,
null,,confidence_buffer,1466796,confidence_buffer,,null,,,,,,,,,,,,,,,,,,
null,,thebreak,1467298,break,,null,,,,,,,,,,,,,,,,,,
3428.5999999940395,,realistic_rating,1470729,Coralridge,,52,Coralridge,Fictional,4,,,,,,,,,,,,,,,
null,,confidence_buffer,1470833,confidence_buffer,,null,,,,,,,,,,,,,,,,,,
905.9000000059605,,pt2_unique_rating,1471742,Coralridge,,52,,,4,,,,,,,,,,,,,,,
null,,confidence_buffer,1471848,confidence_buffer,,null,,,,,,,,,,,,,,,,,,
976.4000000059605,,pt2_memorable_rating,1472828,Coralridge,,51,,,3,,,,,,,,,,,,,,,
null,,confidence_buffer,1472945,confidence_buffer,,null,,,,,,,,,,,,,,,,,,
1372.5,,recognition_phase,1474320,Coralridge,,50,,,,,,old,1,0.7735849056603774,,,,,,,,,,
null,,confidence_buffer,1474423,confidence_buffer,,null,,,,,,,,,,,,,,,,,,
null,,thebreak,1474926,break,,null,,,,,,,,,,,,,,,,,,
5444.100000023842,,realistic_rating,1480374,Summershade,,52,Summershade,Fictional,4,,,,,,,,,,,,,,,
null,,confidence_buffer,1480478,confidence_buffer,,null,,,,,,,,,,,,,,,,,,
2254.5,,pt2_unique_rating,1482734,Summershade,,52,,,4,,,,,,,,,,,,,,,
null,,confidence_buffer,1482838,confidence_buffer,,null,,,,,,,,,,,,,,,,,,
1153,,pt2_memorable_rating,1483994,Summershade,,52,,,4,,,,,,,,,,,,,,,
null,,confidence_buffer,1484100,confidence_buffer,,null,,,,,,,,,,,,,,,,,,
1573.699999988079,,recognition_phase,1485678,Summershade,,49,,,,,,old,1,0.7777777777777778,,,,,,,,,,
null,,confidence_buffer,1485781,confidence_buffer,,null,,,,,,,,,,,,,,,,,,
null,,thebreak,1486283,break,,null,,,,,,,,,,,,,,,,,,
2874.7999999821186,,realistic_rating,1489160,East Ladera,,52,East Ladera,Fictional,4,,,,,,,,,,,,,,,
null,,confidence_buffer,1489270,confidence_buffer,,null,,,,,,,,,,,,,,,,,,
1031,,pt2_unique_rating,1490303,East Ladera,,52,,,4,,,,,,,,,,,,,,,
null,,confidence_buffer,1490407,confidence_buffer,,null,,,,,,,,,,,,,,,,,,
1352.5,,pt2_memorable_rating,1491762,East Ladera,,51,,,3,,,,,,,,,,,,,,,
null,,confidence_buffer,1491866,confidence_buffer,,null,,,,,,,,,,,,,,,,,,
1848.699999988079,,recognition_phase,1493719,East Ladera,,52,,,,,,new,1,0.7818181818181819,,,,,,,,,,
null,,confidence_buffer,1493824,confidence_buffer,,null,,,,,,,,,,,,,,,,,,
null,,thebreak,1494327,break,,null,,,,,,,,,,,,,,,,,,
2438.2999999821186,,realistic_rating,1496767,Hawthorne Bluffs,,50,Hawthorne Bluffs,Fictional,2,,,,,,,,,,,,,,,
null,,confidence_buffer,1496873,confidence_buffer,,null,,,,,,,,,,,,,,,,,,
4263.5999999940395,,pt2_unique_rating,1501138,Hawthorne Bluffs,,50,,,2,,,,,,,,,,,,,,,
null,,confidence_buffer,1501242,confidence_buffer,,null,,,,,,,,,,,,,,,,,,
2056.5,,probe_rating,1503300,probe_rating,,50,,,,2,1,,,,,,,,,,,,,
null,,confidence_buffer,1503405,confidence_buffer,,null,,,,,,,,,,,,,,,,,,
5773.299999982119,,pt2_memorable_rating,1509183,Hawthorne Bluffs,,51,,,3,,,,,,,,,,,,,,,
null,,confidence_buffer,1509286,confidence_buffer,,null,,,,,,,,,,,,,,,,,,
2666.2999999821186,,recognition_phase,1511954,Hawthorne Bluffs,,52,,,,,,new,0,0.7678571428571429,,,,,,,,,,
null,,confidence_buffer,1512057,confidence_buffer,,null,,,,,,,,,,,,,,,,,,
null,,thebreak,1512559,break,,null,,,,,,,,,,,,,,,,,,
5272,,realistic_rating,1517835,Huntsville,,53,Huntsville,US,5,,,,,,,,,,,,,,,
null,,confidence_buffer,1517939,confidence_buffer,,null,,,,,,,,,,,,,,,,,,
2780.899999976158,,pt2_unique_rating,1520722,Huntsville,,53,,,5,,,,,,,,,,,,,,,
null,,confidence_buffer,1520827,confidence_buffer,,null,,,,,,,,,,,,,,,,,,
4249.4000000059605,,pt2_memorable_rating,1525079,Huntsville,,53,,,5,,,,,,,,,,,,,,,
null,,confidence_buffer,1525182,confidence_buffer,,null,,,,,,,,,,,,,,,,,,
1697,,recognition_phase,1526881,Huntsville,,49,,,,,,old,1,0.7719298245614035,,,,,,,,,,
null,,confidence_buffer,1526984,confidence_buffer,,null,,,,,,,,,,,,,,,,,,
null,,thebreak,1527499,break,,null,,,,,,,,,,,,,,,,,,
6220.800000011921,,realistic_rating,1533721,Sammamish,,51,Sammamish,US,3,,,,,,,,,,,,,,,
null,,confidence_buffer,1533825,confidence_buffer,,null,,,,,,,,,,,,,,,,,,
2042.699999988079,,pt2_unique_rating,1535872,Sammamish,,51,,,3,,,,,,,,,,,,,,,
null,,confidence_buffer,1535975,confidence_buffer,,null,,,,,,,,,,,,,,,,,,
2831.0999999940395,,pt2_memorable_rating,1538810,Sammamish,,53,,,5,,,,,,,,,,,,,,,
null,,confidence_buffer,1538915,confidence_buffer,,null,,,,,,,,,,,,,,,,,,
1565.0999999940395,,recognition_phase,1540482,Sammamish,,49,,,,,,old,1,0.7758620689655172,,,,,,,,,,
null,,confidence_buffer,1540587,confidence_buffer,,null,,,,,,,,,,,,,,,,,,
null,,thebreak,1541090,break,,null,,,,,,,,,,,,,,,,,,
7790.699999988079,,realistic_rating,1548884,Ravenport,,52,Ravenport,Fictional,4,,,,,,,,,,,,,,,
null,,confidence_buffer,1548987,confidence_buffer,,null,,,,,,,,,,,,,,,,,,
2628.4000000059605,,pt2_unique_rating,1551618,Ravenport,,53,,,5,,,,,,,,,,,,,,,
null,,confidence_buffer,1551722,confidence_buffer,,null,,,,,,,,,,,,,,,,,,
1401.699999988079,,pt2_memorable_rating,1553126,Ravenport,,53,,,5,,,,,,,,,,,,,,,
null,,confidence_buffer,1553229,confidence_buffer,,null,,,,,,,,,,,,,,,,,,
2101.0999999940395,,recognition_phase,1555332,Ravenport,,49,,,,,,old,1,0.7796610169491526,,,,,,,,,,
null,,confidence_buffer,1555435,confidence_buffer,,null,,,,,,,,,,,,,,,,,,
null,,thebreak,1555951,break,,null,,,,,,,,,,,,,,,,,,
6127.699999988079,,realistic_rating,1562081,Shreveport,,51,Shreveport,US,3,,,,,,,,,,,,,,,
null,,confidence_buffer,1562185,confidence_buffer,,null,,,,,,,,,,,,,,,,,,
3780.100000023842,,pt2_unique_rating,1565967,Shreveport,,51,,,3,,,,,,,,,,,,,,,
null,,confidence_buffer,1566072,confidence_buffer,,null,,,,,,,,,,,,,,,,,,
1619.800000011921,,probe_rating,1567696,probe_rating,,53,,,,5,1,,,,,,,,,,,,,
null,,confidence_buffer,1567817,confidence_buffer,,null,,,,,,,,,,,,,,,,,,
3522.5,,pt2_memorable_rating,1571343,Shreveport,,51,,,3,,,,,,,,,,,,,,,
null,,confidence_buffer,1571447,confidence_buffer,,null,,,,,,,,,,,,,,,,,,
2221.9000000059605,,recognition_phase,1573673,Shreveport,,51,,,,,,new,1,0.7833333333333333,,,,,,,,,,
null,,confidence_buffer,1573776,confidence_buffer,,null,,,,,,,,,,,,,,,,,,
null,,thebreak,1574279,break,,null,,,,,,,,,,,,,,,,,,
,,survey,2039419,survey-questions,,,,,,,,,,,none,high,Paid total attention to the study,Tried as much to keep the wierd names in my heard and familiarise with names that have simmilar endings ,For familiar items i had just imagined and made pairings in my mind,Some items just had cute names that was able to keep in head,Some items just had wierd names that made then unique,often at times some names just sounded to real and could not be denied , thats how i made my ratings,No ,task was boring at a point , mayne there should be breaks 
