rt,responses,trial_type,time_elapsed,stimulus,button_pressed,key_press,name_trial,city_type,rating,probe,probe_accuracy,response,correct,accuracy
79694.80000000075,{worker_id:67e1b5d201f9f6aab0df8914},id_enter,79697,,,,,,,,,,,
8897.800000000745,,fullscreen,88601,fullscreen,0,,,,,,,,,
7703.699999999255,,intro_0,96308,instruct,,32,,,,,,,,
10574.900000002235,,intro_1,106886,instruct,,32,,,,,,,,
49290.800000000745,,intro_2,156179,instruct,,32,,,,,,,,
null,,instruct_dir_4,157681,instruct,,null,,,,,,,,
null,,thebreak,158183,break,,null,,,,,,,,
8725.099999997765,,familiar_rating,166911,Cody,,50,Cody,US,2,,,,,
null,,confidence_buffer,167015,confidence_buffer,,null,,,,,,,,
5659.599999997765,,unique_rating,172677,Cody,,50,,,2,,,,,
null,,confidence_buffer,172781,confidence_buffer,,null,,,,,,,,
8549.10000000149,,memorable_rating,181332,Cody,,50,,,2,,,,,
null,,confidence_buffer,181435,confidence_buffer,,null,,,,,,,,
null,,thebreak,181937,break,,null,,,,,,,,
7710.900000002235,,familiar_rating,189650,Linden Trace,,51,Linden Trace,Fictional,3,,,,,
null,,confidence_buffer,189753,confidence_buffer,,null,,,,,,,,
4892.300000000745,,probe_rating,194648,probe_rating,,52,,,,4,1,,,
null,,confidence_buffer,194751,confidence_buffer,,null,,,,,,,,
7850,,unique_rating,202603,Linden Trace,,52,,,4,,,,,
null,,confidence_buffer,202705,confidence_buffer,,null,,,,,,,,
7884.10000000149,,memorable_rating,210591,Linden Trace,,51,,,3,,,,,
null,,confidence_buffer,210693,confidence_buffer,,null,,,,,,,,
null,,thebreak,211194,break,,null,,,,,,,,
8766.39999999851,,familiar_rating,219962,Lakehaven,,53,Lakehaven,Fictional,5,,,,,
null,,confidence_buffer,220065,confidence_buffer,,null,,,,,,,,
2522.39999999851,,unique_rating,222590,Lakehaven,,51,,,3,,,,,
null,,confidence_buffer,222693,confidence_buffer,,null,,,,,,,,
3650.2999999970198,,memorable_rating,226344,Lakehaven,,52,,,4,,,,,
null,,confidence_buffer,226446,confidence_buffer,,null,,,,,,,,
null,,thebreak,226948,break,,null,,,,,,,,
5046.599999997765,,familiar_rating,231996,Coralridge,,53,Coralridge,Fictional,5,,,,,
null,,confidence_buffer,232098,confidence_buffer,,null,,,,,,,,
2334.300000000745,,unique_rating,234434,Coralridge,,52,,,4,,,,,
null,,confidence_buffer,234537,confidence_buffer,,null,,,,,,,,
1127.300000000745,,probe_rating,235667,probe_rating,,52,,,,4,1,,,
null,,confidence_buffer,235770,confidence_buffer,,null,,,,,,,,
3365.199999999255,,memorable_rating,239137,Coralridge,,53,,,5,,,,,
null,,confidence_buffer,239240,confidence_buffer,,null,,,,,,,,
null,,thebreak,239742,break,,null,,,,,,,,
15570.70000000298,,familiar_rating,255314,Assateague Island,,50,Assateague Island,US,2,,,,,
null,,confidence_buffer,255416,confidence_buffer,,null,,,,,,,,
2253,,unique_rating,257671,Assateague Island,,51,,,3,,,,,
null,,confidence_buffer,257772,confidence_buffer,,null,,,,,,,,
1281,,memorable_rating,259055,Assateague Island,,50,,,2,,,,,
null,,confidence_buffer,259158,confidence_buffer,,null,,,,,,,,
null,,thebreak,259660,break,,null,,,,,,,,
4012.599999997765,,familiar_rating,263674,Athens,,53,Athens,US,5,,,,,
null,,confidence_buffer,263775,confidence_buffer,,null,,,,,,,,
1397.5,,unique_rating,265175,Athens,,53,,,5,,,,,
null,,confidence_buffer,265278,confidence_buffer,,null,,,,,,,,
1271.0999999977648,,memorable_rating,266550,Athens,,53,,,5,,,,,
null,,confidence_buffer,266654,confidence_buffer,,null,,,,,,,,
null,,thebreak,267155,break,,null,,,,,,,,
2427.900000002235,,familiar_rating,269585,Leesburg,,51,Leesburg,US,3,,,,,
null,,confidence_buffer,269687,confidence_buffer,,null,,,,,,,,
1714.8999999985099,,unique_rating,271403,Leesburg,,52,,,4,,,,,
null,,confidence_buffer,271504,confidence_buffer,,null,,,,,,,,
770.8999999985099,,memorable_rating,272277,Leesburg,,51,,,3,,,,,
null,,confidence_buffer,272380,confidence_buffer,,null,,,,,,,,
2580.800000000745,,probe_rating,274962,probe_rating,,52,,,,4,1,,,
null,,confidence_buffer,275064,confidence_buffer,,null,,,,,,,,
null,,thebreak,275565,break,,null,,,,,,,,
5363.199999999255,,familiar_rating,280930,Hollendale,,50,Hollendale,Fictional,2,,,,,
null,,confidence_buffer,281032,confidence_buffer,,null,,,,,,,,
1927.5,,unique_rating,282961,Hollendale,,51,,,3,,,,,
null,,confidence_buffer,283064,confidence_buffer,,null,,,,,,,,
1054,,memorable_rating,284120,Hollendale,,50,,,2,,,,,
null,,confidence_buffer,284222,confidence_buffer,,null,,,,,,,,
null,,thebreak,284723,break,,null,,,,,,,,
2624.10000000149,,familiar_rating,287348,Elmsbury,,52,Elmsbury,Fictional,4,,,,,
null,,confidence_buffer,287451,confidence_buffer,,null,,,,,,,,
1015.8000000007451,,unique_rating,288468,Elmsbury,,51,,,3,,,,,
null,,confidence_buffer,288571,confidence_buffer,,null,,,,,,,,
1409.3999999985099,,memorable_rating,289983,Elmsbury,,51,,,3,,,,,
null,,confidence_buffer,290086,confidence_buffer,,null,,,,,,,,
null,,thebreak,290587,break,,null,,,,,,,,
6954.800000000745,,familiar_rating,297543,Livingston,,53,Livingston,US,5,,,,,
null,,confidence_buffer,297646,confidence_buffer,,null,,,,,,,,
5647.900000002235,,unique_rating,303295,Livingston,,52,,,4,,,,,
null,,confidence_buffer,303397,confidence_buffer,,null,,,,,,,,
2147.400000002235,,memorable_rating,305546,Livingston,,52,,,4,,,,,
null,,confidence_buffer,305649,confidence_buffer,,null,,,,,,,,
null,,thebreak,306151,break,,null,,,,,,,,
1421.699999999255,,familiar_rating,307575,Newport,,53,Newport,US,5,,,,,
null,,confidence_buffer,307677,confidence_buffer,,null,,,,,,,,
1212.9000000022352,,unique_rating,308891,Newport,,52,,,4,,,,,
null,,confidence_buffer,308993,confidence_buffer,,null,,,,,,,,
439.3999999985099,,probe_rating,309434,probe_rating,,53,,,,5,0,,,
null,,confidence_buffer,309537,confidence_buffer,,null,,,,,,,,
2060.89999999851,,memorable_rating,311600,Newport,,52,,,4,,,,,
null,,confidence_buffer,311702,confidence_buffer,,null,,,,,,,,
null,,thebreak,312202,break,,null,,,,,,,,
4598.10000000149,,familiar_rating,316802,Willowford,,53,Willowford,Fictional,5,,,,,
null,,confidence_buffer,316905,confidence_buffer,,null,,,,,,,,
3299.599999997765,,unique_rating,320206,Willowford,,51,,,3,,,,,
null,,confidence_buffer,320308,confidence_buffer,,null,,,,,,,,
1793,,memorable_rating,322102,Willowford,,51,,,3,,,,,
null,,confidence_buffer,322204,confidence_buffer,,null,,,,,,,,
null,,thebreak,322706,break,,null,,,,,,,,
4265.699999999255,,familiar_rating,326972,Maplehurst,,51,Maplehurst,Fictional,3,,,,,
null,,confidence_buffer,327075,confidence_buffer,,null,,,,,,,,
683.3000000007451,,unique_rating,327760,Maplehurst,,51,,,3,,,,,
null,,confidence_buffer,327862,confidence_buffer,,null,,,,,,,,
2832.900000002235,,memorable_rating,330696,Maplehurst,,52,,,4,,,,,
null,,confidence_buffer,330810,confidence_buffer,,null,,,,,,,,
null,,thebreak,331311,break,,null,,,,,,,,
2365.39999999851,,familiar_rating,333678,Sunmere,,50,Sunmere,Fictional,2,,,,,
null,,confidence_buffer,333780,confidence_buffer,,null,,,,,,,,
2338.699999999255,,unique_rating,336121,Sunmere,,51,,,3,,,,,
null,,confidence_buffer,336223,confidence_buffer,,null,,,,,,,,
1924.6000000014901,,memorable_rating,338149,Sunmere,,50,,,2,,,,,
null,,confidence_buffer,338252,confidence_buffer,,null,,,,,,,,
null,,thebreak,338754,break,,null,,,,,,,,
5351.699999999255,,familiar_rating,344108,Stonebrook,,53,Stonebrook,Fictional,5,,,,,
null,,confidence_buffer,344212,confidence_buffer,,null,,,,,,,,
2495.60000000149,,unique_rating,346709,Stonebrook,,52,,,4,,,,,
null,,confidence_buffer,346812,confidence_buffer,,null,,,,,,,,
1007.5999999977648,,memorable_rating,347821,Stonebrook,,52,,,4,,,,,
null,,confidence_buffer,347922,confidence_buffer,,null,,,,,,,,
null,,thebreak,348423,break,,null,,,,,,,,
2465.800000000745,,familiar_rating,350891,Gardnerville,,51,Gardnerville,US,3,,,,,
null,,confidence_buffer,350993,confidence_buffer,,null,,,,,,,,
931.3000000007451,,unique_rating,351926,Gardnerville,,51,,,3,,,,,
null,,confidence_buffer,352029,confidence_buffer,,null,,,,,,,,
43.599999997764826,,memorable_rating,352075,Gardnerville,,51,,,3,,,,,
null,,confidence_buffer,352177,confidence_buffer,,null,,,,,,,,
null,,thebreak,352678,break,,null,,,,,,,,
2001.3999999985099,,familiar_rating,354682,Boulder,,52,Boulder,US,4,,,,,
null,,confidence_buffer,354785,confidence_buffer,,null,,,,,,,,
1496.5999999977648,,unique_rating,356283,Boulder,,51,,,3,,,,,
null,,confidence_buffer,356386,confidence_buffer,,null,,,,,,,,
2468.699999999255,,memorable_rating,358855,Boulder,,52,,,4,,,,,
null,,confidence_buffer,358957,confidence_buffer,,null,,,,,,,,
null,,thebreak,359458,break,,null,,,,,,,,
5106.599999997765,,familiar_rating,364567,Racine,,52,Racine,US,4,,,,,
null,,confidence_buffer,364670,confidence_buffer,,null,,,,,,,,
814.3000000007451,,unique_rating,365486,Racine,,53,,,5,,,,,
null,,confidence_buffer,365587,confidence_buffer,,null,,,,,,,,
954.6999999992549,,memorable_rating,366543,Racine,,52,,,4,,,,,
null,,confidence_buffer,366646,confidence_buffer,,null,,,,,,,,
null,,thebreak,367149,break,,null,,,,,,,,
2113.199999999255,,familiar_rating,369263,San Antonio,,53,San Antonio,US,5,,,,,
null,,confidence_buffer,369365,confidence_buffer,,null,,,,,,,,
1010.5,,unique_rating,370377,San Antonio,,53,,,5,,,,,
null,,confidence_buffer,370478,confidence_buffer,,null,,,,,,,,
2332.7000000029802,,probe_rating,372813,probe_rating,,50,,,,2,1,,,
null,,confidence_buffer,372915,confidence_buffer,,null,,,,,,,,
2592.900000002235,,memorable_rating,375510,San Antonio,,53,,,5,,,,,
null,,confidence_buffer,375612,confidence_buffer,,null,,,,,,,,
null,,thebreak,376113,break,,null,,,,,,,,
6592.699999999255,,familiar_rating,382707,Orr,,51,Orr,US,3,,,,,
null,,confidence_buffer,382809,confidence_buffer,,null,,,,,,,,
182.90000000223517,,unique_rating,382994,Orr,,51,,,3,,,,,
null,,confidence_buffer,383096,confidence_buffer,,null,,,,,,,,
1177.800000000745,,memorable_rating,384275,Orr,,50,,,2,,,,,
null,,confidence_buffer,384377,confidence_buffer,,null,,,,,,,,
null,,thebreak,384878,break,,null,,,,,,,,
1906.5,,familiar_rating,386786,Clearbrook,,53,Clearbrook,Fictional,5,,,,,
null,,confidence_buffer,386889,confidence_buffer,,null,,,,,,,,
1023,,unique_rating,387914,Clearbrook,,52,,,4,,,,,
null,,confidence_buffer,388017,confidence_buffer,,null,,,,,,,,
564.1999999992549,,memorable_rating,388583,Clearbrook,,51,,,3,,,,,
null,,confidence_buffer,388686,confidence_buffer,,null,,,,,,,,
null,,thebreak,389188,break,,null,,,,,,,,
1749.8999999985099,,familiar_rating,390939,Fairhaven,,53,Fairhaven,Fictional,5,,,,,
null,,confidence_buffer,391042,confidence_buffer,,null,,,,,,,,
928.9000000022352,,unique_rating,391972,Fairhaven,,51,,,3,,,,,
null,,confidence_buffer,392075,confidence_buffer,,null,,,,,,,,
1029.0999999977648,,memorable_rating,393105,Fairhaven,,53,,,5,,,,,
null,,confidence_buffer,393207,confidence_buffer,,null,,,,,,,,
null,,thebreak,393710,break,,null,,,,,,,,
2389,,familiar_rating,396101,Albuquerque,,53,Albuquerque,US,5,,,,,
null,,confidence_buffer,396203,confidence_buffer,,null,,,,,,,,
1264.7000000029802,,unique_rating,397469,Albuquerque,,53,,,5,,,,,
null,,confidence_buffer,397571,confidence_buffer,,null,,,,,,,,
1040.800000000745,,memorable_rating,398614,Albuquerque,,53,,,5,,,,,
null,,confidence_buffer,398717,confidence_buffer,,null,,,,,,,,
null,,thebreak,399218,break,,null,,,,,,,,
555.0999999977648,,familiar_rating,399775,Alliance,,53,Alliance,US,5,,,,,
null,,confidence_buffer,399878,confidence_buffer,,null,,,,,,,,
1222,,unique_rating,401101,Alliance,,52,,,4,,,,,
null,,confidence_buffer,401204,confidence_buffer,,null,,,,,,,,
909.8000000007451,,memorable_rating,402115,Alliance,,53,,,5,,,,,
null,,confidence_buffer,402217,confidence_buffer,,null,,,,,,,,
null,,thebreak,402720,break,,null,,,,,,,,
2250.300000000745,,familiar_rating,404972,Maravilla Springs,,53,Maravilla Springs,Fictional,5,,,,,
null,,confidence_buffer,405075,confidence_buffer,,null,,,,,,,,
703.1999999992549,,unique_rating,405779,Maravilla Springs,,52,,,4,,,,,
null,,confidence_buffer,405882,confidence_buffer,,null,,,,,,,,
1037.800000000745,,memorable_rating,406921,Maravilla Springs,,51,,,3,,,,,
null,,confidence_buffer,407024,confidence_buffer,,null,,,,,,,,
null,,thebreak,407526,break,,null,,,,,,,,
2676.89999999851,,familiar_rating,410204,Tamarisk Hills,,52,Tamarisk Hills,Fictional,4,,,,,
null,,confidence_buffer,410306,confidence_buffer,,null,,,,,,,,
1026.5999999977648,,unique_rating,411334,Tamarisk Hills,,53,,,5,,,,,
null,,confidence_buffer,411437,confidence_buffer,,null,,,,,,,,
792.1000000014901,,memorable_rating,412231,Tamarisk Hills,,51,,,3,,,,,
null,,confidence_buffer,412333,confidence_buffer,,null,,,,,,,,
null,,thebreak,412835,break,,null,,,,,,,,
2152,,familiar_rating,414988,Manistee,,51,Manistee,US,3,,,,,
null,,confidence_buffer,415091,confidence_buffer,,null,,,,,,,,
1186.199999999255,,unique_rating,416279,Manistee,,52,,,4,,,,,
null,,confidence_buffer,416381,confidence_buffer,,null,,,,,,,,
1676,,memorable_rating,418059,Manistee,,53,,,5,,,,,
null,,confidence_buffer,418161,confidence_buffer,,null,,,,,,,,
null,,thebreak,418674,break,,null,,,,,,,,
2676,,familiar_rating,421352,Brookmere,,52,Brookmere,Fictional,4,,,,,
null,,confidence_buffer,421455,confidence_buffer,,null,,,,,,,,
802.0999999977648,,unique_rating,422259,Brookmere,,51,,,3,,,,,
null,,confidence_buffer,422362,confidence_buffer,,null,,,,,,,,
1006.6000000014901,,memorable_rating,423370,Brookmere,,51,,,3,,,,,
null,,confidence_buffer,423472,confidence_buffer,,null,,,,,,,,
null,,thebreak,423973,break,,null,,,,,,,,
1873,,familiar_rating,425848,Juniper Creek,,52,Juniper Creek,Fictional,4,,,,,
null,,confidence_buffer,425952,confidence_buffer,,null,,,,,,,,
562.1999999992549,,unique_rating,426516,Juniper Creek,,53,,,5,,,,,
null,,confidence_buffer,426620,confidence_buffer,,null,,,,,,,,
860.1999999992549,,memorable_rating,427482,Juniper Creek,,52,,,4,,,,,
null,,confidence_buffer,427585,confidence_buffer,,null,,,,,,,,
null,,thebreak,428086,break,,null,,,,,,,,
1360.9000000022352,,familiar_rating,429449,Huntsville,,53,Huntsville,US,5,,,,,
null,,confidence_buffer,429551,confidence_buffer,,null,,,,,,,,
519.5,,unique_rating,430072,Huntsville,,52,,,4,,,,,
null,,confidence_buffer,430175,confidence_buffer,,null,,,,,,,,
1020.8000000007451,,memorable_rating,431197,Huntsville,,52,,,4,,,,,
null,,confidence_buffer,431300,confidence_buffer,,null,,,,,,,,
null,,thebreak,431801,break,,null,,,,,,,,
8516.699999999255,,intro_0,440319,instruct,,32,,,,,,,,
18511.79999999702,,intro_1,458831,instruct,,32,,,,,,,,
31653.39999999851,,intro_2,490486,instruct,,32,,,,,,,,
null,,instruct_dir_4,491987,instruct,,null,,,,,,,,
10389.300000000745,,realistic_rating,502378,Shreveport,,51,Shreveport,US,3,,,,,
null,,confidence_buffer,502481,confidence_buffer,,null,,,,,,,,
3094.89999999851,,pt2_unique_rating,505578,Shreveport,,51,,,3,,,,,
null,,confidence_buffer,505680,confidence_buffer,,null,,,,,,,,
1326.7000000029802,,pt2_memorable_rating,507009,Shreveport,,51,,,3,,,,,
null,,confidence_buffer,507112,confidence_buffer,,null,,,,,,,,
4742.10000000149,,recognition_phase,511856,Shreveport,,52,,,,,,new,1,1
null,,confidence_buffer,511959,confidence_buffer,,null,,,,,,,,
null,,thebreak,512461,break,,null,,,,,,,,
5888.60000000149,,realistic_rating,518351,Cody,,50,Cody,US,2,,,,,
null,,confidence_buffer,518454,confidence_buffer,,null,,,,,,,,
1723.5,,pt2_unique_rating,520179,Cody,,50,,,2,,,,,
null,,confidence_buffer,520281,confidence_buffer,,null,,,,,,,,
1344.9000000022352,,pt2_memorable_rating,521628,Cody,,51,,,3,,,,,
null,,confidence_buffer,521730,confidence_buffer,,null,,,,,,,,
2531.5,,recognition_phase,524263,Cody,,49,,,,,,old,1,1
null,,confidence_buffer,524365,confidence_buffer,,null,,,,,,,,
null,,thebreak,524866,break,,null,,,,,,,,
4605,,realistic_rating,529473,Ravenport,,50,Ravenport,Fictional,2,,,,,
null,,confidence_buffer,529575,confidence_buffer,,null,,,,,,,,
600.4000000022352,,pt2_unique_rating,530177,Ravenport,,52,,,4,,,,,
null,,confidence_buffer,530279,confidence_buffer,,null,,,,,,,,
2246.800000000745,,pt2_memorable_rating,532528,Ravenport,,50,,,2,,,,,
null,,confidence_buffer,532630,confidence_buffer,,null,,,,,,,,
2759,,recognition_phase,535392,Ravenport,,51,,,,,,new,1,1
null,,confidence_buffer,535494,confidence_buffer,,null,,,,,,,,
null,,thebreak,535996,break,,null,,,,,,,,
5509,,realistic_rating,541507,Boulder,,50,Boulder,US,2,,,,,
null,,confidence_buffer,541609,confidence_buffer,,null,,,,,,,,
385.69999999925494,,pt2_unique_rating,541996,Boulder,,51,,,3,,,,,
null,,confidence_buffer,542098,confidence_buffer,,null,,,,,,,,
93.80000000074506,,pt2_memorable_rating,542193,Boulder,,50,,,2,,,,,
null,,confidence_buffer,542295,confidence_buffer,,null,,,,,,,,
177.5,,recognition_phase,542474,Boulder,,51,,,,,,new,0,0.75
null,,confidence_buffer,542586,confidence_buffer,,null,,,,,,,,
null,,thebreak,543090,break,,null,,,,,,,,
4087.60000000149,,realistic_rating,547179,Maravilla Springs,,51,Maravilla Springs,Fictional,3,,,,,
null,,confidence_buffer,547281,confidence_buffer,,null,,,,,,,,
2622.7999999970198,,pt2_unique_rating,549905,Maravilla Springs,,50,,,2,,,,,
null,,confidence_buffer,550006,confidence_buffer,,null,,,,,,,,
1408,,pt2_memorable_rating,551416,Maravilla Springs,,51,,,3,,,,,
null,,confidence_buffer,551519,confidence_buffer,,null,,,,,,,,
1873.800000000745,,recognition_phase,553394,Maravilla Springs,,52,,,,,,new,0,0.6
null,,confidence_buffer,553496,confidence_buffer,,null,,,,,,,,
null,,thebreak,553998,break,,null,,,,,,,,
2497.60000000149,,realistic_rating,556498,Brookmere,,50,Brookmere,Fictional,2,,,,,
null,,confidence_buffer,556600,confidence_buffer,,null,,,,,,,,
409.3999999985099,,pt2_unique_rating,557011,Brookmere,,51,,,3,,,,,
null,,confidence_buffer,557113,confidence_buffer,,null,,,,,,,,
408.9000000022352,,pt2_memorable_rating,557524,Brookmere,,50,,,2,,,,,
null,,confidence_buffer,557626,confidence_buffer,,null,,,,,,,,
2190.39999999851,,recognition_phase,559817,Brookmere,,50,,,,,,old,1,0.6666666666666666
null,,confidence_buffer,559920,confidence_buffer,,null,,,,,,,,
null,,thebreak,560422,break,,null,,,,,,,,
2911,,realistic_rating,563335,Folly Beach,,51,Folly Beach,US,3,,,,,
null,,confidence_buffer,563437,confidence_buffer,,null,,,,,,,,
438.30000000074506,,pt2_unique_rating,563877,Folly Beach,,50,,,2,,,,,
null,,confidence_buffer,563980,confidence_buffer,,null,,,,,,,,
295.8999999985099,,pt2_memorable_rating,564277,Folly Beach,,51,,,3,,,,,
null,,confidence_buffer,564391,confidence_buffer,,null,,,,,,,,
2373.10000000149,,recognition_phase,566766,Folly Beach,,52,,,,,,new,1,0.7142857142857143
null,,confidence_buffer,566870,confidence_buffer,,null,,,,,,,,
null,,thebreak,567372,break,,null,,,,,,,,
2411.400000002235,,realistic_rating,569785,Falconridge,,51,Falconridge,Fictional,3,,,,,
null,,confidence_buffer,569888,confidence_buffer,,null,,,,,,,,
427.9000000022352,,pt2_unique_rating,570317,Falconridge,,52,,,4,,,,,
null,,confidence_buffer,570420,confidence_buffer,,null,,,,,,,,
692.1000000014901,,probe_rating,571114,probe_rating,,50,,,,2,0,,,
null,,confidence_buffer,571216,confidence_buffer,,null,,,,,,,,
1737.5999999977648,,pt2_memorable_rating,572956,Falconridge,,49,,,1,,,,,
null,,confidence_buffer,573068,confidence_buffer,,null,,,,,,,,
1636.6000000014901,,recognition_phase,574706,Falconridge,,52,,,,,,new,1,0.75
null,,confidence_buffer,574808,confidence_buffer,,null,,,,,,,,
null,,thebreak,575310,break,,null,,,,,,,,
913.5,,realistic_rating,576226,Park City,,50,Park City,US,2,,,,,
null,,confidence_buffer,576342,confidence_buffer,,null,,,,,,,,
398.30000000074506,,pt2_unique_rating,576742,Park City,,51,,,3,,,,,
null,,confidence_buffer,576844,confidence_buffer,,null,,,,,,,,
604.8000000007451,,pt2_memorable_rating,577451,Park City,,50,,,2,,,,,
null,,confidence_buffer,577554,confidence_buffer,,null,,,,,,,,
651.5999999977648,,recognition_phase,578208,Park City,,51,,,,,,new,1,0.7777777777777778
null,,confidence_buffer,578310,confidence_buffer,,null,,,,,,,,
null,,thebreak,578823,break,,null,,,,,,,,
5213.199999999255,,realistic_rating,584038,Juniper Creek,,52,Juniper Creek,Fictional,4,,,,,
null,,confidence_buffer,584140,confidence_buffer,,null,,,,,,,,
303.0999999977648,,pt2_unique_rating,584444,Juniper Creek,,51,,,3,,,,,
null,,confidence_buffer,584547,confidence_buffer,,null,,,,,,,,
253.80000000074506,,pt2_memorable_rating,584802,Juniper Creek,,52,,,4,,,,,
null,,confidence_buffer,584904,confidence_buffer,,null,,,,,,,,
1080.5999999977648,,recognition_phase,585987,Juniper Creek,,52,,,,,,new,0,0.7
null,,confidence_buffer,586090,confidence_buffer,,null,,,,,,,,
null,,thebreak,586591,break,,null,,,,,,,,
1809.3999999985099,,realistic_rating,588402,Elmsbury,,49,Elmsbury,Fictional,1,,,,,
null,,confidence_buffer,588505,confidence_buffer,,null,,,,,,,,
192.40000000223517,,pt2_unique_rating,588699,Elmsbury,,50,,,2,,,,,
null,,confidence_buffer,588801,confidence_buffer,,null,,,,,,,,
436.69999999925494,,pt2_memorable_rating,589240,Elmsbury,,50,,,2,,,,,
null,,confidence_buffer,589342,confidence_buffer,,null,,,,,,,,
677.0999999977648,,recognition_phase,590020,Elmsbury,,49,,,,,,old,1,0.7272727272727273
null,,confidence_buffer,590123,confidence_buffer,,null,,,,,,,,
null,,thebreak,590624,break,,null,,,,,,,,
1687,,realistic_rating,592313,Hilo,,52,Hilo,US,4,,,,,
null,,confidence_buffer,592414,confidence_buffer,,null,,,,,,,,
347.69999999925494,,pt2_unique_rating,592764,Hilo,,50,,,2,,,,,
null,,confidence_buffer,592874,confidence_buffer,,null,,,,,,,,
0.10000000149011612,,pt2_memorable_rating,592876,Hilo,,51,,,3,,,,,
null,,confidence_buffer,592979,confidence_buffer,,null,,,,,,,,
303.5999999977648,,recognition_phase,593284,Hilo,,50,,,,,,old,0,0.6666666666666666
null,,confidence_buffer,593387,confidence_buffer,,null,,,,,,,,
null,,thebreak,593888,break,,null,,,,,,,,
4826,,realistic_rating,598716,Willowford,,50,Willowford,Fictional,2,,,,,
null,,confidence_buffer,598817,confidence_buffer,,null,,,,,,,,
197.89999999850988,,pt2_unique_rating,599016,Willowford,,51,,,3,,,,,
null,,confidence_buffer,599118,confidence_buffer,,null,,,,,,,,
140.19999999925494,,pt2_memorable_rating,599261,Willowford,,50,,,2,,,,,
null,,confidence_buffer,599362,confidence_buffer,,null,,,,,,,,
3211.39999999851,,recognition_phase,602576,Willowford,,50,,,,,,old,1,0.6923076923076923
null,,confidence_buffer,602679,confidence_buffer,,null,,,,,,,,
null,,thebreak,603181,break,,null,,,,,,,,
1828,,realistic_rating,605011,Alliance,,51,Alliance,US,3,,,,,
null,,confidence_buffer,605113,confidence_buffer,,null,,,,,,,,
115.5,,pt2_unique_rating,605231,Alliance,,50,,,2,,,,,
null,,confidence_buffer,605334,confidence_buffer,,null,,,,,,,,
141,,pt2_memorable_rating,605476,Alliance,,51,,,3,,,,,
null,,confidence_buffer,605578,confidence_buffer,,null,,,,,,,,
1600.1000000014901,,recognition_phase,607180,Alliance,,49,,,,,,old,1,0.7142857142857143
null,,confidence_buffer,607283,confidence_buffer,,null,,,,,,,,
null,,thebreak,607785,break,,null,,,,,,,,
1666.1000000014901,,realistic_rating,609452,Gardnerville,,50,Gardnerville,US,2,,,,,
null,,confidence_buffer,609555,confidence_buffer,,null,,,,,,,,
37,,pt2_unique_rating,609594,Gardnerville,,51,,,3,,,,,
null,,confidence_buffer,609697,confidence_buffer,,null,,,,,,,,
132.10000000149012,,pt2_memorable_rating,609831,Gardnerville,,50,,,2,,,,,
null,,confidence_buffer,609935,confidence_buffer,,null,,,,,,,,
793.3000000007451,,recognition_phase,610730,Gardnerville,,52,,,,,,new,0,0.6666666666666666
null,,confidence_buffer,610832,confidence_buffer,,null,,,,,,,,
null,,thebreak,611334,break,,null,,,,,,,,
1191.300000000745,,realistic_rating,612526,Coralridge,,50,Coralridge,Fictional,2,,,,,
null,,confidence_buffer,612629,confidence_buffer,,null,,,,,,,,
92.30000000074506,,pt2_unique_rating,612723,Coralridge,,51,,,3,,,,,
null,,confidence_buffer,612824,confidence_buffer,,null,,,,,,,,
124.5,,pt2_memorable_rating,612951,Coralridge,,50,,,2,,,,,
null,,confidence_buffer,613052,confidence_buffer,,null,,,,,,,,
503.5999999977648,,recognition_phase,613557,Coralridge,,49,,,,,,old,1,0.6875
null,,confidence_buffer,613660,confidence_buffer,,null,,,,,,,,
null,,thebreak,614162,break,,null,,,,,,,,
1634.199999999255,,realistic_rating,615798,Albuquerque,,51,Albuquerque,US,3,,,,,
null,,confidence_buffer,615901,confidence_buffer,,null,,,,,,,,
148,,pt2_unique_rating,616052,Albuquerque,,50,,,2,,,,,
null,,confidence_buffer,616154,confidence_buffer,,null,,,,,,,,
3255.60000000149,,pt2_memorable_rating,619412,Albuquerque,,52,,,4,,,,,
null,,confidence_buffer,619514,confidence_buffer,,null,,,,,,,,
1195.7999999970198,,recognition_phase,620712,Albuquerque,,49,,,,,,old,1,0.7058823529411765
null,,confidence_buffer,620814,confidence_buffer,,null,,,,,,,,
null,,thebreak,621324,break,,null,,,,,,,,
1444.699999999255,,realistic_rating,622771,Maplehurst,,50,Maplehurst,Fictional,2,,,,,
null,,confidence_buffer,622873,confidence_buffer,,null,,,,,,,,
50.69999999925494,,pt2_unique_rating,622925,Maplehurst,,51,,,3,,,,,
null,,confidence_buffer,623028,confidence_buffer,,null,,,,,,,,
125.80000000074506,,pt2_memorable_rating,623155,Maplehurst,,50,,,2,,,,,
null,,confidence_buffer,623258,confidence_buffer,,null,,,,,,,,
361.4000000022352,,recognition_phase,623620,Maplehurst,,52,,,,,,new,0,0.6666666666666666
null,,confidence_buffer,623722,confidence_buffer,,null,,,,,,,,
null,,thebreak,624223,break,,null,,,,,,,,
1359.0999999977648,,realistic_rating,625584,Bar Harbor,,50,Bar Harbor,US,2,,,,,
null,,confidence_buffer,625686,confidence_buffer,,null,,,,,,,,
219.80000000074506,,pt2_unique_rating,625908,Bar Harbor,,51,,,3,,,,,
null,,confidence_buffer,626011,confidence_buffer,,null,,,,,,,,
110.69999999925494,,pt2_memorable_rating,626123,Bar Harbor,,50,,,2,,,,,
null,,confidence_buffer,626226,confidence_buffer,,null,,,,,,,,
436.69999999925494,,recognition_phase,626664,Bar Harbor,,52,,,,,,new,1,0.6842105263157895
null,,confidence_buffer,626766,confidence_buffer,,null,,,,,,,,
null,,thebreak,627268,break,,null,,,,,,,,
1111.5999999977648,,realistic_rating,628381,West Talora,,50,West Talora,Fictional,2,,,,,
null,,confidence_buffer,628483,confidence_buffer,,null,,,,,,,,
175.10000000149012,,pt2_unique_rating,628660,West Talora,,51,,,3,,,,,
null,,confidence_buffer,628762,confidence_buffer,,null,,,,,,,,
335.1000000014901,,probe_rating,629099,probe_rating,,50,,,,2,0,,,
null,,confidence_buffer,629202,confidence_buffer,,null,,,,,,,,
8.100000001490116,,pt2_memorable_rating,629212,West Talora,,51,,,3,,,,,
null,,confidence_buffer,629317,confidence_buffer,,null,,,,,,,,
837.3999999985099,,recognition_phase,630156,West Talora,,52,,,,,,new,1,0.7
null,,confidence_buffer,630258,confidence_buffer,,null,,,,,,,,
null,,thebreak,630760,break,,null,,,,,,,,
2405.60000000149,,realistic_rating,633168,Assateague Island,,51,Assateague Island,US,3,,,,,
null,,confidence_buffer,633271,confidence_buffer,,null,,,,,,,,
154.60000000149012,,pt2_unique_rating,633427,Assateague Island,,50,,,2,,,,,
null,,confidence_buffer,633529,confidence_buffer,,null,,,,,,,,
511.19999999925494,,pt2_memorable_rating,634041,Assateague Island,,51,,,3,,,,,
null,,confidence_buffer,634144,confidence_buffer,,null,,,,,,,,
719.6000000014901,,recognition_phase,634865,Assateague Island,,49,,,,,,old,1,0.7142857142857143
null,,confidence_buffer,634968,confidence_buffer,,null,,,,,,,,
null,,thebreak,635470,break,,null,,,,,,,,
709.8999999985099,,realistic_rating,636182,Sammamish,,50,Sammamish,US,2,,,,,
null,,confidence_buffer,636284,confidence_buffer,,null,,,,,,,,
107.5,,probe_rating,636393,probe_rating,,51,,,,3,1,,,
null,,confidence_buffer,636494,confidence_buffer,,null,,,,,,,,
82.89999999850988,,pt2_unique_rating,636579,Sammamish,,50,,,2,,,,,
null,,confidence_buffer,636682,confidence_buffer,,null,,,,,,,,
53.80000000074506,,pt2_memorable_rating,636737,Sammamish,,52,,,4,,,,,
null,,confidence_buffer,636840,confidence_buffer,,null,,,,,,,,
445.80000000074506,,recognition_phase,637288,Sammamish,,52,,,,,,new,1,0.7272727272727273
null,,confidence_buffer,637391,confidence_buffer,,null,,,,,,,,
null,,thebreak,637907,break,,null,,,,,,,,
4769.400000002235,,realistic_rating,642678,Delaro Park,,50,Delaro Park,Fictional,2,,,,,
null,,confidence_buffer,642780,confidence_buffer,,null,,,,,,,,
624,,pt2_unique_rating,643407,Delaro Park,,51,,,3,,,,,
null,,confidence_buffer,643509,confidence_buffer,,null,,,,,,,,
1318,,pt2_memorable_rating,644829,Delaro Park,,50,,,2,,,,,
null,,confidence_buffer,644932,confidence_buffer,,null,,,,,,,,
1116.3999999985099,,recognition_phase,646050,Delaro Park,,52,,,,,,new,1,0.7391304347826086
null,,confidence_buffer,646152,confidence_buffer,,null,,,,,,,,
null,,thebreak,646653,break,,null,,,,,,,,
1129,,realistic_rating,647784,Fairhaven,,50,Fairhaven,Fictional,2,,,,,
null,,confidence_buffer,647886,confidence_buffer,,null,,,,,,,,
71.19999999925494,,pt2_unique_rating,647960,Fairhaven,,51,,,3,,,,,
null,,confidence_buffer,648062,confidence_buffer,,null,,,,,,,,
51.30000000074506,,pt2_memorable_rating,648116,Fairhaven,,50,,,2,,,,,
null,,confidence_buffer,648219,confidence_buffer,,null,,,,,,,,
1289.1000000014901,,recognition_phase,649510,Fairhaven,,49,,,,,,old,1,0.75
null,,confidence_buffer,649612,confidence_buffer,,null,,,,,,,,
null,,thebreak,650114,break,,null,,,,,,,,
912,,realistic_rating,651029,Redgrove,,51,Redgrove,Fictional,3,,,,,
null,,confidence_buffer,651131,confidence_buffer,,null,,,,,,,,
127.30000000074506,,pt2_unique_rating,651260,Redgrove,,50,,,2,,,,,
null,,confidence_buffer,651361,confidence_buffer,,null,,,,,,,,
82.19999999925494,,pt2_memorable_rating,651445,Redgrove,,51,,,3,,,,,
null,,confidence_buffer,651547,confidence_buffer,,null,,,,,,,,
750.7999999970198,,recognition_phase,652298,Redgrove,,52,,,,,,new,1,0.76
null,,confidence_buffer,652401,confidence_buffer,,null,,,,,,,,
null,,thebreak,652903,break,,null,,,,,,,,
825.5,,realistic_rating,653730,Orr,,51,Orr,US,3,,,,,
null,,confidence_buffer,653832,confidence_buffer,,null,,,,,,,,
73.09999999776483,,pt2_unique_rating,653906,Orr,,50,,,2,,,,,
null,,confidence_buffer,654008,confidence_buffer,,null,,,,,,,,
101,,pt2_memorable_rating,654111,Orr,,51,,,3,,,,,
null,,confidence_buffer,654213,confidence_buffer,,null,,,,,,,,
3435.7999999970198,,recognition_phase,657651,Orr,,49,,,,,,old,1,0.7692307692307693
null,,confidence_buffer,657753,confidence_buffer,,null,,,,,,,,
null,,thebreak,658255,break,,null,,,,,,,,
707.0999999977648,,realistic_rating,658964,Baymarsh,,51,Baymarsh,Fictional,3,,,,,
null,,confidence_buffer,659067,confidence_buffer,,null,,,,,,,,
146.39999999850988,,pt2_unique_rating,659216,Baymarsh,,50,,,2,,,,,
null,,confidence_buffer,659317,confidence_buffer,,null,,,,,,,,
104.29999999701977,,pt2_memorable_rating,659423,Baymarsh,,51,,,3,,,,,
null,,confidence_buffer,659526,confidence_buffer,,null,,,,,,,,
1286.199999999255,,recognition_phase,660814,Baymarsh,,52,,,,,,new,1,0.7777777777777778
null,,confidence_buffer,660918,confidence_buffer,,null,,,,,,,,
null,,thebreak,661419,break,,null,,,,,,,,
692.3999999985099,,realistic_rating,662114,Gatlinburg,,51,Gatlinburg,US,3,,,,,
null,,confidence_buffer,662216,confidence_buffer,,null,,,,,,,,
229.79999999701977,,probe_rating,662448,probe_rating,,50,,,,2,0,,,
