rt,responses,trial_type,time_elapsed,stimulus,button_pressed,key_press,name_trial,city_type,rating,probe,probe_accuracy,response,correct,accuracy,problems,smooth,distraction,strategies,familiar,memorable,unique,realistic,similar,comments
145106,{worker_id:67e08dc7306d294ffe990601},id_enter,145118,,,,,,,,,,,,,,,,,,,,,
280708.30000000075,,fullscreen,425843,fullscreen,0,,,,,,,,,,,,,,,,,,,
58268.800000000745,,intro_0,484117,instruct,,32,,,,,,,,,,,,,,,,,,
10386.099999999627,,intro_1,494505,instruct,,32,,,,,,,,,,,,,,,,,,
711732,,intro_2,1206238,instruct,,32,,,,,,,,,,,,,,,,,,
null,,instruct_dir_4,1207742,instruct,,null,,,,,,,,,,,,,,,,,,
null,,thebreak,1208249,break,,null,,,,,,,,,,,,,,,,,,
3015.5,,familiar_rating,1211266,Westridge,,50,Westridge,Fictional,2,,,,,,,,,,,,,,,
null,,confidence_buffer,1211369,confidence_buffer,,null,,,,,,,,,,,,,,,,,,
3682.89999999851,,unique_rating,1215053,Westridge,,52,,,4,,,,,,,,,,,,,,,
null,,confidence_buffer,1215162,confidence_buffer,,null,,,,,,,,,,,,,,,,,,
3250.39999999851,,memorable_rating,1218414,Westridge,,50,,,2,,,,,,,,,,,,,,,
null,,confidence_buffer,1218522,confidence_buffer,,null,,,,,,,,,,,,,,,,,,
null,,thebreak,1219029,break,,null,,,,,,,,,,,,,,,,,,
2784.699999999255,,familiar_rating,1221815,Silverpine,,49,Silverpine,Fictional,1,,,,,,,,,,,,,,,
null,,confidence_buffer,1221925,confidence_buffer,,null,,,,,,,,,,,,,,,,,,
2689.5,,unique_rating,1224616,Silverpine,,50,,,2,,,,,,,,,,,,,,,
null,,confidence_buffer,1224718,confidence_buffer,,null,,,,,,,,,,,,,,,,,,
3185.7000000011176,,memorable_rating,1227906,Silverpine,,50,,,2,,,,,,,,,,,,,,,
null,,confidence_buffer,1228015,confidence_buffer,,null,,,,,,,,,,,,,,,,,,
null,,thebreak,1228520,break,,null,,,,,,,,,,,,,,,,,,
6879.4000000003725,,familiar_rating,1235401,Lake of the Ozarks,,49,Lake of the Ozarks,US,1,,,,,,,,,,,,,,,
null,,confidence_buffer,1235506,confidence_buffer,,null,,,,,,,,,,,,,,,,,,
3627.0999999996275,,unique_rating,1239135,Lake of the Ozarks,,53,,,5,,,,,,,,,,,,,,,
null,,confidence_buffer,1239246,confidence_buffer,,null,,,,,,,,,,,,,,,,,,
2314,,memorable_rating,1241561,Lake of the Ozarks,,53,,,5,,,,,,,,,,,,,,,
null,,confidence_buffer,1241671,confidence_buffer,,null,,,,,,,,,,,,,,,,,,
null,,thebreak,1242176,break,,null,,,,,,,,,,,,,,,,,,
1398.199999999255,,familiar_rating,1243576,Cleveland,,53,Cleveland,US,5,,,,,,,,,,,,,,,
null,,confidence_buffer,1243679,confidence_buffer,,null,,,,,,,,,,,,,,,,,,
3107.2999999988824,,unique_rating,1246788,Cleveland,,49,,,1,,,,,,,,,,,,,,,
null,,confidence_buffer,1246892,confidence_buffer,,null,,,,,,,,,,,,,,,,,,
1721.0999999996275,,memorable_rating,1248614,Cleveland,,53,,,5,,,,,,,,,,,,,,,
null,,confidence_buffer,1248725,confidence_buffer,,null,,,,,,,,,,,,,,,,,,
null,,thebreak,1249232,break,,null,,,,,,,,,,,,,,,,,,
2356.199999999255,,familiar_rating,1251590,Briarfield,,49,Briarfield,Fictional,1,,,,,,,,,,,,,,,
null,,confidence_buffer,1251692,confidence_buffer,,null,,,,,,,,,,,,,,,,,,
1905.9000000003725,,unique_rating,1253600,Briarfield,,51,,,3,,,,,,,,,,,,,,,
null,,confidence_buffer,1253706,confidence_buffer,,null,,,,,,,,,,,,,,,,,,
1821.7000000011176,,memorable_rating,1255530,Briarfield,,51,,,3,,,,,,,,,,,,,,,
null,,confidence_buffer,1255638,confidence_buffer,,null,,,,,,,,,,,,,,,,,,
null,,thebreak,1256140,break,,null,,,,,,,,,,,,,,,,,,
3019,,familiar_rating,1259162,Shreveport,,50,Shreveport,US,2,,,,,,,,,,,,,,,
null,,confidence_buffer,1259269,confidence_buffer,,null,,,,,,,,,,,,,,,,,,
3023.5999999996275,,probe_rating,1262294,probe_rating,,51,,,,3,0,,,,,,,,,,,,,
null,,confidence_buffer,1262401,confidence_buffer,,null,,,,,,,,,,,,,,,,,,
945.5,,unique_rating,1263348,Shreveport,,51,,,3,,,,,,,,,,,,,,,
null,,confidence_buffer,1263451,confidence_buffer,,null,,,,,,,,,,,,,,,,,,
1391.199999999255,,memorable_rating,1264844,Shreveport,,51,,,3,,,,,,,,,,,,,,,
null,,confidence_buffer,1264946,confidence_buffer,,null,,,,,,,,,,,,,,,,,,
null,,thebreak,1265452,break,,null,,,,,,,,,,,,,,,,,,
3195.60000000149,,familiar_rating,1268650,Falconridge,,51,Falconridge,Fictional,3,,,,,,,,,,,,,,,
null,,confidence_buffer,1268752,confidence_buffer,,null,,,,,,,,,,,,,,,,,,
2277,,unique_rating,1271031,Falconridge,,51,,,3,,,,,,,,,,,,,,,
null,,confidence_buffer,1271134,confidence_buffer,,null,,,,,,,,,,,,,,,,,,
1489.5999999996275,,memorable_rating,1272625,Falconridge,,53,,,5,,,,,,,,,,,,,,,
null,,confidence_buffer,1272728,confidence_buffer,,null,,,,,,,,,,,,,,,,,,
null,,thebreak,1273233,break,,null,,,,,,,,,,,,,,,,,,
2048.699999999255,,familiar_rating,1275283,Claywater,,51,Claywater,Fictional,3,,,,,,,,,,,,,,,
null,,confidence_buffer,1275391,confidence_buffer,,null,,,,,,,,,,,,,,,,,,
854.3000000007451,,unique_rating,1276248,Claywater,,51,,,3,,,,,,,,,,,,,,,
null,,confidence_buffer,1276354,confidence_buffer,,null,,,,,,,,,,,,,,,,,,
1700.699999999255,,memorable_rating,1278056,Claywater,,51,,,3,,,,,,,,,,,,,,,
null,,confidence_buffer,1278159,confidence_buffer,,null,,,,,,,,,,,,,,,,,,
null,,thebreak,1278665,break,,null,,,,,,,,,,,,,,,,,,
1895.0999999996275,,familiar_rating,1280562,Maravilla Springs,,50,Maravilla Springs,Fictional,2,,,,,,,,,,,,,,,
null,,confidence_buffer,1280671,confidence_buffer,,null,,,,,,,,,,,,,,,,,,
1273,,unique_rating,1281946,Maravilla Springs,,50,,,2,,,,,,,,,,,,,,,
null,,confidence_buffer,1282052,confidence_buffer,,null,,,,,,,,,,,,,,,,,,
1256.7999999988824,,memorable_rating,1283310,Maravilla Springs,,51,,,3,,,,,,,,,,,,,,,
null,,confidence_buffer,1283416,confidence_buffer,,null,,,,,,,,,,,,,,,,,,
null,,thebreak,1283918,break,,null,,,,,,,,,,,,,,,,,,
1482.9000000003725,,familiar_rating,1285403,Albuquerque,,49,Albuquerque,US,1,,,,,,,,,,,,,,,
null,,confidence_buffer,1285511,confidence_buffer,,null,,,,,,,,,,,,,,,,,,
1216,,unique_rating,1286730,Albuquerque,,53,,,5,,,,,,,,,,,,,,,
null,,confidence_buffer,1286834,confidence_buffer,,null,,,,,,,,,,,,,,,,,,
1450.7000000011176,,memorable_rating,1288286,Albuquerque,,49,,,1,,,,,,,,,,,,,,,
null,,confidence_buffer,1288394,confidence_buffer,,null,,,,,,,,,,,,,,,,,,
null,,thebreak,1288898,break,,null,,,,,,,,,,,,,,,,,,
1888.5,,familiar_rating,1290789,Sisters,,49,Sisters,US,1,,,,,,,,,,,,,,,
null,,confidence_buffer,1290898,confidence_buffer,,null,,,,,,,,,,,,,,,,,,
2925.300000000745,,probe_rating,1293825,probe_rating,,52,,,,4,1,,,,,,,,,,,,,
null,,confidence_buffer,1293928,confidence_buffer,,null,,,,,,,,,,,,,,,,,,
3721.2999999988824,,unique_rating,1297651,Sisters,,52,,,4,,,,,,,,,,,,,,,
null,,confidence_buffer,1297755,confidence_buffer,,null,,,,,,,,,,,,,,,,,,
1414.9000000003725,,memorable_rating,1299171,Sisters,,53,,,5,,,,,,,,,,,,,,,
null,,confidence_buffer,1299276,confidence_buffer,,null,,,,,,,,,,,,,,,,,,
null,,thebreak,1299778,break,,null,,,,,,,,,,,,,,,,,,
2322.699999999255,,familiar_rating,1302103,Bar Harbor,,49,Bar Harbor,US,1,,,,,,,,,,,,,,,
null,,confidence_buffer,1302210,confidence_buffer,,null,,,,,,,,,,,,,,,,,,
2586,,unique_rating,1304798,Bar Harbor,,51,,,3,,,,,,,,,,,,,,,
null,,confidence_buffer,1304903,confidence_buffer,,null,,,,,,,,,,,,,,,,,,
2689.7999999988824,,memorable_rating,1307594,Bar Harbor,,53,,,5,,,,,,,,,,,,,,,
null,,confidence_buffer,1307698,confidence_buffer,,null,,,,,,,,,,,,,,,,,,
null,,thebreak,1308203,break,,null,,,,,,,,,,,,,,,,,,
3935.0999999996275,,familiar_rating,1312140,Huntsville,,49,Huntsville,US,1,,,,,,,,,,,,,,,
null,,confidence_buffer,1312245,confidence_buffer,,null,,,,,,,,,,,,,,,,,,
2863.4000000003725,,unique_rating,1315112,Huntsville,,52,,,4,,,,,,,,,,,,,,,
null,,confidence_buffer,1315215,confidence_buffer,,null,,,,,,,,,,,,,,,,,,
1392.300000000745,,memorable_rating,1316609,Huntsville,,52,,,4,,,,,,,,,,,,,,,
null,,confidence_buffer,1316712,confidence_buffer,,null,,,,,,,,,,,,,,,,,,
null,,thebreak,1317214,break,,null,,,,,,,,,,,,,,,,,,
6310.5999999996275,,familiar_rating,1323526,Driftwood Bay,,50,Driftwood Bay,Fictional,2,,,,,,,,,,,,,,,
null,,confidence_buffer,1323632,confidence_buffer,,null,,,,,,,,,,,,,,,,,,
1442.0999999996275,,unique_rating,1325076,Driftwood Bay,,51,,,3,,,,,,,,,,,,,,,
null,,confidence_buffer,1325183,confidence_buffer,,null,,,,,,,,,,,,,,,,,,
1932.199999999255,,memorable_rating,1327117,Driftwood Bay,,51,,,3,,,,,,,,,,,,,,,
null,,confidence_buffer,1327234,confidence_buffer,,null,,,,,,,,,,,,,,,,,,
null,,thebreak,1327736,break,,null,,,,,,,,,,,,,,,,,,
1365.4000000003725,,familiar_rating,1329103,Okoboji,,49,Okoboji,US,1,,,,,,,,,,,,,,,
null,,confidence_buffer,1329213,confidence_buffer,,null,,,,,,,,,,,,,,,,,,
1978,,unique_rating,1331192,Okoboji,,53,,,5,,,,,,,,,,,,,,,
null,,confidence_buffer,1331297,confidence_buffer,,null,,,,,,,,,,,,,,,,,,
1488.699999999255,,memorable_rating,1332787,Okoboji,,49,,,1,,,,,,,,,,,,,,,
null,,confidence_buffer,1332896,confidence_buffer,,null,,,,,,,,,,,,,,,,,,
null,,thebreak,1333399,break,,null,,,,,,,,,,,,,,,,,,
2639.60000000149,,familiar_rating,1336040,Alliance,,49,Alliance,US,1,,,,,,,,,,,,,,,
null,,confidence_buffer,1336145,confidence_buffer,,null,,,,,,,,,,,,,,,,,,
2240.7000000011176,,unique_rating,1338388,Alliance,,51,,,3,,,,,,,,,,,,,,,
null,,confidence_buffer,1338494,confidence_buffer,,null,,,,,,,,,,,,,,,,,,
683.6000000014901,,memorable_rating,1339179,Alliance,,53,,,5,,,,,,,,,,,,,,,
null,,confidence_buffer,1339288,confidence_buffer,,null,,,,,,,,,,,,,,,,,,
null,,thebreak,1339797,break,,null,,,,,,,,,,,,,,,,,,
1215.199999999255,,familiar_rating,1341014,Orr,,49,Orr,US,1,,,,,,,,,,,,,,,
null,,confidence_buffer,1341123,confidence_buffer,,null,,,,,,,,,,,,,,,,,,
1046.300000000745,,unique_rating,1342171,Orr,,51,,,3,,,,,,,,,,,,,,,
null,,confidence_buffer,1342273,confidence_buffer,,null,,,,,,,,,,,,,,,,,,
867,,memorable_rating,1343142,Orr,,53,,,5,,,,,,,,,,,,,,,
null,,confidence_buffer,1343244,confidence_buffer,,null,,,,,,,,,,,,,,,,,,
null,,thebreak,1343752,break,,null,,,,,,,,,,,,,,,,,,
2060.5999999996275,,familiar_rating,1345815,Natchez,,49,Natchez,US,1,,,,,,,,,,,,,,,
null,,confidence_buffer,1345918,confidence_buffer,,null,,,,,,,,,,,,,,,,,,
1555.5,,unique_rating,1347475,Natchez,,51,,,3,,,,,,,,,,,,,,,
null,,confidence_buffer,1347584,confidence_buffer,,null,,,,,,,,,,,,,,,,,,
1619.3999999985099,,memorable_rating,1349206,Natchez,,50,,,2,,,,,,,,,,,,,,,
null,,confidence_buffer,1349311,confidence_buffer,,null,,,,,,,,,,,,,,,,,,
null,,thebreak,1349817,break,,null,,,,,,,,,,,,,,,,,,
1155.0999999996275,,familiar_rating,1350974,Meadowspire,,49,Meadowspire,Fictional,1,,,,,,,,,,,,,,,
null,,confidence_buffer,1351077,confidence_buffer,,null,,,,,,,,,,,,,,,,,,
2043.300000000745,,unique_rating,1353122,Meadowspire,,52,,,4,,,,,,,,,,,,,,,
null,,confidence_buffer,1353225,confidence_buffer,,null,,,,,,,,,,,,,,,,,,
1289,,probe_rating,1354517,probe_rating,,52,,,,4,1,,,,,,,,,,,,,
null,,confidence_buffer,1354620,confidence_buffer,,null,,,,,,,,,,,,,,,,,,
1765.4000000003725,,memorable_rating,1356388,Meadowspire,,50,,,2,,,,,,,,,,,,,,,
null,,confidence_buffer,1356492,confidence_buffer,,null,,,,,,,,,,,,,,,,,,
null,,thebreak,1356998,break,,null,,,,,,,,,,,,,,,,,,
2231.5999999996275,,familiar_rating,1359231,Hilo,,49,Hilo,US,1,,,,,,,,,,,,,,,
null,,confidence_buffer,1359339,confidence_buffer,,null,,,,,,,,,,,,,,,,,,
1491.9000000003725,,unique_rating,1360833,Hilo,,50,,,2,,,,,,,,,,,,,,,
null,,confidence_buffer,1360935,confidence_buffer,,null,,,,,,,,,,,,,,,,,,
1608.199999999255,,memorable_rating,1362546,Hilo,,52,,,4,,,,,,,,,,,,,,,
null,,confidence_buffer,1362651,confidence_buffer,,null,,,,,,,,,,,,,,,,,,
null,,thebreak,1363156,break,,null,,,,,,,,,,,,,,,,,,
2832.800000000745,,familiar_rating,1365990,Golden Trace,,51,Golden Trace,Fictional,3,,,,,,,,,,,,,,,
null,,confidence_buffer,1366095,confidence_buffer,,null,,,,,,,,,,,,,,,,,,
1120.4000000003725,,unique_rating,1367217,Golden Trace,,51,,,3,,,,,,,,,,,,,,,
null,,confidence_buffer,1367326,confidence_buffer,,null,,,,,,,,,,,,,,,,,,
1709.300000000745,,memorable_rating,1369037,Golden Trace,,52,,,4,,,,,,,,,,,,,,,
null,,confidence_buffer,1369142,confidence_buffer,,null,,,,,,,,,,,,,,,,,,
null,,thebreak,1369647,break,,null,,,,,,,,,,,,,,,,,,
3128,,familiar_rating,1372777,Lakehaven,,49,Lakehaven,Fictional,1,,,,,,,,,,,,,,,
null,,confidence_buffer,1372878,confidence_buffer,,null,,,,,,,,,,,,,,,,,,
1596.5,,unique_rating,1374477,Lakehaven,,49,,,1,,,,,,,,,,,,,,,
null,,confidence_buffer,1374585,confidence_buffer,,null,,,,,,,,,,,,,,,,,,
1550.0999999996275,,memorable_rating,1376137,Lakehaven,,53,,,5,,,,,,,,,,,,,,,
null,,confidence_buffer,1376241,confidence_buffer,,null,,,,,,,,,,,,,,,,,,
null,,thebreak,1376744,break,,null,,,,,,,,,,,,,,,,,,
43300.39999999851,,familiar_rating,1420046,Delaro Park,,50,Delaro Park,Fictional,2,,,,,,,,,,,,,,,
null,,confidence_buffer,1420152,confidence_buffer,,null,,,,,,,,,,,,,,,,,,
1250.7999999988824,,unique_rating,1421404,Delaro Park,,51,,,3,,,,,,,,,,,,,,,
null,,confidence_buffer,1421506,confidence_buffer,,null,,,,,,,,,,,,,,,,,,
1094.9000000003725,,memorable_rating,1422603,Delaro Park,,51,,,3,,,,,,,,,,,,,,,
null,,confidence_buffer,1422709,confidence_buffer,,null,,,,,,,,,,,,,,,,,,
null,,thebreak,1423225,break,,null,,,,,,,,,,,,,,,,,,
3536.5,,familiar_rating,1426763,Delaware City,,53,Delaware City,US,5,,,,,,,,,,,,,,,
null,,confidence_buffer,1426866,confidence_buffer,,null,,,,,,,,,,,,,,,,,,
2113.89999999851,,unique_rating,1428982,Delaware City,,53,,,5,,,,,,,,,,,,,,,
null,,confidence_buffer,1429086,confidence_buffer,,null,,,,,,,,,,,,,,,,,,
987.9000000003725,,memorable_rating,1430076,Delaware City,,53,,,5,,,,,,,,,,,,,,,
null,,confidence_buffer,1430179,confidence_buffer,,null,,,,,,,,,,,,,,,,,,
null,,thebreak,1430681,break,,null,,,,,,,,,,,,,,,,,,
987.7000000011176,,familiar_rating,1431670,Newport,,53,Newport,US,5,,,,,,,,,,,,,,,
null,,confidence_buffer,1431775,confidence_buffer,,null,,,,,,,,,,,,,,,,,,
925.1999999992549,,unique_rating,1432702,Newport,,53,,,5,,,,,,,,,,,,,,,
null,,confidence_buffer,1432805,confidence_buffer,,null,,,,,,,,,,,,,,,,,,
674.5,,memorable_rating,1433482,Newport,,53,,,5,,,,,,,,,,,,,,,
null,,confidence_buffer,1433587,confidence_buffer,,null,,,,,,,,,,,,,,,,,,
null,,thebreak,1434089,break,,null,,,,,,,,,,,,,,,,,,
1376.5,,familiar_rating,1435467,Leesburg,,50,Leesburg,US,2,,,,,,,,,,,,,,,
null,,confidence_buffer,1435576,confidence_buffer,,null,,,,,,,,,,,,,,,,,,
787.5999999996275,,unique_rating,1436365,Leesburg,,50,,,2,,,,,,,,,,,,,,,
null,,confidence_buffer,1436473,confidence_buffer,,null,,,,,,,,,,,,,,,,,,
2412.5999999996275,,memorable_rating,1438888,Leesburg,,51,,,3,,,,,,,,,,,,,,,
null,,confidence_buffer,1438996,confidence_buffer,,null,,,,,,,,,,,,,,,,,,
null,,thebreak,1439503,break,,null,,,,,,,,,,,,,,,,,,
1875.0999999996275,,familiar_rating,1441380,West Talora,,50,West Talora,Fictional,2,,,,,,,,,,,,,,,
null,,confidence_buffer,1441486,confidence_buffer,,null,,,,,,,,,,,,,,,,,,
1550.8999999985099,,unique_rating,1443039,West Talora,,50,,,2,,,,,,,,,,,,,,,
null,,confidence_buffer,1443145,confidence_buffer,,null,,,,,,,,,,,,,,,,,,
836.0999999996275,,memorable_rating,1443982,West Talora,,51,,,3,,,,,,,,,,,,,,,
null,,confidence_buffer,1444092,confidence_buffer,,null,,,,,,,,,,,,,,,,,,
null,,thebreak,1444593,break,,null,,,,,,,,,,,,,,,,,,
1819.3999999985099,,familiar_rating,1446415,Brookmere,,50,Brookmere,Fictional,2,,,,,,,,,,,,,,,
null,,confidence_buffer,1446520,confidence_buffer,,null,,,,,,,,,,,,,,,,,,
2780.699999999255,,unique_rating,1449303,Brookmere,,51,,,3,,,,,,,,,,,,,,,
null,,confidence_buffer,1449407,confidence_buffer,,null,,,,,,,,,,,,,,,,,,
352.6000000014901,,memorable_rating,1449762,Brookmere,,50,,,2,,,,,,,,,,,,,,,
null,,confidence_buffer,1449867,confidence_buffer,,null,,,,,,,,,,,,,,,,,,
null,,thebreak,1450374,break,,null,,,,,,,,,,,,,,,,,,
2026.199999999255,,familiar_rating,1452402,Highvale,,51,Highvale,Fictional,3,,,,,,,,,,,,,,,
null,,confidence_buffer,1452510,confidence_buffer,,null,,,,,,,,,,,,,,,,,,
1215.4000000003725,,unique_rating,1453727,Highvale,,50,,,2,,,,,,,,,,,,,,,
null,,confidence_buffer,1453831,confidence_buffer,,null,,,,,,,,,,,,,,,,,,
2599.5999999996275,,memorable_rating,1456433,Highvale,,52,,,4,,,,,,,,,,,,,,,
null,,confidence_buffer,1456541,confidence_buffer,,null,,,,,,,,,,,,,,,,,,
null,,thebreak,1457044,break,,null,,,,,,,,,,,,,,,,,,
3112.7000000011176,,familiar_rating,1460158,Elmsbury,,49,Elmsbury,Fictional,1,,,,,,,,,,,,,,,
null,,confidence_buffer,1460263,confidence_buffer,,null,,,,,,,,,,,,,,,,,,
1567.699999999255,,unique_rating,1461832,Elmsbury,,51,,,3,,,,,,,,,,,,,,,
null,,confidence_buffer,1461936,confidence_buffer,,null,,,,,,,,,,,,,,,,,,
2713.9000000003725,,memorable_rating,1464652,Elmsbury,,51,,,3,,,,,,,,,,,,,,,
null,,confidence_buffer,1464758,confidence_buffer,,null,,,,,,,,,,,,,,,,,,
null,,thebreak,1465261,break,,null,,,,,,,,,,,,,,,,,,
40389.90000000037,,intro_0,1505653,instruct,,32,,,,,,,,,,,,,,,,,,
55030.09999999963,,intro_1,1560686,instruct,,32,,,,,,,,,,,,,,,,,,
22243.800000000745,,intro_2,1582931,instruct,,32,,,,,,,,,,,,,,,,,,
null,,instruct_dir_4,1584436,instruct,,null,,,,,,,,,,,,,,,,,,
5569.799999998882,,realistic_rating,1590008,Brookmere,,52,Brookmere,Fictional,4,,,,,,,,,,,,,,,
null,,confidence_buffer,1590116,confidence_buffer,,null,,,,,,,,,,,,,,,,,,
2117.5,,pt2_unique_rating,1592235,Brookmere,,52,,,4,,,,,,,,,,,,,,,
null,,confidence_buffer,1592342,confidence_buffer,,null,,,,,,,,,,,,,,,,,,
1729.5,,pt2_memorable_rating,1594074,Brookmere,,52,,,4,,,,,,,,,,,,,,,
null,,confidence_buffer,1594179,confidence_buffer,,null,,,,,,,,,,,,,,,,,,
2532.699999999255,,recognition_phase,1596714,Brookmere,,49,,,,,,old,1,1,,,,,,,,,,
null,,confidence_buffer,1596824,confidence_buffer,,null,,,,,,,,,,,,,,,,,,
null,,thebreak,1597331,break,,null,,,,,,,,,,,,,,,,,,
3060.199999999255,,realistic_rating,1600393,Highvale,,51,Highvale,Fictional,3,,,,,,,,,,,,,,,
null,,confidence_buffer,1600497,confidence_buffer,,null,,,,,,,,,,,,,,,,,,
2042,,pt2_unique_rating,1602541,Highvale,,51,,,3,,,,,,,,,,,,,,,
null,,confidence_buffer,1602648,confidence_buffer,,null,,,,,,,,,,,,,,,,,,
2322.39999999851,,pt2_memorable_rating,1604972,Highvale,,52,,,4,,,,,,,,,,,,,,,
null,,confidence_buffer,1605076,confidence_buffer,,null,,,,,,,,,,,,,,,,,,
1156.699999999255,,recognition_phase,1606235,Highvale,,49,,,,,,old,1,1,,,,,,,,,,
null,,confidence_buffer,1606341,confidence_buffer,,null,,,,,,,,,,,,,,,,,,
null,,thebreak,1606844,break,,null,,,,,,,,,,,,,,,,,,
3558.9000000003725,,realistic_rating,1610405,Ravenport,,50,Ravenport,Fictional,2,,,,,,,,,,,,,,,
null,,confidence_buffer,1610511,confidence_buffer,,null,,,,,,,,,,,,,,,,,,
2434.4000000003725,,pt2_unique_rating,1612948,Ravenport,,51,,,3,,,,,,,,,,,,,,,
null,,confidence_buffer,1613057,confidence_buffer,,null,,,,,,,,,,,,,,,,,,
1732.199999999255,,probe_rating,1614792,probe_rating,,53,,,,5,1,,,,,,,,,,,,,
null,,confidence_buffer,1614895,confidence_buffer,,null,,,,,,,,,,,,,,,,,,
3039.5,,pt2_memorable_rating,1617937,Ravenport,,52,,,4,,,,,,,,,,,,,,,
null,,confidence_buffer,1618042,confidence_buffer,,null,,,,,,,,,,,,,,,,,,
760.6999999992549,,recognition_phase,1618805,Ravenport,,49,,,,,,old,0,0.6666666666666666,,,,,,,,,,
null,,confidence_buffer,1618907,confidence_buffer,,null,,,,,,,,,,,,,,,,,,
null,,thebreak,1619409,break,,null,,,,,,,,,,,,,,,,,,
3266.10000000149,,realistic_rating,1622677,Redgrove,,50,Redgrove,Fictional,2,,,,,,,,,,,,,,,
null,,confidence_buffer,1622779,confidence_buffer,,null,,,,,,,,,,,,,,,,,,
1962.800000000745,,pt2_unique_rating,1624743,Redgrove,,50,,,2,,,,,,,,,,,,,,,
null,,confidence_buffer,1624848,confidence_buffer,,null,,,,,,,,,,,,,,,,,,
2140.699999999255,,pt2_memorable_rating,1626991,Redgrove,,51,,,3,,,,,,,,,,,,,,,
null,,confidence_buffer,1627093,confidence_buffer,,null,,,,,,,,,,,,,,,,,,
1814,,recognition_phase,1628909,Redgrove,,52,,,,,,new,1,0.75,,,,,,,,,,
null,,confidence_buffer,1629014,confidence_buffer,,null,,,,,,,,,,,,,,,,,,
null,,thebreak,1629521,break,,null,,,,,,,,,,,,,,,,,,
3414.10000000149,,realistic_rating,1632937,Leesburg,,51,Leesburg,US,3,,,,,,,,,,,,,,,
null,,confidence_buffer,1633043,confidence_buffer,,null,,,,,,,,,,,,,,,,,,
2075.5999999996275,,pt2_unique_rating,1635121,Leesburg,,51,,,3,,,,,,,,,,,,,,,
null,,confidence_buffer,1635227,confidence_buffer,,null,,,,,,,,,,,,,,,,,,
1732.5,,pt2_memorable_rating,1636961,Leesburg,,51,,,3,,,,,,,,,,,,,,,
null,,confidence_buffer,1637066,confidence_buffer,,null,,,,,,,,,,,,,,,,,,
2337.5,,recognition_phase,1639405,Leesburg,,52,,,,,,new,0,0.6,,,,,,,,,,
null,,confidence_buffer,1639511,confidence_buffer,,null,,,,,,,,,,,,,,,,,,
null,,thebreak,1640019,break,,null,,,,,,,,,,,,,,,,,,
2691.0999999996275,,realistic_rating,1642712,Hawthorne Bluffs,,49,Hawthorne Bluffs,Fictional,1,,,,,,,,,,,,,,,
null,,confidence_buffer,1642817,confidence_buffer,,null,,,,,,,,,,,,,,,,,,
2610.5,,pt2_unique_rating,1645430,Hawthorne Bluffs,,53,,,5,,,,,,,,,,,,,,,
null,,confidence_buffer,1645541,confidence_buffer,,null,,,,,,,,,,,,,,,,,,
1962.4000000003725,,pt2_memorable_rating,1647505,Hawthorne Bluffs,,49,,,1,,,,,,,,,,,,,,,
null,,confidence_buffer,1647607,confidence_buffer,,null,,,,,,,,,,,,,,,,,,
1366,,recognition_phase,1648975,Hawthorne Bluffs,,52,,,,,,new,1,0.6666666666666666,,,,,,,,,,
null,,confidence_buffer,1649085,confidence_buffer,,null,,,,,,,,,,,,,,,,,,
null,,thebreak,1649587,break,,null,,,,,,,,,,,,,,,,,,
2661.5999999996275,,realistic_rating,1652250,Sunmere,,51,Sunmere,Fictional,3,,,,,,,,,,,,,,,
null,,confidence_buffer,1652362,confidence_buffer,,null,,,,,,,,,,,,,,,,,,
1932.199999999255,,pt2_unique_rating,1654295,Sunmere,,51,,,3,,,,,,,,,,,,,,,
null,,confidence_buffer,1654402,confidence_buffer,,null,,,,,,,,,,,,,,,,,,
1466.9000000003725,,probe_rating,1655871,probe_rating,,53,,,,5,1,,,,,,,,,,,,,
null,,confidence_buffer,1655978,confidence_buffer,,null,,,,,,,,,,,,,,,,,,
2238.0999999996275,,pt2_memorable_rating,1658218,Sunmere,,52,,,4,,,,,,,,,,,,,,,
null,,confidence_buffer,1658326,confidence_buffer,,null,,,,,,,,,,,,,,,,,,
2112.699999999255,,recognition_phase,1660442,Sunmere,,52,,,,,,new,1,0.7142857142857143,,,,,,,,,,
null,,confidence_buffer,1660547,confidence_buffer,,null,,,,,,,,,,,,,,,,,,
null,,thebreak,1661052,break,,null,,,,,,,,,,,,,,,,,,
4545.0999999996275,,realistic_rating,1665599,Athens,,53,Athens,US,5,,,,,,,,,,,,,,,
null,,confidence_buffer,1665705,confidence_buffer,,null,,,,,,,,,,,,,,,,,,
2250.5,,pt2_unique_rating,1667957,Athens,,52,,,4,,,,,,,,,,,,,,,
null,,confidence_buffer,1668065,confidence_buffer,,null,,,,,,,,,,,,,,,,,,
1269.5999999996275,,pt2_memorable_rating,1669337,Athens,,53,,,5,,,,,,,,,,,,,,,
null,,confidence_buffer,1669445,confidence_buffer,,null,,,,,,,,,,,,,,,,,,
2531,,recognition_phase,1671977,Athens,,52,,,,,,new,1,0.75,,,,,,,,,,
null,,confidence_buffer,1672082,confidence_buffer,,null,,,,,,,,,,,,,,,,,,
null,,thebreak,1672584,break,,null,,,,,,,,,,,,,,,,,,
3316.89999999851,,realistic_rating,1675903,Abilene,,50,Abilene,US,2,,,,,,,,,,,,,,,
null,,confidence_buffer,1676014,confidence_buffer,,null,,,,,,,,,,,,,,,,,,
1460.800000000745,,pt2_unique_rating,1677476,Abilene,,51,,,3,,,,,,,,,,,,,,,
null,,confidence_buffer,1677584,confidence_buffer,,null,,,,,,,,,,,,,,,,,,
1534.4000000003725,,pt2_memorable_rating,1679120,Abilene,,51,,,3,,,,,,,,,,,,,,,
null,,confidence_buffer,1679223,confidence_buffer,,null,,,,,,,,,,,,,,,,,,
1583.0999999996275,,recognition_phase,1680808,Abilene,,52,,,,,,new,1,0.7777777777777778,,,,,,,,,,
null,,confidence_buffer,1680913,confidence_buffer,,null,,,,,,,,,,,,,,,,,,
null,,thebreak,1681421,break,,null,,,,,,,,,,,,,,,,,,
2060.699999999255,,realistic_rating,1683483,Claywater,,50,Claywater,Fictional,2,,,,,,,,,,,,,,,
null,,confidence_buffer,1683586,confidence_buffer,,null,,,,,,,,,,,,,,,,,,
2087.5999999996275,,pt2_unique_rating,1685676,Claywater,,51,,,3,,,,,,,,,,,,,,,
null,,confidence_buffer,1685778,confidence_buffer,,null,,,,,,,,,,,,,,,,,,
2554.4000000003725,,pt2_memorable_rating,1688334,Claywater,,52,,,4,,,,,,,,,,,,,,,
null,,confidence_buffer,1688445,confidence_buffer,,null,,,,,,,,,,,,,,,,,,
2370.2999999988824,,recognition_phase,1690817,Claywater,,49,,,,,,old,1,0.8,,,,,,,,,,
null,,confidence_buffer,1690926,confidence_buffer,,null,,,,,,,,,,,,,,,,,,
null,,thebreak,1691434,break,,null,,,,,,,,,,,,,,,,,,
2036.0999999996275,,realistic_rating,1693472,Peoria,,51,Peoria,US,3,,,,,,,,,,,,,,,
null,,confidence_buffer,1693575,confidence_buffer,,null,,,,,,,,,,,,,,,,,,
1691.9000000003725,,pt2_unique_rating,1695269,Peoria,,51,,,3,,,,,,,,,,,,,,,
null,,confidence_buffer,1695374,confidence_buffer,,null,,,,,,,,,,,,,,,,,,
3120.300000000745,,pt2_memorable_rating,1698496,Peoria,,51,,,3,,,,,,,,,,,,,,,
null,,confidence_buffer,1698603,confidence_buffer,,null,,,,,,,,,,,,,,,,,,
1563.300000000745,,recognition_phase,1700168,Peoria,,52,,,,,,new,1,0.8181818181818182,,,,,,,,,,
null,,confidence_buffer,1700276,confidence_buffer,,null,,,,,,,,,,,,,,,,,,
null,,thebreak,1700786,break,,null,,,,,,,,,,,,,,,,,,
1739.300000000745,,realistic_rating,1702527,Huntsville,,50,Huntsville,US,2,,,,,,,,,,,,,,,
null,,confidence_buffer,1702630,confidence_buffer,,null,,,,,,,,,,,,,,,,,,
508.59999999962747,,pt2_unique_rating,1703140,Huntsville,,51,,,3,,,,,,,,,,,,,,,
null,,confidence_buffer,1703248,confidence_buffer,,null,,,,,,,,,,,,,,,,,,
884.0999999996275,,pt2_memorable_rating,1704134,Huntsville,,50,,,2,,,,,,,,,,,,,,,
null,,confidence_buffer,1704240,confidence_buffer,,null,,,,,,,,,,,,,,,,,,
2628.0999999996275,,recognition_phase,1706869,Huntsville,,52,,,,,,new,0,0.75,,,,,,,,,,
null,,confidence_buffer,1706979,confidence_buffer,,null,,,,,,,,,,,,,,,,,,
null,,thebreak,1707486,break,,null,,,,,,,,,,,,,,,,,,
3312,,realistic_rating,1710800,West Talora,,51,West Talora,Fictional,3,,,,,,,,,,,,,,,
null,,confidence_buffer,1710906,confidence_buffer,,null,,,,,,,,,,,,,,,,,,
875.6999999992549,,pt2_unique_rating,1711783,West Talora,,50,,,2,,,,,,,,,,,,,,,
null,,confidence_buffer,1711886,confidence_buffer,,null,,,,,,,,,,,,,,,,,,
863.5999999996275,,pt2_memorable_rating,1712751,West Talora,,51,,,3,,,,,,,,,,,,,,,
null,,confidence_buffer,1712859,confidence_buffer,,null,,,,,,,,,,,,,,,,,,
1306.800000000745,,recognition_phase,1714168,West Talora,,52,,,,,,new,0,0.6923076923076923,,,,,,,,,,
null,,confidence_buffer,1714276,confidence_buffer,,null,,,,,,,,,,,,,,,,,,
null,,thebreak,1714784,break,,null,,,,,,,,,,,,,,,,,,
3507.9000000003725,,realistic_rating,1718294,West Palm Beach,,52,West Palm Beach,US,4,,,,,,,,,,,,,,,
null,,confidence_buffer,1718396,confidence_buffer,,null,,,,,,,,,,,,,,,,,,
1125.2999999988824,,pt2_unique_rating,1719523,West Palm Beach,,52,,,4,,,,,,,,,,,,,,,
null,,confidence_buffer,1719633,confidence_buffer,,null,,,,,,,,,,,,,,,,,,
1696,,probe_rating,1721331,probe_rating,,50,,,,2,1,,,,,,,,,,,,,
null,,confidence_buffer,1721434,confidence_buffer,,null,,,,,,,,,,,,,,,,,,
2520.0999999996275,,pt2_memorable_rating,1723956,West Palm Beach,,52,,,4,,,,,,,,,,,,,,,
null,,confidence_buffer,1724064,confidence_buffer,,null,,,,,,,,,,,,,,,,,,
1410.2999999988824,,recognition_phase,1725476,West Palm Beach,,52,,,,,,new,1,0.7142857142857143,,,,,,,,,,
null,,confidence_buffer,1725578,confidence_buffer,,null,,,,,,,,,,,,,,,,,,
null,,thebreak,1726081,break,,null,,,,,,,,,,,,,,,,,,
2658,,realistic_rating,1728741,Montelake,,51,Montelake,Fictional,3,,,,,,,,,,,,,,,
null,,confidence_buffer,1728846,confidence_buffer,,null,,,,,,,,,,,,,,,,,,
1032.9000000003725,,pt2_unique_rating,1729880,Montelake,,51,,,3,,,,,,,,,,,,,,,
null,,confidence_buffer,1729989,confidence_buffer,,null,,,,,,,,,,,,,,,,,,
1302.9000000003725,,pt2_memorable_rating,1731293,Montelake,,51,,,3,,,,,,,,,,,,,,,
null,,confidence_buffer,1731402,confidence_buffer,,null,,,,,,,,,,,,,,,,,,
2131.5999999996275,,recognition_phase,1733536,Montelake,,52,,,,,,new,1,0.7333333333333333,,,,,,,,,,
null,,confidence_buffer,1733640,confidence_buffer,,null,,,,,,,,,,,,,,,,,,
null,,thebreak,1734144,break,,null,,,,,,,,,,,,,,,,,,
2109.39999999851,,realistic_rating,1736256,Racine,,51,Racine,US,3,,,,,,,,,,,,,,,
null,,confidence_buffer,1736361,confidence_buffer,,null,,,,,,,,,,,,,,,,,,
1395.5999999996275,,pt2_unique_rating,1737759,Racine,,50,,,2,,,,,,,,,,,,,,,
null,,confidence_buffer,1737866,confidence_buffer,,null,,,,,,,,,,,,,,,,,,
761.4000000003725,,pt2_memorable_rating,1738630,Racine,,51,,,3,,,,,,,,,,,,,,,
null,,confidence_buffer,1738740,confidence_buffer,,null,,,,,,,,,,,,,,,,,,
1195.7000000011176,,recognition_phase,1739938,Racine,,52,,,,,,new,1,0.75,,,,,,,,,,
null,,confidence_buffer,1740041,confidence_buffer,,null,,,,,,,,,,,,,,,,,,
null,,thebreak,1740544,break,,null,,,,,,,,,,,,,,,,,,
2827.4000000003725,,realistic_rating,1743373,Delaware City,,52,Delaware City,US,4,,,,,,,,,,,,,,,
null,,confidence_buffer,1743475,confidence_buffer,,null,,,,,,,,,,,,,,,,,,
1438.199999999255,,pt2_unique_rating,1744916,Delaware City,,52,,,4,,,,,,,,,,,,,,,
null,,confidence_buffer,1745020,confidence_buffer,,null,,,,,,,,,,,,,,,,,,
1916.5,,pt2_memorable_rating,1746939,Delaware City,,53,,,5,,,,,,,,,,,,,,,
null,,confidence_buffer,1747045,confidence_buffer,,null,,,,,,,,,,,,,,,,,,
2442.800000000745,,recognition_phase,1749489,Delaware City,,49,,,,,,old,1,0.7647058823529411,,,,,,,,,,
null,,confidence_buffer,1749595,confidence_buffer,,null,,,,,,,,,,,,,,,,,,
null,,thebreak,1750098,break,,null,,,,,,,,,,,,,,,,,,
3485.4000000003725,,realistic_rating,1753585,Driftwood Bay,,51,Driftwood Bay,Fictional,3,,,,,,,,,,,,,,,
null,,confidence_buffer,1753695,confidence_buffer,,null,,,,,,,,,,,,,,,,,,
1016.5,,pt2_unique_rating,1754713,Driftwood Bay,,50,,,2,,,,,,,,,,,,,,,
null,,confidence_buffer,1754822,confidence_buffer,,null,,,,,,,,,,,,,,,,,,
304.19999999925494,,pt2_memorable_rating,1755128,Driftwood Bay,,51,,,3,,,,,,,,,,,,,,,
null,,confidence_buffer,1755237,confidence_buffer,,null,,,,,,,,,,,,,,,,,,
2702.300000000745,,recognition_phase,1757941,Driftwood Bay,,52,,,,,,new,0,0.7222222222222222,,,,,,,,,,
null,,confidence_buffer,1758044,confidence_buffer,,null,,,,,,,,,,,,,,,,,,
null,,thebreak,1758546,break,,null,,,,,,,,,,,,,,,,,,
1976.7000000011176,,realistic_rating,1760525,Orchard Bend,,51,Orchard Bend,Fictional,3,,,,,,,,,,,,,,,
null,,confidence_buffer,1760628,confidence_buffer,,null,,,,,,,,,,,,,,,,,,
1375.4000000003725,,pt2_unique_rating,1762005,Orchard Bend,,51,,,3,,,,,,,,,,,,,,,
null,,confidence_buffer,1762110,confidence_buffer,,null,,,,,,,,,,,,,,,,,,
1719.300000000745,,pt2_memorable_rating,1763832,Orchard Bend,,50,,,2,,,,,,,,,,,,,,,
null,,confidence_buffer,1763939,confidence_buffer,,null,,,,,,,,,,,,,,,,,,
1479.7000000011176,,recognition_phase,1765420,Orchard Bend,,52,,,,,,new,1,0.7368421052631579,,,,,,,,,,
null,,confidence_buffer,1765529,confidence_buffer,,null,,,,,,,,,,,,,,,,,,
null,,thebreak,1766031,break,,null,,,,,,,,,,,,,,,,,,
2767,,realistic_rating,1768800,Orr,,50,Orr,US,2,,,,,,,,,,,,,,,
null,,confidence_buffer,1768910,confidence_buffer,,null,,,,,,,,,,,,,,,,,,
1302.7999999988824,,pt2_unique_rating,1770215,Orr,,50,,,2,,,,,,,,,,,,,,,
null,,confidence_buffer,1770318,confidence_buffer,,null,,,,,,,,,,,,,,,,,,
2654.7000000011176,,pt2_memorable_rating,1772975,Orr,,53,,,5,,,,,,,,,,,,,,,
null,,confidence_buffer,1773077,confidence_buffer,,null,,,,,,,,,,,,,,,,,,
1613.699999999255,,recognition_phase,1774693,Orr,,49,,,,,,old,1,0.75,,,,,,,,,,
null,,confidence_buffer,1774797,confidence_buffer,,null,,,,,,,,,,,,,,,,,,
null,,thebreak,1775305,break,,null,,,,,,,,,,,,,,,,,,
1692.800000000745,,realistic_rating,1776999,Cornwall,,51,Cornwall,US,3,,,,,,,,,,,,,,,
null,,confidence_buffer,1777101,confidence_buffer,,null,,,,,,,,,,,,,,,,,,
1004.0999999996275,,pt2_unique_rating,1778107,Cornwall,,51,,,3,,,,,,,,,,,,,,,
null,,confidence_buffer,1778211,confidence_buffer,,null,,,,,,,,,,,,,,,,,,
2005.6000000014901,,pt2_memorable_rating,1780219,Cornwall,,51,,,3,,,,,,,,,,,,,,,
null,,confidence_buffer,1780323,confidence_buffer,,null,,,,,,,,,,,,,,,,,,
1914.2999999988824,,recognition_phase,1782239,Cornwall,,49,,,,,,old,0,0.7142857142857143,,,,,,,,,,
null,,confidence_buffer,1782341,confidence_buffer,,null,,,,,,,,,,,,,,,,,,
null,,thebreak,1782846,break,,null,,,,,,,,,,,,,,,,,,
3804.5999999996275,,realistic_rating,1786653,East Ladera,,50,East Ladera,Fictional,2,,,,,,,,,,,,,,,
null,,confidence_buffer,1786757,confidence_buffer,,null,,,,,,,,,,,,,,,,,,
1703.2999999988824,,pt2_unique_rating,1788462,East Ladera,,51,,,3,,,,,,,,,,,,,,,
null,,confidence_buffer,1788565,confidence_buffer,,null,,,,,,,,,,,,,,,,,,
1602.199999999255,,pt2_memorable_rating,1790169,East Ladera,,50,,,2,,,,,,,,,,,,,,,
null,,confidence_buffer,1790275,confidence_buffer,,null,,,,,,,,,,,,,,,,,,
1842.9000000003725,,recognition_phase,1792120,East Ladera,,52,,,,,,new,1,0.7272727272727273,,,,,,,,,,
null,,confidence_buffer,1792226,confidence_buffer,,null,,,,,,,,,,,,,,,,,,
null,,thebreak,1792728,break,,null,,,,,,,,,,,,,,,,,,
1780.6000000014901,,realistic_rating,1794510,Silverpine,,51,Silverpine,Fictional,3,,,,,,,,,,,,,,,
null,,confidence_buffer,1794614,confidence_buffer,,null,,,,,,,,,,,,,,,,,,
976.5,,pt2_unique_rating,1795593,Silverpine,,51,,,3,,,,,,,,,,,,,,,
null,,confidence_buffer,1795698,confidence_buffer,,null,,,,,,,,,,,,,,,,,,
1011.2999999988824,,pt2_memorable_rating,1796711,Silverpine,,51,,,3,,,,,,,,,,,,,,,
null,,confidence_buffer,1796815,confidence_buffer,,null,,,,,,,,,,,,,,,,,,
1227.2000000011176,,recognition_phase,1798044,Silverpine,,49,,,,,,old,1,0.7391304347826086,,,,,,,,,,
null,,confidence_buffer,1798147,confidence_buffer,,null,,,,,,,,,,,,,,,,,,
null,,thebreak,1798648,break,,null,,,,,,,,,,,,,,,,,,
3329.300000000745,,realistic_rating,1801979,Riverlyn,,50,Riverlyn,Fictional,2,,,,,,,,,,,,,,,
null,,confidence_buffer,1802088,confidence_buffer,,null,,,,,,,,,,,,,,,,,,
630.5999999996275,,pt2_unique_rating,1802721,Riverlyn,,51,,,3,,,,,,,,,,,,,,,
null,,confidence_buffer,1802825,confidence_buffer,,null,,,,,,,,,,,,,,,,,,
1499.8999999985099,,pt2_memorable_rating,1804327,Riverlyn,,51,,,3,,,,,,,,,,,,,,,
null,,confidence_buffer,1804429,confidence_buffer,,null,,,,,,,,,,,,,,,,,,
1995,,recognition_phase,1806426,Riverlyn,,52,,,,,,new,1,0.75,,,,,,,,,,
null,,confidence_buffer,1806531,confidence_buffer,,null,,,,,,,,,,,,,,,,,,
null,,thebreak,1807039,break,,null,,,,,,,,,,,,,,,,,,
2143.300000000745,,realistic_rating,1809184,Tamarisk Hills,,51,Tamarisk Hills,Fictional,3,,,,,,,,,,,,,,,
null,,confidence_buffer,1809294,confidence_buffer,,null,,,,,,,,,,,,,,,,,,
1180.5999999996275,,pt2_unique_rating,1810476,Tamarisk Hills,,51,,,3,,,,,,,,,,,,,,,
null,,confidence_buffer,1810582,confidence_buffer,,null,,,,,,,,,,,,,,,,,,
1506,,pt2_memorable_rating,1812090,Tamarisk Hills,,50,,,2,,,,,,,,,,,,,,,
null,,confidence_buffer,1812193,confidence_buffer,,null,,,,,,,,,,,,,,,,,,
1688.7999999988824,,recognition_phase,1813884,Tamarisk Hills,,52,,,,,,new,1,0.76,,,,,,,,,,
null,,confidence_buffer,1813993,confidence_buffer,,null,,,,,,,,,,,,,,,,,,
null,,thebreak,1814500,break,,null,,,,,,,,,,,,,,,,,,
4279.39999999851,,realistic_rating,1818782,Natchez,,50,Natchez,US,2,,,,,,,,,,,,,,,
null,,confidence_buffer,1818885,confidence_buffer,,null,,,,,,,,,,,,,,,,,,
1454.9000000003725,,pt2_unique_rating,1820341,Natchez,,52,,,4,,,,,,,,,,,,,,,
null,,confidence_buffer,1820445,confidence_buffer,,null,,,,,,,,,,,,,,,,,,
1762.7999999988824,,pt2_memorable_rating,1822210,Natchez,,50,,,2,,,,,,,,,,,,,,,
null,,confidence_buffer,1822316,confidence_buffer,,null,,,,,,,,,,,,,,,,,,
2202.199999999255,,recognition_phase,1824520,Natchez,,51,,,,,,new,0,0.7307692307692307,,,,,,,,,,
null,,confidence_buffer,1824630,confidence_buffer,,null,,,,,,,,,,,,,,,,,,
null,,thebreak,1825136,break,,null,,,,,,,,,,,,,,,,,,
4333.300000000745,,realistic_rating,1829471,Albuquerque,,52,Albuquerque,US,4,,,,,,,,,,,,,,,
null,,confidence_buffer,1829578,confidence_buffer,,null,,,,,,,,,,,,,,,,,,
1805,,pt2_unique_rating,1831385,Albuquerque,,53,,,5,,,,,,,,,,,,,,,
null,,confidence_buffer,1831488,confidence_buffer,,null,,,,,,,,,,,,,,,,,,
2139.5,,pt2_memorable_rating,1833629,Albuquerque,,49,,,1,,,,,,,,,,,,,,,
null,,confidence_buffer,1833733,confidence_buffer,,null,,,,,,,,,,,,,,,,,,
1499.699999999255,,recognition_phase,1835235,Albuquerque,,49,,,,,,old,1,0.7407407407407407,,,,,,,,,,
null,,confidence_buffer,1835344,confidence_buffer,,null,,,,,,,,,,,,,,,,,,
null,,thebreak,1835851,break,,null,,,,,,,,,,,,,,,,,,
1818.5,,realistic_rating,1837672,Ashford Hills,,51,Ashford Hills,Fictional,3,,,,,,,,,,,,,,,
null,,confidence_buffer,1837780,confidence_buffer,,null,,,,,,,,,,,,,,,,,,
607.7999999988824,,pt2_unique_rating,1838389,Ashford Hills,,50,,,2,,,,,,,,,,,,,,,
null,,confidence_buffer,1838492,confidence_buffer,,null,,,,,,,,,,,,,,,,,,
926.1000000014901,,pt2_memorable_rating,1839420,Ashford Hills,,51,,,3,,,,,,,,,,,,,,,
null,,confidence_buffer,1839524,confidence_buffer,,null,,,,,,,,,,,,,,,,,,
2277.199999999255,,probe_rating,1841802,probe_rating,,49,,,,1,1,,,,,,,,,,,,,
null,,confidence_buffer,1841905,confidence_buffer,,null,,,,,,,,,,,,,,,,,,
2558.199999999255,,recognition_phase,1844466,Ashford Hills,,52,,,,,,new,1,0.75,,,,,,,,,,
null,,confidence_buffer,1844571,confidence_buffer,,null,,,,,,,,,,,,,,,,,,
null,,thebreak,1845081,break,,null,,,,,,,,,,,,,,,,,,
2752.300000000745,,realistic_rating,1847835,Yukon,,51,Yukon,US,3,,,,,,,,,,,,,,,
null,,confidence_buffer,1847939,confidence_buffer,,null,,,,,,,,,,,,,,,,,,
1452.5999999996275,,pt2_unique_rating,1849394,Yukon,,51,,,3,,,,,,,,,,,,,,,
null,,confidence_buffer,1849501,confidence_buffer,,null,,,,,,,,,,,,,,,,,,
1507.199999999255,,pt2_memorable_rating,1851011,Yukon,,52,,,4,,,,,,,,,,,,,,,
null,,confidence_buffer,1851121,confidence_buffer,,null,,,,,,,,,,,,,,,,,,
2993.2999999988824,,recognition_phase,1854116,Yukon,,52,,,,,,new,1,0.7586206896551724,,,,,,,,,,
null,,confidence_buffer,1854219,confidence_buffer,,null,,,,,,,,,,,,,,,,,,
null,,thebreak,1854724,break,,null,,,,,,,,,,,,,,,,,,
4989.5,,realistic_rating,1859715,Okoboji,,50,Okoboji,US,2,,,,,,,,,,,,,,,
null,,confidence_buffer,1859820,confidence_buffer,,null,,,,,,,,,,,,,,,,,,
1259.1000000014901,,pt2_unique_rating,1861081,Okoboji,,50,,,2,,,,,,,,,,,,,,,
null,,confidence_buffer,1861185,confidence_buffer,,null,,,,,,,,,,,,,,,,,,
1537.300000000745,,pt2_memorable_rating,1862725,Okoboji,,51,,,3,,,,,,,,,,,,,,,
null,,confidence_buffer,1862830,confidence_buffer,,null,,,,,,,,,,,,,,,,,,
1244.4000000003725,,recognition_phase,1864077,Okoboji,,49,,,,,,old,1,0.7666666666666667,,,,,,,,,,
null,,confidence_buffer,1864183,confidence_buffer,,null,,,,,,,,,,,,,,,,,,
null,,thebreak,1864688,break,,null,,,,,,,,,,,,,,,,,,
2343.5999999996275,,realistic_rating,1867033,Westridge,,51,Westridge,Fictional,3,,,,,,,,,,,,,,,
null,,confidence_buffer,1867139,confidence_buffer,,null,,,,,,,,,,,,,,,,,,
1022.2999999988824,,pt2_unique_rating,1868164,Westridge,,51,,,3,,,,,,,,,,,,,,,
null,,confidence_buffer,1868266,confidence_buffer,,null,,,,,,,,,,,,,,,,,,
1150.699999999255,,pt2_memorable_rating,1869419,Westridge,,52,,,4,,,,,,,,,,,,,,,
null,,confidence_buffer,1869522,confidence_buffer,,null,,,,,,,,,,,,,,,,,,
1373.0999999996275,,recognition_phase,1870898,Westridge,,49,,,,,,old,1,0.7741935483870968,,,,,,,,,,
null,,confidence_buffer,1871000,confidence_buffer,,null,,,,,,,,,,,,,,,,,,
null,,thebreak,1871504,break,,null,,,,,,,,,,,,,,,,,,
2000.9000000003725,,realistic_rating,1873507,Carmel,,51,Carmel,US,3,,,,,,,,,,,,,,,
null,,confidence_buffer,1873612,confidence_buffer,,null,,,,,,,,,,,,,,,,,,
1346.5,,pt2_unique_rating,1874960,Carmel,,51,,,3,,,,,,,,,,,,,,,
null,,confidence_buffer,1875064,confidence_buffer,,null,,,,,,,,,,,,,,,,,,
3674,,pt2_memorable_rating,1878739,Carmel,,52,,,4,,,,,,,,,,,,,,,
null,,confidence_buffer,1878848,confidence_buffer,,null,,,,,,,,,,,,,,,,,,
1072,,probe_rating,1879922,probe_rating,,49,,,,1,1,,,,,,,,,,,,,
null,,confidence_buffer,1880029,confidence_buffer,,null,,,,,,,,,,,,,,,,,,
2076.7000000011176,,recognition_phase,1882108,Carmel,,51,,,,,,new,1,0.78125,,,,,,,,,,
null,,confidence_buffer,1882211,confidence_buffer,,null,,,,,,,,,,,,,,,,,,
null,,thebreak,1882719,break,,null,,,,,,,,,,,,,,,,,,
1885,,realistic_rating,1884606,Briarfield,,51,Briarfield,Fictional,3,,,,,,,,,,,,,,,
null,,confidence_buffer,1884708,confidence_buffer,,null,,,,,,,,,,,,,,,,,,
718.3000000007451,,pt2_unique_rating,1885429,Briarfield,,51,,,3,,,,,,,,,,,,,,,
null,,confidence_buffer,1885536,confidence_buffer,,null,,,,,,,,,,,,,,,,,,
586.5,,pt2_memorable_rating,1886124,Briarfield,,52,,,4,,,,,,,,,,,,,,,
null,,confidence_buffer,1886235,confidence_buffer,,null,,,,,,,,,,,,,,,,,,
840.8000000007451,,recognition_phase,1887078,Briarfield,,49,,,,,,old,1,0.7878787878787878,,,,,,,,,,
null,,confidence_buffer,1887185,confidence_buffer,,null,,,,,,,,,,,,,,,,,,
null,,thebreak,1887686,break,,null,,,,,,,,,,,,,,,,,,
2975.7999999988824,,realistic_rating,1890664,Livingston,,52,Livingston,US,4,,,,,,,,,,,,,,,
null,,confidence_buffer,1890773,confidence_buffer,,null,,,,,,,,,,,,,,,,,,
1017.4000000003725,,pt2_unique_rating,1891792,Livingston,,52,,,4,,,,,,,,,,,,,,,
null,,confidence_buffer,1891895,confidence_buffer,,null,,,,,,,,,,,,,,,,,,
1154.5,,probe_rating,1893052,probe_rating,,52,,,,4,1,,,,,,,,,,,,,
null,,confidence_buffer,1893154,confidence_buffer,,null,,,,,,,,,,,,,,,,,,
1678.199999999255,,pt2_memorable_rating,1894834,Livingston,,53,,,5,,,,,,,,,,,,,,,
null,,confidence_buffer,1894939,confidence_buffer,,null,,,,,,,,,,,,,,,,,,
2332.2999999988824,,recognition_phase,1897273,Livingston,,52,,,,,,new,1,0.7941176470588235,,,,,,,,,,
null,,confidence_buffer,1897378,confidence_buffer,,null,,,,,,,,,,,,,,,,,,
null,,thebreak,1897881,break,,null,,,,,,,,,,,,,,,,,,
1254,,realistic_rating,1899137,Willowford,,52,Willowford,Fictional,4,,,,,,,,,,,,,,,
null,,confidence_buffer,1899246,confidence_buffer,,null,,,,,,,,,,,,,,,,,,
746.9000000003725,,pt2_unique_rating,1899995,Willowford,,53,,,5,,,,,,,,,,,,,,,
null,,confidence_buffer,1900105,confidence_buffer,,null,,,,,,,,,,,,,,,,,,
466.2000000011176,,pt2_memorable_rating,1900573,Willowford,,52,,,4,,,,,,,,,,,,,,,
null,,confidence_buffer,1900675,confidence_buffer,,null,,,,,,,,,,,,,,,,,,
3551.7000000011176,,recognition_phase,1904228,Willowford,,52,,,,,,new,1,0.8,,,,,,,,,,
null,,confidence_buffer,1904332,confidence_buffer,,null,,,,,,,,,,,,,,,,,,
null,,thebreak,1904838,break,,null,,,,,,,,,,,,,,,,,,
2561.60000000149,,realistic_rating,1907401,Barnard,,51,Barnard,US,3,,,,,,,,,,,,,,,
null,,confidence_buffer,1907506,confidence_buffer,,null,,,,,,,,,,,,,,,,,,
1519.5999999996275,,pt2_unique_rating,1909029,Barnard,,52,,,4,,,,,,,,,,,,,,,
null,,confidence_buffer,1909135,confidence_buffer,,null,,,,,,,,,,,,,,,,,,
3088.9000000003725,,pt2_memorable_rating,1912225,Barnard,,51,,,3,,,,,,,,,,,,,,,
null,,confidence_buffer,1912333,confidence_buffer,,null,,,,,,,,,,,,,,,,,,
2237.4000000003725,,recognition_phase,1914572,Barnard,,52,,,,,,new,1,0.8055555555555556,,,,,,,,,,
null,,confidence_buffer,1914678,confidence_buffer,,null,,,,,,,,,,,,,,,,,,
null,,thebreak,1915188,break,,null,,,,,,,,,,,,,,,,,,
2718.39999999851,,realistic_rating,1917909,Newport,,53,Newport,US,5,,,,,,,,,,,,,,,
null,,confidence_buffer,1918015,confidence_buffer,,null,,,,,,,,,,,,,,,,,,
1538.5,,pt2_unique_rating,1919555,Newport,,53,,,5,,,,,,,,,,,,,,,
null,,confidence_buffer,1919662,confidence_buffer,,null,,,,,,,,,,,,,,,,,,
992,,probe_rating,1920656,probe_rating,,52,,,,4,1,,,,,,,,,,,,,
null,,confidence_buffer,1920760,confidence_buffer,,null,,,,,,,,,,,,,,,,,,
1292.2000000011176,,pt2_memorable_rating,1922054,Newport,,53,,,5,,,,,,,,,,,,,,,
null,,confidence_buffer,1922156,confidence_buffer,,null,,,,,,,,,,,,,,,,,,
1626.800000000745,,recognition_phase,1923785,Newport,,49,,,,,,old,1,0.8108108108108109,,,,,,,,,,
null,,confidence_buffer,1923891,confidence_buffer,,null,,,,,,,,,,,,,,,,,,
null,,thebreak,1924396,break,,null,,,,,,,,,,,,,,,,,,
1908.5,,realistic_rating,1926306,Summershade,,50,Summershade,Fictional,2,,,,,,,,,,,,,,,
null,,confidence_buffer,1926412,confidence_buffer,,null,,,,,,,,,,,,,,,,,,
877.5999999996275,,pt2_unique_rating,1927291,Summershade,,51,,,3,,,,,,,,,,,,,,,
null,,confidence_buffer,1927400,confidence_buffer,,null,,,,,,,,,,,,,,,,,,
1839.9000000003725,,pt2_memorable_rating,1929241,Summershade,,51,,,3,,,,,,,,,,,,,,,
null,,confidence_buffer,1929345,confidence_buffer,,null,,,,,,,,,,,,,,,,,,
1907.0999999996275,,recognition_phase,1931254,Summershade,,52,,,,,,new,1,0.8157894736842105,,,,,,,,,,
null,,confidence_buffer,1931362,confidence_buffer,,null,,,,,,,,,,,,,,,,,,
null,,thebreak,1931864,break,,null,,,,,,,,,,,,,,,,,,
2688.800000000745,,realistic_rating,1934555,Maravilla Springs,,51,Maravilla Springs,Fictional,3,,,,,,,,,,,,,,,
null,,confidence_buffer,1934658,confidence_buffer,,null,,,,,,,,,,,,,,,,,,
510.19999999925494,,pt2_unique_rating,1935171,Maravilla Springs,,52,,,4,,,,,,,,,,,,,,,
null,,confidence_buffer,1935276,confidence_buffer,,null,,,,,,,,,,,,,,,,,,
1800.699999999255,,probe_rating,1937079,probe_rating,,50,,,,2,1,,,,,,,,,,,,,
null,,confidence_buffer,1937182,confidence_buffer,,null,,,,,,,,,,,,,,,,,,
1321.699999999255,,pt2_memorable_rating,1938505,Maravilla Springs,,51,,,3,,,,,,,,,,,,,,,
null,,confidence_buffer,1938615,confidence_buffer,,null,,,,,,,,,,,,,,,,,,
1714,,recognition_phase,1940331,Maravilla Springs,,52,,,,,,new,0,0.7948717948717948,,,,,,,,,,
null,,confidence_buffer,1940439,confidence_buffer,,null,,,,,,,,,,,,,,,,,,
null,,thebreak,1940941,break,,null,,,,,,,,,,,,,,,,,,
1557.6000000014901,,realistic_rating,1942500,Gloucester,,51,Gloucester,US,3,,,,,,,,,,,,,,,
null,,confidence_buffer,1942603,confidence_buffer,,null,,,,,,,,,,,,,,,,,,
1842.9000000003725,,pt2_unique_rating,1944448,Gloucester,,50,,,2,,,,,,,,,,,,,,,
null,,confidence_buffer,1944556,confidence_buffer,,null,,,,,,,,,,,,,,,,,,
1241.7999999988824,,pt2_memorable_rating,1945799,Gloucester,,50,,,2,,,,,,,,,,,,,,,
null,,confidence_buffer,1945907,confidence_buffer,,null,,,,,,,,,,,,,,,,,,
3005.2999999988824,,recognition_phase,1948913,Gloucester,,52,,,,,,new,1,0.8,,,,,,,,,,
null,,confidence_buffer,1949020,confidence_buffer,,null,,,,,,,,,,,,,,,,,,
null,,thebreak,1949522,break,,null,,,,,,,,,,,,,,,,,,
1965.300000000745,,realistic_rating,1951490,Alliance,,51,Alliance,US,3,,,,,,,,,,,,,,,
null,,confidence_buffer,1951596,confidence_buffer,,null,,,,,,,,,,,,,,,,,,
2008,,pt2_unique_rating,1953606,Alliance,,51,,,3,,,,,,,,,,,,,,,
null,,confidence_buffer,1953708,confidence_buffer,,null,,,,,,,,,,,,,,,,,,
2412.9000000003725,,pt2_memorable_rating,1956123,Alliance,,53,,,5,,,,,,,,,,,,,,,
null,,confidence_buffer,1956232,confidence_buffer,,null,,,,,,,,,,,,,,,,,,
1248.8999999985099,,recognition_phase,1957483,Alliance,,49,,,,,,old,1,0.8048780487804879,,,,,,,,,,
null,,confidence_buffer,1957591,confidence_buffer,,null,,,,,,,,,,,,,,,,,,
null,,thebreak,1958100,break,,null,,,,,,,,,,,,,,,,,,
2142.800000000745,,realistic_rating,1960245,Shreveport,,52,Shreveport,US,4,,,,,,,,,,,,,,,
null,,confidence_buffer,1960351,confidence_buffer,,null,,,,,,,,,,,,,,,,,,
1361.5999999996275,,pt2_unique_rating,1961714,Shreveport,,51,,,3,,,,,,,,,,,,,,,
null,,confidence_buffer,1961824,confidence_buffer,,null,,,,,,,,,,,,,,,,,,
792.4000000003725,,pt2_memorable_rating,1962618,Shreveport,,52,,,4,,,,,,,,,,,,,,,
null,,confidence_buffer,1962727,confidence_buffer,,null,,,,,,,,,,,,,,,,,,
1049.4000000003725,,recognition_phase,1963779,Shreveport,,49,,,,,,old,1,0.8095238095238095,,,,,,,,,,
null,,confidence_buffer,1963881,confidence_buffer,,null,,,,,,,,,,,,,,,,,,
null,,thebreak,1964390,break,,null,,,,,,,,,,,,,,,,,,
2217,,realistic_rating,1966609,Coralridge,,51,Coralridge,Fictional,3,,,,,,,,,,,,,,,
null,,confidence_buffer,1966717,confidence_buffer,,null,,,,,,,,,,,,,,,,,,
1399,,pt2_unique_rating,1968118,Coralridge,,51,,,3,,,,,,,,,,,,,,,
null,,confidence_buffer,1968223,confidence_buffer,,null,,,,,,,,,,,,,,,,,,
1155.5,,pt2_memorable_rating,1969381,Coralridge,,51,,,3,,,,,,,,,,,,,,,
null,,confidence_buffer,1969490,confidence_buffer,,null,,,,,,,,,,,,,,,,,,
1372.800000000745,,recognition_phase,1970864,Coralridge,,52,,,,,,new,1,0.813953488372093,,,,,,,,,,
null,,confidence_buffer,1970974,confidence_buffer,,null,,,,,,,,,,,,,,,,,,
null,,thebreak,1971476,break,,null,,,,,,,,,,,,,,,,,,
2007.4000000003725,,realistic_rating,1973486,Sisters,,50,Sisters,US,2,,,,,,,,,,,,,,,
null,,confidence_buffer,1973590,confidence_buffer,,null,,,,,,,,,,,,,,,,,,
1397.699999999255,,pt2_unique_rating,1974989,Sisters,,51,,,3,,,,,,,,,,,,,,,
null,,confidence_buffer,1975095,confidence_buffer,,null,,,,,,,,,,,,,,,,,,
1892,,pt2_memorable_rating,1976989,Sisters,,53,,,5,,,,,,,,,,,,,,,
null,,confidence_buffer,1977094,confidence_buffer,,null,,,,,,,,,,,,,,,,,,
1965,,recognition_phase,1979061,Sisters,,49,,,,,,old,1,0.8181818181818182,,,,,,,,,,
null,,confidence_buffer,1979164,confidence_buffer,,null,,,,,,,,,,,,,,,,,,
null,,thebreak,1979666,break,,null,,,,,,,,,,,,,,,,,,
2007.5,,realistic_rating,1981675,Lakehaven,,52,Lakehaven,Fictional,4,,,,,,,,,,,,,,,
null,,confidence_buffer,1981781,confidence_buffer,,null,,,,,,,,,,,,,,,,,,
919.5999999996275,,pt2_unique_rating,1982702,Lakehaven,,52,,,4,,,,,,,,,,,,,,,
null,,confidence_buffer,1982810,confidence_buffer,,null,,,,,,,,,,,,,,,,,,
3049,,pt2_memorable_rating,1985860,Lakehaven,,53,,,5,,,,,,,,,,,,,,,
null,,confidence_buffer,1985968,confidence_buffer,,null,,,,,,,,,,,,,,,,,,
802.0999999996275,,recognition_phase,1986771,Lakehaven,,49,,,,,,old,1,0.8222222222222222,,,,,,,,,,
null,,confidence_buffer,1986876,confidence_buffer,,null,,,,,,,,,,,,,,,,,,
null,,thebreak,1987383,break,,null,,,,,,,,,,,,,,,,,,
1955.800000000745,,realistic_rating,1989340,Cody,,50,Cody,US,2,,,,,,,,,,,,,,,
null,,confidence_buffer,1989449,confidence_buffer,,null,,,,,,,,,,,,,,,,,,
1676.5,,probe_rating,1991128,probe_rating,,53,,,,5,1,,,,,,,,,,,,,
null,,confidence_buffer,1991235,confidence_buffer,,null,,,,,,,,,,,,,,,,,,
1768.300000000745,,pt2_unique_rating,1993005,Cody,,52,,,4,,,,,,,,,,,,,,,
null,,confidence_buffer,1993114,confidence_buffer,,null,,,,,,,,,,,,,,,,,,
1266,,pt2_memorable_rating,1994382,Cody,,53,,,5,,,,,,,,,,,,,,,
null,,confidence_buffer,1994490,confidence_buffer,,null,,,,,,,,,,,,,,,,,,
2186.4000000003725,,recognition_phase,1996678,Cody,,52,,,,,,new,1,0.8260869565217391,,,,,,,,,,
null,,confidence_buffer,1996786,confidence_buffer,,null,,,,,,,,,,,,,,,,,,
null,,thebreak,1997289,break,,null,,,,,,,,,,,,,,,,,,
1160.1000000014901,,realistic_rating,1998451,Solara Glen,,52,Solara Glen,Fictional,4,,,,,,,,,,,,,,,
null,,confidence_buffer,1998554,confidence_buffer,,null,,,,,,,,,,,,,,,,,,
1388.2999999988824,,probe_rating,1999943,probe_rating,,53,,,,5,1,,,,,,,,,,,,,
null,,confidence_buffer,2000046,confidence_buffer,,null,,,,,,,,,,,,,,,,,,
2231.5,,pt2_unique_rating,2002279,Solara Glen,,52,,,4,,,,,,,,,,,,,,,
null,,confidence_buffer,2002392,confidence_buffer,,null,,,,,,,,,,,,,,,,,,
1154.5,,pt2_memorable_rating,2003548,Solara Glen,,52,,,4,,,,,,,,,,,,,,,
null,,confidence_buffer,2003652,confidence_buffer,,null,,,,,,,,,,,,,,,,,,
1864.5999999996275,,recognition_phase,2005518,Solara Glen,,52,,,,,,new,1,0.8297872340425532,,,,,,,,,,
null,,confidence_buffer,2005620,confidence_buffer,,null,,,,,,,,,,,,,,,,,,
null,,thebreak,2006129,break,,null,,,,,,,,,,,,,,,,,,
1805.0999999996275,,realistic_rating,2007936,Lake of the Ozarks,,50,Lake of the Ozarks,US,2,,,,,,,,,,,,,,,
null,,confidence_buffer,2008045,confidence_buffer,,null,,,,,,,,,,,,,,,,,,
2200.199999999255,,pt2_unique_rating,2010246,Lake of the Ozarks,,50,,,2,,,,,,,,,,,,,,,
null,,confidence_buffer,2010350,confidence_buffer,,null,,,,,,,,,,,,,,,,,,
1564.699999999255,,pt2_memorable_rating,2011917,Lake of the Ozarks,,52,,,4,,,,,,,,,,,,,,,
null,,confidence_buffer,2012025,confidence_buffer,,null,,,,,,,,,,,,,,,,,,
1090.699999999255,,recognition_phase,2013118,Lake of the Ozarks,,49,,,,,,old,1,0.8333333333333334,,,,,,,,,,
null,,confidence_buffer,2013224,confidence_buffer,,null,,,,,,,,,,,,,,,,,,
null,,thebreak,2013729,break,,null,,,,,,,,,,,,,,,,,,
1757.5,,realistic_rating,2015489,Manistee,,51,Manistee,US,3,,,,,,,,,,,,,,,
null,,confidence_buffer,2015599,confidence_buffer,,null,,,,,,,,,,,,,,,,,,
953.9000000003725,,pt2_unique_rating,2016554,Manistee,,51,,,3,,,,,,,,,,,,,,,
null,,confidence_buffer,2016662,confidence_buffer,,null,,,,,,,,,,,,,,,,,,
1375.7999999988824,,pt2_memorable_rating,2018039,Manistee,,52,,,4,,,,,,,,,,,,,,,
null,,confidence_buffer,2018142,confidence_buffer,,null,,,,,,,,,,,,,,,,,,
1579.9000000003725,,recognition_phase,2019724,Manistee,,52,,,,,,new,1,0.8367346938775511,,,,,,,,,,
null,,confidence_buffer,2019830,confidence_buffer,,null,,,,,,,,,,,,,,,,,,
null,,thebreak,2020339,break,,null,,,,,,,,,,,,,,,,,,
2054.7999999988824,,realistic_rating,2022396,Golden Trace,,51,Golden Trace,Fictional,3,,,,,,,,,,,,,,,
null,,confidence_buffer,2022505,confidence_buffer,,null,,,,,,,,,,,,,,,,,,
715.1000000014901,,pt2_unique_rating,2023222,Golden Trace,,50,,,2,,,,,,,,,,,,,,,
null,,confidence_buffer,2023324,confidence_buffer,,null,,,,,,,,,,,,,,,,,,
436.69999999925494,,pt2_memorable_rating,2023763,Golden Trace,,51,,,3,,,,,,,,,,,,,,,
null,,confidence_buffer,2023866,confidence_buffer,,null,,,,,,,,,,,,,,,,,,
971.1999999992549,,recognition_phase,2024839,Golden Trace,,49,,,,,,old,1,0.84,,,,,,,,,,
null,,confidence_buffer,2024946,confidence_buffer,,null,,,,,,,,,,,,,,,,,,
null,,thebreak,2025452,break,,null,,,,,,,,,,,,,,,,,,
2011.5,,realistic_rating,2027465,Meadowspire,,52,Meadowspire,Fictional,4,,,,,,,,,,,,,,,
null,,confidence_buffer,2027575,confidence_buffer,,null,,,,,,,,,,,,,,,,,,
855.6999999992549,,pt2_unique_rating,2028433,Meadowspire,,51,,,3,,,,,,,,,,,,,,,
null,,confidence_buffer,2028536,confidence_buffer,,null,,,,,,,,,,,,,,,,,,
1322.7000000011176,,pt2_memorable_rating,2029861,Meadowspire,,51,,,3,,,,,,,,,,,,,,,
null,,confidence_buffer,2029966,confidence_buffer,,null,,,,,,,,,,,,,,,,,,
1814.9000000003725,,recognition_phase,2031783,Meadowspire,,52,,,,,,new,0,0.8235294117647058,,,,,,,,,,
null,,confidence_buffer,2031893,confidence_buffer,,null,,,,,,,,,,,,,,,,,,
null,,thebreak,2032395,break,,null,,,,,,,,,,,,,,,,,,
2678.7999999988824,,realistic_rating,2035076,Medora,,51,Medora,US,3,,,,,,,,,,,,,,,
null,,confidence_buffer,2035186,confidence_buffer,,null,,,,,,,,,,,,,,,,,,
866.5,,pt2_unique_rating,2036055,Medora,,51,,,3,,,,,,,,,,,,,,,
null,,confidence_buffer,2036164,confidence_buffer,,null,,,,,,,,,,,,,,,,,,
1116.199999999255,,pt2_memorable_rating,2037283,Medora,,51,,,3,,,,,,,,,,,,,,,
null,,confidence_buffer,2037385,confidence_buffer,,null,,,,,,,,,,,,,,,,,,
3707.0999999996275,,recognition_phase,2041094,Medora,,52,,,,,,new,1,0.8269230769230769,,,,,,,,,,
null,,confidence_buffer,2041203,confidence_buffer,,null,,,,,,,,,,,,,,,,,,
null,,thebreak,2041706,break,,null,,,,,,,,,,,,,,,,,,
2467.9000000003725,,realistic_rating,2044177,Cleveland,,53,Cleveland,US,5,,,,,,,,,,,,,,,
null,,confidence_buffer,2044284,confidence_buffer,,null,,,,,,,,,,,,,,,,,,
907.9000000003725,,pt2_unique_rating,2045193,Cleveland,,53,,,5,,,,,,,,,,,,,,,
null,,confidence_buffer,2045302,confidence_buffer,,null,,,,,,,,,,,,,,,,,,
815.0999999996275,,pt2_memorable_rating,2046120,Cleveland,,53,,,5,,,,,,,,,,,,,,,
null,,confidence_buffer,2046223,confidence_buffer,,null,,,,,,,,,,,,,,,,,,
943,,recognition_phase,2047168,Cleveland,,49,,,,,,old,1,0.8301886792452831,,,,,,,,,,
null,,confidence_buffer,2047273,confidence_buffer,,null,,,,,,,,,,,,,,,,,,
null,,thebreak,2047780,break,,null,,,,,,,,,,,,,,,,,,
1454,,realistic_rating,2049236,Granton Ridge,,51,Granton Ridge,Fictional,3,,,,,,,,,,,,,,,
null,,confidence_buffer,2049345,confidence_buffer,,null,,,,,,,,,,,,,,,,,,
623.4000000003725,,pt2_unique_rating,2049970,Granton Ridge,,52,,,4,,,,,,,,,,,,,,,
null,,confidence_buffer,2050081,confidence_buffer,,null,,,,,,,,,,,,,,,,,,
1519.9000000003725,,probe_rating,2051604,probe_rating,,51,,,,3,1,,,,,,,,,,,,,
null,,confidence_buffer,2051711,confidence_buffer,,null,,,,,,,,,,,,,,,,,,
1114.2999999988824,,pt2_memorable_rating,2052828,Granton Ridge,,52,,,4,,,,,,,,,,,,,,,
null,,confidence_buffer,2052932,confidence_buffer,,null,,,,,,,,,,,,,,,,,,
1635.800000000745,,recognition_phase,2054570,Granton Ridge,,52,,,,,,new,1,0.8333333333333334,,,,,,,,,,
null,,confidence_buffer,2054676,confidence_buffer,,null,,,,,,,,,,,,,,,,,,
null,,thebreak,2055179,break,,null,,,,,,,,,,,,,,,,,,
2304.199999999255,,realistic_rating,2057486,Bar Harbor,,50,Bar Harbor,US,2,,,,,,,,,,,,,,,
null,,confidence_buffer,2057588,confidence_buffer,,null,,,,,,,,,,,,,,,,,,
353.90000000037253,,pt2_unique_rating,2057944,Bar Harbor,,51,,,3,,,,,,,,,,,,,,,
null,,confidence_buffer,2058051,confidence_buffer,,null,,,,,,,,,,,,,,,,,,
975.6999999992549,,pt2_memorable_rating,2059029,Bar Harbor,,51,,,3,,,,,,,,,,,,,,,
null,,confidence_buffer,2059133,confidence_buffer,,null,,,,,,,,,,,,,,,,,,
2535.199999999255,,recognition_phase,2061671,Bar Harbor,,50,,,,,,old,1,0.8363636363636363,,,,,,,,,,
null,,confidence_buffer,2061780,confidence_buffer,,null,,,,,,,,,,,,,,,,,,
null,,thebreak,2062287,break,,null,,,,,,,,,,,,,,,,,,
1426.5,,realistic_rating,2063715,Falconridge,,51,Falconridge,Fictional,3,,,,,,,,,,,,,,,
null,,confidence_buffer,2063820,confidence_buffer,,null,,,,,,,,,,,,,,,,,,
731,,pt2_unique_rating,2064553,Falconridge,,51,,,3,,,,,,,,,,,,,,,
null,,confidence_buffer,2064658,confidence_buffer,,null,,,,,,,,,,,,,,,,,,
539.9000000003725,,pt2_memorable_rating,2065200,Falconridge,,52,,,4,,,,,,,,,,,,,,,
null,,confidence_buffer,2065302,confidence_buffer,,null,,,,,,,,,,,,,,,,,,
1859.9000000003725,,recognition_phase,2067164,Falconridge,,49,,,,,,old,1,0.8392857142857143,,,,,,,,,,
null,,confidence_buffer,2067268,confidence_buffer,,null,,,,,,,,,,,,,,,,,,
null,,thebreak,2067773,break,,null,,,,,,,,,,,,,,,,,,
1173.4000000003725,,realistic_rating,2068949,Hilo,,51,Hilo,US,3,,,,,,,,,,,,,,,
null,,confidence_buffer,2069055,confidence_buffer,,null,,,,,,,,,,,,,,,,,,
1452.2000000011176,,probe_rating,2070510,probe_rating,,53,,,,5,1,,,,,,,,,,,,,
null,,confidence_buffer,2070618,confidence_buffer,,null,,,,,,,,,,,,,,,,,,
1230.2000000011176,,pt2_unique_rating,2071850,Hilo,,53,,,5,,,,,,,,,,,,,,,
null,,confidence_buffer,2071954,confidence_buffer,,null,,,,,,,,,,,,,,,,,,
1255.4000000003725,,pt2_memorable_rating,2073212,Hilo,,52,,,4,,,,,,,,,,,,,,,
null,,confidence_buffer,2073322,confidence_buffer,,null,,,,,,,,,,,,,,,,,,
1482.699999999255,,recognition_phase,2074807,Hilo,,52,,,,,,new,0,0.8245614035087719,,,,,,,,,,
null,,confidence_buffer,2074911,confidence_buffer,,null,,,,,,,,,,,,,,,,,,
null,,thebreak,2075419,break,,null,,,,,,,,,,,,,,,,,,
2376.9000000003725,,realistic_rating,2077798,Delaro Park,,52,Delaro Park,Fictional,4,,,,,,,,,,,,,,,
null,,confidence_buffer,2077906,confidence_buffer,,null,,,,,,,,,,,,,,,,,,
431.5,,pt2_unique_rating,2078339,Delaro Park,,51,,,3,,,,,,,,,,,,,,,
null,,confidence_buffer,2078445,confidence_buffer,,null,,,,,,,,,,,,,,,,,,
564.1999999992549,,pt2_memorable_rating,2079011,Delaro Park,,52,,,4,,,,,,,,,,,,,,,
null,,confidence_buffer,2079118,confidence_buffer,,null,,,,,,,,,,,,,,,,,,
1247.0999999996275,,probe_rating,2080367,probe_rating,,53,,,,5,1,,,,,,,,,,,,,
null,,confidence_buffer,2080471,confidence_buffer,,null,,,,,,,,,,,,,,,,,,
1493.6000000014901,,recognition_phase,2081966,Delaro Park,,49,,,,,,old,1,0.8275862068965517,,,,,,,,,,
null,,confidence_buffer,2082072,confidence_buffer,,null,,,,,,,,,,,,,,,,,,
null,,thebreak,2082578,break,,null,,,,,,,,,,,,,,,,,,
1942.800000000745,,realistic_rating,2084523,Elmsbury,,52,Elmsbury,Fictional,4,,,,,,,,,,,,,,,
null,,confidence_buffer,2084625,confidence_buffer,,null,,,,,,,,,,,,,,,,,,
821.4000000003725,,pt2_unique_rating,2085449,Elmsbury,,52,,,4,,,,,,,,,,,,,,,
null,,confidence_buffer,2085558,confidence_buffer,,null,,,,,,,,,,,,,,,,,,
1277.7999999988824,,pt2_memorable_rating,2086838,Elmsbury,,52,,,4,,,,,,,,,,,,,,,
null,,confidence_buffer,2086946,confidence_buffer,,null,,,,,,,,,,,,,,,,,,
1706,,recognition_phase,2088655,Elmsbury,,49,,,,,,old,1,0.8305084745762712,,,,,,,,,,
null,,confidence_buffer,2088758,confidence_buffer,,null,,,,,,,,,,,,,,,,,,
null,,thebreak,2089261,break,,null,,,,,,,,,,,,,,,,,,
1151.4000000003725,,realistic_rating,2090414,Hot Springs,,51,Hot Springs,US,3,,,,,,,,,,,,,,,
null,,confidence_buffer,2090519,confidence_buffer,,null,,,,,,,,,,,,,,,,,,
510.6000000014901,,pt2_unique_rating,2091032,Hot Springs,,52,,,4,,,,,,,,,,,,,,,
null,,confidence_buffer,2091141,confidence_buffer,,null,,,,,,,,,,,,,,,,,,
1392.9000000003725,,pt2_memorable_rating,2092536,Hot Springs,,53,,,5,,,,,,,,,,,,,,,
null,,confidence_buffer,2092639,confidence_buffer,,null,,,,,,,,,,,,,,,,,,
2587.60000000149,,recognition_phase,2095229,Hot Springs,,51,,,,,,new,1,0.8333333333333334,,,,,,,,,,
null,,confidence_buffer,2095335,confidence_buffer,,null,,,,,,,,,,,,,,,,,,
null,,thebreak,2095840,break,,null,,,,,,,,,,,,,,,,,,
,,survey,2390982,survey-questions,,,,,,,,,,,none,high,n/a,I just tried as much as possible to remember the names of the cities, with an advantage of having a retentive memory.,I processed how abreast I was with the city names.,I took into consideration the spelling and pronunciation of the cities involved.,I took into consideration how special the names were during the study.,I factored in how original the city names were during the study.,n/a,n/a
