rt,responses,trial_type,time_elapsed,stimulus,button_pressed,key_press,name_trial,city_type,rating,probe,probe_accuracy,response,correct,accuracy,problems,smooth,distraction,strategies,familiar,memorable,unique,realistic,similar,comments
19128.399999976158,{worker_id:67eaf7ac600979b62eedb17c},id_enter,19137,,,,,,,,,,,,,,,,,,,,,
3358.800000011921,,fullscreen,22502,fullscreen,0,,,,,,,,,,,,,,,,,,,
1357.800000011921,,intro_0,23863,instruct,,32,,,,,,,,,,,,,,,,,,
599.5,,intro_1,24466,instruct,,32,,,,,,,,,,,,,,,,,,
530.3999999761581,,intro_2,24999,instruct,,32,,,,,,,,,,,,,,,,,,
null,,instruct_dir_4,26504,instruct,,null,,,,,,,,,,,,,,,,,,
null,,thebreak,27015,break,,null,,,,,,,,,,,,,,,,,,
3717.100000023842,,familiar_rating,30734,Rosehollow,,49,Rosehollow,Fictional,1,,,,,,,,,,,,,,,
null,,confidence_buffer,30838,confidence_buffer,,null,,,,,,,,,,,,,,,,,,
1025.3999999761581,,unique_rating,31865,Rosehollow,,50,,,2,,,,,,,,,,,,,,,
null,,confidence_buffer,31967,confidence_buffer,,null,,,,,,,,,,,,,,,,,,
868.0999999642372,,memorable_rating,32837,Rosehollow,,51,,,3,,,,,,,,,,,,,,,
null,,confidence_buffer,32939,confidence_buffer,,null,,,,,,,,,,,,,,,,,,
null,,thebreak,33451,break,,null,,,,,,,,,,,,,,,,,,
2095.5,,familiar_rating,35548,Millstone,,52,Millstone,Fictional,4,,,,,,,,,,,,,,,
null,,confidence_buffer,35660,confidence_buffer,,null,,,,,,,,,,,,,,,,,,
1133.199999988079,,unique_rating,36795,Millstone,,53,,,5,,,,,,,,,,,,,,,
null,,confidence_buffer,36905,confidence_buffer,,null,,,,,,,,,,,,,,,,,,
939.8000000119209,,memorable_rating,37847,Millstone,,52,,,4,,,,,,,,,,,,,,,
null,,confidence_buffer,37953,confidence_buffer,,null,,,,,,,,,,,,,,,,,,
null,,thebreak,38471,break,,null,,,,,,,,,,,,,,,,,,
529.5,,familiar_rating,39002,Gatlinburg,,51,Gatlinburg,US,3,,,,,,,,,,,,,,,
null,,confidence_buffer,39113,confidence_buffer,,null,,,,,,,,,,,,,,,,,,
1675,,probe_rating,40790,probe_rating,,53,,,,5,1,,,,,,,,,,,,,
null,,confidence_buffer,40894,confidence_buffer,,null,,,,,,,,,,,,,,,,,,
2084.2000000476837,,unique_rating,42980,Gatlinburg,,52,,,4,,,,,,,,,,,,,,,
null,,confidence_buffer,43088,confidence_buffer,,null,,,,,,,,,,,,,,,,,,
873.8999999761581,,memorable_rating,43963,Gatlinburg,,51,,,3,,,,,,,,,,,,,,,
null,,confidence_buffer,44074,confidence_buffer,,null,,,,,,,,,,,,,,,,,,
null,,thebreak,44584,break,,null,,,,,,,,,,,,,,,,,,
738.6999999880791,,familiar_rating,45324,Maravilla Springs,,50,Maravilla Springs,Fictional,2,,,,,,,,,,,,,,,
null,,confidence_buffer,45435,confidence_buffer,,null,,,,,,,,,,,,,,,,,,
818.3999999761581,,unique_rating,46254,Maravilla Springs,,49,,,1,,,,,,,,,,,,,,,
null,,confidence_buffer,46359,confidence_buffer,,null,,,,,,,,,,,,,,,,,,
1186.1000000238419,,memorable_rating,47546,Maravilla Springs,,50,,,2,,,,,,,,,,,,,,,
null,,confidence_buffer,47651,confidence_buffer,,null,,,,,,,,,,,,,,,,,,
null,,thebreak,48156,break,,null,,,,,,,,,,,,,,,,,,
525.3000000119209,,familiar_rating,48683,New Verdan,,51,New Verdan,Fictional,3,,,,,,,,,,,,,,,
null,,confidence_buffer,48796,confidence_buffer,,null,,,,,,,,,,,,,,,,,,
1368.300000011921,,unique_rating,50167,New Verdan,,52,,,4,,,,,,,,,,,,,,,
null,,confidence_buffer,50273,confidence_buffer,,null,,,,,,,,,,,,,,,,,,
863.6000000238419,,memorable_rating,51139,New Verdan,,53,,,5,,,,,,,,,,,,,,,
null,,confidence_buffer,51248,confidence_buffer,,null,,,,,,,,,,,,,,,,,,
null,,thebreak,51751,break,,null,,,,,,,,,,,,,,,,,,
719.1999999880791,,familiar_rating,52472,Peoria,,52,Peoria,US,4,,,,,,,,,,,,,,,
null,,confidence_buffer,52580,confidence_buffer,,null,,,,,,,,,,,,,,,,,,
833.4000000357628,,unique_rating,53415,Peoria,,51,,,3,,,,,,,,,,,,,,,
null,,confidence_buffer,53521,confidence_buffer,,null,,,,,,,,,,,,,,,,,,
958.3000000119209,,memorable_rating,54481,Peoria,,50,,,2,,,,,,,,,,,,,,,
null,,confidence_buffer,54585,confidence_buffer,,null,,,,,,,,,,,,,,,,,,
null,,thebreak,55091,break,,null,,,,,,,,,,,,,,,,,,
915.8999999761581,,familiar_rating,56009,Duck,,49,Duck,US,1,,,,,,,,,,,,,,,
null,,confidence_buffer,56115,confidence_buffer,,null,,,,,,,,,,,,,,,,,,
1599.699999988079,,unique_rating,57716,Duck,,50,,,2,,,,,,,,,,,,,,,
null,,confidence_buffer,57825,confidence_buffer,,null,,,,,,,,,,,,,,,,,,
802,,memorable_rating,58628,Duck,,51,,,3,,,,,,,,,,,,,,,
null,,confidence_buffer,58745,confidence_buffer,,null,,,,,,,,,,,,,,,,,,
null,,thebreak,59248,break,,null,,,,,,,,,,,,,,,,,,
2136.400000035763,,familiar_rating,61386,Orr,,52,Orr,US,4,,,,,,,,,,,,,,,
null,,confidence_buffer,61503,confidence_buffer,,null,,,,,,,,,,,,,,,,,,
946.2999999523163,,unique_rating,62451,Orr,,53,,,5,,,,,,,,,,,,,,,
null,,confidence_buffer,62552,confidence_buffer,,null,,,,,,,,,,,,,,,,,,
979.8999999761581,,memorable_rating,63533,Orr,,52,,,4,,,,,,,,,,,,,,,
null,,confidence_buffer,63636,confidence_buffer,,null,,,,,,,,,,,,,,,,,,
null,,thebreak,64138,break,,null,,,,,,,,,,,,,,,,,,
1018.8999999761581,,familiar_rating,65158,Bar Harbor,,51,Bar Harbor,US,3,,,,,,,,,,,,,,,
null,,confidence_buffer,65263,confidence_buffer,,null,,,,,,,,,,,,,,,,,,
951.6999999880791,,unique_rating,66217,Bar Harbor,,50,,,2,,,,,,,,,,,,,,,
null,,confidence_buffer,66321,confidence_buffer,,null,,,,,,,,,,,,,,,,,,
829.6999999880791,,memorable_rating,67152,Bar Harbor,,49,,,1,,,,,,,,,,,,,,,
null,,confidence_buffer,67262,confidence_buffer,,null,,,,,,,,,,,,,,,,,,
null,,thebreak,67767,break,,null,,,,,,,,,,,,,,,,,,
1304.9000000357628,,familiar_rating,69073,Redgrove,,49,Redgrove,Fictional,1,,,,,,,,,,,,,,,
null,,confidence_buffer,69191,confidence_buffer,,null,,,,,,,,,,,,,,,,,,
47837.5,,unique_rating,117031,Redgrove,,51,,,3,,,,,,,,,,,,,,,
null,,confidence_buffer,117139,confidence_buffer,,null,,,,,,,,,,,,,,,,,,
2600.900000035763,,memorable_rating,119742,Redgrove,,51,,,3,,,,,,,,,,,,,,,
null,,confidence_buffer,119851,confidence_buffer,,null,,,,,,,,,,,,,,,,,,
1992.5999999642372,,probe_rating,121845,probe_rating,,53,,,,5,1,,,,,,,,,,,,,
null,,confidence_buffer,121954,confidence_buffer,,null,,,,,,,,,,,,,,,,,,
null,,thebreak,122472,break,,null,,,,,,,,,,,,,,,,,,
1613.199999988079,,familiar_rating,124086,Manistee,,51,Manistee,US,3,,,,,,,,,,,,,,,
null,,confidence_buffer,124190,confidence_buffer,,null,,,,,,,,,,,,,,,,,,
1133.300000011921,,unique_rating,125325,Manistee,,49,,,1,,,,,,,,,,,,,,,
null,,confidence_buffer,125433,confidence_buffer,,null,,,,,,,,,,,,,,,,,,
951.3000000119209,,memorable_rating,126386,Manistee,,50,,,2,,,,,,,,,,,,,,,
null,,confidence_buffer,126502,confidence_buffer,,null,,,,,,,,,,,,,,,,,,
null,,thebreak,127012,break,,null,,,,,,,,,,,,,,,,,,
777.7999999523163,,familiar_rating,127791,Stonebrook,,51,Stonebrook,Fictional,3,,,,,,,,,,,,,,,
null,,confidence_buffer,127896,confidence_buffer,,null,,,,,,,,,,,,,,,,,,
1337.2999999523163,,unique_rating,129234,Stonebrook,,52,,,4,,,,,,,,,,,,,,,
null,,confidence_buffer,129343,confidence_buffer,,null,,,,,,,,,,,,,,,,,,
1139.4000000357628,,memorable_rating,130484,Stonebrook,,53,,,5,,,,,,,,,,,,,,,
null,,confidence_buffer,130589,confidence_buffer,,null,,,,,,,,,,,,,,,,,,
null,,thebreak,131101,break,,null,,,,,,,,,,,,,,,,,,
1552.199999988079,,familiar_rating,132655,East Ladera,,52,East Ladera,Fictional,4,,,,,,,,,,,,,,,
null,,confidence_buffer,132766,confidence_buffer,,null,,,,,,,,,,,,,,,,,,
2238.699999988079,,unique_rating,135007,East Ladera,,51,,,3,,,,,,,,,,,,,,,
null,,confidence_buffer,135111,confidence_buffer,,null,,,,,,,,,,,,,,,,,,
1208.300000011921,,memorable_rating,136321,East Ladera,,50,,,2,,,,,,,,,,,,,,,
null,,confidence_buffer,136432,confidence_buffer,,null,,,,,,,,,,,,,,,,,,
null,,thebreak,136943,break,,null,,,,,,,,,,,,,,,,,,
786.3000000119209,,familiar_rating,137730,Huntsville,,49,Huntsville,US,1,,,,,,,,,,,,,,,
null,,confidence_buffer,137838,confidence_buffer,,null,,,,,,,,,,,,,,,,,,
22193.900000035763,,unique_rating,160033,Huntsville,,49,,,1,,,,,,,,,,,,,,,
null,,confidence_buffer,160142,confidence_buffer,,null,,,,,,,,,,,,,,,,,,
1240,,memorable_rating,161384,Huntsville,,50,,,2,,,,,,,,,,,,,,,
null,,confidence_buffer,161490,confidence_buffer,,null,,,,,,,,,,,,,,,,,,
null,,thebreak,161994,break,,null,,,,,,,,,,,,,,,,,,
858.8999999761581,,familiar_rating,162854,San Antonio,,51,San Antonio,US,3,,,,,,,,,,,,,,,
null,,confidence_buffer,162958,confidence_buffer,,null,,,,,,,,,,,,,,,,,,
974.5,,unique_rating,163934,San Antonio,,52,,,4,,,,,,,,,,,,,,,
null,,confidence_buffer,164043,confidence_buffer,,null,,,,,,,,,,,,,,,,,,
1362.699999988079,,memorable_rating,165407,San Antonio,,51,,,3,,,,,,,,,,,,,,,
null,,confidence_buffer,165516,confidence_buffer,,null,,,,,,,,,,,,,,,,,,
null,,thebreak,166020,break,,null,,,,,,,,,,,,,,,,,,
1039.5,,familiar_rating,167060,Berkeley Springs,,51,Berkeley Springs,US,3,,,,,,,,,,,,,,,
null,,confidence_buffer,167172,confidence_buffer,,null,,,,,,,,,,,,,,,,,,
914.6999999880791,,unique_rating,168087,Berkeley Springs,,50,,,2,,,,,,,,,,,,,,,
null,,confidence_buffer,168193,confidence_buffer,,null,,,,,,,,,,,,,,,,,,
703.7000000476837,,memorable_rating,168897,Berkeley Springs,,49,,,1,,,,,,,,,,,,,,,
null,,confidence_buffer,169004,confidence_buffer,,null,,,,,,,,,,,,,,,,,,
null,,thebreak,169508,break,,null,,,,,,,,,,,,,,,,,,
888,,familiar_rating,170398,Crestwood,,50,Crestwood,Fictional,2,,,,,,,,,,,,,,,
null,,confidence_buffer,170500,confidence_buffer,,null,,,,,,,,,,,,,,,,,,
904.0999999642372,,unique_rating,171405,Crestwood,,51,,,3,,,,,,,,,,,,,,,
null,,confidence_buffer,171516,confidence_buffer,,null,,,,,,,,,,,,,,,,,,
902.6999999880791,,memorable_rating,172420,Crestwood,,52,,,4,,,,,,,,,,,,,,,
null,,confidence_buffer,172532,confidence_buffer,,null,,,,,,,,,,,,,,,,,,
null,,thebreak,173044,break,,null,,,,,,,,,,,,,,,,,,
924.8999999761581,,familiar_rating,173970,Oakridge,,51,Oakridge,Fictional,3,,,,,,,,,,,,,,,
null,,confidence_buffer,174072,confidence_buffer,,null,,,,,,,,,,,,,,,,,,
1005.1999999880791,,unique_rating,175078,Oakridge,,50,,,2,,,,,,,,,,,,,,,
null,,confidence_buffer,175188,confidence_buffer,,null,,,,,,,,,,,,,,,,,,
1037.0999999642372,,memorable_rating,176226,Oakridge,,49,,,1,,,,,,,,,,,,,,,
null,,confidence_buffer,176333,confidence_buffer,,null,,,,,,,,,,,,,,,,,,
null,,thebreak,176841,break,,null,,,,,,,,,,,,,,,,,,
27967.899999976158,,familiar_rating,204811,Silverpine,,49,Silverpine,Fictional,1,,,,,,,,,,,,,,,
null,,confidence_buffer,204920,confidence_buffer,,null,,,,,,,,,,,,,,,,,,
9394.300000011921,,unique_rating,214316,Silverpine,,50,,,2,,,,,,,,,,,,,,,
null,,confidence_buffer,214422,confidence_buffer,,null,,,,,,,,,,,,,,,,,,
1196.5,,memorable_rating,215619,Silverpine,,51,,,3,,,,,,,,,,,,,,,
null,,confidence_buffer,215727,confidence_buffer,,null,,,,,,,,,,,,,,,,,,
null,,thebreak,216233,break,,null,,,,,,,,,,,,,,,,,,
858.5999999642372,,familiar_rating,217093,Bowling Green,,52,Bowling Green,US,4,,,,,,,,,,,,,,,
null,,confidence_buffer,217198,confidence_buffer,,null,,,,,,,,,,,,,,,,,,
1091.800000011921,,unique_rating,218291,Bowling Green,,51,,,3,,,,,,,,,,,,,,,
null,,confidence_buffer,218403,confidence_buffer,,null,,,,,,,,,,,,,,,,,,
967.5,,memorable_rating,219372,Bowling Green,,50,,,2,,,,,,,,,,,,,,,
null,,confidence_buffer,219474,confidence_buffer,,null,,,,,,,,,,,,,,,,,,
1250.5,,probe_rating,220726,probe_rating,,49,,,,1,1,,,,,,,,,,,,,
null,,confidence_buffer,220832,confidence_buffer,,null,,,,,,,,,,,,,,,,,,
null,,thebreak,221343,break,,null,,,,,,,,,,,,,,,,,,
1160.199999988079,,familiar_rating,222505,Okoboji,,50,Okoboji,US,2,,,,,,,,,,,,,,,
null,,confidence_buffer,222610,confidence_buffer,,null,,,,,,,,,,,,,,,,,,
885.3999999761581,,unique_rating,223497,Okoboji,,51,,,3,,,,,,,,,,,,,,,
null,,confidence_buffer,223601,confidence_buffer,,null,,,,,,,,,,,,,,,,,,
896,,memorable_rating,224498,Okoboji,,52,,,4,,,,,,,,,,,,,,,
null,,confidence_buffer,224609,confidence_buffer,,null,,,,,,,,,,,,,,,,,,
null,,thebreak,225121,break,,null,,,,,,,,,,,,,,,,,,
1817.0999999642372,,familiar_rating,226940,Abilene,,51,Abilene,US,3,,,,,,,,,,,,,,,
null,,confidence_buffer,227046,confidence_buffer,,null,,,,,,,,,,,,,,,,,,
13193.5,,unique_rating,240241,Abilene,,49,,,1,,,,,,,,,,,,,,,
null,,confidence_buffer,240343,confidence_buffer,,null,,,,,,,,,,,,,,,,,,
2557.899999976158,,probe_rating,242902,probe_rating,,53,,,,5,1,,,,,,,,,,,,,
null,,confidence_buffer,243012,confidence_buffer,,null,,,,,,,,,,,,,,,,,,
1478.699999988079,,memorable_rating,244492,Abilene,,51,,,3,,,,,,,,,,,,,,,
null,,confidence_buffer,244595,confidence_buffer,,null,,,,,,,,,,,,,,,,,,
null,,thebreak,245111,break,,null,,,,,,,,,,,,,,,,,,
763.9000000357628,,familiar_rating,245875,Brookmere,,50,Brookmere,Fictional,2,,,,,,,,,,,,,,,
null,,confidence_buffer,245978,confidence_buffer,,null,,,,,,,,,,,,,,,,,,
768.1000000238419,,unique_rating,246747,Brookmere,,49,,,1,,,,,,,,,,,,,,,
null,,confidence_buffer,246858,confidence_buffer,,null,,,,,,,,,,,,,,,,,,
1709.9000000357628,,memorable_rating,248569,Brookmere,,50,,,2,,,,,,,,,,,,,,,
null,,confidence_buffer,248673,confidence_buffer,,null,,,,,,,,,,,,,,,,,,
null,,thebreak,249182,break,,null,,,,,,,,,,,,,,,,,,
1215.8999999761581,,familiar_rating,250399,Carmel,,51,Carmel,US,3,,,,,,,,,,,,,,,
null,,confidence_buffer,250510,confidence_buffer,,null,,,,,,,,,,,,,,,,,,
1217.5999999642372,,unique_rating,251730,Carmel,,52,,,4,,,,,,,,,,,,,,,
null,,confidence_buffer,251834,confidence_buffer,,null,,,,,,,,,,,,,,,,,,
1167.800000011921,,memorable_rating,253003,Carmel,,52,,,4,,,,,,,,,,,,,,,
null,,confidence_buffer,253113,confidence_buffer,,null,,,,,,,,,,,,,,,,,,
null,,thebreak,253622,break,,null,,,,,,,,,,,,,,,,,,
29290.400000035763,,familiar_rating,282913,Assateague Island,,49,Assateague Island,US,1,,,,,,,,,,,,,,,
null,,confidence_buffer,283018,confidence_buffer,,null,,,,,,,,,,,,,,,,,,
957.5999999642372,,unique_rating,283977,Assateague Island,,50,,,2,,,,,,,,,,,,,,,
null,,confidence_buffer,284087,confidence_buffer,,null,,,,,,,,,,,,,,,,,,
793.3000000119209,,memorable_rating,284882,Assateague Island,,51,,,3,,,,,,,,,,,,,,,
null,,confidence_buffer,284993,confidence_buffer,,null,,,,,,,,,,,,,,,,,,
null,,thebreak,285498,break,,null,,,,,,,,,,,,,,,,,,
4356.199999988079,,familiar_rating,289856,Linden Trace,,52,Linden Trace,Fictional,4,,,,,,,,,,,,,,,
null,,confidence_buffer,289964,confidence_buffer,,null,,,,,,,,,,,,,,,,,,
757.8000000119209,,unique_rating,290723,Linden Trace,,51,,,3,,,,,,,,,,,,,,,
null,,confidence_buffer,290829,confidence_buffer,,null,,,,,,,,,,,,,,,,,,
1759.199999988079,,probe_rating,292590,probe_rating,,52,,,,4,1,,,,,,,,,,,,,
null,,confidence_buffer,292700,confidence_buffer,,null,,,,,,,,,,,,,,,,,,
1150.699999988079,,memorable_rating,293852,Linden Trace,,51,,,3,,,,,,,,,,,,,,,
null,,confidence_buffer,293960,confidence_buffer,,null,,,,,,,,,,,,,,,,,,
null,,thebreak,294470,break,,null,,,,,,,,,,,,,,,,,,
728.3000000119209,,familiar_rating,295200,Livingston,,50,Livingston,US,2,,,,,,,,,,,,,,,
null,,confidence_buffer,295304,confidence_buffer,,null,,,,,,,,,,,,,,,,,,
951.8999999761581,,unique_rating,296258,Livingston,,49,,,1,,,,,,,,,,,,,,,
null,,confidence_buffer,296368,confidence_buffer,,null,,,,,,,,,,,,,,,,,,
1365.6000000238419,,memorable_rating,297735,Livingston,,50,,,2,,,,,,,,,,,,,,,
null,,confidence_buffer,297844,confidence_buffer,,null,,,,,,,,,,,,,,,,,,
null,,thebreak,298348,break,,null,,,,,,,,,,,,,,,,,,
662.3000000119209,,familiar_rating,299012,Golden Trace,,51,Golden Trace,Fictional,3,,,,,,,,,,,,,,,
null,,confidence_buffer,299121,confidence_buffer,,null,,,,,,,,,,,,,,,,,,
795.6000000238419,,unique_rating,299919,Golden Trace,,52,,,4,,,,,,,,,,,,,,,
null,,confidence_buffer,300028,confidence_buffer,,null,,,,,,,,,,,,,,,,,,
1144.4000000357628,,memorable_rating,301174,Golden Trace,,51,,,3,,,,,,,,,,,,,,,
null,,confidence_buffer,301284,confidence_buffer,,null,,,,,,,,,,,,,,,,,,
null,,thebreak,301787,break,,null,,,,,,,,,,,,,,,,,,
733.6999999880791,,familiar_rating,302522,Baymarsh,,50,Baymarsh,Fictional,2,,,,,,,,,,,,,,,
null,,confidence_buffer,302633,confidence_buffer,,null,,,,,,,,,,,,,,,,,,
914.5,,unique_rating,303548,Baymarsh,,49,,,1,,,,,,,,,,,,,,,
null,,confidence_buffer,303654,confidence_buffer,,null,,,,,,,,,,,,,,,,,,
904.3000000119209,,memorable_rating,304560,Baymarsh,,50,,,2,,,,,,,,,,,,,,,
null,,confidence_buffer,304663,confidence_buffer,,null,,,,,,,,,,,,,,,,,,
null,,thebreak,305177,break,,null,,,,,,,,,,,,,,,,,,
521,,familiar_rating,305700,Northbridge,,51,Northbridge,Fictional,3,,,,,,,,,,,,,,,
null,,confidence_buffer,305812,confidence_buffer,,null,,,,,,,,,,,,,,,,,,
832.1000000238419,,unique_rating,306646,Northbridge,,52,,,4,,,,,,,,,,,,,,,
null,,confidence_buffer,306751,confidence_buffer,,null,,,,,,,,,,,,,,,,,,
1471.6000000238419,,memorable_rating,308224,Northbridge,,51,,,3,,,,,,,,,,,,,,,
null,,confidence_buffer,308329,confidence_buffer,,null,,,,,,,,,,,,,,,,,,
null,,thebreak,308841,break,,null,,,,,,,,,,,,,,,,,,
2086.199999988079,,intro_0,310928,instruct,,32,,,,,,,,,,,,,,,,,,
581.8000000119209,,intro_1,311511,instruct,,32,,,,,,,,,,,,,,,,,,
650.5,,intro_2,312162,instruct,,32,,,,,,,,,,,,,,,,,,
null,,instruct_dir_4,313671,instruct,,null,,,,,,,,,,,,,,,,,,
13881,,realistic_rating,327553,Bisbee,,51,Bisbee,US,3,,,,,,,,,,,,,,,
null,,confidence_buffer,327661,confidence_buffer,,null,,,,,,,,,,,,,,,,,,
1277.4000000357628,,pt2_unique_rating,328940,Bisbee,,51,,,3,,,,,,,,,,,,,,,
null,,confidence_buffer,329043,confidence_buffer,,null,,,,,,,,,,,,,,,,,,
873.3999999761581,,pt2_memorable_rating,329919,Bisbee,,52,,,4,,,,,,,,,,,,,,,
null,,confidence_buffer,330023,confidence_buffer,,null,,,,,,,,,,,,,,,,,,
2822.800000011921,,recognition_phase,332848,Bisbee,,49,,,,,,old,0,0,,,,,,,,,,
null,,confidence_buffer,332955,confidence_buffer,,null,,,,,,,,,,,,,,,,,,
null,,thebreak,333464,break,,null,,,,,,,,,,,,,,,,,,
781.3999999761581,,realistic_rating,334247,North Arroya,,51,North Arroya,Fictional,3,,,,,,,,,,,,,,,
null,,confidence_buffer,334355,confidence_buffer,,null,,,,,,,,,,,,,,,,,,
1812.199999988079,,pt2_unique_rating,336169,North Arroya,,51,,,3,,,,,,,,,,,,,,,
null,,confidence_buffer,336274,confidence_buffer,,null,,,,,,,,,,,,,,,,,,
1935.699999988079,,pt2_memorable_rating,338212,North Arroya,,51,,,3,,,,,,,,,,,,,,,
null,,confidence_buffer,338322,confidence_buffer,,null,,,,,,,,,,,,,,,,,,
1846.699999988079,,probe_rating,340170,probe_rating,,50,,,,2,1,,,,,,,,,,,,,
null,,confidence_buffer,340279,confidence_buffer,,null,,,,,,,,,,,,,,,,,,
1181.699999988079,,recognition_phase,341463,North Arroya,,51,,,,,,new,1,0.5,,,,,,,,,,
null,,confidence_buffer,341569,confidence_buffer,,null,,,,,,,,,,,,,,,,,,
null,,thebreak,342080,break,,null,,,,,,,,,,,,,,,,,,
907.5999999642372,,realistic_rating,342990,Granton Ridge,,51,Granton Ridge,Fictional,3,,,,,,,,,,,,,,,
null,,confidence_buffer,343096,confidence_buffer,,null,,,,,,,,,,,,,,,,,,
1095.800000011921,,pt2_unique_rating,344194,Granton Ridge,,51,,,3,,,,,,,,,,,,,,,
null,,confidence_buffer,344306,confidence_buffer,,null,,,,,,,,,,,,,,,,,,
1365.4000000357628,,pt2_memorable_rating,345673,Granton Ridge,,51,,,3,,,,,,,,,,,,,,,
null,,confidence_buffer,345775,confidence_buffer,,null,,,,,,,,,,,,,,,,,,
2484.099999964237,,recognition_phase,348260,Granton Ridge,,49,,,,,,old,0,0.3333333333333333,,,,,,,,,,
null,,confidence_buffer,348366,confidence_buffer,,null,,,,,,,,,,,,,,,,,,
null,,thebreak,348869,break,,null,,,,,,,,,,,,,,,,,,
1077.300000011921,,realistic_rating,349948,Huntsville,,51,Huntsville,US,3,,,,,,,,,,,,,,,
null,,confidence_buffer,350056,confidence_buffer,,null,,,,,,,,,,,,,,,,,,
1271.300000011921,,pt2_unique_rating,351329,Huntsville,,51,,,3,,,,,,,,,,,,,,,
null,,confidence_buffer,351440,confidence_buffer,,null,,,,,,,,,,,,,,,,,,
1020.8000000119209,,pt2_memorable_rating,352462,Huntsville,,51,,,3,,,,,,,,,,,,,,,
null,,confidence_buffer,352566,confidence_buffer,,null,,,,,,,,,,,,,,,,,,
1247.1000000238419,,recognition_phase,353815,Huntsville,,49,,,,,,old,1,0.5,,,,,,,,,,
null,,confidence_buffer,353920,confidence_buffer,,null,,,,,,,,,,,,,,,,,,
null,,thebreak,354429,break,,null,,,,,,,,,,,,,,,,,,
927.6000000238419,,realistic_rating,355359,Barnard,,51,Barnard,US,3,,,,,,,,,,,,,,,
null,,confidence_buffer,355463,confidence_buffer,,null,,,,,,,,,,,,,,,,,,
1783.300000011921,,pt2_unique_rating,357248,Barnard,,51,,,3,,,,,,,,,,,,,,,
null,,confidence_buffer,357353,confidence_buffer,,null,,,,,,,,,,,,,,,,,,
710.0999999642372,,pt2_memorable_rating,358064,Barnard,,51,,,3,,,,,,,,,,,,,,,
null,,confidence_buffer,358171,confidence_buffer,,null,,,,,,,,,,,,,,,,,,
687.3000000119209,,recognition_phase,358861,Barnard,,52,,,,,,new,1,0.6,,,,,,,,,,
null,,confidence_buffer,358972,confidence_buffer,,null,,,,,,,,,,,,,,,,,,
null,,thebreak,359483,break,,null,,,,,,,,,,,,,,,,,,
920.6000000238419,,realistic_rating,360405,Cody,,51,Cody,US,3,,,,,,,,,,,,,,,
null,,confidence_buffer,360511,confidence_buffer,,null,,,,,,,,,,,,,,,,,,
1240.699999988079,,pt2_unique_rating,361753,Cody,,51,,,3,,,,,,,,,,,,,,,
null,,confidence_buffer,361857,confidence_buffer,,null,,,,,,,,,,,,,,,,,,
699.2000000476837,,pt2_memorable_rating,362557,Cody,,51,,,3,,,,,,,,,,,,,,,
null,,confidence_buffer,362660,confidence_buffer,,null,,,,,,,,,,,,,,,,,,
971.8999999761581,,recognition_phase,363633,Cody,,52,,,,,,new,1,0.6666666666666666,,,,,,,,,,
null,,confidence_buffer,363740,confidence_buffer,,null,,,,,,,,,,,,,,,,,,
null,,thebreak,364243,break,,null,,,,,,,,,,,,,,,,,,
662.7999999523163,,realistic_rating,364907,Crestwood,,51,Crestwood,Fictional,3,,,,,,,,,,,,,,,
null,,confidence_buffer,365027,confidence_buffer,,null,,,,,,,,,,,,,,,,,,
828.1000000238419,,pt2_unique_rating,365857,Crestwood,,51,,,3,,,,,,,,,,,,,,,
null,,confidence_buffer,365967,confidence_buffer,,null,,,,,,,,,,,,,,,,,,
1073.6000000238419,,pt2_memorable_rating,367042,Crestwood,,51,,,3,,,,,,,,,,,,,,,
null,,confidence_buffer,367149,confidence_buffer,,null,,,,,,,,,,,,,,,,,,
467.5999999642372,,recognition_phase,367619,Crestwood,,49,,,,,,old,1,0.7142857142857143,,,,,,,,,,
null,,confidence_buffer,367730,confidence_buffer,,null,,,,,,,,,,,,,,,,,,
null,,thebreak,368240,break,,null,,,,,,,,,,,,,,,,,,
747.2000000476837,,realistic_rating,368989,Golden Trace,,51,Golden Trace,Fictional,3,,,,,,,,,,,,,,,
null,,confidence_buffer,369100,confidence_buffer,,null,,,,,,,,,,,,,,,,,,
856.4000000357628,,pt2_unique_rating,369958,Golden Trace,,51,,,3,,,,,,,,,,,,,,,
null,,confidence_buffer,370067,confidence_buffer,,null,,,,,,,,,,,,,,,,,,
747.3000000119209,,pt2_memorable_rating,370817,Golden Trace,,51,,,3,,,,,,,,,,,,,,,
null,,confidence_buffer,370925,confidence_buffer,,null,,,,,,,,,,,,,,,,,,
814,,recognition_phase,371741,Golden Trace,,49,,,,,,old,1,0.75,,,,,,,,,,
null,,confidence_buffer,371850,confidence_buffer,,null,,,,,,,,,,,,,,,,,,
null,,thebreak,372362,break,,null,,,,,,,,,,,,,,,,,,
944.4000000357628,,realistic_rating,373308,Ironwood Heights,,51,Ironwood Heights,Fictional,3,,,,,,,,,,,,,,,
null,,confidence_buffer,373417,confidence_buffer,,null,,,,,,,,,,,,,,,,,,
709.3999999761581,,pt2_unique_rating,374128,Ironwood Heights,,51,,,3,,,,,,,,,,,,,,,
null,,confidence_buffer,374234,confidence_buffer,,null,,,,,,,,,,,,,,,,,,
638.8999999761581,,pt2_memorable_rating,374875,Ironwood Heights,,51,,,3,,,,,,,,,,,,,,,
null,,confidence_buffer,374978,confidence_buffer,,null,,,,,,,,,,,,,,,,,,
901.3999999761581,,recognition_phase,375880,Ironwood Heights,,52,,,,,,new,1,0.7777777777777778,,,,,,,,,,
null,,confidence_buffer,375986,confidence_buffer,,null,,,,,,,,,,,,,,,,,,
null,,thebreak,376500,break,,null,,,,,,,,,,,,,,,,,,
951.7000000476837,,realistic_rating,377453,Silverpine,,51,Silverpine,Fictional,3,,,,,,,,,,,,,,,
null,,confidence_buffer,377556,confidence_buffer,,null,,,,,,,,,,,,,,,,,,
621.6000000238419,,pt2_unique_rating,378179,Silverpine,,51,,,3,,,,,,,,,,,,,,,
null,,confidence_buffer,378280,confidence_buffer,,null,,,,,,,,,,,,,,,,,,
751.3000000119209,,pt2_memorable_rating,379033,Silverpine,,51,,,3,,,,,,,,,,,,,,,
null,,confidence_buffer,379144,confidence_buffer,,null,,,,,,,,,,,,,,,,,,
499.0999999642372,,recognition_phase,379644,Silverpine,,49,,,,,,old,1,0.8,,,,,,,,,,
null,,confidence_buffer,379764,confidence_buffer,,null,,,,,,,,,,,,,,,,,,
null,,thebreak,380273,break,,null,,,,,,,,,,,,,,,,,,
770.3000000119209,,realistic_rating,381045,Gatlinburg,,51,Gatlinburg,US,3,,,,,,,,,,,,,,,
null,,confidence_buffer,381158,confidence_buffer,,null,,,,,,,,,,,,,,,,,,
611.6000000238419,,pt2_unique_rating,381771,Gatlinburg,,51,,,3,,,,,,,,,,,,,,,
null,,confidence_buffer,381874,confidence_buffer,,null,,,,,,,,,,,,,,,,,,
590.7000000476837,,pt2_memorable_rating,382467,Gatlinburg,,51,,,3,,,,,,,,,,,,,,,
null,,confidence_buffer,382571,confidence_buffer,,null,,,,,,,,,,,,,,,,,,
520.3000000119209,,recognition_phase,383093,Gatlinburg,,52,,,,,,new,0,0.7272727272727273,,,,,,,,,,
null,,confidence_buffer,383196,confidence_buffer,,null,,,,,,,,,,,,,,,,,,
null,,thebreak,383709,break,,null,,,,,,,,,,,,,,,,,,
790.8000000119209,,realistic_rating,384501,Livingston,,51,Livingston,US,3,,,,,,,,,,,,,,,
null,,confidence_buffer,384612,confidence_buffer,,null,,,,,,,,,,,,,,,,,,
540.3000000119209,,pt2_unique_rating,385154,Livingston,,51,,,3,,,,,,,,,,,,,,,
null,,confidence_buffer,385257,confidence_buffer,,null,,,,,,,,,,,,,,,,,,
479.19999998807907,,pt2_memorable_rating,385737,Livingston,,51,,,3,,,,,,,,,,,,,,,
null,,confidence_buffer,385844,confidence_buffer,,null,,,,,,,,,,,,,,,,,,
599,,recognition_phase,386444,Livingston,,52,,,,,,new,0,0.6666666666666666,,,,,,,,,,
null,,confidence_buffer,386553,confidence_buffer,,null,,,,,,,,,,,,,,,,,,
null,,thebreak,387056,break,,null,,,,,,,,,,,,,,,,,,
757.5,,realistic_rating,387815,Sammamish,,51,Sammamish,US,3,,,,,,,,,,,,,,,
null,,confidence_buffer,387919,confidence_buffer,,null,,,,,,,,,,,,,,,,,,
1995.8999999761581,,probe_rating,389916,probe_rating,,53,,,,5,1,,,,,,,,,,,,,
null,,confidence_buffer,390021,confidence_buffer,,null,,,,,,,,,,,,,,,,,,
1518.8999999761581,,pt2_unique_rating,391542,Sammamish,,51,,,3,,,,,,,,,,,,,,,
null,,confidence_buffer,391652,confidence_buffer,,null,,,,,,,,,,,,,,,,,,
751.7999999523163,,pt2_memorable_rating,392405,Sammamish,,51,,,3,,,,,,,,,,,,,,,
null,,confidence_buffer,392511,confidence_buffer,,null,,,,,,,,,,,,,,,,,,
2027.1000000238419,,recognition_phase,394539,Sammamish,,52,,,,,,new,1,0.6923076923076923,,,,,,,,,,
null,,confidence_buffer,394648,confidence_buffer,,null,,,,,,,,,,,,,,,,,,
null,,thebreak,395156,break,,null,,,,,,,,,,,,,,,,,,
678.3999999761581,,realistic_rating,395836,Linden Trace,,51,Linden Trace,Fictional,3,,,,,,,,,,,,,,,
null,,confidence_buffer,395950,confidence_buffer,,null,,,,,,,,,,,,,,,,,,
800.5,,pt2_unique_rating,396752,Linden Trace,,51,,,3,,,,,,,,,,,,,,,
null,,confidence_buffer,396864,confidence_buffer,,null,,,,,,,,,,,,,,,,,,
930.5,,pt2_memorable_rating,397796,Linden Trace,,51,,,3,,,,,,,,,,,,,,,
null,,confidence_buffer,397907,confidence_buffer,,null,,,,,,,,,,,,,,,,,,
608,,recognition_phase,398517,Linden Trace,,49,,,,,,old,1,0.7142857142857143,,,,,,,,,,
null,,confidence_buffer,398621,confidence_buffer,,null,,,,,,,,,,,,,,,,,,
null,,thebreak,399131,break,,null,,,,,,,,,,,,,,,,,,
949,,realistic_rating,400082,Ashford Hills,,51,Ashford Hills,Fictional,3,,,,,,,,,,,,,,,
null,,confidence_buffer,400190,confidence_buffer,,null,,,,,,,,,,,,,,,,,,
719.1999999880791,,pt2_unique_rating,400912,Ashford Hills,,51,,,3,,,,,,,,,,,,,,,
null,,confidence_buffer,401015,confidence_buffer,,null,,,,,,,,,,,,,,,,,,
679,,pt2_memorable_rating,401695,Ashford Hills,,51,,,3,,,,,,,,,,,,,,,
null,,confidence_buffer,401813,confidence_buffer,,null,,,,,,,,,,,,,,,,,,
676.1000000238419,,recognition_phase,402490,Ashford Hills,,49,,,,,,old,0,0.6666666666666666,,,,,,,,,,
null,,confidence_buffer,402601,confidence_buffer,,null,,,,,,,,,,,,,,,,,,
null,,thebreak,403110,break,,null,,,,,,,,,,,,,,,,,,
744.5,,realistic_rating,403855,Willowford,,51,Willowford,Fictional,3,,,,,,,,,,,,,,,
null,,confidence_buffer,403960,confidence_buffer,,null,,,,,,,,,,,,,,,,,,
600.1000000238419,,pt2_unique_rating,404561,Willowford,,51,,,3,,,,,,,,,,,,,,,
null,,confidence_buffer,404666,confidence_buffer,,null,,,,,,,,,,,,,,,,,,
679.5,,pt2_memorable_rating,405346,Willowford,,51,,,3,,,,,,,,,,,,,,,
null,,confidence_buffer,405452,confidence_buffer,,null,,,,,,,,,,,,,,,,,,
1976.2999999523163,,probe_rating,407430,probe_rating,,52,,,,4,1,,,,,,,,,,,,,
null,,confidence_buffer,407540,confidence_buffer,,null,,,,,,,,,,,,,,,,,,
990.8000000119209,,recognition_phase,408532,Willowford,,51,,,,,,new,1,0.6875,,,,,,,,,,
null,,confidence_buffer,408640,confidence_buffer,,null,,,,,,,,,,,,,,,,,,
null,,thebreak,409152,break,,null,,,,,,,,,,,,,,,,,,
1080.5999999642372,,realistic_rating,410234,Manistee,,51,Manistee,US,3,,,,,,,,,,,,,,,
null,,confidence_buffer,410344,confidence_buffer,,null,,,,,,,,,,,,,,,,,,
989.6000000238419,,pt2_unique_rating,411334,Manistee,,51,,,3,,,,,,,,,,,,,,,
null,,confidence_buffer,411442,confidence_buffer,,null,,,,,,,,,,,,,,,,,,
995.7000000476837,,pt2_memorable_rating,412439,Manistee,,51,,,3,,,,,,,,,,,,,,,
null,,confidence_buffer,412551,confidence_buffer,,null,,,,,,,,,,,,,,,,,,
885.6999999880791,,recognition_phase,413438,Manistee,,51,,,,,,new,0,0.6470588235294118,,,,,,,,,,
null,,confidence_buffer,413541,confidence_buffer,,null,,,,,,,,,,,,,,,,,,
null,,thebreak,414049,break,,null,,,,,,,,,,,,,,,,,,
1129.1000000238419,,realistic_rating,415180,Medora,,51,Medora,US,3,,,,,,,,,,,,,,,
null,,confidence_buffer,415283,confidence_buffer,,null,,,,,,,,,,,,,,,,,,
976.8999999761581,,pt2_unique_rating,416262,Medora,,51,,,3,,,,,,,,,,,,,,,
null,,confidence_buffer,416374,confidence_buffer,,null,,,,,,,,,,,,,,,,,,
1113.5999999642372,,pt2_memorable_rating,417489,Medora,,51,,,3,,,,,,,,,,,,,,,
null,,confidence_buffer,417600,confidence_buffer,,null,,,,,,,,,,,,,,,,,,
1722.300000011921,,recognition_phase,419324,Medora,,51,,,,,,new,1,0.6666666666666666,,,,,,,,,,
null,,confidence_buffer,419435,confidence_buffer,,null,,,,,,,,,,,,,,,,,,
null,,thebreak,419945,break,,null,,,,,,,,,,,,,,,,,,
1608,,realistic_rating,421555,Redgrove,,51,Redgrove,Fictional,3,,,,,,,,,,,,,,,
null,,confidence_buffer,421663,confidence_buffer,,null,,,,,,,,,,,,,,,,,,
1092.5,,pt2_unique_rating,422756,Redgrove,,51,,,3,,,,,,,,,,,,,,,
null,,confidence_buffer,422862,confidence_buffer,,null,,,,,,,,,,,,,,,,,,
610,,pt2_memorable_rating,423473,Redgrove,,51,,,3,,,,,,,,,,,,,,,
null,,confidence_buffer,423589,confidence_buffer,,null,,,,,,,,,,,,,,,,,,
966.2999999523163,,recognition_phase,424557,Redgrove,,51,,,,,,new,0,0.631578947368421,,,,,,,,,,
null,,confidence_buffer,424665,confidence_buffer,,null,,,,,,,,,,,,,,,,,,
null,,thebreak,425172,break,,null,,,,,,,,,,,,,,,,,,
991.3000000119209,,realistic_rating,426165,Hot Springs,,51,Hot Springs,US,3,,,,,,,,,,,,,,,
null,,confidence_buffer,426268,confidence_buffer,,null,,,,,,,,,,,,,,,,,,
946.6000000238419,,pt2_unique_rating,427217,Hot Springs,,51,,,3,,,,,,,,,,,,,,,
null,,confidence_buffer,427321,confidence_buffer,,null,,,,,,,,,,,,,,,,,,
936.5999999642372,,pt2_memorable_rating,428259,Hot Springs,,51,,,3,,,,,,,,,,,,,,,
null,,confidence_buffer,428367,confidence_buffer,,null,,,,,,,,,,,,,,,,,,
990.6000000238419,,recognition_phase,429359,Hot Springs,,51,,,,,,new,1,0.65,,,,,,,,,,
null,,confidence_buffer,429468,confidence_buffer,,null,,,,,,,,,,,,,,,,,,
null,,thebreak,429974,break,,null,,,,,,,,,,,,,,,,,,
3047.599999964237,,realistic_rating,433023,Riverlyn,,51,Riverlyn,Fictional,3,,,,,,,,,,,,,,,
null,,confidence_buffer,433135,confidence_buffer,,null,,,,,,,,,,,,,,,,,,
863.1000000238419,,pt2_unique_rating,433999,Riverlyn,,51,,,3,,,,,,,,,,,,,,,
null,,confidence_buffer,434107,confidence_buffer,,null,,,,,,,,,,,,,,,,,,
645.2999999523163,,pt2_memorable_rating,434754,Riverlyn,,51,,,3,,,,,,,,,,,,,,,
null,,confidence_buffer,434863,confidence_buffer,,null,,,,,,,,,,,,,,,,,,
621.0999999642372,,recognition_phase,435485,Riverlyn,,51,,,,,,new,1,0.6666666666666666,,,,,,,,,,
null,,confidence_buffer,435594,confidence_buffer,,null,,,,,,,,,,,,,,,,,,
null,,thebreak,436100,break,,null,,,,,,,,,,,,,,,,,,
678.6999999880791,,realistic_rating,436780,Alliance,,51,Alliance,US,3,,,,,,,,,,,,,,,
null,,confidence_buffer,436884,confidence_buffer,,null,,,,,,,,,,,,,,,,,,
780,,pt2_unique_rating,437665,Alliance,,51,,,3,,,,,,,,,,,,,,,
null,,confidence_buffer,437770,confidence_buffer,,null,,,,,,,,,,,,,,,,,,
710.5,,pt2_memorable_rating,438482,Alliance,,51,,,3,,,,,,,,,,,,,,,
null,,confidence_buffer,438587,confidence_buffer,,null,,,,,,,,,,,,,,,,,,
1157.699999988079,,recognition_phase,439746,Alliance,,51,,,,,,new,1,0.6818181818181818,,,,,,,,,,
null,,confidence_buffer,439851,confidence_buffer,,null,,,,,,,,,,,,,,,,,,
null,,thebreak,440363,break,,null,,,,,,,,,,,,,,,,,,
1187.1000000238419,,realistic_rating,441551,Orchard Bend,,51,Orchard Bend,Fictional,3,,,,,,,,,,,,,,,
null,,confidence_buffer,441662,confidence_buffer,,null,,,,,,,,,,,,,,,,,,
21606.600000023842,,pt2_unique_rating,463270,Orchard Bend,,51,,,3,,,,,,,,,,,,,,,
null,,confidence_buffer,463375,confidence_buffer,,null,,,,,,,,,,,,,,,,,,
3057.5,,pt2_memorable_rating,466434,Orchard Bend,,51,,,3,,,,,,,,,,,,,,,
null,,confidence_buffer,466538,confidence_buffer,,null,,,,,,,,,,,,,,,,,,
845.3000000119209,,recognition_phase,467385,Orchard Bend,,51,,,,,,new,1,0.6956521739130435,,,,,,,,,,
null,,confidence_buffer,467492,confidence_buffer,,null,,,,,,,,,,,,,,,,,,
null,,thebreak,467994,break,,null,,,,,,,,,,,,,,,,,,
2838.599999964237,,realistic_rating,470834,Berkeley Springs,,51,Berkeley Springs,US,3,,,,,,,,,,,,,,,
null,,confidence_buffer,470943,confidence_buffer,,null,,,,,,,,,,,,,,,,,,
3714.600000023842,,pt2_unique_rating,474660,Berkeley Springs,,51,,,3,,,,,,,,,,,,,,,
null,,confidence_buffer,474765,confidence_buffer,,null,,,,,,,,,,,,,,,,,,
1132.699999988079,,pt2_memorable_rating,475900,Berkeley Springs,,51,,,3,,,,,,,,,,,,,,,
null,,confidence_buffer,476010,confidence_buffer,,null,,,,,,,,,,,,,,,,,,
2295.5,,recognition_phase,478307,Berkeley Springs,,51,,,,,,new,0,0.6666666666666666,,,,,,,,,,
null,,confidence_buffer,478410,confidence_buffer,,null,,,,,,,,,,,,,,,,,,
null,,thebreak,478915,break,,null,,,,,,,,,,,,,,,,,,
5436.600000023842,,realistic_rating,484353,Peoria,,51,Peoria,US,3,,,,,,,,,,,,,,,
null,,confidence_buffer,484460,confidence_buffer,,null,,,,,,,,,,,,,,,,,,
2124.399999976158,,probe_rating,486586,probe_rating,,49,,,,1,1,,,,,,,,,,,,,
null,,confidence_buffer,486698,confidence_buffer,,null,,,,,,,,,,,,,,,,,,
2356.400000035763,,pt2_unique_rating,489056,Peoria,,51,,,3,,,,,,,,,,,,,,,
null,,confidence_buffer,489161,confidence_buffer,,null,,,,,,,,,,,,,,,,,,
988.1999999880791,,pt2_memorable_rating,490151,Peoria,,51,,,3,,,,,,,,,,,,,,,
null,,confidence_buffer,490257,confidence_buffer,,null,,,,,,,,,,,,,,,,,,
695.6999999880791,,recognition_phase,490954,Peoria,,51,,,,,,new,0,0.64,,,,,,,,,,
null,,confidence_buffer,491060,confidence_buffer,,null,,,,,,,,,,,,,,,,,,
null,,thebreak,491570,break,,null,,,,,,,,,,,,,,,,,,
2502.900000035763,,realistic_rating,494075,Baymarsh,,51,Baymarsh,Fictional,3,,,,,,,,,,,,,,,
null,,confidence_buffer,494184,confidence_buffer,,null,,,,,,,,,,,,,,,,,,
1574.800000011921,,pt2_unique_rating,495760,Baymarsh,,51,,,3,,,,,,,,,,,,,,,
null,,confidence_buffer,495881,confidence_buffer,,null,,,,,,,,,,,,,,,,,,
1851.800000011921,,probe_rating,497734,probe_rating,,49,,,,1,1,,,,,,,,,,,,,
null,,confidence_buffer,497838,confidence_buffer,,null,,,,,,,,,,,,,,,,,,
1308.8999999761581,,pt2_memorable_rating,499148,Baymarsh,,51,,,3,,,,,,,,,,,,,,,
null,,confidence_buffer,499258,confidence_buffer,,null,,,,,,,,,,,,,,,,,,
1105.6000000238419,,recognition_phase,500365,Baymarsh,,51,,,,,,new,0,0.6153846153846154,,,,,,,,,,
null,,confidence_buffer,500471,confidence_buffer,,null,,,,,,,,,,,,,,,,,,
null,,thebreak,500976,break,,null,,,,,,,,,,,,,,,,,,
1595,,realistic_rating,502572,Bowling Green,,51,Bowling Green,US,3,,,,,,,,,,,,,,,
null,,confidence_buffer,502684,confidence_buffer,,null,,,,,,,,,,,,,,,,,,
1333.2000000476837,,pt2_unique_rating,504020,Bowling Green,,51,,,3,,,,,,,,,,,,,,,
null,,confidence_buffer,504124,confidence_buffer,,null,,,,,,,,,,,,,,,,,,
1446.800000011921,,pt2_memorable_rating,505573,Bowling Green,,51,,,3,,,,,,,,,,,,,,,
null,,confidence_buffer,505681,confidence_buffer,,null,,,,,,,,,,,,,,,,,,
1530,,recognition_phase,507212,Bowling Green,,51,,,,,,new,0,0.5925925925925926,,,,,,,,,,
null,,confidence_buffer,507323,confidence_buffer,,null,,,,,,,,,,,,,,,,,,
null,,thebreak,507834,break,,null,,,,,,,,,,,,,,,,,,
883.1000000238419,,realistic_rating,508718,Millstone,,51,Millstone,Fictional,3,,,,,,,,,,,,,,,
null,,confidence_buffer,508824,confidence_buffer,,null,,,,,,,,,,,,,,,,,,
756.1999999880791,,pt2_unique_rating,509582,Millstone,,51,,,3,,,,,,,,,,,,,,,
null,,confidence_buffer,509685,confidence_buffer,,null,,,,,,,,,,,,,,,,,,
734.2999999523163,,pt2_memorable_rating,510422,Millstone,,51,,,3,,,,,,,,,,,,,,,
null,,confidence_buffer,510532,confidence_buffer,,null,,,,,,,,,,,,,,,,,,
656.7000000476837,,recognition_phase,511190,Millstone,,51,,,,,,new,0,0.5714285714285714,,,,,,,,,,
null,,confidence_buffer,511291,confidence_buffer,,null,,,,,,,,,,,,,,,,,,
null,,thebreak,511802,break,,null,,,,,,,,,,,,,,,,,,
1698.300000011921,,realistic_rating,513501,Oakridge,,51,Oakridge,Fictional,3,,,,,,,,,,,,,,,
null,,confidence_buffer,513608,confidence_buffer,,null,,,,,,,,,,,,,,,,,,
559,,pt2_unique_rating,514169,Oakridge,,51,,,3,,,,,,,,,,,,,,,
null,,confidence_buffer,514286,confidence_buffer,,null,,,,,,,,,,,,,,,,,,
856.8000000119209,,pt2_memorable_rating,515145,Oakridge,,51,,,3,,,,,,,,,,,,,,,
null,,confidence_buffer,515251,confidence_buffer,,null,,,,,,,,,,,,,,,,,,
1043.4000000357628,,recognition_phase,516296,Oakridge,,49,,,,,,old,1,0.5862068965517241,,,,,,,,,,
null,,confidence_buffer,516403,confidence_buffer,,null,,,,,,,,,,,,,,,,,,
null,,thebreak,516913,break,,null,,,,,,,,,,,,,,,,,,
619.8999999761581,,realistic_rating,517535,Assateague Island,,51,Assateague Island,US,3,,,,,,,,,,,,,,,
null,,confidence_buffer,517641,confidence_buffer,,null,,,,,,,,,,,,,,,,,,
869.6000000238419,,pt2_unique_rating,518513,Assateague Island,,51,,,3,,,,,,,,,,,,,,,
null,,confidence_buffer,518618,confidence_buffer,,null,,,,,,,,,,,,,,,,,,
612.5,,pt2_memorable_rating,519233,Assateague Island,,51,,,3,,,,,,,,,,,,,,,
null,,confidence_buffer,519337,confidence_buffer,,null,,,,,,,,,,,,,,,,,,
690.9000000357628,,recognition_phase,520030,Assateague Island,,51,,,,,,new,0,0.5666666666666667,,,,,,,,,,
null,,confidence_buffer,520145,confidence_buffer,,null,,,,,,,,,,,,,,,,,,
null,,thebreak,520649,break,,null,,,,,,,,,,,,,,,,,,
886.1999999880791,,realistic_rating,521537,Orr,,51,Orr,US,3,,,,,,,,,,,,,,,
null,,confidence_buffer,521642,confidence_buffer,,null,,,,,,,,,,,,,,,,,,
2027.800000011921,,probe_rating,523671,probe_rating,,53,,,,5,1,,,,,,,,,,,,,
null,,confidence_buffer,523777,confidence_buffer,,null,,,,,,,,,,,,,,,,,,
1148.0999999642372,,pt2_unique_rating,524927,Orr,,51,,,3,,,,,,,,,,,,,,,
null,,confidence_buffer,525033,confidence_buffer,,null,,,,,,,,,,,,,,,,,,
6015.299999952316,,pt2_memorable_rating,531051,Orr,,51,,,3,,,,,,,,,,,,,,,
null,,confidence_buffer,531161,confidence_buffer,,null,,,,,,,,,,,,,,,,,,
783.1999999880791,,recognition_phase,531947,Orr,,51,,,,,,new,0,0.5483870967741935,,,,,,,,,,
null,,confidence_buffer,532055,confidence_buffer,,null,,,,,,,,,,,,,,,,,,
null,,thebreak,532562,break,,null,,,,,,,,,,,,,,,,,,
8680.400000035763,,realistic_rating,541244,Okoboji,,49,Okoboji,US,1,,,,,,,,,,,,,,,
null,,confidence_buffer,541354,confidence_buffer,,null,,,,,,,,,,,,,,,,,,
3438.099999964237,,pt2_unique_rating,544794,Okoboji,,49,,,1,,,,,,,,,,,,,,,
null,,confidence_buffer,544901,confidence_buffer,,null,,,,,,,,,,,,,,,,,,
3846.800000011921,,pt2_memorable_rating,548750,Okoboji,,49,,,1,,,,,,,,,,,,,,,
null,,confidence_buffer,548861,confidence_buffer,,null,,,,,,,,,,,,,,,,,,
4677.100000023842,,recognition_phase,553540,Okoboji,,52,,,,,,new,0,0.53125,,,,,,,,,,
null,,confidence_buffer,553642,confidence_buffer,,null,,,,,,,,,,,,,,,,,,
null,,thebreak,554150,break,,null,,,,,,,,,,,,,,,,,,
28304.900000035763,,realistic_rating,582457,New Verdan,,49,New Verdan,Fictional,1,,,,,,,,,,,,,,,
null,,confidence_buffer,582559,confidence_buffer,,null,,,,,,,,,,,,,,,,,,
1631.5,,pt2_unique_rating,584192,New Verdan,,51,,,3,,,,,,,,,,,,,,,
null,,confidence_buffer,584294,confidence_buffer,,null,,,,,,,,,,,,,,,,,,
951.5,,pt2_memorable_rating,585247,New Verdan,,51,,,3,,,,,,,,,,,,,,,
null,,confidence_buffer,585348,confidence_buffer,,null,,,,,,,,,,,,,,,,,,
794.3000000119209,,recognition_phase,586143,New Verdan,,51,,,,,,new,0,0.5151515151515151,,,,,,,,,,
null,,confidence_buffer,586245,confidence_buffer,,null,,,,,,,,,,,,,,,,,,
null,,thebreak,586747,break,,null,,,,,,,,,,,,,,,,,,
2090.900000035763,,realistic_rating,588838,Solara Glen,,51,Solara Glen,Fictional,3,,,,,,,,,,,,,,,
null,,confidence_buffer,588940,confidence_buffer,,null,,,,,,,,,,,,,,,,,,
1357.5,,pt2_unique_rating,590298,Solara Glen,,51,,,3,,,,,,,,,,,,,,,
null,,confidence_buffer,590401,confidence_buffer,,null,,,,,,,,,,,,,,,,,,
1168.699999988079,,pt2_memorable_rating,591570,Solara Glen,,51,,,3,,,,,,,,,,,,,,,
null,,confidence_buffer,591672,confidence_buffer,,null,,,,,,,,,,,,,,,,,,
1170.6000000238419,,recognition_phase,592844,Solara Glen,,51,,,,,,new,1,0.5294117647058824,,,,,,,,,,
null,,confidence_buffer,592945,confidence_buffer,,null,,,,,,,,,,,,,,,,,,
null,,thebreak,593446,break,,null,,,,,,,,,,,,,,,,,,
6792.400000035763,,realistic_rating,600240,Brookmere,,51,Brookmere,Fictional,3,,,,,,,,,,,,,,,
null,,confidence_buffer,600341,confidence_buffer,,null,,,,,,,,,,,,,,,,,,
2264.800000011921,,probe_rating,602607,probe_rating,,50,,,,2,1,,,,,,,,,,,,,
null,,confidence_buffer,602708,confidence_buffer,,null,,,,,,,,,,,,,,,,,,
3389.7999999523163,,pt2_unique_rating,606099,Brookmere,,51,,,3,,,,,,,,,,,,,,,
null,,confidence_buffer,606201,confidence_buffer,,null,,,,,,,,,,,,,,,,,,
1565.0999999642372,,pt2_memorable_rating,607767,Brookmere,,51,,,3,,,,,,,,,,,,,,,
null,,confidence_buffer,607870,confidence_buffer,,null,,,,,,,,,,,,,,,,,,
865.8000000119209,,recognition_phase,608736,Brookmere,,51,,,,,,new,0,0.5142857142857142,,,,,,,,,,
null,,confidence_buffer,608844,confidence_buffer,,null,,,,,,,,,,,,,,,,,,
null,,thebreak,609346,break,,null,,,,,,,,,,,,,,,,,,
2796.899999976158,,realistic_rating,612143,Sierra Hollow,,51,Sierra Hollow,Fictional,3,,,,,,,,,,,,,,,
null,,confidence_buffer,612245,confidence_buffer,,null,,,,,,,,,,,,,,,,,,
1082.5999999642372,,pt2_unique_rating,613328,Sierra Hollow,,51,,,3,,,,,,,,,,,,,,,
null,,confidence_buffer,613430,confidence_buffer,,null,,,,,,,,,,,,,,,,,,
2349.699999988079,,probe_rating,615781,probe_rating,,50,,,,2,1,,,,,,,,,,,,,
null,,confidence_buffer,615883,confidence_buffer,,null,,,,,,,,,,,,,,,,,,
1606,,pt2_memorable_rating,617490,Sierra Hollow,,51,,,3,,,,,,,,,,,,,,,
null,,confidence_buffer,617592,confidence_buffer,,null,,,,,,,,,,,,,,,,,,
1300.6000000238419,,recognition_phase,618894,Sierra Hollow,,51,,,,,,new,1,0.5277777777777778,,,,,,,,,,
null,,confidence_buffer,618995,confidence_buffer,,null,,,,,,,,,,,,,,,,,,
null,,thebreak,619497,break,,null,,,,,,,,,,,,,,,,,,
2346.800000011921,,realistic_rating,621845,Fairhaven,,51,Fairhaven,Fictional,3,,,,,,,,,,,,,,,
null,,confidence_buffer,621960,confidence_buffer,,null,,,,,,,,,,,,,,,,,,
1733.800000011921,,pt2_unique_rating,623694,Fairhaven,,51,,,3,,,,,,,,,,,,,,,
null,,confidence_buffer,623796,confidence_buffer,,null,,,,,,,,,,,,,,,,,,
1283.8999999761581,,pt2_memorable_rating,625082,Fairhaven,,51,,,3,,,,,,,,,,,,,,,
null,,confidence_buffer,625184,confidence_buffer,,null,,,,,,,,,,,,,,,,,,
1093.699999988079,,recognition_phase,626278,Fairhaven,,51,,,,,,new,1,0.5405405405405406,,,,,,,,,,
null,,confidence_buffer,626381,confidence_buffer,,null,,,,,,,,,,,,,,,,,,
null,,thebreak,626882,break,,null,,,,,,,,,,,,,,,,,,
1819.5999999642372,,realistic_rating,628702,Cedarwyn,,51,Cedarwyn,Fictional,3,,,,,,,,,,,,,,,
null,,confidence_buffer,628804,confidence_buffer,,null,,,,,,,,,,,,,,,,,,
1285,,pt2_unique_rating,630090,Cedarwyn,,51,,,3,,,,,,,,,,,,,,,
null,,confidence_buffer,630191,confidence_buffer,,null,,,,,,,,,,,,,,,,,,
731.2999999523163,,pt2_memorable_rating,630923,Cedarwyn,,51,,,3,,,,,,,,,,,,,,,
null,,confidence_buffer,631025,confidence_buffer,,null,,,,,,,,,,,,,,,,,,
1159.5999999642372,,recognition_phase,632185,Cedarwyn,,51,,,,,,new,1,0.5526315789473685,,,,,,,,,,
null,,confidence_buffer,632287,confidence_buffer,,null,,,,,,,,,,,,,,,,,,
null,,thebreak,632789,break,,null,,,,,,,,,,,,,,,,,,
1959.7999999523163,,realistic_rating,634750,Delaware City,,51,Delaware City,US,3,,,,,,,,,,,,,,,
null,,confidence_buffer,634852,confidence_buffer,,null,,,,,,,,,,,,,,,,,,
3503.599999964237,,pt2_unique_rating,638356,Delaware City,,52,,,4,,,,,,,,,,,,,,,
null,,confidence_buffer,638459,confidence_buffer,,null,,,,,,,,,,,,,,,,,,
1754.8999999761581,,pt2_memorable_rating,640214,Delaware City,,52,,,4,,,,,,,,,,,,,,,
null,,confidence_buffer,640321,confidence_buffer,,null,,,,,,,,,,,,,,,,,,
1340.4000000357628,,recognition_phase,641662,Delaware City,,49,,,,,,old,0,0.5384615384615384,,,,,,,,,,
null,,confidence_buffer,641764,confidence_buffer,,null,,,,,,,,,,,,,,,,,,
null,,thebreak,642265,break,,null,,,,,,,,,,,,,,,,,,
1027.6000000238419,,realistic_rating,643294,East Ladera,,51,East Ladera,Fictional,3,,,,,,,,,,,,,,,
null,,confidence_buffer,643396,confidence_buffer,,null,,,,,,,,,,,,,,,,,,
893.9000000357628,,pt2_unique_rating,644291,East Ladera,,51,,,3,,,,,,,,,,,,,,,
null,,confidence_buffer,644392,confidence_buffer,,null,,,,,,,,,,,,,,,,,,
834.5,,pt2_memorable_rating,645227,East Ladera,,51,,,3,,,,,,,,,,,,,,,
null,,confidence_buffer,645329,confidence_buffer,,null,,,,,,,,,,,,,,,,,,
983.1999999880791,,recognition_phase,646313,East Ladera,,51,,,,,,new,0,0.525,,,,,,,,,,
null,,confidence_buffer,646416,confidence_buffer,,null,,,,,,,,,,,,,,,,,,
null,,thebreak,646917,break,,null,,,,,,,,,,,,,,,,,,
1344,,realistic_rating,648262,Northbridge,,51,Northbridge,Fictional,3,,,,,,,,,,,,,,,
null,,confidence_buffer,648364,confidence_buffer,,null,,,,,,,,,,,,,,,,,,
689.2000000476837,,pt2_unique_rating,649054,Northbridge,,51,,,3,,,,,,,,,,,,,,,
null,,confidence_buffer,649156,confidence_buffer,,null,,,,,,,,,,,,,,,,,,
681.4000000357628,,pt2_memorable_rating,649838,Northbridge,,51,,,3,,,,,,,,,,,,,,,
null,,confidence_buffer,649940,confidence_buffer,,null,,,,,,,,,,,,,,,,,,
800,,recognition_phase,650741,Northbridge,,51,,,,,,new,0,0.5121951219512195,,,,,,,,,,
null,,confidence_buffer,650843,confidence_buffer,,null,,,,,,,,,,,,,,,,,,
null,,thebreak,651345,break,,null,,,,,,,,,,,,,,,,,,
2173.300000011921,,realistic_rating,653519,Stonebrook,,51,Stonebrook,Fictional,3,,,,,,,,,,,,,,,
null,,confidence_buffer,653621,confidence_buffer,,null,,,,,,,,,,,,,,,,,,
1181.8999999761581,,pt2_unique_rating,654804,Stonebrook,,51,,,3,,,,,,,,,,,,,,,
null,,confidence_buffer,654906,confidence_buffer,,null,,,,,,,,,,,,,,,,,,
1937,,probe_rating,656843,probe_rating,,51,,,,3,1,,,,,,,,,,,,,
null,,confidence_buffer,656946,confidence_buffer,,null,,,,,,,,,,,,,,,,,,
972.4000000357628,,pt2_memorable_rating,657919,Stonebrook,,51,,,3,,,,,,,,,,,,,,,
null,,confidence_buffer,658020,confidence_buffer,,null,,,,,,,,,,,,,,,,,,
856.5999999642372,,recognition_phase,658877,Stonebrook,,51,,,,,,new,0,0.5,,,,,,,,,,
null,,confidence_buffer,658980,confidence_buffer,,null,,,,,,,,,,,,,,,,,,
null,,thebreak,659482,break,,null,,,,,,,,,,,,,,,,,,
4223.699999988079,,realistic_rating,663707,Carmel,,51,Carmel,US,3,,,,,,,,,,,,,,,
null,,confidence_buffer,663809,confidence_buffer,,null,,,,,,,,,,,,,,,,,,
1223.1000000238419,,pt2_unique_rating,665032,Carmel,,51,,,3,,,,,,,,,,,,,,,
null,,confidence_buffer,665134,confidence_buffer,,null,,,,,,,,,,,,,,,,,,
1079.6000000238419,,pt2_memorable_rating,666215,Carmel,,51,,,3,,,,,,,,,,,,,,,
null,,confidence_buffer,666318,confidence_buffer,,null,,,,,,,,,,,,,,,,,,
1723.0999999642372,,recognition_phase,668042,Carmel,,51,,,,,,new,0,0.4883720930232558,,,,,,,,,,
null,,confidence_buffer,668144,confidence_buffer,,null,,,,,,,,,,,,,,,,,,
null,,thebreak,668645,break,,null,,,,,,,,,,,,,,,,,,
1980.3999999761581,,realistic_rating,670627,Yukon,,51,Yukon,US,3,,,,,,,,,,,,,,,
null,,confidence_buffer,670729,confidence_buffer,,null,,,,,,,,,,,,,,,,,,
1126.2999999523163,,pt2_unique_rating,671856,Yukon,,51,,,3,,,,,,,,,,,,,,,
null,,confidence_buffer,671965,confidence_buffer,,null,,,,,,,,,,,,,,,,,,
1303.300000011921,,pt2_memorable_rating,673269,Yukon,,51,,,3,,,,,,,,,,,,,,,
null,,confidence_buffer,673371,confidence_buffer,,null,,,,,,,,,,,,,,,,,,
1709.4000000357628,,recognition_phase,675081,Yukon,,51,,,,,,new,1,0.5,,,,,,,,,,
null,,confidence_buffer,675183,confidence_buffer,,null,,,,,,,,,,,,,,,,,,
null,,thebreak,675684,break,,null,,,,,,,,,,,,,,,,,,
2131,,realistic_rating,677816,Bar Harbor,,51,Bar Harbor,US,3,,,,,,,,,,,,,,,
null,,confidence_buffer,677919,confidence_buffer,,null,,,,,,,,,,,,,,,,,,
1680.8999999761581,,pt2_unique_rating,679601,Bar Harbor,,51,,,3,,,,,,,,,,,,,,,
null,,confidence_buffer,679703,confidence_buffer,,null,,,,,,,,,,,,,,,,,,
1363.800000011921,,pt2_memorable_rating,681067,Bar Harbor,,51,,,3,,,,,,,,,,,,,,,
null,,confidence_buffer,681169,confidence_buffer,,null,,,,,,,,,,,,,,,,,,
1637.5,,recognition_phase,682807,Bar Harbor,,51,,,,,,new,0,0.4888888888888889,,,,,,,,,,
null,,confidence_buffer,682910,confidence_buffer,,null,,,,,,,,,,,,,,,,,,
null,,thebreak,683413,break,,null,,,,,,,,,,,,,,,,,,
2380.5,,realistic_rating,685794,Westridge,,51,Westridge,Fictional,3,,,,,,,,,,,,,,,
null,,confidence_buffer,685896,confidence_buffer,,null,,,,,,,,,,,,,,,,,,
1833.699999988079,,pt2_unique_rating,687731,Westridge,,51,,,3,,,,,,,,,,,,,,,
null,,confidence_buffer,687833,confidence_buffer,,null,,,,,,,,,,,,,,,,,,
1645.300000011921,,pt2_memorable_rating,689480,Westridge,,51,,,3,,,,,,,,,,,,,,,
null,,confidence_buffer,689582,confidence_buffer,,null,,,,,,,,,,,,,,,,,,
1454,,recognition_phase,691038,Westridge,,51,,,,,,new,1,0.5,,,,,,,,,,
null,,confidence_buffer,691140,confidence_buffer,,null,,,,,,,,,,,,,,,,,,
null,,thebreak,691652,break,,null,,,,,,,,,,,,,,,,,,
1979.8999999761581,,realistic_rating,693633,Rosehollow,,51,Rosehollow,Fictional,3,,,,,,,,,,,,,,,
null,,confidence_buffer,693736,confidence_buffer,,null,,,,,,,,,,,,,,,,,,
1232.6000000238419,,pt2_unique_rating,694971,Rosehollow,,51,,,3,,,,,,,,,,,,,,,
null,,confidence_buffer,695073,confidence_buffer,,null,,,,,,,,,,,,,,,,,,
1164.0999999642372,,pt2_memorable_rating,696239,Rosehollow,,51,,,3,,,,,,,,,,,,,,,
null,,confidence_buffer,696342,confidence_buffer,,null,,,,,,,,,,,,,,,,,,
1083.2000000476837,,recognition_phase,697427,Rosehollow,,51,,,,,,new,0,0.48936170212765956,,,,,,,,,,
null,,confidence_buffer,697529,confidence_buffer,,null,,,,,,,,,,,,,,,,,,
null,,thebreak,698031,break,,null,,,,,,,,,,,,,,,,,,
1515.5999999642372,,realistic_rating,699548,Custer,,51,Custer,US,3,,,,,,,,,,,,,,,
null,,confidence_buffer,699649,confidence_buffer,,null,,,,,,,,,,,,,,,,,,
1080.0999999642372,,pt2_unique_rating,700731,Custer,,51,,,3,,,,,,,,,,,,,,,
null,,confidence_buffer,700833,confidence_buffer,,null,,,,,,,,,,,,,,,,,,
1077,,pt2_memorable_rating,701912,Custer,,51,,,3,,,,,,,,,,,,,,,
null,,confidence_buffer,702015,confidence_buffer,,null,,,,,,,,,,,,,,,,,,
1357.5999999642372,,recognition_phase,703374,Custer,,51,,,,,,new,1,0.5,,,,,,,,,,
null,,confidence_buffer,703477,confidence_buffer,,null,,,,,,,,,,,,,,,,,,
null,,thebreak,703979,break,,null,,,,,,,,,,,,,,,,,,
1147.800000011921,,realistic_rating,705129,Duck,,51,Duck,US,3,,,,,,,,,,,,,,,
null,,confidence_buffer,705232,confidence_buffer,,null,,,,,,,,,,,,,,,,,,
933.6000000238419,,pt2_unique_rating,706167,Duck,,51,,,3,,,,,,,,,,,,,,,
null,,confidence_buffer,706269,confidence_buffer,,null,,,,,,,,,,,,,,,,,,
903.1999999880791,,pt2_memorable_rating,707173,Duck,,51,,,3,,,,,,,,,,,,,,,
null,,confidence_buffer,707275,confidence_buffer,,null,,,,,,,,,,,,,,,,,,
1277.3999999761581,,recognition_phase,708553,Duck,,51,,,,,,new,0,0.4897959183673469,,,,,,,,,,
null,,confidence_buffer,708656,confidence_buffer,,null,,,,,,,,,,,,,,,,,,
null,,thebreak,709158,break,,null,,,,,,,,,,,,,,,,,,
1895.5999999642372,,realistic_rating,711055,Abilene,,51,Abilene,US,3,,,,,,,,,,,,,,,
null,,confidence_buffer,711158,confidence_buffer,,null,,,,,,,,,,,,,,,,,,
1291.7999999523163,,pt2_unique_rating,712452,Abilene,,51,,,3,,,,,,,,,,,,,,,
null,,confidence_buffer,712554,confidence_buffer,,null,,,,,,,,,,,,,,,,,,
1361.300000011921,,pt2_memorable_rating,713917,Abilene,,51,,,3,,,,,,,,,,,,,,,
null,,confidence_buffer,714020,confidence_buffer,,null,,,,,,,,,,,,,,,,,,
1095.3999999761581,,recognition_phase,715117,Abilene,,51,,,,,,new,0,0.48,,,,,,,,,,
null,,confidence_buffer,715225,confidence_buffer,,null,,,,,,,,,,,,,,,,,,
null,,thebreak,715729,break,,null,,,,,,,,,,,,,,,,,,
1885.199999988079,,realistic_rating,717615,West Palm Beach,,51,West Palm Beach,US,3,,,,,,,,,,,,,,,
null,,confidence_buffer,717716,confidence_buffer,,null,,,,,,,,,,,,,,,,,,
1173.0999999642372,,pt2_unique_rating,718891,West Palm Beach,,51,,,3,,,,,,,,,,,,,,,
null,,confidence_buffer,718992,confidence_buffer,,null,,,,,,,,,,,,,,,,,,
9904.5,,pt2_memorable_rating,728898,West Palm Beach,,51,,,3,,,,,,,,,,,,,,,
null,,confidence_buffer,729001,confidence_buffer,,null,,,,,,,,,,,,,,,,,,
1609.1000000238419,,recognition_phase,730612,West Palm Beach,,51,,,,,,new,1,0.49019607843137253,,,,,,,,,,
null,,confidence_buffer,730715,confidence_buffer,,null,,,,,,,,,,,,,,,,,,
null,,thebreak,731216,break,,null,,,,,,,,,,,,,,,,,,
2495.100000023842,,realistic_rating,733713,Hanover,,51,Hanover,US,3,,,,,,,,,,,,,,,
null,,confidence_buffer,733815,confidence_buffer,,null,,,,,,,,,,,,,,,,,,
1816.5,,pt2_unique_rating,735632,Hanover,,51,,,3,,,,,,,,,,,,,,,
null,,confidence_buffer,735733,confidence_buffer,,null,,,,,,,,,,,,,,,,,,
1850.5,,pt2_memorable_rating,737585,Hanover,,51,,,3,,,,,,,,,,,,,,,
null,,confidence_buffer,737687,confidence_buffer,,null,,,,,,,,,,,,,,,,,,
1715.699999988079,,recognition_phase,739404,Hanover,,51,,,,,,new,1,0.5,,,,,,,,,,
null,,confidence_buffer,739507,confidence_buffer,,null,,,,,,,,,,,,,,,,,,
null,,thebreak,740009,break,,null,,,,,,,,,,,,,,,,,,
2827.099999964237,,realistic_rating,742837,Maravilla Springs,,51,Maravilla Springs,Fictional,3,,,,,,,,,,,,,,,
null,,confidence_buffer,742939,confidence_buffer,,null,,,,,,,,,,,,,,,,,,
1580.7000000476837,,pt2_unique_rating,744521,Maravilla Springs,,51,,,3,,,,,,,,,,,,,,,
null,,confidence_buffer,744623,confidence_buffer,,null,,,,,,,,,,,,,,,,,,
1113.7999999523163,,pt2_memorable_rating,745738,Maravilla Springs,,51,,,3,,,,,,,,,,,,,,,
null,,confidence_buffer,745840,confidence_buffer,,null,,,,,,,,,,,,,,,,,,
4574.200000047684,,recognition_phase,750415,Maravilla Springs,,51,,,,,,new,0,0.49056603773584906,,,,,,,,,,
null,,confidence_buffer,750516,confidence_buffer,,null,,,,,,,,,,,,,,,,,,
null,,thebreak,751018,break,,null,,,,,,,,,,,,,,,,,,
5133.5,,realistic_rating,756153,Cornwall,,51,Cornwall,US,3,,,,,,,,,,,,,,,
null,,confidence_buffer,756256,confidence_buffer,,null,,,,,,,,,,,,,,,,,,
1422.3999999761581,,pt2_unique_rating,757680,Cornwall,,51,,,3,,,,,,,,,,,,,,,
null,,confidence_buffer,757783,confidence_buffer,,null,,,,,,,,,,,,,,,,,,
975.3000000119209,,pt2_memorable_rating,758760,Cornwall,,51,,,3,,,,,,,,,,,,,,,
null,,confidence_buffer,758863,confidence_buffer,,null,,,,,,,,,,,,,,,,,,
1056.1000000238419,,recognition_phase,759921,Cornwall,,51,,,,,,new,1,0.5,,,,,,,,,,
null,,confidence_buffer,760023,confidence_buffer,,null,,,,,,,,,,,,,,,,,,
null,,thebreak,760534,break,,null,,,,,,,,,,,,,,,,,,
3232.300000011921,,realistic_rating,763768,Watkins Glen,,51,Watkins Glen,US,3,,,,,,,,,,,,,,,
null,,confidence_buffer,763872,confidence_buffer,,null,,,,,,,,,,,,,,,,,,
1343.800000011921,,pt2_unique_rating,765218,Watkins Glen,,51,,,3,,,,,,,,,,,,,,,
null,,confidence_buffer,765321,confidence_buffer,,null,,,,,,,,,,,,,,,,,,
1667,,pt2_memorable_rating,766989,Watkins Glen,,51,,,3,,,,,,,,,,,,,,,
null,,confidence_buffer,767090,confidence_buffer,,null,,,,,,,,,,,,,,,,,,
989.7000000476837,,recognition_phase,768081,Watkins Glen,,51,,,,,,new,1,0.509090909090909,,,,,,,,,,
null,,confidence_buffer,768184,confidence_buffer,,null,,,,,,,,,,,,,,,,,,
null,,thebreak,768686,break,,null,,,,,,,,,,,,,,,,,,
2088,,realistic_rating,770775,Elmsbury,,51,Elmsbury,Fictional,3,,,,,,,,,,,,,,,
null,,confidence_buffer,770878,confidence_buffer,,null,,,,,,,,,,,,,,,,,,
951.1000000238419,,pt2_unique_rating,771830,Elmsbury,,51,,,3,,,,,,,,,,,,,,,
null,,confidence_buffer,771933,confidence_buffer,,null,,,,,,,,,,,,,,,,,,
1060.1000000238419,,pt2_memorable_rating,772994,Elmsbury,,51,,,3,,,,,,,,,,,,,,,
null,,confidence_buffer,773096,confidence_buffer,,null,,,,,,,,,,,,,,,,,,
814.7000000476837,,recognition_phase,773913,Elmsbury,,51,,,,,,new,1,0.5178571428571429,,,,,,,,,,
null,,confidence_buffer,774014,confidence_buffer,,null,,,,,,,,,,,,,,,,,,
null,,thebreak,774516,break,,null,,,,,,,,,,,,,,,,,,
3473.2000000476837,,realistic_rating,777991,Racine,,51,Racine,US,3,,,,,,,,,,,,,,,
null,,confidence_buffer,778093,confidence_buffer,,null,,,,,,,,,,,,,,,,,,
1004.5,,pt2_unique_rating,779099,Racine,,51,,,3,,,,,,,,,,,,,,,
null,,confidence_buffer,779201,confidence_buffer,,null,,,,,,,,,,,,,,,,,,
969.1000000238419,,pt2_memorable_rating,780172,Racine,,51,,,3,,,,,,,,,,,,,,,
null,,confidence_buffer,780275,confidence_buffer,,null,,,,,,,,,,,,,,,,,,
697.5,,recognition_phase,780973,Racine,,51,,,,,,new,1,0.5263157894736842,,,,,,,,,,
null,,confidence_buffer,781076,confidence_buffer,,null,,,,,,,,,,,,,,,,,,
null,,thebreak,781577,break,,null,,,,,,,,,,,,,,,,,,
2134.300000011921,,realistic_rating,783713,Meadowspire,,51,Meadowspire,Fictional,3,,,,,,,,,,,,,,,
null,,confidence_buffer,783815,confidence_buffer,,null,,,,,,,,,,,,,,,,,,
938.5,,pt2_unique_rating,784756,Meadowspire,,51,,,3,,,,,,,,,,,,,,,
null,,confidence_buffer,784858,confidence_buffer,,null,,,,,,,,,,,,,,,,,,
1223.3999999761581,,pt2_memorable_rating,786083,Meadowspire,,51,,,3,,,,,,,,,,,,,,,
null,,confidence_buffer,786184,confidence_buffer,,null,,,,,,,,,,,,,,,,,,
1078.2999999523163,,recognition_phase,787265,Meadowspire,,51,,,,,,new,1,0.5344827586206896,,,,,,,,,,
null,,confidence_buffer,787367,confidence_buffer,,null,,,,,,,,,,,,,,,,,,
null,,thebreak,787870,break,,null,,,,,,,,,,,,,,,,,,
1920.1000000238419,,realistic_rating,789792,San Antonio,,51,San Antonio,US,3,,,,,,,,,,,,,,,
null,,confidence_buffer,789894,confidence_buffer,,null,,,,,,,,,,,,,,,,,,
1167.1000000238419,,pt2_unique_rating,791063,San Antonio,,51,,,3,,,,,,,,,,,,,,,
null,,confidence_buffer,791165,confidence_buffer,,null,,,,,,,,,,,,,,,,,,
1215.199999988079,,pt2_memorable_rating,792381,San Antonio,,51,,,3,,,,,,,,,,,,,,,
null,,confidence_buffer,792484,confidence_buffer,,null,,,,,,,,,,,,,,,,,,
1265.8999999761581,,recognition_phase,793752,San Antonio,,51,,,,,,new,0,0.5254237288135594,,,,,,,,,,
null,,confidence_buffer,793855,confidence_buffer,,null,,,,,,,,,,,,,,,,,,
null,,thebreak,794357,break,,null,,,,,,,,,,,,,,,,,,
2871.300000011921,,realistic_rating,797229,Maplehurst,,51,Maplehurst,Fictional,3,,,,,,,,,,,,,,,
null,,confidence_buffer,797332,confidence_buffer,,null,,,,,,,,,,,,,,,,,,
1666.1000000238419,,pt2_unique_rating,799000,Maplehurst,,51,,,3,,,,,,,,,,,,,,,
null,,confidence_buffer,799103,confidence_buffer,,null,,,,,,,,,,,,,,,,,,
1547.8999999761581,,pt2_memorable_rating,800652,Maplehurst,,51,,,3,,,,,,,,,,,,,,,
null,,confidence_buffer,800754,confidence_buffer,,null,,,,,,,,,,,,,,,,,,
1254.5,,recognition_phase,802010,Maplehurst,,51,,,,,,new,1,0.5333333333333333,,,,,,,,,,
null,,confidence_buffer,802111,confidence_buffer,,null,,,,,,,,,,,,,,,,,,
null,,thebreak,802613,break,,null,,,,,,,,,,,,,,,,,,
,,survey,876289,survey-questions,,,,,,,,,,,none,high,no,none,nothing,nothing,nothing,nothing,no,no
