rt,responses,trial_type,time_elapsed,stimulus,button_pressed,key_press,name_trial,city_type,rating,probe,probe_accuracy,response,correct,accuracy
10329.5,{worker_id:67f2f2c18ade355ef2ee1e87},id_enter,10333,,,,,,,,,,,
11160.199999999255,,fullscreen,21497,fullscreen,0,,,,,,,,,
1744,,intro_0,23244,instruct,,32,,,,,,,,
264,,intro_1,23510,instruct,,32,,,,,,,,
862.8000000007451,,intro_2,24374,instruct,,32,,,,,,,,
null,,instruct_dir_4,25878,instruct,,null,,,,,,,,
null,,thebreak,26385,break,,null,,,,,,,,
3407.699999999255,,familiar_rating,29794,Hot Springs,,52,Hot Springs,US,4,,,,,
null,,confidence_buffer,29897,confidence_buffer,,null,,,,,,,,
2583.699999999255,,unique_rating,32483,Hot Springs,,51,,,3,,,,,
null,,confidence_buffer,32586,confidence_buffer,,null,,,,,,,,
1562.8999999985099,,memorable_rating,34150,Hot Springs,,52,,,4,,,,,
null,,confidence_buffer,34252,confidence_buffer,,null,,,,,,,,
null,,thebreak,34768,break,,null,,,,,,,,
5691.400000002235,,familiar_rating,40461,Bayshore Haven,,52,Bayshore Haven,Fictional,4,,,,,
null,,confidence_buffer,40563,confidence_buffer,,null,,,,,,,,
1063.800000000745,,unique_rating,41628,Bayshore Haven,,50,,,2,,,,,
null,,confidence_buffer,41731,confidence_buffer,,null,,,,,,,,
3225,,memorable_rating,44958,Bayshore Haven,,52,,,4,,,,,
null,,confidence_buffer,45060,confidence_buffer,,null,,,,,,,,
null,,thebreak,45562,break,,null,,,,,,,,
4363.60000000149,,familiar_rating,49927,Medora,,52,Medora,US,4,,,,,
null,,confidence_buffer,50029,confidence_buffer,,null,,,,,,,,
3943,,probe_rating,53974,probe_rating,,53,,,,5,1,,,
null,,confidence_buffer,54082,confidence_buffer,,null,,,,,,,,
4277.60000000149,,unique_rating,58361,Medora,,52,,,4,,,,,
null,,confidence_buffer,58464,confidence_buffer,,null,,,,,,,,
2518.300000000745,,memorable_rating,60984,Medora,,53,,,5,,,,,
null,,confidence_buffer,61087,confidence_buffer,,null,,,,,,,,
null,,thebreak,61589,break,,null,,,,,,,,
1374.699999999255,,familiar_rating,62965,Westridge,,50,Westridge,Fictional,2,,,,,
null,,confidence_buffer,63067,confidence_buffer,,null,,,,,,,,
1301.5,,unique_rating,64370,Westridge,,49,,,1,,,,,
null,,confidence_buffer,64472,confidence_buffer,,null,,,,,,,,
860.1999999992549,,memorable_rating,65333,Westridge,,52,,,4,,,,,
null,,confidence_buffer,65434,confidence_buffer,,null,,,,,,,,
null,,thebreak,65936,break,,null,,,,,,,,
2541.199999999255,,familiar_rating,68478,Gatlinburg,,52,Gatlinburg,US,4,,,,,
null,,confidence_buffer,68581,confidence_buffer,,null,,,,,,,,
3205.199999999255,,probe_rating,71788,probe_rating,,52,,,,4,1,,,
null,,confidence_buffer,71890,confidence_buffer,,null,,,,,,,,
1859.9000000022352,,unique_rating,73752,Gatlinburg,,50,,,2,,,,,
null,,confidence_buffer,73855,confidence_buffer,,null,,,,,,,,
2268.199999999255,,memorable_rating,76124,Gatlinburg,,52,,,4,,,,,
null,,confidence_buffer,76228,confidence_buffer,,null,,,,,,,,
null,,thebreak,76729,break,,null,,,,,,,,
6547.599999997765,,familiar_rating,83278,Newport,,51,Newport,US,3,,,,,
null,,confidence_buffer,83380,confidence_buffer,,null,,,,,,,,
362.5,,unique_rating,83745,Newport,,52,,,4,,,,,
null,,confidence_buffer,83847,confidence_buffer,,null,,,,,,,,
946.3000000007451,,memorable_rating,84795,Newport,,50,,,2,,,,,
null,,confidence_buffer,84898,confidence_buffer,,null,,,,,,,,
null,,thebreak,85400,break,,null,,,,,,,,
1594.1000000014901,,familiar_rating,86996,Yukon,,52,Yukon,US,4,,,,,
null,,confidence_buffer,87099,confidence_buffer,,null,,,,,,,,
239.39999999850988,,unique_rating,87340,Yukon,,51,,,3,,,,,
null,,confidence_buffer,87443,confidence_buffer,,null,,,,,,,,
516.5,,memorable_rating,87961,Yukon,,52,,,4,,,,,
null,,confidence_buffer,88063,confidence_buffer,,null,,,,,,,,
null,,thebreak,88566,break,,null,,,,,,,,
1151.8999999985099,,familiar_rating,89719,Orchard Bend,,50,Orchard Bend,Fictional,2,,,,,
null,,confidence_buffer,89821,confidence_buffer,,null,,,,,,,,
1412,,unique_rating,91234,Orchard Bend,,51,,,3,,,,,
null,,confidence_buffer,91345,confidence_buffer,,null,,,,,,,,
681.1999999992549,,memorable_rating,92028,Orchard Bend,,52,,,4,,,,,
null,,confidence_buffer,92130,confidence_buffer,,null,,,,,,,,
null,,thebreak,92632,break,,null,,,,,,,,
1121.1000000014901,,familiar_rating,93755,Ironwood Heights,,50,Ironwood Heights,Fictional,2,,,,,
null,,confidence_buffer,93859,confidence_buffer,,null,,,,,,,,
1131.5,,unique_rating,94992,Ironwood Heights,,51,,,3,,,,,
null,,confidence_buffer,95094,confidence_buffer,,null,,,,,,,,
405.70000000298023,,memorable_rating,95501,Ironwood Heights,,52,,,4,,,,,
null,,confidence_buffer,95603,confidence_buffer,,null,,,,,,,,
1449.800000000745,,probe_rating,97055,probe_rating,,53,,,,5,1,,,
null,,confidence_buffer,97157,confidence_buffer,,null,,,,,,,,
null,,thebreak,97659,break,,null,,,,,,,,
1031.9000000022352,,familiar_rating,98693,Falconridge,,50,Falconridge,Fictional,2,,,,,
null,,confidence_buffer,98796,confidence_buffer,,null,,,,,,,,
1173,,unique_rating,99970,Falconridge,,52,,,4,,,,,
null,,confidence_buffer,100072,confidence_buffer,,null,,,,,,,,
584.6000000014901,,memorable_rating,100658,Falconridge,,50,,,2,,,,,
null,,confidence_buffer,100761,confidence_buffer,,null,,,,,,,,
null,,thebreak,101262,break,,null,,,,,,,,
941.1999999992549,,familiar_rating,102205,Gloucester,,49,Gloucester,US,1,,,,,
null,,confidence_buffer,102308,confidence_buffer,,null,,,,,,,,
972.5,,unique_rating,103282,Gloucester,,52,,,4,,,,,
null,,confidence_buffer,103385,confidence_buffer,,null,,,,,,,,
1494.5,,memorable_rating,104881,Gloucester,,51,,,3,,,,,
null,,confidence_buffer,104983,confidence_buffer,,null,,,,,,,,
null,,thebreak,105485,break,,null,,,,,,,,
726.8000000007451,,familiar_rating,106213,Linden Trace,,52,Linden Trace,Fictional,4,,,,,
null,,confidence_buffer,106316,confidence_buffer,,null,,,,,,,,
546.3000000007451,,unique_rating,106864,Linden Trace,,53,,,5,,,,,
null,,confidence_buffer,106968,confidence_buffer,,null,,,,,,,,
803.3999999985099,,memorable_rating,107774,Linden Trace,,50,,,2,,,,,
null,,confidence_buffer,107876,confidence_buffer,,null,,,,,,,,
null,,thebreak,108378,break,,null,,,,,,,,
2378.10000000149,,familiar_rating,110758,Huntsville,,50,Huntsville,US,2,,,,,
null,,confidence_buffer,110861,confidence_buffer,,null,,,,,,,,
861.3999999985099,,unique_rating,111724,Huntsville,,52,,,4,,,,,
null,,confidence_buffer,111827,confidence_buffer,,null,,,,,,,,
824.1999999992549,,memorable_rating,112652,Huntsville,,51,,,3,,,,,
null,,confidence_buffer,112754,confidence_buffer,,null,,,,,,,,
null,,thebreak,113256,break,,null,,,,,,,,
1585.199999999255,,familiar_rating,114843,West Palm Beach,,50,West Palm Beach,US,2,,,,,
null,,confidence_buffer,114946,confidence_buffer,,null,,,,,,,,
769.8999999985099,,unique_rating,115718,West Palm Beach,,52,,,4,,,,,
null,,confidence_buffer,115820,confidence_buffer,,null,,,,,,,,
3957.199999999255,,memorable_rating,119779,West Palm Beach,,50,,,2,,,,,
null,,confidence_buffer,119881,confidence_buffer,,null,,,,,,,,
null,,thebreak,120383,break,,null,,,,,,,,
1071.199999999255,,familiar_rating,121455,Lakehaven,,52,Lakehaven,Fictional,4,,,,,
null,,confidence_buffer,121557,confidence_buffer,,null,,,,,,,,
6402.5,,unique_rating,127960,Lakehaven,,52,,,4,,,,,
null,,confidence_buffer,128062,confidence_buffer,,null,,,,,,,,
1345.0999999977648,,memorable_rating,129409,Lakehaven,,50,,,2,,,,,
null,,confidence_buffer,129510,confidence_buffer,,null,,,,,,,,
null,,thebreak,130013,break,,null,,,,,,,,
1443.8999999985099,,familiar_rating,131458,Summershade,,52,Summershade,Fictional,4,,,,,
null,,confidence_buffer,131560,confidence_buffer,,null,,,,,,,,
2199.300000000745,,probe_rating,133762,probe_rating,,52,,,,4,1,,,
null,,confidence_buffer,133865,confidence_buffer,,null,,,,,,,,
1050.3999999985099,,unique_rating,134917,Summershade,,50,,,2,,,,,
null,,confidence_buffer,135025,confidence_buffer,,null,,,,,,,,
646.8000000007451,,memorable_rating,135673,Summershade,,52,,,4,,,,,
null,,confidence_buffer,135775,confidence_buffer,,null,,,,,,,,
null,,thebreak,136276,break,,null,,,,,,,,
4422.199999999255,,familiar_rating,140700,Athens,,50,Athens,US,2,,,,,
null,,confidence_buffer,140801,confidence_buffer,,null,,,,,,,,
357.9000000022352,,unique_rating,141161,Athens,,52,,,4,,,,,
null,,confidence_buffer,141263,confidence_buffer,,null,,,,,,,,
2150.300000000745,,probe_rating,143415,probe_rating,,52,,,,4,1,,,
null,,confidence_buffer,143516,confidence_buffer,,null,,,,,,,,
3149.699999999255,,memorable_rating,146668,Athens,,50,,,2,,,,,
null,,confidence_buffer,146770,confidence_buffer,,null,,,,,,,,
null,,thebreak,147272,break,,null,,,,,,,,
1250.5,,familiar_rating,148524,Pine Hollow,,52,Pine Hollow,Fictional,4,,,,,
null,,confidence_buffer,148630,confidence_buffer,,null,,,,,,,,
632.3000000007451,,unique_rating,149265,Pine Hollow,,51,,,3,,,,,
null,,confidence_buffer,149367,confidence_buffer,,null,,,,,,,,
475.80000000074506,,memorable_rating,149844,Pine Hollow,,52,,,4,,,,,
null,,confidence_buffer,149947,confidence_buffer,,null,,,,,,,,
null,,thebreak,150448,break,,null,,,,,,,,
1861.8999999985099,,familiar_rating,152312,Barnard,,50,Barnard,US,2,,,,,
null,,confidence_buffer,152414,confidence_buffer,,null,,,,,,,,
4131.39999999851,,unique_rating,156547,Barnard,,50,,,2,,,,,
null,,confidence_buffer,156649,confidence_buffer,,null,,,,,,,,
3257.699999999255,,memorable_rating,159909,Barnard,,50,,,2,,,,,
null,,confidence_buffer,160011,confidence_buffer,,null,,,,,,,,
null,,thebreak,160512,break,,null,,,,,,,,
5252.699999999255,,familiar_rating,165767,Driftwood Bay,,52,Driftwood Bay,Fictional,4,,,,,
null,,confidence_buffer,165869,confidence_buffer,,null,,,,,,,,
3632.199999999255,,unique_rating,169503,Driftwood Bay,,50,,,2,,,,,
null,,confidence_buffer,169605,confidence_buffer,,null,,,,,,,,
8483,,memorable_rating,178090,Driftwood Bay,,52,,,4,,,,,
null,,confidence_buffer,178192,confidence_buffer,,null,,,,,,,,
null,,thebreak,178694,break,,null,,,,,,,,
730.9000000022352,,familiar_rating,179427,Bar Harbor,,50,Bar Harbor,US,2,,,,,
null,,confidence_buffer,179530,confidence_buffer,,null,,,,,,,,
996.0999999977648,,unique_rating,180528,Bar Harbor,,51,,,3,,,,,
null,,confidence_buffer,180630,confidence_buffer,,null,,,,,,,,
1847.6000000014901,,probe_rating,182480,probe_rating,,53,,,,5,1,,,
null,,confidence_buffer,182583,confidence_buffer,,null,,,,,,,,
1072.5,,memorable_rating,183656,Bar Harbor,,50,,,2,,,,,
null,,confidence_buffer,183758,confidence_buffer,,null,,,,,,,,
null,,thebreak,184260,break,,null,,,,,,,,
769.8000000007451,,familiar_rating,185031,Ravenport,,52,Ravenport,Fictional,4,,,,,
null,,confidence_buffer,185133,confidence_buffer,,null,,,,,,,,
140.5,,unique_rating,185275,Ravenport,,50,,,2,,,,,
null,,confidence_buffer,185376,confidence_buffer,,null,,,,,,,,
373.19999999925494,,memorable_rating,185750,Ravenport,,51,,,3,,,,,
null,,confidence_buffer,185853,confidence_buffer,,null,,,,,,,,
null,,thebreak,186354,break,,null,,,,,,,,
614.5,,familiar_rating,186970,Alliance,,50,Alliance,US,2,,,,,
null,,confidence_buffer,187072,confidence_buffer,,null,,,,,,,,
1004.9000000022352,,unique_rating,188079,Alliance,,49,,,1,,,,,
null,,confidence_buffer,188182,confidence_buffer,,null,,,,,,,,
1206,,memorable_rating,189389,Alliance,,52,,,4,,,,,
null,,confidence_buffer,189492,confidence_buffer,,null,,,,,,,,
null,,thebreak,189993,break,,null,,,,,,,,
942,,familiar_rating,190937,Maravilla Springs,,50,Maravilla Springs,Fictional,2,,,,,
null,,confidence_buffer,191040,confidence_buffer,,null,,,,,,,,
522.2000000029802,,unique_rating,191564,Maravilla Springs,,52,,,4,,,,,
null,,confidence_buffer,191667,confidence_buffer,,null,,,,,,,,
338.0999999977648,,memorable_rating,192007,Maravilla Springs,,51,,,3,,,,,
null,,confidence_buffer,192115,confidence_buffer,,null,,,,,,,,
null,,thebreak,192617,break,,null,,,,,,,,
1104.300000000745,,familiar_rating,193723,Highvale,,52,Highvale,Fictional,4,,,,,
null,,confidence_buffer,193826,confidence_buffer,,null,,,,,,,,
793.1999999992549,,unique_rating,194621,Highvale,,50,,,2,,,,,
null,,confidence_buffer,194723,confidence_buffer,,null,,,,,,,,
930.9000000022352,,memorable_rating,195656,Highvale,,49,,,1,,,,,
null,,confidence_buffer,195758,confidence_buffer,,null,,,,,,,,
null,,thebreak,196259,break,,null,,,,,,,,
1212.8999999985099,,familiar_rating,197474,Park City,,50,Park City,US,2,,,,,
null,,confidence_buffer,197577,confidence_buffer,,null,,,,,,,,
908.8000000007451,,unique_rating,198488,Park City,,50,,,2,,,,,
null,,confidence_buffer,198590,confidence_buffer,,null,,,,,,,,
1947.699999999255,,probe_rating,200540,probe_rating,,51,,,,3,1,,,
null,,confidence_buffer,200643,confidence_buffer,,null,,,,,,,,
1020.6000000014901,,memorable_rating,201665,Park City,,52,,,4,,,,,
null,,confidence_buffer,201767,confidence_buffer,,null,,,,,,,,
null,,thebreak,202269,break,,null,,,,,,,,
1708.199999999255,,familiar_rating,203979,Natchez,,50,Natchez,US,2,,,,,
null,,confidence_buffer,204082,confidence_buffer,,null,,,,,,,,
81.19999999925494,,unique_rating,204165,Natchez,,52,,,4,,,,,
null,,confidence_buffer,204267,confidence_buffer,,null,,,,,,,,
541.8999999985099,,memorable_rating,204811,Natchez,,52,,,4,,,,,
null,,confidence_buffer,204913,confidence_buffer,,null,,,,,,,,
null,,thebreak,205414,break,,null,,,,,,,,
873.3000000007451,,familiar_rating,206289,Coeur d'Alene,,50,Coeur d'Alene,US,2,,,,,
null,,confidence_buffer,206391,confidence_buffer,,null,,,,,,,,
4357.199999999255,,unique_rating,210750,Coeur d'Alene,,50,,,2,,,,,
null,,confidence_buffer,210853,confidence_buffer,,null,,,,,,,,
908.6999999992549,,memorable_rating,211763,Coeur d'Alene,,52,,,4,,,,,
null,,confidence_buffer,211864,confidence_buffer,,null,,,,,,,,
null,,thebreak,212366,break,,null,,,,,,,,
797.5999999977648,,familiar_rating,213165,North Arroya,,51,North Arroya,Fictional,3,,,,,
null,,confidence_buffer,213268,confidence_buffer,,null,,,,,,,,
434.5999999977648,,unique_rating,213705,North Arroya,,52,,,4,,,,,
null,,confidence_buffer,213807,confidence_buffer,,null,,,,,,,,
478.5999999977648,,memorable_rating,214288,North Arroya,,50,,,2,,,,,
null,,confidence_buffer,214390,confidence_buffer,,null,,,,,,,,
null,,thebreak,214891,break,,null,,,,,,,,
858.8000000007451,,familiar_rating,215751,Briarfield,,52,Briarfield,Fictional,4,,,,,
null,,confidence_buffer,215853,confidence_buffer,,null,,,,,,,,
345,,unique_rating,216200,Briarfield,,50,,,2,,,,,
null,,confidence_buffer,216302,confidence_buffer,,null,,,,,,,,
612.2999999970198,,memorable_rating,216916,Briarfield,,49,,,1,,,,,
null,,confidence_buffer,217019,confidence_buffer,,null,,,,,,,,
null,,thebreak,217520,break,,null,,,,,,,,
3895.89999999851,,intro_0,221418,instruct,,32,,,,,,,,
770.1000000014901,,intro_1,222189,instruct,,32,,,,,,,,
4586.400000002235,,intro_2,226776,instruct,,32,,,,,,,,
null,,instruct_dir_4,228278,instruct,,null,,,,,,,,
3255.5,,realistic_rating,231535,Clearbrook,,50,Clearbrook,Fictional,2,,,,,
null,,confidence_buffer,231639,confidence_buffer,,null,,,,,,,,
355.19999999925494,,pt2_unique_rating,231996,Clearbrook,,52,,,4,,,,,
null,,confidence_buffer,232099,confidence_buffer,,null,,,,,,,,
326.30000000074506,,pt2_memorable_rating,232426,Clearbrook,,51,,,3,,,,,
null,,confidence_buffer,232528,confidence_buffer,,null,,,,,,,,
1244,,probe_rating,233774,probe_rating,,50,,,,2,0,,,
null,,confidence_buffer,233876,confidence_buffer,,null,,,,,,,,
1097.5999999977648,,recognition_phase,234976,Clearbrook,,52,,,,,,new,1,1
null,,confidence_buffer,235078,confidence_buffer,,null,,,,,,,,
null,,thebreak,235583,break,,null,,,,,,,,
2751.199999999255,,realistic_rating,238336,Alliance,,50,Alliance,US,2,,,,,
null,,confidence_buffer,238439,confidence_buffer,,null,,,,,,,,
859.6000000014901,,pt2_unique_rating,239300,Alliance,,51,,,3,,,,,
null,,confidence_buffer,239402,confidence_buffer,,null,,,,,,,,
637.6000000014901,,pt2_memorable_rating,240041,Alliance,,50,,,2,,,,,
null,,confidence_buffer,240144,confidence_buffer,,null,,,,,,,,
6862.60000000149,,recognition_phase,247009,Alliance,,51,,,,,,new,0,0.5
null,,confidence_buffer,247112,confidence_buffer,,null,,,,,,,,
null,,thebreak,247613,break,,null,,,,,,,,
8594.300000000745,,realistic_rating,256209,Racine,,50,Racine,US,2,,,,,
null,,confidence_buffer,256311,confidence_buffer,,null,,,,,,,,
472,,pt2_unique_rating,256785,Racine,,52,,,4,,,,,
null,,confidence_buffer,256887,confidence_buffer,,null,,,,,,,,
18741.39999999851,,pt2_memorable_rating,275630,Racine,,50,,,2,,,,,
null,,confidence_buffer,275732,confidence_buffer,,null,,,,,,,,
7842.39999999851,,recognition_phase,283576,Racine,,52,,,,,,new,1,0.6666666666666666
null,,confidence_buffer,283680,confidence_buffer,,null,,,,,,,,
null,,thebreak,284181,break,,null,,,,,,,,
2578.39999999851,,realistic_rating,286761,Ravenport,,50,Ravenport,Fictional,2,,,,,
null,,confidence_buffer,286864,confidence_buffer,,null,,,,,,,,
1435.2999999970198,,pt2_unique_rating,288301,Ravenport,,51,,,3,,,,,
null,,confidence_buffer,288403,confidence_buffer,,null,,,,,,,,
664.5999999977648,,pt2_memorable_rating,289070,Ravenport,,50,,,2,,,,,
null,,confidence_buffer,289172,confidence_buffer,,null,,,,,,,,
5145,,recognition_phase,294319,Ravenport,,49,,,,,,old,1,0.75
null,,confidence_buffer,294421,confidence_buffer,,null,,,,,,,,
null,,thebreak,294923,break,,null,,,,,,,,
1059.5,,realistic_rating,295984,Yukon,,51,Yukon,US,3,,,,,
null,,confidence_buffer,296091,confidence_buffer,,null,,,,,,,,
365,,pt2_unique_rating,296458,Yukon,,50,,,2,,,,,
null,,confidence_buffer,296560,confidence_buffer,,null,,,,,,,,
807.3999999985099,,pt2_memorable_rating,297369,Yukon,,51,,,3,,,,,
null,,confidence_buffer,297470,confidence_buffer,,null,,,,,,,,
888.8999999985099,,recognition_phase,298360,Yukon,,49,,,,,,old,1,0.8
null,,confidence_buffer,298461,confidence_buffer,,null,,,,,,,,
null,,thebreak,298963,break,,null,,,,,,,,
1059.800000000745,,realistic_rating,300025,Redgrove,,52,Redgrove,Fictional,4,,,,,
null,,confidence_buffer,300128,confidence_buffer,,null,,,,,,,,
628.3999999985099,,pt2_unique_rating,300758,Redgrove,,50,,,2,,,,,
null,,confidence_buffer,300861,confidence_buffer,,null,,,,,,,,
1492.800000000745,,pt2_memorable_rating,302355,Redgrove,,52,,,4,,,,,
null,,confidence_buffer,302457,confidence_buffer,,null,,,,,,,,
1197.2000000029802,,recognition_phase,303655,Redgrove,,49,,,,,,old,0,0.6666666666666666
null,,confidence_buffer,303756,confidence_buffer,,null,,,,,,,,
null,,thebreak,304259,break,,null,,,,,,,,
676.4000000022352,,realistic_rating,304937,Manistee,,51,Manistee,US,3,,,,,
null,,confidence_buffer,305039,confidence_buffer,,null,,,,,,,,
170.90000000223517,,pt2_unique_rating,305212,Manistee,,50,,,2,,,,,
null,,confidence_buffer,305313,confidence_buffer,,null,,,,,,,,
298.80000000074506,,pt2_memorable_rating,305613,Manistee,,52,,,4,,,,,
null,,confidence_buffer,305716,confidence_buffer,,null,,,,,,,,
223,,probe_rating,305941,probe_rating,,49,,,,1,0,,,
null,,confidence_buffer,306043,confidence_buffer,,null,,,,,,,,
208.40000000223517,,recognition_phase,306253,Manistee,,50,,,,,,old,0,0.5714285714285714
null,,confidence_buffer,306355,confidence_buffer,,null,,,,,,,,
null,,thebreak,306870,break,,null,,,,,,,,
1322.0999999977648,,realistic_rating,308194,Cody,,51,Cody,US,3,,,,,
null,,confidence_buffer,308296,confidence_buffer,,null,,,,,,,,
177.30000000074506,,pt2_unique_rating,308475,Cody,,50,,,2,,,,,
null,,confidence_buffer,308577,confidence_buffer,,null,,,,,,,,
454.0999999977648,,pt2_memorable_rating,309032,Cody,,52,,,4,,,,,
null,,confidence_buffer,309134,confidence_buffer,,null,,,,,,,,
2434.7999999970198,,recognition_phase,311571,Cody,,49,,,,,,old,0,0.5
null,,confidence_buffer,311674,confidence_buffer,,null,,,,,,,,
null,,thebreak,312175,break,,null,,,,,,,,
3006.699999999255,,realistic_rating,315183,Bowling Green,,51,Bowling Green,US,3,,,,,
null,,confidence_buffer,315285,confidence_buffer,,null,,,,,,,,
6777.699999999255,,pt2_unique_rating,322064,Bowling Green,,51,,,3,,,,,
null,,confidence_buffer,322166,confidence_buffer,,null,,,,,,,,
2746.60000000149,,pt2_memorable_rating,324914,Bowling Green,,50,,,2,,,,,
null,,confidence_buffer,325016,confidence_buffer,,null,,,,,,,,
1308.300000000745,,recognition_phase,326325,Bowling Green,,49,,,,,,old,0,0.4444444444444444
null,,confidence_buffer,326433,confidence_buffer,,null,,,,,,,,
null,,thebreak,326947,break,,null,,,,,,,,
635.3000000007451,,realistic_rating,327585,Orr,,51,Orr,US,3,,,,,
null,,confidence_buffer,327687,confidence_buffer,,null,,,,,,,,
323.5,,pt2_unique_rating,328013,Orr,,50,,,2,,,,,
null,,confidence_buffer,328115,confidence_buffer,,null,,,,,,,,
592.5,,pt2_memorable_rating,328708,Orr,,49,,,1,,,,,
null,,confidence_buffer,328810,confidence_buffer,,null,,,,,,,,
1254.300000000745,,recognition_phase,330066,Orr,,52,,,,,,new,1,0.5
null,,confidence_buffer,330171,confidence_buffer,,null,,,,,,,,
null,,thebreak,330672,break,,null,,,,,,,,
584.3999999985099,,realistic_rating,331258,Duck,,51,Duck,US,3,,,,,
null,,confidence_buffer,331360,confidence_buffer,,null,,,,,,,,
243.59999999776483,,pt2_unique_rating,331605,Duck,,50,,,2,,,,,
null,,confidence_buffer,331707,confidence_buffer,,null,,,,,,,,
4909.5,,pt2_memorable_rating,336618,Duck,,51,,,3,,,,,
null,,confidence_buffer,336721,confidence_buffer,,null,,,,,,,,
5938.39999999851,,recognition_phase,342661,Duck,,49,,,,,,old,0,0.45454545454545453
null,,confidence_buffer,342763,confidence_buffer,,null,,,,,,,,
null,,thebreak,343264,break,,null,,,,,,,,
4538.599999997765,,realistic_rating,347804,Delaro Park,,51,Delaro Park,Fictional,3,,,,,
null,,confidence_buffer,347906,confidence_buffer,,null,,,,,,,,
1094.5,,pt2_unique_rating,349002,Delaro Park,,50,,,2,,,,,
null,,confidence_buffer,349104,confidence_buffer,,null,,,,,,,,
1077.5,,pt2_memorable_rating,350184,Delaro Park,,49,,,1,,,,,
null,,confidence_buffer,350286,confidence_buffer,,null,,,,,,,,
547.5,,recognition_phase,350835,Delaro Park,,49,,,,,,old,0,0.4166666666666667
null,,confidence_buffer,350938,confidence_buffer,,null,,,,,,,,
null,,thebreak,351440,break,,null,,,,,,,,
575.1000000014901,,realistic_rating,352017,Barnard,,51,Barnard,US,3,,,,,
null,,confidence_buffer,352120,confidence_buffer,,null,,,,,,,,
468.1000000014901,,pt2_unique_rating,352590,Barnard,,50,,,2,,,,,
null,,confidence_buffer,352693,confidence_buffer,,null,,,,,,,,
775.8999999985099,,pt2_memorable_rating,353471,Barnard,,51,,,3,,,,,
null,,confidence_buffer,353572,confidence_buffer,,null,,,,,,,,
821,,recognition_phase,354395,Barnard,,52,,,,,,new,0,0.38461538461538464
null,,confidence_buffer,354498,confidence_buffer,,null,,,,,,,,
null,,thebreak,354999,break,,null,,,,,,,,
8285.89999999851,,realistic_rating,363287,Athens,,51,Athens,US,3,,,,,
null,,confidence_buffer,363389,confidence_buffer,,null,,,,,,,,
21151.70000000298,,probe_rating,384542,probe_rating,,52,,,,4,1,,,
null,,confidence_buffer,384644,confidence_buffer,,null,,,,,,,,
1321.300000000745,,pt2_unique_rating,385967,Athens,,52,,,4,,,,,
null,,confidence_buffer,386069,confidence_buffer,,null,,,,,,,,
798.7000000029802,,pt2_memorable_rating,386869,Athens,,52,,,4,,,,,
null,,confidence_buffer,386971,confidence_buffer,,null,,,,,,,,
7035.29999999702,,recognition_phase,394008,Athens,,49,,,,,,old,1,0.42857142857142855
null,,confidence_buffer,394111,confidence_buffer,,null,,,,,,,,
null,,thebreak,394613,break,,null,,,,,,,,
3263.099999997765,,realistic_rating,397877,Hanover,,51,Hanover,US,3,,,,,
null,,confidence_buffer,397979,confidence_buffer,,null,,,,,,,,
797.8000000007451,,pt2_unique_rating,398779,Hanover,,52,,,4,,,,,
null,,confidence_buffer,398881,confidence_buffer,,null,,,,,,,,
5968.70000000298,,pt2_memorable_rating,404852,Hanover,,51,,,3,,,,,
null,,confidence_buffer,404955,confidence_buffer,,null,,,,,,,,
22758.599999997765,,recognition_phase,427714,Hanover,,49,,,,,,old,0,0.4
null,,confidence_buffer,427817,confidence_buffer,,null,,,,,,,,
null,,thebreak,428318,break,,null,,,,,,,,
845.5,,realistic_rating,429165,Northbridge,,51,Northbridge,Fictional,3,,,,,
null,,confidence_buffer,429267,confidence_buffer,,null,,,,,,,,
492,,pt2_unique_rating,429761,Northbridge,,50,,,2,,,,,
null,,confidence_buffer,429863,confidence_buffer,,null,,,,,,,,
355.30000000074506,,pt2_memorable_rating,430221,Northbridge,,51,,,3,,,,,
null,,confidence_buffer,430323,confidence_buffer,,null,,,,,,,,
555.1000000014901,,recognition_phase,430880,Northbridge,,49,,,,,,old,0,0.375
null,,confidence_buffer,430982,confidence_buffer,,null,,,,,,,,
null,,thebreak,431484,break,,null,,,,,,,,
495.19999999925494,,realistic_rating,431981,Huntsville,,51,Huntsville,US,3,,,,,
null,,confidence_buffer,432083,confidence_buffer,,null,,,,,,,,
167.59999999776483,,pt2_unique_rating,432252,Huntsville,,52,,,4,,,,,
null,,confidence_buffer,432354,confidence_buffer,,null,,,,,,,,
127,,pt2_memorable_rating,432482,Huntsville,,51,,,3,,,,,
null,,confidence_buffer,432584,confidence_buffer,,null,,,,,,,,
247.19999999925494,,recognition_phase,432832,Huntsville,,50,,,,,,old,1,0.4117647058823529
null,,confidence_buffer,432935,confidence_buffer,,null,,,,,,,,
null,,thebreak,433437,break,,null,,,,,,,,
915.3000000007451,,realistic_rating,434354,Crestwood,,52,Crestwood,Fictional,4,,,,,
null,,confidence_buffer,434457,confidence_buffer,,null,,,,,,,,
119.30000000074506,,pt2_unique_rating,434577,Crestwood,,51,,,3,,,,,
null,,confidence_buffer,434678,confidence_buffer,,null,,,,,,,,
407,,pt2_memorable_rating,435086,Crestwood,,50,,,2,,,,,
null,,confidence_buffer,435188,confidence_buffer,,null,,,,,,,,
1579.6000000014901,,recognition_phase,436769,Crestwood,,49,,,,,,old,0,0.3888888888888889
null,,confidence_buffer,436872,confidence_buffer,,null,,,,,,,,
null,,thebreak,437373,break,,null,,,,,,,,
4488.199999999255,,realistic_rating,441863,Cape May,,51,Cape May,US,3,,,,,
null,,confidence_buffer,441966,confidence_buffer,,null,,,,,,,,
8125.599999997765,,pt2_unique_rating,450093,Cape May,,50,,,2,,,,,
null,,confidence_buffer,450196,confidence_buffer,,null,,,,,,,,
824.6999999992549,,pt2_memorable_rating,451022,Cape May,,51,,,3,,,,,
null,,confidence_buffer,451133,confidence_buffer,,null,,,,,,,,
218.20000000298023,,recognition_phase,451353,Cape May,,50,,,,,,old,0,0.3684210526315789
null,,confidence_buffer,451455,confidence_buffer,,null,,,,,,,,
null,,thebreak,451956,break,,null,,,,,,,,
684.6999999992549,,realistic_rating,452643,Highvale,,51,Highvale,Fictional,3,,,,,
null,,confidence_buffer,452745,confidence_buffer,,null,,,,,,,,
732,,pt2_unique_rating,453479,Highvale,,51,,,3,,,,,
null,,confidence_buffer,453581,confidence_buffer,,null,,,,,,,,
644.1000000014901,,pt2_memorable_rating,454227,Highvale,,50,,,2,,,,,
null,,confidence_buffer,454330,confidence_buffer,,null,,,,,,,,
4047.699999999255,,probe_rating,458379,probe_rating,,51,,,,3,1,,,
null,,confidence_buffer,458481,confidence_buffer,,null,,,,,,,,
1087,,recognition_phase,459569,Highvale,,50,,,,,,old,1,0.4
null,,confidence_buffer,459671,confidence_buffer,,null,,,,,,,,
null,,thebreak,460172,break,,null,,,,,,,,
1744.8999999985099,,realistic_rating,461919,Natchez,,51,Natchez,US,3,,,,,
null,,confidence_buffer,462021,confidence_buffer,,null,,,,,,,,
998.1999999992549,,pt2_unique_rating,463021,Natchez,,50,,,2,,,,,
null,,confidence_buffer,463124,confidence_buffer,,null,,,,,,,,
182,,probe_rating,463307,probe_rating,,51,,,,3,1,,,
null,,confidence_buffer,463410,confidence_buffer,,null,,,,,,,,
2794,,pt2_memorable_rating,466205,Natchez,,50,,,2,,,,,
null,,confidence_buffer,466308,confidence_buffer,,null,,,,,,,,
3163.300000000745,,recognition_phase,469473,Natchez,,52,,,,,,new,0,0.38095238095238093
null,,confidence_buffer,469575,confidence_buffer,,null,,,,,,,,
null,,thebreak,470077,break,,null,,,,,,,,
2364.10000000149,,realistic_rating,472443,Cedarwyn,,50,Cedarwyn,Fictional,2,,,,,
null,,confidence_buffer,472545,confidence_buffer,,null,,,,,,,,
561.3000000007451,,pt2_unique_rating,473108,Cedarwyn,,51,,,3,,,,,
null,,confidence_buffer,473210,confidence_buffer,,null,,,,,,,,
1472.699999999255,,pt2_memorable_rating,474684,Cedarwyn,,49,,,1,,,,,
null,,confidence_buffer,474785,confidence_buffer,,null,,,,,,,,
8922.5,,recognition_phase,483709,Cedarwyn,,50,,,,,,old,0,0.36363636363636365
null,,confidence_buffer,483813,confidence_buffer,,null,,,,,,,,
null,,thebreak,484315,break,,null,,,,,,,,
1281.800000000745,,realistic_rating,485598,Brookmere,,51,Brookmere,Fictional,3,,,,,
null,,confidence_buffer,485700,confidence_buffer,,null,,,,,,,,
2566.39999999851,,pt2_unique_rating,488268,Brookmere,,50,,,2,,,,,
null,,confidence_buffer,488370,confidence_buffer,,null,,,,,,,,
1059.6000000014901,,pt2_memorable_rating,489431,Brookmere,,51,,,3,,,,,
null,,confidence_buffer,489533,confidence_buffer,,null,,,,,,,,
8652.60000000149,,recognition_phase,498188,Brookmere,,51,,,,,,new,1,0.391304347826087
null,,confidence_buffer,498291,confidence_buffer,,null,,,,,,,,
null,,thebreak,498800,break,,null,,,,,,,,
800.5,,realistic_rating,499602,Briarfield,,51,Briarfield,Fictional,3,,,,,
null,,confidence_buffer,499705,confidence_buffer,,null,,,,,,,,
9780.800000000745,,pt2_unique_rating,509488,Briarfield,,51,,,3,,,,,
null,,confidence_buffer,509590,confidence_buffer,,null,,,,,,,,
603.8000000007451,,pt2_memorable_rating,510196,Briarfield,,50,,,2,,,,,
null,,confidence_buffer,510299,confidence_buffer,,null,,,,,,,,
2826,,recognition_phase,513128,Briarfield,,51,,,,,,new,0,0.375
null,,confidence_buffer,513230,confidence_buffer,,null,,,,,,,,
null,,thebreak,513732,break,,null,,,,,,,,
28195.099999997765,,realistic_rating,541929,Rosehollow,,51,Rosehollow,Fictional,3,,,,,
null,,confidence_buffer,542032,confidence_buffer,,null,,,,,,,,
4012.89999999851,,pt2_unique_rating,546046,Rosehollow,,50,,,2,,,,,
null,,confidence_buffer,546150,confidence_buffer,,null,,,,,,,,
1726.699999999255,,pt2_memorable_rating,547878,Rosehollow,,51,,,3,,,,,
null,,confidence_buffer,547980,confidence_buffer,,null,,,,,,,,
3418.39999999851,,recognition_phase,551400,Rosehollow,,52,,,,,,new,1,0.4
null,,confidence_buffer,551501,confidence_buffer,,null,,,,,,,,
null,,thebreak,552003,break,,null,,,,,,,,
712.3000000007451,,realistic_rating,552717,North Arroya,,50,North Arroya,Fictional,2,,,,,
null,,confidence_buffer,552820,confidence_buffer,,null,,,,,,,,
277.19999999925494,,pt2_unique_rating,553099,North Arroya,,51,,,3,,,,,
null,,confidence_buffer,553201,confidence_buffer,,null,,,,,,,,
424.5,,pt2_memorable_rating,553626,North Arroya,,50,,,2,,,,,
null,,confidence_buffer,553728,confidence_buffer,,null,,,,,,,,
1195.6000000014901,,recognition_phase,554926,North Arroya,,52,,,,,,new,0,0.38461538461538464
null,,confidence_buffer,555029,confidence_buffer,,null,,,,,,,,
null,,thebreak,555530,break,,null,,,,,,,,
1065.1000000014901,,realistic_rating,556597,Boulder,,50,Boulder,US,2,,,,,
null,,confidence_buffer,556700,confidence_buffer,,null,,,,,,,,
1185.699999999255,,probe_rating,557887,probe_rating,,51,,,,3,0,,,
null,,confidence_buffer,557990,confidence_buffer,,null,,,,,,,,
1189.199999999255,,pt2_unique_rating,559181,Boulder,,50,,,2,,,,,
null,,confidence_buffer,559283,confidence_buffer,,null,,,,,,,,
3372.89999999851,,pt2_memorable_rating,562658,Boulder,,51,,,3,,,,,
null,,confidence_buffer,562761,confidence_buffer,,null,,,,,,,,
8314,,recognition_phase,571076,Boulder,,51,,,,,,new,1,0.4074074074074074
null,,confidence_buffer,571179,confidence_buffer,,null,,,,,,,,
null,,thebreak,571681,break,,null,,,,,,,,
6643.39999999851,,realistic_rating,578327,New Verdan,,51,New Verdan,Fictional,3,,,,,
null,,confidence_buffer,578430,confidence_buffer,,null,,,,,,,,
6792.20000000298,,pt2_unique_rating,585224,New Verdan,,51,,,3,,,,,
null,,confidence_buffer,585325,confidence_buffer,,null,,,,,,,,
30902.800000000745,,pt2_memorable_rating,616229,New Verdan,,51,,,3,,,,,
null,,confidence_buffer,616332,confidence_buffer,,null,,,,,,,,
336,,recognition_phase,616670,New Verdan,,50,,,,,,old,0,0.39285714285714285
null,,confidence_buffer,616773,confidence_buffer,,null,,,,,,,,
null,,thebreak,617274,break,,null,,,,,,,,
1789.199999999255,,realistic_rating,619065,Medora,,51,Medora,US,3,,,,,
null,,confidence_buffer,619169,confidence_buffer,,null,,,,,,,,
451.80000000074506,,pt2_unique_rating,619622,Medora,,50,,,2,,,,,
null,,confidence_buffer,619724,confidence_buffer,,null,,,,,,,,
468.1000000014901,,pt2_memorable_rating,620194,Medora,,52,,,4,,,,,
null,,confidence_buffer,620296,confidence_buffer,,null,,,,,,,,
2408.7000000029802,,recognition_phase,622707,Medora,,50,,,,,,old,1,0.41379310344827586
null,,confidence_buffer,622810,confidence_buffer,,null,,,,,,,,
null,,thebreak,623312,break,,null,,,,,,,,
1820.9000000022352,,realistic_rating,625135,Lakehaven,,51,Lakehaven,Fictional,3,,,,,
null,,confidence_buffer,625237,confidence_buffer,,null,,,,,,,,
81.5,,pt2_unique_rating,625321,Lakehaven,,50,,,2,,,,,
null,,confidence_buffer,625422,confidence_buffer,,null,,,,,,,,
935.5999999977648,,pt2_memorable_rating,626360,Lakehaven,,51,,,3,,,,,
null,,confidence_buffer,626464,confidence_buffer,,null,,,,,,,,
642.1000000014901,,recognition_phase,627108,Lakehaven,,52,,,,,,new,0,0.4
null,,confidence_buffer,627211,confidence_buffer,,null,,,,,,,,
null,,thebreak,627712,break,,null,,,,,,,,
1435.800000000745,,realistic_rating,629150,Bayshore Haven,,50,Bayshore Haven,Fictional,2,,,,,
null,,confidence_buffer,629252,confidence_buffer,,null,,,,,,,,
4026,,pt2_unique_rating,633280,Bayshore Haven,,51,,,3,,,,,
null,,confidence_buffer,633382,confidence_buffer,,null,,,,,,,,
968.1999999992549,,pt2_memorable_rating,634353,Bayshore Haven,,50,,,2,,,,,
null,,confidence_buffer,634455,confidence_buffer,,null,,,,,,,,
3370.5,,recognition_phase,637827,Bayshore Haven,,50,,,,,,old,1,0.41935483870967744
null,,confidence_buffer,637930,confidence_buffer,,null,,,,,,,,
null,,thebreak,638431,break,,null,,,,,,,,
3477.300000000745,,realistic_rating,641911,Sisters,,50,Sisters,US,2,,,,,
null,,confidence_buffer,642014,confidence_buffer,,null,,,,,,,,
1721,,pt2_unique_rating,643736,Sisters,,51,,,3,,,,,
null,,confidence_buffer,643838,confidence_buffer,,null,,,,,,,,
1190.199999999255,,pt2_memorable_rating,645031,Sisters,,50,,,2,,,,,
null,,confidence_buffer,645132,confidence_buffer,,null,,,,,,,,
3956.599999997765,,recognition_phase,649090,Sisters,,49,,,,,,old,0,0.40625
null,,confidence_buffer,649192,confidence_buffer,,null,,,,,,,,
null,,thebreak,649694,break,,null,,,,,,,,
12557.199999999255,,realistic_rating,662253,Maravilla Springs,,50,Maravilla Springs,Fictional,2,,,,,
null,,confidence_buffer,662356,confidence_buffer,,null,,,,,,,,
7948.5,,pt2_unique_rating,670306,Maravilla Springs,,50,,,2,,,,,
null,,confidence_buffer,670409,confidence_buffer,,null,,,,,,,,
2470.800000000745,,probe_rating,672882,probe_rating,,51,,,,3,1,,,
null,,confidence_buffer,672985,confidence_buffer,,null,,,,,,,,
5649.599999997765,,pt2_memorable_rating,678636,Maravilla Springs,,51,,,3,,,,,
null,,confidence_buffer,678742,confidence_buffer,,null,,,,,,,,
4052.599999997765,,recognition_phase,682797,Maravilla Springs,,51,,,,,,new,0,0.3939393939393939
null,,confidence_buffer,682900,confidence_buffer,,null,,,,,,,,
null,,thebreak,683402,break,,null,,,,,,,,
12614.199999999255,,realistic_rating,696018,Driftwood Bay,,51,Driftwood Bay,Fictional,3,,,,,
null,,confidence_buffer,696121,confidence_buffer,,null,,,,,,,,
12339.800000000745,,pt2_unique_rating,708462,Driftwood Bay,,51,,,3,,,,,
null,,confidence_buffer,708565,confidence_buffer,,null,,,,,,,,
4415.60000000149,,pt2_memorable_rating,712982,Driftwood Bay,,50,,,2,,,,,
null,,confidence_buffer,713084,confidence_buffer,,null,,,,,,,,
2462.5,,recognition_phase,715548,Driftwood Bay,,52,,,,,,new,0,0.38235294117647056
null,,confidence_buffer,715650,confidence_buffer,,null,,,,,,,,
null,,thebreak,716152,break,,null,,,,,,,,
1961.199999999255,,realistic_rating,718115,Coralridge,,50,Coralridge,Fictional,2,,,,,
null,,confidence_buffer,718217,confidence_buffer,,null,,,,,,,,
1909.699999999255,,pt2_unique_rating,720129,Coralridge,,51,,,3,,,,,
null,,confidence_buffer,720232,confidence_buffer,,null,,,,,,,,
574.5,,pt2_memorable_rating,720808,Coralridge,,51,,,3,,,,,
null,,confidence_buffer,720910,confidence_buffer,,null,,,,,,,,
2043.3999999985099,,probe_rating,722955,probe_rating,,50,,,,2,1,,,
null,,confidence_buffer,723065,confidence_buffer,,null,,,,,,,,
1234.0999999977648,,recognition_phase,724301,Coralridge,,51,,,,,,new,1,0.4
null,,confidence_buffer,724403,confidence_buffer,,null,,,,,,,,
null,,thebreak,724905,break,,null,,,,,,,,
3065.89999999851,,realistic_rating,727972,Summershade,,50,Summershade,Fictional,2,,,,,
null,,confidence_buffer,728075,confidence_buffer,,null,,,,,,,,
441.20000000298023,,pt2_unique_rating,728518,Summershade,,51,,,3,,,,,
null,,confidence_buffer,728621,confidence_buffer,,null,,,,,,,,
1512.800000000745,,pt2_memorable_rating,730135,Summershade,,51,,,3,,,,,
null,,confidence_buffer,730238,confidence_buffer,,null,,,,,,,,
5174.300000000745,,recognition_phase,735414,Summershade,,52,,,,,,new,0,0.3888888888888889
null,,confidence_buffer,735517,confidence_buffer,,null,,,,,,,,
null,,thebreak,736019,break,,null,,,,,,,,
6175.5,,realistic_rating,742197,West Talora,,50,West Talora,Fictional,2,,,,,
null,,confidence_buffer,742301,confidence_buffer,,null,,,,,,,,
293.69999999925494,,pt2_unique_rating,742596,West Talora,,51,,,3,,,,,
null,,confidence_buffer,742698,confidence_buffer,,null,,,,,,,,
1240,,probe_rating,743940,probe_rating,,50,,,,2,1,,,
null,,confidence_buffer,744043,confidence_buffer,,null,,,,,,,,
1254.7000000029802,,pt2_memorable_rating,745300,West Talora,,51,,,3,,,,,
null,,confidence_buffer,745402,confidence_buffer,,null,,,,,,,,
19618.400000002235,,recognition_phase,765022,West Talora,,50,,,,,,old,0,0.3783783783783784
null,,confidence_buffer,765124,confidence_buffer,,null,,,,,,,,
null,,thebreak,765626,break,,null,,,,,,,,
2117.599999997765,,realistic_rating,767746,Cleveland,,51,Cleveland,US,3,,,,,
null,,confidence_buffer,767854,confidence_buffer,,null,,,,,,,,
1409.0999999977648,,pt2_unique_rating,769265,Cleveland,,52,,,4,,,,,
null,,confidence_buffer,769367,confidence_buffer,,null,,,,,,,,
297.8999999985099,,pt2_memorable_rating,769665,Cleveland,,51,,,3,,,,,
null,,confidence_buffer,769768,confidence_buffer,,null,,,,,,,,
7207.39999999851,,recognition_phase,776977,Cleveland,,51,,,,,,new,1,0.39473684210526316
null,,confidence_buffer,777079,confidence_buffer,,null,,,,,,,,
null,,thebreak,777581,break,,null,,,,,,,,
10235.199999999255,,realistic_rating,787818,Bar Harbor,,51,Bar Harbor,US,3,,,,,
null,,confidence_buffer,787921,confidence_buffer,,null,,,,,,,,
4366.5,,pt2_unique_rating,792289,Bar Harbor,,50,,,2,,,,,
null,,confidence_buffer,792391,confidence_buffer,,null,,,,,,,,
2787.099999997765,,pt2_memorable_rating,795180,Bar Harbor,,51,,,3,,,,,
null,,confidence_buffer,795282,confidence_buffer,,null,,,,,,,,
5087.70000000298,,recognition_phase,800371,Bar Harbor,,49,,,,,,old,1,0.41025641025641024
null,,confidence_buffer,800473,confidence_buffer,,null,,,,,,,,
null,,thebreak,800975,break,,null,,,,,,,,
33398.099999997765,,realistic_rating,834375,Hot Springs,,51,Hot Springs,US,3,,,,,
null,,confidence_buffer,834492,confidence_buffer,,null,,,,,,,,
1301.9000000022352,,pt2_unique_rating,835795,Hot Springs,,50,,,2,,,,,
null,,confidence_buffer,835897,confidence_buffer,,null,,,,,,,,
4202,,pt2_memorable_rating,840101,Hot Springs,,51,,,3,,,,,
null,,confidence_buffer,840203,confidence_buffer,,null,,,,,,,,
5788.89999999851,,recognition_phase,845994,Hot Springs,,51,,,,,,new,0,0.4
null,,confidence_buffer,846097,confidence_buffer,,null,,,,,,,,
null,,thebreak,846599,break,,null,,,,,,,,
15742.099999997765,,realistic_rating,862343,Abilene,,51,Abilene,US,3,,,,,
null,,confidence_buffer,862446,confidence_buffer,,null,,,,,,,,
896.6999999992549,,pt2_unique_rating,863345,Abilene,,50,,,2,,,,,
null,,confidence_buffer,863447,confidence_buffer,,null,,,,,,,,
1137.5999999977648,,pt2_memorable_rating,864587,Abilene,,51,,,3,,,,,
null,,confidence_buffer,864689,confidence_buffer,,null,,,,,,,,
5104.099999997765,,recognition_phase,869795,Abilene,,50,,,,,,old,0,0.3902439024390244
null,,confidence_buffer,869902,confidence_buffer,,null,,,,,,,,
null,,thebreak,870404,break,,null,,,,,,,,
1854.3999999985099,,realistic_rating,872260,Falconridge,,51,Falconridge,Fictional,3,,,,,
null,,confidence_buffer,872362,confidence_buffer,,null,,,,,,,,
4900.800000000745,,pt2_unique_rating,877264,Falconridge,,50,,,2,,,,,
null,,confidence_buffer,877366,confidence_buffer,,null,,,,,,,,
7056.60000000149,,pt2_memorable_rating,884424,Falconridge,,50,,,2,,,,,
null,,confidence_buffer,884527,confidence_buffer,,null,,,,,,,,
1753,,recognition_phase,886282,Falconridge,,50,,,,,,old,1,0.40476190476190477
null,,confidence_buffer,886385,confidence_buffer,,null,,,,,,,,
null,,thebreak,886886,break,,null,,,,,,,,
3329.5,,realistic_rating,890218,West Palm Beach,,51,West Palm Beach,US,3,,,,,
null,,confidence_buffer,890319,confidence_buffer,,null,,,,,,,,
12979,,pt2_unique_rating,903300,West Palm Beach,,51,,,3,,,,,
null,,confidence_buffer,903402,confidence_buffer,,null,,,,,,,,
3839.800000000745,,probe_rating,907243,probe_rating,,53,,,,5,1,,,
null,,confidence_buffer,907347,confidence_buffer,,null,,,,,,,,
4421.10000000149,,pt2_memorable_rating,911769,West Palm Beach,,53,,,5,,,,,
null,,confidence_buffer,911871,confidence_buffer,,null,,,,,,,,
3513.099999997765,,recognition_phase,915385,West Palm Beach,,50,,,,,,old,1,0.4186046511627907
null,,confidence_buffer,915486,confidence_buffer,,null,,,,,,,,
null,,thebreak,915988,break,,null,,,,,,,,
7505.10000000149,,realistic_rating,923496,Pine Hollow,,51,Pine Hollow,Fictional,3,,,,,
null,,confidence_buffer,923598,confidence_buffer,,null,,,,,,,,
22501.300000000745,,pt2_unique_rating,946101,Pine Hollow,,50,,,2,,,,,
null,,confidence_buffer,946203,confidence_buffer,,null,,,,,,,,
1239.300000000745,,probe_rating,947443,probe_rating,,49,,,,1,1,,,
null,,confidence_buffer,947546,confidence_buffer,,null,,,,,,,,
597.4000000022352,,pt2_memorable_rating,948146,Pine Hollow,,49,,,1,,,,,
null,,confidence_buffer,948248,confidence_buffer,,null,,,,,,,,
6378.099999997765,,recognition_phase,954628,Pine Hollow,,51,,,,,,new,0,0.4090909090909091
null,,confidence_buffer,954731,confidence_buffer,,null,,,,,,,,
null,,thebreak,955232,break,,null,,,,,,,,
15107,,realistic_rating,970341,Linden Trace,,51,Linden Trace,Fictional,3,,,,,
null,,confidence_buffer,970444,confidence_buffer,,null,,,,,,,,
1186,,pt2_unique_rating,971631,Linden Trace,,50,,,2,,,,,
null,,confidence_buffer,971734,confidence_buffer,,null,,,,,,,,
22044.400000002235,,pt2_memorable_rating,993780,Linden Trace,,51,,,3,,,,,
null,,confidence_buffer,993882,confidence_buffer,,null,,,,,,,,
7073.10000000149,,recognition_phase,1000958,Linden Trace,,49,,,,,,old,1,0.4222222222222222
null,,confidence_buffer,1001060,confidence_buffer,,null,,,,,,,,
null,,thebreak,1001562,break,,null,,,,,,,,
2016,,realistic_rating,1003579,Elmsbury,,51,Elmsbury,Fictional,3,,,,,
null,,confidence_buffer,1003682,confidence_buffer,,null,,,,,,,,
4497,,pt2_unique_rating,1008180,Elmsbury,,51,,,3,,,,,
null,,confidence_buffer,1008283,confidence_buffer,,null,,,,,,,,
2980.39999999851,,pt2_memorable_rating,1011265,Elmsbury,,52,,,4,,,,,
null,,confidence_buffer,1011367,confidence_buffer,,null,,,,,,,,
5628.800000000745,,recognition_phase,1016997,Elmsbury,,51,,,,,,new,1,0.43478260869565216
null,,confidence_buffer,1017100,confidence_buffer,,null,,,,,,,,
null,,thebreak,1017603,break,,null,,,,,,,,
1030,,realistic_rating,1018634,Westridge,,50,Westridge,Fictional,2,,,,,
null,,confidence_buffer,1018747,confidence_buffer,,null,,,,,,,,
2375.400000002235,,pt2_unique_rating,1021123,Westridge,,51,,,3,,,,,
null,,confidence_buffer,1021225,confidence_buffer,,null,,,,,,,,
1003.2000000029802,,pt2_memorable_rating,1022230,Westridge,,51,,,3,,,,,
null,,confidence_buffer,1022332,confidence_buffer,,null,,,,,,,,
652.2999999970198,,recognition_phase,1022986,Westridge,,51,,,,,,new,0,0.425531914893617
null,,confidence_buffer,1023089,confidence_buffer,,null,,,,,,,,
null,,thebreak,1023591,break,,null,,,,,,,,
947.3000000007451,,realistic_rating,1024539,Millstone,,50,Millstone,Fictional,2,,,,,
null,,confidence_buffer,1024642,confidence_buffer,,null,,,,,,,,
357.3999999985099,,pt2_unique_rating,1025000,Millstone,,51,,,3,,,,,
null,,confidence_buffer,1025102,confidence_buffer,,null,,,,,,,,
421.5,,probe_rating,1025525,probe_rating,,50,,,,2,0,,,
