rt,responses,trial_type,time_elapsed,stimulus,button_pressed,key_press,name_trial,rating,probe,probe_accuracy,response,correct,accuracy,problems,smooth,distraction,strategies,familiar,memorable,unique,realistic,similar,comments
3604.3000000044703,{worker_id:6705f9372b81e6f4e1e195df},id_enter,3606,,,,,,,,,,,,,,,,,,,,
10269.29999999702,,fullscreen,13878,fullscreen,0,,,,,,,,,,,,,,,,,,
4801.10000000149,,intro_0,18680,instruct,,32,,,,,,,,,,,,,,,,,
6848.80000000447,,intro_1,25530,instruct,,32,,,,,,,,,,,,,,,,,
5580.5,,intro_2,31112,instruct,,32,,,,,,,,,,,,,,,,,
null,,instruct_dir_4,32614,instruct,,null,,,,,,,,,,,,,,,,,
null,,thebreak,33116,break,,null,,,,,,,,,,,,,,,,,
8482.89999999851,,familiar_rating,41604,Helena,,50,Helena,2,,,,,,,,,,,,,,,
null,,confidence_buffer,41706,confidence_buffer,,null,,,,,,,,,,,,,,,,,
8399.10000000149,,unique_rating,50107,Helena,,51,,3,,,,,,,,,,,,,,,
null,,confidence_buffer,50209,confidence_buffer,,null,,,,,,,,,,,,,,,,,
4215.60000000149,,memorable_rating,54426,Helena,,51,,3,,,,,,,,,,,,,,,
null,,confidence_buffer,54527,confidence_buffer,,null,,,,,,,,,,,,,,,,,
null,,thebreak,55028,break,,null,,,,,,,,,,,,,,,,,
2799.9000000059605,,familiar_rating,57829,Altoona,,49,Altoona,1,,,,,,,,,,,,,,,
null,,confidence_buffer,57931,confidence_buffer,,null,,,,,,,,,,,,,,,,,
2784,,unique_rating,60716,Altoona,,53,,5,,,,,,,,,,,,,,,
null,,confidence_buffer,60818,confidence_buffer,,null,,,,,,,,,,,,,,,,,
6170.20000000298,,memorable_rating,66989,Altoona,,53,,5,,,,,,,,,,,,,,,
null,,confidence_buffer,67090,confidence_buffer,,null,,,,,,,,,,,,,,,,,
null,,thebreak,67592,break,,null,,,,,,,,,,,,,,,,,
3667.7000000029802,,familiar_rating,71260,Fort Wayne,,53,Fort Wayne,5,,,,,,,,,,,,,,,
null,,confidence_buffer,71362,confidence_buffer,,null,,,,,,,,,,,,,,,,,
3400.3000000044703,,unique_rating,74764,Fort Wayne,,49,,1,,,,,,,,,,,,,,,
null,,confidence_buffer,74866,confidence_buffer,,null,,,,,,,,,,,,,,,,,
5393,,memorable_rating,80260,Fort Wayne,,51,,3,,,,,,,,,,,,,,,
null,,confidence_buffer,80361,confidence_buffer,,null,,,,,,,,,,,,,,,,,
null,,thebreak,80864,break,,null,,,,,,,,,,,,,,,,,
3587.7000000029802,,familiar_rating,84453,Carson City,,51,Carson City,3,,,,,,,,,,,,,,,
null,,confidence_buffer,84554,confidence_buffer,,null,,,,,,,,,,,,,,,,,
4722.5,,unique_rating,89278,Carson City,,50,,2,,,,,,,,,,,,,,,
null,,confidence_buffer,89379,confidence_buffer,,null,,,,,,,,,,,,,,,,,
5078.20000000298,,probe_rating,94461,probe_rating,,53,,,5,1,,,,,,,,,,,,,
null,,confidence_buffer,94562,confidence_buffer,,null,,,,,,,,,,,,,,,,,
8970.59999999404,,memorable_rating,103534,Carson City,,51,,3,,,,,,,,,,,,,,,
null,,confidence_buffer,103636,confidence_buffer,,null,,,,,,,,,,,,,,,,,
null,,thebreak,104137,break,,null,,,,,,,,,,,,,,,,,
6641.39999999851,,familiar_rating,110779,Terre Haute,,50,Terre Haute,2,,,,,,,,,,,,,,,
null,,confidence_buffer,110880,confidence_buffer,,null,,,,,,,,,,,,,,,,,
3500,,probe_rating,114382,probe_rating,,51,,,3,1,,,,,,,,,,,,,
null,,confidence_buffer,114483,confidence_buffer,,null,,,,,,,,,,,,,,,,,
3350.2000000029802,,unique_rating,117834,Terre Haute,,53,,5,,,,,,,,,,,,,,,
null,,confidence_buffer,117936,confidence_buffer,,null,,,,,,,,,,,,,,,,,
2429.1999999955297,,memorable_rating,120367,Terre Haute,,53,,5,,,,,,,,,,,,,,,
null,,confidence_buffer,120469,confidence_buffer,,null,,,,,,,,,,,,,,,,,
null,,thebreak,120969,break,,null,,,,,,,,,,,,,,,,,
2861.2000000029802,,familiar_rating,123832,Reno,,53,Reno,5,,,,,,,,,,,,,,,
null,,confidence_buffer,123934,confidence_buffer,,null,,,,,,,,,,,,,,,,,
8366.20000000298,,unique_rating,132301,Reno,,51,,3,,,,,,,,,,,,,,,
null,,confidence_buffer,132402,confidence_buffer,,null,,,,,,,,,,,,,,,,,
3626.9000000059605,,memorable_rating,136030,Reno,,53,,5,,,,,,,,,,,,,,,
null,,confidence_buffer,136130,confidence_buffer,,null,,,,,,,,,,,,,,,,,
null,,thebreak,136631,break,,null,,,,,,,,,,,,,,,,,
4261.10000000149,,familiar_rating,140893,Youngstown,,49,Youngstown,1,,,,,,,,,,,,,,,
null,,confidence_buffer,140995,confidence_buffer,,null,,,,,,,,,,,,,,,,,
5403.79999999702,,unique_rating,146400,Youngstown,,51,,3,,,,,,,,,,,,,,,
null,,confidence_buffer,146501,confidence_buffer,,null,,,,,,,,,,,,,,,,,
2999.2000000029802,,memorable_rating,149501,Youngstown,,50,,2,,,,,,,,,,,,,,,
null,,confidence_buffer,149603,confidence_buffer,,null,,,,,,,,,,,,,,,,,
null,,thebreak,150105,break,,null,,,,,,,,,,,,,,,,,
2781.0999999940395,,familiar_rating,152887,Santa Monica,,53,Santa Monica,5,,,,,,,,,,,,,,,
null,,confidence_buffer,152989,confidence_buffer,,null,,,,,,,,,,,,,,,,,
6576.70000000298,,unique_rating,159570,Santa Monica,,51,,3,,,,,,,,,,,,,,,
null,,confidence_buffer,159672,confidence_buffer,,null,,,,,,,,,,,,,,,,,
5302.899999991059,,memorable_rating,164975,Santa Monica,,52,,4,,,,,,,,,,,,,,,
null,,confidence_buffer,165077,confidence_buffer,,null,,,,,,,,,,,,,,,,,
1386,,probe_rating,166464,probe_rating,,49,,,1,1,,,,,,,,,,,,,
null,,confidence_buffer,166565,confidence_buffer,,null,,,,,,,,,,,,,,,,,
null,,thebreak,167066,break,,null,,,,,,,,,,,,,,,,,
2166.1000000089407,,familiar_rating,169233,Rock Springs,,49,Rock Springs,1,,,,,,,,,,,,,,,
null,,confidence_buffer,169335,confidence_buffer,,null,,,,,,,,,,,,,,,,,
2456.9000000059605,,unique_rating,171793,Rock Springs,,50,,2,,,,,,,,,,,,,,,
null,,confidence_buffer,171895,confidence_buffer,,null,,,,,,,,,,,,,,,,,
3864.7999999970198,,memorable_rating,175761,Rock Springs,,51,,3,,,,,,,,,,,,,,,
null,,confidence_buffer,175862,confidence_buffer,,null,,,,,,,,,,,,,,,,,
null,,thebreak,176363,break,,null,,,,,,,,,,,,,,,,,
2683.8999999910593,,familiar_rating,179048,Fort Collins,,49,Fort Collins,1,,,,,,,,,,,,,,,
null,,confidence_buffer,179150,confidence_buffer,,null,,,,,,,,,,,,,,,,,
4963.79999999702,,unique_rating,184115,Fort Collins,,49,,1,,,,,,,,,,,,,,,
null,,confidence_buffer,184216,confidence_buffer,,null,,,,,,,,,,,,,,,,,
3134.9000000059605,,memorable_rating,187352,Fort Collins,,50,,2,,,,,,,,,,,,,,,
null,,confidence_buffer,187454,confidence_buffer,,null,,,,,,,,,,,,,,,,,
null,,thebreak,187956,break,,null,,,,,,,,,,,,,,,,,
1779.2999999970198,,familiar_rating,189736,Cambridge,,53,Cambridge,5,,,,,,,,,,,,,,,
null,,confidence_buffer,189838,confidence_buffer,,null,,,,,,,,,,,,,,,,,
3993.1000000089407,,unique_rating,193832,Cambridge,,50,,2,,,,,,,,,,,,,,,
null,,confidence_buffer,193934,confidence_buffer,,null,,,,,,,,,,,,,,,,,
2488.0999999940395,,memorable_rating,196423,Cambridge,,53,,5,,,,,,,,,,,,,,,
null,,confidence_buffer,196524,confidence_buffer,,null,,,,,,,,,,,,,,,,,
null,,thebreak,197025,break,,null,,,,,,,,,,,,,,,,,
6758.20000000298,,familiar_rating,203784,Pueblo,,50,Pueblo,2,,,,,,,,,,,,,,,
null,,confidence_buffer,203887,confidence_buffer,,null,,,,,,,,,,,,,,,,,
3440.0999999940395,,unique_rating,207327,Pueblo,,50,,2,,,,,,,,,,,,,,,
null,,confidence_buffer,207428,confidence_buffer,,null,,,,,,,,,,,,,,,,,
2062.5,,memorable_rating,209491,Pueblo,,51,,3,,,,,,,,,,,,,,,
null,,confidence_buffer,209593,confidence_buffer,,null,,,,,,,,,,,,,,,,,
null,,thebreak,210094,break,,null,,,,,,,,,,,,,,,,,
6073.899999991059,,familiar_rating,216172,Dubuque,,49,Dubuque,1,,,,,,,,,,,,,,,
null,,confidence_buffer,216274,confidence_buffer,,null,,,,,,,,,,,,,,,,,
2744.699999988079,,unique_rating,219019,Dubuque,,53,,5,,,,,,,,,,,,,,,
null,,confidence_buffer,219120,confidence_buffer,,null,,,,,,,,,,,,,,,,,
3539.699999988079,,memorable_rating,222661,Dubuque,,51,,3,,,,,,,,,,,,,,,
null,,confidence_buffer,222763,confidence_buffer,,null,,,,,,,,,,,,,,,,,
null,,thebreak,223265,break,,null,,,,,,,,,,,,,,,,,
2217.7000000029802,,familiar_rating,225484,Frankfort,,53,Frankfort,5,,,,,,,,,,,,,,,
null,,confidence_buffer,225585,confidence_buffer,,null,,,,,,,,,,,,,,,,,
1831.2999999970198,,unique_rating,227417,Frankfort,,49,,1,,,,,,,,,,,,,,,
null,,confidence_buffer,227519,confidence_buffer,,null,,,,,,,,,,,,,,,,,
3067.699999988079,,memorable_rating,230588,Frankfort,,51,,3,,,,,,,,,,,,,,,
null,,confidence_buffer,230689,confidence_buffer,,null,,,,,,,,,,,,,,,,,
null,,thebreak,231191,break,,null,,,,,,,,,,,,,,,,,
4005.8999999910593,,familiar_rating,235198,Las Cruces,,50,Las Cruces,2,,,,,,,,,,,,,,,
null,,confidence_buffer,235300,confidence_buffer,,null,,,,,,,,,,,,,,,,,
1926.2000000029802,,unique_rating,237227,Las Cruces,,51,,3,,,,,,,,,,,,,,,
null,,confidence_buffer,237329,confidence_buffer,,null,,,,,,,,,,,,,,,,,
2795.3999999910593,,memorable_rating,240125,Las Cruces,,51,,3,,,,,,,,,,,,,,,
null,,confidence_buffer,240227,confidence_buffer,,null,,,,,,,,,,,,,,,,,
null,,thebreak,240729,break,,null,,,,,,,,,,,,,,,,,
4929.9000000059605,,familiar_rating,245660,Hagerstown,,49,Hagerstown,1,,,,,,,,,,,,,,,
null,,confidence_buffer,245762,confidence_buffer,,null,,,,,,,,,,,,,,,,,
3071.7000000029802,,unique_rating,248835,Hagerstown,,53,,5,,,,,,,,,,,,,,,
null,,confidence_buffer,248937,confidence_buffer,,null,,,,,,,,,,,,,,,,,
1379.7000000029802,,memorable_rating,250318,Hagerstown,,50,,2,,,,,,,,,,,,,,,
null,,confidence_buffer,250420,confidence_buffer,,null,,,,,,,,,,,,,,,,,
null,,thebreak,250920,break,,null,,,,,,,,,,,,,,,,,
2459.2999999970198,,familiar_rating,253380,Athens,,53,Athens,5,,,,,,,,,,,,,,,
null,,confidence_buffer,253482,confidence_buffer,,null,,,,,,,,,,,,,,,,,
3048.2999999970198,,unique_rating,256531,Athens,,49,,1,,,,,,,,,,,,,,,
null,,confidence_buffer,256634,confidence_buffer,,null,,,,,,,,,,,,,,,,,
1775.7000000029802,,memorable_rating,258410,Athens,,51,,3,,,,,,,,,,,,,,,
null,,confidence_buffer,258511,confidence_buffer,,null,,,,,,,,,,,,,,,,,
1155.6000000089407,,probe_rating,259668,probe_rating,,49,,,1,1,,,,,,,,,,,,,
null,,confidence_buffer,259771,confidence_buffer,,null,,,,,,,,,,,,,,,,,
null,,thebreak,260273,break,,null,,,,,,,,,,,,,,,,,
2801.5,,familiar_rating,263075,Marquette,,49,Marquette,1,,,,,,,,,,,,,,,
null,,confidence_buffer,263177,confidence_buffer,,null,,,,,,,,,,,,,,,,,
1618.5,,probe_rating,264796,probe_rating,,52,,,4,1,,,,,,,,,,,,,
null,,confidence_buffer,264897,confidence_buffer,,null,,,,,,,,,,,,,,,,,
2569.0999999940395,,unique_rating,267468,Marquette,,52,,4,,,,,,,,,,,,,,,
null,,confidence_buffer,267569,confidence_buffer,,null,,,,,,,,,,,,,,,,,
2908.5999999940395,,memorable_rating,270478,Marquette,,51,,3,,,,,,,,,,,,,,,
null,,confidence_buffer,270579,confidence_buffer,,null,,,,,,,,,,,,,,,,,
null,,thebreak,271081,break,,null,,,,,,,,,,,,,,,,,
2181.5,,familiar_rating,273263,Gainesville,,53,Gainesville,5,,,,,,,,,,,,,,,
null,,confidence_buffer,273365,confidence_buffer,,null,,,,,,,,,,,,,,,,,
2316.699999988079,,unique_rating,275683,Gainesville,,50,,2,,,,,,,,,,,,,,,
null,,confidence_buffer,275785,confidence_buffer,,null,,,,,,,,,,,,,,,,,
1688.5999999940395,,memorable_rating,277478,Gainesville,,50,,2,,,,,,,,,,,,,,,
null,,confidence_buffer,277579,confidence_buffer,,null,,,,,,,,,,,,,,,,,
null,,thebreak,278080,break,,null,,,,,,,,,,,,,,,,,
3765.7999999970198,,familiar_rating,281847,Pasadena,,53,Pasadena,5,,,,,,,,,,,,,,,
null,,confidence_buffer,281948,confidence_buffer,,null,,,,,,,,,,,,,,,,,
3186.3999999910593,,unique_rating,285136,Pasadena,,51,,3,,,,,,,,,,,,,,,
null,,confidence_buffer,285238,confidence_buffer,,null,,,,,,,,,,,,,,,,,
2959.699999988079,,memorable_rating,288198,Pasadena,,52,,4,,,,,,,,,,,,,,,
null,,confidence_buffer,288300,confidence_buffer,,null,,,,,,,,,,,,,,,,,
null,,thebreak,288802,break,,null,,,,,,,,,,,,,,,,,
1474.8999999910593,,familiar_rating,290278,Boulder,,53,Boulder,5,,,,,,,,,,,,,,,
null,,confidence_buffer,290380,confidence_buffer,,null,,,,,,,,,,,,,,,,,
4017,,unique_rating,294398,Boulder,,49,,1,,,,,,,,,,,,,,,
null,,confidence_buffer,294500,confidence_buffer,,null,,,,,,,,,,,,,,,,,
1800.9000000059605,,memorable_rating,296302,Boulder,,51,,3,,,,,,,,,,,,,,,
null,,confidence_buffer,296404,confidence_buffer,,null,,,,,,,,,,,,,,,,,
null,,thebreak,296905,break,,null,,,,,,,,,,,,,,,,,
9549.39999999106,,familiar_rating,306455,New Haven,,50,New Haven,2,,,,,,,,,,,,,,,
null,,confidence_buffer,306556,confidence_buffer,,null,,,,,,,,,,,,,,,,,
2090.7999999970198,,unique_rating,308648,New Haven,,49,,1,,,,,,,,,,,,,,,
null,,confidence_buffer,308749,confidence_buffer,,null,,,,,,,,,,,,,,,,,
1991.5,,memorable_rating,310742,New Haven,,50,,2,,,,,,,,,,,,,,,
null,,confidence_buffer,310844,confidence_buffer,,null,,,,,,,,,,,,,,,,,
null,,thebreak,311345,break,,null,,,,,,,,,,,,,,,,,
1333.199999988079,,familiar_rating,312680,Tallahassee,,53,Tallahassee,5,,,,,,,,,,,,,,,
null,,confidence_buffer,312782,confidence_buffer,,null,,,,,,,,,,,,,,,,,
3463,,unique_rating,316246,Tallahassee,,52,,4,,,,,,,,,,,,,,,
null,,confidence_buffer,316348,confidence_buffer,,null,,,,,,,,,,,,,,,,,
1537.2999999970198,,memorable_rating,317886,Tallahassee,,52,,4,,,,,,,,,,,,,,,
null,,confidence_buffer,317988,confidence_buffer,,null,,,,,,,,,,,,,,,,,
null,,thebreak,318489,break,,null,,,,,,,,,,,,,,,,,
2279.5999999940395,,familiar_rating,320770,Champaign,,49,Champaign,1,,,,,,,,,,,,,,,
null,,confidence_buffer,320872,confidence_buffer,,null,,,,,,,,,,,,,,,,,
2366,,unique_rating,323239,Champaign,,50,,2,,,,,,,,,,,,,,,
null,,confidence_buffer,323341,confidence_buffer,,null,,,,,,,,,,,,,,,,,
1724.0999999940395,,memorable_rating,325066,Champaign,,50,,2,,,,,,,,,,,,,,,
null,,confidence_buffer,325168,confidence_buffer,,null,,,,,,,,,,,,,,,,,
null,,thebreak,325669,break,,null,,,,,,,,,,,,,,,,,
1640.4000000059605,,familiar_rating,327311,Toledo,,53,Toledo,5,,,,,,,,,,,,,,,
null,,confidence_buffer,327412,confidence_buffer,,null,,,,,,,,,,,,,,,,,
2202.4000000059605,,unique_rating,329615,Toledo,,50,,2,,,,,,,,,,,,,,,
null,,confidence_buffer,329717,confidence_buffer,,null,,,,,,,,,,,,,,,,,
3832.1000000089407,,memorable_rating,333550,Toledo,,51,,3,,,,,,,,,,,,,,,
null,,confidence_buffer,333652,confidence_buffer,,null,,,,,,,,,,,,,,,,,
null,,thebreak,334154,break,,null,,,,,,,,,,,,,,,,,
3284.5,,intro_0,337442,instruct,,32,,,,,,,,,,,,,,,,,
8622.79999999702,,intro_1,346065,instruct,,32,,,,,,,,,,,,,,,,,
14296.90000000596,,intro_2,360363,instruct,,32,,,,,,,,,,,,,,,,,
null,,instruct_dir_4,361864,instruct,,null,,,,,,,,,,,,,,,,,
5919.29999999702,,realistic_rating,367785,Carson City,,53,Carson City,5,,,,,,,,,,,,,,,
null,,confidence_buffer,367887,confidence_buffer,,null,,,,,,,,,,,,,,,,,
6789,,pt2_unique_rating,374677,Carson City,,50,,2,,,,,,,,,,,,,,,
null,,confidence_buffer,374779,confidence_buffer,,null,,,,,,,,,,,,,,,,,
3159.2999999970198,,pt2_memorable_rating,377940,Carson City,,51,,3,,,,,,,,,,,,,,,
null,,confidence_buffer,378042,confidence_buffer,,null,,,,,,,,,,,,,,,,,
2279.2999999970198,,recognition_phase,380322,Carson City,,49,,,,,old,1,1,,,,,,,,,,
null,,confidence_buffer,380424,confidence_buffer,,null,,,,,,,,,,,,,,,,,
null,,thebreak,380925,break,,null,,,,,,,,,,,,,,,,,
5645.29999999702,,realistic_rating,386571,Peoria,,50,Peoria,2,,,,,,,,,,,,,,,
null,,confidence_buffer,386672,confidence_buffer,,null,,,,,,,,,,,,,,,,,
1903.2000000029802,,pt2_unique_rating,388577,Peoria,,53,,5,,,,,,,,,,,,,,,
null,,confidence_buffer,388679,confidence_buffer,,null,,,,,,,,,,,,,,,,,
3928.2999999970198,,pt2_memorable_rating,392608,Peoria,,51,,3,,,,,,,,,,,,,,,
null,,confidence_buffer,392709,confidence_buffer,,null,,,,,,,,,,,,,,,,,
2050.2999999970198,,recognition_phase,394761,Peoria,,52,,,,,new,1,1,,,,,,,,,,
null,,confidence_buffer,394863,confidence_buffer,,null,,,,,,,,,,,,,,,,,
null,,thebreak,395364,break,,null,,,,,,,,,,,,,,,,,
4365.399999991059,,realistic_rating,399733,Hagerstown,,51,Hagerstown,3,,,,,,,,,,,,,,,
null,,confidence_buffer,399835,confidence_buffer,,null,,,,,,,,,,,,,,,,,
6898.29999999702,,pt2_unique_rating,406735,Hagerstown,,52,,4,,,,,,,,,,,,,,,
null,,confidence_buffer,406836,confidence_buffer,,null,,,,,,,,,,,,,,,,,
7016.5,,pt2_memorable_rating,413854,Hagerstown,,51,,3,,,,,,,,,,,,,,,
null,,confidence_buffer,413955,confidence_buffer,,null,,,,,,,,,,,,,,,,,
5567.20000000298,,probe_rating,419524,probe_rating,,51,,,3,1,,,,,,,,,,,,,
null,,confidence_buffer,419625,confidence_buffer,,null,,,,,,,,,,,,,,,,,
1219.9000000059605,,recognition_phase,420847,Hagerstown,,49,,,,,old,1,1,,,,,,,,,,
null,,confidence_buffer,420948,confidence_buffer,,null,,,,,,,,,,,,,,,,,
null,,thebreak,421454,break,,null,,,,,,,,,,,,,,,,,
3876.2000000029802,,realistic_rating,425332,Dothan,,49,Dothan,1,,,,,,,,,,,,,,,
null,,confidence_buffer,425434,confidence_buffer,,null,,,,,,,,,,,,,,,,,
3641.4000000059605,,pt2_unique_rating,429076,Dothan,,52,,4,,,,,,,,,,,,,,,
null,,confidence_buffer,429177,confidence_buffer,,null,,,,,,,,,,,,,,,,,
3688.9000000059605,,pt2_memorable_rating,432868,Dothan,,52,,4,,,,,,,,,,,,,,,
null,,confidence_buffer,432969,confidence_buffer,,null,,,,,,,,,,,,,,,,,
2089.1000000089407,,recognition_phase,435060,Dothan,,52,,,,,new,1,1,,,,,,,,,,
null,,confidence_buffer,435161,confidence_buffer,,null,,,,,,,,,,,,,,,,,
null,,thebreak,435663,break,,null,,,,,,,,,,,,,,,,,
3668.199999988079,,realistic_rating,439332,Dover,,53,Dover,5,,,,,,,,,,,,,,,
null,,confidence_buffer,439434,confidence_buffer,,null,,,,,,,,,,,,,,,,,
2217.2999999970198,,probe_rating,441652,probe_rating,,51,,,3,1,,,,,,,,,,,,,
null,,confidence_buffer,441753,confidence_buffer,,null,,,,,,,,,,,,,,,,,
2716.8999999910593,,pt2_unique_rating,444471,Dover,,50,,2,,,,,,,,,,,,,,,
null,,confidence_buffer,444574,confidence_buffer,,null,,,,,,,,,,,,,,,,,
2645,,pt2_memorable_rating,447221,Dover,,51,,3,,,,,,,,,,,,,,,
null,,confidence_buffer,447323,confidence_buffer,,null,,,,,,,,,,,,,,,,,
1759.8999999910593,,recognition_phase,449084,Dover,,52,,,,,new,1,1,,,,,,,,,,
null,,confidence_buffer,449186,confidence_buffer,,null,,,,,,,,,,,,,,,,,
null,,thebreak,449687,break,,null,,,,,,,,,,,,,,,,,
2621.5,,realistic_rating,452310,Syracuse,,53,Syracuse,5,,,,,,,,,,,,,,,
null,,confidence_buffer,452413,confidence_buffer,,null,,,,,,,,,,,,,,,,,
2517.6000000089407,,pt2_unique_rating,454932,Syracuse,,51,,3,,,,,,,,,,,,,,,
null,,confidence_buffer,455033,confidence_buffer,,null,,,,,,,,,,,,,,,,,
2681.2000000029802,,pt2_memorable_rating,457718,Syracuse,,51,,3,,,,,,,,,,,,,,,
null,,confidence_buffer,457820,confidence_buffer,,null,,,,,,,,,,,,,,,,,
1811,,recognition_phase,459633,Syracuse,,52,,,,,new,1,1,,,,,,,,,,
null,,confidence_buffer,459734,confidence_buffer,,null,,,,,,,,,,,,,,,,,
null,,thebreak,460235,break,,null,,,,,,,,,,,,,,,,,
1906,,realistic_rating,462142,Ithaca,,53,Ithaca,5,,,,,,,,,,,,,,,
null,,confidence_buffer,462244,confidence_buffer,,null,,,,,,,,,,,,,,,,,
3401.3999999910593,,pt2_unique_rating,465647,Ithaca,,51,,3,,,,,,,,,,,,,,,
null,,confidence_buffer,465749,confidence_buffer,,null,,,,,,,,,,,,,,,,,
3963.2000000029802,,pt2_memorable_rating,469713,Ithaca,,52,,4,,,,,,,,,,,,,,,
null,,confidence_buffer,469815,confidence_buffer,,null,,,,,,,,,,,,,,,,,
2270.5,,recognition_phase,472087,Ithaca,,52,,,,,new,1,1,,,,,,,,,,
null,,confidence_buffer,472188,confidence_buffer,,null,,,,,,,,,,,,,,,,,
null,,thebreak,472689,break,,null,,,,,,,,,,,,,,,,,
2092.4000000059605,,realistic_rating,474782,Annapolis,,53,Annapolis,5,,,,,,,,,,,,,,,
null,,confidence_buffer,474884,confidence_buffer,,null,,,,,,,,,,,,,,,,,
5009.600000008941,,pt2_unique_rating,479895,Annapolis,,50,,2,,,,,,,,,,,,,,,
null,,confidence_buffer,479997,confidence_buffer,,null,,,,,,,,,,,,,,,,,
3361.4000000059605,,pt2_memorable_rating,483360,Annapolis,,51,,3,,,,,,,,,,,,,,,
null,,confidence_buffer,483461,confidence_buffer,,null,,,,,,,,,,,,,,,,,
1460.2000000029802,,probe_rating,484922,probe_rating,,49,,,1,1,,,,,,,,,,,,,
null,,confidence_buffer,485023,confidence_buffer,,null,,,,,,,,,,,,,,,,,
1311,,recognition_phase,486336,Annapolis,,52,,,,,new,1,1,,,,,,,,,,
null,,confidence_buffer,486438,confidence_buffer,,null,,,,,,,,,,,,,,,,,
null,,thebreak,486939,break,,null,,,,,,,,,,,,,,,,,
2996.7999999970198,,realistic_rating,489937,Newport News,,53,Newport News,5,,,,,,,,,,,,,,,
null,,confidence_buffer,490039,confidence_buffer,,null,,,,,,,,,,,,,,,,,
1458.5,,probe_rating,491498,probe_rating,,52,,,4,1,,,,,,,,,,,,,
null,,confidence_buffer,491600,confidence_buffer,,null,,,,,,,,,,,,,,,,,
1775.7000000029802,,pt2_unique_rating,493376,Newport News,,53,,5,,,,,,,,,,,,,,,
null,,confidence_buffer,493478,confidence_buffer,,null,,,,,,,,,,,,,,,,,
2206.5,,pt2_memorable_rating,495685,Newport News,,53,,5,,,,,,,,,,,,,,,
null,,confidence_buffer,495787,confidence_buffer,,null,,,,,,,,,,,,,,,,,
1884.2999999970198,,recognition_phase,497673,Newport News,,52,,,,,new,1,1,,,,,,,,,,
null,,confidence_buffer,497775,confidence_buffer,,null,,,,,,,,,,,,,,,,,
null,,thebreak,498276,break,,null,,,,,,,,,,,,,,,,,
6603.399999991059,,realistic_rating,504881,Terre Haute,,50,Terre Haute,2,,,,,,,,,,,,,,,
null,,confidence_buffer,504983,confidence_buffer,,null,,,,,,,,,,,,,,,,,
4760.4000000059605,,pt2_unique_rating,509744,Terre Haute,,53,,5,,,,,,,,,,,,,,,
null,,confidence_buffer,509846,confidence_buffer,,null,,,,,,,,,,,,,,,,,
3807,,pt2_memorable_rating,513654,Terre Haute,,52,,4,,,,,,,,,,,,,,,
null,,confidence_buffer,513756,confidence_buffer,,null,,,,,,,,,,,,,,,,,
1114.9000000059605,,recognition_phase,514872,Terre Haute,,49,,,,,old,1,1,,,,,,,,,,
null,,confidence_buffer,514975,confidence_buffer,,null,,,,,,,,,,,,,,,,,
null,,thebreak,515477,break,,null,,,,,,,,,,,,,,,,,
1449.3999999910593,,realistic_rating,516927,Topeka,,53,Topeka,5,,,,,,,,,,,,,,,
null,,confidence_buffer,517029,confidence_buffer,,null,,,,,,,,,,,,,,,,,
3249.2000000029802,,pt2_unique_rating,520281,Topeka,,51,,3,,,,,,,,,,,,,,,
null,,confidence_buffer,520383,confidence_buffer,,null,,,,,,,,,,,,,,,,,
1537.2999999970198,,pt2_memorable_rating,521921,Topeka,,51,,3,,,,,,,,,,,,,,,
null,,confidence_buffer,522022,confidence_buffer,,null,,,,,,,,,,,,,,,,,
1033.7999999970198,,probe_rating,523057,probe_rating,,52,,,4,1,,,,,,,,,,,,,
null,,confidence_buffer,523158,confidence_buffer,,null,,,,,,,,,,,,,,,,,
1939.2000000029802,,recognition_phase,525098,Topeka,,52,,,,,new,1,1,,,,,,,,,,
null,,confidence_buffer,525200,confidence_buffer,,null,,,,,,,,,,,,,,,,,
null,,thebreak,525701,break,,null,,,,,,,,,,,,,,,,,
9699.29999999702,,realistic_rating,535402,Marquette,,51,Marquette,3,,,,,,,,,,,,,,,
null,,confidence_buffer,535503,confidence_buffer,,null,,,,,,,,,,,,,,,,,
1081.1000000089407,,pt2_unique_rating,536585,Marquette,,52,,4,,,,,,,,,,,,,,,
null,,confidence_buffer,536687,confidence_buffer,,null,,,,,,,,,,,,,,,,,
2145.2000000029802,,probe_rating,538833,probe_rating,,51,,,3,1,,,,,,,,,,,,,
null,,confidence_buffer,538936,confidence_buffer,,null,,,,,,,,,,,,,,,,,
2916.5999999940395,,pt2_memorable_rating,541853,Marquette,,51,,3,,,,,,,,,,,,,,,
null,,confidence_buffer,541955,confidence_buffer,,null,,,,,,,,,,,,,,,,,
3741.2999999970198,,recognition_phase,545698,Marquette,,50,,,,,old,1,1,,,,,,,,,,
null,,confidence_buffer,545799,confidence_buffer,,null,,,,,,,,,,,,,,,,,
null,,thebreak,546300,break,,null,,,,,,,,,,,,,,,,,
2342.9000000059605,,realistic_rating,548644,Athens,,53,Athens,5,,,,,,,,,,,,,,,
null,,confidence_buffer,548747,confidence_buffer,,null,,,,,,,,,,,,,,,,,
3310.2999999970198,,pt2_unique_rating,552058,Athens,,50,,2,,,,,,,,,,,,,,,
null,,confidence_buffer,552160,confidence_buffer,,null,,,,,,,,,,,,,,,,,
4081.5999999940395,,pt2_memorable_rating,556243,Athens,,52,,4,,,,,,,,,,,,,,,
null,,confidence_buffer,556345,confidence_buffer,,null,,,,,,,,,,,,,,,,,
1307.2999999970198,,recognition_phase,557653,Athens,,49,,,,,old,1,1,,,,,,,,,,
null,,confidence_buffer,557755,confidence_buffer,,null,,,,,,,,,,,,,,,,,
null,,thebreak,558257,break,,null,,,,,,,,,,,,,,,,,
3471.2999999970198,,realistic_rating,561729,Gainesville,,53,Gainesville,5,,,,,,,,,,,,,,,
null,,confidence_buffer,561831,confidence_buffer,,null,,,,,,,,,,,,,,,,,
5537.4000000059605,,pt2_unique_rating,567370,Gainesville,,50,,2,,,,,,,,,,,,,,,
null,,confidence_buffer,567471,confidence_buffer,,null,,,,,,,,,,,,,,,,,
5137.5,,pt2_memorable_rating,572609,Gainesville,,51,,3,,,,,,,,,,,,,,,
null,,confidence_buffer,572711,confidence_buffer,,null,,,,,,,,,,,,,,,,,
1120.7999999970198,,recognition_phase,573833,Gainesville,,49,,,,,old,1,1,,,,,,,,,,
null,,confidence_buffer,573935,confidence_buffer,,null,,,,,,,,,,,,,,,,,
null,,thebreak,574436,break,,null,,,,,,,,,,,,,,,,,
21789,,realistic_rating,596229,Santa Monica,,53,Santa Monica,5,,,,,,,,,,,,,,,
null,,confidence_buffer,596331,confidence_buffer,,null,,,,,,,,,,,,,,,,,
9457.5,,pt2_unique_rating,605789,Santa Monica,,51,,3,,,,,,,,,,,,,,,
null,,confidence_buffer,605891,confidence_buffer,,null,,,,,,,,,,,,,,,,,
6944.4000000059605,,pt2_memorable_rating,612837,Santa Monica,,51,,3,,,,,,,,,,,,,,,
null,,confidence_buffer,612940,confidence_buffer,,null,,,,,,,,,,,,,,,,,
1177.1000000089407,,probe_rating,614118,probe_rating,,51,,,3,1,,,,,,,,,,,,,
null,,confidence_buffer,614220,confidence_buffer,,null,,,,,,,,,,,,,,,,,
7318.79999999702,,recognition_phase,621540,Santa Monica,,49,,,,,old,1,1,,,,,,,,,,
null,,confidence_buffer,621642,confidence_buffer,,null,,,,,,,,,,,,,,,,,
null,,thebreak,622144,break,,null,,,,,,,,,,,,,,,,,
4851.100000008941,,realistic_rating,626996,Tallahassee,,53,Tallahassee,5,,,,,,,,,,,,,,,
null,,confidence_buffer,627096,confidence_buffer,,null,,,,,,,,,,,,,,,,,
3275.7999999970198,,pt2_unique_rating,630373,Tallahassee,,52,,4,,,,,,,,,,,,,,,
null,,confidence_buffer,630475,confidence_buffer,,null,,,,,,,,,,,,,,,,,
2443.2000000029802,,pt2_memorable_rating,632919,Tallahassee,,52,,4,,,,,,,,,,,,,,,
null,,confidence_buffer,633020,confidence_buffer,,null,,,,,,,,,,,,,,,,,
960.2000000029802,,recognition_phase,633981,Tallahassee,,49,,,,,old,1,1,,,,,,,,,,
null,,confidence_buffer,634082,confidence_buffer,,null,,,,,,,,,,,,,,,,,
null,,thebreak,634583,break,,null,,,,,,,,,,,,,,,,,
3160.5,,realistic_rating,637745,Altoona,,49,Altoona,1,,,,,,,,,,,,,,,
null,,confidence_buffer,637846,confidence_buffer,,null,,,,,,,,,,,,,,,,,
1740.9000000059605,,pt2_unique_rating,639588,Altoona,,53,,5,,,,,,,,,,,,,,,
null,,confidence_buffer,639690,confidence_buffer,,null,,,,,,,,,,,,,,,,,
3360.699999988079,,pt2_memorable_rating,643052,Altoona,,52,,4,,,,,,,,,,,,,,,
null,,confidence_buffer,643153,confidence_buffer,,null,,,,,,,,,,,,,,,,,
1054,,recognition_phase,644208,Altoona,,49,,,,,old,1,1,,,,,,,,,,
null,,confidence_buffer,644310,confidence_buffer,,null,,,,,,,,,,,,,,,,,
null,,thebreak,644812,break,,null,,,,,,,,,,,,,,,,,
4121.20000000298,,realistic_rating,648937,Decatur,,53,Decatur,5,,,,,,,,,,,,,,,
null,,confidence_buffer,649039,confidence_buffer,,null,,,,,,,,,,,,,,,,,
3802.2999999970198,,pt2_unique_rating,652842,Decatur,,52,,4,,,,,,,,,,,,,,,
null,,confidence_buffer,652944,confidence_buffer,,null,,,,,,,,,,,,,,,,,
2797.9000000059605,,pt2_memorable_rating,655743,Decatur,,52,,4,,,,,,,,,,,,,,,
null,,confidence_buffer,655845,confidence_buffer,,null,,,,,,,,,,,,,,,,,
4393.70000000298,,recognition_phase,660240,Decatur,,52,,,,,new,1,1,,,,,,,,,,
null,,confidence_buffer,660342,confidence_buffer,,null,,,,,,,,,,,,,,,,,
null,,thebreak,660844,break,,null,,,,,,,,,,,,,,,,,
2042.1000000089407,,realistic_rating,662887,Scottsdale,,53,Scottsdale,5,,,,,,,,,,,,,,,
null,,confidence_buffer,662989,confidence_buffer,,null,,,,,,,,,,,,,,,,,
4972.5999999940395,,pt2_unique_rating,667963,Scottsdale,,49,,1,,,,,,,,,,,,,,,
null,,confidence_buffer,668065,confidence_buffer,,null,,,,,,,,,,,,,,,,,
1496.7000000029802,,pt2_memorable_rating,669563,Scottsdale,,50,,2,,,,,,,,,,,,,,,
null,,confidence_buffer,669665,confidence_buffer,,null,,,,,,,,,,,,,,,,,
2001.199999988079,,recognition_phase,671668,Scottsdale,,52,,,,,new,1,1,,,,,,,,,,
null,,confidence_buffer,671769,confidence_buffer,,null,,,,,,,,,,,,,,,,,
null,,thebreak,672270,break,,null,,,,,,,,,,,,,,,,,
1688.6000000089407,,realistic_rating,673960,Boulder,,53,Boulder,5,,,,,,,,,,,,,,,
null,,confidence_buffer,674063,confidence_buffer,,null,,,,,,,,,,,,,,,,,
3414.7999999970198,,pt2_unique_rating,677478,Boulder,,50,,2,,,,,,,,,,,,,,,
null,,confidence_buffer,677581,confidence_buffer,,null,,,,,,,,,,,,,,,,,
15193.5,,pt2_memorable_rating,692776,Boulder,,52,,4,,,,,,,,,,,,,,,
null,,confidence_buffer,692877,confidence_buffer,,null,,,,,,,,,,,,,,,,,
1884.8999999910593,,recognition_phase,694763,Boulder,,49,,,,,old,1,1,,,,,,,,,,
null,,confidence_buffer,694865,confidence_buffer,,null,,,,,,,,,,,,,,,,,
null,,thebreak,695366,break,,null,,,,,,,,,,,,,,,,,
2471.7999999970198,,realistic_rating,697839,Abilene,,53,Abilene,5,,,,,,,,,,,,,,,
null,,confidence_buffer,697942,confidence_buffer,,null,,,,,,,,,,,,,,,,,
2176.3999999910593,,pt2_unique_rating,700119,Abilene,,52,,4,,,,,,,,,,,,,,,
null,,confidence_buffer,700221,confidence_buffer,,null,,,,,,,,,,,,,,,,,
1097.0999999940395,,pt2_memorable_rating,701319,Abilene,,51,,3,,,,,,,,,,,,,,,
null,,confidence_buffer,701421,confidence_buffer,,null,,,,,,,,,,,,,,,,,
3194.7999999970198,,recognition_phase,704618,Abilene,,52,,,,,new,1,1,,,,,,,,,,
null,,confidence_buffer,704719,confidence_buffer,,null,,,,,,,,,,,,,,,,,
null,,thebreak,705221,break,,null,,,,,,,,,,,,,,,,,
11453.40000000596,,realistic_rating,716679,Reno,,53,Reno,5,,,,,,,,,,,,,,,
null,,confidence_buffer,716780,confidence_buffer,,null,,,,,,,,,,,,,,,,,
11213.29999999702,,pt2_unique_rating,727995,Reno,,51,,3,,,,,,,,,,,,,,,
null,,confidence_buffer,728096,confidence_buffer,,null,,,,,,,,,,,,,,,,,
10317.59999999404,,pt2_memorable_rating,738415,Reno,,52,,4,,,,,,,,,,,,,,,
null,,confidence_buffer,738517,confidence_buffer,,null,,,,,,,,,,,,,,,,,
1196.7000000029802,,recognition_phase,739715,Reno,,49,,,,,old,1,1,,,,,,,,,,
null,,confidence_buffer,739816,confidence_buffer,,null,,,,,,,,,,,,,,,,,
null,,thebreak,740317,break,,null,,,,,,,,,,,,,,,,,
3172.2000000029802,,realistic_rating,743491,Cheyenne,,53,Cheyenne,5,,,,,,,,,,,,,,,
null,,confidence_buffer,743592,confidence_buffer,,null,,,,,,,,,,,,,,,,,
1789.4000000059605,,pt2_unique_rating,745383,Cheyenne,,49,,1,,,,,,,,,,,,,,,
null,,confidence_buffer,745485,confidence_buffer,,null,,,,,,,,,,,,,,,,,
2445.3999999910593,,pt2_memorable_rating,747931,Cheyenne,,51,,3,,,,,,,,,,,,,,,
null,,confidence_buffer,748032,confidence_buffer,,null,,,,,,,,,,,,,,,,,
1281.2999999970198,,recognition_phase,749315,Cheyenne,,52,,,,,new,1,1,,,,,,,,,,
null,,confidence_buffer,749416,confidence_buffer,,null,,,,,,,,,,,,,,,,,
null,,thebreak,749918,break,,null,,,,,,,,,,,,,,,,,
2204,,realistic_rating,752124,Fort Collins,,53,Fort Collins,5,,,,,,,,,,,,,,,
null,,confidence_buffer,752226,confidence_buffer,,null,,,,,,,,,,,,,,,,,
2088.7000000029802,,pt2_unique_rating,754316,Fort Collins,,49,,1,,,,,,,,,,,,,,,
null,,confidence_buffer,754418,confidence_buffer,,null,,,,,,,,,,,,,,,,,
3223.6000000089407,,pt2_memorable_rating,757643,Fort Collins,,51,,3,,,,,,,,,,,,,,,
null,,confidence_buffer,757745,confidence_buffer,,null,,,,,,,,,,,,,,,,,
1256.5999999940395,,recognition_phase,759003,Fort Collins,,49,,,,,old,1,1,,,,,,,,,,
null,,confidence_buffer,759105,confidence_buffer,,null,,,,,,,,,,,,,,,,,
null,,thebreak,759606,break,,null,,,,,,,,,,,,,,,,,
2407.7999999970198,,realistic_rating,762015,Helena,,53,Helena,5,,,,,,,,,,,,,,,
null,,confidence_buffer,762116,confidence_buffer,,null,,,,,,,,,,,,,,,,,
3425.0999999940395,,pt2_unique_rating,765543,Helena,,50,,2,,,,,,,,,,,,,,,
null,,confidence_buffer,765645,confidence_buffer,,null,,,,,,,,,,,,,,,,,
2454.7000000029802,,pt2_memorable_rating,768101,Helena,,51,,3,,,,,,,,,,,,,,,
null,,confidence_buffer,768202,confidence_buffer,,null,,,,,,,,,,,,,,,,,
1434,,recognition_phase,769638,Helena,,49,,,,,old,1,1,,,,,,,,,,
null,,confidence_buffer,769739,confidence_buffer,,null,,,,,,,,,,,,,,,,,
null,,thebreak,770241,break,,null,,,,,,,,,,,,,,,,,
13913.40000000596,,realistic_rating,784158,Dubuque,,50,Dubuque,2,,,,,,,,,,,,,,,
null,,confidence_buffer,784261,confidence_buffer,,null,,,,,,,,,,,,,,,,,
1800,,pt2_unique_rating,786062,Dubuque,,53,,5,,,,,,,,,,,,,,,
null,,confidence_buffer,786163,confidence_buffer,,null,,,,,,,,,,,,,,,,,
2187.5999999940395,,pt2_memorable_rating,788352,Dubuque,,52,,4,,,,,,,,,,,,,,,
null,,confidence_buffer,788453,confidence_buffer,,null,,,,,,,,,,,,,,,,,
1360.2999999970198,,recognition_phase,789814,Dubuque,,52,,,,,new,0,0.9615384615384616,,,,,,,,,,
null,,confidence_buffer,789916,confidence_buffer,,null,,,,,,,,,,,,,,,,,
null,,thebreak,790417,break,,null,,,,,,,,,,,,,,,,,
4511.399999991059,,realistic_rating,794930,Yakima,,53,Yakima,5,,,,,,,,,,,,,,,
null,,confidence_buffer,795033,confidence_buffer,,null,,,,,,,,,,,,,,,,,
3300.5,,pt2_unique_rating,798334,Yakima,,52,,4,,,,,,,,,,,,,,,
null,,confidence_buffer,798435,confidence_buffer,,null,,,,,,,,,,,,,,,,,
2242.0999999940395,,pt2_memorable_rating,800678,Yakima,,51,,3,,,,,,,,,,,,,,,
null,,confidence_buffer,800780,confidence_buffer,,null,,,,,,,,,,,,,,,,,
2275.7999999970198,,recognition_phase,803057,Yakima,,52,,,,,new,1,0.9629629629629629,,,,,,,,,,
null,,confidence_buffer,803159,confidence_buffer,,null,,,,,,,,,,,,,,,,,
null,,thebreak,803660,break,,null,,,,,,,,,,,,,,,,,
4978.0999999940395,,realistic_rating,808639,Bozeman,,51,Bozeman,3,,,,,,,,,,,,,,,
null,,confidence_buffer,808741,confidence_buffer,,null,,,,,,,,,,,,,,,,,
1968,,probe_rating,810710,probe_rating,,53,,,5,1,,,,,,,,,,,,,
null,,confidence_buffer,810812,confidence_buffer,,null,,,,,,,,,,,,,,,,,
2803.0999999940395,,pt2_unique_rating,813616,Bozeman,,52,,4,,,,,,,,,,,,,,,
null,,confidence_buffer,813718,confidence_buffer,,null,,,,,,,,,,,,,,,,,
1168.7000000029802,,pt2_memorable_rating,814888,Bozeman,,52,,4,,,,,,,,,,,,,,,
null,,confidence_buffer,814990,confidence_buffer,,null,,,,,,,,,,,,,,,,,
1398.9000000059605,,recognition_phase,816390,Bozeman,,52,,,,,new,1,0.9642857142857143,,,,,,,,,,
null,,confidence_buffer,816491,confidence_buffer,,null,,,,,,,,,,,,,,,,,
null,,thebreak,816992,break,,null,,,,,,,,,,,,,,,,,
8391.59999999404,,realistic_rating,825385,Ann Arbor,,53,Ann Arbor,5,,,,,,,,,,,,,,,
null,,confidence_buffer,825487,confidence_buffer,,null,,,,,,,,,,,,,,,,,
7281.20000000298,,pt2_unique_rating,832769,Ann Arbor,,50,,2,,,,,,,,,,,,,,,
null,,confidence_buffer,832871,confidence_buffer,,null,,,,,,,,,,,,,,,,,
2001,,pt2_memorable_rating,834873,Ann Arbor,,51,,3,,,,,,,,,,,,,,,
null,,confidence_buffer,834974,confidence_buffer,,null,,,,,,,,,,,,,,,,,
1774.7999999970198,,recognition_phase,836750,Ann Arbor,,52,,,,,new,1,0.9655172413793104,,,,,,,,,,
null,,confidence_buffer,836852,confidence_buffer,,null,,,,,,,,,,,,,,,,,
null,,thebreak,837353,break,,null,,,,,,,,,,,,,,,,,
2836.0999999940395,,realistic_rating,840190,Cambridge,,53,Cambridge,5,,,,,,,,,,,,,,,
null,,confidence_buffer,840291,confidence_buffer,,null,,,,,,,,,,,,,,,,,
2316.2999999970198,,pt2_unique_rating,842609,Cambridge,,49,,1,,,,,,,,,,,,,,,
null,,confidence_buffer,842711,confidence_buffer,,null,,,,,,,,,,,,,,,,,
1762,,pt2_memorable_rating,844477,Cambridge,,51,,3,,,,,,,,,,,,,,,
null,,confidence_buffer,844578,confidence_buffer,,null,,,,,,,,,,,,,,,,,
1373.2999999970198,,recognition_phase,845953,Cambridge,,49,,,,,old,1,0.9666666666666667,,,,,,,,,,
null,,confidence_buffer,846054,confidence_buffer,,null,,,,,,,,,,,,,,,,,
null,,thebreak,846556,break,,null,,,,,,,,,,,,,,,,,
2508.0999999940395,,realistic_rating,849065,McKinney,,51,McKinney,3,,,,,,,,,,,,,,,
null,,confidence_buffer,849167,confidence_buffer,,null,,,,,,,,,,,,,,,,,
3600.7999999970198,,probe_rating,852769,probe_rating,,51,,,3,1,,,,,,,,,,,,,
null,,confidence_buffer,852870,confidence_buffer,,null,,,,,,,,,,,,,,,,,
32733.5,,pt2_unique_rating,885605,McKinney,,50,,2,,,,,,,,,,,,,,,
null,,confidence_buffer,885707,confidence_buffer,,null,,,,,,,,,,,,,,,,,
1436.7999999970198,,pt2_memorable_rating,887145,McKinney,,50,,2,,,,,,,,,,,,,,,
null,,confidence_buffer,887246,confidence_buffer,,null,,,,,,,,,,,,,,,,,
2377.9000000059605,,recognition_phase,889626,McKinney,,52,,,,,new,1,0.967741935483871,,,,,,,,,,
null,,confidence_buffer,889727,confidence_buffer,,null,,,,,,,,,,,,,,,,,
null,,thebreak,890228,break,,null,,,,,,,,,,,,,,,,,
13228.5,,realistic_rating,903458,Fort Wayne,,53,Fort Wayne,5,,,,,,,,,,,,,,,
null,,confidence_buffer,903558,confidence_buffer,,null,,,,,,,,,,,,,,,,,
4297,,probe_rating,907859,probe_rating,,51,,,3,1,,,,,,,,,,,,,
null,,confidence_buffer,907961,confidence_buffer,,null,,,,,,,,,,,,,,,,,
8906.199999988079,,pt2_unique_rating,916869,Fort Wayne,,49,,1,,,,,,,,,,,,,,,
null,,confidence_buffer,916971,confidence_buffer,,null,,,,,,,,,,,,,,,,,
1119.2000000029802,,pt2_memorable_rating,918092,Fort Wayne,,51,,3,,,,,,,,,,,,,,,
null,,confidence_buffer,918194,confidence_buffer,,null,,,,,,,,,,,,,,,,,
4795.899999991059,,recognition_phase,922992,Fort Wayne,,49,,,,,old,1,0.96875,,,,,,,,,,
null,,confidence_buffer,923093,confidence_buffer,,null,,,,,,,,,,,,,,,,,
null,,thebreak,923595,break,,null,,,,,,,,,,,,,,,,,
1889.699999988079,,realistic_rating,925486,Pasadena,,53,Pasadena,5,,,,,,,,,,,,,,,
null,,confidence_buffer,925587,confidence_buffer,,null,,,,,,,,,,,,,,,,,
1927.2999999970198,,pt2_unique_rating,927516,Pasadena,,52,,4,,,,,,,,,,,,,,,
null,,confidence_buffer,927617,confidence_buffer,,null,,,,,,,,,,,,,,,,,
1585.8999999910593,,pt2_memorable_rating,929205,Pasadena,,52,,4,,,,,,,,,,,,,,,
null,,confidence_buffer,929307,confidence_buffer,,null,,,,,,,,,,,,,,,,,
1448.7000000029802,,recognition_phase,930757,Pasadena,,52,,,,,new,0,0.9393939393939394,,,,,,,,,,
null,,confidence_buffer,930858,confidence_buffer,,null,,,,,,,,,,,,,,,,,
null,,thebreak,931360,break,,null,,,,,,,,,,,,,,,,,
7434.5999999940395,,realistic_rating,938796,Toledo,,53,Toledo,5,,,,,,,,,,,,,,,
null,,confidence_buffer,938898,confidence_buffer,,null,,,,,,,,,,,,,,,,,
2250.5999999940395,,pt2_unique_rating,941150,Toledo,,51,,3,,,,,,,,,,,,,,,
null,,confidence_buffer,941251,confidence_buffer,,null,,,,,,,,,,,,,,,,,
1547.5,,pt2_memorable_rating,942799,Toledo,,51,,3,,,,,,,,,,,,,,,
null,,confidence_buffer,942901,confidence_buffer,,null,,,,,,,,,,,,,,,,,
1182.2000000029802,,recognition_phase,944085,Toledo,,49,,,,,old,1,0.9411764705882353,,,,,,,,,,
null,,confidence_buffer,944186,confidence_buffer,,null,,,,,,,,,,,,,,,,,
null,,thebreak,944688,break,,null,,,,,,,,,,,,,,,,,
11340.70000000298,,realistic_rating,956030,Las Cruces,,53,Las Cruces,5,,,,,,,,,,,,,,,
null,,confidence_buffer,956131,confidence_buffer,,null,,,,,,,,,,,,,,,,,
1463,,pt2_unique_rating,957596,Las Cruces,,52,,4,,,,,,,,,,,,,,,
null,,confidence_buffer,957697,confidence_buffer,,null,,,,,,,,,,,,,,,,,
1784.5999999940395,,pt2_memorable_rating,959483,Las Cruces,,51,,3,,,,,,,,,,,,,,,
null,,confidence_buffer,959584,confidence_buffer,,null,,,,,,,,,,,,,,,,,
1270.2999999970198,,recognition_phase,960856,Las Cruces,,49,,,,,old,1,0.9428571428571428,,,,,,,,,,
null,,confidence_buffer,960957,confidence_buffer,,null,,,,,,,,,,,,,,,,,
null,,thebreak,961459,break,,null,,,,,,,,,,,,,,,,,
2816.2000000029802,,realistic_rating,964276,Champaign,,53,Champaign,5,,,,,,,,,,,,,,,
null,,confidence_buffer,964378,confidence_buffer,,null,,,,,,,,,,,,,,,,,
1795,,pt2_unique_rating,966174,Champaign,,50,,2,,,,,,,,,,,,,,,
null,,confidence_buffer,966275,confidence_buffer,,null,,,,,,,,,,,,,,,,,
1560.0999999940395,,pt2_memorable_rating,967837,Champaign,,50,,2,,,,,,,,,,,,,,,
null,,confidence_buffer,967941,confidence_buffer,,null,,,,,,,,,,,,,,,,,
2858.1000000089407,,recognition_phase,970800,Champaign,,49,,,,,old,1,0.9444444444444444,,,,,,,,,,
null,,confidence_buffer,970903,confidence_buffer,,null,,,,,,,,,,,,,,,,,
null,,thebreak,971405,break,,null,,,,,,,,,,,,,,,,,
8529.90000000596,,realistic_rating,979936,Bellingham,,50,Bellingham,2,,,,,,,,,,,,,,,
null,,confidence_buffer,980038,confidence_buffer,,null,,,,,,,,,,,,,,,,,
4687.4000000059605,,pt2_unique_rating,984726,Bellingham,,51,,3,,,,,,,,,,,,,,,
null,,confidence_buffer,984828,confidence_buffer,,null,,,,,,,,,,,,,,,,,
1256.7999999970198,,probe_rating,986086,probe_rating,,51,,,3,1,,,,,,,,,,,,,
null,,confidence_buffer,986188,confidence_buffer,,null,,,,,,,,,,,,,,,,,
2012.5,,pt2_memorable_rating,988202,Bellingham,,52,,4,,,,,,,,,,,,,,,
null,,confidence_buffer,988303,confidence_buffer,,null,,,,,,,,,,,,,,,,,
1674.199999988079,,recognition_phase,989979,Bellingham,,52,,,,,new,1,0.9459459459459459,,,,,,,,,,
null,,confidence_buffer,990080,confidence_buffer,,null,,,,,,,,,,,,,,,,,
null,,thebreak,990582,break,,null,,,,,,,,,,,,,,,,,
30140,,realistic_rating,1020723,Youngstown,,53,Youngstown,5,,,,,,,,,,,,,,,
null,,confidence_buffer,1020825,confidence_buffer,,null,,,,,,,,,,,,,,,,,
8326,,pt2_unique_rating,1029155,Youngstown,,49,,1,,,,,,,,,,,,,,,
null,,confidence_buffer,1029257,confidence_buffer,,null,,,,,,,,,,,,,,,,,
1409.1000000089407,,pt2_memorable_rating,1030667,Youngstown,,50,,2,,,,,,,,,,,,,,,
null,,confidence_buffer,1030770,confidence_buffer,,null,,,,,,,,,,,,,,,,,
2054.5999999940395,,recognition_phase,1032826,Youngstown,,49,,,,,old,1,0.9473684210526315,,,,,,,,,,
null,,confidence_buffer,1032928,confidence_buffer,,null,,,,,,,,,,,,,,,,,
null,,thebreak,1033430,break,,null,,,,,,,,,,,,,,,,,
1885.3999999910593,,realistic_rating,1035316,Salem,,53,Salem,5,,,,,,,,,,,,,,,
null,,confidence_buffer,1035418,confidence_buffer,,null,,,,,,,,,,,,,,,,,
29358.5,,pt2_unique_rating,1064778,Salem,,49,,1,,,,,,,,,,,,,,,
null,,confidence_buffer,1064880,confidence_buffer,,null,,,,,,,,,,,,,,,,,
1281.5,,pt2_memorable_rating,1066162,Salem,,52,,4,,,,,,,,,,,,,,,
null,,confidence_buffer,1066264,confidence_buffer,,null,,,,,,,,,,,,,,,,,
3136,,recognition_phase,1069401,Salem,,52,,,,,new,1,0.9487179487179487,,,,,,,,,,
null,,confidence_buffer,1069503,confidence_buffer,,null,,,,,,,,,,,,,,,,,
null,,thebreak,1070004,break,,null,,,,,,,,,,,,,,,,,
2067.9000000059605,,realistic_rating,1072073,Pueblo,,53,Pueblo,5,,,,,,,,,,,,,,,
null,,confidence_buffer,1072176,confidence_buffer,,null,,,,,,,,,,,,,,,,,
49489.5,,pt2_unique_rating,1121671,Pueblo,,50,,2,,,,,,,,,,,,,,,
null,,confidence_buffer,1121772,confidence_buffer,,null,,,,,,,,,,,,,,,,,
3411.7999999970198,,pt2_memorable_rating,1125185,Pueblo,,51,,3,,,,,,,,,,,,,,,
null,,confidence_buffer,1125287,confidence_buffer,,null,,,,,,,,,,,,,,,,,
1220.2999999970198,,recognition_phase,1126508,Pueblo,,49,,,,,old,1,0.95,,,,,,,,,,
null,,confidence_buffer,1126609,confidence_buffer,,null,,,,,,,,,,,,,,,,,
null,,thebreak,1127111,break,,null,,,,,,,,,,,,,,,,,
6101.79999999702,,realistic_rating,1133214,Muncie,,53,Muncie,5,,,,,,,,,,,,,,,
null,,confidence_buffer,1133316,confidence_buffer,,null,,,,,,,,,,,,,,,,,
8416.40000000596,,pt2_unique_rating,1141734,Muncie,,52,,4,,,,,,,,,,,,,,,
null,,confidence_buffer,1141835,confidence_buffer,,null,,,,,,,,,,,,,,,,,
1434.3999999910593,,pt2_memorable_rating,1143271,Muncie,,51,,3,,,,,,,,,,,,,,,
null,,confidence_buffer,1143375,confidence_buffer,,null,,,,,,,,,,,,,,,,,
1199.699999988079,,recognition_phase,1144575,Muncie,,52,,,,,new,1,0.9512195121951219,,,,,,,,,,
null,,confidence_buffer,1144676,confidence_buffer,,null,,,,,,,,,,,,,,,,,
null,,thebreak,1145178,break,,null,,,,,,,,,,,,,,,,,
1313.7000000029802,,realistic_rating,1146492,Fargo,,53,Fargo,5,,,,,,,,,,,,,,,
null,,confidence_buffer,1146594,confidence_buffer,,null,,,,,,,,,,,,,,,,,
5302.20000000298,,pt2_unique_rating,1151898,Fargo,,50,,2,,,,,,,,,,,,,,,
null,,confidence_buffer,1151999,confidence_buffer,,null,,,,,,,,,,,,,,,,,
1965.699999988079,,pt2_memorable_rating,1153966,Fargo,,51,,3,,,,,,,,,,,,,,,
null,,confidence_buffer,1154068,confidence_buffer,,null,,,,,,,,,,,,,,,,,
1386.1000000089407,,recognition_phase,1155455,Fargo,,52,,,,,new,1,0.9523809523809523,,,,,,,,,,
null,,confidence_buffer,1155556,confidence_buffer,,null,,,,,,,,,,,,,,,,,
null,,thebreak,1156057,break,,null,,,,,,,,,,,,,,,,,
3059.2999999970198,,realistic_rating,1159118,Berkeley,,53,Berkeley,5,,,,,,,,,,,,,,,
null,,confidence_buffer,1159219,confidence_buffer,,null,,,,,,,,,,,,,,,,,
1573.2999999970198,,pt2_unique_rating,1160793,Berkeley,,50,,2,,,,,,,,,,,,,,,
null,,confidence_buffer,1160895,confidence_buffer,,null,,,,,,,,,,,,,,,,,
1309.1000000089407,,pt2_memorable_rating,1162205,Berkeley,,52,,4,,,,,,,,,,,,,,,
null,,confidence_buffer,1162307,confidence_buffer,,null,,,,,,,,,,,,,,,,,
1649.300000011921,,recognition_phase,1163957,Berkeley,,52,,,,,new,1,0.9534883720930233,,,,,,,,,,
null,,confidence_buffer,1164060,confidence_buffer,,null,,,,,,,,,,,,,,,,,
null,,thebreak,1164562,break,,null,,,,,,,,,,,,,,,,,
1675.2000000029802,,realistic_rating,1166238,Palo Alto,,53,Palo Alto,5,,,,,,,,,,,,,,,
null,,confidence_buffer,1166339,confidence_buffer,,null,,,,,,,,,,,,,,,,,
1624.8999999910593,,pt2_unique_rating,1167965,Palo Alto,,52,,4,,,,,,,,,,,,,,,
null,,confidence_buffer,1168067,confidence_buffer,,null,,,,,,,,,,,,,,,,,
1721.0999999940395,,pt2_memorable_rating,1169789,Palo Alto,,51,,3,,,,,,,,,,,,,,,
null,,confidence_buffer,1169891,confidence_buffer,,null,,,,,,,,,,,,,,,,,
1097.2000000029802,,recognition_phase,1170989,Palo Alto,,52,,,,,new,1,0.9545454545454546,,,,,,,,,,
null,,confidence_buffer,1171105,confidence_buffer,,null,,,,,,,,,,,,,,,,,
null,,thebreak,1171607,break,,null,,,,,,,,,,,,,,,,,
1397.2000000029802,,realistic_rating,1173005,Norfolk,,53,Norfolk,5,,,,,,,,,,,,,,,
null,,confidence_buffer,1173108,confidence_buffer,,null,,,,,,,,,,,,,,,,,
1720.5999999940395,,pt2_unique_rating,1174829,Norfolk,,49,,1,,,,,,,,,,,,,,,
null,,confidence_buffer,1174932,confidence_buffer,,null,,,,,,,,,,,,,,,,,
1498.2000000029802,,pt2_memorable_rating,1176431,Norfolk,,49,,1,,,,,,,,,,,,,,,
null,,confidence_buffer,1176532,confidence_buffer,,null,,,,,,,,,,,,,,,,,
1521.8999999910593,,recognition_phase,1178055,Norfolk,,52,,,,,new,1,0.9555555555555556,,,,,,,,,,
null,,confidence_buffer,1178157,confidence_buffer,,null,,,,,,,,,,,,,,,,,
null,,thebreak,1178658,break,,null,,,,,,,,,,,,,,,,,
5683.20000000298,,realistic_rating,1184345,Rock Springs,,52,Rock Springs,4,,,,,,,,,,,,,,,
null,,confidence_buffer,1184448,confidence_buffer,,null,,,,,,,,,,,,,,,,,
4899.79999999702,,pt2_unique_rating,1189349,Rock Springs,,50,,2,,,,,,,,,,,,,,,
null,,confidence_buffer,1189451,confidence_buffer,,null,,,,,,,,,,,,,,,,,
3148.4000000059605,,pt2_memorable_rating,1192600,Rock Springs,,50,,2,,,,,,,,,,,,,,,
null,,confidence_buffer,1192702,confidence_buffer,,null,,,,,,,,,,,,,,,,,
940.7000000029802,,recognition_phase,1193644,Rock Springs,,50,,,,,old,1,0.9565217391304348,,,,,,,,,,
null,,confidence_buffer,1193747,confidence_buffer,,null,,,,,,,,,,,,,,,,,
null,,thebreak,1194248,break,,null,,,,,,,,,,,,,,,,,
1375.5,,realistic_rating,1195624,Burlington,,53,Burlington,5,,,,,,,,,,,,,,,
null,,confidence_buffer,1195727,confidence_buffer,,null,,,,,,,,,,,,,,,,,
1217.0999999940395,,pt2_unique_rating,1196945,Burlington,,49,,1,,,,,,,,,,,,,,,
null,,confidence_buffer,1197047,confidence_buffer,,null,,,,,,,,,,,,,,,,,
4698.199999988079,,pt2_memorable_rating,1201747,Burlington,,51,,3,,,,,,,,,,,,,,,
null,,confidence_buffer,1201849,confidence_buffer,,null,,,,,,,,,,,,,,,,,
2769.4000000059605,,probe_rating,1204619,probe_rating,,53,,,5,1,,,,,,,,,,,,,
null,,confidence_buffer,1204721,confidence_buffer,,null,,,,,,,,,,,,,,,,,
1638.2000000029802,,recognition_phase,1206360,Burlington,,52,,,,,new,1,0.9574468085106383,,,,,,,,,,
null,,confidence_buffer,1206462,confidence_buffer,,null,,,,,,,,,,,,,,,,,
null,,thebreak,1206963,break,,null,,,,,,,,,,,,,,,,,
1964.2999999970198,,realistic_rating,1208928,New Haven,,53,New Haven,5,,,,,,,,,,,,,,,
null,,confidence_buffer,1209029,confidence_buffer,,null,,,,,,,,,,,,,,,,,
1700.0999999940395,,pt2_unique_rating,1210730,New Haven,,49,,1,,,,,,,,,,,,,,,
null,,confidence_buffer,1210832,confidence_buffer,,null,,,,,,,,,,,,,,,,,
1950.8999999910593,,pt2_memorable_rating,1212785,New Haven,,51,,3,,,,,,,,,,,,,,,
null,,confidence_buffer,1212887,confidence_buffer,,null,,,,,,,,,,,,,,,,,
1344.699999988079,,recognition_phase,1214232,New Haven,,49,,,,,old,1,0.9583333333333334,,,,,,,,,,
null,,confidence_buffer,1214333,confidence_buffer,,null,,,,,,,,,,,,,,,,,
null,,thebreak,1214835,break,,null,,,,,,,,,,,,,,,,,
1515.7999999970198,,realistic_rating,1216351,Boise,,53,Boise,5,,,,,,,,,,,,,,,
null,,confidence_buffer,1216452,confidence_buffer,,null,,,,,,,,,,,,,,,,,
1862.0999999940395,,pt2_unique_rating,1218315,Boise,,50,,2,,,,,,,,,,,,,,,
null,,confidence_buffer,1218418,confidence_buffer,,null,,,,,,,,,,,,,,,,,
5101.20000000298,,pt2_memorable_rating,1223520,Boise,,51,,3,,,,,,,,,,,,,,,
null,,confidence_buffer,1223621,confidence_buffer,,null,,,,,,,,,,,,,,,,,
25449.39999999106,,recognition_phase,1249075,Boise,,49,,,,,old,0,0.9387755102040817,,,,,,,,,,
null,,confidence_buffer,1249176,confidence_buffer,,null,,,,,,,,,,,,,,,,,
null,,thebreak,1249677,break,,null,,,,,,,,,,,,,,,,,
15374,,realistic_rating,1265053,Frankfort,,53,Frankfort,5,,,,,,,,,,,,,,,
null,,confidence_buffer,1265154,confidence_buffer,,null,,,,,,,,,,,,,,,,,
24404.20000000298,,pt2_unique_rating,1289560,Frankfort,,49,,1,,,,,,,,,,,,,,,
null,,confidence_buffer,1289661,confidence_buffer,,null,,,,,,,,,,,,,,,,,
1461,,pt2_memorable_rating,1291123,Frankfort,,51,,3,,,,,,,,,,,,,,,
null,,confidence_buffer,1291225,confidence_buffer,,null,,,,,,,,,,,,,,,,,
5754.79999999702,,recognition_phase,1296981,Frankfort,,49,,,,,old,1,0.94,,,,,,,,,,
null,,confidence_buffer,1297083,confidence_buffer,,null,,,,,,,,,,,,,,,,,
null,,thebreak,1297584,break,,null,,,,,,,,,,,,,,,,,
,,survey,1504333,survey-questions,,,,,,,,,,none,high,no,I repeated the names as I saw them in the first round,If I have heard it at all in conversations in real life or in tv or movies,if it was unique enough to stand out,if its a city name that I dont think every state would have one of or that just has a different spelling ,mainly whether or not I had heard it before and how unique it sounded,no,maybe not as many cities as it did get very repetitive almost to the point of boring
