rt,responses,trial_type,time_elapsed,stimulus,button_pressed,key_press,name_trial,city_type,rating,probe,probe_accuracy,response,correct,accuracy,problems,smooth,distraction,strategies,familiar,memorable,unique,realistic,similar,comments
6870,{worker_id:67c4b84f8b969f3ba1964b53},id_enter,6878,,,,,,,,,,,,,,,,,,,,,
188264,,fullscreen,195149,fullscreen,0,,,,,,,,,,,,,,,,,,,
11345,,intro_0,206501,instruct,,32,,,,,,,,,,,,,,,,,,
126318,,intro_1,332821,instruct,,32,,,,,,,,,,,,,,,,,,
16845,,intro_2,349668,instruct,,32,,,,,,,,,,,,,,,,,,
null,,instruct_dir_4,351170,instruct,,null,,,,,,,,,,,,,,,,,,
null,,thebreak,351672,break,,null,,,,,,,,,,,,,,,,,,
11554,,familiar_rating,363228,Ravenport,,51,Ravenport,Fictional,3,,,,,,,,,,,,,,,
null,,confidence_buffer,363330,confidence_buffer,,null,,,,,,,,,,,,,,,,,,
5209,,unique_rating,368540,Ravenport,,51,,,3,,,,,,,,,,,,,,,
null,,confidence_buffer,368641,confidence_buffer,,null,,,,,,,,,,,,,,,,,,
4892,,memorable_rating,373534,Ravenport,,52,,,4,,,,,,,,,,,,,,,
null,,confidence_buffer,373637,confidence_buffer,,null,,,,,,,,,,,,,,,,,,
null,,thebreak,374138,break,,null,,,,,,,,,,,,,,,,,,
6025,,familiar_rating,380164,Summershade,,49,Summershade,Fictional,1,,,,,,,,,,,,,,,
null,,confidence_buffer,380265,confidence_buffer,,null,,,,,,,,,,,,,,,,,,
4490,,unique_rating,384756,Summershade,,52,,,4,,,,,,,,,,,,,,,
null,,confidence_buffer,384856,confidence_buffer,,null,,,,,,,,,,,,,,,,,,
3219,,memorable_rating,388076,Summershade,,52,,,4,,,,,,,,,,,,,,,
null,,confidence_buffer,388178,confidence_buffer,,null,,,,,,,,,,,,,,,,,,
null,,thebreak,388679,break,,null,,,,,,,,,,,,,,,,,,
4077,,familiar_rating,392757,Westridge,,52,Westridge,Fictional,4,,,,,,,,,,,,,,,
null,,confidence_buffer,392857,confidence_buffer,,null,,,,,,,,,,,,,,,,,,
4281,,unique_rating,397140,Westridge,,51,,,3,,,,,,,,,,,,,,,
null,,confidence_buffer,397241,confidence_buffer,,null,,,,,,,,,,,,,,,,,,
2881,,memorable_rating,400124,Westridge,,51,,,3,,,,,,,,,,,,,,,
null,,confidence_buffer,400225,confidence_buffer,,null,,,,,,,,,,,,,,,,,,
3539,,probe_rating,403764,probe_rating,,49,,,,1,1,,,,,,,,,,,,,
null,,confidence_buffer,403864,confidence_buffer,,null,,,,,,,,,,,,,,,,,,
null,,thebreak,404365,break,,null,,,,,,,,,,,,,,,,,,
6974,,familiar_rating,411340,Solara Glen,,49,Solara Glen,Fictional,1,,,,,,,,,,,,,,,
null,,confidence_buffer,411441,confidence_buffer,,null,,,,,,,,,,,,,,,,,,
3721,,unique_rating,415164,Solara Glen,,53,,,5,,,,,,,,,,,,,,,
null,,confidence_buffer,415265,confidence_buffer,,null,,,,,,,,,,,,,,,,,,
3755,,memorable_rating,419020,Solara Glen,,53,,,5,,,,,,,,,,,,,,,
null,,confidence_buffer,419121,confidence_buffer,,null,,,,,,,,,,,,,,,,,,
null,,thebreak,419621,break,,null,,,,,,,,,,,,,,,,,,
7710,,familiar_rating,427332,Athens,,53,Athens,US,5,,,,,,,,,,,,,,,
null,,confidence_buffer,427433,confidence_buffer,,null,,,,,,,,,,,,,,,,,,
4851,,unique_rating,432283,Athens,,49,,,1,,,,,,,,,,,,,,,
null,,confidence_buffer,432384,confidence_buffer,,null,,,,,,,,,,,,,,,,,,
3867,,memorable_rating,436252,Athens,,53,,,5,,,,,,,,,,,,,,,
null,,confidence_buffer,436353,confidence_buffer,,null,,,,,,,,,,,,,,,,,,
null,,thebreak,436854,break,,null,,,,,,,,,,,,,,,,,,
10542,,familiar_rating,447397,Alliance,,51,Alliance,US,3,,,,,,,,,,,,,,,
null,,confidence_buffer,447499,confidence_buffer,,null,,,,,,,,,,,,,,,,,,
3488,,unique_rating,450988,Alliance,,51,,,3,,,,,,,,,,,,,,,
null,,confidence_buffer,451090,confidence_buffer,,null,,,,,,,,,,,,,,,,,,
3867,,memorable_rating,454959,Alliance,,50,,,2,,,,,,,,,,,,,,,
null,,confidence_buffer,455059,confidence_buffer,,null,,,,,,,,,,,,,,,,,,
null,,thebreak,455560,break,,null,,,,,,,,,,,,,,,,,,
12651,,familiar_rating,468213,Lake of the Ozarks,,52,Lake of the Ozarks,US,4,,,,,,,,,,,,,,,
null,,confidence_buffer,468314,confidence_buffer,,null,,,,,,,,,,,,,,,,,,
2675,,unique_rating,470989,Lake of the Ozarks,,53,,,5,,,,,,,,,,,,,,,
null,,confidence_buffer,471091,confidence_buffer,,null,,,,,,,,,,,,,,,,,,
5245,,memorable_rating,476336,Lake of the Ozarks,,53,,,5,,,,,,,,,,,,,,,
null,,confidence_buffer,476438,confidence_buffer,,null,,,,,,,,,,,,,,,,,,
null,,thebreak,476938,break,,null,,,,,,,,,,,,,,,,,,
11705,,familiar_rating,488645,Millstone,,50,Millstone,Fictional,2,,,,,,,,,,,,,,,
null,,confidence_buffer,488746,confidence_buffer,,null,,,,,,,,,,,,,,,,,,
1842,,unique_rating,490588,Millstone,,50,,,2,,,,,,,,,,,,,,,
null,,confidence_buffer,490689,confidence_buffer,,null,,,,,,,,,,,,,,,,,,
1690,,memorable_rating,492380,Millstone,,50,,,2,,,,,,,,,,,,,,,
null,,confidence_buffer,492481,confidence_buffer,,null,,,,,,,,,,,,,,,,,,
null,,thebreak,492984,break,,null,,,,,,,,,,,,,,,,,,
5180,,familiar_rating,498164,Livingston,,52,Livingston,US,4,,,,,,,,,,,,,,,
null,,confidence_buffer,498265,confidence_buffer,,null,,,,,,,,,,,,,,,,,,
3841,,unique_rating,502108,Livingston,,50,,,2,,,,,,,,,,,,,,,
null,,confidence_buffer,502209,confidence_buffer,,null,,,,,,,,,,,,,,,,,,
4674,,memorable_rating,506884,Livingston,,52,,,4,,,,,,,,,,,,,,,
null,,confidence_buffer,506985,confidence_buffer,,null,,,,,,,,,,,,,,,,,,
null,,thebreak,507486,break,,null,,,,,,,,,,,,,,,,,,
15818,,familiar_rating,523305,Manistee,,50,Manistee,US,2,,,,,,,,,,,,,,,
null,,confidence_buffer,523407,confidence_buffer,,null,,,,,,,,,,,,,,,,,,
4053,,unique_rating,527461,Manistee,,52,,,4,,,,,,,,,,,,,,,
null,,confidence_buffer,527563,confidence_buffer,,null,,,,,,,,,,,,,,,,,,
2665,,memorable_rating,530229,Manistee,,52,,,4,,,,,,,,,,,,,,,
null,,confidence_buffer,530329,confidence_buffer,,null,,,,,,,,,,,,,,,,,,
null,,thebreak,530830,break,,null,,,,,,,,,,,,,,,,,,
4949,,familiar_rating,535780,Driftwood Bay,,49,Driftwood Bay,Fictional,1,,,,,,,,,,,,,,,
null,,confidence_buffer,535881,confidence_buffer,,null,,,,,,,,,,,,,,,,,,
3124,,probe_rating,539006,probe_rating,,53,,,,5,1,,,,,,,,,,,,,
null,,confidence_buffer,539109,confidence_buffer,,null,,,,,,,,,,,,,,,,,,
5647,,unique_rating,544757,Driftwood Bay,,52,,,4,,,,,,,,,,,,,,,
null,,confidence_buffer,544857,confidence_buffer,,null,,,,,,,,,,,,,,,,,,
3435,,memorable_rating,548292,Driftwood Bay,,53,,,5,,,,,,,,,,,,,,,
null,,confidence_buffer,548395,confidence_buffer,,null,,,,,,,,,,,,,,,,,,
null,,thebreak,548896,break,,null,,,,,,,,,,,,,,,,,,
3508,,familiar_rating,552404,Folly Beach,,49,Folly Beach,US,1,,,,,,,,,,,,,,,
null,,confidence_buffer,552506,confidence_buffer,,null,,,,,,,,,,,,,,,,,,
4747,,unique_rating,557252,Folly Beach,,52,,,4,,,,,,,,,,,,,,,
null,,confidence_buffer,557353,confidence_buffer,,null,,,,,,,,,,,,,,,,,,
2937,,memorable_rating,560292,Folly Beach,,52,,,4,,,,,,,,,,,,,,,
null,,confidence_buffer,560393,confidence_buffer,,null,,,,,,,,,,,,,,,,,,
null,,thebreak,560894,break,,null,,,,,,,,,,,,,,,,,,
7381,,familiar_rating,568276,Leesburg,,53,Leesburg,US,5,,,,,,,,,,,,,,,
null,,confidence_buffer,568377,confidence_buffer,,null,,,,,,,,,,,,,,,,,,
4634,,unique_rating,573012,Leesburg,,51,,,3,,,,,,,,,,,,,,,
null,,confidence_buffer,573115,confidence_buffer,,null,,,,,,,,,,,,,,,,,,
2522,,probe_rating,575636,probe_rating,,49,,,,1,1,,,,,,,,,,,,,
null,,confidence_buffer,575738,confidence_buffer,,null,,,,,,,,,,,,,,,,,,
4121,,memorable_rating,579860,Leesburg,,52,,,4,,,,,,,,,,,,,,,
null,,confidence_buffer,579962,confidence_buffer,,null,,,,,,,,,,,,,,,,,,
null,,thebreak,580465,break,,null,,,,,,,,,,,,,,,,,,
5509,,familiar_rating,585974,Abilene,,53,Abilene,US,5,,,,,,,,,,,,,,,
null,,confidence_buffer,586075,confidence_buffer,,null,,,,,,,,,,,,,,,,,,
5441,,unique_rating,591516,Abilene,,52,,,4,,,,,,,,,,,,,,,
null,,confidence_buffer,591618,confidence_buffer,,null,,,,,,,,,,,,,,,,,,
1435,,memorable_rating,593055,Abilene,,52,,,4,,,,,,,,,,,,,,,
null,,confidence_buffer,593156,confidence_buffer,,null,,,,,,,,,,,,,,,,,,
null,,thebreak,593658,break,,null,,,,,,,,,,,,,,,,,,
8802,,familiar_rating,602461,Cornwall,,52,Cornwall,US,4,,,,,,,,,,,,,,,
null,,confidence_buffer,602562,confidence_buffer,,null,,,,,,,,,,,,,,,,,,
5457,,unique_rating,608020,Cornwall,,50,,,2,,,,,,,,,,,,,,,
null,,confidence_buffer,608122,confidence_buffer,,null,,,,,,,,,,,,,,,,,,
3297,,memorable_rating,611420,Cornwall,,51,,,3,,,,,,,,,,,,,,,
null,,confidence_buffer,611523,confidence_buffer,,null,,,,,,,,,,,,,,,,,,
null,,thebreak,612025,break,,null,,,,,,,,,,,,,,,,,,
4067,,familiar_rating,616093,North Arroya,,49,North Arroya,Fictional,1,,,,,,,,,,,,,,,
null,,confidence_buffer,616194,confidence_buffer,,null,,,,,,,,,,,,,,,,,,
4009,,unique_rating,620204,North Arroya,,53,,,5,,,,,,,,,,,,,,,
null,,confidence_buffer,620305,confidence_buffer,,null,,,,,,,,,,,,,,,,,,
1858,,probe_rating,622165,probe_rating,,49,,,,1,1,,,,,,,,,,,,,
null,,confidence_buffer,622266,confidence_buffer,,null,,,,,,,,,,,,,,,,,,
3836,,memorable_rating,626102,North Arroya,,53,,,5,,,,,,,,,,,,,,,
null,,confidence_buffer,626203,confidence_buffer,,null,,,,,,,,,,,,,,,,,,
null,,thebreak,626703,break,,null,,,,,,,,,,,,,,,,,,
7684,,familiar_rating,634389,West Talora,,49,West Talora,Fictional,1,,,,,,,,,,,,,,,
null,,confidence_buffer,634491,confidence_buffer,,null,,,,,,,,,,,,,,,,,,
4984,,unique_rating,639476,West Talora,,53,,,5,,,,,,,,,,,,,,,
null,,confidence_buffer,639579,confidence_buffer,,null,,,,,,,,,,,,,,,,,,
2721,,memorable_rating,642300,West Talora,,52,,,4,,,,,,,,,,,,,,,
null,,confidence_buffer,642402,confidence_buffer,,null,,,,,,,,,,,,,,,,,,
null,,thebreak,642903,break,,null,,,,,,,,,,,,,,,,,,
5429,,familiar_rating,648333,Newport,,53,Newport,US,5,,,,,,,,,,,,,,,
null,,confidence_buffer,648434,confidence_buffer,,null,,,,,,,,,,,,,,,,,,
1731,,probe_rating,650164,probe_rating,,49,,,,1,1,,,,,,,,,,,,,
null,,confidence_buffer,650267,confidence_buffer,,null,,,,,,,,,,,,,,,,,,
3793,,unique_rating,654061,Newport,,49,,,1,,,,,,,,,,,,,,,
null,,confidence_buffer,654161,confidence_buffer,,null,,,,,,,,,,,,,,,,,,
3436,,memorable_rating,657600,Newport,,51,,,3,,,,,,,,,,,,,,,
null,,confidence_buffer,657702,confidence_buffer,,null,,,,,,,,,,,,,,,,,,
null,,thebreak,658203,break,,null,,,,,,,,,,,,,,,,,,
3168,,familiar_rating,661373,New Verdan,,49,New Verdan,Fictional,1,,,,,,,,,,,,,,,
null,,confidence_buffer,661475,confidence_buffer,,null,,,,,,,,,,,,,,,,,,
4831,,unique_rating,666308,New Verdan,,53,,,5,,,,,,,,,,,,,,,
null,,confidence_buffer,666410,confidence_buffer,,null,,,,,,,,,,,,,,,,,,
2523,,memorable_rating,668933,New Verdan,,52,,,4,,,,,,,,,,,,,,,
null,,confidence_buffer,669035,confidence_buffer,,null,,,,,,,,,,,,,,,,,,
null,,thebreak,669536,break,,null,,,,,,,,,,,,,,,,,,
3571,,familiar_rating,673108,Briarfield,,50,Briarfield,Fictional,2,,,,,,,,,,,,,,,
null,,confidence_buffer,673209,confidence_buffer,,null,,,,,,,,,,,,,,,,,,
1530,,unique_rating,674741,Briarfield,,50,,,2,,,,,,,,,,,,,,,
null,,confidence_buffer,674843,confidence_buffer,,null,,,,,,,,,,,,,,,,,,
3833,,memorable_rating,678677,Briarfield,,51,,,3,,,,,,,,,,,,,,,
null,,confidence_buffer,678779,confidence_buffer,,null,,,,,,,,,,,,,,,,,,
null,,thebreak,679282,break,,null,,,,,,,,,,,,,,,,,,
12747,,familiar_rating,692029,Lakehaven,,51,Lakehaven,Fictional,3,,,,,,,,,,,,,,,
null,,confidence_buffer,692130,confidence_buffer,,null,,,,,,,,,,,,,,,,,,
4410,,unique_rating,696542,Lakehaven,,51,,,3,,,,,,,,,,,,,,,
null,,confidence_buffer,696642,confidence_buffer,,null,,,,,,,,,,,,,,,,,,
2818,,memorable_rating,699460,Lakehaven,,51,,,3,,,,,,,,,,,,,,,
null,,confidence_buffer,699562,confidence_buffer,,null,,,,,,,,,,,,,,,,,,
null,,thebreak,700064,break,,null,,,,,,,,,,,,,,,,,,
6044,,familiar_rating,706109,Crestwood,,53,Crestwood,Fictional,5,,,,,,,,,,,,,,,
null,,confidence_buffer,706210,confidence_buffer,,null,,,,,,,,,,,,,,,,,,
3666,,unique_rating,709876,Crestwood,,49,,,1,,,,,,,,,,,,,,,
null,,confidence_buffer,709978,confidence_buffer,,null,,,,,,,,,,,,,,,,,,
4340,,memorable_rating,714318,Crestwood,,52,,,4,,,,,,,,,,,,,,,
null,,confidence_buffer,714419,confidence_buffer,,null,,,,,,,,,,,,,,,,,,
null,,thebreak,714920,break,,null,,,,,,,,,,,,,,,,,,
3431,,familiar_rating,718352,Clearbrook,,50,Clearbrook,Fictional,2,,,,,,,,,,,,,,,
null,,confidence_buffer,718453,confidence_buffer,,null,,,,,,,,,,,,,,,,,,
2175,,unique_rating,720629,Clearbrook,,50,,,2,,,,,,,,,,,,,,,
null,,confidence_buffer,720730,confidence_buffer,,null,,,,,,,,,,,,,,,,,,
3721,,memorable_rating,724453,Clearbrook,,51,,,3,,,,,,,,,,,,,,,
null,,confidence_buffer,724554,confidence_buffer,,null,,,,,,,,,,,,,,,,,,
null,,thebreak,725055,break,,null,,,,,,,,,,,,,,,,,,
14374,,familiar_rating,739429,Tamarisk Hills,,49,Tamarisk Hills,Fictional,1,,,,,,,,,,,,,,,
null,,confidence_buffer,739531,confidence_buffer,,null,,,,,,,,,,,,,,,,,,
4752,,unique_rating,744285,Tamarisk Hills,,53,,,5,,,,,,,,,,,,,,,
null,,confidence_buffer,744387,confidence_buffer,,null,,,,,,,,,,,,,,,,,,
1985,,memorable_rating,746374,Tamarisk Hills,,53,,,5,,,,,,,,,,,,,,,
null,,confidence_buffer,746474,confidence_buffer,,null,,,,,,,,,,,,,,,,,,
null,,thebreak,746975,break,,null,,,,,,,,,,,,,,,,,,
9437,,familiar_rating,756413,Natchez,,52,Natchez,US,4,,,,,,,,,,,,,,,
null,,confidence_buffer,756513,confidence_buffer,,null,,,,,,,,,,,,,,,,,,
3682,,unique_rating,760197,Natchez,,51,,,3,,,,,,,,,,,,,,,
null,,confidence_buffer,760298,confidence_buffer,,null,,,,,,,,,,,,,,,,,,
3010,,memorable_rating,763309,Natchez,,52,,,4,,,,,,,,,,,,,,,
null,,confidence_buffer,763412,confidence_buffer,,null,,,,,,,,,,,,,,,,,,
null,,thebreak,763912,break,,null,,,,,,,,,,,,,,,,,,
8484,,familiar_rating,772397,Bowling Green,,53,Bowling Green,US,5,,,,,,,,,,,,,,,
null,,confidence_buffer,772499,confidence_buffer,,null,,,,,,,,,,,,,,,,,,
3001,,probe_rating,775501,probe_rating,,52,,,,4,1,,,,,,,,,,,,,
null,,confidence_buffer,775602,confidence_buffer,,null,,,,,,,,,,,,,,,,,,
4114,,unique_rating,779717,Bowling Green,,51,,,3,,,,,,,,,,,,,,,
null,,confidence_buffer,779819,confidence_buffer,,null,,,,,,,,,,,,,,,,,,
2881,,memorable_rating,782701,Bowling Green,,51,,,3,,,,,,,,,,,,,,,
null,,confidence_buffer,782803,confidence_buffer,,null,,,,,,,,,,,,,,,,,,
null,,thebreak,783304,break,,null,,,,,,,,,,,,,,,,,,
10542,,familiar_rating,793845,Linden Trace,,49,Linden Trace,Fictional,1,,,,,,,,,,,,,,,
null,,confidence_buffer,793947,confidence_buffer,,null,,,,,,,,,,,,,,,,,,
3114,,unique_rating,797062,Linden Trace,,52,,,4,,,,,,,,,,,,,,,
null,,confidence_buffer,797163,confidence_buffer,,null,,,,,,,,,,,,,,,,,,
3394,,memorable_rating,800557,Linden Trace,,52,,,4,,,,,,,,,,,,,,,
null,,confidence_buffer,800658,confidence_buffer,,null,,,,,,,,,,,,,,,,,,
null,,thebreak,801159,break,,null,,,,,,,,,,,,,,,,,,
4557,,familiar_rating,805717,Sitka,,49,Sitka,US,1,,,,,,,,,,,,,,,
null,,confidence_buffer,805818,confidence_buffer,,null,,,,,,,,,,,,,,,,,,
4041,,unique_rating,809862,Sitka,,53,,,5,,,,,,,,,,,,,,,
null,,confidence_buffer,809963,confidence_buffer,,null,,,,,,,,,,,,,,,,,,
5228,,memorable_rating,815192,Sitka,,52,,,4,,,,,,,,,,,,,,,
null,,confidence_buffer,815293,confidence_buffer,,null,,,,,,,,,,,,,,,,,,
null,,thebreak,815794,break,,null,,,,,,,,,,,,,,,,,,
4330,,familiar_rating,820125,Gatlinburg,,53,Gatlinburg,US,5,,,,,,,,,,,,,,,
null,,confidence_buffer,820227,confidence_buffer,,null,,,,,,,,,,,,,,,,,,
3251,,unique_rating,823478,Gatlinburg,,52,,,4,,,,,,,,,,,,,,,
null,,confidence_buffer,823579,confidence_buffer,,null,,,,,,,,,,,,,,,,,,
3476,,memorable_rating,827055,Gatlinburg,,52,,,4,,,,,,,,,,,,,,,
null,,confidence_buffer,827157,confidence_buffer,,null,,,,,,,,,,,,,,,,,,
null,,thebreak,827658,break,,null,,,,,,,,,,,,,,,,,,
7476,,familiar_rating,835134,Hilo,,53,Hilo,US,5,,,,,,,,,,,,,,,
null,,confidence_buffer,835236,confidence_buffer,,null,,,,,,,,,,,,,,,,,,
3481,,unique_rating,838718,Hilo,,51,,,3,,,,,,,,,,,,,,,
null,,confidence_buffer,838819,confidence_buffer,,null,,,,,,,,,,,,,,,,,,
1940,,probe_rating,840759,probe_rating,,49,,,,1,1,,,,,,,,,,,,,
null,,confidence_buffer,840860,confidence_buffer,,null,,,,,,,,,,,,,,,,,,
3954,,memorable_rating,844813,Hilo,,51,,,3,,,,,,,,,,,,,,,
null,,confidence_buffer,844916,confidence_buffer,,null,,,,,,,,,,,,,,,,,,
null,,thebreak,845417,break,,null,,,,,,,,,,,,,,,,,,
95029,,intro_0,940446,instruct,,32,,,,,,,,,,,,,,,,,,
20542,,intro_1,960990,instruct,,32,,,,,,,,,,,,,,,,,,
44448,,intro_2,1005439,instruct,,32,,,,,,,,,,,,,,,,,,
null,,instruct_dir_4,1006941,instruct,,null,,,,,,,,,,,,,,,,,,
9120,,realistic_rating,1016063,Maravilla Springs,,52,Maravilla Springs,Fictional,4,,,,,,,,,,,,,,,
null,,confidence_buffer,1016166,confidence_buffer,,null,,,,,,,,,,,,,,,,,,
8519,,pt2_unique_rating,1024686,Maravilla Springs,,52,,,4,,,,,,,,,,,,,,,
null,,confidence_buffer,1024788,confidence_buffer,,null,,,,,,,,,,,,,,,,,,
3890,,pt2_memorable_rating,1028678,Maravilla Springs,,52,,,4,,,,,,,,,,,,,,,
null,,confidence_buffer,1028779,confidence_buffer,,null,,,,,,,,,,,,,,,,,,
2138,,probe_rating,1030918,probe_rating,,50,,,,2,1,,,,,,,,,,,,,
null,,confidence_buffer,1031019,confidence_buffer,,null,,,,,,,,,,,,,,,,,,
8043,,recognition_phase,1039063,Maravilla Springs,,52,,,,,,new,1,1,,,,,,,,,,
null,,confidence_buffer,1039164,confidence_buffer,,null,,,,,,,,,,,,,,,,,,
null,,thebreak,1039666,break,,null,,,,,,,,,,,,,,,,,,
8396,,realistic_rating,1048063,Granton Ridge,,52,Granton Ridge,Fictional,4,,,,,,,,,,,,,,,
null,,confidence_buffer,1048164,confidence_buffer,,null,,,,,,,,,,,,,,,,,,
3097,,pt2_unique_rating,1051263,Granton Ridge,,52,,,4,,,,,,,,,,,,,,,
null,,confidence_buffer,1051364,confidence_buffer,,null,,,,,,,,,,,,,,,,,,
2706,,pt2_memorable_rating,1054070,Granton Ridge,,52,,,4,,,,,,,,,,,,,,,
null,,confidence_buffer,1054172,confidence_buffer,,null,,,,,,,,,,,,,,,,,,
3106,,recognition_phase,1057278,Granton Ridge,,52,,,,,,new,1,1,,,,,,,,,,
null,,confidence_buffer,1057379,confidence_buffer,,null,,,,,,,,,,,,,,,,,,
null,,thebreak,1057880,break,,null,,,,,,,,,,,,,,,,,,
6958,,realistic_rating,1064839,Folly Beach,,52,Folly Beach,US,4,,,,,,,,,,,,,,,
null,,confidence_buffer,1064941,confidence_buffer,,null,,,,,,,,,,,,,,,,,,
3497,,pt2_unique_rating,1068439,Folly Beach,,51,,,3,,,,,,,,,,,,,,,
null,,confidence_buffer,1068540,confidence_buffer,,null,,,,,,,,,,,,,,,,,,
2994,,pt2_memorable_rating,1071535,Folly Beach,,51,,,3,,,,,,,,,,,,,,,
null,,confidence_buffer,1071635,confidence_buffer,,null,,,,,,,,,,,,,,,,,,
3275,,recognition_phase,1074911,Folly Beach,,49,,,,,,old,1,1,,,,,,,,,,
null,,confidence_buffer,1075011,confidence_buffer,,null,,,,,,,,,,,,,,,,,,
null,,thebreak,1075513,break,,null,,,,,,,,,,,,,,,,,,
16341,,realistic_rating,1091855,North Arroya,,52,North Arroya,Fictional,4,,,,,,,,,,,,,,,
null,,confidence_buffer,1091955,confidence_buffer,,null,,,,,,,,,,,,,,,,,,
1658,,pt2_unique_rating,1093615,North Arroya,,52,,,4,,,,,,,,,,,,,,,
null,,confidence_buffer,1093715,confidence_buffer,,null,,,,,,,,,,,,,,,,,,
3114,,pt2_memorable_rating,1096831,North Arroya,,52,,,4,,,,,,,,,,,,,,,
null,,confidence_buffer,1096933,confidence_buffer,,null,,,,,,,,,,,,,,,,,,
2169,,recognition_phase,1099103,North Arroya,,49,,,,,,old,1,1,,,,,,,,,,
null,,confidence_buffer,1099204,confidence_buffer,,null,,,,,,,,,,,,,,,,,,
null,,thebreak,1099706,break,,null,,,,,,,,,,,,,,,,,,
23052,,realistic_rating,1122759,Westridge,,51,Westridge,Fictional,3,,,,,,,,,,,,,,,
null,,confidence_buffer,1122860,confidence_buffer,,null,,,,,,,,,,,,,,,,,,
1250,,pt2_unique_rating,1124111,Westridge,,51,,,3,,,,,,,,,,,,,,,
null,,confidence_buffer,1124212,confidence_buffer,,null,,,,,,,,,,,,,,,,,,
5033,,pt2_memorable_rating,1129247,Westridge,,51,,,3,,,,,,,,,,,,,,,
null,,confidence_buffer,1129349,confidence_buffer,,null,,,,,,,,,,,,,,,,,,
2312,,recognition_phase,1131663,Westridge,,49,,,,,,old,1,1,,,,,,,,,,
null,,confidence_buffer,1131764,confidence_buffer,,null,,,,,,,,,,,,,,,,,,
null,,thebreak,1132266,break,,null,,,,,,,,,,,,,,,,,,
5190,,realistic_rating,1137458,Lake of the Ozarks,,52,Lake of the Ozarks,US,4,,,,,,,,,,,,,,,
null,,confidence_buffer,1137559,confidence_buffer,,null,,,,,,,,,,,,,,,,,,
1648,,pt2_unique_rating,1139207,Lake of the Ozarks,,52,,,4,,,,,,,,,,,,,,,
null,,confidence_buffer,1139308,confidence_buffer,,null,,,,,,,,,,,,,,,,,,
3116,,pt2_memorable_rating,1142425,Lake of the Ozarks,,52,,,4,,,,,,,,,,,,,,,
null,,confidence_buffer,1142526,confidence_buffer,,null,,,,,,,,,,,,,,,,,,
1776,,recognition_phase,1144304,Lake of the Ozarks,,49,,,,,,old,1,1,,,,,,,,,,
null,,confidence_buffer,1144407,confidence_buffer,,null,,,,,,,,,,,,,,,,,,
null,,thebreak,1144908,break,,null,,,,,,,,,,,,,,,,,,
8217,,realistic_rating,1153126,Coralridge,,52,Coralridge,Fictional,4,,,,,,,,,,,,,,,
null,,confidence_buffer,1153228,confidence_buffer,,null,,,,,,,,,,,,,,,,,,
3434,,pt2_unique_rating,1156663,Coralridge,,51,,,3,,,,,,,,,,,,,,,
null,,confidence_buffer,1156764,confidence_buffer,,null,,,,,,,,,,,,,,,,,,
3489,,pt2_memorable_rating,1160254,Coralridge,,50,,,2,,,,,,,,,,,,,,,
null,,confidence_buffer,1160356,confidence_buffer,,null,,,,,,,,,,,,,,,,,,
3641,,recognition_phase,1163999,Coralridge,,50,,,,,,old,0,0.8571428571428571,,,,,,,,,,
null,,confidence_buffer,1164100,confidence_buffer,,null,,,,,,,,,,,,,,,,,,
null,,thebreak,1164602,break,,null,,,,,,,,,,,,,,,,,,
5812,,realistic_rating,1170414,Solara Glen,,52,Solara Glen,Fictional,4,,,,,,,,,,,,,,,
null,,confidence_buffer,1170518,confidence_buffer,,null,,,,,,,,,,,,,,,,,,
3857,,pt2_unique_rating,1174375,Solara Glen,,53,,,5,,,,,,,,,,,,,,,
null,,confidence_buffer,1174475,confidence_buffer,,null,,,,,,,,,,,,,,,,,,
3891,,pt2_memorable_rating,1178367,Solara Glen,,53,,,5,,,,,,,,,,,,,,,
null,,confidence_buffer,1178468,confidence_buffer,,null,,,,,,,,,,,,,,,,,,
2035,,recognition_phase,1180503,Solara Glen,,49,,,,,,old,1,0.875,,,,,,,,,,
null,,confidence_buffer,1180604,confidence_buffer,,null,,,,,,,,,,,,,,,,,,
null,,thebreak,1181105,break,,null,,,,,,,,,,,,,,,,,,
6053,,realistic_rating,1187159,Boulder,,53,Boulder,US,5,,,,,,,,,,,,,,,
null,,confidence_buffer,1187260,confidence_buffer,,null,,,,,,,,,,,,,,,,,,
2883,,pt2_unique_rating,1190145,Boulder,,51,,,3,,,,,,,,,,,,,,,
null,,confidence_buffer,1190246,confidence_buffer,,null,,,,,,,,,,,,,,,,,,
2600,,pt2_memorable_rating,1192847,Boulder,,51,,,3,,,,,,,,,,,,,,,
null,,confidence_buffer,1192948,confidence_buffer,,null,,,,,,,,,,,,,,,,,,
5075,,recognition_phase,1198023,Boulder,,52,,,,,,new,1,0.8888888888888888,,,,,,,,,,
null,,confidence_buffer,1198124,confidence_buffer,,null,,,,,,,,,,,,,,,,,,
null,,thebreak,1198626,break,,null,,,,,,,,,,,,,,,,,,
10869,,realistic_rating,1209496,Newport,,53,Newport,US,5,,,,,,,,,,,,,,,
null,,confidence_buffer,1209597,confidence_buffer,,null,,,,,,,,,,,,,,,,,,
3466,,pt2_unique_rating,1213063,Newport,,51,,,3,,,,,,,,,,,,,,,
null,,confidence_buffer,1213164,confidence_buffer,,null,,,,,,,,,,,,,,,,,,
2458,,pt2_memorable_rating,1215623,Newport,,51,,,3,,,,,,,,,,,,,,,
null,,confidence_buffer,1215724,confidence_buffer,,null,,,,,,,,,,,,,,,,,,
2057,,probe_rating,1217783,probe_rating,,53,,,,5,1,,,,,,,,,,,,,
null,,confidence_buffer,1217886,confidence_buffer,,null,,,,,,,,,,,,,,,,,,
2593,,recognition_phase,1220479,Newport,,49,,,,,,old,1,0.9,,,,,,,,,,
null,,confidence_buffer,1220579,confidence_buffer,,null,,,,,,,,,,,,,,,,,,
null,,thebreak,1221081,break,,null,,,,,,,,,,,,,,,,,,
4476,,realistic_rating,1225559,Fairhaven,,53,Fairhaven,Fictional,5,,,,,,,,,,,,,,,
null,,confidence_buffer,1225660,confidence_buffer,,null,,,,,,,,,,,,,,,,,,
2858,,pt2_unique_rating,1228519,Fairhaven,,51,,,3,,,,,,,,,,,,,,,
null,,confidence_buffer,1228621,confidence_buffer,,null,,,,,,,,,,,,,,,,,,
3026,,pt2_memorable_rating,1231647,Fairhaven,,51,,,3,,,,,,,,,,,,,,,
null,,confidence_buffer,1231748,confidence_buffer,,null,,,,,,,,,,,,,,,,,,
1810,,recognition_phase,1233560,Fairhaven,,49,,,,,,old,0,0.8181818181818182,,,,,,,,,,
null,,confidence_buffer,1233661,confidence_buffer,,null,,,,,,,,,,,,,,,,,,
null,,thebreak,1234162,break,,null,,,,,,,,,,,,,,,,,,
10677,,realistic_rating,1244839,Assateague Island,,50,Assateague Island,US,2,,,,,,,,,,,,,,,
null,,confidence_buffer,1244941,confidence_buffer,,null,,,,,,,,,,,,,,,,,,
3129,,pt2_unique_rating,1248072,Assateague Island,,53,,,5,,,,,,,,,,,,,,,
null,,confidence_buffer,1248174,confidence_buffer,,null,,,,,,,,,,,,,,,,,,
3625,,pt2_memorable_rating,1251800,Assateague Island,,53,,,5,,,,,,,,,,,,,,,
null,,confidence_buffer,1251901,confidence_buffer,,null,,,,,,,,,,,,,,,,,,
2794,,probe_rating,1254695,probe_rating,,53,,,,5,1,,,,,,,,,,,,,
null,,confidence_buffer,1254798,confidence_buffer,,null,,,,,,,,,,,,,,,,,,
3681,,recognition_phase,1258480,Assateague Island,,52,,,,,,new,1,0.8333333333333334,,,,,,,,,,
null,,confidence_buffer,1258581,confidence_buffer,,null,,,,,,,,,,,,,,,,,,
null,,thebreak,1259084,break,,null,,,,,,,,,,,,,,,,,,
11018,,realistic_rating,1270104,Tamarisk Hills,,52,Tamarisk Hills,Fictional,4,,,,,,,,,,,,,,,
null,,confidence_buffer,1270205,confidence_buffer,,null,,,,,,,,,,,,,,,,,,
2602,,pt2_unique_rating,1272808,Tamarisk Hills,,52,,,4,,,,,,,,,,,,,,,
null,,confidence_buffer,1272909,confidence_buffer,,null,,,,,,,,,,,,,,,,,,
1042,,pt2_memorable_rating,1273952,Tamarisk Hills,,52,,,4,,,,,,,,,,,,,,,
null,,confidence_buffer,1274053,confidence_buffer,,null,,,,,,,,,,,,,,,,,,
2233,,recognition_phase,1276287,Tamarisk Hills,,49,,,,,,old,1,0.8461538461538461,,,,,,,,,,
null,,confidence_buffer,1276390,confidence_buffer,,null,,,,,,,,,,,,,,,,,,
null,,thebreak,1276892,break,,null,,,,,,,,,,,,,,,,,,
7147,,realistic_rating,1284039,Silverpine,,51,Silverpine,Fictional,3,,,,,,,,,,,,,,,
null,,confidence_buffer,1284141,confidence_buffer,,null,,,,,,,,,,,,,,,,,,
3618,,pt2_unique_rating,1287759,Silverpine,,50,,,2,,,,,,,,,,,,,,,
null,,confidence_buffer,1287860,confidence_buffer,,null,,,,,,,,,,,,,,,,,,
1666,,pt2_memorable_rating,1289527,Silverpine,,50,,,2,,,,,,,,,,,,,,,
null,,confidence_buffer,1289629,confidence_buffer,,null,,,,,,,,,,,,,,,,,,
3129,,recognition_phase,1292760,Silverpine,,52,,,,,,new,1,0.8571428571428571,,,,,,,,,,
null,,confidence_buffer,1292860,confidence_buffer,,null,,,,,,,,,,,,,,,,,,
null,,thebreak,1293361,break,,null,,,,,,,,,,,,,,,,,,
6125,,realistic_rating,1299488,Elmsbury,,52,Elmsbury,Fictional,4,,,,,,,,,,,,,,,
null,,confidence_buffer,1299590,confidence_buffer,,null,,,,,,,,,,,,,,,,,,
3195,,pt2_unique_rating,1302786,Elmsbury,,51,,,3,,,,,,,,,,,,,,,
null,,confidence_buffer,1302887,confidence_buffer,,null,,,,,,,,,,,,,,,,,,
1878,,pt2_memorable_rating,1304767,Elmsbury,,51,,,3,,,,,,,,,,,,,,,
null,,confidence_buffer,1304870,confidence_buffer,,null,,,,,,,,,,,,,,,,,,
2932,,recognition_phase,1307803,Elmsbury,,52,,,,,,new,1,0.8666666666666667,,,,,,,,,,
null,,confidence_buffer,1307904,confidence_buffer,,null,,,,,,,,,,,,,,,,,,
null,,thebreak,1308405,break,,null,,,,,,,,,,,,,,,,,,
5754,,realistic_rating,1314160,Hilo,,52,Hilo,US,4,,,,,,,,,,,,,,,
null,,confidence_buffer,1314261,confidence_buffer,,null,,,,,,,,,,,,,,,,,,
2601,,pt2_unique_rating,1316864,Hilo,,51,,,3,,,,,,,,,,,,,,,
null,,confidence_buffer,1316965,confidence_buffer,,null,,,,,,,,,,,,,,,,,,
2690,,pt2_memorable_rating,1319656,Hilo,,51,,,3,,,,,,,,,,,,,,,
null,,confidence_buffer,1319758,confidence_buffer,,null,,,,,,,,,,,,,,,,,,
2761,,recognition_phase,1322521,Hilo,,49,,,,,,old,1,0.875,,,,,,,,,,
null,,confidence_buffer,1322622,confidence_buffer,,null,,,,,,,,,,,,,,,,,,
null,,thebreak,1323123,break,,null,,,,,,,,,,,,,,,,,,
16635,,realistic_rating,1339759,Golden Trace,,52,Golden Trace,Fictional,4,,,,,,,,,,,,,,,
null,,confidence_buffer,1339861,confidence_buffer,,null,,,,,,,,,,,,,,,,,,
1249,,pt2_unique_rating,1341112,Golden Trace,,52,,,4,,,,,,,,,,,,,,,
null,,confidence_buffer,1341214,confidence_buffer,,null,,,,,,,,,,,,,,,,,,
3577,,pt2_memorable_rating,1344793,Golden Trace,,52,,,4,,,,,,,,,,,,,,,
null,,confidence_buffer,1344895,confidence_buffer,,null,,,,,,,,,,,,,,,,,,
5863,,recognition_phase,1350760,Golden Trace,,52,,,,,,new,1,0.8823529411764706,,,,,,,,,,
null,,confidence_buffer,1350861,confidence_buffer,,null,,,,,,,,,,,,,,,,,,
null,,thebreak,1351362,break,,null,,,,,,,,,,,,,,,,,,
9710,,realistic_rating,1361072,Berkeley Springs,,51,Berkeley Springs,US,3,,,,,,,,,,,,,,,
null,,confidence_buffer,1361174,confidence_buffer,,null,,,,,,,,,,,,,,,,,,
1289,,pt2_unique_rating,1362464,Berkeley Springs,,51,,,3,,,,,,,,,,,,,,,
null,,confidence_buffer,1362565,confidence_buffer,,null,,,,,,,,,,,,,,,,,,
1377,,pt2_memorable_rating,1363944,Berkeley Springs,,51,,,3,,,,,,,,,,,,,,,
null,,confidence_buffer,1364045,confidence_buffer,,null,,,,,,,,,,,,,,,,,,
4107,,recognition_phase,1368152,Berkeley Springs,,52,,,,,,new,1,0.8888888888888888,,,,,,,,,,
null,,confidence_buffer,1368252,confidence_buffer,,null,,,,,,,,,,,,,,,,,,
null,,thebreak,1368754,break,,null,,,,,,,,,,,,,,,,,,
6613,,realistic_rating,1375368,Abilene,,53,Abilene,US,5,,,,,,,,,,,,,,,
null,,confidence_buffer,1375470,confidence_buffer,,null,,,,,,,,,,,,,,,,,,
3256,,pt2_unique_rating,1378728,Abilene,,51,,,3,,,,,,,,,,,,,,,
null,,confidence_buffer,1378828,confidence_buffer,,null,,,,,,,,,,,,,,,,,,
2987,,pt2_memorable_rating,1381818,Abilene,,51,,,3,,,,,,,,,,,,,,,
null,,confidence_buffer,1381920,confidence_buffer,,null,,,,,,,,,,,,,,,,,,
1759,,recognition_phase,1383680,Abilene,,49,,,,,,old,1,0.8947368421052632,,,,,,,,,,
null,,confidence_buffer,1383781,confidence_buffer,,null,,,,,,,,,,,,,,,,,,
null,,thebreak,1384282,break,,null,,,,,,,,,,,,,,,,,,
6525,,realistic_rating,1390807,Alliance,,51,Alliance,US,3,,,,,,,,,,,,,,,
null,,confidence_buffer,1390910,confidence_buffer,,null,,,,,,,,,,,,,,,,,,
3410,,pt2_unique_rating,1394319,Alliance,,51,,,3,,,,,,,,,,,,,,,
null,,confidence_buffer,1394421,confidence_buffer,,null,,,,,,,,,,,,,,,,,,
2434,,pt2_memorable_rating,1396855,Alliance,,51,,,3,,,,,,,,,,,,,,,
null,,confidence_buffer,1396959,confidence_buffer,,null,,,,,,,,,,,,,,,,,,
2545,,recognition_phase,1399504,Alliance,,49,,,,,,old,1,0.9,,,,,,,,,,
null,,confidence_buffer,1399605,confidence_buffer,,null,,,,,,,,,,,,,,,,,,
null,,thebreak,1400106,break,,null,,,,,,,,,,,,,,,,,,
25206,,realistic_rating,1425312,West Palm Beach,,53,West Palm Beach,US,5,,,,,,,,,,,,,,,
null,,confidence_buffer,1425415,confidence_buffer,,null,,,,,,,,,,,,,,,,,,
2921,,pt2_unique_rating,1428336,West Palm Beach,,53,,,5,,,,,,,,,,,,,,,
null,,confidence_buffer,1428438,confidence_buffer,,null,,,,,,,,,,,,,,,,,,
2268,,pt2_memorable_rating,1430706,West Palm Beach,,53,,,5,,,,,,,,,,,,,,,
null,,confidence_buffer,1430809,confidence_buffer,,null,,,,,,,,,,,,,,,,,,
5712,,recognition_phase,1436521,West Palm Beach,,52,,,,,,new,1,0.9047619047619048,,,,,,,,,,
null,,confidence_buffer,1436624,confidence_buffer,,null,,,,,,,,,,,,,,,,,,
null,,thebreak,1437124,break,,null,,,,,,,,,,,,,,,,,,
4819,,realistic_rating,1441944,Custer,,51,Custer,US,3,,,,,,,,,,,,,,,
null,,confidence_buffer,1442045,confidence_buffer,,null,,,,,,,,,,,,,,,,,,
3978,,pt2_unique_rating,1446024,Custer,,50,,,2,,,,,,,,,,,,,,,
null,,confidence_buffer,1446126,confidence_buffer,,null,,,,,,,,,,,,,,,,,,
2817,,pt2_memorable_rating,1448945,Custer,,50,,,2,,,,,,,,,,,,,,,
null,,confidence_buffer,1449046,confidence_buffer,,null,,,,,,,,,,,,,,,,,,
4003,,recognition_phase,1453049,Custer,,52,,,,,,new,1,0.9090909090909091,,,,,,,,,,
null,,confidence_buffer,1453151,confidence_buffer,,null,,,,,,,,,,,,,,,,,,
null,,thebreak,1453652,break,,null,,,,,,,,,,,,,,,,,,
6908,,realistic_rating,1460559,Gatlinburg,,52,Gatlinburg,US,4,,,,,,,,,,,,,,,
null,,confidence_buffer,1460661,confidence_buffer,,null,,,,,,,,,,,,,,,,,,
3946,,pt2_unique_rating,1464608,Gatlinburg,,52,,,4,,,,,,,,,,,,,,,
null,,confidence_buffer,1464711,confidence_buffer,,null,,,,,,,,,,,,,,,,,,
1265,,pt2_memorable_rating,1465976,Gatlinburg,,52,,,4,,,,,,,,,,,,,,,
null,,confidence_buffer,1466078,confidence_buffer,,null,,,,,,,,,,,,,,,,,,
1873,,recognition_phase,1467953,Gatlinburg,,49,,,,,,old,1,0.9130434782608695,,,,,,,,,,
null,,confidence_buffer,1468054,confidence_buffer,,null,,,,,,,,,,,,,,,,,,
null,,thebreak,1468555,break,,null,,,,,,,,,,,,,,,,,,
7604,,realistic_rating,1476160,New Hope,,51,New Hope,US,3,,,,,,,,,,,,,,,
null,,confidence_buffer,1476263,confidence_buffer,,null,,,,,,,,,,,,,,,,,,
2320,,pt2_unique_rating,1478585,New Hope,,51,,,3,,,,,,,,,,,,,,,
null,,confidence_buffer,1478685,confidence_buffer,,null,,,,,,,,,,,,,,,,,,
2842,,pt2_memorable_rating,1481528,New Hope,,50,,,2,,,,,,,,,,,,,,,
null,,confidence_buffer,1481629,confidence_buffer,,null,,,,,,,,,,,,,,,,,,
2602,,recognition_phase,1484232,New Hope,,52,,,,,,new,1,0.9166666666666666,,,,,,,,,,
null,,confidence_buffer,1484333,confidence_buffer,,null,,,,,,,,,,,,,,,,,,
null,,thebreak,1484835,break,,null,,,,,,,,,,,,,,,,,,
22972,,realistic_rating,1507808,Coeur d'Alene,,52,Coeur d'Alene,US,4,,,,,,,,,,,,,,,
null,,confidence_buffer,1507910,confidence_buffer,,null,,,,,,,,,,,,,,,,,,
2315,,pt2_unique_rating,1510224,Coeur d'Alene,,53,,,5,,,,,,,,,,,,,,,
null,,confidence_buffer,1510325,confidence_buffer,,null,,,,,,,,,,,,,,,,,,
1498,,probe_rating,1511824,probe_rating,,49,,,,1,1,,,,,,,,,,,,,
null,,confidence_buffer,1511926,confidence_buffer,,null,,,,,,,,,,,,,,,,,,
2220,,pt2_memorable_rating,1514148,Coeur d'Alene,,53,,,5,,,,,,,,,,,,,,,
null,,confidence_buffer,1514250,confidence_buffer,,null,,,,,,,,,,,,,,,,,,
2896,,recognition_phase,1517146,Coeur d'Alene,,52,,,,,,new,1,0.92,,,,,,,,,,
null,,confidence_buffer,1517246,confidence_buffer,,null,,,,,,,,,,,,,,,,,,
null,,thebreak,1517747,break,,null,,,,,,,,,,,,,,,,,,
5796,,realistic_rating,1523545,Crestwood,,52,Crestwood,Fictional,4,,,,,,,,,,,,,,,
null,,confidence_buffer,1523647,confidence_buffer,,null,,,,,,,,,,,,,,,,,,
2184,,pt2_unique_rating,1525833,Crestwood,,51,,,3,,,,,,,,,,,,,,,
null,,confidence_buffer,1525935,confidence_buffer,,null,,,,,,,,,,,,,,,,,,
1320,,pt2_memorable_rating,1527256,Crestwood,,52,,,4,,,,,,,,,,,,,,,
null,,confidence_buffer,1527358,confidence_buffer,,null,,,,,,,,,,,,,,,,,,
2249,,recognition_phase,1529609,Crestwood,,49,,,,,,old,1,0.9230769230769231,,,,,,,,,,
null,,confidence_buffer,1529710,confidence_buffer,,null,,,,,,,,,,,,,,,,,,
null,,thebreak,1530213,break,,null,,,,,,,,,,,,,,,,,,
5954,,realistic_rating,1536168,Sitka,,51,Sitka,US,3,,,,,,,,,,,,,,,
null,,confidence_buffer,1536269,confidence_buffer,,null,,,,,,,,,,,,,,,,,,
1453,,probe_rating,1537723,probe_rating,,49,,,,1,1,,,,,,,,,,,,,
null,,confidence_buffer,1537825,confidence_buffer,,null,,,,,,,,,,,,,,,,,,
3086,,pt2_unique_rating,1540913,Sitka,,51,,,3,,,,,,,,,,,,,,,
null,,confidence_buffer,1541015,confidence_buffer,,null,,,,,,,,,,,,,,,,,,
3335,,pt2_memorable_rating,1544353,Sitka,,51,,,3,,,,,,,,,,,,,,,
null,,confidence_buffer,1544455,confidence_buffer,,null,,,,,,,,,,,,,,,,,,
1728,,recognition_phase,1546184,Sitka,,49,,,,,,old,1,0.9259259259259259,,,,,,,,,,
null,,confidence_buffer,1546286,confidence_buffer,,null,,,,,,,,,,,,,,,,,,
null,,thebreak,1546787,break,,null,,,,,,,,,,,,,,,,,,
7548,,realistic_rating,1554337,Sisters,,49,Sisters,US,1,,,,,,,,,,,,,,,
null,,confidence_buffer,1554437,confidence_buffer,,null,,,,,,,,,,,,,,,,,,
4170,,pt2_unique_rating,1558609,Sisters,,53,,,5,,,,,,,,,,,,,,,
null,,confidence_buffer,1558711,confidence_buffer,,null,,,,,,,,,,,,,,,,,,
1705,,pt2_memorable_rating,1560417,Sisters,,53,,,5,,,,,,,,,,,,,,,
null,,confidence_buffer,1560517,confidence_buffer,,null,,,,,,,,,,,,,,,,,,
2825,,recognition_phase,1563345,Sisters,,52,,,,,,new,1,0.9285714285714286,,,,,,,,,,
null,,confidence_buffer,1563446,confidence_buffer,,null,,,,,,,,,,,,,,,,,,
null,,thebreak,1563947,break,,null,,,,,,,,,,,,,,,,,,
5413,,realistic_rating,1569361,Bowling Green,,53,Bowling Green,US,5,,,,,,,,,,,,,,,
null,,confidence_buffer,1569464,confidence_buffer,,null,,,,,,,,,,,,,,,,,,
2639,,pt2_unique_rating,1572104,Bowling Green,,51,,,3,,,,,,,,,,,,,,,
null,,confidence_buffer,1572206,confidence_buffer,,null,,,,,,,,,,,,,,,,,,
2386,,pt2_memorable_rating,1574593,Bowling Green,,52,,,4,,,,,,,,,,,,,,,
null,,confidence_buffer,1574695,confidence_buffer,,null,,,,,,,,,,,,,,,,,,
2128,,recognition_phase,1576824,Bowling Green,,49,,,,,,old,1,0.9310344827586207,,,,,,,,,,
null,,confidence_buffer,1576927,confidence_buffer,,null,,,,,,,,,,,,,,,,,,
null,,thebreak,1577429,break,,null,,,,,,,,,,,,,,,,,,
13267,,realistic_rating,1590697,Orr,,51,Orr,US,3,,,,,,,,,,,,,,,
null,,confidence_buffer,1590798,confidence_buffer,,null,,,,,,,,,,,,,,,,,,
2817,,pt2_unique_rating,1593617,Orr,,51,,,3,,,,,,,,,,,,,,,
null,,confidence_buffer,1593718,confidence_buffer,,null,,,,,,,,,,,,,,,,,,
1962,,pt2_memorable_rating,1595680,Orr,,51,,,3,,,,,,,,,,,,,,,
null,,confidence_buffer,1595782,confidence_buffer,,null,,,,,,,,,,,,,,,,,,
2973,,recognition_phase,1598755,Orr,,52,,,,,,new,1,0.9333333333333333,,,,,,,,,,
null,,confidence_buffer,1598856,confidence_buffer,,null,,,,,,,,,,,,,,,,,,
null,,thebreak,1599359,break,,null,,,,,,,,,,,,,,,,,,
3730,,realistic_rating,1603088,Leesburg,,53,Leesburg,US,5,,,,,,,,,,,,,,,
null,,confidence_buffer,1603190,confidence_buffer,,null,,,,,,,,,,,,,,,,,,
3633,,pt2_unique_rating,1606825,Leesburg,,51,,,3,,,,,,,,,,,,,,,
null,,confidence_buffer,1606926,confidence_buffer,,null,,,,,,,,,,,,,,,,,,
3923,,pt2_memorable_rating,1610850,Leesburg,,52,,,4,,,,,,,,,,,,,,,
null,,confidence_buffer,1610952,confidence_buffer,,null,,,,,,,,,,,,,,,,,,
2744,,recognition_phase,1613697,Leesburg,,49,,,,,,old,1,0.9354838709677419,,,,,,,,,,
null,,confidence_buffer,1613798,confidence_buffer,,null,,,,,,,,,,,,,,,,,,
null,,thebreak,1614300,break,,null,,,,,,,,,,,,,,,,,,
8941,,realistic_rating,1623241,Athens,,53,Athens,US,5,,,,,,,,,,,,,,,
null,,confidence_buffer,1623343,confidence_buffer,,null,,,,,,,,,,,,,,,,,,
3242,,pt2_unique_rating,1626585,Athens,,51,,,3,,,,,,,,,,,,,,,
null,,confidence_buffer,1626686,confidence_buffer,,null,,,,,,,,,,,,,,,,,,
2506,,pt2_memorable_rating,1629193,Athens,,51,,,3,,,,,,,,,,,,,,,
null,,confidence_buffer,1629295,confidence_buffer,,null,,,,,,,,,,,,,,,,,,
2385,,recognition_phase,1631681,Athens,,49,,,,,,old,1,0.9375,,,,,,,,,,
null,,confidence_buffer,1631782,confidence_buffer,,null,,,,,,,,,,,,,,,,,,
null,,thebreak,1632285,break,,null,,,,,,,,,,,,,,,,,,
6387,,realistic_rating,1638673,Ravenport,,51,Ravenport,Fictional,3,,,,,,,,,,,,,,,
null,,confidence_buffer,1638774,confidence_buffer,,null,,,,,,,,,,,,,,,,,,
2145,,pt2_unique_rating,1640921,Ravenport,,52,,,4,,,,,,,,,,,,,,,
null,,confidence_buffer,1641022,confidence_buffer,,null,,,,,,,,,,,,,,,,,,
1234,,pt2_memorable_rating,1642257,Ravenport,,52,,,4,,,,,,,,,,,,,,,
null,,confidence_buffer,1642357,confidence_buffer,,null,,,,,,,,,,,,,,,,,,
2017,,recognition_phase,1644377,Ravenport,,49,,,,,,old,1,0.9393939393939394,,,,,,,,,,
null,,confidence_buffer,1644478,confidence_buffer,,null,,,,,,,,,,,,,,,,,,
null,,thebreak,1644979,break,,null,,,,,,,,,,,,,,,,,,
10029,,realistic_rating,1655010,Redgrove,,51,Redgrove,Fictional,3,,,,,,,,,,,,,,,
null,,confidence_buffer,1655110,confidence_buffer,,null,,,,,,,,,,,,,,,,,,
1208,,pt2_unique_rating,1656321,Redgrove,,51,,,3,,,,,,,,,,,,,,,
null,,confidence_buffer,1656422,confidence_buffer,,null,,,,,,,,,,,,,,,,,,
1355,,pt2_memorable_rating,1657777,Redgrove,,51,,,3,,,,,,,,,,,,,,,
null,,confidence_buffer,1657879,confidence_buffer,,null,,,,,,,,,,,,,,,,,,
2849,,recognition_phase,1660729,Redgrove,,52,,,,,,new,1,0.9411764705882353,,,,,,,,,,
null,,confidence_buffer,1660831,confidence_buffer,,null,,,,,,,,,,,,,,,,,,
null,,thebreak,1661335,break,,null,,,,,,,,,,,,,,,,,,
5026,,realistic_rating,1666361,New Verdan,,51,New Verdan,Fictional,3,,,,,,,,,,,,,,,
null,,confidence_buffer,1666462,confidence_buffer,,null,,,,,,,,,,,,,,,,,,
2578,,pt2_unique_rating,1669040,New Verdan,,52,,,4,,,,,,,,,,,,,,,
null,,confidence_buffer,1669142,confidence_buffer,,null,,,,,,,,,,,,,,,,,,
4602,,pt2_memorable_rating,1673745,New Verdan,,51,,,3,,,,,,,,,,,,,,,
null,,confidence_buffer,1673847,confidence_buffer,,null,,,,,,,,,,,,,,,,,,
2288,,recognition_phase,1676137,New Verdan,,49,,,,,,old,1,0.9428571428571428,,,,,,,,,,
null,,confidence_buffer,1676240,confidence_buffer,,null,,,,,,,,,,,,,,,,,,
null,,thebreak,1676741,break,,null,,,,,,,,,,,,,,,,,,
7156,,realistic_rating,1683897,Bisbee,,52,Bisbee,US,4,,,,,,,,,,,,,,,
null,,confidence_buffer,1683998,confidence_buffer,,null,,,,,,,,,,,,,,,,,,
3746,,pt2_unique_rating,1687745,Bisbee,,52,,,4,,,,,,,,,,,,,,,
null,,confidence_buffer,1687846,confidence_buffer,,null,,,,,,,,,,,,,,,,,,
3394,,pt2_memorable_rating,1691242,Bisbee,,51,,,3,,,,,,,,,,,,,,,
null,,confidence_buffer,1691343,confidence_buffer,,null,,,,,,,,,,,,,,,,,,
3120,,recognition_phase,1694465,Bisbee,,52,,,,,,new,1,0.9444444444444444,,,,,,,,,,
null,,confidence_buffer,1694567,confidence_buffer,,null,,,,,,,,,,,,,,,,,,
null,,thebreak,1695069,break,,null,,,,,,,,,,,,,,,,,,
5853,,realistic_rating,1700921,Manistee,,51,Manistee,US,3,,,,,,,,,,,,,,,
null,,confidence_buffer,1701024,confidence_buffer,,null,,,,,,,,,,,,,,,,,,
3192,,pt2_unique_rating,1704218,Manistee,,51,,,3,,,,,,,,,,,,,,,
null,,confidence_buffer,1704319,confidence_buffer,,null,,,,,,,,,,,,,,,,,,
1665,,pt2_memorable_rating,1705985,Manistee,,52,,,4,,,,,,,,,,,,,,,
null,,confidence_buffer,1706087,confidence_buffer,,null,,,,,,,,,,,,,,,,,,
1801,,recognition_phase,1707889,Manistee,,49,,,,,,old,1,0.9459459459459459,,,,,,,,,,
null,,confidence_buffer,1707990,confidence_buffer,,null,,,,,,,,,,,,,,,,,,
null,,thebreak,1708491,break,,null,,,,,,,,,,,,,,,,,,
4921,,realistic_rating,1713413,Hollendale,,52,Hollendale,Fictional,4,,,,,,,,,,,,,,,
null,,confidence_buffer,1713515,confidence_buffer,,null,,,,,,,,,,,,,,,,,,
2117,,pt2_unique_rating,1715633,Hollendale,,51,,,3,,,,,,,,,,,,,,,
null,,confidence_buffer,1715734,confidence_buffer,,null,,,,,,,,,,,,,,,,,,
3273,,pt2_memorable_rating,1719010,Hollendale,,51,,,3,,,,,,,,,,,,,,,
null,,confidence_buffer,1719112,confidence_buffer,,null,,,,,,,,,,,,,,,,,,
6785,,recognition_phase,1725897,Hollendale,,52,,,,,,new,1,0.9473684210526315,,,,,,,,,,
null,,confidence_buffer,1725998,confidence_buffer,,null,,,,,,,,,,,,,,,,,,
null,,thebreak,1726500,break,,null,,,,,,,,,,,,,,,,,,
7293,,realistic_rating,1733793,Albuquerque,,53,Albuquerque,US,5,,,,,,,,,,,,,,,
null,,confidence_buffer,1733896,confidence_buffer,,null,,,,,,,,,,,,,,,,,,
1856,,pt2_unique_rating,1735753,Albuquerque,,53,,,5,,,,,,,,,,,,,,,
null,,confidence_buffer,1735855,confidence_buffer,,null,,,,,,,,,,,,,,,,,,
1836,,probe_rating,1737691,probe_rating,,50,,,,2,1,,,,,,,,,,,,,
null,,confidence_buffer,1737793,confidence_buffer,,null,,,,,,,,,,,,,,,,,,
2664,,pt2_memorable_rating,1740458,Albuquerque,,53,,,5,,,,,,,,,,,,,,,
null,,confidence_buffer,1740561,confidence_buffer,,null,,,,,,,,,,,,,,,,,,
7311,,recognition_phase,1747873,Albuquerque,,49,,,,,,old,0,0.9230769230769231,,,,,,,,,,
null,,confidence_buffer,1747975,confidence_buffer,,null,,,,,,,,,,,,,,,,,,
null,,thebreak,1748476,break,,null,,,,,,,,,,,,,,,,,,
12909,,realistic_rating,1761386,Falconridge,,52,Falconridge,Fictional,4,,,,,,,,,,,,,,,
null,,confidence_buffer,1761486,confidence_buffer,,null,,,,,,,,,,,,,,,,,,
1882,,pt2_unique_rating,1763369,Falconridge,,52,,,4,,,,,,,,,,,,,,,
null,,confidence_buffer,1763470,confidence_buffer,,null,,,,,,,,,,,,,,,,,,
1306,,pt2_memorable_rating,1764777,Falconridge,,52,,,4,,,,,,,,,,,,,,,
null,,confidence_buffer,1764879,confidence_buffer,,null,,,,,,,,,,,,,,,,,,
3698,,recognition_phase,1768578,Falconridge,,52,,,,,,new,1,0.925,,,,,,,,,,
null,,confidence_buffer,1768680,confidence_buffer,,null,,,,,,,,,,,,,,,,,,
null,,thebreak,1769182,break,,null,,,,,,,,,,,,,,,,,,
4706,,realistic_rating,1773889,Clearbrook,,52,Clearbrook,Fictional,4,,,,,,,,,,,,,,,
null,,confidence_buffer,1773990,confidence_buffer,,null,,,,,,,,,,,,,,,,,,
2140,,pt2_unique_rating,1776133,Clearbrook,,51,,,3,,,,,,,,,,,,,,,
null,,confidence_buffer,1776235,confidence_buffer,,null,,,,,,,,,,,,,,,,,,
2022,,pt2_memorable_rating,1778258,Clearbrook,,51,,,3,,,,,,,,,,,,,,,
null,,confidence_buffer,1778359,confidence_buffer,,null,,,,,,,,,,,,,,,,,,
2672,,recognition_phase,1781034,Clearbrook,,49,,,,,,old,1,0.926829268292683,,,,,,,,,,
null,,confidence_buffer,1781137,confidence_buffer,,null,,,,,,,,,,,,,,,,,,
null,,thebreak,1781638,break,,null,,,,,,,,,,,,,,,,,,
7635,,realistic_rating,1789273,Linden Trace,,52,Linden Trace,Fictional,4,,,,,,,,,,,,,,,
null,,confidence_buffer,1789375,confidence_buffer,,null,,,,,,,,,,,,,,,,,,
1529,,pt2_unique_rating,1790905,Linden Trace,,52,,,4,,,,,,,,,,,,,,,
null,,confidence_buffer,1791006,confidence_buffer,,null,,,,,,,,,,,,,,,,,,
1717,,pt2_memorable_rating,1792724,Linden Trace,,52,,,4,,,,,,,,,,,,,,,
null,,confidence_buffer,1792825,confidence_buffer,,null,,,,,,,,,,,,,,,,,,
1671,,probe_rating,1794498,probe_rating,,53,,,,5,1,,,,,,,,,,,,,
null,,confidence_buffer,1794599,confidence_buffer,,null,,,,,,,,,,,,,,,,,,
3505,,recognition_phase,1798105,Linden Trace,,50,,,,,,old,1,0.9285714285714286,,,,,,,,,,
null,,confidence_buffer,1798208,confidence_buffer,,null,,,,,,,,,,,,,,,,,,
null,,thebreak,1798709,break,,null,,,,,,,,,,,,,,,,,,
5499,,realistic_rating,1804210,Duck,,51,Duck,US,3,,,,,,,,,,,,,,,
null,,confidence_buffer,1804313,confidence_buffer,,null,,,,,,,,,,,,,,,,,,
3034,,pt2_unique_rating,1807347,Duck,,51,,,3,,,,,,,,,,,,,,,
null,,confidence_buffer,1807449,confidence_buffer,,null,,,,,,,,,,,,,,,,,,
1519,,pt2_memorable_rating,1808969,Duck,,51,,,3,,,,,,,,,,,,,,,
null,,confidence_buffer,1809071,confidence_buffer,,null,,,,,,,,,,,,,,,,,,
2689,,recognition_phase,1811762,Duck,,52,,,,,,new,1,0.9302325581395349,,,,,,,,,,
null,,confidence_buffer,1811863,confidence_buffer,,null,,,,,,,,,,,,,,,,,,
null,,thebreak,1812364,break,,null,,,,,,,,,,,,,,,,,,
9444,,realistic_rating,1821809,Montelake,,52,Montelake,Fictional,4,,,,,,,,,,,,,,,
null,,confidence_buffer,1821911,confidence_buffer,,null,,,,,,,,,,,,,,,,,,
929,,pt2_unique_rating,1822841,Montelake,,52,,,4,,,,,,,,,,,,,,,
null,,confidence_buffer,1822943,confidence_buffer,,null,,,,,,,,,,,,,,,,,,
3860,,pt2_memorable_rating,1826805,Montelake,,52,,,4,,,,,,,,,,,,,,,
null,,confidence_buffer,1826907,confidence_buffer,,null,,,,,,,,,,,,,,,,,,
3150,,recognition_phase,1830058,Montelake,,52,,,,,,new,1,0.9318181818181818,,,,,,,,,,
null,,confidence_buffer,1830159,confidence_buffer,,null,,,,,,,,,,,,,,,,,,
null,,thebreak,1830661,break,,null,,,,,,,,,,,,,,,,,,
5228,,realistic_rating,1835890,Brookmere,,51,Brookmere,Fictional,3,,,,,,,,,,,,,,,
null,,confidence_buffer,1835990,confidence_buffer,,null,,,,,,,,,,,,,,,,,,
2282,,pt2_unique_rating,1838273,Brookmere,,51,,,3,,,,,,,,,,,,,,,
null,,confidence_buffer,1838375,confidence_buffer,,null,,,,,,,,,,,,,,,,,,
1394,,pt2_memorable_rating,1839770,Brookmere,,51,,,3,,,,,,,,,,,,,,,
null,,confidence_buffer,1839871,confidence_buffer,,null,,,,,,,,,,,,,,,,,,
2097,,recognition_phase,1841970,Brookmere,,49,,,,,,old,0,0.9111111111111111,,,,,,,,,,
null,,confidence_buffer,1842071,confidence_buffer,,null,,,,,,,,,,,,,,,,,,
null,,thebreak,1842572,break,,null,,,,,,,,,,,,,,,,,,
4772,,realistic_rating,1847345,Summershade,,52,Summershade,Fictional,4,,,,,,,,,,,,,,,
null,,confidence_buffer,1847447,confidence_buffer,,null,,,,,,,,,,,,,,,,,,
2282,,pt2_unique_rating,1849730,Summershade,,51,,,3,,,,,,,,,,,,,,,
null,,confidence_buffer,1849831,confidence_buffer,,null,,,,,,,,,,,,,,,,,,
1531,,pt2_memorable_rating,1851364,Summershade,,52,,,4,,,,,,,,,,,,,,,
null,,confidence_buffer,1851467,confidence_buffer,,null,,,,,,,,,,,,,,,,,,
2014,,recognition_phase,1853482,Summershade,,49,,,,,,old,1,0.9130434782608695,,,,,,,,,,
null,,confidence_buffer,1853584,confidence_buffer,,null,,,,,,,,,,,,,,,,,,
null,,thebreak,1854085,break,,null,,,,,,,,,,,,,,,,,,
7186,,realistic_rating,1861273,Bar Harbor,,53,Bar Harbor,US,5,,,,,,,,,,,,,,,
null,,confidence_buffer,1861375,confidence_buffer,,null,,,,,,,,,,,,,,,,,,
1283,,pt2_unique_rating,1862660,Bar Harbor,,53,,,5,,,,,,,,,,,,,,,
null,,confidence_buffer,1862762,confidence_buffer,,null,,,,,,,,,,,,,,,,,,
1295,,pt2_memorable_rating,1864058,Bar Harbor,,53,,,5,,,,,,,,,,,,,,,
null,,confidence_buffer,1864161,confidence_buffer,,null,,,,,,,,,,,,,,,,,,
3247,,recognition_phase,1867409,Bar Harbor,,52,,,,,,new,1,0.9148936170212766,,,,,,,,,,
null,,confidence_buffer,1867512,confidence_buffer,,null,,,,,,,,,,,,,,,,,,
null,,thebreak,1868015,break,,null,,,,,,,,,,,,,,,,,,
6026,,realistic_rating,1874042,Lakehaven,,52,Lakehaven,Fictional,4,,,,,,,,,,,,,,,
null,,confidence_buffer,1874144,confidence_buffer,,null,,,,,,,,,,,,,,,,,,
2353,,pt2_unique_rating,1876498,Lakehaven,,51,,,3,,,,,,,,,,,,,,,
null,,confidence_buffer,1876599,confidence_buffer,,null,,,,,,,,,,,,,,,,,,
1938,,pt2_memorable_rating,1878537,Lakehaven,,51,,,3,,,,,,,,,,,,,,,
null,,confidence_buffer,1878638,confidence_buffer,,null,,,,,,,,,,,,,,,,,,
1993,,recognition_phase,1880634,Lakehaven,,49,,,,,,old,1,0.9166666666666666,,,,,,,,,,
null,,confidence_buffer,1880735,confidence_buffer,,null,,,,,,,,,,,,,,,,,,
null,,thebreak,1881237,break,,null,,,,,,,,,,,,,,,,,,
3896,,realistic_rating,1885135,Gloucester,,53,Gloucester,US,5,,,,,,,,,,,,,,,
null,,confidence_buffer,1885241,confidence_buffer,,null,,,,,,,,,,,,,,,,,,
1495,,pt2_unique_rating,1886739,Gloucester,,53,,,5,,,,,,,,,,,,,,,
null,,confidence_buffer,1886840,confidence_buffer,,null,,,,,,,,,,,,,,,,,,
1857,,probe_rating,1888700,probe_rating,,53,,,,5,1,,,,,,,,,,,,,
null,,confidence_buffer,1888807,confidence_buffer,,null,,,,,,,,,,,,,,,,,,
4074,,pt2_memorable_rating,1892884,Gloucester,,53,,,5,,,,,,,,,,,,,,,
null,,confidence_buffer,1892985,confidence_buffer,,null,,,,,,,,,,,,,,,,,,
4039,,recognition_phase,1897026,Gloucester,,52,,,,,,new,1,0.9183673469387755,,,,,,,,,,
null,,confidence_buffer,1897128,confidence_buffer,,null,,,,,,,,,,,,,,,,,,
null,,thebreak,1897630,break,,null,,,,,,,,,,,,,,,,,,
7483,,realistic_rating,1905114,Highvale,,52,Highvale,Fictional,4,,,,,,,,,,,,,,,
null,,confidence_buffer,1905217,confidence_buffer,,null,,,,,,,,,,,,,,,,,,
2224,,pt2_unique_rating,1907442,Highvale,,51,,,3,,,,,,,,,,,,,,,
null,,confidence_buffer,1907544,confidence_buffer,,null,,,,,,,,,,,,,,,,,,
1409,,probe_rating,1908954,probe_rating,,49,,,,1,1,,,,,,,,,,,,,
null,,confidence_buffer,1909057,confidence_buffer,,null,,,,,,,,,,,,,,,,,,
1968,,pt2_memorable_rating,1911026,Highvale,,50,,,2,,,,,,,,,,,,,,,
null,,confidence_buffer,1911127,confidence_buffer,,null,,,,,,,,,,,,,,,,,,
2641,,recognition_phase,1913770,Highvale,,52,,,,,,new,1,0.92,,,,,,,,,,
null,,confidence_buffer,1913871,confidence_buffer,,null,,,,,,,,,,,,,,,,,,
null,,thebreak,1914373,break,,null,,,,,,,,,,,,,,,,,,
5444,,realistic_rating,1919819,Northbridge,,51,Northbridge,Fictional,3,,,,,,,,,,,,,,,
null,,confidence_buffer,1919919,confidence_buffer,,null,,,,,,,,,,,,,,,,,,
2266,,pt2_unique_rating,1922186,Northbridge,,51,,,3,,,,,,,,,,,,,,,
null,,confidence_buffer,1922288,confidence_buffer,,null,,,,,,,,,,,,,,,,,,
1649,,probe_rating,1923938,probe_rating,,53,,,,5,1,,,,,,,,,,,,,
null,,confidence_buffer,1924039,confidence_buffer,,null,,,,,,,,,,,,,,,,,,
2090,,pt2_memorable_rating,1926130,Northbridge,,51,,,3,,,,,,,,,,,,,,,
null,,confidence_buffer,1926232,confidence_buffer,,null,,,,,,,,,,,,,,,,,,
3217,,recognition_phase,1929450,Northbridge,,49,,,,,,old,0,0.9019607843137255,,,,,,,,,,
null,,confidence_buffer,1929551,confidence_buffer,,null,,,,,,,,,,,,,,,,,,
null,,thebreak,1930053,break,,null,,,,,,,,,,,,,,,,,,
10788,,realistic_rating,1940842,Driftwood Bay,,53,Driftwood Bay,Fictional,5,,,,,,,,,,,,,,,
null,,confidence_buffer,1940944,confidence_buffer,,null,,,,,,,,,,,,,,,,,,
2280,,pt2_unique_rating,1943226,Driftwood Bay,,53,,,5,,,,,,,,,,,,,,,
null,,confidence_buffer,1943328,confidence_buffer,,null,,,,,,,,,,,,,,,,,,
1812,,pt2_memorable_rating,1945142,Driftwood Bay,,53,,,5,,,,,,,,,,,,,,,
null,,confidence_buffer,1945246,confidence_buffer,,null,,,,,,,,,,,,,,,,,,
2827,,recognition_phase,1948074,Driftwood Bay,,49,,,,,,old,1,0.9038461538461539,,,,,,,,,,
null,,confidence_buffer,1948176,confidence_buffer,,null,,,,,,,,,,,,,,,,,,
null,,thebreak,1948679,break,,null,,,,,,,,,,,,,,,,,,
4371,,realistic_rating,1953051,Briarfield,,52,Briarfield,Fictional,4,,,,,,,,,,,,,,,
null,,confidence_buffer,1953153,confidence_buffer,,null,,,,,,,,,,,,,,,,,,
1992,,pt2_unique_rating,1955147,Briarfield,,52,,,4,,,,,,,,,,,,,,,
null,,confidence_buffer,1955248,confidence_buffer,,null,,,,,,,,,,,,,,,,,,
1177,,pt2_memorable_rating,1956426,Briarfield,,52,,,4,,,,,,,,,,,,,,,
null,,confidence_buffer,1956527,confidence_buffer,,null,,,,,,,,,,,,,,,,,,
6180,,recognition_phase,1962707,Briarfield,,51,,,,,,new,0,0.8867924528301887,,,,,,,,,,
null,,confidence_buffer,1962810,confidence_buffer,,null,,,,,,,,,,,,,,,,,,
null,,thebreak,1963312,break,,null,,,,,,,,,,,,,,,,,,
4697,,realistic_rating,1968010,Cornwall,,52,Cornwall,US,4,,,,,,,,,,,,,,,
null,,confidence_buffer,1968112,confidence_buffer,,null,,,,,,,,,,,,,,,,,,
1659,,pt2_unique_rating,1969772,Cornwall,,52,,,4,,,,,,,,,,,,,,,
null,,confidence_buffer,1969873,confidence_buffer,,null,,,,,,,,,,,,,,,,,,
1223,,pt2_memorable_rating,1971098,Cornwall,,52,,,4,,,,,,,,,,,,,,,
null,,confidence_buffer,1971200,confidence_buffer,,null,,,,,,,,,,,,,,,,,,
6608,,recognition_phase,1977809,Cornwall,,51,,,,,,new,0,0.8703703703703703,,,,,,,,,,
null,,confidence_buffer,1977911,confidence_buffer,,null,,,,,,,,,,,,,,,,,,
null,,thebreak,1978413,break,,null,,,,,,,,,,,,,,,,,,
6301,,realistic_rating,1984714,Natchez,,53,Natchez,US,5,,,,,,,,,,,,,,,
null,,confidence_buffer,1984816,confidence_buffer,,null,,,,,,,,,,,,,,,,,,
1145,,pt2_unique_rating,1985962,Natchez,,53,,,5,,,,,,,,,,,,,,,
null,,confidence_buffer,1986065,confidence_buffer,,null,,,,,,,,,,,,,,,,,,
1680,,probe_rating,1987747,probe_rating,,52,,,,4,1,,,,,,,,,,,,,
null,,confidence_buffer,1987850,confidence_buffer,,null,,,,,,,,,,,,,,,,,,
3015,,pt2_memorable_rating,1990866,Natchez,,51,,,3,,,,,,,,,,,,,,,
null,,confidence_buffer,1990969,confidence_buffer,,null,,,,,,,,,,,,,,,,,,
2632,,recognition_phase,1993602,Natchez,,49,,,,,,old,1,0.8727272727272727,,,,,,,,,,
null,,confidence_buffer,1993703,confidence_buffer,,null,,,,,,,,,,,,,,,,,,
null,,thebreak,1994204,break,,null,,,,,,,,,,,,,,,,,,
6140,,realistic_rating,2000347,Watkins Glen,,53,Watkins Glen,US,5,,,,,,,,,,,,,,,
null,,confidence_buffer,2000450,confidence_buffer,,null,,,,,,,,,,,,,,,,,,
1024,,pt2_unique_rating,2001474,Watkins Glen,,53,,,5,,,,,,,,,,,,,,,
null,,confidence_buffer,2001576,confidence_buffer,,null,,,,,,,,,,,,,,,,,,
1281,,pt2_memorable_rating,2002859,Watkins Glen,,53,,,5,,,,,,,,,,,,,,,
null,,confidence_buffer,2002960,confidence_buffer,,null,,,,,,,,,,,,,,,,,,
3688,,recognition_phase,2006651,Watkins Glen,,52,,,,,,new,1,0.875,,,,,,,,,,
null,,confidence_buffer,2006752,confidence_buffer,,null,,,,,,,,,,,,,,,,,,
null,,thebreak,2007254,break,,null,,,,,,,,,,,,,,,,,,
4668,,realistic_rating,2011923,Livingston,,52,Livingston,US,4,,,,,,,,,,,,,,,
null,,confidence_buffer,2012024,confidence_buffer,,null,,,,,,,,,,,,,,,,,,
1060,,pt2_unique_rating,2013085,Livingston,,52,,,4,,,,,,,,,,,,,,,
null,,confidence_buffer,2013187,confidence_buffer,,null,,,,,,,,,,,,,,,,,,
1679,,pt2_memorable_rating,2014866,Livingston,,52,,,4,,,,,,,,,,,,,,,
null,,confidence_buffer,2014968,confidence_buffer,,null,,,,,,,,,,,,,,,,,,
3025,,recognition_phase,2017994,Livingston,,49,,,,,,old,1,0.8771929824561403,,,,,,,,,,
null,,confidence_buffer,2018096,confidence_buffer,,null,,,,,,,,,,,,,,,,,,
null,,thebreak,2018596,break,,null,,,,,,,,,,,,,,,,,,
3892,,realistic_rating,2022490,Millstone,,52,Millstone,Fictional,4,,,,,,,,,,,,,,,
null,,confidence_buffer,2022592,confidence_buffer,,null,,,,,,,,,,,,,,,,,,
3466,,pt2_unique_rating,2026058,Millstone,,50,,,2,,,,,,,,,,,,,,,
null,,confidence_buffer,2026160,confidence_buffer,,null,,,,,,,,,,,,,,,,,,
1074,,pt2_memorable_rating,2027234,Millstone,,50,,,2,,,,,,,,,,,,,,,
null,,confidence_buffer,2027337,confidence_buffer,,null,,,,,,,,,,,,,,,,,,
1840,,recognition_phase,2029179,Millstone,,49,,,,,,old,1,0.8793103448275862,,,,,,,,,,
null,,confidence_buffer,2029281,confidence_buffer,,null,,,,,,,,,,,,,,,,,,
null,,thebreak,2029783,break,,null,,,,,,,,,,,,,,,,,,
11346,,realistic_rating,2041132,West Talora,,52,West Talora,Fictional,4,,,,,,,,,,,,,,,
null,,confidence_buffer,2041233,confidence_buffer,,null,,,,,,,,,,,,,,,,,,
1016,,pt2_unique_rating,2042251,West Talora,,52,,,4,,,,,,,,,,,,,,,
null,,confidence_buffer,2042353,confidence_buffer,,null,,,,,,,,,,,,,,,,,,
1385,,pt2_memorable_rating,2043740,West Talora,,52,,,4,,,,,,,,,,,,,,,
null,,confidence_buffer,2043843,confidence_buffer,,null,,,,,,,,,,,,,,,,,,
1712,,recognition_phase,2045555,West Talora,,49,,,,,,old,1,0.8813559322033898,,,,,,,,,,
null,,confidence_buffer,2045656,confidence_buffer,,null,,,,,,,,,,,,,,,,,,
null,,thebreak,2046158,break,,null,,,,,,,,,,,,,,,,,,
5581,,realistic_rating,2051739,Ashford Hills,,52,Ashford Hills,Fictional,4,,,,,,,,,,,,,,,
null,,confidence_buffer,2051840,confidence_buffer,,null,,,,,,,,,,,,,,,,,,
3152,,pt2_unique_rating,2054995,Ashford Hills,,52,,,4,,,,,,,,,,,,,,,
null,,confidence_buffer,2055096,confidence_buffer,,null,,,,,,,,,,,,,,,,,,
1361,,pt2_memorable_rating,2056459,Ashford Hills,,52,,,4,,,,,,,,,,,,,,,
null,,confidence_buffer,2056562,confidence_buffer,,null,,,,,,,,,,,,,,,,,,
3367,,recognition_phase,2059931,Ashford Hills,,52,,,,,,new,1,0.8833333333333333,,,,,,,,,,
null,,confidence_buffer,2060032,confidence_buffer,,null,,,,,,,,,,,,,,,,,,
null,,thebreak,2060533,break,,null,,,,,,,,,,,,,,,,,,
,,survey,2292451,survey-questions,,,,,,,,,,,connection,med,No,Just memory,knew some of the city names,memory,some,most of the names could be real,N/A,None
