rt,responses,trial_type,time_elapsed,stimulus,button_pressed,key_press,name_trial,city_type,rating,probe,probe_accuracy,response,correct,accuracy,problems,smooth,distraction,strategies,familiar,memorable,unique,realistic,similar,comments
11845.099999999627,{worker_id:67ef44c4d50545c1c22333d7},id_enter,11870,,,,,,,,,,,,,,,,,,,,,
4710.699999999721,,fullscreen,16604,fullscreen,0,,,,,,,,,,,,,,,,,,,
20440,,intro_0,37060,instruct,,32,,,,,,,,,,,,,,,,,,
99043.5,,intro_1,136106,instruct,,32,,,,,,,,,,,,,,,,,,
23690.200000000186,,intro_2,159800,instruct,,32,,,,,,,,,,,,,,,,,,
null,,instruct_dir_4,161311,instruct,,null,,,,,,,,,,,,,,,,,,
null,,thebreak,161821,break,,null,,,,,,,,,,,,,,,,,,
20173.399999999907,,familiar_rating,181998,Bowling Green,,49,Bowling Green,US,1,,,,,,,,,,,,,,,
null,,confidence_buffer,182102,confidence_buffer,,null,,,,,,,,,,,,,,,,,,
10044.30000000028,,probe_rating,192149,probe_rating,,53,,,,5,1,,,,,,,,,,,,,
null,,confidence_buffer,192258,confidence_buffer,,null,,,,,,,,,,,,,,,,,,
13404.5,,unique_rating,205665,Bowling Green,,51,,,3,,,,,,,,,,,,,,,
null,,confidence_buffer,205773,confidence_buffer,,null,,,,,,,,,,,,,,,,,,
5476.399999999907,,memorable_rating,211252,Bowling Green,,51,,,3,,,,,,,,,,,,,,,
null,,confidence_buffer,211361,confidence_buffer,,null,,,,,,,,,,,,,,,,,,
null,,thebreak,211875,break,,null,,,,,,,,,,,,,,,,,,
20998.200000000186,,familiar_rating,232876,West Talora,,49,West Talora,Fictional,1,,,,,,,,,,,,,,,
null,,confidence_buffer,232986,confidence_buffer,,null,,,,,,,,,,,,,,,,,,
8062.100000000093,,unique_rating,241051,West Talora,,52,,,4,,,,,,,,,,,,,,,
null,,confidence_buffer,241160,confidence_buffer,,null,,,,,,,,,,,,,,,,,,
9990.299999999814,,memorable_rating,251154,West Talora,,52,,,4,,,,,,,,,,,,,,,
null,,confidence_buffer,251264,confidence_buffer,,null,,,,,,,,,,,,,,,,,,
null,,thebreak,251772,break,,null,,,,,,,,,,,,,,,,,,
15523,,familiar_rating,267298,Assateague Island,,49,Assateague Island,US,1,,,,,,,,,,,,,,,
null,,confidence_buffer,267408,confidence_buffer,,null,,,,,,,,,,,,,,,,,,
8563.799999999814,,unique_rating,275975,Assateague Island,,52,,,4,,,,,,,,,,,,,,,
null,,confidence_buffer,276079,confidence_buffer,,null,,,,,,,,,,,,,,,,,,
9826.5,,memorable_rating,285909,Assateague Island,,52,,,4,,,,,,,,,,,,,,,
null,,confidence_buffer,286019,confidence_buffer,,null,,,,,,,,,,,,,,,,,,
5240.899999999907,,probe_rating,291263,probe_rating,,49,,,,1,1,,,,,,,,,,,,,
null,,confidence_buffer,291374,confidence_buffer,,null,,,,,,,,,,,,,,,,,,
null,,thebreak,291877,break,,null,,,,,,,,,,,,,,,,,,
53820.10000000009,,familiar_rating,345700,Crestwood,,50,Crestwood,Fictional,2,,,,,,,,,,,,,,,
null,,confidence_buffer,345804,confidence_buffer,,null,,,,,,,,,,,,,,,,,,
10228.600000000093,,unique_rating,356035,Crestwood,,53,,,5,,,,,,,,,,,,,,,
null,,confidence_buffer,356145,confidence_buffer,,null,,,,,,,,,,,,,,,,,,
4968.600000000093,,memorable_rating,361116,Crestwood,,53,,,5,,,,,,,,,,,,,,,
null,,confidence_buffer,361227,confidence_buffer,,null,,,,,,,,,,,,,,,,,,
null,,thebreak,361732,break,,null,,,,,,,,,,,,,,,,,,
9866,,familiar_rating,371601,Medora,,50,Medora,US,2,,,,,,,,,,,,,,,
null,,confidence_buffer,371706,confidence_buffer,,null,,,,,,,,,,,,,,,,,,
3935.7999999998137,,unique_rating,375645,Medora,,52,,,4,,,,,,,,,,,,,,,
null,,confidence_buffer,375755,confidence_buffer,,null,,,,,,,,,,,,,,,,,,
5412.899999999907,,memorable_rating,381170,Medora,,52,,,4,,,,,,,,,,,,,,,
null,,confidence_buffer,381281,confidence_buffer,,null,,,,,,,,,,,,,,,,,,
null,,thebreak,381794,break,,null,,,,,,,,,,,,,,,,,,
5430.899999999907,,familiar_rating,387227,Summershade,,50,Summershade,Fictional,2,,,,,,,,,,,,,,,
null,,confidence_buffer,387336,confidence_buffer,,null,,,,,,,,,,,,,,,,,,
9969.69999999972,,unique_rating,397308,Summershade,,52,,,4,,,,,,,,,,,,,,,
null,,confidence_buffer,397412,confidence_buffer,,null,,,,,,,,,,,,,,,,,,
1931.8999999999069,,memorable_rating,399347,Summershade,,51,,,3,,,,,,,,,,,,,,,
null,,confidence_buffer,399452,confidence_buffer,,null,,,,,,,,,,,,,,,,,,
null,,thebreak,399968,break,,null,,,,,,,,,,,,,,,,,,
9979.600000000093,,familiar_rating,409951,Alliance,,52,Alliance,US,4,,,,,,,,,,,,,,,
null,,confidence_buffer,410062,confidence_buffer,,null,,,,,,,,,,,,,,,,,,
3888.2000000001863,,unique_rating,413953,Alliance,,52,,,4,,,,,,,,,,,,,,,
null,,confidence_buffer,414056,confidence_buffer,,null,,,,,,,,,,,,,,,,,,
2414.399999999907,,memorable_rating,416473,Alliance,,52,,,4,,,,,,,,,,,,,,,
null,,confidence_buffer,416580,confidence_buffer,,null,,,,,,,,,,,,,,,,,,
null,,thebreak,417096,break,,null,,,,,,,,,,,,,,,,,,
9340.700000000186,,familiar_rating,426439,Clearbrook,,51,Clearbrook,Fictional,3,,,,,,,,,,,,,,,
null,,confidence_buffer,426546,confidence_buffer,,null,,,,,,,,,,,,,,,,,,
14165.600000000093,,unique_rating,440714,Clearbrook,,52,,,4,,,,,,,,,,,,,,,
null,,confidence_buffer,440821,confidence_buffer,,null,,,,,,,,,,,,,,,,,,
11531.600000000093,,memorable_rating,452356,Clearbrook,,52,,,4,,,,,,,,,,,,,,,
null,,confidence_buffer,452459,confidence_buffer,,null,,,,,,,,,,,,,,,,,,
null,,thebreak,452971,break,,null,,,,,,,,,,,,,,,,,,
6043.600000000093,,familiar_rating,459017,Newport,,51,Newport,US,3,,,,,,,,,,,,,,,
null,,confidence_buffer,459121,confidence_buffer,,null,,,,,,,,,,,,,,,,,,
4549.899999999907,,unique_rating,463673,Newport,,52,,,4,,,,,,,,,,,,,,,
null,,confidence_buffer,463783,confidence_buffer,,null,,,,,,,,,,,,,,,,,,
6179.399999999907,,memorable_rating,469965,Newport,,51,,,3,,,,,,,,,,,,,,,
null,,confidence_buffer,470075,confidence_buffer,,null,,,,,,,,,,,,,,,,,,
null,,thebreak,470584,break,,null,,,,,,,,,,,,,,,,,,
8489.5,,familiar_rating,479077,Fairhaven,,51,Fairhaven,Fictional,3,,,,,,,,,,,,,,,
null,,confidence_buffer,479182,confidence_buffer,,null,,,,,,,,,,,,,,,,,,
9227.299999999814,,unique_rating,488412,Fairhaven,,52,,,4,,,,,,,,,,,,,,,
null,,confidence_buffer,488522,confidence_buffer,,null,,,,,,,,,,,,,,,,,,
8098.899999999907,,memorable_rating,496624,Fairhaven,,53,,,5,,,,,,,,,,,,,,,
null,,confidence_buffer,496731,confidence_buffer,,null,,,,,,,,,,,,,,,,,,
null,,thebreak,497235,break,,null,,,,,,,,,,,,,,,,,,
13206.5,,familiar_rating,510444,Park City,,50,Park City,US,2,,,,,,,,,,,,,,,
null,,confidence_buffer,510555,confidence_buffer,,null,,,,,,,,,,,,,,,,,,
8490.700000000186,,unique_rating,519048,Park City,,52,,,4,,,,,,,,,,,,,,,
null,,confidence_buffer,519159,confidence_buffer,,null,,,,,,,,,,,,,,,,,,
33591.19999999972,,memorable_rating,552753,Park City,,52,,,4,,,,,,,,,,,,,,,
null,,confidence_buffer,552863,confidence_buffer,,null,,,,,,,,,,,,,,,,,,
null,,thebreak,553374,break,,null,,,,,,,,,,,,,,,,,,
2406.1999999997206,,familiar_rating,555783,Carmel,,51,Carmel,US,3,,,,,,,,,,,,,,,
null,,confidence_buffer,555894,confidence_buffer,,null,,,,,,,,,,,,,,,,,,
9578.900000000373,,unique_rating,565476,Carmel,,51,,,3,,,,,,,,,,,,,,,
null,,confidence_buffer,565585,confidence_buffer,,null,,,,,,,,,,,,,,,,,,
4990.799999999814,,memorable_rating,570578,Carmel,,52,,,4,,,,,,,,,,,,,,,
null,,confidence_buffer,570683,confidence_buffer,,null,,,,,,,,,,,,,,,,,,
5566.800000000279,,probe_rating,576252,probe_rating,,51,,,,3,1,,,,,,,,,,,,,
null,,confidence_buffer,576361,confidence_buffer,,null,,,,,,,,,,,,,,,,,,
null,,thebreak,576867,break,,null,,,,,,,,,,,,,,,,,,
6084.0999999996275,,familiar_rating,582954,Bayshore Haven,,49,Bayshore Haven,Fictional,1,,,,,,,,,,,,,,,
null,,confidence_buffer,583073,confidence_buffer,,null,,,,,,,,,,,,,,,,,,
5399.799999999814,,unique_rating,588475,Bayshore Haven,,53,,,5,,,,,,,,,,,,,,,
null,,confidence_buffer,588582,confidence_buffer,,null,,,,,,,,,,,,,,,,,,
54859.30000000028,,memorable_rating,643444,Bayshore Haven,,52,,,4,,,,,,,,,,,,,,,
null,,confidence_buffer,643553,confidence_buffer,,null,,,,,,,,,,,,,,,,,,
null,,thebreak,644062,break,,null,,,,,,,,,,,,,,,,,,
6240.800000000279,,familiar_rating,650305,Hanover,,49,Hanover,US,1,,,,,,,,,,,,,,,
null,,confidence_buffer,650413,confidence_buffer,,null,,,,,,,,,,,,,,,,,,
17521.100000000093,,unique_rating,667939,Hanover,,51,,,3,,,,,,,,,,,,,,,
null,,confidence_buffer,668050,confidence_buffer,,null,,,,,,,,,,,,,,,,,,
2600.2000000001863,,memorable_rating,670654,Hanover,,51,,,3,,,,,,,,,,,,,,,
null,,confidence_buffer,670757,confidence_buffer,,null,,,,,,,,,,,,,,,,,,
null,,thebreak,671264,break,,null,,,,,,,,,,,,,,,,,,
7177.300000000279,,familiar_rating,678450,Sunmere,,49,Sunmere,Fictional,1,,,,,,,,,,,,,,,
null,,confidence_buffer,678554,confidence_buffer,,null,,,,,,,,,,,,,,,,,,
6366.299999999814,,unique_rating,684923,Sunmere,,51,,,3,,,,,,,,,,,,,,,
null,,confidence_buffer,685043,confidence_buffer,,null,,,,,,,,,,,,,,,,,,
3444.899999999907,,memorable_rating,688490,Sunmere,,51,,,3,,,,,,,,,,,,,,,
null,,confidence_buffer,688594,confidence_buffer,,null,,,,,,,,,,,,,,,,,,
null,,thebreak,689107,break,,null,,,,,,,,,,,,,,,,,,
85218.3999999999,,familiar_rating,774328,Hawthorne Bluffs,,49,Hawthorne Bluffs,Fictional,1,,,,,,,,,,,,,,,
null,,confidence_buffer,774437,confidence_buffer,,null,,,,,,,,,,,,,,,,,,
6772.100000000093,,unique_rating,781212,Hawthorne Bluffs,,52,,,4,,,,,,,,,,,,,,,
null,,confidence_buffer,781328,confidence_buffer,,null,,,,,,,,,,,,,,,,,,
1429.5,,memorable_rating,782760,Hawthorne Bluffs,,52,,,4,,,,,,,,,,,,,,,
null,,confidence_buffer,782879,confidence_buffer,,null,,,,,,,,,,,,,,,,,,
null,,thebreak,783389,break,,null,,,,,,,,,,,,,,,,,,
4689.9000000003725,,familiar_rating,788081,Northbridge,,49,Northbridge,Fictional,1,,,,,,,,,,,,,,,
null,,confidence_buffer,788188,confidence_buffer,,null,,,,,,,,,,,,,,,,,,
8922.899999999907,,unique_rating,797115,Northbridge,,52,,,4,,,,,,,,,,,,,,,
null,,confidence_buffer,797224,confidence_buffer,,null,,,,,,,,,,,,,,,,,,
3442.600000000093,,memorable_rating,800669,Northbridge,,52,,,4,,,,,,,,,,,,,,,
null,,confidence_buffer,800779,confidence_buffer,,null,,,,,,,,,,,,,,,,,,
null,,thebreak,801287,break,,null,,,,,,,,,,,,,,,,,,
3039.600000000093,,familiar_rating,804330,Coralridge,,49,Coralridge,Fictional,1,,,,,,,,,,,,,,,
null,,confidence_buffer,804434,confidence_buffer,,null,,,,,,,,,,,,,,,,,,
4411.699999999721,,unique_rating,808848,Coralridge,,51,,,3,,,,,,,,,,,,,,,
null,,confidence_buffer,808957,confidence_buffer,,null,,,,,,,,,,,,,,,,,,
1322.8000000002794,,memorable_rating,810283,Coralridge,,51,,,3,,,,,,,,,,,,,,,
null,,confidence_buffer,810388,confidence_buffer,,null,,,,,,,,,,,,,,,,,,
null,,thebreak,810906,break,,null,,,,,,,,,,,,,,,,,,
2749.8000000002794,,familiar_rating,813658,New Hope,,49,New Hope,US,1,,,,,,,,,,,,,,,
null,,confidence_buffer,813777,confidence_buffer,,null,,,,,,,,,,,,,,,,,,
2668.899999999907,,unique_rating,816448,New Hope,,52,,,4,,,,,,,,,,,,,,,
null,,confidence_buffer,816553,confidence_buffer,,null,,,,,,,,,,,,,,,,,,
7479.299999999814,,memorable_rating,824035,New Hope,,53,,,5,,,,,,,,,,,,,,,
null,,confidence_buffer,824141,confidence_buffer,,null,,,,,,,,,,,,,,,,,,
null,,thebreak,824659,break,,null,,,,,,,,,,,,,,,,,,
1965.8999999999069,,familiar_rating,826628,Pine Hollow,,49,Pine Hollow,Fictional,1,,,,,,,,,,,,,,,
null,,confidence_buffer,826738,confidence_buffer,,null,,,,,,,,,,,,,,,,,,
5636.800000000279,,unique_rating,832379,Pine Hollow,,51,,,3,,,,,,,,,,,,,,,
null,,confidence_buffer,832487,confidence_buffer,,null,,,,,,,,,,,,,,,,,,
4964.9000000003725,,memorable_rating,837454,Pine Hollow,,52,,,4,,,,,,,,,,,,,,,
null,,confidence_buffer,837566,confidence_buffer,,null,,,,,,,,,,,,,,,,,,
null,,thebreak,838075,break,,null,,,,,,,,,,,,,,,,,,
4571.799999999814,,familiar_rating,842650,Leesburg,,49,Leesburg,US,1,,,,,,,,,,,,,,,
null,,confidence_buffer,842764,confidence_buffer,,null,,,,,,,,,,,,,,,,,,
9970.80000000028,,unique_rating,852737,Leesburg,,52,,,4,,,,,,,,,,,,,,,
null,,confidence_buffer,852844,confidence_buffer,,null,,,,,,,,,,,,,,,,,,
3094.600000000093,,probe_rating,855941,probe_rating,,52,,,,4,1,,,,,,,,,,,,,
null,,confidence_buffer,856052,confidence_buffer,,null,,,,,,,,,,,,,,,,,,
1628.3999999999069,,memorable_rating,857683,Leesburg,,51,,,3,,,,,,,,,,,,,,,
null,,confidence_buffer,857792,confidence_buffer,,null,,,,,,,,,,,,,,,,,,
null,,thebreak,858311,break,,null,,,,,,,,,,,,,,,,,,
3641.5999999996275,,familiar_rating,861955,Peoria,,49,Peoria,US,1,,,,,,,,,,,,,,,
null,,confidence_buffer,862062,confidence_buffer,,null,,,,,,,,,,,,,,,,,,
3755,,probe_rating,865820,probe_rating,,51,,,,3,1,,,,,,,,,,,,,
null,,confidence_buffer,865925,confidence_buffer,,null,,,,,,,,,,,,,,,,,,
3429.399999999907,,unique_rating,869358,Peoria,,52,,,4,,,,,,,,,,,,,,,
null,,confidence_buffer,869468,confidence_buffer,,null,,,,,,,,,,,,,,,,,,
1768.8999999999069,,memorable_rating,871240,Peoria,,51,,,3,,,,,,,,,,,,,,,
null,,confidence_buffer,871351,confidence_buffer,,null,,,,,,,,,,,,,,,,,,
null,,thebreak,871855,break,,null,,,,,,,,,,,,,,,,,,
1908.2000000001863,,familiar_rating,873766,West Palm Beach,,49,West Palm Beach,US,1,,,,,,,,,,,,,,,
null,,confidence_buffer,873878,confidence_buffer,,null,,,,,,,,,,,,,,,,,,
2955.5,,probe_rating,876836,probe_rating,,50,,,,2,1,,,,,,,,,,,,,
null,,confidence_buffer,876945,confidence_buffer,,null,,,,,,,,,,,,,,,,,,
2830.5,,unique_rating,879778,West Palm Beach,,52,,,4,,,,,,,,,,,,,,,
null,,confidence_buffer,879892,confidence_buffer,,null,,,,,,,,,,,,,,,,,,
1444.6000000000931,,memorable_rating,881340,West Palm Beach,,51,,,3,,,,,,,,,,,,,,,
null,,confidence_buffer,881447,confidence_buffer,,null,,,,,,,,,,,,,,,,,,
null,,thebreak,881954,break,,null,,,,,,,,,,,,,,,,,,
1480.3999999999069,,familiar_rating,883437,Falconridge,,49,Falconridge,Fictional,1,,,,,,,,,,,,,,,
null,,confidence_buffer,883545,confidence_buffer,,null,,,,,,,,,,,,,,,,,,
5313.5,,unique_rating,888863,Falconridge,,51,,,3,,,,,,,,,,,,,,,
null,,confidence_buffer,888973,confidence_buffer,,null,,,,,,,,,,,,,,,,,,
1712.6000000000931,,memorable_rating,890689,Falconridge,,52,,,4,,,,,,,,,,,,,,,
null,,confidence_buffer,890797,confidence_buffer,,null,,,,,,,,,,,,,,,,,,
null,,thebreak,891308,break,,null,,,,,,,,,,,,,,,,,,
2244.5,,familiar_rating,893555,Silverpine,,49,Silverpine,Fictional,1,,,,,,,,,,,,,,,
null,,confidence_buffer,893662,confidence_buffer,,null,,,,,,,,,,,,,,,,,,
3355.100000000093,,unique_rating,897020,Silverpine,,51,,,3,,,,,,,,,,,,,,,
null,,confidence_buffer,897126,confidence_buffer,,null,,,,,,,,,,,,,,,,,,
1806,,memorable_rating,898935,Silverpine,,52,,,4,,,,,,,,,,,,,,,
null,,confidence_buffer,899045,confidence_buffer,,null,,,,,,,,,,,,,,,,,,
null,,thebreak,899548,break,,null,,,,,,,,,,,,,,,,,,
1289.8000000002794,,familiar_rating,900841,Sisters,,49,Sisters,US,1,,,,,,,,,,,,,,,
null,,confidence_buffer,900951,confidence_buffer,,null,,,,,,,,,,,,,,,,,,
1990.2000000001863,,unique_rating,902945,Sisters,,52,,,4,,,,,,,,,,,,,,,
null,,confidence_buffer,903055,confidence_buffer,,null,,,,,,,,,,,,,,,,,,
1520.0999999996275,,memorable_rating,904578,Sisters,,52,,,4,,,,,,,,,,,,,,,
null,,confidence_buffer,904689,confidence_buffer,,null,,,,,,,,,,,,,,,,,,
null,,thebreak,905206,break,,null,,,,,,,,,,,,,,,,,,
14034.200000000186,,familiar_rating,919243,Meadowspire,,49,Meadowspire,Fictional,1,,,,,,,,,,,,,,,
null,,confidence_buffer,919352,confidence_buffer,,null,,,,,,,,,,,,,,,,,,
2817.7000000001863,,unique_rating,922173,Meadowspire,,52,,,4,,,,,,,,,,,,,,,
null,,confidence_buffer,922283,confidence_buffer,,null,,,,,,,,,,,,,,,,,,
1275.3999999999069,,memorable_rating,923561,Meadowspire,,51,,,3,,,,,,,,,,,,,,,
null,,confidence_buffer,923666,confidence_buffer,,null,,,,,,,,,,,,,,,,,,
null,,thebreak,924168,break,,null,,,,,,,,,,,,,,,,,,
1260.5,,familiar_rating,925432,Cornwall,,49,Cornwall,US,1,,,,,,,,,,,,,,,
null,,confidence_buffer,925537,confidence_buffer,,null,,,,,,,,,,,,,,,,,,
1299.8999999999069,,unique_rating,926839,Cornwall,,52,,,4,,,,,,,,,,,,,,,
null,,confidence_buffer,926944,confidence_buffer,,null,,,,,,,,,,,,,,,,,,
819.3999999999069,,memorable_rating,927766,Cornwall,,51,,,3,,,,,,,,,,,,,,,
null,,confidence_buffer,927876,confidence_buffer,,null,,,,,,,,,,,,,,,,,,
null,,thebreak,928385,break,,null,,,,,,,,,,,,,,,,,,
1332.3999999999069,,familiar_rating,929720,Delaro Park,,49,Delaro Park,Fictional,1,,,,,,,,,,,,,,,
null,,confidence_buffer,929826,confidence_buffer,,null,,,,,,,,,,,,,,,,,,
1505.5,,unique_rating,931335,Delaro Park,,52,,,4,,,,,,,,,,,,,,,
null,,confidence_buffer,931451,confidence_buffer,,null,,,,,,,,,,,,,,,,,,
953,,memorable_rating,932407,Delaro Park,,51,,,3,,,,,,,,,,,,,,,
null,,confidence_buffer,932516,confidence_buffer,,null,,,,,,,,,,,,,,,,,,
null,,thebreak,933034,break,,null,,,,,,,,,,,,,,,,,,
1094,,familiar_rating,934132,Healdsburg,,49,Healdsburg,US,1,,,,,,,,,,,,,,,
null,,confidence_buffer,934240,confidence_buffer,,null,,,,,,,,,,,,,,,,,,
1078.6999999997206,,unique_rating,935321,Healdsburg,,52,,,4,,,,,,,,,,,,,,,
null,,confidence_buffer,935429,confidence_buffer,,null,,,,,,,,,,,,,,,,,,
972.7999999998137,,memorable_rating,936405,Healdsburg,,51,,,3,,,,,,,,,,,,,,,
null,,confidence_buffer,936514,confidence_buffer,,null,,,,,,,,,,,,,,,,,,
null,,thebreak,937016,break,,null,,,,,,,,,,,,,,,,,,
8885.700000000186,,intro_0,945905,instruct,,32,,,,,,,,,,,,,,,,,,
18864.5,,intro_1,964772,instruct,,32,,,,,,,,,,,,,,,,,,
39200.200000000186,,intro_2,1003975,instruct,,32,,,,,,,,,,,,,,,,,,
null,,instruct_dir_4,1005487,instruct,,null,,,,,,,,,,,,,,,,,,
22684.799999999814,,realistic_rating,1028175,Sammamish,,52,Sammamish,US,4,,,,,,,,,,,,,,,
null,,confidence_buffer,1028294,confidence_buffer,,null,,,,,,,,,,,,,,,,,,
7684.700000000186,,pt2_unique_rating,1035982,Sammamish,,52,,,4,,,,,,,,,,,,,,,
null,,confidence_buffer,1036090,confidence_buffer,,null,,,,,,,,,,,,,,,,,,
1795.6999999997206,,pt2_memorable_rating,1037888,Sammamish,,52,,,4,,,,,,,,,,,,,,,
null,,confidence_buffer,1037996,confidence_buffer,,null,,,,,,,,,,,,,,,,,,
6728.399999999907,,recognition_phase,1044728,Sammamish,,52,,,,,,new,1,1,,,,,,,,,,
null,,confidence_buffer,1044835,confidence_buffer,,null,,,,,,,,,,,,,,,,,,
null,,thebreak,1045345,break,,null,,,,,,,,,,,,,,,,,,
9378.80000000028,,realistic_rating,1054727,Alliance,,49,Alliance,US,1,,,,,,,,,,,,,,,
null,,confidence_buffer,1054834,confidence_buffer,,null,,,,,,,,,,,,,,,,,,
7703,,pt2_unique_rating,1062540,Alliance,,52,,,4,,,,,,,,,,,,,,,
null,,confidence_buffer,1062652,confidence_buffer,,null,,,,,,,,,,,,,,,,,,
1661.3999999999069,,pt2_memorable_rating,1064317,Alliance,,52,,,4,,,,,,,,,,,,,,,
null,,confidence_buffer,1064427,confidence_buffer,,null,,,,,,,,,,,,,,,,,,
4031.5,,recognition_phase,1068461,Alliance,,49,,,,,,old,1,1,,,,,,,,,,
null,,confidence_buffer,1068574,confidence_buffer,,null,,,,,,,,,,,,,,,,,,
null,,thebreak,1069079,break,,null,,,,,,,,,,,,,,,,,,
7701.299999999814,,realistic_rating,1076784,Boulder,,51,Boulder,US,3,,,,,,,,,,,,,,,
null,,confidence_buffer,1076889,confidence_buffer,,null,,,,,,,,,,,,,,,,,,
17865.799999999814,,pt2_unique_rating,1094758,Boulder,,51,,,3,,,,,,,,,,,,,,,
null,,confidence_buffer,1094866,confidence_buffer,,null,,,,,,,,,,,,,,,,,,
4619.300000000279,,pt2_memorable_rating,1099488,Boulder,,52,,,4,,,,,,,,,,,,,,,
null,,confidence_buffer,1099605,confidence_buffer,,null,,,,,,,,,,,,,,,,,,
4454.700000000186,,recognition_phase,1104063,Boulder,,52,,,,,,new,1,1,,,,,,,,,,
null,,confidence_buffer,1104172,confidence_buffer,,null,,,,,,,,,,,,,,,,,,
null,,thebreak,1104678,break,,null,,,,,,,,,,,,,,,,,,
6374.5999999996275,,realistic_rating,1111056,Sunmere,,52,Sunmere,Fictional,4,,,,,,,,,,,,,,,
null,,confidence_buffer,1111165,confidence_buffer,,null,,,,,,,,,,,,,,,,,,
2073,,pt2_unique_rating,1113241,Sunmere,,52,,,4,,,,,,,,,,,,,,,
null,,confidence_buffer,1113349,confidence_buffer,,null,,,,,,,,,,,,,,,,,,
1856.2999999998137,,pt2_memorable_rating,1115208,Sunmere,,52,,,4,,,,,,,,,,,,,,,
null,,confidence_buffer,1115317,confidence_buffer,,null,,,,,,,,,,,,,,,,,,
2218.7999999998137,,recognition_phase,1117540,Sunmere,,49,,,,,,old,1,1,,,,,,,,,,
null,,confidence_buffer,1117649,confidence_buffer,,null,,,,,,,,,,,,,,,,,,
null,,thebreak,1118157,break,,null,,,,,,,,,,,,,,,,,,
2844.9000000003725,,realistic_rating,1121005,Yukon,,51,Yukon,US,3,,,,,,,,,,,,,,,
null,,confidence_buffer,1121112,confidence_buffer,,null,,,,,,,,,,,,,,,,,,
1007.5,,pt2_unique_rating,1122122,Yukon,,51,,,3,,,,,,,,,,,,,,,
null,,confidence_buffer,1122228,confidence_buffer,,null,,,,,,,,,,,,,,,,,,
1325.3999999999069,,pt2_memorable_rating,1123557,Yukon,,52,,,4,,,,,,,,,,,,,,,
null,,confidence_buffer,1123661,confidence_buffer,,null,,,,,,,,,,,,,,,,,,
2579.7000000001863,,recognition_phase,1126244,Yukon,,52,,,,,,new,1,1,,,,,,,,,,
null,,confidence_buffer,1126355,confidence_buffer,,null,,,,,,,,,,,,,,,,,,
null,,thebreak,1126858,break,,null,,,,,,,,,,,,,,,,,,
3412.3000000002794,,realistic_rating,1130274,Tamarisk Hills,,51,Tamarisk Hills,Fictional,3,,,,,,,,,,,,,,,
null,,confidence_buffer,1130380,confidence_buffer,,null,,,,,,,,,,,,,,,,,,
1750.8999999999069,,pt2_unique_rating,1132134,Tamarisk Hills,,51,,,3,,,,,,,,,,,,,,,
null,,confidence_buffer,1132240,confidence_buffer,,null,,,,,,,,,,,,,,,,,,
1641,,pt2_memorable_rating,1133884,Tamarisk Hills,,52,,,4,,,,,,,,,,,,,,,
null,,confidence_buffer,1133989,confidence_buffer,,null,,,,,,,,,,,,,,,,,,
5753.5,,recognition_phase,1139745,Tamarisk Hills,,52,,,,,,new,1,1,,,,,,,,,,
null,,confidence_buffer,1139855,confidence_buffer,,null,,,,,,,,,,,,,,,,,,
null,,thebreak,1140365,break,,null,,,,,,,,,,,,,,,,,,
3839.8000000002794,,realistic_rating,1144208,Falconridge,,52,Falconridge,Fictional,4,,,,,,,,,,,,,,,
null,,confidence_buffer,1144318,confidence_buffer,,null,,,,,,,,,,,,,,,,,,
2742.5,,probe_rating,1147063,probe_rating,,49,,,,1,1,,,,,,,,,,,,,
null,,confidence_buffer,1147182,confidence_buffer,,null,,,,,,,,,,,,,,,,,,
4079.3000000002794,,pt2_unique_rating,1151264,Falconridge,,52,,,4,,,,,,,,,,,,,,,
null,,confidence_buffer,1151373,confidence_buffer,,null,,,,,,,,,,,,,,,,,,
6680.4000000003725,,pt2_memorable_rating,1158057,Falconridge,,52,,,4,,,,,,,,,,,,,,,
null,,confidence_buffer,1158175,confidence_buffer,,null,,,,,,,,,,,,,,,,,,
2125.399999999907,,recognition_phase,1160303,Falconridge,,49,,,,,,old,1,1,,,,,,,,,,
null,,confidence_buffer,1160408,confidence_buffer,,null,,,,,,,,,,,,,,,,,,
null,,thebreak,1160921,break,,null,,,,,,,,,,,,,,,,,,
8006.200000000186,,realistic_rating,1168931,Ashford Hills,,51,Ashford Hills,Fictional,3,,,,,,,,,,,,,,,
null,,confidence_buffer,1169039,confidence_buffer,,null,,,,,,,,,,,,,,,,,,
2967.9000000003725,,pt2_unique_rating,1172010,Ashford Hills,,51,,,3,,,,,,,,,,,,,,,
null,,confidence_buffer,1172123,confidence_buffer,,null,,,,,,,,,,,,,,,,,,
2490.399999999907,,pt2_memorable_rating,1174616,Ashford Hills,,51,,,3,,,,,,,,,,,,,,,
null,,confidence_buffer,1174729,confidence_buffer,,null,,,,,,,,,,,,,,,,,,
2573.5,,probe_rating,1177306,probe_rating,,50,,,,2,1,,,,,,,,,,,,,
null,,confidence_buffer,1177417,confidence_buffer,,null,,,,,,,,,,,,,,,,,,
5439,,recognition_phase,1182860,Ashford Hills,,51,,,,,,new,1,1,,,,,,,,,,
null,,confidence_buffer,1182966,confidence_buffer,,null,,,,,,,,,,,,,,,,,,
null,,thebreak,1183485,break,,null,,,,,,,,,,,,,,,,,,
7251.200000000186,,realistic_rating,1190741,Newport,,53,Newport,US,5,,,,,,,,,,,,,,,
null,,confidence_buffer,1190848,confidence_buffer,,null,,,,,,,,,,,,,,,,,,
3621.5,,pt2_unique_rating,1194473,Newport,,53,,,5,,,,,,,,,,,,,,,
null,,confidence_buffer,1194578,confidence_buffer,,null,,,,,,,,,,,,,,,,,,
1742.8999999999069,,pt2_memorable_rating,1196324,Newport,,53,,,5,,,,,,,,,,,,,,,
null,,confidence_buffer,1196432,confidence_buffer,,null,,,,,,,,,,,,,,,,,,
10360.19999999972,,recognition_phase,1206795,Newport,,52,,,,,,new,0,0.8888888888888888,,,,,,,,,,
null,,confidence_buffer,1206901,confidence_buffer,,null,,,,,,,,,,,,,,,,,,
null,,thebreak,1207412,break,,null,,,,,,,,,,,,,,,,,,
8999.80000000028,,realistic_rating,1216415,Peoria,,51,Peoria,US,3,,,,,,,,,,,,,,,
null,,confidence_buffer,1216530,confidence_buffer,,null,,,,,,,,,,,,,,,,,,
1500,,pt2_unique_rating,1218033,Peoria,,51,,,3,,,,,,,,,,,,,,,
null,,confidence_buffer,1218141,confidence_buffer,,null,,,,,,,,,,,,,,,,,,
3383.3000000002794,,pt2_memorable_rating,1221528,Peoria,,51,,,3,,,,,,,,,,,,,,,
null,,confidence_buffer,1221639,confidence_buffer,,null,,,,,,,,,,,,,,,,,,
9765.299999999814,,recognition_phase,1231408,Peoria,,52,,,,,,new,0,0.8,,,,,,,,,,
null,,confidence_buffer,1231520,confidence_buffer,,null,,,,,,,,,,,,,,,,,,
null,,thebreak,1232033,break,,null,,,,,,,,,,,,,,,,,,
6561.100000000559,,realistic_rating,1238597,Silverpine,,52,Silverpine,Fictional,4,,,,,,,,,,,,,,,
null,,confidence_buffer,1238710,confidence_buffer,,null,,,,,,,,,,,,,,,,,,
17676.799999999814,,pt2_unique_rating,1256391,Silverpine,,52,,,4,,,,,,,,,,,,,,,
null,,confidence_buffer,1256498,confidence_buffer,,null,,,,,,,,,,,,,,,,,,
2081.300000000745,,pt2_memorable_rating,1258582,Silverpine,,51,,,3,,,,,,,,,,,,,,,
null,,confidence_buffer,1258701,confidence_buffer,,null,,,,,,,,,,,,,,,,,,
6858.799999999814,,recognition_phase,1265564,Silverpine,,52,,,,,,new,0,0.7272727272727273,,,,,,,,,,
null,,confidence_buffer,1265682,confidence_buffer,,null,,,,,,,,,,,,,,,,,,
null,,thebreak,1266191,break,,null,,,,,,,,,,,,,,,,,,
3115.100000000559,,realistic_rating,1269309,Racine,,52,Racine,US,4,,,,,,,,,,,,,,,
null,,confidence_buffer,1269417,confidence_buffer,,null,,,,,,,,,,,,,,,,,,
2015.8999999994412,,pt2_unique_rating,1271436,Racine,,51,,,3,,,,,,,,,,,,,,,
null,,confidence_buffer,1271549,confidence_buffer,,null,,,,,,,,,,,,,,,,,,
739.3000000007451,,pt2_memorable_rating,1272291,Racine,,51,,,3,,,,,,,,,,,,,,,
null,,confidence_buffer,1272408,confidence_buffer,,null,,,,,,,,,,,,,,,,,,
19890.5,,recognition_phase,1292302,Racine,,52,,,,,,new,1,0.75,,,,,,,,,,
null,,confidence_buffer,1292419,confidence_buffer,,null,,,,,,,,,,,,,,,,,,
null,,thebreak,1292925,break,,null,,,,,,,,,,,,,,,,,,
42907.700000000186,,realistic_rating,1335836,Leesburg,,52,Leesburg,US,4,,,,,,,,,,,,,,,
null,,confidence_buffer,1335941,confidence_buffer,,null,,,,,,,,,,,,,,,,,,
6337.299999999814,,pt2_unique_rating,1342281,Leesburg,,52,,,4,,,,,,,,,,,,,,,
null,,confidence_buffer,1342400,confidence_buffer,,null,,,,,,,,,,,,,,,,,,
9192.799999999814,,pt2_memorable_rating,1351596,Leesburg,,52,,,4,,,,,,,,,,,,,,,
null,,confidence_buffer,1351702,confidence_buffer,,null,,,,,,,,,,,,,,,,,,
9119,,recognition_phase,1360825,Leesburg,,51,,,,,,new,0,0.6923076923076923,,,,,,,,,,
null,,confidence_buffer,1360937,confidence_buffer,,null,,,,,,,,,,,,,,,,,,
null,,thebreak,1361455,break,,null,,,,,,,,,,,,,,,,,,
17337.39999999944,,realistic_rating,1378795,Claywater,,53,Claywater,Fictional,5,,,,,,,,,,,,,,,
null,,confidence_buffer,1378907,confidence_buffer,,null,,,,,,,,,,,,,,,,,,
3214,,pt2_unique_rating,1382124,Claywater,,52,,,4,,,,,,,,,,,,,,,
null,,confidence_buffer,1382234,confidence_buffer,,null,,,,,,,,,,,,,,,,,,
2374.5999999996275,,pt2_memorable_rating,1384612,Claywater,,52,,,4,,,,,,,,,,,,,,,
null,,confidence_buffer,1384720,confidence_buffer,,null,,,,,,,,,,,,,,,,,,
2793.5999999996275,,recognition_phase,1387517,Claywater,,52,,,,,,new,1,0.7142857142857143,,,,,,,,,,
null,,confidence_buffer,1387623,confidence_buffer,,null,,,,,,,,,,,,,,,,,,
null,,thebreak,1388131,break,,null,,,,,,,,,,,,,,,,,,
9293.700000000186,,realistic_rating,1397428,Pine Hollow,,52,Pine Hollow,Fictional,4,,,,,,,,,,,,,,,
null,,confidence_buffer,1397540,confidence_buffer,,null,,,,,,,,,,,,,,,,,,
3890.800000000745,,pt2_unique_rating,1401435,Pine Hollow,,52,,,4,,,,,,,,,,,,,,,
null,,confidence_buffer,1401546,confidence_buffer,,null,,,,,,,,,,,,,,,,,,
1359.9000000003725,,pt2_memorable_rating,1402909,Pine Hollow,,52,,,4,,,,,,,,,,,,,,,
null,,confidence_buffer,1403021,confidence_buffer,,null,,,,,,,,,,,,,,,,,,
7042.5999999996275,,recognition_phase,1410067,Pine Hollow,,51,,,,,,new,0,0.6666666666666666,,,,,,,,,,
null,,confidence_buffer,1410176,confidence_buffer,,null,,,,,,,,,,,,,,,,,,
null,,thebreak,1410687,break,,null,,,,,,,,,,,,,,,,,,
5960.100000000559,,realistic_rating,1416651,Montelake,,52,Montelake,Fictional,4,,,,,,,,,,,,,,,
null,,confidence_buffer,1416761,confidence_buffer,,null,,,,,,,,,,,,,,,,,,
2471.399999999441,,pt2_unique_rating,1419235,Montelake,,52,,,4,,,,,,,,,,,,,,,
null,,confidence_buffer,1419355,confidence_buffer,,null,,,,,,,,,,,,,,,,,,
21214.60000000056,,pt2_memorable_rating,1440574,Montelake,,52,,,4,,,,,,,,,,,,,,,
null,,confidence_buffer,1440681,confidence_buffer,,null,,,,,,,,,,,,,,,,,,
207.79999999981374,,recognition_phase,1440893,Montelake,,52,,,,,,new,1,0.6875,,,,,,,,,,
null,,confidence_buffer,1440998,confidence_buffer,,null,,,,,,,,,,,,,,,,,,
null,,thebreak,1441505,break,,null,,,,,,,,,,,,,,,,,,
10164.699999999255,,realistic_rating,1451673,Hanover,,52,Hanover,US,4,,,,,,,,,,,,,,,
null,,confidence_buffer,1451782,confidence_buffer,,null,,,,,,,,,,,,,,,,,,
10761.399999999441,,pt2_unique_rating,1462547,Hanover,,52,,,4,,,,,,,,,,,,,,,
null,,confidence_buffer,1462660,confidence_buffer,,null,,,,,,,,,,,,,,,,,,
1747.7000000001863,,pt2_memorable_rating,1464411,Hanover,,52,,,4,,,,,,,,,,,,,,,
null,,confidence_buffer,1464519,confidence_buffer,,null,,,,,,,,,,,,,,,,,,
3884.0999999996275,,recognition_phase,1468407,Hanover,,52,,,,,,new,0,0.6470588235294118,,,,,,,,,,
null,,confidence_buffer,1468516,confidence_buffer,,null,,,,,,,,,,,,,,,,,,
null,,thebreak,1469033,break,,null,,,,,,,,,,,,,,,,,,
6736.4000000003725,,realistic_rating,1475773,West Talora,,52,West Talora,Fictional,4,,,,,,,,,,,,,,,
null,,confidence_buffer,1475878,confidence_buffer,,null,,,,,,,,,,,,,,,,,,
3463.2999999998137,,pt2_unique_rating,1479345,West Talora,,51,,,3,,,,,,,,,,,,,,,
null,,confidence_buffer,1479449,confidence_buffer,,null,,,,,,,,,,,,,,,,,,
1567.1000000005588,,pt2_memorable_rating,1481019,West Talora,,51,,,3,,,,,,,,,,,,,,,
null,,confidence_buffer,1481127,confidence_buffer,,null,,,,,,,,,,,,,,,,,,
1821.3999999994412,,recognition_phase,1482951,West Talora,,49,,,,,,old,1,0.6666666666666666,,,,,,,,,,
null,,confidence_buffer,1483063,confidence_buffer,,null,,,,,,,,,,,,,,,,,,
null,,thebreak,1483577,break,,null,,,,,,,,,,,,,,,,,,
3018.2000000001863,,realistic_rating,1486601,Bayshore Haven,,52,Bayshore Haven,Fictional,4,,,,,,,,,,,,,,,
null,,confidence_buffer,1486710,confidence_buffer,,null,,,,,,,,,,,,,,,,,,
1577.5,,pt2_unique_rating,1488291,Bayshore Haven,,51,,,3,,,,,,,,,,,,,,,
null,,confidence_buffer,1488403,confidence_buffer,,null,,,,,,,,,,,,,,,,,,
157.6000000005588,,pt2_memorable_rating,1488564,Bayshore Haven,,51,,,3,,,,,,,,,,,,,,,
null,,confidence_buffer,1488672,confidence_buffer,,null,,,,,,,,,,,,,,,,,,
1840.7000000001863,,recognition_phase,1490517,Bayshore Haven,,49,,,,,,old,1,0.6842105263157895,,,,,,,,,,
null,,confidence_buffer,1490624,confidence_buffer,,null,,,,,,,,,,,,,,,,,,
null,,thebreak,1491134,break,,null,,,,,,,,,,,,,,,,,,
815.5,,realistic_rating,1491953,Albuquerque,,52,Albuquerque,US,4,,,,,,,,,,,,,,,
null,,confidence_buffer,1492063,confidence_buffer,,null,,,,,,,,,,,,,,,,,,
4308.200000000186,,pt2_unique_rating,1496375,Albuquerque,,51,,,3,,,,,,,,,,,,,,,
null,,confidence_buffer,1496485,confidence_buffer,,null,,,,,,,,,,,,,,,,,,
1141.2999999998137,,pt2_memorable_rating,1497630,Albuquerque,,52,,,4,,,,,,,,,,,,,,,
null,,confidence_buffer,1497735,confidence_buffer,,null,,,,,,,,,,,,,,,,,,
1782.9000000003725,,recognition_phase,1499521,Albuquerque,,52,,,,,,new,1,0.7,,,,,,,,,,
null,,confidence_buffer,1499636,confidence_buffer,,null,,,,,,,,,,,,,,,,,,
null,,thebreak,1500140,break,,null,,,,,,,,,,,,,,,,,,
1803.0999999996275,,realistic_rating,1501947,Hilo,,52,Hilo,US,4,,,,,,,,,,,,,,,
null,,confidence_buffer,1502062,confidence_buffer,,null,,,,,,,,,,,,,,,,,,
906.1000000005588,,pt2_unique_rating,1502972,Hilo,,52,,,4,,,,,,,,,,,,,,,
null,,confidence_buffer,1503082,confidence_buffer,,null,,,,,,,,,,,,,,,,,,
3268.4000000003725,,pt2_memorable_rating,1506354,Hilo,,52,,,4,,,,,,,,,,,,,,,
null,,confidence_buffer,1506460,confidence_buffer,,null,,,,,,,,,,,,,,,,,,
2088.7999999998137,,recognition_phase,1508553,Hilo,,52,,,,,,new,1,0.7142857142857143,,,,,,,,,,
null,,confidence_buffer,1508667,confidence_buffer,,null,,,,,,,,,,,,,,,,,,
null,,thebreak,1509177,break,,null,,,,,,,,,,,,,,,,,,
5961.9000000003725,,realistic_rating,1515142,Park City,,53,Park City,US,5,,,,,,,,,,,,,,,
null,,confidence_buffer,1515248,confidence_buffer,,null,,,,,,,,,,,,,,,,,,
2166.199999999255,,pt2_unique_rating,1517418,Park City,,52,,,4,,,,,,,,,,,,,,,
null,,confidence_buffer,1517529,confidence_buffer,,null,,,,,,,,,,,,,,,,,,
1439.6000000005588,,pt2_memorable_rating,1518972,Park City,,52,,,4,,,,,,,,,,,,,,,
null,,confidence_buffer,1519078,confidence_buffer,,null,,,,,,,,,,,,,,,,,,
8033.399999999441,,recognition_phase,1527115,Park City,,49,,,,,,old,1,0.7272727272727273,,,,,,,,,,
null,,confidence_buffer,1527227,confidence_buffer,,null,,,,,,,,,,,,,,,,,,
null,,thebreak,1527743,break,,null,,,,,,,,,,,,,,,,,,
6879.5,,realistic_rating,1534626,East Ladera,,52,East Ladera,Fictional,4,,,,,,,,,,,,,,,
null,,confidence_buffer,1534733,confidence_buffer,,null,,,,,,,,,,,,,,,,,,
4766.799999999814,,pt2_unique_rating,1539503,East Ladera,,51,,,3,,,,,,,,,,,,,,,
null,,confidence_buffer,1539611,confidence_buffer,,null,,,,,,,,,,,,,,,,,,
1044,,pt2_memorable_rating,1540658,East Ladera,,51,,,3,,,,,,,,,,,,,,,
null,,confidence_buffer,1540766,confidence_buffer,,null,,,,,,,,,,,,,,,,,,
9289.800000000745,,recognition_phase,1550060,East Ladera,,52,,,,,,new,1,0.7391304347826086,,,,,,,,,,
null,,confidence_buffer,1550167,confidence_buffer,,null,,,,,,,,,,,,,,,,,,
null,,thebreak,1550683,break,,null,,,,,,,,,,,,,,,,,,
6054.5,,realistic_rating,1556741,Cedarwyn,,52,Cedarwyn,Fictional,4,,,,,,,,,,,,,,,
null,,confidence_buffer,1556845,confidence_buffer,,null,,,,,,,,,,,,,,,,,,
1732.5,,pt2_unique_rating,1558581,Cedarwyn,,52,,,4,,,,,,,,,,,,,,,
null,,confidence_buffer,1558693,confidence_buffer,,null,,,,,,,,,,,,,,,,,,
2052.5,,pt2_memorable_rating,1560749,Cedarwyn,,52,,,4,,,,,,,,,,,,,,,
null,,confidence_buffer,1560856,confidence_buffer,,null,,,,,,,,,,,,,,,,,,
3664.0999999996275,,recognition_phase,1564523,Cedarwyn,,52,,,,,,new,1,0.75,,,,,,,,,,
null,,confidence_buffer,1564632,confidence_buffer,,null,,,,,,,,,,,,,,,,,,
null,,thebreak,1565147,break,,null,,,,,,,,,,,,,,,,,,
5486.9000000003725,,realistic_rating,1570639,Assateague Island,,50,Assateague Island,US,2,,,,,,,,,,,,,,,
null,,confidence_buffer,1570751,confidence_buffer,,null,,,,,,,,,,,,,,,,,,
2856.699999999255,,probe_rating,1573611,probe_rating,,51,,,,3,1,,,,,,,,,,,,,
null,,confidence_buffer,1573718,confidence_buffer,,null,,,,,,,,,,,,,,,,,,
3420.9000000003725,,pt2_unique_rating,1577142,Assateague Island,,51,,,3,,,,,,,,,,,,,,,
null,,confidence_buffer,1577247,confidence_buffer,,null,,,,,,,,,,,,,,,,,,
1079.4000000003725,,pt2_memorable_rating,1578330,Assateague Island,,51,,,3,,,,,,,,,,,,,,,
null,,confidence_buffer,1578438,confidence_buffer,,null,,,,,,,,,,,,,,,,,,
2213.2999999998137,,recognition_phase,1580655,Assateague Island,,49,,,,,,old,1,0.76,,,,,,,,,,
null,,confidence_buffer,1580759,confidence_buffer,,null,,,,,,,,,,,,,,,,,,
null,,thebreak,1581267,break,,null,,,,,,,,,,,,,,,,,,
5431.299999999814,,realistic_rating,1586702,Gloucester,,50,Gloucester,US,2,,,,,,,,,,,,,,,
null,,confidence_buffer,1586807,confidence_buffer,,null,,,,,,,,,,,,,,,,,,
1844.7999999998137,,pt2_unique_rating,1588656,Gloucester,,50,,,2,,,,,,,,,,,,,,,
null,,confidence_buffer,1588760,confidence_buffer,,null,,,,,,,,,,,,,,,,,,
1365.2000000001863,,pt2_memorable_rating,1590129,Gloucester,,50,,,2,,,,,,,,,,,,,,,
null,,confidence_buffer,1590239,confidence_buffer,,null,,,,,,,,,,,,,,,,,,
4475.5,,recognition_phase,1594719,Gloucester,,52,,,,,,new,1,0.7692307692307693,,,,,,,,,,
null,,confidence_buffer,1594829,confidence_buffer,,null,,,,,,,,,,,,,,,,,,
null,,thebreak,1595341,break,,null,,,,,,,,,,,,,,,,,,
4613.299999999814,,realistic_rating,1599958,Baymarsh,,52,Baymarsh,Fictional,4,,,,,,,,,,,,,,,
null,,confidence_buffer,1600068,confidence_buffer,,null,,,,,,,,,,,,,,,,,,
1143.9000000003725,,pt2_unique_rating,1601215,Baymarsh,,52,,,4,,,,,,,,,,,,,,,
null,,confidence_buffer,1601326,confidence_buffer,,null,,,,,,,,,,,,,,,,,,
1226.0999999996275,,pt2_memorable_rating,1602555,Baymarsh,,51,,,3,,,,,,,,,,,,,,,
null,,confidence_buffer,1602666,confidence_buffer,,null,,,,,,,,,,,,,,,,,,
2340.0999999996275,,recognition_phase,1605009,Baymarsh,,49,,,,,,old,0,0.7407407407407407,,,,,,,,,,
null,,confidence_buffer,1605114,confidence_buffer,,null,,,,,,,,,,,,,,,,,,
null,,thebreak,1605630,break,,null,,,,,,,,,,,,,,,,,,
8179.200000000186,,realistic_rating,1613813,Summershade,,52,Summershade,Fictional,4,,,,,,,,,,,,,,,
null,,confidence_buffer,1613919,confidence_buffer,,null,,,,,,,,,,,,,,,,,,
1741.5,,pt2_unique_rating,1615664,Summershade,,52,,,4,,,,,,,,,,,,,,,
null,,confidence_buffer,1615770,confidence_buffer,,null,,,,,,,,,,,,,,,,,,
562.6000000005588,,pt2_memorable_rating,1616337,Summershade,,52,,,4,,,,,,,,,,,,,,,
null,,confidence_buffer,1616447,confidence_buffer,,null,,,,,,,,,,,,,,,,,,
3022.4000000003725,,recognition_phase,1619473,Summershade,,49,,,,,,old,1,0.75,,,,,,,,,,
null,,confidence_buffer,1619586,confidence_buffer,,null,,,,,,,,,,,,,,,,,,
null,,thebreak,1620095,break,,null,,,,,,,,,,,,,,,,,,
1458.3999999994412,,realistic_rating,1621556,Abilene,,53,Abilene,US,5,,,,,,,,,,,,,,,
null,,confidence_buffer,1621677,confidence_buffer,,null,,,,,,,,,,,,,,,,,,
1013.5999999996275,,pt2_unique_rating,1622694,Abilene,,53,,,5,,,,,,,,,,,,,,,
null,,confidence_buffer,1622802,confidence_buffer,,null,,,,,,,,,,,,,,,,,,
783.6000000005588,,pt2_memorable_rating,1623590,Abilene,,53,,,5,,,,,,,,,,,,,,,
null,,confidence_buffer,1623700,confidence_buffer,,null,,,,,,,,,,,,,,,,,,
2757.7999999998137,,recognition_phase,1626461,Abilene,,52,,,,,,new,1,0.7586206896551724,,,,,,,,,,
null,,confidence_buffer,1626582,confidence_buffer,,null,,,,,,,,,,,,,,,,,,
null,,thebreak,1627089,break,,null,,,,,,,,,,,,,,,,,,
3978.2000000001863,,realistic_rating,1631071,North Arroya,,51,North Arroya,Fictional,3,,,,,,,,,,,,,,,
null,,confidence_buffer,1631177,confidence_buffer,,null,,,,,,,,,,,,,,,,,,
1016.2000000001863,,pt2_unique_rating,1632197,North Arroya,,52,,,4,,,,,,,,,,,,,,,
null,,confidence_buffer,1632307,confidence_buffer,,null,,,,,,,,,,,,,,,,,,
568.5999999996275,,pt2_memorable_rating,1632880,North Arroya,,51,,,3,,,,,,,,,,,,,,,
null,,confidence_buffer,1632986,confidence_buffer,,null,,,,,,,,,,,,,,,,,,
2162.800000000745,,recognition_phase,1635152,North Arroya,,52,,,,,,new,1,0.7666666666666667,,,,,,,,,,
null,,confidence_buffer,1635257,confidence_buffer,,null,,,,,,,,,,,,,,,,,,
null,,thebreak,1635761,break,,null,,,,,,,,,,,,,,,,,,
6056.299999999814,,realistic_rating,1641823,Meadowspire,,52,Meadowspire,Fictional,4,,,,,,,,,,,,,,,
null,,confidence_buffer,1641932,confidence_buffer,,null,,,,,,,,,,,,,,,,,,
6778.0999999996275,,pt2_unique_rating,1648717,Meadowspire,,52,,,4,,,,,,,,,,,,,,,
null,,confidence_buffer,1648826,confidence_buffer,,null,,,,,,,,,,,,,,,,,,
1244.4000000003725,,pt2_memorable_rating,1650075,Meadowspire,,53,,,5,,,,,,,,,,,,,,,
null,,confidence_buffer,1650187,confidence_buffer,,null,,,,,,,,,,,,,,,,,,
8368.5,,recognition_phase,1658559,Meadowspire,,52,,,,,,new,0,0.7419354838709677,,,,,,,,,,
null,,confidence_buffer,1658671,confidence_buffer,,null,,,,,,,,,,,,,,,,,,
null,,thebreak,1659179,break,,null,,,,,,,,,,,,,,,,,,
4116.299999999814,,realistic_rating,1663299,Delaro Park,,52,Delaro Park,Fictional,4,,,,,,,,,,,,,,,
null,,confidence_buffer,1663409,confidence_buffer,,null,,,,,,,,,,,,,,,,,,
1683.0999999996275,,pt2_unique_rating,1665096,Delaro Park,,52,,,4,,,,,,,,,,,,,,,
null,,confidence_buffer,1665208,confidence_buffer,,null,,,,,,,,,,,,,,,,,,
1912.2000000001863,,pt2_memorable_rating,1667123,Delaro Park,,52,,,4,,,,,,,,,,,,,,,
null,,confidence_buffer,1667233,confidence_buffer,,null,,,,,,,,,,,,,,,,,,
1196.4000000003725,,recognition_phase,1668433,Delaro Park,,52,,,,,,new,0,0.71875,,,,,,,,,,
null,,confidence_buffer,1668538,confidence_buffer,,null,,,,,,,,,,,,,,,,,,
null,,thebreak,1669048,break,,null,,,,,,,,,,,,,,,,,,
5019,,realistic_rating,1674071,Carmel,,51,Carmel,US,3,,,,,,,,,,,,,,,
null,,confidence_buffer,1674184,confidence_buffer,,null,,,,,,,,,,,,,,,,,,
3226.600000000559,,pt2_unique_rating,1677414,Carmel,,51,,,3,,,,,,,,,,,,,,,
null,,confidence_buffer,1677523,confidence_buffer,,null,,,,,,,,,,,,,,,,,,
2762.2999999998137,,pt2_memorable_rating,1680289,Carmel,,51,,,3,,,,,,,,,,,,,,,
null,,confidence_buffer,1680395,confidence_buffer,,null,,,,,,,,,,,,,,,,,,
1481.9000000003725,,recognition_phase,1681881,Carmel,,49,,,,,,old,1,0.7272727272727273,,,,,,,,,,
null,,confidence_buffer,1681992,confidence_buffer,,null,,,,,,,,,,,,,,,,,,
null,,thebreak,1682495,break,,null,,,,,,,,,,,,,,,,,,
4220.0999999996275,,realistic_rating,1686719,Coralridge,,52,Coralridge,Fictional,4,,,,,,,,,,,,,,,
null,,confidence_buffer,1686828,confidence_buffer,,null,,,,,,,,,,,,,,,,,,
752.7999999998137,,pt2_unique_rating,1687585,Coralridge,,51,,,3,,,,,,,,,,,,,,,
null,,confidence_buffer,1687695,confidence_buffer,,null,,,,,,,,,,,,,,,,,,
930.9000000003725,,pt2_memorable_rating,1688630,Coralridge,,52,,,4,,,,,,,,,,,,,,,
null,,confidence_buffer,1688742,confidence_buffer,,null,,,,,,,,,,,,,,,,,,
1416.5999999996275,,recognition_phase,1690163,Coralridge,,49,,,,,,old,1,0.7352941176470589,,,,,,,,,,
null,,confidence_buffer,1690269,confidence_buffer,,null,,,,,,,,,,,,,,,,,,
null,,thebreak,1690779,break,,null,,,,,,,,,,,,,,,,,,
2417.5,,realistic_rating,1693200,Lake of the Ozarks,,53,Lake of the Ozarks,US,5,,,,,,,,,,,,,,,
null,,confidence_buffer,1693320,confidence_buffer,,null,,,,,,,,,,,,,,,,,,
2158.5999999996275,,pt2_unique_rating,1695482,Lake of the Ozarks,,52,,,4,,,,,,,,,,,,,,,
null,,confidence_buffer,1695593,confidence_buffer,,null,,,,,,,,,,,,,,,,,,
1987.0999999996275,,pt2_memorable_rating,1697584,Lake of the Ozarks,,53,,,5,,,,,,,,,,,,,,,
null,,confidence_buffer,1697694,confidence_buffer,,null,,,,,,,,,,,,,,,,,,
1594,,recognition_phase,1699292,Lake of the Ozarks,,52,,,,,,new,1,0.7428571428571429,,,,,,,,,,
null,,confidence_buffer,1699405,confidence_buffer,,null,,,,,,,,,,,,,,,,,,
null,,thebreak,1699921,break,,null,,,,,,,,,,,,,,,,,,
7442.9000000003725,,realistic_rating,1707368,Linden Trace,,52,Linden Trace,Fictional,4,,,,,,,,,,,,,,,
null,,confidence_buffer,1707478,confidence_buffer,,null,,,,,,,,,,,,,,,,,,
1126.7999999998137,,pt2_unique_rating,1708609,Linden Trace,,52,,,4,,,,,,,,,,,,,,,
null,,confidence_buffer,1708720,confidence_buffer,,null,,,,,,,,,,,,,,,,,,
648.6000000005588,,pt2_memorable_rating,1709372,Linden Trace,,52,,,4,,,,,,,,,,,,,,,
null,,confidence_buffer,1709489,confidence_buffer,,null,,,,,,,,,,,,,,,,,,
1825.2000000001863,,recognition_phase,1711318,Linden Trace,,52,,,,,,new,1,0.75,,,,,,,,,,
null,,confidence_buffer,1711429,confidence_buffer,,null,,,,,,,,,,,,,,,,,,
null,,thebreak,1711937,break,,null,,,,,,,,,,,,,,,,,,
3214,,realistic_rating,1715157,West Palm Beach,,52,West Palm Beach,US,4,,,,,,,,,,,,,,,
null,,confidence_buffer,1715277,confidence_buffer,,null,,,,,,,,,,,,,,,,,,
439.20000000018626,,pt2_unique_rating,1715719,West Palm Beach,,52,,,4,,,,,,,,,,,,,,,
null,,confidence_buffer,1715841,confidence_buffer,,null,,,,,,,,,,,,,,,,,,
487.90000000037253,,pt2_memorable_rating,1716333,West Palm Beach,,52,,,4,,,,,,,,,,,,,,,
null,,confidence_buffer,1716450,confidence_buffer,,null,,,,,,,,,,,,,,,,,,
1663.7999999998137,,probe_rating,1718118,probe_rating,,51,,,,3,1,,,,,,,,,,,,,
null,,confidence_buffer,1718232,confidence_buffer,,null,,,,,,,,,,,,,,,,,,
2642.0999999996275,,recognition_phase,1720879,West Palm Beach,,52,,,,,,new,0,0.7297297297297297,,,,,,,,,,
null,,confidence_buffer,1720996,confidence_buffer,,null,,,,,,,,,,,,,,,,,,
null,,thebreak,1721506,break,,null,,,,,,,,,,,,,,,,,,
3982.399999999441,,realistic_rating,1725493,Northbridge,,52,Northbridge,Fictional,4,,,,,,,,,,,,,,,
null,,confidence_buffer,1725601,confidence_buffer,,null,,,,,,,,,,,,,,,,,,
1857.2999999998137,,probe_rating,1727462,probe_rating,,50,,,,2,1,,,,,,,,,,,,,
null,,confidence_buffer,1727572,confidence_buffer,,null,,,,,,,,,,,,,,,,,,
6742.899999999441,,pt2_unique_rating,1734318,Northbridge,,51,,,3,,,,,,,,,,,,,,,
null,,confidence_buffer,1734426,confidence_buffer,,null,,,,,,,,,,,,,,,,,,
4982.100000000559,,pt2_memorable_rating,1739412,Northbridge,,53,,,5,,,,,,,,,,,,,,,
null,,confidence_buffer,1739523,confidence_buffer,,null,,,,,,,,,,,,,,,,,,
1650.7000000001863,,recognition_phase,1741178,Northbridge,,49,,,,,,old,1,0.7368421052631579,,,,,,,,,,
null,,confidence_buffer,1741288,confidence_buffer,,null,,,,,,,,,,,,,,,,,,
null,,thebreak,1741797,break,,null,,,,,,,,,,,,,,,,,,
3323.5,,realistic_rating,1745124,Bar Harbor,,52,Bar Harbor,US,4,,,,,,,,,,,,,,,
null,,confidence_buffer,1745232,confidence_buffer,,null,,,,,,,,,,,,,,,,,,
1089.1000000005588,,pt2_unique_rating,1746326,Bar Harbor,,52,,,4,,,,,,,,,,,,,,,
null,,confidence_buffer,1746434,confidence_buffer,,null,,,,,,,,,,,,,,,,,,
795.2999999998137,,pt2_memorable_rating,1747234,Bar Harbor,,52,,,4,,,,,,,,,,,,,,,
null,,confidence_buffer,1747341,confidence_buffer,,null,,,,,,,,,,,,,,,,,,
1688.7000000001863,,recognition_phase,1749034,Bar Harbor,,49,,,,,,old,0,0.717948717948718,,,,,,,,,,
null,,confidence_buffer,1749140,confidence_buffer,,null,,,,,,,,,,,,,,,,,,
null,,thebreak,1749659,break,,null,,,,,,,,,,,,,,,,,,
3926.7999999998137,,realistic_rating,1753590,Manistee,,53,Manistee,US,5,,,,,,,,,,,,,,,
null,,confidence_buffer,1753695,confidence_buffer,,null,,,,,,,,,,,,,,,,,,
796.5,,pt2_unique_rating,1754496,Manistee,,52,,,4,,,,,,,,,,,,,,,
null,,confidence_buffer,1754606,confidence_buffer,,null,,,,,,,,,,,,,,,,,,
1378.2000000001863,,pt2_memorable_rating,1755988,Manistee,,53,,,5,,,,,,,,,,,,,,,
null,,confidence_buffer,1756093,confidence_buffer,,null,,,,,,,,,,,,,,,,,,
2257.2000000001863,,recognition_phase,1758354,Manistee,,52,,,,,,new,1,0.725,,,,,,,,,,
null,,confidence_buffer,1758466,confidence_buffer,,null,,,,,,,,,,,,,,,,,,
null,,thebreak,1758982,break,,null,,,,,,,,,,,,,,,,,,
5193,,realistic_rating,1764179,Sisters,,49,Sisters,US,1,,,,,,,,,,,,,,,
null,,confidence_buffer,1764287,confidence_buffer,,null,,,,,,,,,,,,,,,,,,
5850.799999999814,,pt2_unique_rating,1770141,Sisters,,51,,,3,,,,,,,,,,,,,,,
null,,confidence_buffer,1770248,confidence_buffer,,null,,,,,,,,,,,,,,,,,,
1915.5,,pt2_memorable_rating,1772168,Sisters,,51,,,3,,,,,,,,,,,,,,,
null,,confidence_buffer,1772280,confidence_buffer,,null,,,,,,,,,,,,,,,,,,
16348.900000000373,,recognition_phase,1788633,Sisters,,51,,,,,,new,0,0.7073170731707317,,,,,,,,,,
null,,confidence_buffer,1788741,confidence_buffer,,null,,,,,,,,,,,,,,,,,,
null,,thebreak,1789249,break,,null,,,,,,,,,,,,,,,,,,
7297.200000000186,,realistic_rating,1796551,Okoboji,,51,Okoboji,US,3,,,,,,,,,,,,,,,
null,,confidence_buffer,1796660,confidence_buffer,,null,,,,,,,,,,,,,,,,,,
1068.7000000001863,,probe_rating,1797732,probe_rating,,51,,,,3,1,,,,,,,,,,,,,
null,,confidence_buffer,1797843,confidence_buffer,,null,,,,,,,,,,,,,,,,,,
4914.399999999441,,pt2_unique_rating,1802761,Okoboji,,51,,,3,,,,,,,,,,,,,,,
null,,confidence_buffer,1802880,confidence_buffer,,null,,,,,,,,,,,,,,,,,,
1389.5999999996275,,pt2_memorable_rating,1804274,Okoboji,,51,,,3,,,,,,,,,,,,,,,
null,,confidence_buffer,1804380,confidence_buffer,,null,,,,,,,,,,,,,,,,,,
2474.2000000001863,,recognition_phase,1806858,Okoboji,,52,,,,,,new,1,0.7142857142857143,,,,,,,,,,
null,,confidence_buffer,1806970,confidence_buffer,,null,,,,,,,,,,,,,,,,,,
null,,thebreak,1807476,break,,null,,,,,,,,,,,,,,,,,,
5499.700000000186,,realistic_rating,1812980,Medora,,52,Medora,US,4,,,,,,,,,,,,,,,
null,,confidence_buffer,1813099,confidence_buffer,,null,,,,,,,,,,,,,,,,,,
1403.4000000003725,,pt2_unique_rating,1814506,Medora,,52,,,4,,,,,,,,,,,,,,,
null,,confidence_buffer,1814621,confidence_buffer,,null,,,,,,,,,,,,,,,,,,
1094.5,,pt2_memorable_rating,1815720,Medora,,52,,,4,,,,,,,,,,,,,,,
null,,confidence_buffer,1815836,confidence_buffer,,null,,,,,,,,,,,,,,,,,,
1326.2000000001863,,recognition_phase,1817167,Medora,,52,,,,,,new,0,0.6976744186046512,,,,,,,,,,
null,,confidence_buffer,1817277,confidence_buffer,,null,,,,,,,,,,,,,,,,,,
null,,thebreak,1817797,break,,null,,,,,,,,,,,,,,,,,,
1677.5,,realistic_rating,1819479,Highvale,,52,Highvale,Fictional,4,,,,,,,,,,,,,,,
null,,confidence_buffer,1819591,confidence_buffer,,null,,,,,,,,,,,,,,,,,,
1733,,pt2_unique_rating,1821328,Highvale,,52,,,4,,,,,,,,,,,,,,,
null,,confidence_buffer,1821437,confidence_buffer,,null,,,,,,,,,,,,,,,,,,
922,,pt2_memorable_rating,1822363,Highvale,,52,,,4,,,,,,,,,,,,,,,
null,,confidence_buffer,1822473,confidence_buffer,,null,,,,,,,,,,,,,,,,,,
1137.2999999998137,,recognition_phase,1823614,Highvale,,52,,,,,,new,1,0.7045454545454546,,,,,,,,,,
null,,confidence_buffer,1823722,confidence_buffer,,null,,,,,,,,,,,,,,,,,,
null,,thebreak,1824227,break,,null,,,,,,,,,,,,,,,,,,
967.3000000007451,,realistic_rating,1825198,New Verdan,,52,New Verdan,Fictional,4,,,,,,,,,,,,,,,
null,,confidence_buffer,1825306,confidence_buffer,,null,,,,,,,,,,,,,,,,,,
893.6999999992549,,pt2_unique_rating,1826204,New Verdan,,52,,,4,,,,,,,,,,,,,,,
null,,confidence_buffer,1826320,confidence_buffer,,null,,,,,,,,,,,,,,,,,,
522.2000000001863,,pt2_memorable_rating,1826846,New Verdan,,52,,,4,,,,,,,,,,,,,,,
null,,confidence_buffer,1826953,confidence_buffer,,null,,,,,,,,,,,,,,,,,,
615.8999999994412,,recognition_phase,1827574,New Verdan,,52,,,,,,new,1,0.7111111111111111,,,,,,,,,,
null,,confidence_buffer,1827685,confidence_buffer,,null,,,,,,,,,,,,,,,,,,
null,,thebreak,1828194,break,,null,,,,,,,,,,,,,,,,,,
483.70000000018626,,realistic_rating,1828682,Millstone,,52,Millstone,Fictional,4,,,,,,,,,,,,,,,
null,,confidence_buffer,1828803,confidence_buffer,,null,,,,,,,,,,,,,,,,,,
2765.5,,pt2_unique_rating,1831572,Millstone,,52,,,4,,,,,,,,,,,,,,,
null,,confidence_buffer,1831681,confidence_buffer,,null,,,,,,,,,,,,,,,,,,
893.7999999998137,,pt2_memorable_rating,1832579,Millstone,,52,,,4,,,,,,,,,,,,,,,
null,,confidence_buffer,1832690,confidence_buffer,,null,,,,,,,,,,,,,,,,,,
1061.2000000001863,,recognition_phase,1833755,Millstone,,52,,,,,,new,1,0.717391304347826,,,,,,,,,,
null,,confidence_buffer,1833862,confidence_buffer,,null,,,,,,,,,,,,,,,,,,
null,,thebreak,1834371,break,,null,,,,,,,,,,,,,,,,,,
1403.2000000001863,,realistic_rating,1835779,Shreveport,,52,Shreveport,US,4,,,,,,,,,,,,,,,
null,,confidence_buffer,1835886,confidence_buffer,,null,,,,,,,,,,,,,,,,,,
764.9000000003725,,pt2_unique_rating,1836655,Shreveport,,52,,,4,,,,,,,,,,,,,,,
null,,confidence_buffer,1836763,confidence_buffer,,null,,,,,,,,,,,,,,,,,,
773.3999999994412,,pt2_memorable_rating,1837540,Shreveport,,52,,,4,,,,,,,,,,,,,,,
null,,confidence_buffer,1837646,confidence_buffer,,null,,,,,,,,,,,,,,,,,,
1000.8999999994412,,recognition_phase,1838651,Shreveport,,52,,,,,,new,1,0.723404255319149,,,,,,,,,,
null,,confidence_buffer,1838769,confidence_buffer,,null,,,,,,,,,,,,,,,,,,
null,,thebreak,1839276,break,,null,,,,,,,,,,,,,,,,,,
2874.5,,realistic_rating,1842155,Hawthorne Bluffs,,52,Hawthorne Bluffs,Fictional,4,,,,,,,,,,,,,,,
null,,confidence_buffer,1842266,confidence_buffer,,null,,,,,,,,,,,,,,,,,,
1507.0999999996275,,pt2_unique_rating,1843777,Hawthorne Bluffs,,52,,,4,,,,,,,,,,,,,,,
null,,confidence_buffer,1843897,confidence_buffer,,null,,,,,,,,,,,,,,,,,,
830.1999999992549,,pt2_memorable_rating,1844732,Hawthorne Bluffs,,52,,,4,,,,,,,,,,,,,,,
null,,confidence_buffer,1844838,confidence_buffer,,null,,,,,,,,,,,,,,,,,,
1123.800000000745,,recognition_phase,1845966,Hawthorne Bluffs,,49,,,,,,old,1,0.7291666666666666,,,,,,,,,,
null,,confidence_buffer,1846079,confidence_buffer,,null,,,,,,,,,,,,,,,,,,
null,,thebreak,1846587,break,,null,,,,,,,,,,,,,,,,,,
3152.100000000559,,realistic_rating,1849743,Hollendale,,52,Hollendale,Fictional,4,,,,,,,,,,,,,,,
null,,confidence_buffer,1849850,confidence_buffer,,null,,,,,,,,,,,,,,,,,,
1323.9000000003725,,pt2_unique_rating,1851178,Hollendale,,52,,,4,,,,,,,,,,,,,,,
null,,confidence_buffer,1851286,confidence_buffer,,null,,,,,,,,,,,,,,,,,,
903.2999999998137,,pt2_memorable_rating,1852193,Hollendale,,52,,,4,,,,,,,,,,,,,,,
null,,confidence_buffer,1852312,confidence_buffer,,null,,,,,,,,,,,,,,,,,,
3708.2000000001863,,recognition_phase,1856025,Hollendale,,52,,,,,,new,1,0.7346938775510204,,,,,,,,,,
null,,confidence_buffer,1856146,confidence_buffer,,null,,,,,,,,,,,,,,,,,,
null,,thebreak,1856652,break,,null,,,,,,,,,,,,,,,,,,
1997,,realistic_rating,1858654,Sierra Hollow,,52,Sierra Hollow,Fictional,4,,,,,,,,,,,,,,,
null,,confidence_buffer,1858769,confidence_buffer,,null,,,,,,,,,,,,,,,,,,
875.0999999996275,,pt2_unique_rating,1859648,Sierra Hollow,,52,,,4,,,,,,,,,,,,,,,
null,,confidence_buffer,1859767,confidence_buffer,,null,,,,,,,,,,,,,,,,,,
530.2999999998137,,pt2_memorable_rating,1860302,Sierra Hollow,,52,,,4,,,,,,,,,,,,,,,
null,,confidence_buffer,1860411,confidence_buffer,,null,,,,,,,,,,,,,,,,,,
7396.600000000559,,recognition_phase,1867811,Sierra Hollow,,51,,,,,,new,1,0.74,,,,,,,,,,
null,,confidence_buffer,1867916,confidence_buffer,,null,,,,,,,,,,,,,,,,,,
null,,thebreak,1868427,break,,null,,,,,,,,,,,,,,,,,,
4573.800000000745,,realistic_rating,1873005,Clearbrook,,52,Clearbrook,Fictional,4,,,,,,,,,,,,,,,
null,,confidence_buffer,1873118,confidence_buffer,,null,,,,,,,,,,,,,,,,,,
5484.5,,pt2_unique_rating,1878607,Clearbrook,,50,,,2,,,,,,,,,,,,,,,
null,,confidence_buffer,1878718,confidence_buffer,,null,,,,,,,,,,,,,,,,,,
1841.3999999994412,,pt2_memorable_rating,1880564,Clearbrook,,52,,,4,,,,,,,,,,,,,,,
null,,confidence_buffer,1880682,confidence_buffer,,null,,,,,,,,,,,,,,,,,,
1930.3999999994412,,recognition_phase,1882616,Clearbrook,,49,,,,,,old,1,0.7450980392156863,,,,,,,,,,
null,,confidence_buffer,1882720,confidence_buffer,,null,,,,,,,,,,,,,,,,,,
null,,thebreak,1883231,break,,null,,,,,,,,,,,,,,,,,,
2751,,realistic_rating,1885986,Crestwood,,52,Crestwood,Fictional,4,,,,,,,,,,,,,,,
null,,confidence_buffer,1886097,confidence_buffer,,null,,,,,,,,,,,,,,,,,,
1031.5,,pt2_unique_rating,1887133,Crestwood,,52,,,4,,,,,,,,,,,,,,,
null,,confidence_buffer,1887239,confidence_buffer,,null,,,,,,,,,,,,,,,,,,
985.2999999998137,,pt2_memorable_rating,1888229,Crestwood,,52,,,4,,,,,,,,,,,,,,,
null,,confidence_buffer,1888335,confidence_buffer,,null,,,,,,,,,,,,,,,,,,
766.6000000005588,,recognition_phase,1889106,Crestwood,,49,,,,,,old,1,0.75,,,,,,,,,,
null,,confidence_buffer,1889212,confidence_buffer,,null,,,,,,,,,,,,,,,,,,
null,,thebreak,1889718,break,,null,,,,,,,,,,,,,,,,,,
1944.2000000001863,,realistic_rating,1891664,Healdsburg,,52,Healdsburg,US,4,,,,,,,,,,,,,,,
null,,confidence_buffer,1891778,confidence_buffer,,null,,,,,,,,,,,,,,,,,,
1260.2999999998137,,pt2_unique_rating,1893042,Healdsburg,,51,,,3,,,,,,,,,,,,,,,
null,,confidence_buffer,1893157,confidence_buffer,,null,,,,,,,,,,,,,,,,,,
996.8000000007451,,pt2_memorable_rating,1894158,Healdsburg,,52,,,4,,,,,,,,,,,,,,,
null,,confidence_buffer,1894265,confidence_buffer,,null,,,,,,,,,,,,,,,,,,
2242,,recognition_phase,1896512,Healdsburg,,49,,,,,,old,1,0.7547169811320755,,,,,,,,,,
null,,confidence_buffer,1896631,confidence_buffer,,null,,,,,,,,,,,,,,,,,,
null,,thebreak,1897148,break,,null,,,,,,,,,,,,,,,,,,
918.1000000005588,,realistic_rating,1898070,Cornwall,,52,Cornwall,US,4,,,,,,,,,,,,,,,
null,,confidence_buffer,1898179,confidence_buffer,,null,,,,,,,,,,,,,,,,,,
823.2000000001863,,pt2_unique_rating,1899006,Cornwall,,49,,,1,,,,,,,,,,,,,,,
null,,confidence_buffer,1899119,confidence_buffer,,null,,,,,,,,,,,,,,,,,,
829.1999999992549,,pt2_memorable_rating,1899953,Cornwall,,52,,,4,,,,,,,,,,,,,,,
null,,confidence_buffer,1900063,confidence_buffer,,null,,,,,,,,,,,,,,,,,,
1959.0999999996275,,recognition_phase,1902026,Cornwall,,49,,,,,,old,1,0.7592592592592593,,,,,,,,,,
null,,confidence_buffer,1902135,confidence_buffer,,null,,,,,,,,,,,,,,,,,,
null,,thebreak,1902646,break,,null,,,,,,,,,,,,,,,,,,
1153.2999999998137,,realistic_rating,1903804,New Hope,,52,New Hope,US,4,,,,,,,,,,,,,,,
null,,confidence_buffer,1903909,confidence_buffer,,null,,,,,,,,,,,,,,,,,,
826.2000000001863,,pt2_unique_rating,1904740,New Hope,,52,,,4,,,,,,,,,,,,,,,
null,,confidence_buffer,1904849,confidence_buffer,,null,,,,,,,,,,,,,,,,,,
602.9000000003725,,pt2_memorable_rating,1905456,New Hope,,52,,,4,,,,,,,,,,,,,,,
null,,confidence_buffer,1905567,confidence_buffer,,null,,,,,,,,,,,,,,,,,,
1584.8999999994412,,probe_rating,1907156,probe_rating,,53,,,,5,1,,,,,,,,,,,,,
null,,confidence_buffer,1907273,confidence_buffer,,null,,,,,,,,,,,,,,,,,,
5191.399999999441,,recognition_phase,1912468,New Hope,,49,,,,,,old,1,0.7636363636363637,,,,,,,,,,
null,,confidence_buffer,1912575,confidence_buffer,,null,,,,,,,,,,,,,,,,,,
null,,thebreak,1913092,break,,null,,,,,,,,,,,,,,,,,,
7045.5,,realistic_rating,1920142,Orchard Bend,,53,Orchard Bend,Fictional,5,,,,,,,,,,,,,,,
null,,confidence_buffer,1920258,confidence_buffer,,null,,,,,,,,,,,,,,,,,,
884.4000000003725,,pt2_unique_rating,1921147,Orchard Bend,,53,,,5,,,,,,,,,,,,,,,
null,,confidence_buffer,1921268,confidence_buffer,,null,,,,,,,,,,,,,,,,,,
1572.6000000005588,,pt2_memorable_rating,1922845,Orchard Bend,,52,,,4,,,,,,,,,,,,,,,
null,,confidence_buffer,1922956,confidence_buffer,,null,,,,,,,,,,,,,,,,,,
4864.799999999814,,recognition_phase,1927826,Orchard Bend,,49,,,,,,old,0,0.75,,,,,,,,,,
null,,confidence_buffer,1927935,confidence_buffer,,null,,,,,,,,,,,,,,,,,,
null,,thebreak,1928448,break,,null,,,,,,,,,,,,,,,,,,
1404.7000000001863,,realistic_rating,1929857,Barnard,,52,Barnard,US,4,,,,,,,,,,,,,,,
null,,confidence_buffer,1929963,confidence_buffer,,null,,,,,,,,,,,,,,,,,,
1032.9000000003725,,pt2_unique_rating,1931000,Barnard,,52,,,4,,,,,,,,,,,,,,,
null,,confidence_buffer,1931113,confidence_buffer,,null,,,,,,,,,,,,,,,,,,
536.4000000003725,,pt2_memorable_rating,1931654,Barnard,,52,,,4,,,,,,,,,,,,,,,
null,,confidence_buffer,1931762,confidence_buffer,,null,,,,,,,,,,,,,,,,,,
1945.2999999998137,,recognition_phase,1933712,Barnard,,50,,,,,,old,0,0.7368421052631579,,,,,,,,,,
null,,confidence_buffer,1933823,confidence_buffer,,null,,,,,,,,,,,,,,,,,,
null,,thebreak,1934341,break,,null,,,,,,,,,,,,,,,,,,
1676.5,,realistic_rating,1936022,Fairhaven,,52,Fairhaven,Fictional,4,,,,,,,,,,,,,,,
null,,confidence_buffer,1936143,confidence_buffer,,null,,,,,,,,,,,,,,,,,,
718.2000000001863,,pt2_unique_rating,1936865,Fairhaven,,52,,,4,,,,,,,,,,,,,,,
null,,confidence_buffer,1936976,confidence_buffer,,null,,,,,,,,,,,,,,,,,,
919.6000000005588,,pt2_memorable_rating,1937900,Fairhaven,,52,,,4,,,,,,,,,,,,,,,
null,,confidence_buffer,1938010,confidence_buffer,,null,,,,,,,,,,,,,,,,,,
1092,,recognition_phase,1939107,Fairhaven,,49,,,,,,old,1,0.7413793103448276,,,,,,,,,,
null,,confidence_buffer,1939220,confidence_buffer,,null,,,,,,,,,,,,,,,,,,
null,,thebreak,1939735,break,,null,,,,,,,,,,,,,,,,,,
2589.7000000001863,,realistic_rating,1942329,Bowling Green,,52,Bowling Green,US,4,,,,,,,,,,,,,,,
null,,confidence_buffer,1942438,confidence_buffer,,null,,,,,,,,,,,,,,,,,,
662.3999999994412,,pt2_unique_rating,1943106,Bowling Green,,52,,,4,,,,,,,,,,,,,,,
null,,confidence_buffer,1943212,confidence_buffer,,null,,,,,,,,,,,,,,,,,,
2739.100000000559,,pt2_memorable_rating,1945956,Bowling Green,,51,,,3,,,,,,,,,,,,,,,
null,,confidence_buffer,1946064,confidence_buffer,,null,,,,,,,,,,,,,,,,,,
1174.3999999994412,,recognition_phase,1947243,Bowling Green,,49,,,,,,old,1,0.7457627118644068,,,,,,,,,,
null,,confidence_buffer,1947351,confidence_buffer,,null,,,,,,,,,,,,,,,,,,
null,,thebreak,1947865,break,,null,,,,,,,,,,,,,,,,,,
2120.100000000559,,realistic_rating,1949990,Gardnerville,,52,Gardnerville,US,4,,,,,,,,,,,,,,,
null,,confidence_buffer,1950105,confidence_buffer,,null,,,,,,,,,,,,,,,,,,
1219.4000000003725,,pt2_unique_rating,1951329,Gardnerville,,52,,,4,,,,,,,,,,,,,,,
null,,confidence_buffer,1951444,confidence_buffer,,null,,,,,,,,,,,,,,,,,,
1403,,pt2_memorable_rating,1952852,Gardnerville,,51,,,3,,,,,,,,,,,,,,,
null,,confidence_buffer,1952972,confidence_buffer,,null,,,,,,,,,,,,,,,,,,
5288.5999999996275,,recognition_phase,1958265,Gardnerville,,52,,,,,,new,1,0.75,,,,,,,,,,
null,,confidence_buffer,1958383,confidence_buffer,,null,,,,,,,,,,,,,,,,,,
null,,thebreak,1958888,break,,null,,,,,,,,,,,,,,,,,,
,,survey,2913997,survey-questions,,,,,,,,,,,none,high,WHOLLY FOCUSED,pedantiness,

- I consider how well I recognize the names given.
,- I consider how well the names sticks in my virtual memory based on its composition, or impact.
,- I consider how original and distinctive the image is compared to others.
,- I consider how accurately the names represents the real world. 
,no,N/A
