rt,responses,trial_type,time_elapsed,stimulus,button_pressed,key_press,name_trial,rating,probe,probe_accuracy,response,correct,accuracy,problems,smooth,distraction,strategies,familiar,memorable,unique,realistic,similar,comments
16625.30000001192,{worker_id:67e406244bfad9999a051c1e},id_enter,16628,,,,,,,,,,,,,,,,,,,,
2363.199999988079,,fullscreen,18996,fullscreen,0,,,,,,,,,,,,,,,,,,
1918.9000000357628,,intro_0,20918,instruct,,32,,,,,,,,,,,,,,,,,
1129.1000000238419,,intro_1,22049,instruct,,32,,,,,,,,,,,,,,,,,
777.8000000119209,,intro_2,22828,instruct,,32,,,,,,,,,,,,,,,,,
null,,instruct_dir_4,24338,instruct,,null,,,,,,,,,,,,,,,,,
null,,thebreak,24852,break,,null,,,,,,,,,,,,,,,,,
3112.899999976158,,familiar_rating,27967,Palo Alto,,51,Palo Alto,3,,,,,,,,,,,,,,,
null,,confidence_buffer,28072,confidence_buffer,,null,,,,,,,,,,,,,,,,,
1411,,unique_rating,29485,Palo Alto,,52,,4,,,,,,,,,,,,,,,
null,,confidence_buffer,29587,confidence_buffer,,null,,,,,,,,,,,,,,,,,
1418.0999999642372,,memorable_rating,31007,Palo Alto,,50,,2,,,,,,,,,,,,,,,
null,,confidence_buffer,31108,confidence_buffer,,null,,,,,,,,,,,,,,,,,
null,,thebreak,31610,break,,null,,,,,,,,,,,,,,,,,
1913.800000011921,,familiar_rating,33525,Annapolis,,49,Annapolis,1,,,,,,,,,,,,,,,
null,,confidence_buffer,33627,confidence_buffer,,null,,,,,,,,,,,,,,,,,
827.0999999642372,,unique_rating,34455,Annapolis,,51,,3,,,,,,,,,,,,,,,
null,,confidence_buffer,34557,confidence_buffer,,null,,,,,,,,,,,,,,,,,
559.2999999523163,,memorable_rating,35117,Annapolis,,52,,4,,,,,,,,,,,,,,,
null,,confidence_buffer,35220,confidence_buffer,,null,,,,,,,,,,,,,,,,,
null,,thebreak,35721,break,,null,,,,,,,,,,,,,,,,,
662.7000000476837,,familiar_rating,36385,McKinney,,50,McKinney,2,,,,,,,,,,,,,,,
null,,confidence_buffer,36488,confidence_buffer,,null,,,,,,,,,,,,,,,,,
1056.9000000357628,,unique_rating,37547,McKinney,,51,,3,,,,,,,,,,,,,,,
null,,confidence_buffer,37649,confidence_buffer,,null,,,,,,,,,,,,,,,,,
842.8999999761581,,memorable_rating,38493,McKinney,,52,,4,,,,,,,,,,,,,,,
null,,confidence_buffer,38596,confidence_buffer,,null,,,,,,,,,,,,,,,,,
null,,thebreak,39099,break,,null,,,,,,,,,,,,,,,,,
663.6000000238419,,familiar_rating,39765,Youngstown,,50,Youngstown,2,,,,,,,,,,,,,,,
null,,confidence_buffer,39868,confidence_buffer,,null,,,,,,,,,,,,,,,,,
764.5,,unique_rating,40634,Youngstown,,50,,2,,,,,,,,,,,,,,,
null,,confidence_buffer,40735,confidence_buffer,,null,,,,,,,,,,,,,,,,,
603.2000000476837,,memorable_rating,41340,Youngstown,,52,,4,,,,,,,,,,,,,,,
null,,confidence_buffer,41443,confidence_buffer,,null,,,,,,,,,,,,,,,,,
null,,thebreak,41945,break,,null,,,,,,,,,,,,,,,,,
650.6000000238419,,familiar_rating,42596,Tallahassee,,53,Tallahassee,5,,,,,,,,,,,,,,,
null,,confidence_buffer,42698,confidence_buffer,,null,,,,,,,,,,,,,,,,,
779.7000000476837,,unique_rating,43479,Tallahassee,,52,,4,,,,,,,,,,,,,,,
null,,confidence_buffer,43581,confidence_buffer,,null,,,,,,,,,,,,,,,,,
894.8000000119209,,memorable_rating,44478,Tallahassee,,49,,1,,,,,,,,,,,,,,,
null,,confidence_buffer,44581,confidence_buffer,,null,,,,,,,,,,,,,,,,,
1934.199999988079,,probe_rating,46518,probe_rating,,52,,,4,1,,,,,,,,,,,,,
null,,confidence_buffer,46621,confidence_buffer,,null,,,,,,,,,,,,,,,,,
null,,thebreak,47125,break,,null,,,,,,,,,,,,,,,,,
743.6999999880791,,familiar_rating,47870,Stamford,,50,Stamford,2,,,,,,,,,,,,,,,
null,,confidence_buffer,47973,confidence_buffer,,null,,,,,,,,,,,,,,,,,
606.3999999761581,,unique_rating,48581,Stamford,,51,,3,,,,,,,,,,,,,,,
null,,confidence_buffer,48690,confidence_buffer,,null,,,,,,,,,,,,,,,,,
487.2000000476837,,memorable_rating,49178,Stamford,,53,,5,,,,,,,,,,,,,,,
null,,confidence_buffer,49280,confidence_buffer,,null,,,,,,,,,,,,,,,,,
null,,thebreak,49782,break,,null,,,,,,,,,,,,,,,,,
561.4000000357628,,familiar_rating,50344,Toledo,,53,Toledo,5,,,,,,,,,,,,,,,
null,,confidence_buffer,50447,confidence_buffer,,null,,,,,,,,,,,,,,,,,
800.3999999761581,,unique_rating,51249,Toledo,,49,,1,,,,,,,,,,,,,,,
null,,confidence_buffer,51352,confidence_buffer,,null,,,,,,,,,,,,,,,,,
603.8000000119209,,memorable_rating,51957,Toledo,,50,,2,,,,,,,,,,,,,,,
null,,confidence_buffer,52060,confidence_buffer,,null,,,,,,,,,,,,,,,,,
null,,thebreak,52561,break,,null,,,,,,,,,,,,,,,,,
591.5,,familiar_rating,53154,Bellingham,,51,Bellingham,3,,,,,,,,,,,,,,,
null,,confidence_buffer,53258,confidence_buffer,,null,,,,,,,,,,,,,,,,,
588.9000000357628,,unique_rating,53848,Bellingham,,52,,4,,,,,,,,,,,,,,,
null,,confidence_buffer,53949,confidence_buffer,,null,,,,,,,,,,,,,,,,,
640.3999999761581,,memorable_rating,54591,Bellingham,,50,,2,,,,,,,,,,,,,,,
null,,confidence_buffer,54694,confidence_buffer,,null,,,,,,,,,,,,,,,,,
null,,thebreak,55195,break,,null,,,,,,,,,,,,,,,,,
2668.899999976158,,familiar_rating,57865,Concord,,51,Concord,3,,,,,,,,,,,,,,,
null,,confidence_buffer,57968,confidence_buffer,,null,,,,,,,,,,,,,,,,,
901.2999999523163,,unique_rating,58871,Concord,,52,,4,,,,,,,,,,,,,,,
null,,confidence_buffer,58974,confidence_buffer,,null,,,,,,,,,,,,,,,,,
830.6999999880791,,memorable_rating,59806,Concord,,50,,2,,,,,,,,,,,,,,,
null,,confidence_buffer,59909,confidence_buffer,,null,,,,,,,,,,,,,,,,,
null,,thebreak,60410,break,,null,,,,,,,,,,,,,,,,,
695.4000000357628,,familiar_rating,61107,Athens,,52,Athens,4,,,,,,,,,,,,,,,
null,,confidence_buffer,61210,confidence_buffer,,null,,,,,,,,,,,,,,,,,
890.5,,unique_rating,62101,Athens,,50,,2,,,,,,,,,,,,,,,
null,,confidence_buffer,62207,confidence_buffer,,null,,,,,,,,,,,,,,,,,
624.3999999761581,,memorable_rating,62832,Athens,,52,,4,,,,,,,,,,,,,,,
null,,confidence_buffer,62934,confidence_buffer,,null,,,,,,,,,,,,,,,,,
1620.9000000357628,,probe_rating,64556,probe_rating,,50,,,2,1,,,,,,,,,,,,,
null,,confidence_buffer,64659,confidence_buffer,,null,,,,,,,,,,,,,,,,,
null,,thebreak,65161,break,,null,,,,,,,,,,,,,,,,,
502.10000002384186,,familiar_rating,65665,Fort Collins,,51,Fort Collins,3,,,,,,,,,,,,,,,
null,,confidence_buffer,65768,confidence_buffer,,null,,,,,,,,,,,,,,,,,
454.2000000476837,,unique_rating,66224,Fort Collins,,52,,4,,,,,,,,,,,,,,,
null,,confidence_buffer,66326,confidence_buffer,,null,,,,,,,,,,,,,,,,,
582.1000000238419,,memorable_rating,66910,Fort Collins,,52,,4,,,,,,,,,,,,,,,
null,,confidence_buffer,67013,confidence_buffer,,null,,,,,,,,,,,,,,,,,
null,,thebreak,67515,break,,null,,,,,,,,,,,,,,,,,
582.8000000119209,,familiar_rating,68099,Salem,,50,Salem,2,,,,,,,,,,,,,,,
null,,confidence_buffer,68202,confidence_buffer,,null,,,,,,,,,,,,,,,,,
609.8000000119209,,unique_rating,68813,Salem,,50,,2,,,,,,,,,,,,,,,
null,,confidence_buffer,68915,confidence_buffer,,null,,,,,,,,,,,,,,,,,
822.8000000119209,,memorable_rating,69740,Salem,,50,,2,,,,,,,,,,,,,,,
null,,confidence_buffer,69842,confidence_buffer,,null,,,,,,,,,,,,,,,,,
null,,thebreak,70344,break,,null,,,,,,,,,,,,,,,,,
513.1000000238419,,familiar_rating,70859,Cambridge,,51,Cambridge,3,,,,,,,,,,,,,,,
null,,confidence_buffer,70961,confidence_buffer,,null,,,,,,,,,,,,,,,,,
530.1999999880791,,unique_rating,71493,Cambridge,,52,,4,,,,,,,,,,,,,,,
null,,confidence_buffer,71597,confidence_buffer,,null,,,,,,,,,,,,,,,,,
553,,memorable_rating,72151,Cambridge,,52,,4,,,,,,,,,,,,,,,
null,,confidence_buffer,72254,confidence_buffer,,null,,,,,,,,,,,,,,,,,
null,,thebreak,72756,break,,null,,,,,,,,,,,,,,,,,
553,,familiar_rating,73311,Dothan,,50,Dothan,2,,,,,,,,,,,,,,,
null,,confidence_buffer,73416,confidence_buffer,,null,,,,,,,,,,,,,,,,,
710.8999999761581,,unique_rating,74128,Dothan,,49,,1,,,,,,,,,,,,,,,
null,,confidence_buffer,74232,confidence_buffer,,null,,,,,,,,,,,,,,,,,
2241.300000011921,,probe_rating,76474,probe_rating,,49,,,1,1,,,,,,,,,,,,,
null,,confidence_buffer,76577,confidence_buffer,,null,,,,,,,,,,,,,,,,,
545.2000000476837,,memorable_rating,77123,Dothan,,50,,2,,,,,,,,,,,,,,,
null,,confidence_buffer,77225,confidence_buffer,,null,,,,,,,,,,,,,,,,,
null,,thebreak,77727,break,,null,,,,,,,,,,,,,,,,,
416.39999997615814,,familiar_rating,78145,Altoona,,51,Altoona,3,,,,,,,,,,,,,,,
null,,confidence_buffer,78247,confidence_buffer,,null,,,,,,,,,,,,,,,,,
616.8000000119209,,unique_rating,78866,Altoona,,51,,3,,,,,,,,,,,,,,,
null,,confidence_buffer,78969,confidence_buffer,,null,,,,,,,,,,,,,,,,,
380.69999998807907,,memorable_rating,79351,Altoona,,52,,4,,,,,,,,,,,,,,,
null,,confidence_buffer,79455,confidence_buffer,,null,,,,,,,,,,,,,,,,,
null,,thebreak,79957,break,,null,,,,,,,,,,,,,,,,,
653.1999999880791,,familiar_rating,80612,Marquette,,52,Marquette,4,,,,,,,,,,,,,,,
null,,confidence_buffer,80715,confidence_buffer,,null,,,,,,,,,,,,,,,,,
557.0999999642372,,unique_rating,81274,Marquette,,50,,2,,,,,,,,,,,,,,,
null,,confidence_buffer,81377,confidence_buffer,,null,,,,,,,,,,,,,,,,,
480.39999997615814,,memorable_rating,81860,Marquette,,50,,2,,,,,,,,,,,,,,,
null,,confidence_buffer,81962,confidence_buffer,,null,,,,,,,,,,,,,,,,,
null,,thebreak,82465,break,,null,,,,,,,,,,,,,,,,,
733.6999999880791,,familiar_rating,83200,Abilene,,52,Abilene,4,,,,,,,,,,,,,,,
null,,confidence_buffer,83301,confidence_buffer,,null,,,,,,,,,,,,,,,,,
684.3000000119209,,unique_rating,83987,Abilene,,52,,4,,,,,,,,,,,,,,,
null,,confidence_buffer,84088,confidence_buffer,,null,,,,,,,,,,,,,,,,,
785.1999999880791,,memorable_rating,84875,Abilene,,52,,4,,,,,,,,,,,,,,,
null,,confidence_buffer,84978,confidence_buffer,,null,,,,,,,,,,,,,,,,,
null,,thebreak,85480,break,,null,,,,,,,,,,,,,,,,,
697.5,,familiar_rating,86179,Burlington,,51,Burlington,3,,,,,,,,,,,,,,,
null,,confidence_buffer,86282,confidence_buffer,,null,,,,,,,,,,,,,,,,,
1119.8999999761581,,unique_rating,87403,Burlington,,49,,1,,,,,,,,,,,,,,,
null,,confidence_buffer,87506,confidence_buffer,,null,,,,,,,,,,,,,,,,,
2135.399999976158,,probe_rating,89643,probe_rating,,53,,,5,1,,,,,,,,,,,,,
null,,confidence_buffer,89745,confidence_buffer,,null,,,,,,,,,,,,,,,,,
517.3000000119209,,memorable_rating,90264,Burlington,,52,,4,,,,,,,,,,,,,,,
null,,confidence_buffer,90366,confidence_buffer,,null,,,,,,,,,,,,,,,,,
null,,thebreak,90869,break,,null,,,,,,,,,,,,,,,,,
466.10000002384186,,familiar_rating,91336,Terre Haute,,51,Terre Haute,3,,,,,,,,,,,,,,,
null,,confidence_buffer,91439,confidence_buffer,,null,,,,,,,,,,,,,,,,,
567.2999999523163,,unique_rating,92007,Terre Haute,,50,,2,,,,,,,,,,,,,,,
null,,confidence_buffer,92110,confidence_buffer,,null,,,,,,,,,,,,,,,,,
495.19999998807907,,memorable_rating,92607,Terre Haute,,50,,2,,,,,,,,,,,,,,,
null,,confidence_buffer,92710,confidence_buffer,,null,,,,,,,,,,,,,,,,,
null,,thebreak,93211,break,,null,,,,,,,,,,,,,,,,,
623.6000000238419,,familiar_rating,93836,Frankfort,,51,Frankfort,3,,,,,,,,,,,,,,,
null,,confidence_buffer,93938,confidence_buffer,,null,,,,,,,,,,,,,,,,,
1698.5,,probe_rating,95638,probe_rating,,49,,,1,1,,,,,,,,,,,,,
null,,confidence_buffer,95741,confidence_buffer,,null,,,,,,,,,,,,,,,,,
617,,unique_rating,96360,Frankfort,,50,,2,,,,,,,,,,,,,,,
null,,confidence_buffer,96463,confidence_buffer,,null,,,,,,,,,,,,,,,,,
550.5999999642372,,memorable_rating,97015,Frankfort,,51,,3,,,,,,,,,,,,,,,
null,,confidence_buffer,97117,confidence_buffer,,null,,,,,,,,,,,,,,,,,
null,,thebreak,97619,break,,null,,,,,,,,,,,,,,,,,
514.8000000119209,,familiar_rating,98136,Dubuque,,52,Dubuque,4,,,,,,,,,,,,,,,
null,,confidence_buffer,98239,confidence_buffer,,null,,,,,,,,,,,,,,,,,
469.19999998807907,,unique_rating,98709,Dubuque,,50,,2,,,,,,,,,,,,,,,
null,,confidence_buffer,98811,confidence_buffer,,null,,,,,,,,,,,,,,,,,
659,,memorable_rating,99471,Dubuque,,50,,2,,,,,,,,,,,,,,,
null,,confidence_buffer,99575,confidence_buffer,,null,,,,,,,,,,,,,,,,,
null,,thebreak,100076,break,,null,,,,,,,,,,,,,,,,,
764.1000000238419,,familiar_rating,100842,Montpelier,,51,Montpelier,3,,,,,,,,,,,,,,,
null,,confidence_buffer,100944,confidence_buffer,,null,,,,,,,,,,,,,,,,,
843.6999999880791,,unique_rating,101790,Montpelier,,52,,4,,,,,,,,,,,,,,,
null,,confidence_buffer,101893,confidence_buffer,,null,,,,,,,,,,,,,,,,,
503,,memorable_rating,102397,Montpelier,,50,,2,,,,,,,,,,,,,,,
null,,confidence_buffer,102500,confidence_buffer,,null,,,,,,,,,,,,,,,,,
null,,thebreak,103002,break,,null,,,,,,,,,,,,,,,,,
575.6999999880791,,familiar_rating,103579,Syracuse,,51,Syracuse,3,,,,,,,,,,,,,,,
null,,confidence_buffer,103682,confidence_buffer,,null,,,,,,,,,,,,,,,,,
418.69999998807907,,unique_rating,104102,Syracuse,,53,,5,,,,,,,,,,,,,,,
null,,confidence_buffer,104205,confidence_buffer,,null,,,,,,,,,,,,,,,,,
589.3000000119209,,memorable_rating,104796,Syracuse,,53,,5,,,,,,,,,,,,,,,
null,,confidence_buffer,104899,confidence_buffer,,null,,,,,,,,,,,,,,,,,
null,,thebreak,105401,break,,null,,,,,,,,,,,,,,,,,
616.5,,familiar_rating,106019,Fort Wayne,,49,Fort Wayne,1,,,,,,,,,,,,,,,
null,,confidence_buffer,106121,confidence_buffer,,null,,,,,,,,,,,,,,,,,
587.5999999642372,,unique_rating,106710,Fort Wayne,,50,,2,,,,,,,,,,,,,,,
null,,confidence_buffer,106813,confidence_buffer,,null,,,,,,,,,,,,,,,,,
607,,memorable_rating,107421,Fort Wayne,,51,,3,,,,,,,,,,,,,,,
null,,confidence_buffer,107525,confidence_buffer,,null,,,,,,,,,,,,,,,,,
null,,thebreak,108027,break,,null,,,,,,,,,,,,,,,,,
1016.6999999880791,,familiar_rating,109045,Helena,,51,Helena,3,,,,,,,,,,,,,,,
null,,confidence_buffer,109149,confidence_buffer,,null,,,,,,,,,,,,,,,,,
1136.699999988079,,unique_rating,110287,Helena,,51,,3,,,,,,,,,,,,,,,
null,,confidence_buffer,110390,confidence_buffer,,null,,,,,,,,,,,,,,,,,
1817.300000011921,,probe_rating,112208,probe_rating,,52,,,4,1,,,,,,,,,,,,,
null,,confidence_buffer,112311,confidence_buffer,,null,,,,,,,,,,,,,,,,,
594.8000000119209,,memorable_rating,112908,Helena,,52,,4,,,,,,,,,,,,,,,
null,,confidence_buffer,113011,confidence_buffer,,null,,,,,,,,,,,,,,,,,
null,,thebreak,113512,break,,null,,,,,,,,,,,,,,,,,
1864.9000000357628,,intro_0,115379,instruct,,32,,,,,,,,,,,,,,,,,
835.5,,intro_1,116215,instruct,,32,,,,,,,,,,,,,,,,,
1155.699999988079,,intro_2,117372,instruct,,32,,,,,,,,,,,,,,,,,
null,,instruct_dir_4,118874,instruct,,null,,,,,,,,,,,,,,,,,
5087.399999976158,,realistic_rating,123963,Bellingham,,51,Bellingham,3,,,,,,,,,,,,,,,
null,,confidence_buffer,124066,confidence_buffer,,null,,,,,,,,,,,,,,,,,
2350.199999988079,,pt2_unique_rating,126418,Bellingham,,50,,2,,,,,,,,,,,,,,,
null,,confidence_buffer,126521,confidence_buffer,,null,,,,,,,,,,,,,,,,,
963.5,,pt2_memorable_rating,127487,Bellingham,,50,,2,,,,,,,,,,,,,,,
null,,confidence_buffer,127589,confidence_buffer,,null,,,,,,,,,,,,,,,,,
2624.600000023842,,recognition_phase,130216,Bellingham,,49,,,,,old,1,1,,,,,,,,,,
null,,confidence_buffer,130318,confidence_buffer,,null,,,,,,,,,,,,,,,,,
null,,thebreak,130821,break,,null,,,,,,,,,,,,,,,,,
882.4000000357628,,realistic_rating,131705,Helena,,51,Helena,3,,,,,,,,,,,,,,,
null,,confidence_buffer,131807,confidence_buffer,,null,,,,,,,,,,,,,,,,,
578.3999999761581,,pt2_unique_rating,132387,Helena,,52,,4,,,,,,,,,,,,,,,
null,,confidence_buffer,132490,confidence_buffer,,null,,,,,,,,,,,,,,,,,
439.19999998807907,,pt2_memorable_rating,132931,Helena,,52,,4,,,,,,,,,,,,,,,
null,,confidence_buffer,133034,confidence_buffer,,null,,,,,,,,,,,,,,,,,
1623.9000000357628,,probe_rating,134660,probe_rating,,49,,,1,1,,,,,,,,,,,,,
null,,confidence_buffer,134762,confidence_buffer,,null,,,,,,,,,,,,,,,,,
639.3000000119209,,recognition_phase,135403,Helena,,50,,,,,old,1,1,,,,,,,,,,
null,,confidence_buffer,135507,confidence_buffer,,null,,,,,,,,,,,,,,,,,
null,,thebreak,136014,break,,null,,,,,,,,,,,,,,,,,
382.30000001192093,,realistic_rating,136398,Salem,,52,Salem,4,,,,,,,,,,,,,,,
null,,confidence_buffer,136501,confidence_buffer,,null,,,,,,,,,,,,,,,,,
1275.699999988079,,pt2_unique_rating,137778,Salem,,50,,2,,,,,,,,,,,,,,,
null,,confidence_buffer,137881,confidence_buffer,,null,,,,,,,,,,,,,,,,,
405.19999998807907,,pt2_memorable_rating,138288,Salem,,52,,4,,,,,,,,,,,,,,,
null,,confidence_buffer,138391,confidence_buffer,,null,,,,,,,,,,,,,,,,,
1827.199999988079,,probe_rating,140220,probe_rating,,52,,,4,1,,,,,,,,,,,,,
null,,confidence_buffer,140324,confidence_buffer,,null,,,,,,,,,,,,,,,,,
650.3999999761581,,recognition_phase,140976,Salem,,51,,,,,new,0,0.6666666666666666,,,,,,,,,,
null,,confidence_buffer,141078,confidence_buffer,,null,,,,,,,,,,,,,,,,,
null,,thebreak,141581,break,,null,,,,,,,,,,,,,,,,,
497.80000001192093,,realistic_rating,142080,Carson City,,50,Carson City,2,,,,,,,,,,,,,,,
null,,confidence_buffer,142181,confidence_buffer,,null,,,,,,,,,,,,,,,,,
798.4000000357628,,pt2_unique_rating,142980,Carson City,,50,,2,,,,,,,,,,,,,,,
null,,confidence_buffer,143082,confidence_buffer,,null,,,,,,,,,,,,,,,,,
560.9000000357628,,pt2_memorable_rating,143645,Carson City,,50,,2,,,,,,,,,,,,,,,
null,,confidence_buffer,143747,confidence_buffer,,null,,,,,,,,,,,,,,,,,
677.1999999880791,,recognition_phase,144425,Carson City,,49,,,,,old,0,0.5,,,,,,,,,,
null,,confidence_buffer,144529,confidence_buffer,,null,,,,,,,,,,,,,,,,,
null,,thebreak,145030,break,,null,,,,,,,,,,,,,,,,,
1668.5,,realistic_rating,146700,McKinney,,53,McKinney,5,,,,,,,,,,,,,,,
null,,confidence_buffer,146802,confidence_buffer,,null,,,,,,,,,,,,,,,,,
800,,pt2_unique_rating,147604,McKinney,,52,,4,,,,,,,,,,,,,,,
null,,confidence_buffer,147706,confidence_buffer,,null,,,,,,,,,,,,,,,,,
778.5,,pt2_memorable_rating,148487,McKinney,,52,,4,,,,,,,,,,,,,,,
null,,confidence_buffer,148589,confidence_buffer,,null,,,,,,,,,,,,,,,,,
1708.199999988079,,probe_rating,150299,probe_rating,,51,,,3,1,,,,,,,,,,,,,
null,,confidence_buffer,150401,confidence_buffer,,null,,,,,,,,,,,,,,,,,
707.3999999761581,,recognition_phase,151110,McKinney,,50,,,,,old,1,0.6,,,,,,,,,,
null,,confidence_buffer,151213,confidence_buffer,,null,,,,,,,,,,,,,,,,,
null,,thebreak,151714,break,,null,,,,,,,,,,,,,,,,,
535.8999999761581,,realistic_rating,152253,Annapolis,,50,Annapolis,2,,,,,,,,,,,,,,,
null,,confidence_buffer,152356,confidence_buffer,,null,,,,,,,,,,,,,,,,,
618,,pt2_unique_rating,152976,Annapolis,,50,,2,,,,,,,,,,,,,,,
null,,confidence_buffer,153077,confidence_buffer,,null,,,,,,,,,,,,,,,,,
393.30000001192093,,pt2_memorable_rating,153472,Annapolis,,51,,3,,,,,,,,,,,,,,,
null,,confidence_buffer,153575,confidence_buffer,,null,,,,,,,,,,,,,,,,,
674.8000000119209,,recognition_phase,154252,Annapolis,,52,,,,,new,0,0.5,,,,,,,,,,
null,,confidence_buffer,154355,confidence_buffer,,null,,,,,,,,,,,,,,,,,
null,,thebreak,154857,break,,null,,,,,,,,,,,,,,,,,
609,,realistic_rating,155467,Champaign,,50,Champaign,2,,,,,,,,,,,,,,,
null,,confidence_buffer,155570,confidence_buffer,,null,,,,,,,,,,,,,,,,,
684.0999999642372,,pt2_unique_rating,156256,Champaign,,50,,2,,,,,,,,,,,,,,,
null,,confidence_buffer,156358,confidence_buffer,,null,,,,,,,,,,,,,,,,,
672.2999999523163,,pt2_memorable_rating,157031,Champaign,,50,,2,,,,,,,,,,,,,,,
null,,confidence_buffer,157134,confidence_buffer,,null,,,,,,,,,,,,,,,,,
660.3000000119209,,recognition_phase,157796,Champaign,,52,,,,,new,1,0.5714285714285714,,,,,,,,,,
null,,confidence_buffer,157899,confidence_buffer,,null,,,,,,,,,,,,,,,,,
null,,thebreak,158400,break,,null,,,,,,,,,,,,,,,,,
1218,,realistic_rating,159619,New Haven,,52,New Haven,4,,,,,,,,,,,,,,,
null,,confidence_buffer,159721,confidence_buffer,,null,,,,,,,,,,,,,,,,,
798.4000000357628,,pt2_unique_rating,160521,New Haven,,53,,5,,,,,,,,,,,,,,,
null,,confidence_buffer,160624,confidence_buffer,,null,,,,,,,,,,,,,,,,,
480.19999998807907,,pt2_memorable_rating,161106,New Haven,,50,,2,,,,,,,,,,,,,,,
null,,confidence_buffer,161208,confidence_buffer,,null,,,,,,,,,,,,,,,,,
647.3000000119209,,recognition_phase,161857,New Haven,,52,,,,,new,1,0.625,,,,,,,,,,
null,,confidence_buffer,161958,confidence_buffer,,null,,,,,,,,,,,,,,,,,
null,,thebreak,162459,break,,null,,,,,,,,,,,,,,,,,
754.3999999761581,,realistic_rating,163215,Youngstown,,52,Youngstown,4,,,,,,,,,,,,,,,
null,,confidence_buffer,163317,confidence_buffer,,null,,,,,,,,,,,,,,,,,
706.3000000119209,,pt2_unique_rating,164024,Youngstown,,50,,2,,,,,,,,,,,,,,,
null,,confidence_buffer,164126,confidence_buffer,,null,,,,,,,,,,,,,,,,,
928.0999999642372,,pt2_memorable_rating,165054,Youngstown,,52,,4,,,,,,,,,,,,,,,
null,,confidence_buffer,165157,confidence_buffer,,null,,,,,,,,,,,,,,,,,
737.1999999880791,,recognition_phase,165896,Youngstown,,50,,,,,old,1,0.6666666666666666,,,,,,,,,,
null,,confidence_buffer,165999,confidence_buffer,,null,,,,,,,,,,,,,,,,,
null,,thebreak,166500,break,,null,,,,,,,,,,,,,,,,,
545.6999999880791,,realistic_rating,167048,Las Cruces,,50,Las Cruces,2,,,,,,,,,,,,,,,
null,,confidence_buffer,167151,confidence_buffer,,null,,,,,,,,,,,,,,,,,
1077.7000000476837,,pt2_unique_rating,168230,Las Cruces,,53,,5,,,,,,,,,,,,,,,
null,,confidence_buffer,168331,confidence_buffer,,null,,,,,,,,,,,,,,,,,
643.6999999880791,,pt2_memorable_rating,168977,Las Cruces,,52,,4,,,,,,,,,,,,,,,
null,,confidence_buffer,169079,confidence_buffer,,null,,,,,,,,,,,,,,,,,
897.1999999880791,,recognition_phase,169977,Las Cruces,,52,,,,,new,1,0.7,,,,,,,,,,
null,,confidence_buffer,170079,confidence_buffer,,null,,,,,,,,,,,,,,,,,
null,,thebreak,170581,break,,null,,,,,,,,,,,,,,,,,
693,,realistic_rating,171275,Gainesville,,50,Gainesville,2,,,,,,,,,,,,,,,
null,,confidence_buffer,171377,confidence_buffer,,null,,,,,,,,,,,,,,,,,
980.1999999880791,,pt2_unique_rating,172359,Gainesville,,49,,1,,,,,,,,,,,,,,,
null,,confidence_buffer,172462,confidence_buffer,,null,,,,,,,,,,,,,,,,,
698.3000000119209,,pt2_memorable_rating,173162,Gainesville,,49,,1,,,,,,,,,,,,,,,
null,,confidence_buffer,173278,confidence_buffer,,null,,,,,,,,,,,,,,,,,
1163.8999999761581,,recognition_phase,174444,Gainesville,,52,,,,,new,1,0.7272727272727273,,,,,,,,,,
null,,confidence_buffer,174547,confidence_buffer,,null,,,,,,,,,,,,,,,,,
null,,thebreak,175049,break,,null,,,,,,,,,,,,,,,,,
943.5999999642372,,realistic_rating,175994,Decatur,,50,Decatur,2,,,,,,,,,,,,,,,
null,,confidence_buffer,176096,confidence_buffer,,null,,,,,,,,,,,,,,,,,
595.8000000119209,,pt2_unique_rating,176693,Decatur,,52,,4,,,,,,,,,,,,,,,
null,,confidence_buffer,176795,confidence_buffer,,null,,,,,,,,,,,,,,,,,
697.5,,pt2_memorable_rating,177494,Decatur,,52,,4,,,,,,,,,,,,,,,
null,,confidence_buffer,177597,confidence_buffer,,null,,,,,,,,,,,,,,,,,
1741.300000011921,,recognition_phase,179340,Decatur,,50,,,,,old,0,0.6666666666666666,,,,,,,,,,
null,,confidence_buffer,179449,confidence_buffer,,null,,,,,,,,,,,,,,,,,
null,,thebreak,179951,break,,null,,,,,,,,,,,,,,,,,
699.8999999761581,,realistic_rating,180652,Cheyenne,,52,Cheyenne,4,,,,,,,,,,,,,,,
null,,confidence_buffer,180755,confidence_buffer,,null,,,,,,,,,,,,,,,,,
630.1999999880791,,pt2_unique_rating,181386,Cheyenne,,50,,2,,,,,,,,,,,,,,,
null,,confidence_buffer,181489,confidence_buffer,,null,,,,,,,,,,,,,,,,,
606,,pt2_memorable_rating,182096,Cheyenne,,50,,2,,,,,,,,,,,,,,,
null,,confidence_buffer,182198,confidence_buffer,,null,,,,,,,,,,,,,,,,,
1768.9000000357628,,recognition_phase,183968,Cheyenne,,52,,,,,new,1,0.6923076923076923,,,,,,,,,,
null,,confidence_buffer,184069,confidence_buffer,,null,,,,,,,,,,,,,,,,,
null,,thebreak,184571,break,,null,,,,,,,,,,,,,,,,,
1300.699999988079,,realistic_rating,185872,Toledo,,50,Toledo,2,,,,,,,,,,,,,,,
null,,confidence_buffer,185976,confidence_buffer,,null,,,,,,,,,,,,,,,,,
872.6999999880791,,pt2_unique_rating,186849,Toledo,,52,,4,,,,,,,,,,,,,,,
null,,confidence_buffer,186952,confidence_buffer,,null,,,,,,,,,,,,,,,,,
570.4000000357628,,pt2_memorable_rating,187524,Toledo,,51,,3,,,,,,,,,,,,,,,
null,,confidence_buffer,187628,confidence_buffer,,null,,,,,,,,,,,,,,,,,
591.8000000119209,,recognition_phase,188221,Toledo,,52,,,,,new,0,0.6428571428571429,,,,,,,,,,
null,,confidence_buffer,188322,confidence_buffer,,null,,,,,,,,,,,,,,,,,
null,,thebreak,188825,break,,null,,,,,,,,,,,,,,,,,
576.0999999642372,,realistic_rating,189402,Ithaca,,50,Ithaca,2,,,,,,,,,,,,,,,
null,,confidence_buffer,189506,confidence_buffer,,null,,,,,,,,,,,,,,,,,
619.6000000238419,,pt2_unique_rating,190126,Ithaca,,52,,4,,,,,,,,,,,,,,,
null,,confidence_buffer,190228,confidence_buffer,,null,,,,,,,,,,,,,,,,,
2212,,pt2_memorable_rating,192442,Ithaca,,52,,4,,,,,,,,,,,,,,,
null,,confidence_buffer,192545,confidence_buffer,,null,,,,,,,,,,,,,,,,,
662.6999999880791,,recognition_phase,193209,Ithaca,,50,,,,,old,0,0.6,,,,,,,,,,
null,,confidence_buffer,193310,confidence_buffer,,null,,,,,,,,,,,,,,,,,
null,,thebreak,193812,break,,null,,,,,,,,,,,,,,,,,
884.5,,realistic_rating,194699,Cambridge,,51,Cambridge,3,,,,,,,,,,,,,,,
null,,confidence_buffer,194801,confidence_buffer,,null,,,,,,,,,,,,,,,,,
523.5,,pt2_unique_rating,195326,Cambridge,,50,,2,,,,,,,,,,,,,,,
null,,confidence_buffer,195427,confidence_buffer,,null,,,,,,,,,,,,,,,,,
683.9000000357628,,pt2_memorable_rating,196113,Cambridge,,50,,2,,,,,,,,,,,,,,,
null,,confidence_buffer,196226,confidence_buffer,,null,,,,,,,,,,,,,,,,,
802.6000000238419,,recognition_phase,197030,Cambridge,,52,,,,,new,0,0.5625,,,,,,,,,,
null,,confidence_buffer,197134,confidence_buffer,,null,,,,,,,,,,,,,,,,,
null,,thebreak,197636,break,,null,,,,,,,,,,,,,,,,,
994,,realistic_rating,198632,Pueblo,,49,Pueblo,1,,,,,,,,,,,,,,,
null,,confidence_buffer,198735,confidence_buffer,,null,,,,,,,,,,,,,,,,,
607.1000000238419,,pt2_unique_rating,199344,Pueblo,,50,,2,,,,,,,,,,,,,,,
null,,confidence_buffer,199447,confidence_buffer,,null,,,,,,,,,,,,,,,,,
719.1999999880791,,pt2_memorable_rating,200167,Pueblo,,51,,3,,,,,,,,,,,,,,,
null,,confidence_buffer,200270,confidence_buffer,,null,,,,,,,,,,,,,,,,,
811.1999999880791,,recognition_phase,201083,Pueblo,,52,,,,,new,1,0.5882352941176471,,,,,,,,,,
null,,confidence_buffer,201186,confidence_buffer,,null,,,,,,,,,,,,,,,,,
null,,thebreak,201688,break,,null,,,,,,,,,,,,,,,,,
458.10000002384186,,realistic_rating,202148,Palo Alto,,50,Palo Alto,2,,,,,,,,,,,,,,,
null,,confidence_buffer,202250,confidence_buffer,,null,,,,,,,,,,,,,,,,,
735,,pt2_unique_rating,202987,Palo Alto,,51,,3,,,,,,,,,,,,,,,
null,,confidence_buffer,203090,confidence_buffer,,null,,,,,,,,,,,,,,,,,
592.8999999761581,,pt2_memorable_rating,203684,Palo Alto,,52,,4,,,,,,,,,,,,,,,
null,,confidence_buffer,203786,confidence_buffer,,null,,,,,,,,,,,,,,,,,
688.5,,recognition_phase,204476,Palo Alto,,49,,,,,old,1,0.6111111111111112,,,,,,,,,,
null,,confidence_buffer,204580,confidence_buffer,,null,,,,,,,,,,,,,,,,,
null,,thebreak,205082,break,,null,,,,,,,,,,,,,,,,,
536.5999999642372,,realistic_rating,205620,Muncie,,53,Muncie,5,,,,,,,,,,,,,,,
null,,confidence_buffer,205723,confidence_buffer,,null,,,,,,,,,,,,,,,,,
510.30000001192093,,pt2_unique_rating,206234,Muncie,,52,,4,,,,,,,,,,,,,,,
null,,confidence_buffer,206337,confidence_buffer,,null,,,,,,,,,,,,,,,,,
802.5999999642372,,pt2_memorable_rating,207141,Muncie,,51,,3,,,,,,,,,,,,,,,
null,,confidence_buffer,207242,confidence_buffer,,null,,,,,,,,,,,,,,,,,
1155.1000000238419,,recognition_phase,208399,Muncie,,51,,,,,new,1,0.631578947368421,,,,,,,,,,
null,,confidence_buffer,208502,confidence_buffer,,null,,,,,,,,,,,,,,,,,
null,,thebreak,209004,break,,null,,,,,,,,,,,,,,,,,
748.6000000238419,,realistic_rating,209754,Yakima,,50,Yakima,2,,,,,,,,,,,,,,,
null,,confidence_buffer,209857,confidence_buffer,,null,,,,,,,,,,,,,,,,,
1056.699999988079,,pt2_unique_rating,210915,Yakima,,52,,4,,,,,,,,,,,,,,,
null,,confidence_buffer,211018,confidence_buffer,,null,,,,,,,,,,,,,,,,,
1976,,probe_rating,212995,probe_rating,,52,,,4,1,,,,,,,,,,,,,
null,,confidence_buffer,213098,confidence_buffer,,null,,,,,,,,,,,,,,,,,
1933.800000011921,,pt2_memorable_rating,215033,Yakima,,51,,3,,,,,,,,,,,,,,,
null,,confidence_buffer,215136,confidence_buffer,,null,,,,,,,,,,,,,,,,,
549.1999999880791,,recognition_phase,215686,Yakima,,52,,,,,new,1,0.65,,,,,,,,,,
null,,confidence_buffer,215788,confidence_buffer,,null,,,,,,,,,,,,,,,,,
null,,thebreak,216289,break,,null,,,,,,,,,,,,,,,,,
701.8000000119209,,realistic_rating,216992,Burlington,,50,Burlington,2,,,,,,,,,,,,,,,
null,,confidence_buffer,217103,confidence_buffer,,null,,,,,,,,,,,,,,,,,
591.1999999880791,,pt2_unique_rating,217696,Burlington,,50,,2,,,,,,,,,,,,,,,
null,,confidence_buffer,217799,confidence_buffer,,null,,,,,,,,,,,,,,,,,
1364.5999999642372,,pt2_memorable_rating,219165,Burlington,,51,,3,,,,,,,,,,,,,,,
null,,confidence_buffer,219269,confidence_buffer,,null,,,,,,,,,,,,,,,,,
1416.8999999761581,,recognition_phase,220689,Burlington,,52,,,,,new,0,0.6190476190476191,,,,,,,,,,
null,,confidence_buffer,220793,confidence_buffer,,null,,,,,,,,,,,,,,,,,
null,,thebreak,221296,break,,null,,,,,,,,,,,,,,,,,
777.6999999880791,,realistic_rating,222076,Olympia,,50,Olympia,2,,,,,,,,,,,,,,,
null,,confidence_buffer,222192,confidence_buffer,,null,,,,,,,,,,,,,,,,,
777.6000000238419,,pt2_unique_rating,222970,Olympia,,52,,4,,,,,,,,,,,,,,,
null,,confidence_buffer,223073,confidence_buffer,,null,,,,,,,,,,,,,,,,,
624.2000000476837,,pt2_memorable_rating,223699,Olympia,,53,,5,,,,,,,,,,,,,,,
null,,confidence_buffer,223802,confidence_buffer,,null,,,,,,,,,,,,,,,,,
737.8999999761581,,recognition_phase,224542,Olympia,,52,,,,,new,1,0.6363636363636364,,,,,,,,,,
null,,confidence_buffer,224644,confidence_buffer,,null,,,,,,,,,,,,,,,,,
null,,thebreak,225147,break,,null,,,,,,,,,,,,,,,,,
661.5,,realistic_rating,225811,Athens,,49,Athens,1,,,,,,,,,,,,,,,
null,,confidence_buffer,225914,confidence_buffer,,null,,,,,,,,,,,,,,,,,
1273.5999999642372,,pt2_unique_rating,227189,Athens,,49,,1,,,,,,,,,,,,,,,
null,,confidence_buffer,227291,confidence_buffer,,null,,,,,,,,,,,,,,,,,
923.5999999642372,,pt2_memorable_rating,228216,Athens,,49,,1,,,,,,,,,,,,,,,
null,,confidence_buffer,228317,confidence_buffer,,null,,,,,,,,,,,,,,,,,
869.4000000357628,,recognition_phase,229187,Athens,,49,,,,,old,1,0.6521739130434783,,,,,,,,,,
null,,confidence_buffer,229289,confidence_buffer,,null,,,,,,,,,,,,,,,,,
null,,thebreak,229790,break,,null,,,,,,,,,,,,,,,,,
1055.5,,realistic_rating,230847,Fort Collins,,52,Fort Collins,4,,,,,,,,,,,,,,,
null,,confidence_buffer,230951,confidence_buffer,,null,,,,,,,,,,,,,,,,,
792.3000000119209,,pt2_unique_rating,231745,Fort Collins,,51,,3,,,,,,,,,,,,,,,
null,,confidence_buffer,231848,confidence_buffer,,null,,,,,,,,,,,,,,,,,
523.2000000476837,,pt2_memorable_rating,232373,Fort Collins,,50,,2,,,,,,,,,,,,,,,
null,,confidence_buffer,232476,confidence_buffer,,null,,,,,,,,,,,,,,,,,
663.5,,recognition_phase,233141,Fort Collins,,52,,,,,new,0,0.625,,,,,,,,,,
null,,confidence_buffer,233244,confidence_buffer,,null,,,,,,,,,,,,,,,,,
null,,thebreak,233747,break,,null,,,,,,,,,,,,,,,,,
517.5,,realistic_rating,234266,Tallahassee,,50,Tallahassee,2,,,,,,,,,,,,,,,
null,,confidence_buffer,234368,confidence_buffer,,null,,,,,,,,,,,,,,,,,
504.60000002384186,,pt2_unique_rating,234875,Tallahassee,,52,,4,,,,,,,,,,,,,,,
null,,confidence_buffer,234978,confidence_buffer,,null,,,,,,,,,,,,,,,,,
694.5,,pt2_memorable_rating,235673,Tallahassee,,51,,3,,,,,,,,,,,,,,,
null,,confidence_buffer,235777,confidence_buffer,,null,,,,,,,,,,,,,,,,,
611.4000000357628,,recognition_phase,236391,Tallahassee,,52,,,,,new,0,0.6,,,,,,,,,,
null,,confidence_buffer,236493,confidence_buffer,,null,,,,,,,,,,,,,,,,,
null,,thebreak,236994,break,,null,,,,,,,,,,,,,,,,,
633.6000000238419,,realistic_rating,237629,Bozeman,,50,Bozeman,2,,,,,,,,,,,,,,,
null,,confidence_buffer,237732,confidence_buffer,,null,,,,,,,,,,,,,,,,,
587.8999999761581,,pt2_unique_rating,238322,Bozeman,,53,,5,,,,,,,,,,,,,,,
null,,confidence_buffer,238425,confidence_buffer,,null,,,,,,,,,,,,,,,,,
655.3000000119209,,pt2_memorable_rating,239082,Bozeman,,49,,1,,,,,,,,,,,,,,,
null,,confidence_buffer,239185,confidence_buffer,,null,,,,,,,,,,,,,,,,,
889.0999999642372,,recognition_phase,240076,Bozeman,,50,,,,,old,0,0.5769230769230769,,,,,,,,,,
null,,confidence_buffer,240177,confidence_buffer,,null,,,,,,,,,,,,,,,,,
null,,thebreak,240678,break,,null,,,,,,,,,,,,,,,,,
556.3000000119209,,realistic_rating,241236,Stamford,,50,Stamford,2,,,,,,,,,,,,,,,
null,,confidence_buffer,241339,confidence_buffer,,null,,,,,,,,,,,,,,,,,
527.7999999523163,,pt2_unique_rating,241869,Stamford,,51,,3,,,,,,,,,,,,,,,
null,,confidence_buffer,241972,confidence_buffer,,null,,,,,,,,,,,,,,,,,
552,,pt2_memorable_rating,242525,Stamford,,52,,4,,,,,,,,,,,,,,,
null,,confidence_buffer,242628,confidence_buffer,,null,,,,,,,,,,,,,,,,,
896.8000000119209,,recognition_phase,243527,Stamford,,50,,,,,old,1,0.5925925925925926,,,,,,,,,,
null,,confidence_buffer,243630,confidence_buffer,,null,,,,,,,,,,,,,,,,,
null,,thebreak,244132,break,,null,,,,,,,,,,,,,,,,,
904.1999999880791,,realistic_rating,245038,Montpelier,,49,Montpelier,1,,,,,,,,,,,,,,,
null,,confidence_buffer,245141,confidence_buffer,,null,,,,,,,,,,,,,,,,,
663.1999999880791,,pt2_unique_rating,245806,Montpelier,,52,,4,,,,,,,,,,,,,,,
null,,confidence_buffer,245909,confidence_buffer,,null,,,,,,,,,,,,,,,,,
647.1999999880791,,pt2_memorable_rating,246558,Montpelier,,52,,4,,,,,,,,,,,,,,,
null,,confidence_buffer,246660,confidence_buffer,,null,,,,,,,,,,,,,,,,,
1873.699999988079,,probe_rating,248535,probe_rating,,53,,,5,1,,,,,,,,,,,,,
null,,confidence_buffer,248637,confidence_buffer,,null,,,,,,,,,,,,,,,,,
466.9000000357628,,recognition_phase,249106,Montpelier,,52,,,,,new,0,0.5714285714285714,,,,,,,,,,
null,,confidence_buffer,249209,confidence_buffer,,null,,,,,,,,,,,,,,,,,
null,,thebreak,249711,break,,null,,,,,,,,,,,,,,,,,
510.5,,realistic_rating,250223,Fargo,,52,Fargo,4,,,,,,,,,,,,,,,
null,,confidence_buffer,250325,confidence_buffer,,null,,,,,,,,,,,,,,,,,
3576.7000000476837,,pt2_unique_rating,253903,Fargo,,51,,3,,,,,,,,,,,,,,,
null,,confidence_buffer,254006,confidence_buffer,,null,,,,,,,,,,,,,,,,,
435.69999998807907,,pt2_memorable_rating,254443,Fargo,,52,,4,,,,,,,,,,,,,,,
null,,confidence_buffer,254546,confidence_buffer,,null,,,,,,,,,,,,,,,,,
659.5,,recognition_phase,255207,Fargo,,50,,,,,old,0,0.5517241379310345,,,,,,,,,,
null,,confidence_buffer,255309,confidence_buffer,,null,,,,,,,,,,,,,,,,,
null,,thebreak,255811,break,,null,,,,,,,,,,,,,,,,,
641.1000000238419,,realistic_rating,256453,Reno,,51,Reno,3,,,,,,,,,,,,,,,
null,,confidence_buffer,256556,confidence_buffer,,null,,,,,,,,,,,,,,,,,
1315.0999999642372,,pt2_unique_rating,257874,Reno,,52,,4,,,,,,,,,,,,,,,
null,,confidence_buffer,257977,confidence_buffer,,null,,,,,,,,,,,,,,,,,
485.7000000476837,,pt2_memorable_rating,258465,Reno,,50,,2,,,,,,,,,,,,,,,
null,,confidence_buffer,258567,confidence_buffer,,null,,,,,,,,,,,,,,,,,
567.5,,recognition_phase,259136,Reno,,50,,,,,old,0,0.5333333333333333,,,,,,,,,,
null,,confidence_buffer,259239,confidence_buffer,,null,,,,,,,,,,,,,,,,,
null,,thebreak,259741,break,,null,,,,,,,,,,,,,,,,,
550.2999999523163,,realistic_rating,260293,Ann Arbor,,52,Ann Arbor,4,,,,,,,,,,,,,,,
null,,confidence_buffer,260396,confidence_buffer,,null,,,,,,,,,,,,,,,,,
555,,pt2_unique_rating,260953,Ann Arbor,,52,,4,,,,,,,,,,,,,,,
null,,confidence_buffer,261055,confidence_buffer,,null,,,,,,,,,,,,,,,,,
547.3000000119209,,pt2_memorable_rating,261604,Ann Arbor,,52,,4,,,,,,,,,,,,,,,
null,,confidence_buffer,261707,confidence_buffer,,null,,,,,,,,,,,,,,,,,
524.3999999761581,,recognition_phase,262232,Ann Arbor,,49,,,,,old,0,0.5161290322580645,,,,,,,,,,
null,,confidence_buffer,262335,confidence_buffer,,null,,,,,,,,,,,,,,,,,
null,,thebreak,262850,break,,null,,,,,,,,,,,,,,,,,
655.4000000357628,,realistic_rating,263507,Abilene,,49,Abilene,1,,,,,,,,,,,,,,,
null,,confidence_buffer,263609,confidence_buffer,,null,,,,,,,,,,,,,,,,,
616.7000000476837,,pt2_unique_rating,264227,Abilene,,50,,2,,,,,,,,,,,,,,,
null,,confidence_buffer,264329,confidence_buffer,,null,,,,,,,,,,,,,,,,,
535.1000000238419,,pt2_memorable_rating,264866,Abilene,,50,,2,,,,,,,,,,,,,,,
null,,confidence_buffer,264969,confidence_buffer,,null,,,,,,,,,,,,,,,,,
1824.699999988079,,probe_rating,266795,probe_rating,,51,,,3,1,,,,,,,,,,,,,
null,,confidence_buffer,266897,confidence_buffer,,null,,,,,,,,,,,,,,,,,
1287.8999999761581,,recognition_phase,268187,Abilene,,51,,,,,new,0,0.5,,,,,,,,,,
null,,confidence_buffer,268289,confidence_buffer,,null,,,,,,,,,,,,,,,,,
null,,thebreak,268790,break,,null,,,,,,,,,,,,,,,,,
584.7000000476837,,realistic_rating,269377,Dubuque,,52,Dubuque,4,,,,,,,,,,,,,,,
null,,confidence_buffer,269479,confidence_buffer,,null,,,,,,,,,,,,,,,,,
519.5,,pt2_unique_rating,270000,Dubuque,,50,,2,,,,,,,,,,,,,,,
null,,confidence_buffer,270102,confidence_buffer,,null,,,,,,,,,,,,,,,,,
381.2000000476837,,pt2_memorable_rating,270484,Dubuque,,53,,5,,,,,,,,,,,,,,,
null,,confidence_buffer,270586,confidence_buffer,,null,,,,,,,,,,,,,,,,,
3894.800000011921,,recognition_phase,274482,Dubuque,,49,,,,,old,1,0.5151515151515151,,,,,,,,,,
null,,confidence_buffer,274588,confidence_buffer,,null,,,,,,,,,,,,,,,,,
null,,thebreak,275104,break,,null,,,,,,,,,,,,,,,,,
640.8999999761581,,realistic_rating,275747,Hagerstown,,50,Hagerstown,2,,,,,,,,,,,,,,,
null,,confidence_buffer,275849,confidence_buffer,,null,,,,,,,,,,,,,,,,,
809.3000000119209,,pt2_unique_rating,276660,Hagerstown,,52,,4,,,,,,,,,,,,,,,
null,,confidence_buffer,276764,confidence_buffer,,null,,,,,,,,,,,,,,,,,
675.5999999642372,,pt2_memorable_rating,277441,Hagerstown,,50,,2,,,,,,,,,,,,,,,
null,,confidence_buffer,277544,confidence_buffer,,null,,,,,,,,,,,,,,,,,
1472.199999988079,,probe_rating,279018,probe_rating,,51,,,3,1,,,,,,,,,,,,,
null,,confidence_buffer,279120,confidence_buffer,,null,,,,,,,,,,,,,,,,,
729.9000000357628,,recognition_phase,279852,Hagerstown,,50,,,,,old,0,0.5,,,,,,,,,,
null,,confidence_buffer,279964,confidence_buffer,,null,,,,,,,,,,,,,,,,,
null,,thebreak,280466,break,,null,,,,,,,,,,,,,,,,,
524,,realistic_rating,280992,Concord,,52,Concord,4,,,,,,,,,,,,,,,
null,,confidence_buffer,281094,confidence_buffer,,null,,,,,,,,,,,,,,,,,
451.80000001192093,,pt2_unique_rating,281547,Concord,,53,,5,,,,,,,,,,,,,,,
null,,confidence_buffer,281650,confidence_buffer,,null,,,,,,,,,,,,,,,,,
659.4000000357628,,pt2_memorable_rating,282310,Concord,,53,,5,,,,,,,,,,,,,,,
null,,confidence_buffer,282412,confidence_buffer,,null,,,,,,,,,,,,,,,,,
702.7999999523163,,recognition_phase,283116,Concord,,51,,,,,new,0,0.4857142857142857,,,,,,,,,,
null,,confidence_buffer,283219,confidence_buffer,,null,,,,,,,,,,,,,,,,,
null,,thebreak,283721,break,,null,,,,,,,,,,,,,,,,,
603.1999999880791,,realistic_rating,284326,Marquette,,50,Marquette,2,,,,,,,,,,,,,,,
null,,confidence_buffer,284429,confidence_buffer,,null,,,,,,,,,,,,,,,,,
1717.2999999523163,,pt2_unique_rating,286148,Marquette,,50,,2,,,,,,,,,,,,,,,
null,,confidence_buffer,286251,confidence_buffer,,null,,,,,,,,,,,,,,,,,
1068.9000000357628,,pt2_memorable_rating,287322,Marquette,,52,,4,,,,,,,,,,,,,,,
null,,confidence_buffer,287425,confidence_buffer,,null,,,,,,,,,,,,,,,,,
950.6000000238419,,recognition_phase,288377,Marquette,,50,,,,,old,1,0.5,,,,,,,,,,
null,,confidence_buffer,288480,confidence_buffer,,null,,,,,,,,,,,,,,,,,
null,,thebreak,288981,break,,null,,,,,,,,,,,,,,,,,
549.6999999880791,,realistic_rating,289532,Dothan,,50,Dothan,2,,,,,,,,,,,,,,,
null,,confidence_buffer,289635,confidence_buffer,,null,,,,,,,,,,,,,,,,,
710.6000000238419,,pt2_unique_rating,290347,Dothan,,52,,4,,,,,,,,,,,,,,,
null,,confidence_buffer,290450,confidence_buffer,,null,,,,,,,,,,,,,,,,,
514.5,,pt2_memorable_rating,290965,Dothan,,52,,4,,,,,,,,,,,,,,,
null,,confidence_buffer,291068,confidence_buffer,,null,,,,,,,,,,,,,,,,,
637.8999999761581,,recognition_phase,291707,Dothan,,52,,,,,new,0,0.4864864864864865,,,,,,,,,,
null,,confidence_buffer,291809,confidence_buffer,,null,,,,,,,,,,,,,,,,,
null,,thebreak,292312,break,,null,,,,,,,,,,,,,,,,,
589.5,,realistic_rating,292903,Rock Springs,,50,Rock Springs,2,,,,,,,,,,,,,,,
null,,confidence_buffer,293005,confidence_buffer,,null,,,,,,,,,,,,,,,,,
492.30000001192093,,pt2_unique_rating,293498,Rock Springs,,50,,2,,,,,,,,,,,,,,,
null,,confidence_buffer,293600,confidence_buffer,,null,,,,,,,,,,,,,,,,,
658.5,,pt2_memorable_rating,294260,Rock Springs,,50,,2,,,,,,,,,,,,,,,
null,,confidence_buffer,294363,confidence_buffer,,null,,,,,,,,,,,,,,,,,
553.5999999642372,,recognition_phase,294919,Rock Springs,,52,,,,,new,1,0.5,,,,,,,,,,
null,,confidence_buffer,295021,confidence_buffer,,null,,,,,,,,,,,,,,,,,
null,,thebreak,295522,break,,null,,,,,,,,,,,,,,,,,
719,,realistic_rating,296242,Fort Wayne,,53,Fort Wayne,5,,,,,,,,,,,,,,,
null,,confidence_buffer,296345,confidence_buffer,,null,,,,,,,,,,,,,,,,,
1672.800000011921,,probe_rating,298020,probe_rating,,52,,,4,1,,,,,,,,,,,,,
null,,confidence_buffer,298122,confidence_buffer,,null,,,,,,,,,,,,,,,,,
760.5,,pt2_unique_rating,298884,Fort Wayne,,50,,2,,,,,,,,,,,,,,,
null,,confidence_buffer,298987,confidence_buffer,,null,,,,,,,,,,,,,,,,,
566.2999999523163,,pt2_memorable_rating,299554,Fort Wayne,,50,,2,,,,,,,,,,,,,,,
null,,confidence_buffer,299658,confidence_buffer,,null,,,,,,,,,,,,,,,,,
402.80000001192093,,recognition_phase,300062,Fort Wayne,,49,,,,,old,1,0.5128205128205128,,,,,,,,,,
null,,confidence_buffer,300165,confidence_buffer,,null,,,,,,,,,,,,,,,,,
null,,thebreak,300667,break,,null,,,,,,,,,,,,,,,,,
756.1999999880791,,realistic_rating,301425,Norfolk,,51,Norfolk,3,,,,,,,,,,,,,,,
null,,confidence_buffer,301527,confidence_buffer,,null,,,,,,,,,,,,,,,,,
607.6999999880791,,pt2_unique_rating,302137,Norfolk,,52,,4,,,,,,,,,,,,,,,
null,,confidence_buffer,302240,confidence_buffer,,null,,,,,,,,,,,,,,,,,
552.6999999880791,,pt2_memorable_rating,302794,Norfolk,,52,,4,,,,,,,,,,,,,,,
null,,confidence_buffer,302897,confidence_buffer,,null,,,,,,,,,,,,,,,,,
1644.4000000357628,,probe_rating,304543,probe_rating,,49,,,1,1,,,,,,,,,,,,,
null,,confidence_buffer,304646,confidence_buffer,,null,,,,,,,,,,,,,,,,,
1498.199999988079,,recognition_phase,306146,Norfolk,,51,,,,,new,1,0.525,,,,,,,,,,
null,,confidence_buffer,306248,confidence_buffer,,null,,,,,,,,,,,,,,,,,
null,,thebreak,306750,break,,null,,,,,,,,,,,,,,,,,
439.39999997615814,,realistic_rating,307191,Newport News,,52,Newport News,4,,,,,,,,,,,,,,,
null,,confidence_buffer,307292,confidence_buffer,,null,,,,,,,,,,,,,,,,,
417.39999997615814,,pt2_unique_rating,307711,Newport News,,50,,2,,,,,,,,,,,,,,,
null,,confidence_buffer,307827,confidence_buffer,,null,,,,,,,,,,,,,,,,,
570.7000000476837,,pt2_memorable_rating,308400,Newport News,,52,,4,,,,,,,,,,,,,,,
null,,confidence_buffer,308502,confidence_buffer,,null,,,,,,,,,,,,,,,,,
814.6000000238419,,recognition_phase,309319,Newport News,,51,,,,,new,1,0.5365853658536586,,,,,,,,,,
null,,confidence_buffer,309422,confidence_buffer,,null,,,,,,,,,,,,,,,,,
null,,thebreak,309924,break,,null,,,,,,,,,,,,,,,,,
1874.699999988079,,realistic_rating,311800,Frankfort,,52,Frankfort,4,,,,,,,,,,,,,,,
null,,confidence_buffer,311902,confidence_buffer,,null,,,,,,,,,,,,,,,,,
1566.199999988079,,pt2_unique_rating,313470,Frankfort,,51,,3,,,,,,,,,,,,,,,
null,,confidence_buffer,313573,confidence_buffer,,null,,,,,,,,,,,,,,,,,
1655.3999999761581,,pt2_memorable_rating,315230,Frankfort,,52,,4,,,,,,,,,,,,,,,
null,,confidence_buffer,315333,confidence_buffer,,null,,,,,,,,,,,,,,,,,
562.5,,recognition_phase,315897,Frankfort,,50,,,,,old,1,0.5476190476190477,,,,,,,,,,
null,,confidence_buffer,316000,confidence_buffer,,null,,,,,,,,,,,,,,,,,
null,,thebreak,316502,break,,null,,,,,,,,,,,,,,,,,
1341.4000000357628,,realistic_rating,317845,Santa Monica,,52,Santa Monica,4,,,,,,,,,,,,,,,
null,,confidence_buffer,317946,confidence_buffer,,null,,,,,,,,,,,,,,,,,
454,,pt2_unique_rating,318401,Santa Monica,,53,,5,,,,,,,,,,,,,,,
null,,confidence_buffer,318503,confidence_buffer,,null,,,,,,,,,,,,,,,,,
622.6000000238419,,pt2_memorable_rating,319128,Santa Monica,,49,,1,,,,,,,,,,,,,,,
null,,confidence_buffer,319231,confidence_buffer,,null,,,,,,,,,,,,,,,,,
513,,recognition_phase,319746,Santa Monica,,50,,,,,old,0,0.5348837209302325,,,,,,,,,,
null,,confidence_buffer,319848,confidence_buffer,,null,,,,,,,,,,,,,,,,,
null,,thebreak,320350,break,,null,,,,,,,,,,,,,,,,,
492.0999999642372,,realistic_rating,320844,Pasadena,,50,Pasadena,2,,,,,,,,,,,,,,,
null,,confidence_buffer,320948,confidence_buffer,,null,,,,,,,,,,,,,,,,,
387.39999997615814,,pt2_unique_rating,321337,Pasadena,,52,,4,,,,,,,,,,,,,,,
null,,confidence_buffer,321439,confidence_buffer,,null,,,,,,,,,,,,,,,,,
472.30000001192093,,pt2_memorable_rating,321913,Pasadena,,50,,2,,,,,,,,,,,,,,,
null,,confidence_buffer,322017,confidence_buffer,,null,,,,,,,,,,,,,,,,,
774.3999999761581,,recognition_phase,322793,Pasadena,,52,,,,,new,1,0.5454545454545454,,,,,,,,,,
null,,confidence_buffer,322896,confidence_buffer,,null,,,,,,,,,,,,,,,,,
null,,thebreak,323398,break,,null,,,,,,,,,,,,,,,,,
664.7000000476837,,realistic_rating,324064,Berkeley,,51,Berkeley,3,,,,,,,,,,,,,,,
null,,confidence_buffer,324167,confidence_buffer,,null,,,,,,,,,,,,,,,,,
1429.1000000238419,,probe_rating,325598,probe_rating,,49,,,1,1,,,,,,,,,,,,,
null,,confidence_buffer,325700,confidence_buffer,,null,,,,,,,,,,,,,,,,,
531.8000000119209,,pt2_unique_rating,326234,Berkeley,,50,,2,,,,,,,,,,,,,,,
null,,confidence_buffer,326336,confidence_buffer,,null,,,,,,,,,,,,,,,,,
432.19999998807907,,pt2_memorable_rating,326770,Berkeley,,52,,4,,,,,,,,,,,,,,,
null,,confidence_buffer,326877,confidence_buffer,,null,,,,,,,,,,,,,,,,,
624.2000000476837,,recognition_phase,327504,Berkeley,,50,,,,,old,0,0.5333333333333333,,,,,,,,,,
null,,confidence_buffer,327607,confidence_buffer,,null,,,,,,,,,,,,,,,,,
null,,thebreak,328114,break,,null,,,,,,,,,,,,,,,,,
413.80000001192093,,realistic_rating,328530,Altoona,,52,Altoona,4,,,,,,,,,,,,,,,
null,,confidence_buffer,328632,confidence_buffer,,null,,,,,,,,,,,,,,,,,
816.6999999880791,,pt2_unique_rating,329450,Altoona,,52,,4,,,,,,,,,,,,,,,
null,,confidence_buffer,329552,confidence_buffer,,null,,,,,,,,,,,,,,,,,
489.5,,pt2_memorable_rating,330043,Altoona,,50,,2,,,,,,,,,,,,,,,
null,,confidence_buffer,330146,confidence_buffer,,null,,,,,,,,,,,,,,,,,
668.8000000119209,,recognition_phase,330816,Altoona,,52,,,,,new,0,0.5217391304347826,,,,,,,,,,
null,,confidence_buffer,330920,confidence_buffer,,null,,,,,,,,,,,,,,,,,
null,,thebreak,331423,break,,null,,,,,,,,,,,,,,,,,
644.2000000476837,,realistic_rating,332069,Scottsdale,,51,Scottsdale,3,,,,,,,,,,,,,,,
null,,confidence_buffer,332171,confidence_buffer,,null,,,,,,,,,,,,,,,,,
1012.6000000238419,,pt2_unique_rating,333186,Scottsdale,,51,,3,,,,,,,,,,,,,,,
null,,confidence_buffer,333288,confidence_buffer,,null,,,,,,,,,,,,,,,,,
516.8000000119209,,pt2_memorable_rating,333807,Scottsdale,,50,,2,,,,,,,,,,,,,,,
null,,confidence_buffer,333910,confidence_buffer,,null,,,,,,,,,,,,,,,,,
632.2000000476837,,recognition_phase,334544,Scottsdale,,51,,,,,new,1,0.5319148936170213,,,,,,,,,,
null,,confidence_buffer,334647,confidence_buffer,,null,,,,,,,,,,,,,,,,,
null,,thebreak,335148,break,,null,,,,,,,,,,,,,,,,,
797,,realistic_rating,335946,Boise,,50,Boise,2,,,,,,,,,,,,,,,
null,,confidence_buffer,336049,confidence_buffer,,null,,,,,,,,,,,,,,,,,
710.6000000238419,,pt2_unique_rating,336761,Boise,,50,,2,,,,,,,,,,,,,,,
null,,confidence_buffer,336875,confidence_buffer,,null,,,,,,,,,,,,,,,,,
701.6999999880791,,pt2_memorable_rating,337578,Boise,,50,,2,,,,,,,,,,,,,,,
null,,confidence_buffer,337680,confidence_buffer,,null,,,,,,,,,,,,,,,,,
583.6999999880791,,recognition_phase,338265,Boise,,52,,,,,new,1,0.5416666666666666,,,,,,,,,,
null,,confidence_buffer,338366,confidence_buffer,,null,,,,,,,,,,,,,,,,,
null,,thebreak,338869,break,,null,,,,,,,,,,,,,,,,,
1013.1999999880791,,realistic_rating,339884,Terre Haute,,53,Terre Haute,5,,,,,,,,,,,,,,,
null,,confidence_buffer,339987,confidence_buffer,,null,,,,,,,,,,,,,,,,,
717.9000000357628,,pt2_unique_rating,340706,Terre Haute,,49,,1,,,,,,,,,,,,,,,
null,,confidence_buffer,340810,confidence_buffer,,null,,,,,,,,,,,,,,,,,
459.69999998807907,,pt2_memorable_rating,341271,Terre Haute,,50,,2,,,,,,,,,,,,,,,
null,,confidence_buffer,341388,confidence_buffer,,null,,,,,,,,,,,,,,,,,
632.5,,recognition_phase,342023,Terre Haute,,50,,,,,old,1,0.5510204081632653,,,,,,,,,,
null,,confidence_buffer,342126,confidence_buffer,,null,,,,,,,,,,,,,,,,,
null,,thebreak,342628,break,,null,,,,,,,,,,,,,,,,,
725.1999999880791,,realistic_rating,343355,Syracuse,,52,Syracuse,4,,,,,,,,,,,,,,,
null,,confidence_buffer,343457,confidence_buffer,,null,,,,,,,,,,,,,,,,,
627.6999999880791,,pt2_unique_rating,344086,Syracuse,,50,,2,,,,,,,,,,,,,,,
null,,confidence_buffer,344188,confidence_buffer,,null,,,,,,,,,,,,,,,,,
612.6999999880791,,pt2_memorable_rating,344803,Syracuse,,52,,4,,,,,,,,,,,,,,,
null,,confidence_buffer,344905,confidence_buffer,,null,,,,,,,,,,,,,,,,,
754.1999999880791,,recognition_phase,345661,Syracuse,,52,,,,,new,0,0.54,,,,,,,,,,
null,,confidence_buffer,345764,confidence_buffer,,null,,,,,,,,,,,,,,,,,
null,,thebreak,346266,break,,null,,,,,,,,,,,,,,,,,
,,survey,451338,survey-questions,,,,,,,,,,,0,No,memorising the names of the countries,seen beore ,know about it ,natural it is ,how real it is ,no,No comment
