rt,responses,trial_type,time_elapsed,stimulus,button_pressed,key_press,name_trial,city_type,rating,probe,probe_accuracy,response,correct,accuracy,problems,smooth,distraction,strategies,familiar,memorable,unique,realistic,similar,comments
8404.400000002235,{worker_id:6731276e95d1d072d7e9fdc4},id_enter,8411,,,,,,,,,,,,,,,,,,,,,
7318.800000000745,,fullscreen,15733,fullscreen,0,,,,,,,,,,,,,,,,,,,
5303.699999999255,,intro_0,21039,instruct,,32,,,,,,,,,,,,,,,,,,
5692.300000000745,,intro_1,26733,instruct,,32,,,,,,,,,,,,,,,,,,
2955.2999999970198,,intro_2,29690,instruct,,32,,,,,,,,,,,,,,,,,,
null,,instruct_dir_4,31193,instruct,,null,,,,,,,,,,,,,,,,,,
null,,thebreak,31696,break,,null,,,,,,,,,,,,,,,,,,
2850.89999999851,,familiar_rating,34549,Solara Glen,,49,Solara Glen,Fictional,1,,,,,,,,,,,,,,,
null,,confidence_buffer,34654,confidence_buffer,,null,,,,,,,,,,,,,,,,,,
5179.39999999851,,unique_rating,39836,Solara Glen,,52,,,4,,,,,,,,,,,,,,,
null,,confidence_buffer,39939,confidence_buffer,,null,,,,,,,,,,,,,,,,,,
3829.7999999970198,,memorable_rating,43770,Solara Glen,,51,,,3,,,,,,,,,,,,,,,
null,,confidence_buffer,43872,confidence_buffer,,null,,,,,,,,,,,,,,,,,,
null,,thebreak,44375,break,,null,,,,,,,,,,,,,,,,,,
4653.89999999851,,familiar_rating,49031,Folly Beach,,50,Folly Beach,US,2,,,,,,,,,,,,,,,
null,,confidence_buffer,49134,confidence_buffer,,null,,,,,,,,,,,,,,,,,,
2650.39999999851,,unique_rating,51786,Folly Beach,,49,,,1,,,,,,,,,,,,,,,
null,,confidence_buffer,51890,confidence_buffer,,null,,,,,,,,,,,,,,,,,,
3349.400000002235,,memorable_rating,55241,Folly Beach,,50,,,2,,,,,,,,,,,,,,,
null,,confidence_buffer,55343,confidence_buffer,,null,,,,,,,,,,,,,,,,,,
null,,thebreak,55846,break,,null,,,,,,,,,,,,,,,,,,
2890.599999997765,,familiar_rating,58738,Bayshore Haven,,51,Bayshore Haven,Fictional,3,,,,,,,,,,,,,,,
null,,confidence_buffer,58840,confidence_buffer,,null,,,,,,,,,,,,,,,,,,
3123.2000000029802,,unique_rating,61965,Bayshore Haven,,49,,,1,,,,,,,,,,,,,,,
null,,confidence_buffer,62068,confidence_buffer,,null,,,,,,,,,,,,,,,,,,
1383.7000000029802,,memorable_rating,63453,Bayshore Haven,,50,,,2,,,,,,,,,,,,,,,
null,,confidence_buffer,63556,confidence_buffer,,null,,,,,,,,,,,,,,,,,,
null,,thebreak,64059,break,,null,,,,,,,,,,,,,,,,,,
3036.5,,familiar_rating,67097,Cornwall,,52,Cornwall,US,4,,,,,,,,,,,,,,,
null,,confidence_buffer,67200,confidence_buffer,,null,,,,,,,,,,,,,,,,,,
3312.5,,unique_rating,70514,Cornwall,,51,,,3,,,,,,,,,,,,,,,
null,,confidence_buffer,70616,confidence_buffer,,null,,,,,,,,,,,,,,,,,,
2873.5,,memorable_rating,73491,Cornwall,,51,,,3,,,,,,,,,,,,,,,
null,,confidence_buffer,73594,confidence_buffer,,null,,,,,,,,,,,,,,,,,,
null,,thebreak,74096,break,,null,,,,,,,,,,,,,,,,,,
3117.2999999970198,,familiar_rating,77216,Granton Ridge,,49,Granton Ridge,Fictional,1,,,,,,,,,,,,,,,
null,,confidence_buffer,77319,confidence_buffer,,null,,,,,,,,,,,,,,,,,,
3600.599999997765,,unique_rating,80921,Granton Ridge,,51,,,3,,,,,,,,,,,,,,,
null,,confidence_buffer,81023,confidence_buffer,,null,,,,,,,,,,,,,,,,,,
2105.5,,memorable_rating,83130,Granton Ridge,,49,,,1,,,,,,,,,,,,,,,
null,,confidence_buffer,83234,confidence_buffer,,null,,,,,,,,,,,,,,,,,,
null,,thebreak,83736,break,,null,,,,,,,,,,,,,,,,,,
2574.2999999970198,,familiar_rating,86312,Livingston,,53,Livingston,US,5,,,,,,,,,,,,,,,
null,,confidence_buffer,86414,confidence_buffer,,null,,,,,,,,,,,,,,,,,,
2550.800000000745,,unique_rating,88966,Livingston,,49,,,1,,,,,,,,,,,,,,,
null,,confidence_buffer,89069,confidence_buffer,,null,,,,,,,,,,,,,,,,,,
3926,,memorable_rating,92997,Livingston,,50,,,2,,,,,,,,,,,,,,,
null,,confidence_buffer,93099,confidence_buffer,,null,,,,,,,,,,,,,,,,,,
null,,thebreak,93602,break,,null,,,,,,,,,,,,,,,,,,
4329.79999999702,,familiar_rating,97934,Driftwood Bay,,49,Driftwood Bay,Fictional,1,,,,,,,,,,,,,,,
null,,confidence_buffer,98037,confidence_buffer,,null,,,,,,,,,,,,,,,,,,
756.6000000014901,,unique_rating,98795,Driftwood Bay,,51,,,3,,,,,,,,,,,,,,,
null,,confidence_buffer,98898,confidence_buffer,,null,,,,,,,,,,,,,,,,,,
2422.10000000149,,memorable_rating,101321,Driftwood Bay,,52,,,4,,,,,,,,,,,,,,,
null,,confidence_buffer,101424,confidence_buffer,,null,,,,,,,,,,,,,,,,,,
null,,thebreak,101927,break,,null,,,,,,,,,,,,,,,,,,
3078.5,,familiar_rating,105007,Bar Harbor,,52,Bar Harbor,US,4,,,,,,,,,,,,,,,
null,,confidence_buffer,105111,confidence_buffer,,null,,,,,,,,,,,,,,,,,,
1372.5,,unique_rating,106485,Bar Harbor,,53,,,5,,,,,,,,,,,,,,,
null,,confidence_buffer,106588,confidence_buffer,,null,,,,,,,,,,,,,,,,,,
3419.7000000029802,,probe_rating,110009,probe_rating,,52,,,,4,1,,,,,,,,,,,,,
null,,confidence_buffer,110113,confidence_buffer,,null,,,,,,,,,,,,,,,,,,
4804.800000000745,,memorable_rating,114919,Bar Harbor,,51,,,3,,,,,,,,,,,,,,,
null,,confidence_buffer,115023,confidence_buffer,,null,,,,,,,,,,,,,,,,,,
null,,thebreak,115525,break,,null,,,,,,,,,,,,,,,,,,
1833.7999999970198,,familiar_rating,117361,Gardnerville,,49,Gardnerville,US,1,,,,,,,,,,,,,,,
null,,confidence_buffer,117463,confidence_buffer,,null,,,,,,,,,,,,,,,,,,
2637.699999999255,,unique_rating,120103,Gardnerville,,51,,,3,,,,,,,,,,,,,,,
null,,confidence_buffer,120206,confidence_buffer,,null,,,,,,,,,,,,,,,,,,
2226.099999997765,,memorable_rating,122433,Gardnerville,,50,,,2,,,,,,,,,,,,,,,
null,,confidence_buffer,122537,confidence_buffer,,null,,,,,,,,,,,,,,,,,,
null,,thebreak,123039,break,,null,,,,,,,,,,,,,,,,,,
2145.900000002235,,familiar_rating,125187,Summershade,,49,Summershade,Fictional,1,,,,,,,,,,,,,,,
null,,confidence_buffer,125290,confidence_buffer,,null,,,,,,,,,,,,,,,,,,
3674.900000002235,,unique_rating,128966,Summershade,,50,,,2,,,,,,,,,,,,,,,
null,,confidence_buffer,129070,confidence_buffer,,null,,,,,,,,,,,,,,,,,,
3256.2999999970198,,memorable_rating,132327,Summershade,,49,,,1,,,,,,,,,,,,,,,
null,,confidence_buffer,132430,confidence_buffer,,null,,,,,,,,,,,,,,,,,,
null,,thebreak,132933,break,,null,,,,,,,,,,,,,,,,,,
2089.5,,familiar_rating,135024,Newport,,53,Newport,US,5,,,,,,,,,,,,,,,
null,,confidence_buffer,135127,confidence_buffer,,null,,,,,,,,,,,,,,,,,,
3929.800000000745,,unique_rating,139058,Newport,,51,,,3,,,,,,,,,,,,,,,
null,,confidence_buffer,139161,confidence_buffer,,null,,,,,,,,,,,,,,,,,,
2492.10000000149,,memorable_rating,141655,Newport,,53,,,5,,,,,,,,,,,,,,,
null,,confidence_buffer,141758,confidence_buffer,,null,,,,,,,,,,,,,,,,,,
null,,thebreak,142262,break,,null,,,,,,,,,,,,,,,,,,
2097.900000002235,,familiar_rating,144361,Maravilla Springs,,52,Maravilla Springs,Fictional,4,,,,,,,,,,,,,,,
null,,confidence_buffer,144464,confidence_buffer,,null,,,,,,,,,,,,,,,,,,
1659.199999999255,,probe_rating,146125,probe_rating,,51,,,,3,1,,,,,,,,,,,,,
null,,confidence_buffer,146228,confidence_buffer,,null,,,,,,,,,,,,,,,,,,
1897.800000000745,,unique_rating,148127,Maravilla Springs,,50,,,2,,,,,,,,,,,,,,,
null,,confidence_buffer,148230,confidence_buffer,,null,,,,,,,,,,,,,,,,,,
4529.699999999255,,memorable_rating,152761,Maravilla Springs,,52,,,4,,,,,,,,,,,,,,,
null,,confidence_buffer,152864,confidence_buffer,,null,,,,,,,,,,,,,,,,,,
null,,thebreak,153367,break,,null,,,,,,,,,,,,,,,,,,
2327.60000000149,,familiar_rating,155696,Assateague Island,,49,Assateague Island,US,1,,,,,,,,,,,,,,,
null,,confidence_buffer,155798,confidence_buffer,,null,,,,,,,,,,,,,,,,,,
1363.199999999255,,unique_rating,157162,Assateague Island,,49,,,1,,,,,,,,,,,,,,,
null,,confidence_buffer,157265,confidence_buffer,,null,,,,,,,,,,,,,,,,,,
6158.10000000149,,memorable_rating,163425,Assateague Island,,52,,,4,,,,,,,,,,,,,,,
null,,confidence_buffer,163528,confidence_buffer,,null,,,,,,,,,,,,,,,,,,
null,,thebreak,164031,break,,null,,,,,,,,,,,,,,,,,,
5182.699999999255,,familiar_rating,169215,Ashford Hills,,50,Ashford Hills,Fictional,2,,,,,,,,,,,,,,,
null,,confidence_buffer,169318,confidence_buffer,,null,,,,,,,,,,,,,,,,,,
7177.900000002235,,unique_rating,176497,Ashford Hills,,49,,,1,,,,,,,,,,,,,,,
null,,confidence_buffer,176601,confidence_buffer,,null,,,,,,,,,,,,,,,,,,
1620.5999999977648,,memorable_rating,178223,Ashford Hills,,49,,,1,,,,,,,,,,,,,,,
null,,confidence_buffer,178325,confidence_buffer,,null,,,,,,,,,,,,,,,,,,
null,,thebreak,178828,break,,null,,,,,,,,,,,,,,,,,,
2177.800000000745,,familiar_rating,181008,East Ladera,,49,East Ladera,Fictional,1,,,,,,,,,,,,,,,
null,,confidence_buffer,181111,confidence_buffer,,null,,,,,,,,,,,,,,,,,,
1528.8999999985099,,unique_rating,182641,East Ladera,,51,,,3,,,,,,,,,,,,,,,
null,,confidence_buffer,182744,confidence_buffer,,null,,,,,,,,,,,,,,,,,,
2310.300000000745,,memorable_rating,185056,East Ladera,,50,,,2,,,,,,,,,,,,,,,
null,,confidence_buffer,185158,confidence_buffer,,null,,,,,,,,,,,,,,,,,,
null,,thebreak,185660,break,,null,,,,,,,,,,,,,,,,,,
1646.5,,familiar_rating,187309,Duck,,49,Duck,US,1,,,,,,,,,,,,,,,
null,,confidence_buffer,187411,confidence_buffer,,null,,,,,,,,,,,,,,,,,,
2343.10000000149,,unique_rating,189756,Duck,,52,,,4,,,,,,,,,,,,,,,
null,,confidence_buffer,189859,confidence_buffer,,null,,,,,,,,,,,,,,,,,,
1850.699999999255,,memorable_rating,191711,Duck,,53,,,5,,,,,,,,,,,,,,,
null,,confidence_buffer,191814,confidence_buffer,,null,,,,,,,,,,,,,,,,,,
null,,thebreak,192317,break,,null,,,,,,,,,,,,,,,,,,
3422.199999999255,,familiar_rating,195740,Sammamish,,49,Sammamish,US,1,,,,,,,,,,,,,,,
null,,confidence_buffer,195844,confidence_buffer,,null,,,,,,,,,,,,,,,,,,
2135.2000000029802,,unique_rating,197980,Sammamish,,49,,,1,,,,,,,,,,,,,,,
null,,confidence_buffer,198084,confidence_buffer,,null,,,,,,,,,,,,,,,,,,
3700.39999999851,,memorable_rating,201786,Sammamish,,51,,,3,,,,,,,,,,,,,,,
null,,confidence_buffer,201889,confidence_buffer,,null,,,,,,,,,,,,,,,,,,
1426.7000000029802,,probe_rating,203317,probe_rating,,52,,,,4,1,,,,,,,,,,,,,
null,,confidence_buffer,203420,confidence_buffer,,null,,,,,,,,,,,,,,,,,,
null,,thebreak,203923,break,,null,,,,,,,,,,,,,,,,,,
5771.10000000149,,familiar_rating,209696,Coralridge,,53,Coralridge,Fictional,5,,,,,,,,,,,,,,,
null,,confidence_buffer,209798,confidence_buffer,,null,,,,,,,,,,,,,,,,,,
1804.0999999977648,,unique_rating,211604,Coralridge,,50,,,2,,,,,,,,,,,,,,,
null,,confidence_buffer,211706,confidence_buffer,,null,,,,,,,,,,,,,,,,,,
3571.199999999255,,memorable_rating,215279,Coralridge,,51,,,3,,,,,,,,,,,,,,,
null,,confidence_buffer,215382,confidence_buffer,,null,,,,,,,,,,,,,,,,,,
null,,thebreak,215885,break,,null,,,,,,,,,,,,,,,,,,
2005.2000000029802,,familiar_rating,217892,Hilo,,49,Hilo,US,1,,,,,,,,,,,,,,,
null,,confidence_buffer,217995,confidence_buffer,,null,,,,,,,,,,,,,,,,,,
2136.89999999851,,unique_rating,220133,Hilo,,52,,,4,,,,,,,,,,,,,,,
null,,confidence_buffer,220236,confidence_buffer,,null,,,,,,,,,,,,,,,,,,
2327.39999999851,,memorable_rating,222565,Hilo,,50,,,2,,,,,,,,,,,,,,,
null,,confidence_buffer,222668,confidence_buffer,,null,,,,,,,,,,,,,,,,,,
null,,thebreak,223171,break,,null,,,,,,,,,,,,,,,,,,
3872,,familiar_rating,227044,Westridge,,52,Westridge,Fictional,4,,,,,,,,,,,,,,,
null,,confidence_buffer,227146,confidence_buffer,,null,,,,,,,,,,,,,,,,,,
3042.199999999255,,unique_rating,230190,Westridge,,49,,,1,,,,,,,,,,,,,,,
null,,confidence_buffer,230293,confidence_buffer,,null,,,,,,,,,,,,,,,,,,
1791.199999999255,,memorable_rating,232086,Westridge,,50,,,2,,,,,,,,,,,,,,,
null,,confidence_buffer,232188,confidence_buffer,,null,,,,,,,,,,,,,,,,,,
null,,thebreak,232691,break,,null,,,,,,,,,,,,,,,,,,
1920.2999999970198,,familiar_rating,234613,New Hope,,49,New Hope,US,1,,,,,,,,,,,,,,,
null,,confidence_buffer,234715,confidence_buffer,,null,,,,,,,,,,,,,,,,,,
3258.300000000745,,unique_rating,237975,New Hope,,51,,,3,,,,,,,,,,,,,,,
null,,confidence_buffer,238078,confidence_buffer,,null,,,,,,,,,,,,,,,,,,
2464,,memorable_rating,240544,New Hope,,52,,,4,,,,,,,,,,,,,,,
null,,confidence_buffer,240647,confidence_buffer,,null,,,,,,,,,,,,,,,,,,
null,,thebreak,241150,break,,null,,,,,,,,,,,,,,,,,,
1532,,familiar_rating,242684,Willowford,,49,Willowford,Fictional,1,,,,,,,,,,,,,,,
null,,confidence_buffer,242787,confidence_buffer,,null,,,,,,,,,,,,,,,,,,
7857.199999999255,,unique_rating,250646,Willowford,,52,,,4,,,,,,,,,,,,,,,
null,,confidence_buffer,250749,confidence_buffer,,null,,,,,,,,,,,,,,,,,,
2786.699999999255,,memorable_rating,253537,Willowford,,50,,,2,,,,,,,,,,,,,,,
null,,confidence_buffer,253640,confidence_buffer,,null,,,,,,,,,,,,,,,,,,
null,,thebreak,254143,break,,null,,,,,,,,,,,,,,,,,,
1600.5,,familiar_rating,255745,Briarfield,,49,Briarfield,Fictional,1,,,,,,,,,,,,,,,
null,,confidence_buffer,255847,confidence_buffer,,null,,,,,,,,,,,,,,,,,,
3441.300000000745,,unique_rating,259290,Briarfield,,51,,,3,,,,,,,,,,,,,,,
null,,confidence_buffer,259394,confidence_buffer,,null,,,,,,,,,,,,,,,,,,
1192.5999999977648,,memorable_rating,260588,Briarfield,,50,,,2,,,,,,,,,,,,,,,
null,,confidence_buffer,260690,confidence_buffer,,null,,,,,,,,,,,,,,,,,,
null,,thebreak,261193,break,,null,,,,,,,,,,,,,,,,,,
2754.5,,familiar_rating,263949,Ironwood Heights,,51,Ironwood Heights,Fictional,3,,,,,,,,,,,,,,,
null,,confidence_buffer,264052,confidence_buffer,,null,,,,,,,,,,,,,,,,,,
6093,,unique_rating,270147,Ironwood Heights,,52,,,4,,,,,,,,,,,,,,,
null,,confidence_buffer,270250,confidence_buffer,,null,,,,,,,,,,,,,,,,,,
1868.800000000745,,memorable_rating,272120,Ironwood Heights,,53,,,5,,,,,,,,,,,,,,,
null,,confidence_buffer,272223,confidence_buffer,,null,,,,,,,,,,,,,,,,,,
null,,thebreak,272726,break,,null,,,,,,,,,,,,,,,,,,
2529.5,,familiar_rating,275257,Coeur d'Alene,,49,Coeur d'Alene,US,1,,,,,,,,,,,,,,,
null,,confidence_buffer,275361,confidence_buffer,,null,,,,,,,,,,,,,,,,,,
2856,,unique_rating,278218,Coeur d'Alene,,53,,,5,,,,,,,,,,,,,,,
null,,confidence_buffer,278321,confidence_buffer,,null,,,,,,,,,,,,,,,,,,
3735.10000000149,,memorable_rating,282057,Coeur d'Alene,,51,,,3,,,,,,,,,,,,,,,
null,,confidence_buffer,282161,confidence_buffer,,null,,,,,,,,,,,,,,,,,,
null,,thebreak,282664,break,,null,,,,,,,,,,,,,,,,,,
3245.199999999255,,familiar_rating,285911,Gatlinburg,,49,Gatlinburg,US,1,,,,,,,,,,,,,,,
null,,confidence_buffer,286014,confidence_buffer,,null,,,,,,,,,,,,,,,,,,
1386.4000000022352,,unique_rating,287402,Gatlinburg,,50,,,2,,,,,,,,,,,,,,,
null,,confidence_buffer,287505,confidence_buffer,,null,,,,,,,,,,,,,,,,,,
4244.599999997765,,memorable_rating,291751,Gatlinburg,,50,,,2,,,,,,,,,,,,,,,
null,,confidence_buffer,291853,confidence_buffer,,null,,,,,,,,,,,,,,,,,,
null,,thebreak,292356,break,,null,,,,,,,,,,,,,,,,,,
2417.39999999851,,familiar_rating,294775,Montelake,,49,Montelake,Fictional,1,,,,,,,,,,,,,,,
null,,confidence_buffer,294878,confidence_buffer,,null,,,,,,,,,,,,,,,,,,
2904.5,,unique_rating,297786,Montelake,,51,,,3,,,,,,,,,,,,,,,
null,,confidence_buffer,297889,confidence_buffer,,null,,,,,,,,,,,,,,,,,,
1974.6000000014901,,memorable_rating,299866,Montelake,,50,,,2,,,,,,,,,,,,,,,
null,,confidence_buffer,299969,confidence_buffer,,null,,,,,,,,,,,,,,,,,,
null,,thebreak,300472,break,,null,,,,,,,,,,,,,,,,,,
1757.300000000745,,familiar_rating,302232,Rosehollow,,49,Rosehollow,Fictional,1,,,,,,,,,,,,,,,
null,,confidence_buffer,302335,confidence_buffer,,null,,,,,,,,,,,,,,,,,,
5543.800000000745,,unique_rating,307882,Rosehollow,,52,,,4,,,,,,,,,,,,,,,
null,,confidence_buffer,307985,confidence_buffer,,null,,,,,,,,,,,,,,,,,,
2638.099999997765,,memorable_rating,310626,Rosehollow,,52,,,4,,,,,,,,,,,,,,,
null,,confidence_buffer,310729,confidence_buffer,,null,,,,,,,,,,,,,,,,,,
null,,thebreak,311230,break,,null,,,,,,,,,,,,,,,,,,
2063.60000000149,,familiar_rating,313296,Albuquerque,,53,Albuquerque,US,5,,,,,,,,,,,,,,,
null,,confidence_buffer,313399,confidence_buffer,,null,,,,,,,,,,,,,,,,,,
2927.699999999255,,unique_rating,316329,Albuquerque,,52,,,4,,,,,,,,,,,,,,,
null,,confidence_buffer,316432,confidence_buffer,,null,,,,,,,,,,,,,,,,,,
870,,memorable_rating,317303,Albuquerque,,53,,,5,,,,,,,,,,,,,,,
null,,confidence_buffer,317405,confidence_buffer,,null,,,,,,,,,,,,,,,,,,
null,,thebreak,317908,break,,null,,,,,,,,,,,,,,,,,,
1729.7999999970198,,familiar_rating,319640,Okoboji,,49,Okoboji,US,1,,,,,,,,,,,,,,,
null,,confidence_buffer,319743,confidence_buffer,,null,,,,,,,,,,,,,,,,,,
2656.599999997765,,unique_rating,322402,Okoboji,,49,,,1,,,,,,,,,,,,,,,
null,,confidence_buffer,322505,confidence_buffer,,null,,,,,,,,,,,,,,,,,,
2688.89999999851,,memorable_rating,325196,Okoboji,,52,,,4,,,,,,,,,,,,,,,
null,,confidence_buffer,325299,confidence_buffer,,null,,,,,,,,,,,,,,,,,,
null,,thebreak,325802,break,,null,,,,,,,,,,,,,,,,,,
3024.099999997765,,intro_0,328827,instruct,,32,,,,,,,,,,,,,,,,,,
3016.699999999255,,intro_1,331845,instruct,,32,,,,,,,,,,,,,,,,,,
2053.300000000745,,intro_2,333900,instruct,,32,,,,,,,,,,,,,,,,,,
null,,instruct_dir_4,335402,instruct,,null,,,,,,,,,,,,,,,,,,
4669.300000000745,,realistic_rating,340073,Racine,,51,Racine,US,3,,,,,,,,,,,,,,,
null,,confidence_buffer,340176,confidence_buffer,,null,,,,,,,,,,,,,,,,,,
1824.5,,pt2_unique_rating,342002,Racine,,50,,,2,,,,,,,,,,,,,,,
null,,confidence_buffer,342105,confidence_buffer,,null,,,,,,,,,,,,,,,,,,
2532.7999999970198,,pt2_memorable_rating,344639,Racine,,50,,,2,,,,,,,,,,,,,,,
null,,confidence_buffer,344741,confidence_buffer,,null,,,,,,,,,,,,,,,,,,
3648.5,,recognition_phase,348391,Racine,,51,,,,,,new,1,1,,,,,,,,,,
null,,confidence_buffer,348494,confidence_buffer,,null,,,,,,,,,,,,,,,,,,
null,,thebreak,348997,break,,null,,,,,,,,,,,,,,,,,,
3787.199999999255,,realistic_rating,352786,Briarfield,,53,Briarfield,Fictional,5,,,,,,,,,,,,,,,
null,,confidence_buffer,352888,confidence_buffer,,null,,,,,,,,,,,,,,,,,,
2150.300000000745,,pt2_unique_rating,355039,Briarfield,,51,,,3,,,,,,,,,,,,,,,
null,,confidence_buffer,355142,confidence_buffer,,null,,,,,,,,,,,,,,,,,,
7904.599999997765,,pt2_memorable_rating,363048,Briarfield,,52,,,4,,,,,,,,,,,,,,,
null,,confidence_buffer,363150,confidence_buffer,,null,,,,,,,,,,,,,,,,,,
2336.7000000029802,,recognition_phase,365488,Briarfield,,52,,,,,,new,0,0.5,,,,,,,,,,
null,,confidence_buffer,365591,confidence_buffer,,null,,,,,,,,,,,,,,,,,,
null,,thebreak,366093,break,,null,,,,,,,,,,,,,,,,,,
3618.5,,realistic_rating,369713,Hilo,,49,Hilo,US,1,,,,,,,,,,,,,,,
null,,confidence_buffer,369816,confidence_buffer,,null,,,,,,,,,,,,,,,,,,
3464.60000000149,,pt2_unique_rating,373282,Hilo,,50,,,2,,,,,,,,,,,,,,,
null,,confidence_buffer,373385,confidence_buffer,,null,,,,,,,,,,,,,,,,,,
2579.5,,pt2_memorable_rating,375966,Hilo,,53,,,5,,,,,,,,,,,,,,,
null,,confidence_buffer,376069,confidence_buffer,,null,,,,,,,,,,,,,,,,,,
2026.6000000014901,,recognition_phase,378097,Hilo,,49,,,,,,old,1,0.6666666666666666,,,,,,,,,,
null,,confidence_buffer,378199,confidence_buffer,,null,,,,,,,,,,,,,,,,,,
null,,thebreak,378702,break,,null,,,,,,,,,,,,,,,,,,
5273.29999999702,,realistic_rating,383977,Gardnerville,,51,Gardnerville,US,3,,,,,,,,,,,,,,,
null,,confidence_buffer,384080,confidence_buffer,,null,,,,,,,,,,,,,,,,,,
5033.89999999851,,pt2_unique_rating,389116,Gardnerville,,52,,,4,,,,,,,,,,,,,,,
null,,confidence_buffer,389219,confidence_buffer,,null,,,,,,,,,,,,,,,,,,
1513.5,,pt2_memorable_rating,390734,Gardnerville,,52,,,4,,,,,,,,,,,,,,,
null,,confidence_buffer,390836,confidence_buffer,,null,,,,,,,,,,,,,,,,,,
2421,,recognition_phase,393259,Gardnerville,,49,,,,,,old,1,0.75,,,,,,,,,,
null,,confidence_buffer,393362,confidence_buffer,,null,,,,,,,,,,,,,,,,,,
null,,thebreak,393864,break,,null,,,,,,,,,,,,,,,,,,
5970.699999999255,,realistic_rating,399836,East Ladera,,51,East Ladera,Fictional,3,,,,,,,,,,,,,,,
null,,confidence_buffer,399939,confidence_buffer,,null,,,,,,,,,,,,,,,,,,
2438.400000002235,,pt2_unique_rating,402379,East Ladera,,52,,,4,,,,,,,,,,,,,,,
null,,confidence_buffer,402482,confidence_buffer,,null,,,,,,,,,,,,,,,,,,
1802.800000000745,,pt2_memorable_rating,404287,East Ladera,,52,,,4,,,,,,,,,,,,,,,
null,,confidence_buffer,404389,confidence_buffer,,null,,,,,,,,,,,,,,,,,,
4363,,recognition_phase,408754,East Ladera,,50,,,,,,old,1,0.8,,,,,,,,,,
null,,confidence_buffer,408857,confidence_buffer,,null,,,,,,,,,,,,,,,,,,
null,,thebreak,409360,break,,null,,,,,,,,,,,,,,,,,,
3276.900000002235,,realistic_rating,412638,Ashford Hills,,53,Ashford Hills,Fictional,5,,,,,,,,,,,,,,,
null,,confidence_buffer,412742,confidence_buffer,,null,,,,,,,,,,,,,,,,,,
3578.7000000029802,,pt2_unique_rating,416322,Ashford Hills,,50,,,2,,,,,,,,,,,,,,,
null,,confidence_buffer,416425,confidence_buffer,,null,,,,,,,,,,,,,,,,,,
2580.900000002235,,pt2_memorable_rating,419007,Ashford Hills,,51,,,3,,,,,,,,,,,,,,,
null,,confidence_buffer,419110,confidence_buffer,,null,,,,,,,,,,,,,,,,,,
2434.599999997765,,recognition_phase,421547,Ashford Hills,,50,,,,,,old,1,0.8333333333333334,,,,,,,,,,
null,,confidence_buffer,421650,confidence_buffer,,null,,,,,,,,,,,,,,,,,,
null,,thebreak,422153,break,,null,,,,,,,,,,,,,,,,,,
4029,,realistic_rating,426184,Bar Harbor,,53,Bar Harbor,US,5,,,,,,,,,,,,,,,
null,,confidence_buffer,426286,confidence_buffer,,null,,,,,,,,,,,,,,,,,,
4976.5,,pt2_unique_rating,431264,Bar Harbor,,50,,,2,,,,,,,,,,,,,,,
null,,confidence_buffer,431368,confidence_buffer,,null,,,,,,,,,,,,,,,,,,
2449,,pt2_memorable_rating,433818,Bar Harbor,,53,,,5,,,,,,,,,,,,,,,
null,,confidence_buffer,433921,confidence_buffer,,null,,,,,,,,,,,,,,,,,,
1081.5999999977648,,recognition_phase,435005,Bar Harbor,,49,,,,,,old,1,0.8571428571428571,,,,,,,,,,
null,,confidence_buffer,435107,confidence_buffer,,null,,,,,,,,,,,,,,,,,,
null,,thebreak,435609,break,,null,,,,,,,,,,,,,,,,,,
6829.89999999851,,realistic_rating,442441,Alliance,,50,Alliance,US,2,,,,,,,,,,,,,,,
null,,confidence_buffer,442544,confidence_buffer,,null,,,,,,,,,,,,,,,,,,
3599.60000000149,,pt2_unique_rating,446145,Alliance,,50,,,2,,,,,,,,,,,,,,,
null,,confidence_buffer,446248,confidence_buffer,,null,,,,,,,,,,,,,,,,,,
1455,,pt2_memorable_rating,447705,Alliance,,50,,,2,,,,,,,,,,,,,,,
null,,confidence_buffer,447807,confidence_buffer,,null,,,,,,,,,,,,,,,,,,
3029.800000000745,,recognition_phase,450839,Alliance,,52,,,,,,new,1,0.875,,,,,,,,,,
null,,confidence_buffer,450942,confidence_buffer,,null,,,,,,,,,,,,,,,,,,
null,,thebreak,451445,break,,null,,,,,,,,,,,,,,,,,,
3406.300000000745,,realistic_rating,454853,Summershade,,52,Summershade,Fictional,4,,,,,,,,,,,,,,,
null,,confidence_buffer,454956,confidence_buffer,,null,,,,,,,,,,,,,,,,,,
36.70000000298023,,pt2_unique_rating,454994,Summershade,,52,,,4,,,,,,,,,,,,,,,
null,,confidence_buffer,455096,confidence_buffer,,null,,,,,,,,,,,,,,,,,,
5137.5,,pt2_memorable_rating,460236,Summershade,,52,,,4,,,,,,,,,,,,,,,
null,,confidence_buffer,460339,confidence_buffer,,null,,,,,,,,,,,,,,,,,,
3732.10000000149,,probe_rating,464072,probe_rating,,51,,,,3,1,,,,,,,,,,,,,
null,,confidence_buffer,464175,confidence_buffer,,null,,,,,,,,,,,,,,,,,,
2790.7000000029802,,recognition_phase,466968,Summershade,,49,,,,,,old,1,0.8888888888888888,,,,,,,,,,
null,,confidence_buffer,467070,confidence_buffer,,null,,,,,,,,,,,,,,,,,,
null,,thebreak,467574,break,,null,,,,,,,,,,,,,,,,,,
5603.60000000149,,realistic_rating,473179,Ironwood Heights,,53,Ironwood Heights,Fictional,5,,,,,,,,,,,,,,,
null,,confidence_buffer,473281,confidence_buffer,,null,,,,,,,,,,,,,,,,,,
3322.10000000149,,pt2_unique_rating,476605,Ironwood Heights,,51,,,3,,,,,,,,,,,,,,,
null,,confidence_buffer,476707,confidence_buffer,,null,,,,,,,,,,,,,,,,,,
2376.5,,pt2_memorable_rating,479085,Ironwood Heights,,52,,,4,,,,,,,,,,,,,,,
null,,confidence_buffer,479188,confidence_buffer,,null,,,,,,,,,,,,,,,,,,
2199.900000002235,,recognition_phase,481389,Ironwood Heights,,49,,,,,,old,1,0.9,,,,,,,,,,
null,,confidence_buffer,481493,confidence_buffer,,null,,,,,,,,,,,,,,,,,,
null,,thebreak,481996,break,,null,,,,,,,,,,,,,,,,,,
2421,,realistic_rating,484418,Maravilla Springs,,51,Maravilla Springs,Fictional,3,,,,,,,,,,,,,,,
null,,confidence_buffer,484522,confidence_buffer,,null,,,,,,,,,,,,,,,,,,
2237.699999999255,,pt2_unique_rating,486761,Maravilla Springs,,52,,,4,,,,,,,,,,,,,,,
null,,confidence_buffer,486864,confidence_buffer,,null,,,,,,,,,,,,,,,,,,
1147.699999999255,,pt2_memorable_rating,488013,Maravilla Springs,,52,,,4,,,,,,,,,,,,,,,
null,,confidence_buffer,488116,confidence_buffer,,null,,,,,,,,,,,,,,,,,,
752.9000000022352,,recognition_phase,488870,Maravilla Springs,,49,,,,,,old,1,0.9090909090909091,,,,,,,,,,
null,,confidence_buffer,488973,confidence_buffer,,null,,,,,,,,,,,,,,,,,,
null,,thebreak,489477,break,,null,,,,,,,,,,,,,,,,,,
3738,,realistic_rating,493216,Carmel,,50,Carmel,US,2,,,,,,,,,,,,,,,
null,,confidence_buffer,493320,confidence_buffer,,null,,,,,,,,,,,,,,,,,,
4602.800000000745,,pt2_unique_rating,497924,Carmel,,51,,,3,,,,,,,,,,,,,,,
null,,confidence_buffer,498027,confidence_buffer,,null,,,,,,,,,,,,,,,,,,
2339.300000000745,,pt2_memorable_rating,500367,Carmel,,50,,,2,,,,,,,,,,,,,,,
null,,confidence_buffer,500471,confidence_buffer,,null,,,,,,,,,,,,,,,,,,
1977.6000000014901,,recognition_phase,502450,Carmel,,52,,,,,,new,1,0.9166666666666666,,,,,,,,,,
null,,confidence_buffer,502554,confidence_buffer,,null,,,,,,,,,,,,,,,,,,
null,,thebreak,503056,break,,null,,,,,,,,,,,,,,,,,,
3072.099999997765,,realistic_rating,506130,Livingston,,53,Livingston,US,5,,,,,,,,,,,,,,,
null,,confidence_buffer,506232,confidence_buffer,,null,,,,,,,,,,,,,,,,,,
4498.800000000745,,pt2_unique_rating,510731,Livingston,,50,,,2,,,,,,,,,,,,,,,
null,,confidence_buffer,510834,confidence_buffer,,null,,,,,,,,,,,,,,,,,,
1874.8999999985099,,pt2_memorable_rating,512710,Livingston,,50,,,2,,,,,,,,,,,,,,,
null,,confidence_buffer,512813,confidence_buffer,,null,,,,,,,,,,,,,,,,,,
2328.5,,probe_rating,515143,probe_rating,,50,,,,2,1,,,,,,,,,,,,,
null,,confidence_buffer,515246,confidence_buffer,,null,,,,,,,,,,,,,,,,,,
3091.89999999851,,recognition_phase,518340,Livingston,,51,,,,,,new,0,0.8461538461538461,,,,,,,,,,
null,,confidence_buffer,518443,confidence_buffer,,null,,,,,,,,,,,,,,,,,,
null,,thebreak,518946,break,,null,,,,,,,,,,,,,,,,,,
3568.39999999851,,realistic_rating,522517,Solara Glen,,50,Solara Glen,Fictional,2,,,,,,,,,,,,,,,
null,,confidence_buffer,522620,confidence_buffer,,null,,,,,,,,,,,,,,,,,,
2739.39999999851,,pt2_unique_rating,525361,Solara Glen,,53,,,5,,,,,,,,,,,,,,,
null,,confidence_buffer,525464,confidence_buffer,,null,,,,,,,,,,,,,,,,,,
2304.800000000745,,pt2_memorable_rating,527771,Solara Glen,,52,,,4,,,,,,,,,,,,,,,
null,,confidence_buffer,527874,confidence_buffer,,null,,,,,,,,,,,,,,,,,,
2309.199999999255,,probe_rating,530184,probe_rating,,50,,,,2,1,,,,,,,,,,,,,
null,,confidence_buffer,530288,confidence_buffer,,null,,,,,,,,,,,,,,,,,,
6973.29999999702,,recognition_phase,537262,Solara Glen,,50,,,,,,old,1,0.8571428571428571,,,,,,,,,,
null,,confidence_buffer,537366,confidence_buffer,,null,,,,,,,,,,,,,,,,,,
null,,thebreak,537868,break,,null,,,,,,,,,,,,,,,,,,
3598.800000000745,,realistic_rating,541469,Redgrove,,52,Redgrove,Fictional,4,,,,,,,,,,,,,,,
null,,confidence_buffer,541571,confidence_buffer,,null,,,,,,,,,,,,,,,,,,
1639.5,,pt2_unique_rating,543213,Redgrove,,50,,,2,,,,,,,,,,,,,,,
null,,confidence_buffer,543316,confidence_buffer,,null,,,,,,,,,,,,,,,,,,
2201.199999999255,,pt2_memorable_rating,545519,Redgrove,,50,,,2,,,,,,,,,,,,,,,
null,,confidence_buffer,545621,confidence_buffer,,null,,,,,,,,,,,,,,,,,,
1855.699999999255,,recognition_phase,547478,Redgrove,,51,,,,,,new,1,0.8666666666666667,,,,,,,,,,
null,,confidence_buffer,547582,confidence_buffer,,null,,,,,,,,,,,,,,,,,,
null,,thebreak,548084,break,,null,,,,,,,,,,,,,,,,,,
2782.60000000149,,realistic_rating,550868,Hollendale,,51,Hollendale,Fictional,3,,,,,,,,,,,,,,,
null,,confidence_buffer,550971,confidence_buffer,,null,,,,,,,,,,,,,,,,,,
2043.199999999255,,pt2_unique_rating,553015,Hollendale,,52,,,4,,,,,,,,,,,,,,,
null,,confidence_buffer,553118,confidence_buffer,,null,,,,,,,,,,,,,,,,,,
1893.1000000014901,,pt2_memorable_rating,555013,Hollendale,,50,,,2,,,,,,,,,,,,,,,
null,,confidence_buffer,555116,confidence_buffer,,null,,,,,,,,,,,,,,,,,,
1679.300000000745,,recognition_phase,556797,Hollendale,,51,,,,,,new,1,0.875,,,,,,,,,,
null,,confidence_buffer,556900,confidence_buffer,,null,,,,,,,,,,,,,,,,,,
null,,thebreak,557401,break,,null,,,,,,,,,,,,,,,,,,
3472.599999997765,,realistic_rating,560876,Coralridge,,52,Coralridge,Fictional,4,,,,,,,,,,,,,,,
null,,confidence_buffer,560980,confidence_buffer,,null,,,,,,,,,,,,,,,,,,
1613.800000000745,,probe_rating,562595,probe_rating,,50,,,,2,1,,,,,,,,,,,,,
null,,confidence_buffer,562698,confidence_buffer,,null,,,,,,,,,,,,,,,,,,
1906,,pt2_unique_rating,564606,Coralridge,,51,,,3,,,,,,,,,,,,,,,
null,,confidence_buffer,564709,confidence_buffer,,null,,,,,,,,,,,,,,,,,,
4951.900000002235,,pt2_memorable_rating,569662,Coralridge,,50,,,2,,,,,,,,,,,,,,,
null,,confidence_buffer,569765,confidence_buffer,,null,,,,,,,,,,,,,,,,,,
2311.599999997765,,recognition_phase,572079,Coralridge,,49,,,,,,old,1,0.8823529411764706,,,,,,,,,,
null,,confidence_buffer,572181,confidence_buffer,,null,,,,,,,,,,,,,,,,,,
null,,thebreak,572684,break,,null,,,,,,,,,,,,,,,,,,
1785.8999999985099,,realistic_rating,574471,Meadowspire,,51,Meadowspire,Fictional,3,,,,,,,,,,,,,,,
null,,confidence_buffer,574575,confidence_buffer,,null,,,,,,,,,,,,,,,,,,
1888.300000000745,,pt2_unique_rating,576465,Meadowspire,,52,,,4,,,,,,,,,,,,,,,
null,,confidence_buffer,576568,confidence_buffer,,null,,,,,,,,,,,,,,,,,,
1159.7999999970198,,pt2_memorable_rating,577730,Meadowspire,,50,,,2,,,,,,,,,,,,,,,
null,,confidence_buffer,577833,confidence_buffer,,null,,,,,,,,,,,,,,,,,,
1920.6000000014901,,recognition_phase,579755,Meadowspire,,52,,,,,,new,1,0.8888888888888888,,,,,,,,,,
null,,confidence_buffer,579858,confidence_buffer,,null,,,,,,,,,,,,,,,,,,
null,,thebreak,580360,break,,null,,,,,,,,,,,,,,,,,,
2842.39999999851,,realistic_rating,583204,San Antonio,,52,San Antonio,US,4,,,,,,,,,,,,,,,
null,,confidence_buffer,583309,confidence_buffer,,null,,,,,,,,,,,,,,,,,,
3378.199999999255,,pt2_unique_rating,586689,San Antonio,,49,,,1,,,,,,,,,,,,,,,
null,,confidence_buffer,586791,confidence_buffer,,null,,,,,,,,,,,,,,,,,,
2203.900000002235,,pt2_memorable_rating,588996,San Antonio,,53,,,5,,,,,,,,,,,,,,,
null,,confidence_buffer,589099,confidence_buffer,,null,,,,,,,,,,,,,,,,,,
2449.199999999255,,recognition_phase,591550,San Antonio,,52,,,,,,new,1,0.8947368421052632,,,,,,,,,,
null,,confidence_buffer,591653,confidence_buffer,,null,,,,,,,,,,,,,,,,,,
null,,thebreak,592155,break,,null,,,,,,,,,,,,,,,,,,
2426.699999999255,,realistic_rating,594584,New Hope,,51,New Hope,US,3,,,,,,,,,,,,,,,
null,,confidence_buffer,594687,confidence_buffer,,null,,,,,,,,,,,,,,,,,,
1670.199999999255,,pt2_unique_rating,596359,New Hope,,51,,,3,,,,,,,,,,,,,,,
null,,confidence_buffer,596464,confidence_buffer,,null,,,,,,,,,,,,,,,,,,
4255.79999999702,,pt2_memorable_rating,600721,New Hope,,52,,,4,,,,,,,,,,,,,,,
null,,confidence_buffer,600824,confidence_buffer,,null,,,,,,,,,,,,,,,,,,
1587.0999999977648,,recognition_phase,602412,New Hope,,49,,,,,,old,1,0.9,,,,,,,,,,
null,,confidence_buffer,602515,confidence_buffer,,null,,,,,,,,,,,,,,,,,,
null,,thebreak,603017,break,,null,,,,,,,,,,,,,,,,,,
1401.5999999977648,,realistic_rating,604420,Crestwood,,51,Crestwood,Fictional,3,,,,,,,,,,,,,,,
null,,confidence_buffer,604523,confidence_buffer,,null,,,,,,,,,,,,,,,,,,
1639.699999999255,,pt2_unique_rating,606164,Crestwood,,52,,,4,,,,,,,,,,,,,,,
null,,confidence_buffer,606267,confidence_buffer,,null,,,,,,,,,,,,,,,,,,
1299.7999999970198,,pt2_memorable_rating,607569,Crestwood,,51,,,3,,,,,,,,,,,,,,,
null,,confidence_buffer,607671,confidence_buffer,,null,,,,,,,,,,,,,,,,,,
3718.7999999970198,,recognition_phase,611392,Crestwood,,52,,,,,,new,1,0.9047619047619048,,,,,,,,,,
null,,confidence_buffer,611495,confidence_buffer,,null,,,,,,,,,,,,,,,,,,
null,,thebreak,611998,break,,null,,,,,,,,,,,,,,,,,,
2593.39999999851,,realistic_rating,614593,Abilene,,51,Abilene,US,3,,,,,,,,,,,,,,,
null,,confidence_buffer,614696,confidence_buffer,,null,,,,,,,,,,,,,,,,,,
607.5,,pt2_unique_rating,615305,Abilene,,52,,,4,,,,,,,,,,,,,,,
null,,confidence_buffer,615408,confidence_buffer,,null,,,,,,,,,,,,,,,,,,
2229.199999999255,,pt2_memorable_rating,617639,Abilene,,51,,,3,,,,,,,,,,,,,,,
null,,confidence_buffer,617742,confidence_buffer,,null,,,,,,,,,,,,,,,,,,
2000.5,,probe_rating,619744,probe_rating,,53,,,,5,1,,,,,,,,,,,,,
null,,confidence_buffer,619846,confidence_buffer,,null,,,,,,,,,,,,,,,,,,
7252.800000000745,,recognition_phase,627101,Abilene,,51,,,,,,new,1,0.9090909090909091,,,,,,,,,,
null,,confidence_buffer,627204,confidence_buffer,,null,,,,,,,,,,,,,,,,,,
null,,thebreak,627705,break,,null,,,,,,,,,,,,,,,,,,
3435.39999999851,,realistic_rating,631141,Cornwall,,53,Cornwall,US,5,,,,,,,,,,,,,,,
null,,confidence_buffer,631244,confidence_buffer,,null,,,,,,,,,,,,,,,,,,
3016.400000002235,,pt2_unique_rating,634262,Cornwall,,50,,,2,,,,,,,,,,,,,,,
null,,confidence_buffer,634365,confidence_buffer,,null,,,,,,,,,,,,,,,,,,
2024.3999999985099,,pt2_memorable_rating,636391,Cornwall,,50,,,2,,,,,,,,,,,,,,,
null,,confidence_buffer,636494,confidence_buffer,,null,,,,,,,,,,,,,,,,,,
2421.89999999851,,recognition_phase,638918,Cornwall,,50,,,,,,old,1,0.9130434782608695,,,,,,,,,,
null,,confidence_buffer,639020,confidence_buffer,,null,,,,,,,,,,,,,,,,,,
null,,thebreak,639523,break,,null,,,,,,,,,,,,,,,,,,
2019.800000000745,,realistic_rating,641545,Cleveland,,53,Cleveland,US,5,,,,,,,,,,,,,,,
null,,confidence_buffer,641648,confidence_buffer,,null,,,,,,,,,,,,,,,,,,
1421.8999999985099,,probe_rating,643072,probe_rating,,49,,,,1,1,,,,,,,,,,,,,
null,,confidence_buffer,643175,confidence_buffer,,null,,,,,,,,,,,,,,,,,,
2095.5,,pt2_unique_rating,645271,Cleveland,,50,,,2,,,,,,,,,,,,,,,
null,,confidence_buffer,645374,confidence_buffer,,null,,,,,,,,,,,,,,,,,,
1296.1000000014901,,pt2_memorable_rating,646671,Cleveland,,53,,,5,,,,,,,,,,,,,,,
null,,confidence_buffer,646774,confidence_buffer,,null,,,,,,,,,,,,,,,,,,
1773.1000000014901,,recognition_phase,648549,Cleveland,,52,,,,,,new,1,0.9166666666666666,,,,,,,,,,
null,,confidence_buffer,648652,confidence_buffer,,null,,,,,,,,,,,,,,,,,,
null,,thebreak,649155,break,,null,,,,,,,,,,,,,,,,,,
4505.300000000745,,realistic_rating,653662,Montelake,,51,Montelake,Fictional,3,,,,,,,,,,,,,,,
null,,confidence_buffer,653766,confidence_buffer,,null,,,,,,,,,,,,,,,,,,
2653.599999997765,,pt2_unique_rating,656420,Montelake,,50,,,2,,,,,,,,,,,,,,,
null,,confidence_buffer,656523,confidence_buffer,,null,,,,,,,,,,,,,,,,,,
2200.699999999255,,pt2_memorable_rating,658726,Montelake,,51,,,3,,,,,,,,,,,,,,,
null,,confidence_buffer,658828,confidence_buffer,,null,,,,,,,,,,,,,,,,,,
1944.3999999985099,,recognition_phase,660774,Montelake,,49,,,,,,old,1,0.92,,,,,,,,,,
null,,confidence_buffer,660876,confidence_buffer,,null,,,,,,,,,,,,,,,,,,
null,,thebreak,661378,break,,null,,,,,,,,,,,,,,,,,,
3393,,realistic_rating,664773,Elmsbury,,52,Elmsbury,Fictional,4,,,,,,,,,,,,,,,
null,,confidence_buffer,664876,confidence_buffer,,null,,,,,,,,,,,,,,,,,,
2559,,pt2_unique_rating,667437,Elmsbury,,50,,,2,,,,,,,,,,,,,,,
null,,confidence_buffer,667540,confidence_buffer,,null,,,,,,,,,,,,,,,,,,
1842.8999999985099,,pt2_memorable_rating,669384,Elmsbury,,51,,,3,,,,,,,,,,,,,,,
null,,confidence_buffer,669487,confidence_buffer,,null,,,,,,,,,,,,,,,,,,
1966.9000000022352,,recognition_phase,671455,Elmsbury,,51,,,,,,new,1,0.9230769230769231,,,,,,,,,,
null,,confidence_buffer,671558,confidence_buffer,,null,,,,,,,,,,,,,,,,,,
null,,thebreak,672060,break,,null,,,,,,,,,,,,,,,,,,
3657.900000002235,,realistic_rating,675720,Assateague Island,,50,Assateague Island,US,2,,,,,,,,,,,,,,,
null,,confidence_buffer,675822,confidence_buffer,,null,,,,,,,,,,,,,,,,,,
867.6999999992549,,pt2_unique_rating,676691,Assateague Island,,51,,,3,,,,,,,,,,,,,,,
null,,confidence_buffer,676795,confidence_buffer,,null,,,,,,,,,,,,,,,,,,
4383.199999999255,,pt2_memorable_rating,681180,Assateague Island,,52,,,4,,,,,,,,,,,,,,,
null,,confidence_buffer,681282,confidence_buffer,,null,,,,,,,,,,,,,,,,,,
2929.199999999255,,recognition_phase,684212,Assateague Island,,52,,,,,,new,0,0.8888888888888888,,,,,,,,,,
null,,confidence_buffer,684315,confidence_buffer,,null,,,,,,,,,,,,,,,,,,
null,,thebreak,684818,break,,null,,,,,,,,,,,,,,,,,,
2614.2000000029802,,realistic_rating,687434,Riverlyn,,50,Riverlyn,Fictional,2,,,,,,,,,,,,,,,
null,,confidence_buffer,687537,confidence_buffer,,null,,,,,,,,,,,,,,,,,,
2550.699999999255,,pt2_unique_rating,690089,Riverlyn,,52,,,4,,,,,,,,,,,,,,,
null,,confidence_buffer,690192,confidence_buffer,,null,,,,,,,,,,,,,,,,,,
1929.1000000014901,,pt2_memorable_rating,692123,Riverlyn,,50,,,2,,,,,,,,,,,,,,,
null,,confidence_buffer,692226,confidence_buffer,,null,,,,,,,,,,,,,,,,,,
2175.599999997765,,recognition_phase,694403,Riverlyn,,52,,,,,,new,1,0.8928571428571429,,,,,,,,,,
null,,confidence_buffer,694506,confidence_buffer,,null,,,,,,,,,,,,,,,,,,
null,,thebreak,695009,break,,null,,,,,,,,,,,,,,,,,,
1962.800000000745,,realistic_rating,696973,Sammamish,,51,Sammamish,US,3,,,,,,,,,,,,,,,
null,,confidence_buffer,697077,confidence_buffer,,null,,,,,,,,,,,,,,,,,,
4639.800000000745,,pt2_unique_rating,701718,Sammamish,,51,,,3,,,,,,,,,,,,,,,
null,,confidence_buffer,701821,confidence_buffer,,null,,,,,,,,,,,,,,,,,,
2621.7000000029802,,pt2_memorable_rating,704444,Sammamish,,50,,,2,,,,,,,,,,,,,,,
null,,confidence_buffer,704547,confidence_buffer,,null,,,,,,,,,,,,,,,,,,
1130.199999999255,,recognition_phase,705679,Sammamish,,49,,,,,,old,1,0.896551724137931,,,,,,,,,,
null,,confidence_buffer,705782,confidence_buffer,,null,,,,,,,,,,,,,,,,,,
null,,thebreak,706285,break,,null,,,,,,,,,,,,,,,,,,
3083.300000000745,,realistic_rating,709370,Cody,,51,Cody,US,3,,,,,,,,,,,,,,,
null,,confidence_buffer,709474,confidence_buffer,,null,,,,,,,,,,,,,,,,,,
2121.2999999970198,,pt2_unique_rating,711596,Cody,,49,,,1,,,,,,,,,,,,,,,
null,,confidence_buffer,711699,confidence_buffer,,null,,,,,,,,,,,,,,,,,,
2972,,pt2_memorable_rating,714672,Cody,,50,,,2,,,,,,,,,,,,,,,
null,,confidence_buffer,714776,confidence_buffer,,null,,,,,,,,,,,,,,,,,,
2494.699999999255,,recognition_phase,717272,Cody,,52,,,,,,new,1,0.9,,,,,,,,,,
null,,confidence_buffer,717375,confidence_buffer,,null,,,,,,,,,,,,,,,,,,
null,,thebreak,717879,break,,null,,,,,,,,,,,,,,,,,,
2543.39999999851,,realistic_rating,720424,Granton Ridge,,51,Granton Ridge,Fictional,3,,,,,,,,,,,,,,,
null,,confidence_buffer,720526,confidence_buffer,,null,,,,,,,,,,,,,,,,,,
4329.099999997765,,pt2_unique_rating,724858,Granton Ridge,,51,,,3,,,,,,,,,,,,,,,
null,,confidence_buffer,724961,confidence_buffer,,null,,,,,,,,,,,,,,,,,,
1399.6000000014901,,pt2_memorable_rating,726362,Granton Ridge,,51,,,3,,,,,,,,,,,,,,,
null,,confidence_buffer,726465,confidence_buffer,,null,,,,,,,,,,,,,,,,,,
1888.199999999255,,recognition_phase,728355,Granton Ridge,,50,,,,,,old,1,0.9032258064516129,,,,,,,,,,
null,,confidence_buffer,728458,confidence_buffer,,null,,,,,,,,,,,,,,,,,,
null,,thebreak,728960,break,,null,,,,,,,,,,,,,,,,,,
3219.300000000745,,realistic_rating,732182,Gatlinburg,,52,Gatlinburg,US,4,,,,,,,,,,,,,,,
null,,confidence_buffer,732284,confidence_buffer,,null,,,,,,,,,,,,,,,,,,
2397.199999999255,,pt2_unique_rating,734683,Gatlinburg,,50,,,2,,,,,,,,,,,,,,,
null,,confidence_buffer,734786,confidence_buffer,,null,,,,,,,,,,,,,,,,,,
1214.3999999985099,,probe_rating,736001,probe_rating,,49,,,,1,1,,,,,,,,,,,,,
null,,confidence_buffer,736105,confidence_buffer,,null,,,,,,,,,,,,,,,,,,
4675.39999999851,,pt2_memorable_rating,740782,Gatlinburg,,52,,,4,,,,,,,,,,,,,,,
null,,confidence_buffer,740885,confidence_buffer,,null,,,,,,,,,,,,,,,,,,
3042,,recognition_phase,743928,Gatlinburg,,50,,,,,,old,1,0.90625,,,,,,,,,,
null,,confidence_buffer,744031,confidence_buffer,,null,,,,,,,,,,,,,,,,,,
null,,thebreak,744534,break,,null,,,,,,,,,,,,,,,,,,
2358.300000000745,,realistic_rating,746894,Willowford,,49,Willowford,Fictional,1,,,,,,,,,,,,,,,
null,,confidence_buffer,746997,confidence_buffer,,null,,,,,,,,,,,,,,,,,,
1797.8999999985099,,probe_rating,748797,probe_rating,,49,,,,1,1,,,,,,,,,,,,,
null,,confidence_buffer,748900,confidence_buffer,,null,,,,,,,,,,,,,,,,,,
2096.5,,pt2_unique_rating,750998,Willowford,,50,,,2,,,,,,,,,,,,,,,
null,,confidence_buffer,751101,confidence_buffer,,null,,,,,,,,,,,,,,,,,,
1241.699999999255,,pt2_memorable_rating,752344,Willowford,,50,,,2,,,,,,,,,,,,,,,
null,,confidence_buffer,752447,confidence_buffer,,null,,,,,,,,,,,,,,,,,,
1779.3999999985099,,recognition_phase,754228,Willowford,,49,,,,,,old,1,0.9090909090909091,,,,,,,,,,
null,,confidence_buffer,754331,confidence_buffer,,null,,,,,,,,,,,,,,,,,,
null,,thebreak,754833,break,,null,,,,,,,,,,,,,,,,,,
3098.300000000745,,realistic_rating,757933,Ravenport,,52,Ravenport,Fictional,4,,,,,,,,,,,,,,,
null,,confidence_buffer,758036,confidence_buffer,,null,,,,,,,,,,,,,,,,,,
2023.5999999977648,,pt2_unique_rating,760062,Ravenport,,51,,,3,,,,,,,,,,,,,,,
null,,confidence_buffer,760165,confidence_buffer,,null,,,,,,,,,,,,,,,,,,
1634.300000000745,,pt2_memorable_rating,761801,Ravenport,,50,,,2,,,,,,,,,,,,,,,
null,,confidence_buffer,761904,confidence_buffer,,null,,,,,,,,,,,,,,,,,,
2018.300000000745,,recognition_phase,763924,Ravenport,,52,,,,,,new,1,0.9117647058823529,,,,,,,,,,
null,,confidence_buffer,764026,confidence_buffer,,null,,,,,,,,,,,,,,,,,,
null,,thebreak,764529,break,,null,,,,,,,,,,,,,,,,,,
3917.099999997765,,realistic_rating,768448,New Verdan,,50,New Verdan,Fictional,2,,,,,,,,,,,,,,,
null,,confidence_buffer,768551,confidence_buffer,,null,,,,,,,,,,,,,,,,,,
2167.39999999851,,pt2_unique_rating,770720,New Verdan,,50,,,2,,,,,,,,,,,,,,,
null,,confidence_buffer,770822,confidence_buffer,,null,,,,,,,,,,,,,,,,,,
1361.199999999255,,pt2_memorable_rating,772184,New Verdan,,49,,,1,,,,,,,,,,,,,,,
null,,confidence_buffer,772288,confidence_buffer,,null,,,,,,,,,,,,,,,,,,
3315,,recognition_phase,775604,New Verdan,,52,,,,,,new,1,0.9142857142857143,,,,,,,,,,
null,,confidence_buffer,775707,confidence_buffer,,null,,,,,,,,,,,,,,,,,,
null,,thebreak,776210,break,,null,,,,,,,,,,,,,,,,,,
2249.300000000745,,realistic_rating,778461,Athens,,53,Athens,US,5,,,,,,,,,,,,,,,
null,,confidence_buffer,778564,confidence_buffer,,null,,,,,,,,,,,,,,,,,,
3599.199999999255,,pt2_unique_rating,782165,Athens,,49,,,1,,,,,,,,,,,,,,,
null,,confidence_buffer,782269,confidence_buffer,,null,,,,,,,,,,,,,,,,,,
2559.39999999851,,pt2_memorable_rating,784829,Athens,,53,,,5,,,,,,,,,,,,,,,
null,,confidence_buffer,784933,confidence_buffer,,null,,,,,,,,,,,,,,,,,,
3088.699999999255,,recognition_phase,788023,Athens,,52,,,,,,new,1,0.9166666666666666,,,,,,,,,,
null,,confidence_buffer,788126,confidence_buffer,,null,,,,,,,,,,,,,,,,,,
null,,thebreak,788628,break,,null,,,,,,,,,,,,,,,,,,
2678.599999997765,,realistic_rating,791308,Folly Beach,,50,Folly Beach,US,2,,,,,,,,,,,,,,,
null,,confidence_buffer,791411,confidence_buffer,,null,,,,,,,,,,,,,,,,,,
1295.300000000745,,pt2_unique_rating,792708,Folly Beach,,50,,,2,,,,,,,,,,,,,,,
null,,confidence_buffer,792812,confidence_buffer,,null,,,,,,,,,,,,,,,,,,
1606.800000000745,,pt2_memorable_rating,794420,Folly Beach,,51,,,3,,,,,,,,,,,,,,,
null,,confidence_buffer,794523,confidence_buffer,,null,,,,,,,,,,,,,,,,,,
958.6999999992549,,recognition_phase,795483,Folly Beach,,49,,,,,,old,1,0.918918918918919,,,,,,,,,,
null,,confidence_buffer,795586,confidence_buffer,,null,,,,,,,,,,,,,,,,,,
null,,thebreak,796090,break,,null,,,,,,,,,,,,,,,,,,
2486.300000000745,,realistic_rating,798578,Natchez,,50,Natchez,US,2,,,,,,,,,,,,,,,
null,,confidence_buffer,798680,confidence_buffer,,null,,,,,,,,,,,,,,,,,,
1249.699999999255,,pt2_unique_rating,799932,Natchez,,51,,,3,,,,,,,,,,,,,,,
null,,confidence_buffer,800034,confidence_buffer,,null,,,,,,,,,,,,,,,,,,
1542,,pt2_memorable_rating,801578,Natchez,,49,,,1,,,,,,,,,,,,,,,
null,,confidence_buffer,801680,confidence_buffer,,null,,,,,,,,,,,,,,,,,,
3099.800000000745,,recognition_phase,804782,Natchez,,50,,,,,,old,0,0.8947368421052632,,,,,,,,,,
null,,confidence_buffer,804885,confidence_buffer,,null,,,,,,,,,,,,,,,,,,
null,,thebreak,805388,break,,null,,,,,,,,,,,,,,,,,,
2712,,realistic_rating,808102,Okoboji,,50,Okoboji,US,2,,,,,,,,,,,,,,,
null,,confidence_buffer,808205,confidence_buffer,,null,,,,,,,,,,,,,,,,,,
2148.599999997765,,pt2_unique_rating,810355,Okoboji,,53,,,5,,,,,,,,,,,,,,,
null,,confidence_buffer,810458,confidence_buffer,,null,,,,,,,,,,,,,,,,,,
1704.5999999977648,,pt2_memorable_rating,812164,Okoboji,,52,,,4,,,,,,,,,,,,,,,
null,,confidence_buffer,812266,confidence_buffer,,null,,,,,,,,,,,,,,,,,,
1755.199999999255,,probe_rating,814023,probe_rating,,52,,,,4,1,,,,,,,,,,,,,
null,,confidence_buffer,814127,confidence_buffer,,null,,,,,,,,,,,,,,,,,,
822.1999999992549,,recognition_phase,814951,Okoboji,,49,,,,,,old,1,0.8974358974358975,,,,,,,,,,
null,,confidence_buffer,815054,confidence_buffer,,null,,,,,,,,,,,,,,,,,,
null,,thebreak,815557,break,,null,,,,,,,,,,,,,,,,,,
2687.10000000149,,realistic_rating,818246,Yukon,,53,Yukon,US,5,,,,,,,,,,,,,,,
null,,confidence_buffer,818349,confidence_buffer,,null,,,,,,,,,,,,,,,,,,
1995.300000000745,,pt2_unique_rating,820346,Yukon,,50,,,2,,,,,,,,,,,,,,,
null,,confidence_buffer,820448,confidence_buffer,,null,,,,,,,,,,,,,,,,,,
2326.89999999851,,pt2_memorable_rating,822776,Yukon,,52,,,4,,,,,,,,,,,,,,,
null,,confidence_buffer,822879,confidence_buffer,,null,,,,,,,,,,,,,,,,,,
2069.699999999255,,recognition_phase,824950,Yukon,,52,,,,,,new,1,0.9,,,,,,,,,,
null,,confidence_buffer,825053,confidence_buffer,,null,,,,,,,,,,,,,,,,,,
null,,thebreak,825556,break,,null,,,,,,,,,,,,,,,,,,
3226.199999999255,,realistic_rating,828784,Delaware City,,53,Delaware City,US,5,,,,,,,,,,,,,,,
null,,confidence_buffer,828887,confidence_buffer,,null,,,,,,,,,,,,,,,,,,
2020.6000000014901,,pt2_unique_rating,830909,Delaware City,,50,,,2,,,,,,,,,,,,,,,
null,,confidence_buffer,831011,confidence_buffer,,null,,,,,,,,,,,,,,,,,,
1357.9000000022352,,pt2_memorable_rating,832371,Delaware City,,53,,,5,,,,,,,,,,,,,,,
null,,confidence_buffer,832473,confidence_buffer,,null,,,,,,,,,,,,,,,,,,
2611.7000000029802,,recognition_phase,835087,Delaware City,,52,,,,,,new,1,0.9024390243902439,,,,,,,,,,
null,,confidence_buffer,835190,confidence_buffer,,null,,,,,,,,,,,,,,,,,,
null,,thebreak,835692,break,,null,,,,,,,,,,,,,,,,,,
3629.599999997765,,realistic_rating,839323,Coeur d'Alene,,51,Coeur d'Alene,US,3,,,,,,,,,,,,,,,
null,,confidence_buffer,839426,confidence_buffer,,null,,,,,,,,,,,,,,,,,,
1942.3999999985099,,pt2_unique_rating,841370,Coeur d'Alene,,52,,,4,,,,,,,,,,,,,,,
null,,confidence_buffer,841474,confidence_buffer,,null,,,,,,,,,,,,,,,,,,
2254.5,,pt2_memorable_rating,843730,Coeur d'Alene,,51,,,3,,,,,,,,,,,,,,,
null,,confidence_buffer,843833,confidence_buffer,,null,,,,,,,,,,,,,,,,,,
870.6000000014901,,recognition_phase,844705,Coeur d'Alene,,49,,,,,,old,1,0.9047619047619048,,,,,,,,,,
null,,confidence_buffer,844807,confidence_buffer,,null,,,,,,,,,,,,,,,,,,
null,,thebreak,845310,break,,null,,,,,,,,,,,,,,,,,,
2628.199999999255,,realistic_rating,847940,Watkins Glen,,53,Watkins Glen,US,5,,,,,,,,,,,,,,,
null,,confidence_buffer,848042,confidence_buffer,,null,,,,,,,,,,,,,,,,,,
2039.5999999977648,,pt2_unique_rating,850083,Watkins Glen,,50,,,2,,,,,,,,,,,,,,,
null,,confidence_buffer,850186,confidence_buffer,,null,,,,,,,,,,,,,,,,,,
1679.0999999977648,,pt2_memorable_rating,851867,Watkins Glen,,53,,,5,,,,,,,,,,,,,,,
null,,confidence_buffer,851970,confidence_buffer,,null,,,,,,,,,,,,,,,,,,
2682,,recognition_phase,854654,Watkins Glen,,52,,,,,,new,1,0.9069767441860465,,,,,,,,,,
null,,confidence_buffer,854757,confidence_buffer,,null,,,,,,,,,,,,,,,,,,
null,,thebreak,855260,break,,null,,,,,,,,,,,,,,,,,,
1335.300000000745,,realistic_rating,856597,Leesburg,,50,Leesburg,US,2,,,,,,,,,,,,,,,
null,,confidence_buffer,856701,confidence_buffer,,null,,,,,,,,,,,,,,,,,,
2443.39999999851,,pt2_unique_rating,859146,Leesburg,,49,,,1,,,,,,,,,,,,,,,
null,,confidence_buffer,859249,confidence_buffer,,null,,,,,,,,,,,,,,,,,,
1390.5,,pt2_memorable_rating,860641,Leesburg,,49,,,1,,,,,,,,,,,,,,,
null,,confidence_buffer,860744,confidence_buffer,,null,,,,,,,,,,,,,,,,,,
3596.199999999255,,recognition_phase,864342,Leesburg,,51,,,,,,new,1,0.9090909090909091,,,,,,,,,,
null,,confidence_buffer,864443,confidence_buffer,,null,,,,,,,,,,,,,,,,,,
null,,thebreak,864947,break,,null,,,,,,,,,,,,,,,,,,
3335.300000000745,,realistic_rating,868283,Bayshore Haven,,51,Bayshore Haven,Fictional,3,,,,,,,,,,,,,,,
null,,confidence_buffer,868386,confidence_buffer,,null,,,,,,,,,,,,,,,,,,
1528.300000000745,,pt2_unique_rating,869915,Bayshore Haven,,50,,,2,,,,,,,,,,,,,,,
null,,confidence_buffer,870019,confidence_buffer,,null,,,,,,,,,,,,,,,,,,
1852,,pt2_memorable_rating,871872,Bayshore Haven,,49,,,1,,,,,,,,,,,,,,,
null,,confidence_buffer,871976,confidence_buffer,,null,,,,,,,,,,,,,,,,,,
1841.4000000022352,,recognition_phase,873819,Bayshore Haven,,51,,,,,,new,0,0.8888888888888888,,,,,,,,,,
null,,confidence_buffer,873922,confidence_buffer,,null,,,,,,,,,,,,,,,,,,
null,,thebreak,874424,break,,null,,,,,,,,,,,,,,,,,,
2221.199999999255,,realistic_rating,876647,Linden Trace,,49,Linden Trace,Fictional,1,,,,,,,,,,,,,,,
null,,confidence_buffer,876749,confidence_buffer,,null,,,,,,,,,,,,,,,,,,
2066.89999999851,,pt2_unique_rating,878817,Linden Trace,,50,,,2,,,,,,,,,,,,,,,
null,,confidence_buffer,878920,confidence_buffer,,null,,,,,,,,,,,,,,,,,,
876.5,,pt2_memorable_rating,879798,Linden Trace,,51,,,3,,,,,,,,,,,,,,,
null,,confidence_buffer,879901,confidence_buffer,,null,,,,,,,,,,,,,,,,,,
2215.5,,recognition_phase,882118,Linden Trace,,51,,,,,,new,1,0.8913043478260869,,,,,,,,,,
null,,confidence_buffer,882220,confidence_buffer,,null,,,,,,,,,,,,,,,,,,
null,,thebreak,882723,break,,null,,,,,,,,,,,,,,,,,,
4101.199999999255,,realistic_rating,886826,Albuquerque,,53,Albuquerque,US,5,,,,,,,,,,,,,,,
null,,confidence_buffer,886929,confidence_buffer,,null,,,,,,,,,,,,,,,,,,
2275.099999997765,,pt2_unique_rating,889206,Albuquerque,,50,,,2,,,,,,,,,,,,,,,
null,,confidence_buffer,889308,confidence_buffer,,null,,,,,,,,,,,,,,,,,,
3356.599999997765,,pt2_memorable_rating,892666,Albuquerque,,53,,,5,,,,,,,,,,,,,,,
null,,confidence_buffer,892769,confidence_buffer,,null,,,,,,,,,,,,,,,,,,
5633.400000002235,,recognition_phase,898404,Albuquerque,,49,,,,,,old,1,0.8936170212765957,,,,,,,,,,
null,,confidence_buffer,898508,confidence_buffer,,null,,,,,,,,,,,,,,,,,,
null,,thebreak,899011,break,,null,,,,,,,,,,,,,,,,,,
5363.5,,realistic_rating,904376,Custer,,51,Custer,US,3,,,,,,,,,,,,,,,
null,,confidence_buffer,904479,confidence_buffer,,null,,,,,,,,,,,,,,,,,,
2223.699999999255,,pt2_unique_rating,906705,Custer,,50,,,2,,,,,,,,,,,,,,,
null,,confidence_buffer,906808,confidence_buffer,,null,,,,,,,,,,,,,,,,,,
1423.5,,pt2_memorable_rating,908233,Custer,,51,,,3,,,,,,,,,,,,,,,
null,,confidence_buffer,908335,confidence_buffer,,null,,,,,,,,,,,,,,,,,,
2205.599999997765,,recognition_phase,910543,Custer,,51,,,,,,new,1,0.8958333333333334,,,,,,,,,,
null,,confidence_buffer,910645,confidence_buffer,,null,,,,,,,,,,,,,,,,,,
null,,thebreak,911147,break,,null,,,,,,,,,,,,,,,,,,
1203.5,,realistic_rating,912352,Westridge,,50,Westridge,Fictional,2,,,,,,,,,,,,,,,
null,,confidence_buffer,912456,confidence_buffer,,null,,,,,,,,,,,,,,,,,,
851.5,,pt2_unique_rating,913309,Westridge,,51,,,3,,,,,,,,,,,,,,,
null,,confidence_buffer,913412,confidence_buffer,,null,,,,,,,,,,,,,,,,,,
2613.800000000745,,pt2_memorable_rating,916028,Westridge,,49,,,1,,,,,,,,,,,,,,,
null,,confidence_buffer,916130,confidence_buffer,,null,,,,,,,,,,,,,,,,,,
3552.7999999970198,,recognition_phase,919684,Westridge,,52,,,,,,new,0,0.8775510204081632,,,,,,,,,,
null,,confidence_buffer,919788,confidence_buffer,,null,,,,,,,,,,,,,,,,,,
null,,thebreak,920290,break,,null,,,,,,,,,,,,,,,,,,
4206.699999999255,,realistic_rating,924499,Peoria,,52,Peoria,US,4,,,,,,,,,,,,,,,
null,,confidence_buffer,924602,confidence_buffer,,null,,,,,,,,,,,,,,,,,,
1457.300000000745,,pt2_unique_rating,926061,Peoria,,51,,,3,,,,,,,,,,,,,,,
null,,confidence_buffer,926164,confidence_buffer,,null,,,,,,,,,,,,,,,,,,
748.6000000014901,,pt2_memorable_rating,926914,Peoria,,52,,,4,,,,,,,,,,,,,,,
null,,confidence_buffer,927017,confidence_buffer,,null,,,,,,,,,,,,,,,,,,
2100.7999999970198,,recognition_phase,929119,Peoria,,51,,,,,,new,1,0.88,,,,,,,,,,
null,,confidence_buffer,929223,confidence_buffer,,null,,,,,,,,,,,,,,,,,,
null,,thebreak,929726,break,,null,,,,,,,,,,,,,,,,,,
2885.800000000745,,realistic_rating,932613,Newport,,53,Newport,US,5,,,,,,,,,,,,,,,
null,,confidence_buffer,932716,confidence_buffer,,null,,,,,,,,,,,,,,,,,,
2493.39999999851,,pt2_unique_rating,935211,Newport,,50,,,2,,,,,,,,,,,,,,,
null,,confidence_buffer,935314,confidence_buffer,,null,,,,,,,,,,,,,,,,,,
2256.400000002235,,pt2_memorable_rating,937571,Newport,,50,,,2,,,,,,,,,,,,,,,
null,,confidence_buffer,937675,confidence_buffer,,null,,,,,,,,,,,,,,,,,,
3887.60000000149,,recognition_phase,941564,Newport,,49,,,,,,old,1,0.8823529411764706,,,,,,,,,,
null,,confidence_buffer,941667,confidence_buffer,,null,,,,,,,,,,,,,,,,,,
null,,thebreak,942169,break,,null,,,,,,,,,,,,,,,,,,
1892.6000000014901,,realistic_rating,944064,Driftwood Bay,,51,Driftwood Bay,Fictional,3,,,,,,,,,,,,,,,
null,,confidence_buffer,944167,confidence_buffer,,null,,,,,,,,,,,,,,,,,,
3284,,pt2_unique_rating,947453,Driftwood Bay,,50,,,2,,,,,,,,,,,,,,,
null,,confidence_buffer,947556,confidence_buffer,,null,,,,,,,,,,,,,,,,,,
1808.5,,pt2_memorable_rating,949366,Driftwood Bay,,50,,,2,,,,,,,,,,,,,,,
null,,confidence_buffer,949469,confidence_buffer,,null,,,,,,,,,,,,,,,,,,
2611.199999999255,,recognition_phase,952082,Driftwood Bay,,52,,,,,,new,0,0.8653846153846154,,,,,,,,,,
null,,confidence_buffer,952185,confidence_buffer,,null,,,,,,,,,,,,,,,,,,
null,,thebreak,952689,break,,null,,,,,,,,,,,,,,,,,,
2704.300000000745,,realistic_rating,955395,Baymarsh,,50,Baymarsh,Fictional,2,,,,,,,,,,,,,,,
null,,confidence_buffer,955498,confidence_buffer,,null,,,,,,,,,,,,,,,,,,
928,,pt2_unique_rating,956428,Baymarsh,,49,,,1,,,,,,,,,,,,,,,
null,,confidence_buffer,956531,confidence_buffer,,null,,,,,,,,,,,,,,,,,,
1685.5,,pt2_memorable_rating,958219,Baymarsh,,49,,,1,,,,,,,,,,,,,,,
null,,confidence_buffer,958322,confidence_buffer,,null,,,,,,,,,,,,,,,,,,
2250.5,,recognition_phase,960574,Baymarsh,,51,,,,,,new,1,0.8679245283018868,,,,,,,,,,
null,,confidence_buffer,960676,confidence_buffer,,null,,,,,,,,,,,,,,,,,,
null,,thebreak,961178,break,,null,,,,,,,,,,,,,,,,,,
2039.800000000745,,realistic_rating,963219,Juniper Creek,,52,Juniper Creek,Fictional,4,,,,,,,,,,,,,,,
null,,confidence_buffer,963322,confidence_buffer,,null,,,,,,,,,,,,,,,,,,
1632.3999999985099,,pt2_unique_rating,964956,Juniper Creek,,50,,,2,,,,,,,,,,,,,,,
null,,confidence_buffer,965058,confidence_buffer,,null,,,,,,,,,,,,,,,,,,
1386.9000000022352,,pt2_memorable_rating,966446,Juniper Creek,,50,,,2,,,,,,,,,,,,,,,
null,,confidence_buffer,966547,confidence_buffer,,null,,,,,,,,,,,,,,,,,,
2217.10000000149,,recognition_phase,968765,Juniper Creek,,52,,,,,,new,1,0.8703703703703703,,,,,,,,,,
null,,confidence_buffer,968868,confidence_buffer,,null,,,,,,,,,,,,,,,,,,
null,,thebreak,969371,break,,null,,,,,,,,,,,,,,,,,,
1691.5999999977648,,realistic_rating,971064,Golden Trace,,50,Golden Trace,Fictional,2,,,,,,,,,,,,,,,
null,,confidence_buffer,971167,confidence_buffer,,null,,,,,,,,,,,,,,,,,,
2049.7000000029802,,probe_rating,973219,probe_rating,,49,,,,1,1,,,,,,,,,,,,,
null,,confidence_buffer,973322,confidence_buffer,,null,,,,,,,,,,,,,,,,,,
3192.800000000745,,pt2_unique_rating,976516,Golden Trace,,52,,,4,,,,,,,,,,,,,,,
null,,confidence_buffer,976619,confidence_buffer,,null,,,,,,,,,,,,,,,,,,
890.6000000014901,,pt2_memorable_rating,977511,Golden Trace,,51,,,3,,,,,,,,,,,,,,,
null,,confidence_buffer,977614,confidence_buffer,,null,,,,,,,,,,,,,,,,,,
2016.699999999255,,recognition_phase,979633,Golden Trace,,51,,,,,,new,1,0.8727272727272727,,,,,,,,,,
null,,confidence_buffer,979736,confidence_buffer,,null,,,,,,,,,,,,,,,,,,
null,,thebreak,980238,break,,null,,,,,,,,,,,,,,,,,,
2169.2000000029802,,realistic_rating,982409,Rosehollow,,52,Rosehollow,Fictional,4,,,,,,,,,,,,,,,
null,,confidence_buffer,982512,confidence_buffer,,null,,,,,,,,,,,,,,,,,,
1290.199999999255,,pt2_unique_rating,983803,Rosehollow,,50,,,2,,,,,,,,,,,,,,,
null,,confidence_buffer,983906,confidence_buffer,,null,,,,,,,,,,,,,,,,,,
1224.3999999985099,,pt2_memorable_rating,985132,Rosehollow,,51,,,3,,,,,,,,,,,,,,,
null,,confidence_buffer,985233,confidence_buffer,,null,,,,,,,,,,,,,,,,,,
1712.5999999977648,,recognition_phase,986947,Rosehollow,,49,,,,,,old,1,0.875,,,,,,,,,,
null,,confidence_buffer,987050,confidence_buffer,,null,,,,,,,,,,,,,,,,,,
null,,thebreak,987553,break,,null,,,,,,,,,,,,,,,,,,
1733.6000000014901,,realistic_rating,989288,Falconridge,,51,Falconridge,Fictional,3,,,,,,,,,,,,,,,
null,,confidence_buffer,989391,confidence_buffer,,null,,,,,,,,,,,,,,,,,,
2190.89999999851,,pt2_unique_rating,991584,Falconridge,,52,,,4,,,,,,,,,,,,,,,
null,,confidence_buffer,991687,confidence_buffer,,null,,,,,,,,,,,,,,,,,,
1393.199999999255,,pt2_memorable_rating,993081,Falconridge,,50,,,2,,,,,,,,,,,,,,,
null,,confidence_buffer,993184,confidence_buffer,,null,,,,,,,,,,,,,,,,,,
1844.8999999985099,,recognition_phase,995030,Falconridge,,51,,,,,,new,1,0.8771929824561403,,,,,,,,,,
null,,confidence_buffer,995133,confidence_buffer,,null,,,,,,,,,,,,,,,,,,
null,,thebreak,995636,break,,null,,,,,,,,,,,,,,,,,,
1087.800000000745,,realistic_rating,996726,Lakehaven,,49,Lakehaven,Fictional,1,,,,,,,,,,,,,,,
null,,confidence_buffer,996829,confidence_buffer,,null,,,,,,,,,,,,,,,,,,
1193.9000000022352,,pt2_unique_rating,998025,Lakehaven,,51,,,3,,,,,,,,,,,,,,,
null,,confidence_buffer,998128,confidence_buffer,,null,,,,,,,,,,,,,,,,,,
1646.800000000745,,pt2_memorable_rating,999776,Lakehaven,,50,,,2,,,,,,,,,,,,,,,
null,,confidence_buffer,999879,confidence_buffer,,null,,,,,,,,,,,,,,,,,,
1964.699999999255,,recognition_phase,1001845,Lakehaven,,51,,,,,,new,1,0.8793103448275862,,,,,,,,,,
null,,confidence_buffer,1001949,confidence_buffer,,null,,,,,,,,,,,,,,,,,,
null,,thebreak,1002452,break,,null,,,,,,,,,,,,,,,,,,
1328.5,,realistic_rating,1003782,West Talora,,50,West Talora,Fictional,2,,,,,,,,,,,,,,,
null,,confidence_buffer,1003886,confidence_buffer,,null,,,,,,,,,,,,,,,,,,
1874.3999999985099,,pt2_unique_rating,1005762,West Talora,,51,,,3,,,,,,,,,,,,,,,
null,,confidence_buffer,1005864,confidence_buffer,,null,,,,,,,,,,,,,,,,,,
1916.300000000745,,pt2_memorable_rating,1007782,West Talora,,49,,,1,,,,,,,,,,,,,,,
null,,confidence_buffer,1007885,confidence_buffer,,null,,,,,,,,,,,,,,,,,,
1481,,recognition_phase,1009367,West Talora,,50,,,,,,old,0,0.864406779661017,,,,,,,,,,
null,,confidence_buffer,1009471,confidence_buffer,,null,,,,,,,,,,,,,,,,,,
null,,thebreak,1009974,break,,null,,,,,,,,,,,,,,,,,,
2790.599999997765,,realistic_rating,1012767,Duck,,50,Duck,US,2,,,,,,,,,,,,,,,
null,,confidence_buffer,1012870,confidence_buffer,,null,,,,,,,,,,,,,,,,,,
1876.5,,pt2_unique_rating,1014748,Duck,,52,,,4,,,,,,,,,,,,,,,
null,,confidence_buffer,1014851,confidence_buffer,,null,,,,,,,,,,,,,,,,,,
1417.8999999985099,,pt2_memorable_rating,1016271,Duck,,52,,,4,,,,,,,,,,,,,,,
null,,confidence_buffer,1016374,confidence_buffer,,null,,,,,,,,,,,,,,,,,,
1847,,recognition_phase,1018223,Duck,,49,,,,,,old,1,0.8666666666666667,,,,,,,,,,
null,,confidence_buffer,1018326,confidence_buffer,,null,,,,,,,,,,,,,,,,,,
null,,thebreak,1018830,break,,null,,,,,,,,,,,,,,,,,,
,,survey,1171025,survey-questions,,,,,,,,,,,none,high,nope,i tried to picture the places/where it could be/if I have ever heard of anything similar,have i ever heard of them/can they exist,is there anything in the name stem that stands out (i.e. duck is memorable),how many places in the world can be named that (i.e. athens, greece vs athens, ohio),is this a place i can picture on a map,no ,got boring after a while
