rt,responses,trial_type,time_elapsed,stimulus,button_pressed,key_press,name_trial,city_type,rating,probe,probe_accuracy,response,correct,accuracy,problems,smooth,distraction,strategies,familiar,memorable,unique,realistic,similar,comments
7167.300000000745,{worker_id:67ed7515c3602df172cbddbc},id_enter,7170,,,,,,,,,,,,,,,,,,,,,
10352.10000000149,,fullscreen,17519,fullscreen,0,,,,,,,,,,,,,,,,,,,
6462.39999999851,,intro_0,24003,instruct,,32,,,,,,,,,,,,,,,,,,
7131.70000000298,,intro_1,31136,instruct,,32,,,,,,,,,,,,,,,,,,
52240.70000000298,,intro_2,83370,instruct,,32,,,,,,,,,,,,,,,,,,
null,,instruct_dir_4,84872,instruct,,null,,,,,,,,,,,,,,,,,,
null,,thebreak,85376,break,,null,,,,,,,,,,,,,,,,,,
9499.599999997765,,familiar_rating,94877,Bisbee,,53,Bisbee,US,5,,,,,,,,,,,,,,,
null,,confidence_buffer,94980,confidence_buffer,,null,,,,,,,,,,,,,,,,,,
8471.699999999255,,unique_rating,103452,Bisbee,,52,,,4,,,,,,,,,,,,,,,
null,,confidence_buffer,103555,confidence_buffer,,null,,,,,,,,,,,,,,,,,,
7281.39999999851,,memorable_rating,110837,Bisbee,,51,,,3,,,,,,,,,,,,,,,
null,,confidence_buffer,110939,confidence_buffer,,null,,,,,,,,,,,,,,,,,,
null,,thebreak,111441,break,,null,,,,,,,,,,,,,,,,,,
4468.699999999255,,familiar_rating,115911,Cornwall,,49,Cornwall,US,1,,,,,,,,,,,,,,,
null,,confidence_buffer,116012,confidence_buffer,,null,,,,,,,,,,,,,,,,,,
3692.699999999255,,unique_rating,119706,Cornwall,,51,,,3,,,,,,,,,,,,,,,
null,,confidence_buffer,119807,confidence_buffer,,null,,,,,,,,,,,,,,,,,,
10426.39999999851,,memorable_rating,130235,Cornwall,,50,,,2,,,,,,,,,,,,,,,
null,,confidence_buffer,130338,confidence_buffer,,null,,,,,,,,,,,,,,,,,,
null,,thebreak,130840,break,,null,,,,,,,,,,,,,,,,,,
3360.10000000149,,familiar_rating,134201,Briarfield,,49,Briarfield,Fictional,1,,,,,,,,,,,,,,,
null,,confidence_buffer,134304,confidence_buffer,,null,,,,,,,,,,,,,,,,,,
5458,,unique_rating,139763,Briarfield,,50,,,2,,,,,,,,,,,,,,,
null,,confidence_buffer,139864,confidence_buffer,,null,,,,,,,,,,,,,,,,,,
4560.10000000149,,memorable_rating,144418,Briarfield,,50,,,2,,,,,,,,,,,,,,,
null,,confidence_buffer,144520,confidence_buffer,,null,,,,,,,,,,,,,,,,,,
null,,thebreak,145022,break,,null,,,,,,,,,,,,,,,,,,
2997.5,,familiar_rating,148021,Crestwood,,49,Crestwood,Fictional,1,,,,,,,,,,,,,,,
null,,confidence_buffer,148124,confidence_buffer,,null,,,,,,,,,,,,,,,,,,
3599.39999999851,,unique_rating,151724,Crestwood,,51,,,3,,,,,,,,,,,,,,,
null,,confidence_buffer,151830,confidence_buffer,,null,,,,,,,,,,,,,,,,,,
2831.39999999851,,probe_rating,154663,probe_rating,,49,,,,1,1,,,,,,,,,,,,,
null,,confidence_buffer,154765,confidence_buffer,,null,,,,,,,,,,,,,,,,,,
7218,,memorable_rating,161983,Crestwood,,50,,,2,,,,,,,,,,,,,,,
null,,confidence_buffer,162085,confidence_buffer,,null,,,,,,,,,,,,,,,,,,
null,,thebreak,162587,break,,null,,,,,,,,,,,,,,,,,,
4395.89999999851,,familiar_rating,166984,Park City,,52,Park City,US,4,,,,,,,,,,,,,,,
null,,confidence_buffer,167086,confidence_buffer,,null,,,,,,,,,,,,,,,,,,
6435.29999999702,,unique_rating,173522,Park City,,50,,,2,,,,,,,,,,,,,,,
null,,confidence_buffer,173623,confidence_buffer,,null,,,,,,,,,,,,,,,,,,
2349.300000000745,,memorable_rating,175973,Park City,,49,,,1,,,,,,,,,,,,,,,
null,,confidence_buffer,176075,confidence_buffer,,null,,,,,,,,,,,,,,,,,,
null,,thebreak,176576,break,,null,,,,,,,,,,,,,,,,,,
3234.599999997765,,familiar_rating,179811,Berkeley Springs,,50,Berkeley Springs,US,2,,,,,,,,,,,,,,,
null,,confidence_buffer,179914,confidence_buffer,,null,,,,,,,,,,,,,,,,,,
13212.10000000149,,unique_rating,193127,Berkeley Springs,,52,,,4,,,,,,,,,,,,,,,
null,,confidence_buffer,193228,confidence_buffer,,null,,,,,,,,,,,,,,,,,,
3463.60000000149,,memorable_rating,196692,Berkeley Springs,,50,,,2,,,,,,,,,,,,,,,
null,,confidence_buffer,196794,confidence_buffer,,null,,,,,,,,,,,,,,,,,,
null,,thebreak,197295,break,,null,,,,,,,,,,,,,,,,,,
2634.89999999851,,familiar_rating,199931,Bayshore Haven,,49,Bayshore Haven,Fictional,1,,,,,,,,,,,,,,,
null,,confidence_buffer,200033,confidence_buffer,,null,,,,,,,,,,,,,,,,,,
3729.89999999851,,unique_rating,203764,Bayshore Haven,,52,,,4,,,,,,,,,,,,,,,
null,,confidence_buffer,203866,confidence_buffer,,null,,,,,,,,,,,,,,,,,,
3823.199999999255,,memorable_rating,207683,Bayshore Haven,,52,,,4,,,,,,,,,,,,,,,
null,,confidence_buffer,207785,confidence_buffer,,null,,,,,,,,,,,,,,,,,,
null,,thebreak,208287,break,,null,,,,,,,,,,,,,,,,,,
7297.300000000745,,familiar_rating,215586,Boulder,,52,Boulder,US,4,,,,,,,,,,,,,,,
null,,confidence_buffer,215688,confidence_buffer,,null,,,,,,,,,,,,,,,,,,
5966.400000002235,,unique_rating,221655,Boulder,,51,,,3,,,,,,,,,,,,,,,
null,,confidence_buffer,221757,confidence_buffer,,null,,,,,,,,,,,,,,,,,,
912.3000000007451,,memorable_rating,222670,Boulder,,52,,,4,,,,,,,,,,,,,,,
null,,confidence_buffer,222773,confidence_buffer,,null,,,,,,,,,,,,,,,,,,
null,,thebreak,223275,break,,null,,,,,,,,,,,,,,,,,,
4130.199999999255,,familiar_rating,227406,Abilene,,53,Abilene,US,5,,,,,,,,,,,,,,,
null,,confidence_buffer,227508,confidence_buffer,,null,,,,,,,,,,,,,,,,,,
3604,,unique_rating,231113,Abilene,,52,,,4,,,,,,,,,,,,,,,
null,,confidence_buffer,231214,confidence_buffer,,null,,,,,,,,,,,,,,,,,,
1877.5999999977648,,memorable_rating,233093,Abilene,,52,,,4,,,,,,,,,,,,,,,
null,,confidence_buffer,233194,confidence_buffer,,null,,,,,,,,,,,,,,,,,,
null,,thebreak,233696,break,,null,,,,,,,,,,,,,,,,,,
5985.699999999255,,familiar_rating,239682,Cape May,,52,Cape May,US,4,,,,,,,,,,,,,,,
null,,confidence_buffer,239784,confidence_buffer,,null,,,,,,,,,,,,,,,,,,
4921.89999999851,,unique_rating,244706,Cape May,,52,,,4,,,,,,,,,,,,,,,
null,,confidence_buffer,244809,confidence_buffer,,null,,,,,,,,,,,,,,,,,,
2756.60000000149,,memorable_rating,247566,Cape May,,50,,,2,,,,,,,,,,,,,,,
null,,confidence_buffer,247668,confidence_buffer,,null,,,,,,,,,,,,,,,,,,
null,,thebreak,248171,break,,null,,,,,,,,,,,,,,,,,,
2939.300000000745,,familiar_rating,251111,Millstone,,49,Millstone,Fictional,1,,,,,,,,,,,,,,,
null,,confidence_buffer,251219,confidence_buffer,,null,,,,,,,,,,,,,,,,,,
2460.400000002235,,unique_rating,253680,Millstone,,49,,,1,,,,,,,,,,,,,,,
null,,confidence_buffer,253784,confidence_buffer,,null,,,,,,,,,,,,,,,,,,
2459.60000000149,,memorable_rating,256244,Millstone,,50,,,2,,,,,,,,,,,,,,,
null,,confidence_buffer,256345,confidence_buffer,,null,,,,,,,,,,,,,,,,,,
null,,thebreak,256847,break,,null,,,,,,,,,,,,,,,,,,
3452.89999999851,,familiar_rating,260301,Huntsville,,52,Huntsville,US,4,,,,,,,,,,,,,,,
null,,confidence_buffer,260404,confidence_buffer,,null,,,,,,,,,,,,,,,,,,
3187.300000000745,,probe_rating,263592,probe_rating,,51,,,,3,1,,,,,,,,,,,,,
null,,confidence_buffer,263695,confidence_buffer,,null,,,,,,,,,,,,,,,,,,
6070.599999997765,,unique_rating,269759,Huntsville,,50,,,2,,,,,,,,,,,,,,,
null,,confidence_buffer,269862,confidence_buffer,,null,,,,,,,,,,,,,,,,,,
4019.800000000745,,memorable_rating,273882,Huntsville,,50,,,2,,,,,,,,,,,,,,,
null,,confidence_buffer,273984,confidence_buffer,,null,,,,,,,,,,,,,,,,,,
null,,thebreak,274488,break,,null,,,,,,,,,,,,,,,,,,
5713.20000000298,,familiar_rating,280203,Elmsbury,,49,Elmsbury,Fictional,1,,,,,,,,,,,,,,,
null,,confidence_buffer,280304,confidence_buffer,,null,,,,,,,,,,,,,,,,,,
4772.300000000745,,unique_rating,285077,Elmsbury,,51,,,3,,,,,,,,,,,,,,,
null,,confidence_buffer,285179,confidence_buffer,,null,,,,,,,,,,,,,,,,,,
5918.900000002235,,memorable_rating,291098,Elmsbury,,50,,,2,,,,,,,,,,,,,,,
null,,confidence_buffer,291200,confidence_buffer,,null,,,,,,,,,,,,,,,,,,
null,,thebreak,291701,break,,null,,,,,,,,,,,,,,,,,,
6330.199999999255,,familiar_rating,298032,Falconridge,,49,Falconridge,Fictional,1,,,,,,,,,,,,,,,
null,,confidence_buffer,298134,confidence_buffer,,null,,,,,,,,,,,,,,,,,,
5758.400000002235,,unique_rating,303893,Falconridge,,51,,,3,,,,,,,,,,,,,,,
null,,confidence_buffer,303994,confidence_buffer,,null,,,,,,,,,,,,,,,,,,
2191.60000000149,,memorable_rating,306186,Falconridge,,52,,,4,,,,,,,,,,,,,,,
null,,confidence_buffer,306288,confidence_buffer,,null,,,,,,,,,,,,,,,,,,
null,,thebreak,306789,break,,null,,,,,,,,,,,,,,,,,,
6262.60000000149,,familiar_rating,313052,Alliance,,49,Alliance,US,1,,,,,,,,,,,,,,,
null,,confidence_buffer,313154,confidence_buffer,,null,,,,,,,,,,,,,,,,,,
3332,,unique_rating,316487,Alliance,,51,,,3,,,,,,,,,,,,,,,
null,,confidence_buffer,316589,confidence_buffer,,null,,,,,,,,,,,,,,,,,,
5419.5,,memorable_rating,322009,Alliance,,50,,,2,,,,,,,,,,,,,,,
null,,confidence_buffer,322110,confidence_buffer,,null,,,,,,,,,,,,,,,,,,
null,,thebreak,322611,break,,null,,,,,,,,,,,,,,,,,,
1818.7999999970198,,familiar_rating,324430,Baymarsh,,49,Baymarsh,Fictional,1,,,,,,,,,,,,,,,
null,,confidence_buffer,324532,confidence_buffer,,null,,,,,,,,,,,,,,,,,,
21585.199999999255,,unique_rating,346110,Baymarsh,,52,,,4,,,,,,,,,,,,,,,
null,,confidence_buffer,346212,confidence_buffer,,null,,,,,,,,,,,,,,,,,,
3926.699999999255,,memorable_rating,350140,Baymarsh,,51,,,3,,,,,,,,,,,,,,,
null,,confidence_buffer,350242,confidence_buffer,,null,,,,,,,,,,,,,,,,,,
null,,thebreak,350745,break,,null,,,,,,,,,,,,,,,,,,
4257.300000000745,,familiar_rating,355003,Duck,,51,Duck,US,3,,,,,,,,,,,,,,,
null,,confidence_buffer,355104,confidence_buffer,,null,,,,,,,,,,,,,,,,,,
2594.699999999255,,unique_rating,357699,Duck,,53,,,5,,,,,,,,,,,,,,,
null,,confidence_buffer,357801,confidence_buffer,,null,,,,,,,,,,,,,,,,,,
2530.89999999851,,memorable_rating,360332,Duck,,53,,,5,,,,,,,,,,,,,,,
null,,confidence_buffer,360435,confidence_buffer,,null,,,,,,,,,,,,,,,,,,
null,,thebreak,360938,break,,null,,,,,,,,,,,,,,,,,,
3771.800000000745,,familiar_rating,364710,Carmel,,52,Carmel,US,4,,,,,,,,,,,,,,,
null,,confidence_buffer,364812,confidence_buffer,,null,,,,,,,,,,,,,,,,,,
3327.699999999255,,unique_rating,368141,Carmel,,50,,,2,,,,,,,,,,,,,,,
null,,confidence_buffer,368243,confidence_buffer,,null,,,,,,,,,,,,,,,,,,
1039.800000000745,,memorable_rating,369283,Carmel,,51,,,3,,,,,,,,,,,,,,,
null,,confidence_buffer,369385,confidence_buffer,,null,,,,,,,,,,,,,,,,,,
null,,thebreak,369886,break,,null,,,,,,,,,,,,,,,,,,
3540.800000000745,,familiar_rating,373428,Golden Trace,,49,Golden Trace,Fictional,1,,,,,,,,,,,,,,,
null,,confidence_buffer,373529,confidence_buffer,,null,,,,,,,,,,,,,,,,,,
8361.400000002235,,unique_rating,381892,Golden Trace,,51,,,3,,,,,,,,,,,,,,,
null,,confidence_buffer,381994,confidence_buffer,,null,,,,,,,,,,,,,,,,,,
3870.800000000745,,memorable_rating,385866,Golden Trace,,51,,,3,,,,,,,,,,,,,,,
null,,confidence_buffer,385968,confidence_buffer,,null,,,,,,,,,,,,,,,,,,
null,,thebreak,386471,break,,null,,,,,,,,,,,,,,,,,,
16627.699999999255,,familiar_rating,403100,Oakridge,,51,Oakridge,Fictional,3,,,,,,,,,,,,,,,
null,,confidence_buffer,403203,confidence_buffer,,null,,,,,,,,,,,,,,,,,,
4359.79999999702,,unique_rating,407557,Oakridge,,50,,,2,,,,,,,,,,,,,,,
null,,confidence_buffer,407660,confidence_buffer,,null,,,,,,,,,,,,,,,,,,
2818.89999999851,,memorable_rating,410480,Oakridge,,50,,,2,,,,,,,,,,,,,,,
null,,confidence_buffer,410581,confidence_buffer,,null,,,,,,,,,,,,,,,,,,
null,,thebreak,411083,break,,null,,,,,,,,,,,,,,,,,,
1747.3999999985099,,familiar_rating,412831,Hollendale,,49,Hollendale,Fictional,1,,,,,,,,,,,,,,,
null,,confidence_buffer,412932,confidence_buffer,,null,,,,,,,,,,,,,,,,,,
2550,,unique_rating,415484,Hollendale,,52,,,4,,,,,,,,,,,,,,,
null,,confidence_buffer,415586,confidence_buffer,,null,,,,,,,,,,,,,,,,,,
1885.5,,memorable_rating,417473,Hollendale,,50,,,2,,,,,,,,,,,,,,,
null,,confidence_buffer,417574,confidence_buffer,,null,,,,,,,,,,,,,,,,,,
null,,thebreak,418075,break,,null,,,,,,,,,,,,,,,,,,
3211.699999999255,,familiar_rating,421287,Tamarisk Hills,,49,Tamarisk Hills,Fictional,1,,,,,,,,,,,,,,,
null,,confidence_buffer,421390,confidence_buffer,,null,,,,,,,,,,,,,,,,,,
2243.7000000029802,,unique_rating,423635,Tamarisk Hills,,51,,,3,,,,,,,,,,,,,,,
null,,confidence_buffer,423738,confidence_buffer,,null,,,,,,,,,,,,,,,,,,
1579.9000000022352,,memorable_rating,425319,Tamarisk Hills,,50,,,2,,,,,,,,,,,,,,,
null,,confidence_buffer,425420,confidence_buffer,,null,,,,,,,,,,,,,,,,,,
null,,thebreak,425923,break,,null,,,,,,,,,,,,,,,,,,
1988.300000000745,,familiar_rating,427912,Willowford,,49,Willowford,Fictional,1,,,,,,,,,,,,,,,
null,,confidence_buffer,428014,confidence_buffer,,null,,,,,,,,,,,,,,,,,,
2003.699999999255,,probe_rating,430019,probe_rating,,49,,,,1,1,,,,,,,,,,,,,
null,,confidence_buffer,430122,confidence_buffer,,null,,,,,,,,,,,,,,,,,,
2998.39999999851,,unique_rating,433121,Willowford,,50,,,2,,,,,,,,,,,,,,,
null,,confidence_buffer,433223,confidence_buffer,,null,,,,,,,,,,,,,,,,,,
17346.300000000745,,memorable_rating,450571,Willowford,,51,,,3,,,,,,,,,,,,,,,
null,,confidence_buffer,450673,confidence_buffer,,null,,,,,,,,,,,,,,,,,,
null,,thebreak,451174,break,,null,,,,,,,,,,,,,,,,,,
2750.89999999851,,familiar_rating,453926,Hilo,,49,Hilo,US,1,,,,,,,,,,,,,,,
null,,confidence_buffer,454027,confidence_buffer,,null,,,,,,,,,,,,,,,,,,
3660,,unique_rating,457688,Hilo,,52,,,4,,,,,,,,,,,,,,,
null,,confidence_buffer,457790,confidence_buffer,,null,,,,,,,,,,,,,,,,,,
3437.400000002235,,memorable_rating,461229,Hilo,,51,,,3,,,,,,,,,,,,,,,
null,,confidence_buffer,461332,confidence_buffer,,null,,,,,,,,,,,,,,,,,,
null,,thebreak,461833,break,,null,,,,,,,,,,,,,,,,,,
2226.5,,familiar_rating,464060,Coralridge,,49,Coralridge,Fictional,1,,,,,,,,,,,,,,,
null,,confidence_buffer,464163,confidence_buffer,,null,,,,,,,,,,,,,,,,,,
3810.5,,unique_rating,467967,Coralridge,,52,,,4,,,,,,,,,,,,,,,
null,,confidence_buffer,468069,confidence_buffer,,null,,,,,,,,,,,,,,,,,,
2017.5999999977648,,probe_rating,470087,probe_rating,,50,,,,2,1,,,,,,,,,,,,,
null,,confidence_buffer,470189,confidence_buffer,,null,,,,,,,,,,,,,,,,,,
5125.79999999702,,memorable_rating,475316,Coralridge,,51,,,3,,,,,,,,,,,,,,,
null,,confidence_buffer,475417,confidence_buffer,,null,,,,,,,,,,,,,,,,,,
null,,thebreak,475918,break,,null,,,,,,,,,,,,,,,,,,
2651.300000000745,,familiar_rating,478570,Cody,,52,Cody,US,4,,,,,,,,,,,,,,,
null,,confidence_buffer,478671,confidence_buffer,,null,,,,,,,,,,,,,,,,,,
2390.7999999970198,,unique_rating,481063,Cody,,52,,,4,,,,,,,,,,,,,,,
null,,confidence_buffer,481164,confidence_buffer,,null,,,,,,,,,,,,,,,,,,
1523.699999999255,,memorable_rating,482689,Cody,,53,,,5,,,,,,,,,,,,,,,
null,,confidence_buffer,482790,confidence_buffer,,null,,,,,,,,,,,,,,,,,,
null,,thebreak,483291,break,,null,,,,,,,,,,,,,,,,,,
2410.39999999851,,familiar_rating,485702,Lakehaven,,49,Lakehaven,Fictional,1,,,,,,,,,,,,,,,
null,,confidence_buffer,485804,confidence_buffer,,null,,,,,,,,,,,,,,,,,,
6281.39999999851,,unique_rating,492087,Lakehaven,,49,,,1,,,,,,,,,,,,,,,
null,,confidence_buffer,492189,confidence_buffer,,null,,,,,,,,,,,,,,,,,,
2399.699999999255,,memorable_rating,494590,Lakehaven,,50,,,2,,,,,,,,,,,,,,,
null,,confidence_buffer,494691,confidence_buffer,,null,,,,,,,,,,,,,,,,,,
2127.5,,probe_rating,496820,probe_rating,,50,,,,2,1,,,,,,,,,,,,,
null,,confidence_buffer,496922,confidence_buffer,,null,,,,,,,,,,,,,,,,,,
null,,thebreak,497423,break,,null,,,,,,,,,,,,,,,,,,
2719.300000000745,,familiar_rating,500143,Orchard Bend,,49,Orchard Bend,Fictional,1,,,,,,,,,,,,,,,
null,,confidence_buffer,500245,confidence_buffer,,null,,,,,,,,,,,,,,,,,,
2980.89999999851,,unique_rating,503226,Orchard Bend,,51,,,3,,,,,,,,,,,,,,,
null,,confidence_buffer,503328,confidence_buffer,,null,,,,,,,,,,,,,,,,,,
1132.699999999255,,memorable_rating,504461,Orchard Bend,,52,,,4,,,,,,,,,,,,,,,
null,,confidence_buffer,504563,confidence_buffer,,null,,,,,,,,,,,,,,,,,,
1672.3999999985099,,probe_rating,506237,probe_rating,,50,,,,2,1,,,,,,,,,,,,,
null,,confidence_buffer,506339,confidence_buffer,,null,,,,,,,,,,,,,,,,,,
null,,thebreak,506841,break,,null,,,,,,,,,,,,,,,,,,
2718.800000000745,,familiar_rating,509560,Natchez,,52,Natchez,US,4,,,,,,,,,,,,,,,
null,,confidence_buffer,509663,confidence_buffer,,null,,,,,,,,,,,,,,,,,,
2928.699999999255,,unique_rating,512592,Natchez,,53,,,5,,,,,,,,,,,,,,,
null,,confidence_buffer,512695,confidence_buffer,,null,,,,,,,,,,,,,,,,,,
2059.800000000745,,memorable_rating,514756,Natchez,,53,,,5,,,,,,,,,,,,,,,
null,,confidence_buffer,514858,confidence_buffer,,null,,,,,,,,,,,,,,,,,,
null,,thebreak,515360,break,,null,,,,,,,,,,,,,,,,,,
15829.699999999255,,familiar_rating,531183,Gloucester,,51,Gloucester,US,3,,,,,,,,,,,,,,,
null,,confidence_buffer,531285,confidence_buffer,,null,,,,,,,,,,,,,,,,,,
2619.800000000745,,unique_rating,533906,Gloucester,,51,,,3,,,,,,,,,,,,,,,
null,,confidence_buffer,534010,confidence_buffer,,null,,,,,,,,,,,,,,,,,,
2209.5,,memorable_rating,536220,Gloucester,,50,,,2,,,,,,,,,,,,,,,
null,,confidence_buffer,536322,confidence_buffer,,null,,,,,,,,,,,,,,,,,,
null,,thebreak,536824,break,,null,,,,,,,,,,,,,,,,,,
5120,,intro_0,541945,instruct,,32,,,,,,,,,,,,,,,,,,
7688.29999999702,,intro_1,549634,instruct,,32,,,,,,,,,,,,,,,,,,
7974.699999999255,,intro_2,557609,instruct,,32,,,,,,,,,,,,,,,,,,
null,,instruct_dir_4,559110,instruct,,null,,,,,,,,,,,,,,,,,,
9735.60000000149,,realistic_rating,568847,Briarfield,,51,Briarfield,Fictional,3,,,,,,,,,,,,,,,
null,,confidence_buffer,568949,confidence_buffer,,null,,,,,,,,,,,,,,,,,,
3283.199999999255,,pt2_unique_rating,572233,Briarfield,,50,,,2,,,,,,,,,,,,,,,
null,,confidence_buffer,572334,confidence_buffer,,null,,,,,,,,,,,,,,,,,,
1751,,probe_rating,574086,probe_rating,,53,,,,5,1,,,,,,,,,,,,,
null,,confidence_buffer,574187,confidence_buffer,,null,,,,,,,,,,,,,,,,,,
3920.300000000745,,pt2_memorable_rating,578108,Briarfield,,51,,,3,,,,,,,,,,,,,,,
null,,confidence_buffer,578210,confidence_buffer,,null,,,,,,,,,,,,,,,,,,
5526.300000000745,,recognition_phase,583738,Briarfield,,50,,,,,,old,1,1,,,,,,,,,,
null,,confidence_buffer,583839,confidence_buffer,,null,,,,,,,,,,,,,,,,,,
null,,thebreak,584341,break,,null,,,,,,,,,,,,,,,,,,
5635,,realistic_rating,589977,Stonebrook,,51,Stonebrook,Fictional,3,,,,,,,,,,,,,,,
null,,confidence_buffer,590079,confidence_buffer,,null,,,,,,,,,,,,,,,,,,
3105,,pt2_unique_rating,593178,Stonebrook,,50,,,2,,,,,,,,,,,,,,,
null,,confidence_buffer,593280,confidence_buffer,,null,,,,,,,,,,,,,,,,,,
2874.2999999970198,,pt2_memorable_rating,596155,Stonebrook,,51,,,3,,,,,,,,,,,,,,,
null,,confidence_buffer,596256,confidence_buffer,,null,,,,,,,,,,,,,,,,,,
1901.7000000029802,,probe_rating,598158,probe_rating,,53,,,,5,1,,,,,,,,,,,,,
null,,confidence_buffer,598259,confidence_buffer,,null,,,,,,,,,,,,,,,,,,
4159.400000002235,,recognition_phase,602420,Stonebrook,,52,,,,,,new,1,1,,,,,,,,,,
null,,confidence_buffer,602521,confidence_buffer,,null,,,,,,,,,,,,,,,,,,
null,,thebreak,603023,break,,null,,,,,,,,,,,,,,,,,,
3464.60000000149,,realistic_rating,606489,Coeur d'Alene,,53,Coeur d'Alene,US,5,,,,,,,,,,,,,,,
null,,confidence_buffer,606591,confidence_buffer,,null,,,,,,,,,,,,,,,,,,
2249.099999997765,,pt2_unique_rating,608841,Coeur d'Alene,,53,,,5,,,,,,,,,,,,,,,
null,,confidence_buffer,608943,confidence_buffer,,null,,,,,,,,,,,,,,,,,,
2705,,pt2_memorable_rating,611650,Coeur d'Alene,,53,,,5,,,,,,,,,,,,,,,
null,,confidence_buffer,611752,confidence_buffer,,null,,,,,,,,,,,,,,,,,,
3397.800000000745,,recognition_phase,615151,Coeur d'Alene,,52,,,,,,new,1,1,,,,,,,,,,
null,,confidence_buffer,615252,confidence_buffer,,null,,,,,,,,,,,,,,,,,,
null,,thebreak,615772,break,,null,,,,,,,,,,,,,,,,,,
3535.199999999255,,realistic_rating,619308,Carmel,,53,Carmel,US,5,,,,,,,,,,,,,,,
null,,confidence_buffer,619410,confidence_buffer,,null,,,,,,,,,,,,,,,,,,
2613,,pt2_unique_rating,622024,Carmel,,52,,,4,,,,,,,,,,,,,,,
null,,confidence_buffer,622126,confidence_buffer,,null,,,,,,,,,,,,,,,,,,
2673.5,,pt2_memorable_rating,624800,Carmel,,52,,,4,,,,,,,,,,,,,,,
null,,confidence_buffer,624901,confidence_buffer,,null,,,,,,,,,,,,,,,,,,
3016.60000000149,,recognition_phase,627918,Carmel,,49,,,,,,old,1,1,,,,,,,,,,
null,,confidence_buffer,628021,confidence_buffer,,null,,,,,,,,,,,,,,,,,,
null,,thebreak,628522,break,,null,,,,,,,,,,,,,,,,,,
3564.300000000745,,realistic_rating,632088,Racine,,53,Racine,US,5,,,,,,,,,,,,,,,
null,,confidence_buffer,632190,confidence_buffer,,null,,,,,,,,,,,,,,,,,,
3022.800000000745,,pt2_unique_rating,635214,Racine,,52,,,4,,,,,,,,,,,,,,,
null,,confidence_buffer,635315,confidence_buffer,,null,,,,,,,,,,,,,,,,,,
2786.10000000149,,pt2_memorable_rating,638102,Racine,,51,,,3,,,,,,,,,,,,,,,
null,,confidence_buffer,638203,confidence_buffer,,null,,,,,,,,,,,,,,,,,,
2049.7000000029802,,recognition_phase,640254,Racine,,52,,,,,,new,1,1,,,,,,,,,,
null,,confidence_buffer,640355,confidence_buffer,,null,,,,,,,,,,,,,,,,,,
null,,thebreak,640859,break,,null,,,,,,,,,,,,,,,,,,
3826.60000000149,,realistic_rating,644686,Alliance,,50,Alliance,US,2,,,,,,,,,,,,,,,
null,,confidence_buffer,644788,confidence_buffer,,null,,,,,,,,,,,,,,,,,,
1973.1000000014901,,pt2_unique_rating,646762,Alliance,,50,,,2,,,,,,,,,,,,,,,
null,,confidence_buffer,646863,confidence_buffer,,null,,,,,,,,,,,,,,,,,,
3072.400000002235,,pt2_memorable_rating,649936,Alliance,,50,,,2,,,,,,,,,,,,,,,
null,,confidence_buffer,650038,confidence_buffer,,null,,,,,,,,,,,,,,,,,,
5685.39999999851,,recognition_phase,655717,Alliance,,49,,,,,,old,1,1,,,,,,,,,,
null,,confidence_buffer,655819,confidence_buffer,,null,,,,,,,,,,,,,,,,,,
null,,thebreak,656319,break,,null,,,,,,,,,,,,,,,,,,
4004.800000000745,,realistic_rating,660325,Juniper Creek,,51,Juniper Creek,Fictional,3,,,,,,,,,,,,,,,
null,,confidence_buffer,660426,confidence_buffer,,null,,,,,,,,,,,,,,,,,,
9250.10000000149,,pt2_unique_rating,669677,Juniper Creek,,51,,,3,,,,,,,,,,,,,,,
null,,confidence_buffer,669779,confidence_buffer,,null,,,,,,,,,,,,,,,,,,
1877.3999999985099,,pt2_memorable_rating,671657,Juniper Creek,,50,,,2,,,,,,,,,,,,,,,
null,,confidence_buffer,671759,confidence_buffer,,null,,,,,,,,,,,,,,,,,,
2062.599999997765,,recognition_phase,673823,Juniper Creek,,52,,,,,,new,1,1,,,,,,,,,,
null,,confidence_buffer,673925,confidence_buffer,,null,,,,,,,,,,,,,,,,,,
null,,thebreak,674426,break,,null,,,,,,,,,,,,,,,,,,
4148.70000000298,,realistic_rating,678575,Coralridge,,50,Coralridge,Fictional,2,,,,,,,,,,,,,,,
null,,confidence_buffer,678678,confidence_buffer,,null,,,,,,,,,,,,,,,,,,
2625.89999999851,,pt2_unique_rating,681305,Coralridge,,52,,,4,,,,,,,,,,,,,,,
null,,confidence_buffer,681409,confidence_buffer,,null,,,,,,,,,,,,,,,,,,
2036.3999999985099,,pt2_memorable_rating,683446,Coralridge,,51,,,3,,,,,,,,,,,,,,,
null,,confidence_buffer,683548,confidence_buffer,,null,,,,,,,,,,,,,,,,,,
3791.5,,recognition_phase,687340,Coralridge,,49,,,,,,old,1,1,,,,,,,,,,
null,,confidence_buffer,687442,confidence_buffer,,null,,,,,,,,,,,,,,,,,,
null,,thebreak,687944,break,,null,,,,,,,,,,,,,,,,,,
2855.2999999970198,,realistic_rating,690800,Huntsville,,53,Huntsville,US,5,,,,,,,,,,,,,,,
null,,confidence_buffer,690902,confidence_buffer,,null,,,,,,,,,,,,,,,,,,
3035,,pt2_unique_rating,693937,Huntsville,,51,,,3,,,,,,,,,,,,,,,
null,,confidence_buffer,694038,confidence_buffer,,null,,,,,,,,,,,,,,,,,,
7840.699999999255,,pt2_memorable_rating,701880,Huntsville,,51,,,3,,,,,,,,,,,,,,,
null,,confidence_buffer,701981,confidence_buffer,,null,,,,,,,,,,,,,,,,,,
5569.39999999851,,recognition_phase,707552,Huntsville,,49,,,,,,old,1,1,,,,,,,,,,
null,,confidence_buffer,707654,confidence_buffer,,null,,,,,,,,,,,,,,,,,,
null,,thebreak,708155,break,,null,,,,,,,,,,,,,,,,,,
12460.10000000149,,realistic_rating,720609,Bayshore Haven,,50,Bayshore Haven,Fictional,2,,,,,,,,,,,,,,,
null,,confidence_buffer,720710,confidence_buffer,,null,,,,,,,,,,,,,,,,,,
3786,,pt2_unique_rating,724497,Bayshore Haven,,52,,,4,,,,,,,,,,,,,,,
null,,confidence_buffer,724598,confidence_buffer,,null,,,,,,,,,,,,,,,,,,
1581.1000000014901,,pt2_memorable_rating,726180,Bayshore Haven,,51,,,3,,,,,,,,,,,,,,,
null,,confidence_buffer,726281,confidence_buffer,,null,,,,,,,,,,,,,,,,,,
2598.10000000149,,recognition_phase,728880,Bayshore Haven,,49,,,,,,old,1,1,,,,,,,,,,
null,,confidence_buffer,728982,confidence_buffer,,null,,,,,,,,,,,,,,,,,,
null,,thebreak,729483,break,,null,,,,,,,,,,,,,,,,,,
3347.099999997765,,realistic_rating,732831,Cleveland,,53,Cleveland,US,5,,,,,,,,,,,,,,,
null,,confidence_buffer,732933,confidence_buffer,,null,,,,,,,,,,,,,,,,,,
2222.300000000745,,pt2_unique_rating,735157,Cleveland,,49,,,1,,,,,,,,,,,,,,,
null,,confidence_buffer,735259,confidence_buffer,,null,,,,,,,,,,,,,,,,,,
2350.60000000149,,pt2_memorable_rating,737610,Cleveland,,52,,,4,,,,,,,,,,,,,,,
null,,confidence_buffer,737712,confidence_buffer,,null,,,,,,,,,,,,,,,,,,
3092.300000000745,,recognition_phase,740805,Cleveland,,52,,,,,,new,1,1,,,,,,,,,,
null,,confidence_buffer,740906,confidence_buffer,,null,,,,,,,,,,,,,,,,,,
null,,thebreak,741407,break,,null,,,,,,,,,,,,,,,,,,
6405.199999999255,,realistic_rating,747814,Delaware City,,51,Delaware City,US,3,,,,,,,,,,,,,,,
null,,confidence_buffer,747917,confidence_buffer,,null,,,,,,,,,,,,,,,,,,
4051.199999999255,,pt2_unique_rating,751969,Delaware City,,52,,,4,,,,,,,,,,,,,,,
null,,confidence_buffer,752072,confidence_buffer,,null,,,,,,,,,,,,,,,,,,
2812.5,,pt2_memorable_rating,754885,Delaware City,,50,,,2,,,,,,,,,,,,,,,
null,,confidence_buffer,754987,confidence_buffer,,null,,,,,,,,,,,,,,,,,,
1985.8999999985099,,recognition_phase,756975,Delaware City,,52,,,,,,new,1,1,,,,,,,,,,
null,,confidence_buffer,757076,confidence_buffer,,null,,,,,,,,,,,,,,,,,,
null,,thebreak,757578,break,,null,,,,,,,,,,,,,,,,,,
5298.39999999851,,realistic_rating,762877,Sierra Hollow,,50,Sierra Hollow,Fictional,2,,,,,,,,,,,,,,,
null,,confidence_buffer,762980,confidence_buffer,,null,,,,,,,,,,,,,,,,,,
3648,,pt2_unique_rating,766629,Sierra Hollow,,52,,,4,,,,,,,,,,,,,,,
null,,confidence_buffer,766732,confidence_buffer,,null,,,,,,,,,,,,,,,,,,
4094.599999997765,,pt2_memorable_rating,770827,Sierra Hollow,,53,,,5,,,,,,,,,,,,,,,
null,,confidence_buffer,770928,confidence_buffer,,null,,,,,,,,,,,,,,,,,,
3353.5,,recognition_phase,774282,Sierra Hollow,,52,,,,,,new,1,1,,,,,,,,,,
null,,confidence_buffer,774385,confidence_buffer,,null,,,,,,,,,,,,,,,,,,
null,,thebreak,774888,break,,null,,,,,,,,,,,,,,,,,,
3365.099999997765,,realistic_rating,778254,Orchard Bend,,50,Orchard Bend,Fictional,2,,,,,,,,,,,,,,,
null,,confidence_buffer,778355,confidence_buffer,,null,,,,,,,,,,,,,,,,,,
2556.300000000745,,pt2_unique_rating,780906,Orchard Bend,,52,,,4,,,,,,,,,,,,,,,
null,,confidence_buffer,781007,confidence_buffer,,null,,,,,,,,,,,,,,,,,,
4745.39999999851,,pt2_memorable_rating,785753,Orchard Bend,,51,,,3,,,,,,,,,,,,,,,
null,,confidence_buffer,785855,confidence_buffer,,null,,,,,,,,,,,,,,,,,,
4024.699999999255,,recognition_phase,789880,Orchard Bend,,49,,,,,,old,1,1,,,,,,,,,,
null,,confidence_buffer,789981,confidence_buffer,,null,,,,,,,,,,,,,,,,,,
null,,thebreak,790482,break,,null,,,,,,,,,,,,,,,,,,
22232,,realistic_rating,812715,Oakridge,,53,Oakridge,Fictional,5,,,,,,,,,,,,,,,
null,,confidence_buffer,812818,confidence_buffer,,null,,,,,,,,,,,,,,,,,,
2801.5,,pt2_unique_rating,815621,Oakridge,,51,,,3,,,,,,,,,,,,,,,
null,,confidence_buffer,815722,confidence_buffer,,null,,,,,,,,,,,,,,,,,,
4600.800000000745,,pt2_memorable_rating,820324,Oakridge,,52,,,4,,,,,,,,,,,,,,,
null,,confidence_buffer,820426,confidence_buffer,,null,,,,,,,,,,,,,,,,,,
2936,,recognition_phase,823363,Oakridge,,49,,,,,,old,1,1,,,,,,,,,,
null,,confidence_buffer,823465,confidence_buffer,,null,,,,,,,,,,,,,,,,,,
null,,thebreak,823967,break,,null,,,,,,,,,,,,,,,,,,
2905.89999999851,,realistic_rating,826874,Baymarsh,,50,Baymarsh,Fictional,2,,,,,,,,,,,,,,,
null,,confidence_buffer,826976,confidence_buffer,,null,,,,,,,,,,,,,,,,,,
2904.900000002235,,pt2_unique_rating,829881,Baymarsh,,52,,,4,,,,,,,,,,,,,,,
null,,confidence_buffer,829983,confidence_buffer,,null,,,,,,,,,,,,,,,,,,
2008.2999999970198,,pt2_memorable_rating,831992,Baymarsh,,52,,,4,,,,,,,,,,,,,,,
null,,confidence_buffer,832093,confidence_buffer,,null,,,,,,,,,,,,,,,,,,
3525.300000000745,,recognition_phase,835620,Baymarsh,,50,,,,,,old,1,1,,,,,,,,,,
null,,confidence_buffer,835721,confidence_buffer,,null,,,,,,,,,,,,,,,,,,
null,,thebreak,836237,break,,null,,,,,,,,,,,,,,,,,,
5712.199999999255,,realistic_rating,841946,Willowford,,52,Willowford,Fictional,4,,,,,,,,,,,,,,,
null,,confidence_buffer,842049,confidence_buffer,,null,,,,,,,,,,,,,,,,,,
2357.300000000745,,pt2_unique_rating,844407,Willowford,,51,,,3,,,,,,,,,,,,,,,
null,,confidence_buffer,844509,confidence_buffer,,null,,,,,,,,,,,,,,,,,,
2684.800000000745,,pt2_memorable_rating,847195,Willowford,,51,,,3,,,,,,,,,,,,,,,
null,,confidence_buffer,847297,confidence_buffer,,null,,,,,,,,,,,,,,,,,,
3872.699999999255,,recognition_phase,851170,Willowford,,52,,,,,,new,0,0.9411764705882353,,,,,,,,,,
null,,confidence_buffer,851272,confidence_buffer,,null,,,,,,,,,,,,,,,,,,
null,,thebreak,851781,break,,null,,,,,,,,,,,,,,,,,,
2532.300000000745,,realistic_rating,854314,Park City,,53,Park City,US,5,,,,,,,,,,,,,,,
null,,confidence_buffer,854416,confidence_buffer,,null,,,,,,,,,,,,,,,,,,
2458.199999999255,,pt2_unique_rating,856875,Park City,,52,,,4,,,,,,,,,,,,,,,
null,,confidence_buffer,856977,confidence_buffer,,null,,,,,,,,,,,,,,,,,,
2073.5,,pt2_memorable_rating,859052,Park City,,52,,,4,,,,,,,,,,,,,,,
null,,confidence_buffer,859154,confidence_buffer,,null,,,,,,,,,,,,,,,,,,
4454.5,,probe_rating,863609,probe_rating,,51,,,,3,1,,,,,,,,,,,,,
null,,confidence_buffer,863711,confidence_buffer,,null,,,,,,,,,,,,,,,,,,
2639,,recognition_phase,866351,Park City,,49,,,,,,old,1,0.9444444444444444,,,,,,,,,,
null,,confidence_buffer,866454,confidence_buffer,,null,,,,,,,,,,,,,,,,,,
null,,thebreak,866956,break,,null,,,,,,,,,,,,,,,,,,
4691.39999999851,,realistic_rating,871649,Bar Harbor,,51,Bar Harbor,US,3,,,,,,,,,,,,,,,
null,,confidence_buffer,871751,confidence_buffer,,null,,,,,,,,,,,,,,,,,,
2697,,pt2_unique_rating,874449,Bar Harbor,,50,,,2,,,,,,,,,,,,,,,
null,,confidence_buffer,874551,confidence_buffer,,null,,,,,,,,,,,,,,,,,,
2629.400000002235,,pt2_memorable_rating,877181,Bar Harbor,,50,,,2,,,,,,,,,,,,,,,
null,,confidence_buffer,877283,confidence_buffer,,null,,,,,,,,,,,,,,,,,,
3446.10000000149,,recognition_phase,880730,Bar Harbor,,50,,,,,,old,0,0.8947368421052632,,,,,,,,,,
null,,confidence_buffer,880832,confidence_buffer,,null,,,,,,,,,,,,,,,,,,
null,,thebreak,881333,break,,null,,,,,,,,,,,,,,,,,,
9784.800000000745,,realistic_rating,891119,Watkins Glen,,53,Watkins Glen,US,5,,,,,,,,,,,,,,,
null,,confidence_buffer,891222,confidence_buffer,,null,,,,,,,,,,,,,,,,,,
13191.29999999702,,pt2_unique_rating,904409,Watkins Glen,,53,,,5,,,,,,,,,,,,,,,
null,,confidence_buffer,904512,confidence_buffer,,null,,,,,,,,,,,,,,,,,,
18748.29999999702,,pt2_memorable_rating,923261,Watkins Glen,,52,,,4,,,,,,,,,,,,,,,
null,,confidence_buffer,923362,confidence_buffer,,null,,,,,,,,,,,,,,,,,,
4492.300000000745,,recognition_phase,927856,Watkins Glen,,52,,,,,,new,1,0.9,,,,,,,,,,
null,,confidence_buffer,927957,confidence_buffer,,null,,,,,,,,,,,,,,,,,,
null,,thebreak,928458,break,,null,,,,,,,,,,,,,,,,,,
5528.300000000745,,realistic_rating,933987,Maravilla Springs,,51,Maravilla Springs,Fictional,3,,,,,,,,,,,,,,,
null,,confidence_buffer,934090,confidence_buffer,,null,,,,,,,,,,,,,,,,,,
2307.2000000029802,,pt2_unique_rating,936398,Maravilla Springs,,51,,,3,,,,,,,,,,,,,,,
null,,confidence_buffer,936500,confidence_buffer,,null,,,,,,,,,,,,,,,,,,
2198.599999997765,,pt2_memorable_rating,938700,Maravilla Springs,,50,,,2,,,,,,,,,,,,,,,
null,,confidence_buffer,938801,confidence_buffer,,null,,,,,,,,,,,,,,,,,,
2333.60000000149,,recognition_phase,941136,Maravilla Springs,,52,,,,,,new,1,0.9047619047619048,,,,,,,,,,
null,,confidence_buffer,941240,confidence_buffer,,null,,,,,,,,,,,,,,,,,,
null,,thebreak,941741,break,,null,,,,,,,,,,,,,,,,,,
3991.199999999255,,realistic_rating,945733,Athens,,53,Athens,US,5,,,,,,,,,,,,,,,
null,,confidence_buffer,945835,confidence_buffer,,null,,,,,,,,,,,,,,,,,,
5682.300000000745,,pt2_unique_rating,951518,Athens,,49,,,1,,,,,,,,,,,,,,,
null,,confidence_buffer,951620,confidence_buffer,,null,,,,,,,,,,,,,,,,,,
2433.5,,pt2_memorable_rating,954054,Athens,,50,,,2,,,,,,,,,,,,,,,
null,,confidence_buffer,954156,confidence_buffer,,null,,,,,,,,,,,,,,,,,,
2203.400000002235,,recognition_phase,956361,Athens,,52,,,,,,new,1,0.9090909090909091,,,,,,,,,,
null,,confidence_buffer,956462,confidence_buffer,,null,,,,,,,,,,,,,,,,,,
null,,thebreak,956977,break,,null,,,,,,,,,,,,,,,,,,
3023.900000002235,,realistic_rating,960001,Hilo,,53,Hilo,US,5,,,,,,,,,,,,,,,
null,,confidence_buffer,960104,confidence_buffer,,null,,,,,,,,,,,,,,,,,,
4320.39999999851,,pt2_unique_rating,964420,Hilo,,52,,,4,,,,,,,,,,,,,,,
null,,confidence_buffer,964522,confidence_buffer,,null,,,,,,,,,,,,,,,,,,
3087.10000000149,,pt2_memorable_rating,967609,Hilo,,52,,,4,,,,,,,,,,,,,,,
null,,confidence_buffer,967711,confidence_buffer,,null,,,,,,,,,,,,,,,,,,
1940.199999999255,,recognition_phase,969652,Hilo,,49,,,,,,old,1,0.9130434782608695,,,,,,,,,,
null,,confidence_buffer,969753,confidence_buffer,,null,,,,,,,,,,,,,,,,,,
null,,thebreak,970255,break,,null,,,,,,,,,,,,,,,,,,
2463.699999999255,,realistic_rating,972719,Sunmere,,49,Sunmere,Fictional,1,,,,,,,,,,,,,,,
null,,confidence_buffer,972820,confidence_buffer,,null,,,,,,,,,,,,,,,,,,
3153.5,,pt2_unique_rating,975975,Sunmere,,52,,,4,,,,,,,,,,,,,,,
null,,confidence_buffer,976076,confidence_buffer,,null,,,,,,,,,,,,,,,,,,
2028.0999999977648,,pt2_memorable_rating,978105,Sunmere,,50,,,2,,,,,,,,,,,,,,,
null,,confidence_buffer,978206,confidence_buffer,,null,,,,,,,,,,,,,,,,,,
2045.2999999970198,,recognition_phase,980252,Sunmere,,52,,,,,,new,1,0.9166666666666666,,,,,,,,,,
null,,confidence_buffer,980353,confidence_buffer,,null,,,,,,,,,,,,,,,,,,
null,,thebreak,980863,break,,null,,,,,,,,,,,,,,,,,,
4141.60000000149,,realistic_rating,985005,Custer,,52,Custer,US,4,,,,,,,,,,,,,,,
null,,confidence_buffer,985107,confidence_buffer,,null,,,,,,,,,,,,,,,,,,
3235.699999999255,,pt2_unique_rating,988344,Custer,,53,,,5,,,,,,,,,,,,,,,
null,,confidence_buffer,988446,confidence_buffer,,null,,,,,,,,,,,,,,,,,,
1433.3999999985099,,pt2_memorable_rating,989880,Custer,,52,,,4,,,,,,,,,,,,,,,
null,,confidence_buffer,989982,confidence_buffer,,null,,,,,,,,,,,,,,,,,,
2216.89999999851,,recognition_phase,992200,Custer,,52,,,,,,new,1,0.92,,,,,,,,,,
null,,confidence_buffer,992302,confidence_buffer,,null,,,,,,,,,,,,,,,,,,
null,,thebreak,992805,break,,null,,,,,,,,,,,,,,,,,,
7490.39999999851,,realistic_rating,1000296,Clearbrook,,52,Clearbrook,Fictional,4,,,,,,,,,,,,,,,
null,,confidence_buffer,1000397,confidence_buffer,,null,,,,,,,,,,,,,,,,,,
4634.5,,pt2_unique_rating,1005032,Clearbrook,,51,,,3,,,,,,,,,,,,,,,
null,,confidence_buffer,1005133,confidence_buffer,,null,,,,,,,,,,,,,,,,,,
14835,,pt2_memorable_rating,1019969,Clearbrook,,52,,,4,,,,,,,,,,,,,,,
null,,confidence_buffer,1020070,confidence_buffer,,null,,,,,,,,,,,,,,,,,,
4944.099999997765,,recognition_phase,1025010,Clearbrook,,51,,,,,,new,1,0.9230769230769231,,,,,,,,,,
null,,confidence_buffer,1025111,confidence_buffer,,null,,,,,,,,,,,,,,,,,,
null,,thebreak,1025613,break,,null,,,,,,,,,,,,,,,,,,
2246.5,,realistic_rating,1027861,Natchez,,53,Natchez,US,5,,,,,,,,,,,,,,,
null,,confidence_buffer,1027963,confidence_buffer,,null,,,,,,,,,,,,,,,,,,
4546.79999999702,,pt2_unique_rating,1032510,Natchez,,52,,,4,,,,,,,,,,,,,,,
null,,confidence_buffer,1032612,confidence_buffer,,null,,,,,,,,,,,,,,,,,,
11475.599999997765,,probe_rating,1044089,probe_rating,,49,,,,1,1,,,,,,,,,,,,,
null,,confidence_buffer,1044196,confidence_buffer,,null,,,,,,,,,,,,,,,,,,
4069.89999999851,,pt2_memorable_rating,1048267,Natchez,,53,,,5,,,,,,,,,,,,,,,
null,,confidence_buffer,1048379,confidence_buffer,,null,,,,,,,,,,,,,,,,,,
2509.699999999255,,recognition_phase,1050890,Natchez,,49,,,,,,old,1,0.9259259259259259,,,,,,,,,,
null,,confidence_buffer,1050992,confidence_buffer,,null,,,,,,,,,,,,,,,,,,
null,,thebreak,1051493,break,,null,,,,,,,,,,,,,,,,,,
4354.20000000298,,realistic_rating,1055848,Rosehollow,,50,Rosehollow,Fictional,2,,,,,,,,,,,,,,,
null,,confidence_buffer,1055951,confidence_buffer,,null,,,,,,,,,,,,,,,,,,
3071.199999999255,,pt2_unique_rating,1059023,Rosehollow,,49,,,1,,,,,,,,,,,,,,,
null,,confidence_buffer,1059125,confidence_buffer,,null,,,,,,,,,,,,,,,,,,
2034.6000000014901,,pt2_memorable_rating,1061161,Rosehollow,,50,,,2,,,,,,,,,,,,,,,
null,,confidence_buffer,1061262,confidence_buffer,,null,,,,,,,,,,,,,,,,,,
1843.199999999255,,recognition_phase,1063106,Rosehollow,,52,,,,,,new,1,0.9285714285714286,,,,,,,,,,
null,,confidence_buffer,1063208,confidence_buffer,,null,,,,,,,,,,,,,,,,,,
null,,thebreak,1063723,break,,null,,,,,,,,,,,,,,,,,,
3413.39999999851,,realistic_rating,1067137,Elmsbury,,51,Elmsbury,Fictional,3,,,,,,,,,,,,,,,
null,,confidence_buffer,1067240,confidence_buffer,,null,,,,,,,,,,,,,,,,,,
7192.099999997765,,pt2_unique_rating,1074433,Elmsbury,,50,,,2,,,,,,,,,,,,,,,
null,,confidence_buffer,1074534,confidence_buffer,,null,,,,,,,,,,,,,,,,,,
2072.60000000149,,pt2_memorable_rating,1076607,Elmsbury,,51,,,3,,,,,,,,,,,,,,,
null,,confidence_buffer,1076708,confidence_buffer,,null,,,,,,,,,,,,,,,,,,
4302.89999999851,,recognition_phase,1081011,Elmsbury,,52,,,,,,new,0,0.896551724137931,,,,,,,,,,
null,,confidence_buffer,1081112,confidence_buffer,,null,,,,,,,,,,,,,,,,,,
null,,thebreak,1081613,break,,null,,,,,,,,,,,,,,,,,,
3580.199999999255,,realistic_rating,1085189,Cornwall,,51,Cornwall,US,3,,,,,,,,,,,,,,,
null,,confidence_buffer,1085305,confidence_buffer,,null,,,,,,,,,,,,,,,,,,
3424.5,,pt2_unique_rating,1088730,Cornwall,,50,,,2,,,,,,,,,,,,,,,
null,,confidence_buffer,1088831,confidence_buffer,,null,,,,,,,,,,,,,,,,,,
2148.89999999851,,pt2_memorable_rating,1090980,Cornwall,,51,,,3,,,,,,,,,,,,,,,
null,,confidence_buffer,1091082,confidence_buffer,,null,,,,,,,,,,,,,,,,,,
3386.39999999851,,recognition_phase,1094469,Cornwall,,49,,,,,,old,1,0.9,,,,,,,,,,
null,,confidence_buffer,1094570,confidence_buffer,,null,,,,,,,,,,,,,,,,,,
null,,thebreak,1095072,break,,null,,,,,,,,,,,,,,,,,,
4507.199999999255,,realistic_rating,1099580,Golden Trace,,51,Golden Trace,Fictional,3,,,,,,,,,,,,,,,
null,,confidence_buffer,1099682,confidence_buffer,,null,,,,,,,,,,,,,,,,,,
2034.300000000745,,pt2_unique_rating,1101717,Golden Trace,,53,,,5,,,,,,,,,,,,,,,
null,,confidence_buffer,1101818,confidence_buffer,,null,,,,,,,,,,,,,,,,,,
2923.699999999255,,pt2_memorable_rating,1104743,Golden Trace,,52,,,4,,,,,,,,,,,,,,,
null,,confidence_buffer,1104845,confidence_buffer,,null,,,,,,,,,,,,,,,,,,
3200.10000000149,,recognition_phase,1108045,Golden Trace,,52,,,,,,new,0,0.8709677419354839,,,,,,,,,,
null,,confidence_buffer,1108148,confidence_buffer,,null,,,,,,,,,,,,,,,,,,
null,,thebreak,1108650,break,,null,,,,,,,,,,,,,,,,,,
3289.800000000745,,realistic_rating,1111940,Duck,,52,Duck,US,4,,,,,,,,,,,,,,,
null,,confidence_buffer,1112042,confidence_buffer,,null,,,,,,,,,,,,,,,,,,
2068.900000002235,,pt2_unique_rating,1114112,Duck,,53,,,5,,,,,,,,,,,,,,,
null,,confidence_buffer,1114215,confidence_buffer,,null,,,,,,,,,,,,,,,,,,
2804.10000000149,,pt2_memorable_rating,1117020,Duck,,53,,,5,,,,,,,,,,,,,,,
null,,confidence_buffer,1117134,confidence_buffer,,null,,,,,,,,,,,,,,,,,,
2674.10000000149,,recognition_phase,1119810,Duck,,49,,,,,,old,1,0.875,,,,,,,,,,
null,,confidence_buffer,1119911,confidence_buffer,,null,,,,,,,,,,,,,,,,,,
null,,thebreak,1120412,break,,null,,,,,,,,,,,,,,,,,,
3112.300000000745,,realistic_rating,1123526,Cody,,53,Cody,US,5,,,,,,,,,,,,,,,
null,,confidence_buffer,1123630,confidence_buffer,,null,,,,,,,,,,,,,,,,,,
3589.900000002235,,pt2_unique_rating,1127220,Cody,,52,,,4,,,,,,,,,,,,,,,
null,,confidence_buffer,1127323,confidence_buffer,,null,,,,,,,,,,,,,,,,,,
2949.39999999851,,pt2_memorable_rating,1130273,Cody,,52,,,4,,,,,,,,,,,,,,,
null,,confidence_buffer,1130376,confidence_buffer,,null,,,,,,,,,,,,,,,,,,
2091.400000002235,,recognition_phase,1132468,Cody,,49,,,,,,old,1,0.8787878787878788,,,,,,,,,,
null,,confidence_buffer,1132571,confidence_buffer,,null,,,,,,,,,,,,,,,,,,
null,,thebreak,1133072,break,,null,,,,,,,,,,,,,,,,,,
3717.10000000149,,realistic_rating,1136790,Summershade,,49,Summershade,Fictional,1,,,,,,,,,,,,,,,
null,,confidence_buffer,1136903,confidence_buffer,,null,,,,,,,,,,,,,,,,,,
3049.10000000149,,pt2_unique_rating,1139953,Summershade,,52,,,4,,,,,,,,,,,,,,,
null,,confidence_buffer,1140055,confidence_buffer,,null,,,,,,,,,,,,,,,,,,
2445,,pt2_memorable_rating,1142501,Summershade,,52,,,4,,,,,,,,,,,,,,,
null,,confidence_buffer,1142603,confidence_buffer,,null,,,,,,,,,,,,,,,,,,
2260,,recognition_phase,1144864,Summershade,,52,,,,,,new,1,0.8823529411764706,,,,,,,,,,
null,,confidence_buffer,1144978,confidence_buffer,,null,,,,,,,,,,,,,,,,,,
null,,thebreak,1145475,break,,null,,,,,,,,,,,,,,,,,,
3860.199999999255,,realistic_rating,1149336,Peoria,,53,Peoria,US,5,,,,,,,,,,,,,,,
null,,confidence_buffer,1149437,confidence_buffer,,null,,,,,,,,,,,,,,,,,,
2976,,pt2_unique_rating,1152414,Peoria,,49,,,1,,,,,,,,,,,,,,,
null,,confidence_buffer,1152515,confidence_buffer,,null,,,,,,,,,,,,,,,,,,
2004.800000000745,,pt2_memorable_rating,1154521,Peoria,,50,,,2,,,,,,,,,,,,,,,
null,,confidence_buffer,1154623,confidence_buffer,,null,,,,,,,,,,,,,,,,,,
2342.2999999970198,,recognition_phase,1156966,Peoria,,52,,,,,,new,1,0.8857142857142857,,,,,,,,,,
null,,confidence_buffer,1157068,confidence_buffer,,null,,,,,,,,,,,,,,,,,,
null,,thebreak,1157571,break,,null,,,,,,,,,,,,,,,,,,
5283.70000000298,,realistic_rating,1162856,Delaro Park,,51,Delaro Park,Fictional,3,,,,,,,,,,,,,,,
null,,confidence_buffer,1162958,confidence_buffer,,null,,,,,,,,,,,,,,,,,,
2933.300000000745,,pt2_unique_rating,1165892,Delaro Park,,50,,,2,,,,,,,,,,,,,,,
null,,confidence_buffer,1165994,confidence_buffer,,null,,,,,,,,,,,,,,,,,,
1631.199999999255,,pt2_memorable_rating,1167626,Delaro Park,,49,,,1,,,,,,,,,,,,,,,
null,,confidence_buffer,1167728,confidence_buffer,,null,,,,,,,,,,,,,,,,,,
2739.199999999255,,recognition_phase,1170468,Delaro Park,,52,,,,,,new,1,0.8888888888888888,,,,,,,,,,
null,,confidence_buffer,1170569,confidence_buffer,,null,,,,,,,,,,,,,,,,,,
null,,thebreak,1171071,break,,null,,,,,,,,,,,,,,,,,,
2926.7000000029802,,realistic_rating,1173999,Boulder,,53,Boulder,US,5,,,,,,,,,,,,,,,
null,,confidence_buffer,1174101,confidence_buffer,,null,,,,,,,,,,,,,,,,,,
2319.800000000745,,pt2_unique_rating,1176422,Boulder,,52,,,4,,,,,,,,,,,,,,,
null,,confidence_buffer,1176522,confidence_buffer,,null,,,,,,,,,,,,,,,,,,
2299.60000000149,,pt2_memorable_rating,1178823,Boulder,,52,,,4,,,,,,,,,,,,,,,
null,,confidence_buffer,1178924,confidence_buffer,,null,,,,,,,,,,,,,,,,,,
2933.5,,recognition_phase,1181859,Boulder,,49,,,,,,old,1,0.8918918918918919,,,,,,,,,,
null,,confidence_buffer,1181962,confidence_buffer,,null,,,,,,,,,,,,,,,,,,
null,,thebreak,1182463,break,,null,,,,,,,,,,,,,,,,,,
3256.400000002235,,realistic_rating,1185722,Lakehaven,,51,Lakehaven,Fictional,3,,,,,,,,,,,,,,,
null,,confidence_buffer,1185823,confidence_buffer,,null,,,,,,,,,,,,,,,,,,
2056.10000000149,,pt2_unique_rating,1187880,Lakehaven,,50,,,2,,,,,,,,,,,,,,,
null,,confidence_buffer,1187982,confidence_buffer,,null,,,,,,,,,,,,,,,,,,
2310.60000000149,,pt2_memorable_rating,1190293,Lakehaven,,50,,,2,,,,,,,,,,,,,,,
null,,confidence_buffer,1190394,confidence_buffer,,null,,,,,,,,,,,,,,,,,,
1856.8999999985099,,probe_rating,1192252,probe_rating,,51,,,,3,1,,,,,,,,,,,,,
null,,confidence_buffer,1192354,confidence_buffer,,null,,,,,,,,,,,,,,,,,,
3656.900000002235,,recognition_phase,1196011,Lakehaven,,50,,,,,,old,1,0.8947368421052632,,,,,,,,,,
null,,confidence_buffer,1196113,confidence_buffer,,null,,,,,,,,,,,,,,,,,,
null,,thebreak,1196614,break,,null,,,,,,,,,,,,,,,,,,
3510.199999999255,,realistic_rating,1200125,Tamarisk Hills,,51,Tamarisk Hills,Fictional,3,,,,,,,,,,,,,,,
null,,confidence_buffer,1200226,confidence_buffer,,null,,,,,,,,,,,,,,,,,,
2843.5,,pt2_unique_rating,1203071,Tamarisk Hills,,51,,,3,,,,,,,,,,,,,,,
null,,confidence_buffer,1203172,confidence_buffer,,null,,,,,,,,,,,,,,,,,,
4565.800000000745,,pt2_memorable_rating,1207734,Tamarisk Hills,,52,,,4,,,,,,,,,,,,,,,
null,,confidence_buffer,1207847,confidence_buffer,,null,,,,,,,,,,,,,,,,,,
2853.10000000149,,recognition_phase,1210701,Tamarisk Hills,,50,,,,,,old,1,0.8974358974358975,,,,,,,,,,
null,,confidence_buffer,1210803,confidence_buffer,,null,,,,,,,,,,,,,,,,,,
null,,thebreak,1211304,break,,null,,,,,,,,,,,,,,,,,,
1800.3999999985099,,realistic_rating,1213106,Shreveport,,53,Shreveport,US,5,,,,,,,,,,,,,,,
null,,confidence_buffer,1213208,confidence_buffer,,null,,,,,,,,,,,,,,,,,,
5233.300000000745,,pt2_unique_rating,1218442,Shreveport,,53,,,5,,,,,,,,,,,,,,,
null,,confidence_buffer,1218547,confidence_buffer,,null,,,,,,,,,,,,,,,,,,
1842.199999999255,,pt2_memorable_rating,1220390,Shreveport,,53,,,5,,,,,,,,,,,,,,,
null,,confidence_buffer,1220492,confidence_buffer,,null,,,,,,,,,,,,,,,,,,
2034.8999999985099,,recognition_phase,1222528,Shreveport,,52,,,,,,new,1,0.9,,,,,,,,,,
null,,confidence_buffer,1222630,confidence_buffer,,null,,,,,,,,,,,,,,,,,,
null,,thebreak,1223133,break,,null,,,,,,,,,,,,,,,,,,
3921,,realistic_rating,1227055,Crestwood,,51,Crestwood,Fictional,3,,,,,,,,,,,,,,,
null,,confidence_buffer,1227157,confidence_buffer,,null,,,,,,,,,,,,,,,,,,
2697.599999997765,,pt2_unique_rating,1229856,Crestwood,,52,,,4,,,,,,,,,,,,,,,
null,,confidence_buffer,1229958,confidence_buffer,,null,,,,,,,,,,,,,,,,,,
1735.5,,pt2_memorable_rating,1231695,Crestwood,,52,,,4,,,,,,,,,,,,,,,
null,,confidence_buffer,1231797,confidence_buffer,,null,,,,,,,,,,,,,,,,,,
2919.300000000745,,recognition_phase,1234717,Crestwood,,52,,,,,,new,0,0.8780487804878049,,,,,,,,,,
null,,confidence_buffer,1234819,confidence_buffer,,null,,,,,,,,,,,,,,,,,,
null,,thebreak,1235321,break,,null,,,,,,,,,,,,,,,,,,
2612.099999997765,,realistic_rating,1237935,Hollendale,,50,Hollendale,Fictional,2,,,,,,,,,,,,,,,
null,,confidence_buffer,1238036,confidence_buffer,,null,,,,,,,,,,,,,,,,,,
4626.699999999255,,pt2_unique_rating,1242664,Hollendale,,51,,,3,,,,,,,,,,,,,,,
null,,confidence_buffer,1242765,confidence_buffer,,null,,,,,,,,,,,,,,,,,,
2032.5,,pt2_memorable_rating,1244799,Hollendale,,50,,,2,,,,,,,,,,,,,,,
null,,confidence_buffer,1244902,confidence_buffer,,null,,,,,,,,,,,,,,,,,,
3840,,recognition_phase,1248743,Hollendale,,52,,,,,,new,0,0.8571428571428571,,,,,,,,,,
null,,confidence_buffer,1248844,confidence_buffer,,null,,,,,,,,,,,,,,,,,,
null,,thebreak,1249347,break,,null,,,,,,,,,,,,,,,,,,
5366.39999999851,,realistic_rating,1254714,Hanover,,51,Hanover,US,3,,,,,,,,,,,,,,,
null,,confidence_buffer,1254819,confidence_buffer,,null,,,,,,,,,,,,,,,,,,
4507.20000000298,,pt2_unique_rating,1259327,Hanover,,50,,,2,,,,,,,,,,,,,,,
null,,confidence_buffer,1259429,confidence_buffer,,null,,,,,,,,,,,,,,,,,,
1545.5999999977648,,pt2_memorable_rating,1260976,Hanover,,49,,,1,,,,,,,,,,,,,,,
null,,confidence_buffer,1261077,confidence_buffer,,null,,,,,,,,,,,,,,,,,,
4836.5,,recognition_phase,1265914,Hanover,,51,,,,,,new,1,0.8604651162790697,,,,,,,,,,
null,,confidence_buffer,1266029,confidence_buffer,,null,,,,,,,,,,,,,,,,,,
null,,thebreak,1266531,break,,null,,,,,,,,,,,,,,,,,,
3389.900000002235,,realistic_rating,1269917,Berkeley Springs,,52,Berkeley Springs,US,4,,,,,,,,,,,,,,,
null,,confidence_buffer,1270019,confidence_buffer,,null,,,,,,,,,,,,,,,,,,
2207.900000002235,,pt2_unique_rating,1272228,Berkeley Springs,,53,,,5,,,,,,,,,,,,,,,
null,,confidence_buffer,1272331,confidence_buffer,,null,,,,,,,,,,,,,,,,,,
1847.199999999255,,probe_rating,1274178,probe_rating,,50,,,,2,1,,,,,,,,,,,,,
null,,confidence_buffer,1274281,confidence_buffer,,null,,,,,,,,,,,,,,,,,,
6904.5,,pt2_memorable_rating,1281186,Berkeley Springs,,49,,,1,,,,,,,,,,,,,,,
null,,confidence_buffer,1281289,confidence_buffer,,null,,,,,,,,,,,,,,,,,,
5157.800000000745,,recognition_phase,1286447,Berkeley Springs,,49,,,,,,old,1,0.8636363636363636,,,,,,,,,,
null,,confidence_buffer,1286550,confidence_buffer,,null,,,,,,,,,,,,,,,,,,
null,,thebreak,1287052,break,,null,,,,,,,,,,,,,,,,,,
5351.699999999255,,realistic_rating,1292405,Ironwood Heights,,49,Ironwood Heights,Fictional,1,,,,,,,,,,,,,,,
null,,confidence_buffer,1292507,confidence_buffer,,null,,,,,,,,,,,,,,,,,,
6392.39999999851,,pt2_unique_rating,1298900,Ironwood Heights,,51,,,3,,,,,,,,,,,,,,,
null,,confidence_buffer,1299002,confidence_buffer,,null,,,,,,,,,,,,,,,,,,
1287.1000000014901,,pt2_memorable_rating,1300289,Ironwood Heights,,52,,,4,,,,,,,,,,,,,,,
null,,confidence_buffer,1300392,confidence_buffer,,null,,,,,,,,,,,,,,,,,,
3135.699999999255,,recognition_phase,1303528,Ironwood Heights,,52,,,,,,new,1,0.8666666666666667,,,,,,,,,,
null,,confidence_buffer,1303630,confidence_buffer,,null,,,,,,,,,,,,,,,,,,
null,,thebreak,1304131,break,,null,,,,,,,,,,,,,,,,,,
3365.099999997765,,realistic_rating,1307497,Bisbee,,53,Bisbee,US,5,,,,,,,,,,,,,,,
null,,confidence_buffer,1307599,confidence_buffer,,null,,,,,,,,,,,,,,,,,,
2444.5,,pt2_unique_rating,1310044,Bisbee,,52,,,4,,,,,,,,,,,,,,,
null,,confidence_buffer,1310145,confidence_buffer,,null,,,,,,,,,,,,,,,,,,
2934.5,,pt2_memorable_rating,1313080,Bisbee,,51,,,3,,,,,,,,,,,,,,,
null,,confidence_buffer,1313182,confidence_buffer,,null,,,,,,,,,,,,,,,,,,
2092.10000000149,,recognition_phase,1315275,Bisbee,,49,,,,,,old,1,0.8695652173913043,,,,,,,,,,
null,,confidence_buffer,1315376,confidence_buffer,,null,,,,,,,,,,,,,,,,,,
null,,thebreak,1315878,break,,null,,,,,,,,,,,,,,,,,,
2802.099999997765,,realistic_rating,1318681,Fairhaven,,51,Fairhaven,Fictional,3,,,,,,,,,,,,,,,
null,,confidence_buffer,1318783,confidence_buffer,,null,,,,,,,,,,,,,,,,,,
4370.599999997765,,pt2_unique_rating,1323154,Fairhaven,,49,,,1,,,,,,,,,,,,,,,
null,,confidence_buffer,1323256,confidence_buffer,,null,,,,,,,,,,,,,,,,,,
2214.5,,pt2_memorable_rating,1325471,Fairhaven,,49,,,1,,,,,,,,,,,,,,,
null,,confidence_buffer,1325574,confidence_buffer,,null,,,,,,,,,,,,,,,,,,
2028.5,,recognition_phase,1327603,Fairhaven,,52,,,,,,new,1,0.8723404255319149,,,,,,,,,,
null,,confidence_buffer,1327705,confidence_buffer,,null,,,,,,,,,,,,,,,,,,
null,,thebreak,1328218,break,,null,,,,,,,,,,,,,,,,,,
2903.2999999970198,,realistic_rating,1331118,San Antonio,,53,San Antonio,US,5,,,,,,,,,,,,,,,
null,,confidence_buffer,1331220,confidence_buffer,,null,,,,,,,,,,,,,,,,,,
4073.10000000149,,pt2_unique_rating,1335294,San Antonio,,51,,,3,,,,,,,,,,,,,,,
null,,confidence_buffer,1335397,confidence_buffer,,null,,,,,,,,,,,,,,,,,,
3482.39999999851,,pt2_memorable_rating,1338881,San Antonio,,52,,,4,,,,,,,,,,,,,,,
null,,confidence_buffer,1338982,confidence_buffer,,null,,,,,,,,,,,,,,,,,,
2358.89999999851,,recognition_phase,1341342,San Antonio,,52,,,,,,new,1,0.875,,,,,,,,,,
null,,confidence_buffer,1341450,confidence_buffer,,null,,,,,,,,,,,,,,,,,,
null,,thebreak,1341952,break,,null,,,,,,,,,,,,,,,,,,
3608.800000000745,,realistic_rating,1345562,Abilene,,53,Abilene,US,5,,,,,,,,,,,,,,,
null,,confidence_buffer,1345664,confidence_buffer,,null,,,,,,,,,,,,,,,,,,
2067.5,,probe_rating,1347732,probe_rating,,53,,,,5,1,,,,,,,,,,,,,
null,,confidence_buffer,1347834,confidence_buffer,,null,,,,,,,,,,,,,,,,,,
3440.5,,pt2_unique_rating,1351276,Abilene,,52,,,4,,,,,,,,,,,,,,,
null,,confidence_buffer,1351377,confidence_buffer,,null,,,,,,,,,,,,,,,,,,
2355.099999997765,,pt2_memorable_rating,1353733,Abilene,,51,,,3,,,,,,,,,,,,,,,
null,,confidence_buffer,1353835,confidence_buffer,,null,,,,,,,,,,,,,,,,,,
2669,,recognition_phase,1356505,Abilene,,49,,,,,,old,1,0.8775510204081632,,,,,,,,,,
null,,confidence_buffer,1356607,confidence_buffer,,null,,,,,,,,,,,,,,,,,,
null,,thebreak,1357109,break,,null,,,,,,,,,,,,,,,,,,
2776,,realistic_rating,1359886,Cape May,,52,Cape May,US,4,,,,,,,,,,,,,,,
null,,confidence_buffer,1359988,confidence_buffer,,null,,,,,,,,,,,,,,,,,,
1913.1000000014901,,pt2_unique_rating,1361902,Cape May,,51,,,3,,,,,,,,,,,,,,,
null,,confidence_buffer,1362004,confidence_buffer,,null,,,,,,,,,,,,,,,,,,
3165.099999997765,,pt2_memorable_rating,1365170,Cape May,,51,,,3,,,,,,,,,,,,,,,
null,,confidence_buffer,1365275,confidence_buffer,,null,,,,,,,,,,,,,,,,,,
1985.4000000022352,,recognition_phase,1367261,Cape May,,49,,,,,,old,1,0.88,,,,,,,,,,
null,,confidence_buffer,1367363,confidence_buffer,,null,,,,,,,,,,,,,,,,,,
null,,thebreak,1367864,break,,null,,,,,,,,,,,,,,,,,,
6499.199999999255,,realistic_rating,1374366,Medora,,50,Medora,US,2,,,,,,,,,,,,,,,
null,,confidence_buffer,1374467,confidence_buffer,,null,,,,,,,,,,,,,,,,,,
5842.199999999255,,pt2_unique_rating,1380310,Medora,,51,,,3,,,,,,,,,,,,,,,
null,,confidence_buffer,1380410,confidence_buffer,,null,,,,,,,,,,,,,,,,,,
5275.10000000149,,pt2_memorable_rating,1385687,Medora,,50,,,2,,,,,,,,,,,,,,,
null,,confidence_buffer,1385789,confidence_buffer,,null,,,,,,,,,,,,,,,,,,
13102.70000000298,,recognition_phase,1398887,Medora,,50,,,,,,old,0,0.8627450980392157,,,,,,,,,,
null,,confidence_buffer,1398989,confidence_buffer,,null,,,,,,,,,,,,,,,,,,
null,,thebreak,1399492,break,,null,,,,,,,,,,,,,,,,,,
3511.39999999851,,realistic_rating,1403003,Healdsburg,,52,Healdsburg,US,4,,,,,,,,,,,,,,,
null,,confidence_buffer,1403105,confidence_buffer,,null,,,,,,,,,,,,,,,,,,
1973.0999999977648,,pt2_unique_rating,1405079,Healdsburg,,53,,,5,,,,,,,,,,,,,,,
null,,confidence_buffer,1405182,confidence_buffer,,null,,,,,,,,,,,,,,,,,,
2579.300000000745,,pt2_memorable_rating,1407762,Healdsburg,,52,,,4,,,,,,,,,,,,,,,
null,,confidence_buffer,1407864,confidence_buffer,,null,,,,,,,,,,,,,,,,,,
2887.7999999970198,,recognition_phase,1410753,Healdsburg,,52,,,,,,new,1,0.8653846153846154,,,,,,,,,,
null,,confidence_buffer,1410855,confidence_buffer,,null,,,,,,,,,,,,,,,,,,
null,,thebreak,1411357,break,,null,,,,,,,,,,,,,,,,,,
4612.900000002235,,realistic_rating,1415971,Falconridge,,50,Falconridge,Fictional,2,,,,,,,,,,,,,,,
null,,confidence_buffer,1416073,confidence_buffer,,null,,,,,,,,,,,,,,,,,,
2907.599999997765,,pt2_unique_rating,1418981,Falconridge,,51,,,3,,,,,,,,,,,,,,,
null,,confidence_buffer,1419082,confidence_buffer,,null,,,,,,,,,,,,,,,,,,
1947.3999999985099,,pt2_memorable_rating,1421031,Falconridge,,52,,,4,,,,,,,,,,,,,,,
null,,confidence_buffer,1421134,confidence_buffer,,null,,,,,,,,,,,,,,,,,,
3541,,recognition_phase,1424676,Falconridge,,51,,,,,,new,0,0.8490566037735849,,,,,,,,,,
null,,confidence_buffer,1424778,confidence_buffer,,null,,,,,,,,,,,,,,,,,,
null,,thebreak,1425280,break,,null,,,,,,,,,,,,,,,,,,
3180.199999999255,,realistic_rating,1428462,Barnard,,51,Barnard,US,3,,,,,,,,,,,,,,,
null,,confidence_buffer,1428567,confidence_buffer,,null,,,,,,,,,,,,,,,,,,
5443.699999999255,,pt2_unique_rating,1434011,Barnard,,49,,,1,,,,,,,,,,,,,,,
null,,confidence_buffer,1434113,confidence_buffer,,null,,,,,,,,,,,,,,,,,,
12111.400000002235,,pt2_memorable_rating,1446225,Barnard,,49,,,1,,,,,,,,,,,,,,,
null,,confidence_buffer,1446327,confidence_buffer,,null,,,,,,,,,,,,,,,,,,
4101.10000000149,,recognition_phase,1450429,Barnard,,52,,,,,,new,1,0.8518518518518519,,,,,,,,,,
null,,confidence_buffer,1450531,confidence_buffer,,null,,,,,,,,,,,,,,,,,,
null,,thebreak,1451033,break,,null,,,,,,,,,,,,,,,,,,
3121.699999999255,,realistic_rating,1454155,Silverpine,,50,Silverpine,Fictional,2,,,,,,,,,,,,,,,
null,,confidence_buffer,1454256,confidence_buffer,,null,,,,,,,,,,,,,,,,,,
2460.89999999851,,pt2_unique_rating,1456718,Silverpine,,52,,,4,,,,,,,,,,,,,,,
null,,confidence_buffer,1456819,confidence_buffer,,null,,,,,,,,,,,,,,,,,,
2601.2000000029802,,pt2_memorable_rating,1459416,Silverpine,,52,,,4,,,,,,,,,,,,,,,
null,,confidence_buffer,1459518,confidence_buffer,,null,,,,,,,,,,,,,,,,,,
2030.800000000745,,recognition_phase,1461549,Silverpine,,52,,,,,,new,1,0.8545454545454545,,,,,,,,,,
null,,confidence_buffer,1461651,confidence_buffer,,null,,,,,,,,,,,,,,,,,,
null,,thebreak,1462153,break,,null,,,,,,,,,,,,,,,,,,
3385.5,,realistic_rating,1465539,Driftwood Bay,,49,Driftwood Bay,Fictional,1,,,,,,,,,,,,,,,
null,,confidence_buffer,1465643,confidence_buffer,,null,,,,,,,,,,,,,,,,,,
2068.5,,pt2_unique_rating,1467713,Driftwood Bay,,52,,,4,,,,,,,,,,,,,,,
null,,confidence_buffer,1467814,confidence_buffer,,null,,,,,,,,,,,,,,,,,,
1739,,pt2_memorable_rating,1469555,Driftwood Bay,,53,,,5,,,,,,,,,,,,,,,
null,,confidence_buffer,1469657,confidence_buffer,,null,,,,,,,,,,,,,,,,,,
2244,,recognition_phase,1471902,Driftwood Bay,,52,,,,,,new,1,0.8571428571428571,,,,,,,,,,
null,,confidence_buffer,1472004,confidence_buffer,,null,,,,,,,,,,,,,,,,,,
null,,thebreak,1472505,break,,null,,,,,,,,,,,,,,,,,,
2840.7000000029802,,realistic_rating,1475347,Riverlyn,,50,Riverlyn,Fictional,2,,,,,,,,,,,,,,,
null,,confidence_buffer,1475449,confidence_buffer,,null,,,,,,,,,,,,,,,,,,
2412.2999999970198,,pt2_unique_rating,1477862,Riverlyn,,52,,,4,,,,,,,,,,,,,,,
null,,confidence_buffer,1477962,confidence_buffer,,null,,,,,,,,,,,,,,,,,,
1984.8999999985099,,pt2_memorable_rating,1479948,Riverlyn,,50,,,2,,,,,,,,,,,,,,,
null,,confidence_buffer,1480050,confidence_buffer,,null,,,,,,,,,,,,,,,,,,
2710.10000000149,,recognition_phase,1482761,Riverlyn,,52,,,,,,new,1,0.8596491228070176,,,,,,,,,,
null,,confidence_buffer,1482870,confidence_buffer,,null,,,,,,,,,,,,,,,,,,
null,,thebreak,1483372,break,,null,,,,,,,,,,,,,,,,,,
3631.199999999255,,realistic_rating,1487004,Gloucester,,53,Gloucester,US,5,,,,,,,,,,,,,,,
null,,confidence_buffer,1487105,confidence_buffer,,null,,,,,,,,,,,,,,,,,,
2521.199999999255,,pt2_unique_rating,1489627,Gloucester,,50,,,2,,,,,,,,,,,,,,,
null,,confidence_buffer,1489729,confidence_buffer,,null,,,,,,,,,,,,,,,,,,
2272.5,,probe_rating,1492002,probe_rating,,50,,,,2,1,,,,,,,,,,,,,
null,,confidence_buffer,1492105,confidence_buffer,,null,,,,,,,,,,,,,,,,,,
3905.699999999255,,pt2_memorable_rating,1496011,Gloucester,,50,,,2,,,,,,,,,,,,,,,
null,,confidence_buffer,1496113,confidence_buffer,,null,,,,,,,,,,,,,,,,,,
2983.60000000149,,recognition_phase,1499097,Gloucester,,50,,,,,,old,1,0.8620689655172413,,,,,,,,,,
null,,confidence_buffer,1499198,confidence_buffer,,null,,,,,,,,,,,,,,,,,,
null,,thebreak,1499700,break,,null,,,,,,,,,,,,,,,,,,
3277.699999999255,,realistic_rating,1502978,Millstone,,51,Millstone,Fictional,3,,,,,,,,,,,,,,,
null,,confidence_buffer,1503081,confidence_buffer,,null,,,,,,,,,,,,,,,,,,
2557.099999997765,,pt2_unique_rating,1505639,Millstone,,50,,,2,,,,,,,,,,,,,,,
null,,confidence_buffer,1505741,confidence_buffer,,null,,,,,,,,,,,,,,,,,,
1697.7999999970198,,pt2_memorable_rating,1507440,Millstone,,49,,,1,,,,,,,,,,,,,,,
null,,confidence_buffer,1507542,confidence_buffer,,null,,,,,,,,,,,,,,,,,,
4835.39999999851,,recognition_phase,1512378,Millstone,,51,,,,,,new,0,0.847457627118644,,,,,,,,,,
null,,confidence_buffer,1512480,confidence_buffer,,null,,,,,,,,,,,,,,,,,,
null,,thebreak,1512982,break,,null,,,,,,,,,,,,,,,,,,
2781.800000000745,,realistic_rating,1515764,West Talora,,49,West Talora,Fictional,1,,,,,,,,,,,,,,,
null,,confidence_buffer,1515867,confidence_buffer,,null,,,,,,,,,,,,,,,,,,
3725.400000002235,,pt2_unique_rating,1519588,West Talora,,50,,,2,,,,,,,,,,,,,,,
null,,confidence_buffer,1519690,confidence_buffer,,null,,,,,,,,,,,,,,,,,,
2191.099999997765,,pt2_memorable_rating,1521883,West Talora,,49,,,1,,,,,,,,,,,,,,,
null,,confidence_buffer,1521985,confidence_buffer,,null,,,,,,,,,,,,,,,,,,
1538.0999999977648,,recognition_phase,1523524,West Talora,,52,,,,,,new,1,0.85,,,,,,,,,,
null,,confidence_buffer,1523626,confidence_buffer,,null,,,,,,,,,,,,,,,,,,
null,,thebreak,1524143,break,,null,,,,,,,,,,,,,,,,,,
,,survey,1937056,survey-questions,,,,,,,,,,,none,high,No I wasn't,I tried to remember if I'd ever heard of them before. The ones I hadn't I had to make a subjective choice. Also, I didn't know there was going to be a part 2, so I didn't attempt to memorize my answers. In parts 1 and 2 my answers were my first inclination.,If I had heard of the location, thought I had, or maybe had.,Was it a name that would stick in my mind if I were to be asked tomorrow if I'd heard of the city,Are there, or could there be, towns or cities with similar names,Does it sound like a name that could really exist? Or does it sound unrealistic,No - not at all,Not boring, and was very interesting
