,rt,trial_type,time_elapsed,sequence,stimulus,key_press,stimulus_left,stimulus_right,accuracy,cumulative_accuracy,stimulus_correct,condition,specific_pairs,partid
2723,2880.300000011921,shortestpath_phase,1350749,blocked,GW/racine.png,49.0,GW/hotsprings.png,GW/leesburg.png,1.0,1.0,GW/hotsprings.png,Three Edge Diff,Two Edge Five Edge,560ce65601c38a0012769e20
2725,1789.5,shortestpath_phase,1353541,blocked,GW/gatlinburg.png,50.0,GW/racine.png,GW/peoria.png,1.0,1.0,GW/peoria.png,One Edge Diff,Two Edge Three Edge,560ce65601c38a0012769e20
2727,3055.5,shortestpath_phase,1357599,blocked,GW/carmel.png,50.0,GW/shreveport.png,GW/racine.png,0.0,0.6666666666666666,GW/shreveport.png,Four Edge Diff,Two Edge Six Edge,560ce65601c38a0012769e20
2729,2112.4000000059605,shortestpath_phase,1360714,blocked,GW/racine.png,49.0,GW/hanover.png,GW/hotsprings.png,0.0,0.5,GW/hotsprings.png,Four Edge Diff,Two Edge Six Edge,560ce65601c38a0012769e20
2731,3289.5999999940395,shortestpath_phase,1365006,blocked,GW/peoria.png,50.0,GW/shreveport.png,GW/hanover.png,0.0,0.4,GW/shreveport.png,One Edge Diff,Four Edge Five Edge,560ce65601c38a0012769e20
2733,1940.7000000178816,shortestpath_phase,1367948,blocked,GW/carmel.png,49.0,GW/hotsprings.png,GW/newhope.png,1.0,0.5,GW/hotsprings.png,Two Edge Diff,Four Edge Six Edge,560ce65601c38a0012769e20
2735,2859.800000011921,shortestpath_phase,1371811,blocked,GW/hanover.png,50.0,GW/racine.png,GW/cornwall.png,1.0,0.5714285714285714,GW/cornwall.png,Four Edge Diff,Two Edge Six Edge,560ce65601c38a0012769e20
2737,2831.4000000059605,shortestpath_phase,1375645,blocked,GW/newhope.png,49.0,GW/leesburg.png,GW/hotsprings.png,0.0,0.5,GW/hotsprings.png,Two Edge Diff,Three Edge Five Edge,560ce65601c38a0012769e20
2739,2014.4000000059605,shortestpath_phase,1378661,blocked,GW/carmel.png,49.0,GW/shreveport.png,GW/peoria.png,1.0,0.5555555555555556,GW/shreveport.png,Three Edge Diff,Two Edge Five Edge,560ce65601c38a0012769e20
2741,3331.0999999940395,shortestpath_phase,1382995,blocked,GW/hanover.png,50.0,GW/huntsville.png,GW/racine.png,0.0,0.5,GW/huntsville.png,Four Edge Diff,Two Edge Six Edge,560ce65601c38a0012769e20
2743,3575.7000000178814,shortestpath_phase,1387572,blocked,GW/carmel.png,50.0,GW/cornwall.png,GW/racine.png,0.0,0.4545454545454545,GW/cornwall.png,Four Edge Diff,Two Edge Six Edge,560ce65601c38a0012769e20
2745,2689.9000000059605,shortestpath_phase,1391264,blocked,GW/hanover.png,49.0,GW/leesburg.png,GW/peoria.png,1.0,0.5,GW/leesburg.png,Three Edge Diff,Two Edge Five Edge,560ce65601c38a0012769e20
2747,2610.0,shortestpath_phase,1394877,blocked,GW/newhope.png,49.0,GW/gatlinburg.png,GW/hanover.png,1.0,0.5384615384615384,GW/gatlinburg.png,Two Edge Diff,Three Edge Five Edge,560ce65601c38a0012769e20
2749,2370.800000011921,shortestpath_phase,1398250,blocked,GW/leesburg.png,50.0,GW/racine.png,GW/peoria.png,1.0,0.5714285714285714,GW/peoria.png,One Edge Diff,Four Edge Five Edge,560ce65601c38a0012769e20
2751,2659.800000011921,shortestpath_phase,1401912,blocked,GW/carmel.png,50.0,GW/boulder.png,GW/shreveport.png,1.0,0.6,GW/shreveport.png,Three Edge Diff,Three Edge Six Edge,560ce65601c38a0012769e20
2753,3192.9000000059605,shortestpath_phase,1406108,blocked,GW/peoria.png,50.0,GW/newhope.png,GW/shreveport.png,0.0,0.5625,GW/newhope.png,Two Edge Diff,Two Edge Four Edge,560ce65601c38a0012769e20
2755,3390.9000000059605,shortestpath_phase,1410501,blocked,GW/leesburg.png,50.0,GW/boulder.png,GW/hanover.png,1.0,0.5882352941176471,GW/hanover.png,Two Edge Diff,Two Edge Four Edge,560ce65601c38a0012769e20
2757,2957.800000011921,shortestpath_phase,1414461,blocked,GW/peoria.png,50.0,GW/carmel.png,GW/westpalmbeach.png,1.0,0.6111111111111112,GW/westpalmbeach.png,Three Edge Diff,Three Edge Six Edge,560ce65601c38a0012769e20
2759,2789.9000000059605,shortestpath_phase,1418253,blocked,GW/hanover.png,49.0,GW/huntsville.png,GW/gatlinburg.png,1.0,0.631578947368421,GW/huntsville.png,One Edge Diff,Two Edge Three Edge,560ce65601c38a0012769e20
2761,3543.5,shortestpath_phase,1422798,blocked,GW/peoria.png,50.0,GW/shreveport.png,GW/gatlinburg.png,1.0,0.65,GW/gatlinburg.png,Two Edge Diff,Two Edge Four Edge,560ce65601c38a0012769e20
2763,3071.699999988079,shortestpath_phase,1426872,blocked,GW/hanover.png,49.0,GW/westpalmbeach.png,GW/hotsprings.png,1.0,0.6666666666666666,GW/westpalmbeach.png,One Edge Diff,Three Edge Four Edge,560ce65601c38a0012769e20
2765,2697.7000000178814,shortestpath_phase,1430573,blocked,GW/newhope.png,49.0,GW/peoria.png,GW/leesburg.png,1.0,0.6818181818181818,GW/peoria.png,Three Edge Diff,Three Edge Six Edge,560ce65601c38a0012769e20
2767,3451.800000011921,shortestpath_phase,1435027,blocked,GW/carmel.png,49.0,GW/gatlinburg.png,GW/westpalmbeach.png,1.0,0.6956521739130435,GW/gatlinburg.png,One Edge Diff,Three Edge Four Edge,560ce65601c38a0012769e20
2769,2705.699999988079,shortestpath_phase,1438736,blocked,GW/racine.png,49.0,GW/carmel.png,GW/cornwall.png,0.0,0.6666666666666666,GW/cornwall.png,Two Edge Diff,Four Edge Six Edge,560ce65601c38a0012769e20
2771,2496.300000011921,shortestpath_phase,1442234,blocked,GW/carmel.png,49.0,GW/shreveport.png,GW/newhope.png,1.0,0.68,GW/shreveport.png,Four Edge Diff,Two Edge Six Edge,560ce65601c38a0012769e20
2773,2941.300000011921,shortestpath_phase,1446178,blocked,GW/peoria.png,49.0,GW/gatlinburg.png,GW/hanover.png,1.0,0.6923076923076923,GW/gatlinburg.png,Three Edge Diff,Three Edge Six Edge,560ce65601c38a0012769e20
2775,3479.7000000178814,shortestpath_phase,1450660,blocked,GW/hanover.png,49.0,GW/peoria.png,GW/huntsville.png,0.0,0.6666666666666666,GW/huntsville.png,Three Edge Diff,Three Edge Six Edge,560ce65601c38a0012769e20
2777,4425.300000011921,shortestpath_phase,1456089,blocked,GW/peoria.png,50.0,GW/westpalmbeach.png,GW/hanover.png,0.0,0.6428571428571429,GW/westpalmbeach.png,Three Edge Diff,Two Edge Five Edge,560ce65601c38a0012769e20
2779,1772.9000000059605,shortestpath_phase,1458865,blocked,GW/hanover.png,50.0,GW/racine.png,GW/boulder.png,1.0,0.6551724137931034,GW/boulder.png,Two Edge Diff,Four Edge Six Edge,560ce65601c38a0012769e20
2781,1529.300000011921,shortestpath_phase,1461397,blocked,GW/carmel.png,50.0,GW/westpalmbeach.png,GW/shreveport.png,1.0,0.6666666666666666,GW/shreveport.png,Two Edge Diff,Two Edge Four Edge,560ce65601c38a0012769e20
2783,2880.9000000059605,shortestpath_phase,1465281,blocked,GW/leesburg.png,50.0,GW/racine.png,GW/hanover.png,1.0,0.6774193548387096,GW/hanover.png,Three Edge Diff,Two Edge Five Edge,560ce65601c38a0012769e20
2785,1642.0999999940395,shortestpath_phase,1467926,blocked,GW/racine.png,50.0,GW/gatlinburg.png,GW/leesburg.png,0.0,0.65625,GW/gatlinburg.png,Two Edge Diff,Three Edge Five Edge,560ce65601c38a0012769e20
2787,3104.100000023842,shortestpath_phase,1472032,blocked,GW/hanover.png,50.0,GW/peoria.png,GW/cornwall.png,1.0,0.6666666666666666,GW/cornwall.png,Three Edge Diff,Two Edge Five Edge,560ce65601c38a0012769e20
2789,3431.5,shortestpath_phase,1476466,blocked,GW/peoria.png,50.0,GW/gatlinburg.png,GW/carmel.png,0.0,0.6470588235294118,GW/gatlinburg.png,Three Edge Diff,Two Edge Five Edge,560ce65601c38a0012769e20
2791,2181.0,shortestpath_phase,1479649,blocked,GW/newhope.png,50.0,GW/carmel.png,GW/hanover.png,1.0,0.6571428571428571,GW/hanover.png,One Edge Diff,Five Edge Six Edge,560ce65601c38a0012769e20
2793,2294.899999976158,shortestpath_phase,1482947,blocked,GW/racine.png,50.0,GW/boulder.png,GW/carmel.png,0.0,0.6388888888888888,GW/boulder.png,Four Edge Diff,Two Edge Six Edge,560ce65601c38a0012769e20
2795,3562.2999999821186,shortestpath_phase,1487512,blocked,GW/hanover.png,49.0,GW/huntsville.png,GW/boulder.png,1.0,0.6486486486486487,GW/huntsville.png,Two Edge Diff,Two Edge Four Edge,560ce65601c38a0012769e20
2797,3978.5,shortestpath_phase,1492493,blocked,GW/carmel.png,50.0,GW/peoria.png,GW/cornwall.png,1.0,0.6578947368421053,GW/cornwall.png,Three Edge Diff,Three Edge Six Edge,560ce65601c38a0012769e20
2799,3307.2999999821186,shortestpath_phase,1496803,blocked,GW/leesburg.png,50.0,GW/gatlinburg.png,GW/newhope.png,0.0,0.6410256410256411,GW/gatlinburg.png,Three Edge Diff,Two Edge Five Edge,560ce65601c38a0012769e20
2801,2272.5999999940395,shortestpath_phase,1500078,blocked,GW/hanover.png,49.0,GW/newhope.png,GW/racine.png,1.0,0.65,GW/newhope.png,One Edge Diff,Five Edge Six Edge,560ce65601c38a0012769e20
2803,2001.2000000178816,shortestpath_phase,1503081,blocked,GW/huntsville.png,49.0,GW/boulder.png,GW/newhope.png,1.0,0.6585365853658537,GW/boulder.png,One Edge Diff,Two Edge Three Edge,560ce65601c38a0012769e20
2805,3279.600000023842,shortestpath_phase,1507364,blocked,GW/peoria.png,49.0,GW/huntsville.png,GW/newhope.png,0.0,0.6428571428571429,GW/newhope.png,One Edge Diff,Two Edge Three Edge,560ce65601c38a0012769e20
2807,3280.4000000059605,shortestpath_phase,1511647,blocked,GW/shreveport.png,49.0,GW/racine.png,GW/gatlinburg.png,0.0,0.627906976744186,GW/gatlinburg.png,Three Edge Diff,Two Edge Five Edge,560ce65601c38a0012769e20
2809,1773.300000011921,shortestpath_phase,1514422,blocked,GW/racine.png,49.0,GW/cornwall.png,GW/hanover.png,1.0,0.6363636363636364,GW/cornwall.png,Two Edge Diff,Four Edge Six Edge,560ce65601c38a0012769e20
2811,4629.899999976158,shortestpath_phase,1520054,blocked,GW/hotsprings.png,49.0,GW/huntsville.png,GW/carmel.png,1.0,0.6444444444444445,GW/huntsville.png,One Edge Diff,Three Edge Four Edge,560ce65601c38a0012769e20
2813,3201.0,shortestpath_phase,1524258,blocked,GW/racine.png,49.0,GW/hanover.png,GW/boulder.png,0.0,0.6304347826086957,GW/boulder.png,Four Edge Diff,Two Edge Six Edge,560ce65601c38a0012769e20
2815,2705.5,shortestpath_phase,1527968,blocked,GW/peoria.png,50.0,GW/hanover.png,GW/cornwall.png,1.0,0.6382978723404256,GW/cornwall.png,Two Edge Diff,Three Edge Five Edge,560ce65601c38a0012769e20
2817,2946.0999999940395,shortestpath_phase,1531917,blocked,GW/newhope.png,50.0,GW/racine.png,GW/hanover.png,0.0,0.625,GW/racine.png,Two Edge Diff,Three Edge Five Edge,560ce65601c38a0012769e20
2819,1963.7999999821184,shortestpath_phase,1534884,blocked,GW/leesburg.png,50.0,GW/racine.png,GW/huntsville.png,1.0,0.6326530612244898,GW/huntsville.png,Three Edge Diff,Three Edge Six Edge,560ce65601c38a0012769e20
2821,4434.5,shortestpath_phase,1540321,blocked,GW/westpalmbeach.png,50.0,GW/carmel.png,GW/peoria.png,1.0,0.64,GW/peoria.png,Two Edge Diff,Two Edge Four Edge,560ce65601c38a0012769e20
2823,3639.399999976158,shortestpath_phase,1544977,blocked,GW/racine.png,50.0,GW/carmel.png,GW/leesburg.png,1.0,0.6470588235294118,GW/leesburg.png,One Edge Diff,Five Edge Six Edge,560ce65601c38a0012769e20
2825,4768.899999976158,shortestpath_phase,1550748,blocked,GW/carmel.png,49.0,GW/boulder.png,GW/westpalmbeach.png,0.0,0.6346153846153846,GW/westpalmbeach.png,One Edge Diff,Four Edge Five Edge,560ce65601c38a0012769e20
2827,1990.800000011921,shortestpath_phase,1553741,blocked,GW/leesburg.png,50.0,GW/newhope.png,GW/peoria.png,1.0,0.6415094339622641,GW/peoria.png,One Edge Diff,Four Edge Five Edge,560ce65601c38a0012769e20
2829,4320.199999988079,shortestpath_phase,1559063,blocked,GW/newhope.png,49.0,GW/shreveport.png,GW/carmel.png,1.0,0.6481481481481481,GW/shreveport.png,Two Edge Diff,Four Edge Six Edge,560ce65601c38a0012769e20
2831,2421.4000000059605,shortestpath_phase,1562487,blocked,GW/peoria.png,49.0,GW/gatlinburg.png,GW/carmel.png,1.0,0.6545454545454545,GW/gatlinburg.png,Three Edge Diff,Three Edge Six Edge,560ce65601c38a0012769e20
2833,3615.7999999821186,shortestpath_phase,1567106,blocked,GW/carmel.png,50.0,GW/newhope.png,GW/cornwall.png,1.0,0.6607142857142857,GW/cornwall.png,Four Edge Diff,Two Edge Six Edge,560ce65601c38a0012769e20
2835,3529.0999999940395,shortestpath_phase,1571638,blocked,GW/newhope.png,50.0,GW/peoria.png,GW/carmel.png,0.0,0.6491228070175439,GW/peoria.png,Four Edge Diff,Two Edge Six Edge,560ce65601c38a0012769e20
2837,2398.2000000178814,shortestpath_phase,1575038,blocked,GW/racine.png,49.0,GW/boulder.png,GW/leesburg.png,1.0,0.6551724137931034,GW/boulder.png,Three Edge Diff,Three Edge Six Edge,560ce65601c38a0012769e20
2839,4320.4000000059605,shortestpath_phase,1580361,blocked,GW/newhope.png,49.0,GW/leesburg.png,GW/shreveport.png,0.0,0.6440677966101694,GW/shreveport.png,One Edge Diff,Four Edge Five Edge,560ce65601c38a0012769e20
2841,1620.7999999821186,shortestpath_phase,1582984,blocked,GW/peoria.png,50.0,GW/carmel.png,GW/westpalmbeach.png,1.0,0.65,GW/westpalmbeach.png,Three Edge Diff,Two Edge Five Edge,560ce65601c38a0012769e20
2843,2799.2999999821186,shortestpath_phase,1586786,blocked,GW/carmel.png,49.0,GW/hotsprings.png,GW/racine.png,1.0,0.6557377049180327,GW/hotsprings.png,Two Edge Diff,Four Edge Six Edge,560ce65601c38a0012769e20
2845,2564.199999988079,shortestpath_phase,1590353,blocked,GW/newhope.png,50.0,GW/hanover.png,GW/westpalmbeach.png,1.0,0.6612903225806451,GW/westpalmbeach.png,Three Edge Diff,Two Edge Five Edge,560ce65601c38a0012769e20
2847,5081.699999988079,shortestpath_phase,1596437,blocked,GW/racine.png,50.0,GW/leesburg.png,GW/cornwall.png,1.0,0.6666666666666666,GW/cornwall.png,One Edge Diff,Four Edge Five Edge,560ce65601c38a0012769e20
2849,1778.2999999821186,shortestpath_phase,1599218,blocked,GW/newhope.png,49.0,GW/huntsville.png,GW/cornwall.png,1.0,0.671875,GW/huntsville.png,One Edge Diff,Three Edge Four Edge,560ce65601c38a0012769e20
2851,2941.5999999940395,shortestpath_phase,1603163,blocked,GW/westpalmbeach.png,50.0,GW/racine.png,GW/carmel.png,0.0,0.6615384615384615,GW/racine.png,One Edge Diff,Three Edge Four Edge,560ce65601c38a0012769e20
2853,4120.0999999940395,shortestpath_phase,1608287,blocked,GW/newhope.png,49.0,GW/huntsville.png,GW/hanover.png,1.0,0.6666666666666666,GW/huntsville.png,Two Edge Diff,Three Edge Five Edge,560ce65601c38a0012769e20
2855,1298.300000011921,shortestpath_phase,1610588,blocked,GW/boulder.png,50.0,GW/carmel.png,GW/gatlinburg.png,1.0,0.6716417910447762,GW/gatlinburg.png,Three Edge Diff,Three Edge Six Edge,560ce65601c38a0012769e20
2857,3883.599999994039,shortestpath_phase,1615475,blocked,GW/leesburg.png,50.0,GW/huntsville.png,GW/newhope.png,0.0,0.6617647058823529,GW/huntsville.png,Three Edge Diff,Three Edge Six Edge,560ce65601c38a0012769e20
2859,3377.4000000059605,shortestpath_phase,1619855,blocked,GW/boulder.png,50.0,GW/carmel.png,GW/cornwall.png,1.0,0.6666666666666666,GW/cornwall.png,Two Edge Diff,Three Edge Five Edge,560ce65601c38a0012769e20
2861,5561.899999976158,shortestpath_phase,1626419,blocked,GW/carmel.png,49.0,GW/peoria.png,GW/newhope.png,1.0,0.6714285714285714,GW/peoria.png,One Edge Diff,Five Edge Six Edge,560ce65601c38a0012769e20
2863,2282.5,shortestpath_phase,1629704,blocked,GW/racine.png,50.0,GW/huntsville.png,GW/hanover.png,0.0,0.6619718309859155,GW/huntsville.png,Two Edge Diff,Four Edge Six Edge,560ce65601c38a0012769e20
2865,3845.099999994039,shortestpath_phase,1634552,blocked,GW/newhope.png,50.0,GW/westpalmbeach.png,GW/leesburg.png,0.0,0.6527777777777778,GW/westpalmbeach.png,Three Edge Diff,Three Edge Six Edge,560ce65601c38a0012769e20
2867,3343.5,shortestpath_phase,1638898,blocked,GW/racine.png,50.0,GW/carmel.png,GW/hotsprings.png,1.0,0.6575342465753424,GW/hotsprings.png,Four Edge Diff,Two Edge Six Edge,560ce65601c38a0012769e20
2869,2651.7000000178814,shortestpath_phase,1642552,blocked,GW/carmel.png,50.0,GW/racine.png,GW/westpalmbeach.png,1.0,0.6621621621621622,GW/westpalmbeach.png,Two Edge Diff,Four Edge Six Edge,560ce65601c38a0012769e20
2871,3595.4000000059605,shortestpath_phase,1647153,blocked,GW/hanover.png,50.0,GW/gatlinburg.png,GW/peoria.png,0.0,0.6533333333333333,GW/gatlinburg.png,Two Edge Diff,Three Edge Five Edge,560ce65601c38a0012769e20
2873,4801.300000011921,shortestpath_phase,1652956,blocked,GW/hotsprings.png,49.0,GW/hanover.png,GW/cornwall.png,0.0,0.6447368421052632,GW/cornwall.png,Two Edge Diff,Two Edge Four Edge,560ce65601c38a0012769e20
2875,4933.800000011921,shortestpath_phase,1658892,blocked,GW/hanover.png,49.0,GW/leesburg.png,GW/racine.png,1.0,0.6493506493506493,GW/leesburg.png,Four Edge Diff,Two Edge Six Edge,560ce65601c38a0012769e20
2877,4026.099999994039,shortestpath_phase,1663920,blocked,GW/racine.png,50.0,GW/gatlinburg.png,GW/cornwall.png,0.0,0.6410256410256411,GW/gatlinburg.png,One Edge Diff,Three Edge Four Edge,560ce65601c38a0012769e20
2879,4698.600000023842,shortestpath_phase,1669621,blocked,GW/newhope.png,50.0,GW/leesburg.png,GW/carmel.png,0.0,0.6329113924050633,GW/leesburg.png,One Edge Diff,Five Edge Six Edge,560ce65601c38a0012769e20
2881,2401.800000011921,shortestpath_phase,1673025,blocked,GW/peoria.png,50.0,GW/huntsville.png,GW/gatlinburg.png,1.0,0.6375,GW/gatlinburg.png,One Edge Diff,Two Edge Three Edge,560ce65601c38a0012769e20
2883,2243.800000011921,shortestpath_phase,1676271,blocked,GW/hanover.png,50.0,GW/huntsville.png,GW/newhope.png,0.0,0.6296296296296297,GW/huntsville.png,Three Edge Diff,Two Edge Five Edge,560ce65601c38a0012769e20
2885,5217.5999999940395,shortestpath_phase,1682491,blocked,GW/westpalmbeach.png,50.0,GW/peoria.png,GW/leesburg.png,0.0,0.6219512195121951,GW/peoria.png,One Edge Diff,Two Edge Three Edge,560ce65601c38a0012769e20
2887,5315.4000000059605,shortestpath_phase,1688810,blocked,GW/huntsville.png,50.0,GW/racine.png,GW/gatlinburg.png,1.0,0.6265060240963856,GW/gatlinburg.png,Two Edge Diff,Two Edge Four Edge,560ce65601c38a0012769e20
2889,4486.9000000059605,shortestpath_phase,1694299,blocked,GW/carmel.png,50.0,GW/racine.png,GW/peoria.png,1.0,0.6309523809523809,GW/peoria.png,One Edge Diff,Five Edge Six Edge,560ce65601c38a0012769e20
3701,3383.2000000476837,shortestpath_phase,1300230,blocked,GW/racine.png,49.0,GW/hanover.png,GW/boulder.png,0.0,0.0,GW/boulder.png,One Edge Diff,Two Edge Three Edge,60ddfe929fff846f04cd2c95
3703,2249.2000000476837,shortestpath_phase,1303482,blocked,GW/carmel.png,49.0,GW/hotsprings.png,GW/cornwall.png,1.0,0.5,GW/hotsprings.png,One Edge Diff,Four Edge Five Edge,60ddfe929fff846f04cd2c95
3705,2230.099999904633,shortestpath_phase,1306714,blocked,GW/leesburg.png,50.0,GW/cornwall.png,GW/racine.png,1.0,0.6666666666666666,GW/racine.png,Two Edge Diff,Four Edge Six Edge,60ddfe929fff846f04cd2c95
3707,1985.2999999523165,shortestpath_phase,1309701,blocked,GW/boulder.png,50.0,GW/carmel.png,GW/huntsville.png,1.0,0.75,GW/huntsville.png,One Edge Diff,Three Edge Four Edge,60ddfe929fff846f04cd2c95
3709,1666.2000000476835,shortestpath_phase,1312370,blocked,GW/leesburg.png,50.0,GW/gatlinburg.png,GW/westpalmbeach.png,1.0,0.8,GW/westpalmbeach.png,Four Edge Diff,Two Edge Six Edge,60ddfe929fff846f04cd2c95
3711,1805.2999999523165,shortestpath_phase,1315178,blocked,GW/hotsprings.png,49.0,GW/carmel.png,GW/leesburg.png,1.0,0.8333333333333334,GW/carmel.png,One Edge Diff,Four Edge Five Edge,60ddfe929fff846f04cd2c95
3713,1805.2999999523165,shortestpath_phase,1317985,blocked,GW/gatlinburg.png,49.0,GW/leesburg.png,GW/racine.png,0.0,0.7142857142857143,GW/racine.png,Four Edge Diff,Two Edge Six Edge,60ddfe929fff846f04cd2c95
3715,1392.7000000476835,shortestpath_phase,1320381,blocked,GW/hanover.png,50.0,GW/shreveport.png,GW/boulder.png,0.0,0.625,GW/shreveport.png,Two Edge Diff,Three Edge Five Edge,60ddfe929fff846f04cd2c95
3717,1986.5999999046328,shortestpath_phase,1323370,blocked,GW/newhope.png,50.0,GW/leesburg.png,GW/gatlinburg.png,1.0,0.6666666666666666,GW/gatlinburg.png,One Edge Diff,Three Edge Four Edge,60ddfe929fff846f04cd2c95
3719,1873.4000000953672,shortestpath_phase,1326245,blocked,GW/boulder.png,50.0,GW/hanover.png,GW/westpalmbeach.png,1.0,0.7,GW/westpalmbeach.png,One Edge Diff,Four Edge Five Edge,60ddfe929fff846f04cd2c95
3721,1262.5,shortestpath_phase,1328509,blocked,GW/cornwall.png,50.0,GW/hanover.png,GW/newhope.png,1.0,0.7272727272727273,GW/newhope.png,Four Edge Diff,Two Edge Six Edge,60ddfe929fff846f04cd2c95
3723,1682.0,shortestpath_phase,1331194,blocked,GW/gatlinburg.png,49.0,GW/peoria.png,GW/boulder.png,0.0,0.6666666666666666,GW/boulder.png,One Edge Diff,Two Edge Three Edge,60ddfe929fff846f04cd2c95
3725,1686.0999999046326,shortestpath_phase,1333882,blocked,GW/newhope.png,49.0,GW/peoria.png,GW/hanover.png,1.0,0.6923076923076923,GW/peoria.png,One Edge Diff,Three Edge Four Edge,60ddfe929fff846f04cd2c95
3727,910.0,shortestpath_phase,1335793,blocked,GW/gatlinburg.png,50.0,GW/leesburg.png,GW/boulder.png,1.0,0.7142857142857143,GW/boulder.png,Four Edge Diff,Two Edge Six Edge,60ddfe929fff846f04cd2c95
3729,2313.5,shortestpath_phase,1339110,blocked,GW/hanover.png,50.0,GW/hotsprings.png,GW/carmel.png,1.0,0.7333333333333333,GW/carmel.png,Two Edge Diff,Two Edge Four Edge,60ddfe929fff846f04cd2c95
3731,1957.6000001430511,shortestpath_phase,1342070,blocked,GW/gatlinburg.png,49.0,GW/hanover.png,GW/huntsville.png,0.0,0.6875,GW/huntsville.png,One Edge Diff,Four Edge Five Edge,60ddfe929fff846f04cd2c95
3733,1953.8999998569489,shortestpath_phase,1345026,blocked,GW/hotsprings.png,49.0,GW/shreveport.png,GW/leesburg.png,1.0,0.7058823529411765,GW/shreveport.png,Three Edge Diff,Two Edge Five Edge,60ddfe929fff846f04cd2c95
3735,2361.600000143051,shortestpath_phase,1348390,blocked,GW/gatlinburg.png,49.0,GW/peoria.png,GW/hanover.png,1.0,0.7222222222222222,GW/peoria.png,Two Edge Diff,Three Edge Five Edge,60ddfe929fff846f04cd2c95
3737,2053.7000000476837,shortestpath_phase,1351445,blocked,GW/carmel.png,49.0,GW/shreveport.png,GW/cornwall.png,1.0,0.7368421052631579,GW/shreveport.png,Three Edge Diff,Two Edge Five Edge,60ddfe929fff846f04cd2c95
3739,1869.7000000476835,shortestpath_phase,1354317,blocked,GW/racine.png,49.0,GW/gatlinburg.png,GW/hanover.png,1.0,0.75,GW/gatlinburg.png,One Edge Diff,Two Edge Three Edge,60ddfe929fff846f04cd2c95
3741,1210.0,shortestpath_phase,1356529,blocked,GW/leesburg.png,50.0,GW/hanover.png,GW/westpalmbeach.png,1.0,0.7619047619047619,GW/westpalmbeach.png,One Edge Diff,Two Edge Three Edge,60ddfe929fff846f04cd2c95
3743,2602.099999904633,shortestpath_phase,1360133,blocked,GW/hanover.png,50.0,GW/racine.png,GW/carmel.png,1.0,0.7727272727272727,GW/carmel.png,One Edge Diff,Two Edge Three Edge,60ddfe929fff846f04cd2c95
3745,1041.7999999523165,shortestpath_phase,1362177,blocked,GW/cornwall.png,49.0,GW/racine.png,GW/peoria.png,1.0,0.782608695652174,GW/racine.png,One Edge Diff,Three Edge Four Edge,60ddfe929fff846f04cd2c95
3747,1453.0999999046326,shortestpath_phase,1364633,blocked,GW/carmel.png,49.0,GW/shreveport.png,GW/cornwall.png,1.0,0.7916666666666666,GW/shreveport.png,Three Edge Diff,Three Edge Six Edge,60ddfe929fff846f04cd2c95
3749,3217.900000095367,shortestpath_phase,1368853,blocked,GW/hotsprings.png,50.0,GW/carmel.png,GW/westpalmbeach.png,1.0,0.8,GW/westpalmbeach.png,One Edge Diff,Three Edge Four Edge,60ddfe929fff846f04cd2c95
3751,2721.400000095367,shortestpath_phase,1372577,blocked,GW/carmel.png,49.0,GW/cornwall.png,GW/hanover.png,0.0,0.7692307692307693,GW/hanover.png,Three Edge Diff,Two Edge Five Edge,60ddfe929fff846f04cd2c95
3753,1358.0,shortestpath_phase,1374937,blocked,GW/boulder.png,50.0,GW/peoria.png,GW/hanover.png,0.0,0.7407407407407407,GW/peoria.png,Two Edge Diff,Three Edge Five Edge,60ddfe929fff846f04cd2c95
3755,2649.7000000476837,shortestpath_phase,1378589,blocked,GW/carmel.png,50.0,GW/gatlinburg.png,GW/hanover.png,1.0,0.75,GW/hanover.png,Three Edge Diff,Three Edge Six Edge,60ddfe929fff846f04cd2c95
3757,1362.5999999046326,shortestpath_phase,1380953,blocked,GW/hotsprings.png,49.0,GW/huntsville.png,GW/leesburg.png,1.0,0.7586206896551724,GW/huntsville.png,Two Edge Diff,Three Edge Five Edge,60ddfe929fff846f04cd2c95
3759,2369.7000000476837,shortestpath_phase,1384325,blocked,GW/hanover.png,50.0,GW/leesburg.png,GW/boulder.png,0.0,0.7333333333333333,GW/leesburg.png,Two Edge Diff,Three Edge Five Edge,60ddfe929fff846f04cd2c95
3761,1540.8999998569489,shortestpath_phase,1386869,blocked,GW/cornwall.png,49.0,GW/carmel.png,GW/hanover.png,1.0,0.7419354838709677,GW/carmel.png,One Edge Diff,Five Edge Six Edge,60ddfe929fff846f04cd2c95
3763,2098.2000000476837,shortestpath_phase,1389969,blocked,GW/gatlinburg.png,50.0,GW/leesburg.png,GW/hanover.png,1.0,0.75,GW/hanover.png,One Edge Diff,Five Edge Six Edge,60ddfe929fff846f04cd2c95
3765,1050.3000001907349,shortestpath_phase,1392021,blocked,GW/cornwall.png,50.0,GW/hanover.png,GW/hotsprings.png,1.0,0.7575757575757576,GW/hotsprings.png,Four Edge Diff,Two Edge Six Edge,60ddfe929fff846f04cd2c95
3767,1650.2000000476835,shortestpath_phase,1394673,blocked,GW/gatlinburg.png,50.0,GW/hanover.png,GW/westpalmbeach.png,1.0,0.7647058823529411,GW/westpalmbeach.png,One Edge Diff,Four Edge Five Edge,60ddfe929fff846f04cd2c95
3769,2709.400000095367,shortestpath_phase,1398385,blocked,GW/hanover.png,49.0,GW/hotsprings.png,GW/cornwall.png,1.0,0.7714285714285715,GW/hotsprings.png,Two Edge Diff,Four Edge Six Edge,60ddfe929fff846f04cd2c95
3771,2869.5,shortestpath_phase,1402257,blocked,GW/leesburg.png,49.0,GW/huntsville.png,GW/cornwall.png,1.0,0.7777777777777778,GW/huntsville.png,Four Edge Diff,Two Edge Six Edge,60ddfe929fff846f04cd2c95
3773,2685.0,shortestpath_phase,1405945,blocked,GW/westpalmbeach.png,49.0,GW/boulder.png,GW/racine.png,0.0,0.7567567567567568,GW/racine.png,Two Edge Diff,Two Edge Four Edge,60ddfe929fff846f04cd2c95
3775,1453.4000000953674,shortestpath_phase,1408401,blocked,GW/gatlinburg.png,49.0,GW/huntsville.png,GW/leesburg.png,1.0,0.7631578947368421,GW/huntsville.png,Two Edge Diff,Four Edge Six Edge,60ddfe929fff846f04cd2c95
3777,2138.0,shortestpath_phase,1411541,blocked,GW/leesburg.png,50.0,GW/hotsprings.png,GW/cornwall.png,0.0,0.7435897435897436,GW/hotsprings.png,One Edge Diff,Five Edge Six Edge,60ddfe929fff846f04cd2c95
3779,1901.4000000953672,shortestpath_phase,1414445,blocked,GW/hanover.png,50.0,GW/peoria.png,GW/newhope.png,0.0,0.725,GW/peoria.png,Two Edge Diff,Two Edge Four Edge,60ddfe929fff846f04cd2c95
3781,1705.3999998569489,shortestpath_phase,1417153,blocked,GW/leesburg.png,49.0,GW/huntsville.png,GW/boulder.png,1.0,0.7317073170731707,GW/huntsville.png,Three Edge Diff,Three Edge Six Edge,60ddfe929fff846f04cd2c95
3783,1249.0,shortestpath_phase,1419404,blocked,GW/boulder.png,50.0,GW/leesburg.png,GW/shreveport.png,1.0,0.7380952380952381,GW/shreveport.png,Three Edge Diff,Two Edge Five Edge,60ddfe929fff846f04cd2c95
3785,2082.0,shortestpath_phase,1422488,blocked,GW/hanover.png,49.0,GW/cornwall.png,GW/newhope.png,0.0,0.7209302325581395,GW/newhope.png,Two Edge Diff,Four Edge Six Edge,60ddfe929fff846f04cd2c95
3787,1134.4000000953674,shortestpath_phase,1424624,blocked,GW/westpalmbeach.png,49.0,GW/gatlinburg.png,GW/racine.png,0.0,0.7045454545454546,GW/racine.png,Two Edge Diff,Two Edge Four Edge,60ddfe929fff846f04cd2c95
3789,1769.5,shortestpath_phase,1427396,blocked,GW/hanover.png,49.0,GW/gatlinburg.png,GW/shreveport.png,0.0,0.6888888888888889,GW/shreveport.png,Two Edge Diff,Three Edge Five Edge,60ddfe929fff846f04cd2c95
3791,1745.5,shortestpath_phase,1430144,blocked,GW/leesburg.png,50.0,GW/hotsprings.png,GW/westpalmbeach.png,1.0,0.6956521739130435,GW/westpalmbeach.png,Three Edge Diff,Three Edge Six Edge,60ddfe929fff846f04cd2c95
3793,1361.5,shortestpath_phase,1432508,blocked,GW/boulder.png,50.0,GW/hanover.png,GW/carmel.png,1.0,0.7021276595744681,GW/carmel.png,One Edge Diff,Four Edge Five Edge,60ddfe929fff846f04cd2c95
3795,1310.0,shortestpath_phase,1434820,blocked,GW/westpalmbeach.png,50.0,GW/cornwall.png,GW/shreveport.png,1.0,0.7083333333333334,GW/shreveport.png,Three Edge Diff,Three Edge Six Edge,60ddfe929fff846f04cd2c95
3797,2080.900000095367,shortestpath_phase,1437904,blocked,GW/cornwall.png,50.0,GW/hanover.png,GW/peoria.png,1.0,0.7142857142857143,GW/peoria.png,Two Edge Diff,Four Edge Six Edge,60ddfe929fff846f04cd2c95
3799,2657.199999809265,shortestpath_phase,1441564,blocked,GW/carmel.png,49.0,GW/cornwall.png,GW/racine.png,0.0,0.7,GW/racine.png,Two Edge Diff,Three Edge Five Edge,60ddfe929fff846f04cd2c95
3801,1193.2000000476835,shortestpath_phase,1443760,blocked,GW/cornwall.png,49.0,GW/hotsprings.png,GW/leesburg.png,1.0,0.7058823529411765,GW/hotsprings.png,Four Edge Diff,Two Edge Six Edge,60ddfe929fff846f04cd2c95
3803,1478.0,shortestpath_phase,1446240,blocked,GW/carmel.png,50.0,GW/gatlinburg.png,GW/peoria.png,1.0,0.7115384615384616,GW/peoria.png,Three Edge Diff,Two Edge Five Edge,60ddfe929fff846f04cd2c95
3805,1109.2000000476835,shortestpath_phase,1448352,blocked,GW/westpalmbeach.png,49.0,GW/shreveport.png,GW/cornwall.png,1.0,0.7169811320754716,GW/shreveport.png,Three Edge Diff,Two Edge Five Edge,60ddfe929fff846f04cd2c95
3807,1188.9000000953674,shortestpath_phase,1450544,blocked,GW/carmel.png,50.0,GW/peoria.png,GW/gatlinburg.png,0.0,0.7037037037037037,GW/peoria.png,Three Edge Diff,Three Edge Six Edge,60ddfe929fff846f04cd2c95
3809,1561.7000000476835,shortestpath_phase,1453108,blocked,GW/boulder.png,50.0,GW/westpalmbeach.png,GW/gatlinburg.png,1.0,0.7090909090909091,GW/gatlinburg.png,Two Edge Diff,Two Edge Four Edge,60ddfe929fff846f04cd2c95
3811,1694.0,shortestpath_phase,1455804,blocked,GW/hanover.png,49.0,GW/carmel.png,GW/boulder.png,1.0,0.7142857142857143,GW/carmel.png,Three Edge Diff,Two Edge Five Edge,60ddfe929fff846f04cd2c95
3813,1985.9000000953672,shortestpath_phase,1458792,blocked,GW/cornwall.png,50.0,GW/hotsprings.png,GW/huntsville.png,0.0,0.7017543859649122,GW/hotsprings.png,Two Edge Diff,Two Edge Four Edge,60ddfe929fff846f04cd2c95
3815,2205.5,shortestpath_phase,1462000,blocked,GW/boulder.png,49.0,GW/peoria.png,GW/leesburg.png,1.0,0.7068965517241379,GW/peoria.png,Two Edge Diff,Three Edge Five Edge,60ddfe929fff846f04cd2c95
3817,1313.0,shortestpath_phase,1464316,blocked,GW/leesburg.png,50.0,GW/gatlinburg.png,GW/huntsville.png,1.0,0.711864406779661,GW/huntsville.png,Four Edge Diff,Two Edge Six Edge,60ddfe929fff846f04cd2c95
3819,1557.5,shortestpath_phase,1466876,blocked,GW/cornwall.png,50.0,GW/peoria.png,GW/leesburg.png,0.0,0.7,GW/peoria.png,Two Edge Diff,Four Edge Six Edge,60ddfe929fff846f04cd2c95
3821,1417.7000000476835,shortestpath_phase,1469296,blocked,GW/leesburg.png,49.0,GW/hotsprings.png,GW/gatlinburg.png,1.0,0.7049180327868853,GW/hotsprings.png,One Edge Diff,Five Edge Six Edge,60ddfe929fff846f04cd2c95
3823,1945.5,shortestpath_phase,1472244,blocked,GW/gatlinburg.png,49.0,GW/boulder.png,GW/carmel.png,1.0,0.7096774193548387,GW/boulder.png,Three Edge Diff,Three Edge Six Edge,60ddfe929fff846f04cd2c95
3825,1165.5,shortestpath_phase,1474412,blocked,GW/racine.png,50.0,GW/hanover.png,GW/leesburg.png,0.0,0.6984126984126984,GW/hanover.png,One Edge Diff,Three Edge Four Edge,60ddfe929fff846f04cd2c95
3827,1553.7999999523165,shortestpath_phase,1476968,blocked,GW/boulder.png,50.0,GW/shreveport.png,GW/hanover.png,0.0,0.6875,GW/shreveport.png,Three Edge Diff,Three Edge Six Edge,60ddfe929fff846f04cd2c95
3829,1076.9000000953674,shortestpath_phase,1479046,blocked,GW/leesburg.png,50.0,GW/westpalmbeach.png,GW/cornwall.png,0.0,0.676923076923077,GW/westpalmbeach.png,Four Edge Diff,Two Edge Six Edge,60ddfe929fff846f04cd2c95
3831,1894.8000001907349,shortestpath_phase,1481943,blocked,GW/boulder.png,49.0,GW/hanover.png,GW/racine.png,0.0,0.6666666666666666,GW/racine.png,Three Edge Diff,Three Edge Six Edge,60ddfe929fff846f04cd2c95
3833,869.0,shortestpath_phase,1483815,blocked,GW/hanover.png,50.0,GW/cornwall.png,GW/gatlinburg.png,1.0,0.6716417910447762,GW/gatlinburg.png,One Edge Diff,Five Edge Six Edge,60ddfe929fff846f04cd2c95
3835,1005.7000000476836,shortestpath_phase,1485835,blocked,GW/leesburg.png,49.0,GW/gatlinburg.png,GW/racine.png,0.0,0.6617647058823529,GW/racine.png,Two Edge Diff,Four Edge Six Edge,60ddfe929fff846f04cd2c95
3837,2186.0,shortestpath_phase,1489032,blocked,GW/westpalmbeach.png,50.0,GW/boulder.png,GW/shreveport.png,1.0,0.6666666666666666,GW/shreveport.png,Two Edge Diff,Two Edge Four Edge,60ddfe929fff846f04cd2c95
3839,3017.0,shortestpath_phase,1493052,blocked,GW/leesburg.png,49.0,GW/huntsville.png,GW/hotsprings.png,1.0,0.6714285714285714,GW/huntsville.png,Three Edge Diff,Two Edge Five Edge,60ddfe929fff846f04cd2c95
3841,2045.8000001907349,shortestpath_phase,1496103,blocked,GW/cornwall.png,50.0,GW/hotsprings.png,GW/westpalmbeach.png,0.0,0.6619718309859155,GW/hotsprings.png,Three Edge Diff,Two Edge Five Edge,60ddfe929fff846f04cd2c95
3843,1117.4000000953674,shortestpath_phase,1498223,blocked,GW/hanover.png,49.0,GW/huntsville.png,GW/cornwall.png,1.0,0.6666666666666666,GW/huntsville.png,Four Edge Diff,Two Edge Six Edge,60ddfe929fff846f04cd2c95
3845,1032.5999999046326,shortestpath_phase,1500259,blocked,GW/shreveport.png,49.0,GW/westpalmbeach.png,GW/leesburg.png,1.0,0.6712328767123288,GW/westpalmbeach.png,One Edge Diff,Two Edge Three Edge,60ddfe929fff846f04cd2c95
3847,1391.1000001430511,shortestpath_phase,1502651,blocked,GW/cornwall.png,50.0,GW/huntsville.png,GW/leesburg.png,0.0,0.6621621621621622,GW/huntsville.png,Two Edge Diff,Four Edge Six Edge,60ddfe929fff846f04cd2c95
3849,1360.7999999523165,shortestpath_phase,1505016,blocked,GW/hanover.png,49.0,GW/carmel.png,GW/gatlinburg.png,1.0,0.6666666666666666,GW/carmel.png,Three Edge Diff,Two Edge Five Edge,60ddfe929fff846f04cd2c95
3851,1169.9000000953674,shortestpath_phase,1507188,blocked,GW/boulder.png,49.0,GW/shreveport.png,GW/hanover.png,1.0,0.6710526315789473,GW/shreveport.png,Three Edge Diff,Two Edge Five Edge,60ddfe929fff846f04cd2c95
3853,1797.3999998569489,shortestpath_phase,1509988,blocked,GW/hanover.png,50.0,GW/cornwall.png,GW/peoria.png,1.0,0.6753246753246753,GW/peoria.png,Four Edge Diff,Two Edge Six Edge,60ddfe929fff846f04cd2c95
3855,1023.0,shortestpath_phase,1512028,blocked,GW/boulder.png,50.0,GW/racine.png,GW/hanover.png,0.0,0.6666666666666666,GW/racine.png,Three Edge Diff,Two Edge Five Edge,60ddfe929fff846f04cd2c95
3857,1522.0,shortestpath_phase,1514552,blocked,GW/carmel.png,49.0,GW/cornwall.png,GW/peoria.png,0.0,0.6582278481012658,GW/peoria.png,Three Edge Diff,Three Edge Six Edge,60ddfe929fff846f04cd2c95
3859,1937.2000000476835,shortestpath_phase,1517491,blocked,GW/gatlinburg.png,50.0,GW/boulder.png,GW/hanover.png,0.0,0.65,GW/boulder.png,Three Edge Diff,Three Edge Six Edge,60ddfe929fff846f04cd2c95
3861,1081.3999998569489,shortestpath_phase,1519575,blocked,GW/huntsville.png,50.0,GW/racine.png,GW/gatlinburg.png,0.0,0.6419753086419753,GW/racine.png,Two Edge Diff,Two Edge Four Edge,60ddfe929fff846f04cd2c95
3863,1304.7999999523165,shortestpath_phase,1521883,blocked,GW/boulder.png,49.0,GW/shreveport.png,GW/leesburg.png,1.0,0.6463414634146342,GW/shreveport.png,Three Edge Diff,Three Edge Six Edge,60ddfe929fff846f04cd2c95
3865,1429.2999999523165,shortestpath_phase,1524315,blocked,GW/cornwall.png,49.0,GW/newhope.png,GW/leesburg.png,1.0,0.6506024096385542,GW/newhope.png,Four Edge Diff,Two Edge Six Edge,60ddfe929fff846f04cd2c95
3867,1749.7999999523165,shortestpath_phase,1527067,blocked,GW/leesburg.png,49.0,GW/boulder.png,GW/gatlinburg.png,1.0,0.6547619047619048,GW/boulder.png,One Edge Diff,Five Edge Six Edge,60ddfe929fff846f04cd2c95
6630,4428.599999964237,shortestpath_phase,1283618,blocked,GW/carmel.png,49.0,GW/huntsville.png,GW/gatlinburg.png,1.0,1.0,GW/huntsville.png,Three Edge Diff,Two Edge Five Edge,638476f72ab8021be345e3ac
6632,4343.099999964237,shortestpath_phase,1288975,blocked,GW/leesburg.png,50.0,GW/newhope.png,GW/hanover.png,0.0,0.5,GW/newhope.png,One Edge Diff,Four Edge Five Edge,638476f72ab8021be345e3ac
6634,5024.600000023842,shortestpath_phase,1295008,blocked,GW/westpalmbeach.png,49.0,GW/peoria.png,GW/boulder.png,1.0,0.6666666666666666,GW/peoria.png,One Edge Diff,Five Edge Six Edge,638476f72ab8021be345e3ac
6636,3638.600000023842,shortestpath_phase,1299655,blocked,GW/hanover.png,49.0,GW/westpalmbeach.png,GW/boulder.png,0.0,0.5,GW/boulder.png,Three Edge Diff,Three Edge Six Edge,638476f72ab8021be345e3ac
6638,3619.899999976158,shortestpath_phase,1304288,blocked,GW/westpalmbeach.png,49.0,GW/peoria.png,GW/racine.png,0.0,0.4,GW/racine.png,Three Edge Diff,Two Edge Five Edge,638476f72ab8021be345e3ac
6640,4259.400000035763,shortestpath_phase,1309560,blocked,GW/carmel.png,50.0,GW/gatlinburg.png,GW/peoria.png,1.0,0.5,GW/peoria.png,One Edge Diff,Four Edge Five Edge,638476f72ab8021be345e3ac
6642,3551.699999988079,shortestpath_phase,1314120,blocked,GW/westpalmbeach.png,50.0,GW/gatlinburg.png,GW/newhope.png,1.0,0.5714285714285714,GW/newhope.png,Two Edge Diff,Four Edge Six Edge,638476f72ab8021be345e3ac
6644,3283.0,shortestpath_phase,1318411,blocked,GW/carmel.png,50.0,GW/boulder.png,GW/cornwall.png,1.0,0.625,GW/cornwall.png,Three Edge Diff,Three Edge Six Edge,638476f72ab8021be345e3ac
6646,3043.099999964237,shortestpath_phase,1322468,blocked,GW/gatlinburg.png,49.0,GW/hotsprings.png,GW/peoria.png,0.0,0.5555555555555556,GW/peoria.png,Three Edge Diff,Two Edge Five Edge,638476f72ab8021be345e3ac
6648,3628.399999976158,shortestpath_phase,1327108,blocked,GW/cornwall.png,49.0,GW/westpalmbeach.png,GW/leesburg.png,0.0,0.5,GW/leesburg.png,One Edge Diff,Two Edge Three Edge,638476f72ab8021be345e3ac
6650,4056.799999952316,shortestpath_phase,1332177,blocked,GW/carmel.png,49.0,GW/shreveport.png,GW/huntsville.png,0.0,0.4545454545454545,GW/huntsville.png,One Edge Diff,Two Edge Three Edge,638476f72ab8021be345e3ac
6652,3275.199999988079,shortestpath_phase,1336460,blocked,GW/hanover.png,49.0,GW/cornwall.png,GW/leesburg.png,1.0,0.5,GW/cornwall.png,Two Edge Diff,Three Edge Five Edge,638476f72ab8021be345e3ac
6654,3628.199999988079,shortestpath_phase,1341101,blocked,GW/westpalmbeach.png,49.0,GW/gatlinburg.png,GW/peoria.png,0.0,0.4615384615384615,GW/peoria.png,One Edge Diff,Five Edge Six Edge,638476f72ab8021be345e3ac
6656,5077.599999964237,shortestpath_phase,1347190,blocked,GW/racine.png,50.0,GW/newhope.png,GW/boulder.png,0.0,0.4285714285714285,GW/newhope.png,Two Edge Diff,Two Edge Four Edge,638476f72ab8021be345e3ac
6658,5454.900000035763,shortestpath_phase,1353659,blocked,GW/hotsprings.png,49.0,GW/boulder.png,GW/westpalmbeach.png,0.0,0.4,GW/westpalmbeach.png,Two Edge Diff,Two Edge Four Edge,638476f72ab8021be345e3ac
6660,4499.900000035763,shortestpath_phase,1359172,blocked,GW/peoria.png,50.0,GW/racine.png,GW/huntsville.png,1.0,0.4375,GW/huntsville.png,One Edge Diff,Two Edge Three Edge,638476f72ab8021be345e3ac
6662,4144.600000023842,shortestpath_phase,1364324,blocked,GW/hotsprings.png,50.0,GW/newhope.png,GW/westpalmbeach.png,1.0,0.4705882352941176,GW/westpalmbeach.png,One Edge Diff,Two Edge Three Edge,638476f72ab8021be345e3ac
6664,4386.0,shortestpath_phase,1369720,blocked,GW/leesburg.png,50.0,GW/gatlinburg.png,GW/peoria.png,1.0,0.5,GW/peoria.png,Two Edge Diff,Four Edge Six Edge,638476f72ab8021be345e3ac
6666,3568.699999988079,shortestpath_phase,1374302,blocked,GW/westpalmbeach.png,50.0,GW/peoria.png,GW/hotsprings.png,1.0,0.5263157894736842,GW/hotsprings.png,Three Edge Diff,Three Edge Six Edge,638476f72ab8021be345e3ac
6668,4728.300000011921,shortestpath_phase,1380039,blocked,GW/boulder.png,50.0,GW/shreveport.png,GW/westpalmbeach.png,0.0,0.5,GW/shreveport.png,Four Edge Diff,Two Edge Six Edge,638476f72ab8021be345e3ac
6670,3400.600000023842,shortestpath_phase,1384454,blocked,GW/leesburg.png,49.0,GW/newhope.png,GW/westpalmbeach.png,0.0,0.4761904761904761,GW/westpalmbeach.png,One Edge Diff,Three Edge Four Edge,638476f72ab8021be345e3ac
6672,2454.100000023842,shortestpath_phase,1387919,blocked,GW/hanover.png,49.0,GW/huntsville.png,GW/westpalmbeach.png,1.0,0.5,GW/huntsville.png,Three Edge Diff,Two Edge Five Edge,638476f72ab8021be345e3ac
6674,2462.600000023842,shortestpath_phase,1391391,blocked,GW/gatlinburg.png,49.0,GW/carmel.png,GW/shreveport.png,0.0,0.4782608695652174,GW/shreveport.png,Two Edge Diff,Three Edge Five Edge,638476f72ab8021be345e3ac
6676,2157.0,shortestpath_phase,1394558,blocked,GW/hanover.png,50.0,GW/huntsville.png,GW/carmel.png,0.0,0.4583333333333333,GW/huntsville.png,Two Edge Diff,Two Edge Four Edge,638476f72ab8021be345e3ac
6678,2929.099999964237,shortestpath_phase,1398497,blocked,GW/gatlinburg.png,50.0,GW/newhope.png,GW/hotsprings.png,0.0,0.44,GW/newhope.png,Three Edge Diff,Two Edge Five Edge,638476f72ab8021be345e3ac
6680,4498.0,shortestpath_phase,1404009,blocked,GW/boulder.png,49.0,GW/carmel.png,GW/hanover.png,0.0,0.4230769230769231,GW/hanover.png,Three Edge Diff,Three Edge Six Edge,638476f72ab8021be345e3ac
6682,3285.5,shortestpath_phase,1408306,blocked,GW/westpalmbeach.png,49.0,GW/gatlinburg.png,GW/racine.png,0.0,0.4074074074074074,GW/racine.png,Four Edge Diff,Two Edge Six Edge,638476f72ab8021be345e3ac
6684,3534.399999976158,shortestpath_phase,1412851,blocked,GW/carmel.png,49.0,GW/leesburg.png,GW/gatlinburg.png,1.0,0.4285714285714285,GW/leesburg.png,Three Edge Diff,Two Edge Five Edge,638476f72ab8021be345e3ac
6686,2650.099999964237,shortestpath_phase,1416514,blocked,GW/westpalmbeach.png,49.0,GW/racine.png,GW/boulder.png,1.0,0.4482758620689655,GW/racine.png,Four Edge Diff,Two Edge Six Edge,638476f72ab8021be345e3ac
6688,2701.300000011921,shortestpath_phase,1420225,blocked,GW/carmel.png,49.0,GW/shreveport.png,GW/peoria.png,1.0,0.4666666666666667,GW/shreveport.png,One Edge Diff,Three Edge Four Edge,638476f72ab8021be345e3ac
6690,4086.800000011921,shortestpath_phase,1425320,blocked,GW/boulder.png,50.0,GW/hotsprings.png,GW/leesburg.png,0.0,0.4516129032258064,GW/hotsprings.png,One Edge Diff,Four Edge Five Edge,638476f72ab8021be345e3ac
6692,3088.699999988079,shortestpath_phase,1429417,blocked,GW/carmel.png,50.0,GW/cornwall.png,GW/gatlinburg.png,0.0,0.4375,GW/cornwall.png,Three Edge Diff,Two Edge Five Edge,638476f72ab8021be345e3ac
6694,3295.899999976158,shortestpath_phase,1433722,blocked,GW/leesburg.png,49.0,GW/gatlinburg.png,GW/newhope.png,0.0,0.4242424242424242,GW/newhope.png,Two Edge Diff,Four Edge Six Edge,638476f72ab8021be345e3ac
6696,2749.199999988079,shortestpath_phase,1437482,blocked,GW/westpalmbeach.png,50.0,GW/shreveport.png,GW/hanover.png,0.0,0.4117647058823529,GW/shreveport.png,One Edge Diff,Four Edge Five Edge,638476f72ab8021be345e3ac
6698,3262.600000023842,shortestpath_phase,1441754,blocked,GW/boulder.png,49.0,GW/leesburg.png,GW/westpalmbeach.png,1.0,0.4285714285714285,GW/leesburg.png,One Edge Diff,Five Edge Six Edge,638476f72ab8021be345e3ac
6700,2653.800000011921,shortestpath_phase,1445419,blocked,GW/peoria.png,49.0,GW/huntsville.png,GW/westpalmbeach.png,1.0,0.4444444444444444,GW/huntsville.png,Three Edge Diff,Three Edge Six Edge,638476f72ab8021be345e3ac
6702,2468.599999964237,shortestpath_phase,1448899,blocked,GW/gatlinburg.png,50.0,GW/newhope.png,GW/carmel.png,0.0,0.4324324324324324,GW/newhope.png,Three Edge Diff,Three Edge Six Edge,638476f72ab8021be345e3ac
6704,2041.100000023842,shortestpath_phase,1451950,blocked,GW/boulder.png,50.0,GW/hanover.png,GW/westpalmbeach.png,0.0,0.4210526315789473,GW/hanover.png,Four Edge Diff,Two Edge Six Edge,638476f72ab8021be345e3ac
6706,2544.699999988079,shortestpath_phase,1455509,blocked,GW/gatlinburg.png,50.0,GW/racine.png,GW/leesburg.png,0.0,0.4102564102564102,GW/racine.png,Two Edge Diff,Four Edge Six Edge,638476f72ab8021be345e3ac
6708,2630.899999976158,shortestpath_phase,1459148,blocked,GW/hanover.png,50.0,GW/huntsville.png,GW/leesburg.png,0.0,0.4,GW/huntsville.png,Three Edge Diff,Three Edge Six Edge,638476f72ab8021be345e3ac
6710,3200.300000011921,shortestpath_phase,1463356,blocked,GW/gatlinburg.png,49.0,GW/leesburg.png,GW/peoria.png,0.0,0.3902439024390244,GW/peoria.png,Four Edge Diff,Two Edge Six Edge,638476f72ab8021be345e3ac
6712,3427.5,shortestpath_phase,1467797,blocked,GW/westpalmbeach.png,50.0,GW/boulder.png,GW/newhope.png,1.0,0.4047619047619047,GW/newhope.png,Two Edge Diff,Four Edge Six Edge,638476f72ab8021be345e3ac
6714,3303.599999964237,shortestpath_phase,1472117,blocked,GW/gatlinburg.png,50.0,GW/cornwall.png,GW/hotsprings.png,0.0,0.3953488372093023,GW/cornwall.png,One Edge Diff,Four Edge Five Edge,638476f72ab8021be345e3ac
6716,3415.0,shortestpath_phase,1476542,blocked,GW/leesburg.png,49.0,GW/racine.png,GW/peoria.png,1.0,0.4090909090909091,GW/racine.png,One Edge Diff,Three Edge Four Edge,638476f72ab8021be345e3ac
6718,2734.399999976158,shortestpath_phase,1480285,blocked,GW/boulder.png,50.0,GW/cornwall.png,GW/racine.png,0.0,0.4,GW/cornwall.png,One Edge Diff,Three Edge Four Edge,638476f72ab8021be345e3ac
6720,3050.5,shortestpath_phase,1484342,blocked,GW/hanover.png,50.0,GW/cornwall.png,GW/huntsville.png,1.0,0.4130434782608695,GW/huntsville.png,One Edge Diff,Two Edge Three Edge,638476f72ab8021be345e3ac
6722,3475.699999988079,shortestpath_phase,1488830,blocked,GW/carmel.png,50.0,GW/boulder.png,GW/leesburg.png,1.0,0.425531914893617,GW/leesburg.png,Three Edge Diff,Three Edge Six Edge,638476f72ab8021be345e3ac
6724,2312.399999976158,shortestpath_phase,1492151,blocked,GW/racine.png,50.0,GW/gatlinburg.png,GW/westpalmbeach.png,1.0,0.4375,GW/westpalmbeach.png,Two Edge Diff,Two Edge Four Edge,638476f72ab8021be345e3ac
6726,3097.699999988079,shortestpath_phase,1496263,blocked,GW/gatlinburg.png,50.0,GW/newhope.png,GW/cornwall.png,0.0,0.4285714285714285,GW/newhope.png,Two Edge Diff,Two Edge Four Edge,638476f72ab8021be345e3ac
6728,3685.0,shortestpath_phase,1500961,blocked,GW/leesburg.png,50.0,GW/cornwall.png,GW/gatlinburg.png,0.0,0.42,GW/cornwall.png,Four Edge Diff,Two Edge Six Edge,638476f72ab8021be345e3ac
6730,2699.100000023842,shortestpath_phase,1504670,blocked,GW/gatlinburg.png,49.0,GW/westpalmbeach.png,GW/peoria.png,0.0,0.4117647058823529,GW/peoria.png,Four Edge Diff,Two Edge Six Edge,638476f72ab8021be345e3ac
6732,2345.5,shortestpath_phase,1508025,blocked,GW/leesburg.png,50.0,GW/boulder.png,GW/westpalmbeach.png,1.0,0.4230769230769231,GW/westpalmbeach.png,Two Edge Diff,Three Edge Five Edge,638476f72ab8021be345e3ac
6734,2499.5,shortestpath_phase,1511537,blocked,GW/gatlinburg.png,49.0,GW/westpalmbeach.png,GW/cornwall.png,0.0,0.4150943396226415,GW/cornwall.png,Two Edge Diff,Four Edge Six Edge,638476f72ab8021be345e3ac
6736,2971.900000035763,shortestpath_phase,1515521,blocked,GW/westpalmbeach.png,49.0,GW/hanover.png,GW/boulder.png,1.0,0.4259259259259259,GW/hanover.png,One Edge Diff,Five Edge Six Edge,638476f72ab8021be345e3ac
6738,2031.199999988079,shortestpath_phase,1518563,blocked,GW/gatlinburg.png,50.0,GW/carmel.png,GW/leesburg.png,0.0,0.4181818181818181,GW/carmel.png,One Edge Diff,Five Edge Six Edge,638476f72ab8021be345e3ac
6740,2780.300000011921,shortestpath_phase,1522354,blocked,GW/westpalmbeach.png,50.0,GW/hanover.png,GW/hotsprings.png,1.0,0.4285714285714285,GW/hotsprings.png,Three Edge Diff,Two Edge Five Edge,638476f72ab8021be345e3ac
6742,2676.300000011921,shortestpath_phase,1526040,blocked,GW/boulder.png,49.0,GW/cornwall.png,GW/carmel.png,1.0,0.4385964912280701,GW/cornwall.png,Two Edge Diff,Three Edge Five Edge,638476f72ab8021be345e3ac
6744,3566.599999964237,shortestpath_phase,1530616,blocked,GW/westpalmbeach.png,49.0,GW/hanover.png,GW/gatlinburg.png,1.0,0.4482758620689655,GW/hanover.png,One Edge Diff,Five Edge Six Edge,638476f72ab8021be345e3ac
6746,2838.599999964237,shortestpath_phase,1534464,blocked,GW/leesburg.png,50.0,GW/hanover.png,GW/cornwall.png,1.0,0.4576271186440678,GW/cornwall.png,Three Edge Diff,Two Edge Five Edge,638476f72ab8021be345e3ac
6748,2687.300000011921,shortestpath_phase,1538178,blocked,GW/peoria.png,50.0,GW/westpalmbeach.png,GW/huntsville.png,1.0,0.4666666666666667,GW/huntsville.png,Three Edge Diff,Two Edge Five Edge,638476f72ab8021be345e3ac
6750,2709.099999964237,shortestpath_phase,1541897,blocked,GW/boulder.png,49.0,GW/gatlinburg.png,GW/carmel.png,1.0,0.4754098360655737,GW/gatlinburg.png,Two Edge Diff,Three Edge Five Edge,638476f72ab8021be345e3ac
6752,2316.399999976158,shortestpath_phase,1545225,blocked,GW/huntsville.png,50.0,GW/leesburg.png,GW/shreveport.png,1.0,0.4838709677419355,GW/shreveport.png,One Edge Diff,Two Edge Three Edge,638476f72ab8021be345e3ac
6754,3200.099999964237,shortestpath_phase,1549433,blocked,GW/carmel.png,49.0,GW/peoria.png,GW/newhope.png,0.0,0.4761904761904761,GW/newhope.png,One Edge Diff,Three Edge Four Edge,638476f72ab8021be345e3ac
6756,2920.5,shortestpath_phase,1553364,blocked,GW/leesburg.png,49.0,GW/boulder.png,GW/cornwall.png,0.0,0.46875,GW/cornwall.png,Three Edge Diff,Two Edge Five Edge,638476f72ab8021be345e3ac
6758,2529.100000023842,shortestpath_phase,1556906,blocked,GW/racine.png,50.0,GW/boulder.png,GW/westpalmbeach.png,1.0,0.4769230769230769,GW/westpalmbeach.png,Two Edge Diff,Two Edge Four Edge,638476f72ab8021be345e3ac
6760,3248.600000023842,shortestpath_phase,1561164,blocked,GW/leesburg.png,50.0,GW/boulder.png,GW/shreveport.png,1.0,0.4848484848484848,GW/shreveport.png,Two Edge Diff,Three Edge Five Edge,638476f72ab8021be345e3ac
6762,1822.0,shortestpath_phase,1563994,blocked,GW/gatlinburg.png,50.0,GW/peoria.png,GW/carmel.png,0.0,0.4776119402985074,GW/peoria.png,Three Edge Diff,Three Edge Six Edge,638476f72ab8021be345e3ac
6764,2768.100000023842,shortestpath_phase,1567774,blocked,GW/hotsprings.png,50.0,GW/shreveport.png,GW/gatlinburg.png,0.0,0.4705882352941176,GW/shreveport.png,Three Edge Diff,Three Edge Six Edge,638476f72ab8021be345e3ac
6766,2212.399999976158,shortestpath_phase,1570998,blocked,GW/gatlinburg.png,49.0,GW/racine.png,GW/westpalmbeach.png,1.0,0.4782608695652174,GW/racine.png,Two Edge Diff,Four Edge Six Edge,638476f72ab8021be345e3ac
6768,2707.399999976158,shortestpath_phase,1574716,blocked,GW/leesburg.png,49.0,GW/carmel.png,GW/boulder.png,1.0,0.4857142857142857,GW/carmel.png,Three Edge Diff,Two Edge Five Edge,638476f72ab8021be345e3ac
6770,2472.399999976158,shortestpath_phase,1578198,blocked,GW/shreveport.png,49.0,GW/gatlinburg.png,GW/westpalmbeach.png,1.0,0.4929577464788732,GW/gatlinburg.png,One Edge Diff,Three Edge Four Edge,638476f72ab8021be345e3ac
6772,2829.0,shortestpath_phase,1582039,blocked,GW/hanover.png,50.0,GW/leesburg.png,GW/hotsprings.png,1.0,0.5,GW/hotsprings.png,One Edge Diff,Four Edge Five Edge,638476f72ab8021be345e3ac
6774,2641.100000023842,shortestpath_phase,1585693,blocked,GW/leesburg.png,50.0,GW/gatlinburg.png,GW/carmel.png,1.0,0.5068493150684932,GW/carmel.png,Four Edge Diff,Two Edge Six Edge,638476f72ab8021be345e3ac
6776,2369.599999964237,shortestpath_phase,1589071,blocked,GW/peoria.png,49.0,GW/carmel.png,GW/cornwall.png,0.0,0.5,GW/cornwall.png,Two Edge Diff,Two Edge Four Edge,638476f72ab8021be345e3ac
6778,2979.599999964237,shortestpath_phase,1593064,blocked,GW/boulder.png,49.0,GW/newhope.png,GW/leesburg.png,1.0,0.5066666666666667,GW/newhope.png,Three Edge Diff,Three Edge Six Edge,638476f72ab8021be345e3ac
6780,2570.400000035763,shortestpath_phase,1596645,blocked,GW/westpalmbeach.png,50.0,GW/gatlinburg.png,GW/hotsprings.png,1.0,0.5131578947368421,GW/hotsprings.png,Four Edge Diff,Two Edge Six Edge,638476f72ab8021be345e3ac
6782,2871.0,shortestpath_phase,1600535,blocked,GW/gatlinburg.png,49.0,GW/westpalmbeach.png,GW/newhope.png,0.0,0.5064935064935064,GW/newhope.png,Four Edge Diff,Two Edge Six Edge,638476f72ab8021be345e3ac
6784,2151.5,shortestpath_phase,1603696,blocked,GW/peoria.png,50.0,GW/hotsprings.png,GW/westpalmbeach.png,0.0,0.5,GW/hotsprings.png,Two Edge Diff,Three Edge Five Edge,638476f72ab8021be345e3ac
6786,2372.699999988079,shortestpath_phase,1607080,blocked,GW/gatlinburg.png,50.0,GW/carmel.png,GW/boulder.png,1.0,0.5063291139240507,GW/boulder.png,Two Edge Diff,Three Edge Five Edge,638476f72ab8021be345e3ac
6788,2849.5,shortestpath_phase,1610945,blocked,GW/westpalmbeach.png,50.0,GW/boulder.png,GW/hotsprings.png,1.0,0.5125,GW/hotsprings.png,Four Edge Diff,Two Edge Six Edge,638476f72ab8021be345e3ac
6790,2676.5,shortestpath_phase,1614632,blocked,GW/gatlinburg.png,49.0,GW/leesburg.png,GW/cornwall.png,0.0,0.5061728395061729,GW/cornwall.png,Two Edge Diff,Four Edge Six Edge,638476f72ab8021be345e3ac
6792,2925.099999964237,shortestpath_phase,1618568,blocked,GW/boulder.png,50.0,GW/westpalmbeach.png,GW/newhope.png,1.0,0.5121951219512195,GW/newhope.png,Four Edge Diff,Two Edge Six Edge,638476f72ab8021be345e3ac
6794,3214.300000011921,shortestpath_phase,1622792,blocked,GW/peoria.png,49.0,GW/gatlinburg.png,GW/westpalmbeach.png,1.0,0.5180722891566265,GW/gatlinburg.png,Three Edge Diff,Three Edge Six Edge,638476f72ab8021be345e3ac
6796,2827.900000035763,shortestpath_phase,1626630,blocked,GW/newhope.png,50.0,GW/cornwall.png,GW/leesburg.png,0.0,0.5119047619047619,GW/cornwall.png,Two Edge Diff,Two Edge Four Edge,638476f72ab8021be345e3ac
8583,1623.5999999046326,shortestpath_phase,1485714,blocked,GW/leesburg.png,50.0,GW/boulder.png,GW/westpalmbeach.png,1.0,1.0,GW/westpalmbeach.png,Four Edge Diff,Two Edge Six Edge,6595938bf754e3013651e556
8585,3706.199999809265,shortestpath_phase,1490425,blocked,GW/hotsprings.png,49.0,GW/shreveport.png,GW/racine.png,0.0,0.5,GW/racine.png,Three Edge Diff,Three Edge Six Edge,6595938bf754e3013651e556
8587,1667.2999999523165,shortestpath_phase,1493097,blocked,GW/peoria.png,50.0,GW/boulder.png,GW/racine.png,0.0,0.3333333333333333,GW/boulder.png,Three Edge Diff,Three Edge Six Edge,6595938bf754e3013651e556
8589,1852.5,shortestpath_phase,1495954,blocked,GW/cornwall.png,49.0,GW/westpalmbeach.png,GW/hanover.png,1.0,0.5,GW/westpalmbeach.png,One Edge Diff,Two Edge Three Edge,6595938bf754e3013651e556
8591,1603.5999999046326,shortestpath_phase,1498562,blocked,GW/boulder.png,50.0,GW/racine.png,GW/shreveport.png,1.0,0.6,GW/shreveport.png,Two Edge Diff,Three Edge Five Edge,6595938bf754e3013651e556
8593,1898.4000000953672,shortestpath_phase,1501465,blocked,GW/leesburg.png,49.0,GW/carmel.png,GW/boulder.png,1.0,0.6666666666666666,GW/carmel.png,Two Edge Diff,Four Edge Six Edge,6595938bf754e3013651e556
8595,1803.2999999523165,shortestpath_phase,1504273,blocked,GW/boulder.png,50.0,GW/leesburg.png,GW/racine.png,1.0,0.7142857142857143,GW/racine.png,One Edge Diff,Five Edge Six Edge,6595938bf754e3013651e556
8597,1427.4000000953674,shortestpath_phase,1506706,blocked,GW/huntsville.png,50.0,GW/shreveport.png,GW/westpalmbeach.png,0.0,0.625,GW/shreveport.png,One Edge Diff,Two Edge Three Edge,6595938bf754e3013651e556
8599,1771.0999999046326,shortestpath_phase,1509481,blocked,GW/racine.png,49.0,GW/shreveport.png,GW/boulder.png,0.0,0.5555555555555556,GW/boulder.png,One Edge Diff,Five Edge Six Edge,6595938bf754e3013651e556
8601,2572.5,shortestpath_phase,1513057,blocked,GW/shreveport.png,50.0,GW/leesburg.png,GW/hanover.png,1.0,0.6,GW/hanover.png,One Edge Diff,Five Edge Six Edge,6595938bf754e3013651e556
8603,2458.7999999523163,shortestpath_phase,1516522,blocked,GW/racine.png,50.0,GW/shreveport.png,GW/huntsville.png,1.0,0.6363636363636364,GW/huntsville.png,Two Edge Diff,Four Edge Six Edge,6595938bf754e3013651e556
8605,1315.7999999523165,shortestpath_phase,1518842,blocked,GW/westpalmbeach.png,49.0,GW/huntsville.png,GW/cornwall.png,0.0,0.5833333333333334,GW/cornwall.png,One Edge Diff,Two Edge Three Edge,6595938bf754e3013651e556
8607,1467.7000000476835,shortestpath_phase,1521314,blocked,GW/leesburg.png,49.0,GW/cornwall.png,GW/racine.png,0.0,0.5384615384615384,GW/racine.png,One Edge Diff,Three Edge Four Edge,6595938bf754e3013651e556
8609,2802.399999856949,shortestpath_phase,1525121,blocked,GW/shreveport.png,50.0,GW/hanover.png,GW/gatlinburg.png,1.0,0.5714285714285714,GW/gatlinburg.png,One Edge Diff,Four Edge Five Edge,6595938bf754e3013651e556
8611,2203.899999856949,shortestpath_phase,1528337,blocked,GW/hotsprings.png,50.0,GW/peoria.png,GW/boulder.png,0.0,0.5333333333333333,GW/peoria.png,One Edge Diff,Four Edge Five Edge,6595938bf754e3013651e556
8613,2307.699999809265,shortestpath_phase,1531650,blocked,GW/racine.png,49.0,GW/shreveport.png,GW/gatlinburg.png,0.0,0.5,GW/gatlinburg.png,Four Edge Diff,Two Edge Six Edge,6595938bf754e3013651e556
8615,1187.0,shortestpath_phase,1533841,blocked,GW/boulder.png,50.0,GW/peoria.png,GW/hotsprings.png,0.0,0.4705882352941176,GW/peoria.png,Three Edge Diff,Three Edge Six Edge,6595938bf754e3013651e556
8617,1659.0999999046326,shortestpath_phase,1536505,blocked,GW/huntsville.png,50.0,GW/newhope.png,GW/leesburg.png,0.0,0.4444444444444444,GW/newhope.png,Three Edge Diff,Two Edge Five Edge,6595938bf754e3013651e556
8619,1603.3999998569489,shortestpath_phase,1539113,blocked,GW/boulder.png,50.0,GW/leesburg.png,GW/peoria.png,1.0,0.4736842105263157,GW/peoria.png,Four Edge Diff,Two Edge Six Edge,6595938bf754e3013651e556
8621,1427.7999999523165,shortestpath_phase,1541545,blocked,GW/shreveport.png,49.0,GW/cornwall.png,GW/racine.png,1.0,0.5,GW/cornwall.png,Four Edge Diff,Two Edge Six Edge,6595938bf754e3013651e556
8623,1499.5,shortestpath_phase,1544050,blocked,GW/peoria.png,49.0,GW/racine.png,GW/boulder.png,0.0,0.4761904761904761,GW/boulder.png,Three Edge Diff,Two Edge Five Edge,6595938bf754e3013651e556
8625,1932.1000001430511,shortestpath_phase,1546985,blocked,GW/leesburg.png,49.0,GW/carmel.png,GW/huntsville.png,1.0,0.5,GW/carmel.png,One Edge Diff,Four Edge Five Edge,6595938bf754e3013651e556
8627,1090.7999999523165,shortestpath_phase,1549081,blocked,GW/shreveport.png,49.0,GW/hanover.png,GW/boulder.png,0.0,0.4782608695652174,GW/boulder.png,Two Edge Diff,Three Edge Five Edge,6595938bf754e3013651e556
8629,1356.0,shortestpath_phase,1551441,blocked,GW/leesburg.png,50.0,GW/shreveport.png,GW/peoria.png,1.0,0.5,GW/peoria.png,One Edge Diff,Five Edge Six Edge,6595938bf754e3013651e556
8631,1530.7999999523165,shortestpath_phase,1553977,blocked,GW/cornwall.png,50.0,GW/leesburg.png,GW/boulder.png,1.0,0.52,GW/boulder.png,One Edge Diff,Three Edge Four Edge,6595938bf754e3013651e556
8633,1723.7000000476835,shortestpath_phase,1556706,blocked,GW/peoria.png,49.0,GW/carmel.png,GW/leesburg.png,1.0,0.5384615384615384,GW/carmel.png,Three Edge Diff,Three Edge Six Edge,6595938bf754e3013651e556
8635,1091.0,shortestpath_phase,1558801,blocked,GW/hotsprings.png,50.0,GW/boulder.png,GW/gatlinburg.png,1.0,0.5555555555555556,GW/gatlinburg.png,Three Edge Diff,Three Edge Six Edge,6595938bf754e3013651e556
8637,1530.7999999523165,shortestpath_phase,1561337,blocked,GW/racine.png,49.0,GW/westpalmbeach.png,GW/shreveport.png,1.0,0.5714285714285714,GW/westpalmbeach.png,Four Edge Diff,Two Edge Six Edge,6595938bf754e3013651e556
8639,1346.9000000953674,shortestpath_phase,1563689,blocked,GW/peoria.png,49.0,GW/leesburg.png,GW/gatlinburg.png,0.0,0.5517241379310345,GW/gatlinburg.png,Two Edge Diff,Three Edge Five Edge,6595938bf754e3013651e556
8641,1259.3000001907349,shortestpath_phase,1565953,blocked,GW/huntsville.png,50.0,GW/leesburg.png,GW/newhope.png,1.0,0.5666666666666667,GW/newhope.png,Three Edge Diff,Three Edge Six Edge,6595938bf754e3013651e556
8643,1012.5,shortestpath_phase,1567970,blocked,GW/leesburg.png,50.0,GW/hanover.png,GW/huntsville.png,0.0,0.5483870967741935,GW/hanover.png,Three Edge Diff,Three Edge Six Edge,6595938bf754e3013651e556
8645,1386.0999999046326,shortestpath_phase,1570361,blocked,GW/shreveport.png,49.0,GW/huntsville.png,GW/racine.png,1.0,0.5625,GW/huntsville.png,Four Edge Diff,Two Edge Six Edge,6595938bf754e3013651e556
8647,1611.2000000476835,shortestpath_phase,1572977,blocked,GW/boulder.png,49.0,GW/leesburg.png,GW/hanover.png,0.0,0.5454545454545454,GW/hanover.png,Two Edge Diff,Four Edge Six Edge,6595938bf754e3013651e556
8649,1106.7000000476835,shortestpath_phase,1575089,blocked,GW/racine.png,50.0,GW/huntsville.png,GW/peoria.png,0.0,0.5294117647058824,GW/huntsville.png,One Edge Diff,Four Edge Five Edge,6595938bf754e3013651e556
8651,907.7000000476836,shortestpath_phase,1577001,blocked,GW/boulder.png,49.0,GW/carmel.png,GW/leesburg.png,1.0,0.5428571428571428,GW/carmel.png,Four Edge Diff,Two Edge Six Edge,6595938bf754e3013651e556
8653,1259.9000000953674,shortestpath_phase,1579266,blocked,GW/huntsville.png,50.0,GW/racine.png,GW/cornwall.png,1.0,0.5555555555555556,GW/cornwall.png,Two Edge Diff,Two Edge Four Edge,6595938bf754e3013651e556
8655,1330.5999999046326,shortestpath_phase,1581601,blocked,GW/boulder.png,49.0,GW/newhope.png,GW/hotsprings.png,1.0,0.5675675675675675,GW/newhope.png,Two Edge Diff,Three Edge Five Edge,6595938bf754e3013651e556
8657,1155.0,shortestpath_phase,1583761,blocked,GW/shreveport.png,49.0,GW/leesburg.png,GW/huntsville.png,0.0,0.5526315789473685,GW/huntsville.png,Four Edge Diff,Two Edge Six Edge,6595938bf754e3013651e556
8659,971.9000000953674,shortestpath_phase,1585737,blocked,GW/hotsprings.png,50.0,GW/huntsville.png,GW/gatlinburg.png,1.0,0.5641025641025641,GW/gatlinburg.png,Two Edge Diff,Two Edge Four Edge,6595938bf754e3013651e556
8661,1644.0999999046326,shortestpath_phase,1588385,blocked,GW/leesburg.png,50.0,GW/shreveport.png,GW/carmel.png,1.0,0.575,GW/carmel.png,Two Edge Diff,Four Edge Six Edge,6595938bf754e3013651e556
8663,882.7999999523163,shortestpath_phase,1590274,blocked,GW/hotsprings.png,49.0,GW/gatlinburg.png,GW/shreveport.png,1.0,0.5853658536585366,GW/gatlinburg.png,Three Edge Diff,Three Edge Six Edge,6595938bf754e3013651e556
8665,1107.0,shortestpath_phase,1592385,blocked,GW/leesburg.png,49.0,GW/carmel.png,GW/racine.png,0.0,0.5714285714285714,GW/racine.png,One Edge Diff,Three Edge Four Edge,6595938bf754e3013651e556
8667,1483.2000000476835,shortestpath_phase,1594873,blocked,GW/peoria.png,50.0,GW/carmel.png,GW/racine.png,0.0,0.5581395348837209,GW/carmel.png,Three Edge Diff,Three Edge Six Edge,6595938bf754e3013651e556
8669,1675.0,shortestpath_phase,1597553,blocked,GW/hotsprings.png,50.0,GW/newhope.png,GW/peoria.png,0.0,0.5454545454545454,GW/newhope.png,Two Edge Diff,Two Edge Four Edge,6595938bf754e3013651e556
8671,1169.9000000953674,shortestpath_phase,1599729,blocked,GW/racine.png,49.0,GW/boulder.png,GW/carmel.png,0.0,0.5333333333333333,GW/carmel.png,Two Edge Diff,Three Edge Five Edge,6595938bf754e3013651e556
8673,1299.6000001430511,shortestpath_phase,1602034,blocked,GW/shreveport.png,50.0,GW/hotsprings.png,GW/leesburg.png,0.0,0.5217391304347826,GW/hotsprings.png,One Edge Diff,Five Edge Six Edge,6595938bf754e3013651e556
8675,1409.7999999523165,shortestpath_phase,1604449,blocked,GW/hanover.png,50.0,GW/peoria.png,GW/cornwall.png,1.0,0.5319148936170213,GW/cornwall.png,One Edge Diff,Three Edge Four Edge,6595938bf754e3013651e556
8677,1558.0,shortestpath_phase,1607025,blocked,GW/westpalmbeach.png,49.0,GW/leesburg.png,GW/boulder.png,1.0,0.5416666666666666,GW/leesburg.png,Two Edge Diff,Two Edge Four Edge,6595938bf754e3013651e556
8679,1195.8000001907349,shortestpath_phase,1609225,blocked,GW/boulder.png,50.0,GW/racine.png,GW/hanover.png,1.0,0.5510204081632653,GW/hanover.png,One Edge Diff,Four Edge Five Edge,6595938bf754e3013651e556
8681,1059.7000000476835,shortestpath_phase,1611289,blocked,GW/leesburg.png,49.0,GW/westpalmbeach.png,GW/peoria.png,1.0,0.56,GW/westpalmbeach.png,Three Edge Diff,Two Edge Five Edge,6595938bf754e3013651e556
8683,1523.7000000476835,shortestpath_phase,1613818,blocked,GW/racine.png,49.0,GW/hotsprings.png,GW/shreveport.png,1.0,0.5686274509803921,GW/hotsprings.png,Four Edge Diff,Two Edge Six Edge,6595938bf754e3013651e556
8685,1265.5,shortestpath_phase,1616089,blocked,GW/westpalmbeach.png,49.0,GW/carmel.png,GW/shreveport.png,1.0,0.5769230769230769,GW/carmel.png,Two Edge Diff,Two Edge Four Edge,6595938bf754e3013651e556
8687,2955.0,shortestpath_phase,1620049,blocked,GW/leesburg.png,50.0,GW/cornwall.png,GW/shreveport.png,0.0,0.5660377358490566,GW/cornwall.png,Two Edge Diff,Four Edge Six Edge,6595938bf754e3013651e556
8689,1479.9000000953674,shortestpath_phase,1622545,blocked,GW/shreveport.png,50.0,GW/huntsville.png,GW/hanover.png,0.0,0.5555555555555556,GW/huntsville.png,Three Edge Diff,Three Edge Six Edge,6595938bf754e3013651e556
8691,1412.4000000953674,shortestpath_phase,1624962,blocked,GW/leesburg.png,50.0,GW/shreveport.png,GW/westpalmbeach.png,1.0,0.5636363636363636,GW/westpalmbeach.png,Four Edge Diff,Two Edge Six Edge,6595938bf754e3013651e556
8693,1282.8999998569489,shortestpath_phase,1627249,blocked,GW/cornwall.png,49.0,GW/huntsville.png,GW/boulder.png,1.0,0.5714285714285714,GW/huntsville.png,One Edge Diff,Two Edge Three Edge,6595938bf754e3013651e556
8695,1395.1000001430511,shortestpath_phase,1629649,blocked,GW/boulder.png,49.0,GW/carmel.png,GW/racine.png,1.0,0.5789473684210527,GW/carmel.png,Three Edge Diff,Two Edge Five Edge,6595938bf754e3013651e556
8697,1272.5,shortestpath_phase,1631937,blocked,GW/shreveport.png,50.0,GW/hotsprings.png,GW/huntsville.png,1.0,0.5862068965517241,GW/huntsville.png,Three Edge Diff,Two Edge Five Edge,6595938bf754e3013651e556
8699,1331.7000000476835,shortestpath_phase,1634273,blocked,GW/hanover.png,50.0,GW/shreveport.png,GW/carmel.png,1.0,0.5932203389830508,GW/carmel.png,Three Edge Diff,Three Edge Six Edge,6595938bf754e3013651e556
8701,1355.5,shortestpath_phase,1636634,blocked,GW/shreveport.png,50.0,GW/hanover.png,GW/huntsville.png,1.0,0.6,GW/huntsville.png,Three Edge Diff,Two Edge Five Edge,6595938bf754e3013651e556
8703,1025.2999999523165,shortestpath_phase,1638665,blocked,GW/racine.png,50.0,GW/shreveport.png,GW/cornwall.png,1.0,0.6065573770491803,GW/cornwall.png,Two Edge Diff,Four Edge Six Edge,6595938bf754e3013651e556
8705,1434.3999998569489,shortestpath_phase,1641105,blocked,GW/hotsprings.png,49.0,GW/newhope.png,GW/boulder.png,1.0,0.6129032258064516,GW/newhope.png,Three Edge Diff,Two Edge Five Edge,6595938bf754e3013651e556
8707,1508.0999999046326,shortestpath_phase,1643617,blocked,GW/cornwall.png,49.0,GW/gatlinburg.png,GW/shreveport.png,0.0,0.6031746031746031,GW/shreveport.png,One Edge Diff,Two Edge Three Edge,6595938bf754e3013651e556
8709,971.7999999523164,shortestpath_phase,1645593,blocked,GW/racine.png,50.0,GW/leesburg.png,GW/peoria.png,0.0,0.59375,GW/leesburg.png,Two Edge Diff,Three Edge Five Edge,6595938bf754e3013651e556
8711,1307.5999999046326,shortestpath_phase,1647905,blocked,GW/peoria.png,49.0,GW/leesburg.png,GW/boulder.png,0.0,0.5846153846153846,GW/boulder.png,Three Edge Diff,Two Edge Five Edge,6595938bf754e3013651e556
8713,1963.3999998569489,shortestpath_phase,1650873,blocked,GW/leesburg.png,49.0,GW/huntsville.png,GW/boulder.png,1.0,0.5909090909090909,GW/huntsville.png,One Edge Diff,Five Edge Six Edge,6595938bf754e3013651e556
8715,1218.6000001430511,shortestpath_phase,1653097,blocked,GW/racine.png,50.0,GW/gatlinburg.png,GW/boulder.png,0.0,0.582089552238806,GW/gatlinburg.png,Three Edge Diff,Two Edge Five Edge,6595938bf754e3013651e556
8717,1330.5999999046326,shortestpath_phase,1655433,blocked,GW/leesburg.png,50.0,GW/shreveport.png,GW/hanover.png,1.0,0.5882352941176471,GW/hanover.png,Four Edge Diff,Two Edge Six Edge,6595938bf754e3013651e556
8719,1564.0,shortestpath_phase,1658002,blocked,GW/shreveport.png,49.0,GW/hanover.png,GW/cornwall.png,0.0,0.5797101449275363,GW/cornwall.png,Three Edge Diff,Two Edge Five Edge,6595938bf754e3013651e556
8721,1555.4000000953674,shortestpath_phase,1660569,blocked,GW/racine.png,50.0,GW/boulder.png,GW/huntsville.png,1.0,0.5857142857142857,GW/huntsville.png,One Edge Diff,Four Edge Five Edge,6595938bf754e3013651e556
8723,850.7000000476837,shortestpath_phase,1662425,blocked,GW/hotsprings.png,49.0,GW/gatlinburg.png,GW/peoria.png,1.0,0.5915492957746479,GW/gatlinburg.png,Two Edge Diff,Two Edge Four Edge,6595938bf754e3013651e556
8725,1523.7000000476835,shortestpath_phase,1664953,blocked,GW/leesburg.png,50.0,GW/racine.png,GW/huntsville.png,0.0,0.5833333333333334,GW/racine.png,Two Edge Diff,Three Edge Five Edge,6595938bf754e3013651e556
8727,2306.199999809265,shortestpath_phase,1668266,blocked,GW/huntsville.png,49.0,GW/hanover.png,GW/leesburg.png,1.0,0.589041095890411,GW/hanover.png,Two Edge Diff,Three Edge Five Edge,6595938bf754e3013651e556
8729,2770.7999999523163,shortestpath_phase,1672041,blocked,GW/peoria.png,49.0,GW/newhope.png,GW/leesburg.png,1.0,0.5945945945945946,GW/newhope.png,Three Edge Diff,Three Edge Six Edge,6595938bf754e3013651e556
8731,2162.7999999523163,shortestpath_phase,1675209,blocked,GW/leesburg.png,50.0,GW/hanover.png,GW/boulder.png,0.0,0.5866666666666667,GW/hanover.png,Four Edge Diff,Two Edge Six Edge,6595938bf754e3013651e556
8733,1058.7000000476835,shortestpath_phase,1677273,blocked,GW/racine.png,50.0,GW/huntsville.png,GW/gatlinburg.png,1.0,0.5921052631578947,GW/gatlinburg.png,Two Edge Diff,Two Edge Four Edge,6595938bf754e3013651e556
8735,1306.5,shortestpath_phase,1679585,blocked,GW/hotsprings.png,50.0,GW/shreveport.png,GW/newhope.png,1.0,0.5974025974025974,GW/newhope.png,Three Edge Diff,Two Edge Five Edge,6595938bf754e3013651e556
8737,1163.5,shortestpath_phase,1681753,blocked,GW/carmel.png,50.0,GW/racine.png,GW/leesburg.png,0.0,0.5897435897435898,GW/racine.png,One Edge Diff,Three Edge Four Edge,6595938bf754e3013651e556
8739,2370.399999856949,shortestpath_phase,1685129,blocked,GW/shreveport.png,50.0,GW/leesburg.png,GW/gatlinburg.png,1.0,0.5949367088607594,GW/gatlinburg.png,Two Edge Diff,Four Edge Six Edge,6595938bf754e3013651e556
8741,1659.0,shortestpath_phase,1687793,blocked,GW/racine.png,50.0,GW/peoria.png,GW/hotsprings.png,1.0,0.6,GW/hotsprings.png,Three Edge Diff,Two Edge Five Edge,6595938bf754e3013651e556
8743,1787.0,shortestpath_phase,1690585,blocked,GW/leesburg.png,49.0,GW/cornwall.png,GW/boulder.png,1.0,0.6049382716049383,GW/cornwall.png,Two Edge Diff,Four Edge Six Edge,6595938bf754e3013651e556
8745,890.5,shortestpath_phase,1692481,blocked,GW/racine.png,50.0,GW/hotsprings.png,GW/carmel.png,0.0,0.5975609756097561,GW/hotsprings.png,One Edge Diff,Two Edge Three Edge,6595938bf754e3013651e556
8747,1233.7999999523165,shortestpath_phase,1694721,blocked,GW/hanover.png,50.0,GW/boulder.png,GW/huntsville.png,1.0,0.6024096385542169,GW/huntsville.png,One Edge Diff,Three Edge Four Edge,6595938bf754e3013651e556
8749,1474.7999999523165,shortestpath_phase,1697201,blocked,GW/racine.png,49.0,GW/hotsprings.png,GW/huntsville.png,1.0,0.6071428571428571,GW/hotsprings.png,Two Edge Diff,Two Edge Four Edge,6595938bf754e3013651e556
9558,2511.899999976158,shortestpath_phase,1264122,blocked,GW/carmel.png,49.0,GW/gatlinburg.png,GW/shreveport.png,1.0,1.0,GW/gatlinburg.png,Three Edge Diff,Two Edge Five Edge,65b92135e296f28cb1a093c3
9560,1708.0,shortestpath_phase,1266834,blocked,GW/boulder.png,49.0,GW/hotsprings.png,GW/westpalmbeach.png,1.0,1.0,GW/hotsprings.png,Three Edge Diff,Two Edge Five Edge,65b92135e296f28cb1a093c3
9562,1771.5999999642372,shortestpath_phase,1269610,blocked,GW/gatlinburg.png,50.0,GW/westpalmbeach.png,GW/newhope.png,1.0,1.0,GW/newhope.png,Two Edge Diff,Two Edge Four Edge,65b92135e296f28cb1a093c3
9564,1574.199999988079,shortestpath_phase,1272187,blocked,GW/shreveport.png,49.0,GW/boulder.png,GW/westpalmbeach.png,0.0,0.75,GW/westpalmbeach.png,Three Edge Diff,Three Edge Six Edge,65b92135e296f28cb1a093c3
9566,2046.800000011921,shortestpath_phase,1275242,blocked,GW/boulder.png,49.0,GW/newhope.png,GW/shreveport.png,1.0,0.8,GW/newhope.png,Three Edge Diff,Three Edge Six Edge,65b92135e296f28cb1a093c3
9568,1743.399999976158,shortestpath_phase,1277988,blocked,GW/carmel.png,49.0,GW/gatlinburg.png,GW/racine.png,1.0,0.8333333333333334,GW/gatlinburg.png,Three Edge Diff,Three Edge Six Edge,65b92135e296f28cb1a093c3
9570,1411.5999999642372,shortestpath_phase,1280404,blocked,GW/westpalmbeach.png,50.0,GW/hanover.png,GW/boulder.png,0.0,0.7142857142857143,GW/hanover.png,Two Edge Diff,Three Edge Five Edge,65b92135e296f28cb1a093c3
9572,1509.699999988079,shortestpath_phase,1282916,blocked,GW/racine.png,50.0,GW/huntsville.png,GW/carmel.png,0.0,0.625,GW/huntsville.png,Three Edge Diff,Two Edge Five Edge,65b92135e296f28cb1a093c3
9574,1711.100000023842,shortestpath_phase,1285630,blocked,GW/westpalmbeach.png,50.0,GW/hotsprings.png,GW/leesburg.png,1.0,0.6666666666666666,GW/leesburg.png,One Edge Diff,Four Edge Five Edge,65b92135e296f28cb1a093c3
9576,1186.5,shortestpath_phase,1287822,blocked,GW/hanover.png,49.0,GW/leesburg.png,GW/gatlinburg.png,0.0,0.6,GW/gatlinburg.png,One Edge Diff,Four Edge Five Edge,65b92135e296f28cb1a093c3
9578,1555.699999988079,shortestpath_phase,1290381,blocked,GW/westpalmbeach.png,49.0,GW/shreveport.png,GW/boulder.png,1.0,0.6363636363636364,GW/shreveport.png,Three Edge Diff,Three Edge Six Edge,65b92135e296f28cb1a093c3
9580,942.0999999642372,shortestpath_phase,1292326,blocked,GW/hanover.png,50.0,GW/leesburg.png,GW/peoria.png,1.0,0.6666666666666666,GW/peoria.png,Three Edge Diff,Two Edge Five Edge,65b92135e296f28cb1a093c3
9582,1827.800000011921,shortestpath_phase,1295158,blocked,GW/hotsprings.png,50.0,GW/boulder.png,GW/westpalmbeach.png,0.0,0.6153846153846154,GW/boulder.png,Three Edge Diff,Three Edge Six Edge,65b92135e296f28cb1a093c3
9584,1509.2000000476835,shortestpath_phase,1297671,blocked,GW/hanover.png,50.0,GW/hotsprings.png,GW/gatlinburg.png,1.0,0.6428571428571429,GW/gatlinburg.png,One Edge Diff,Four Edge Five Edge,65b92135e296f28cb1a093c3
9586,1630.199999988079,shortestpath_phase,1300304,blocked,GW/racine.png,49.0,GW/newhope.png,GW/carmel.png,1.0,0.6666666666666666,GW/newhope.png,Three Edge Diff,Two Edge Five Edge,65b92135e296f28cb1a093c3
9588,1620.199999988079,shortestpath_phase,1302927,blocked,GW/westpalmbeach.png,50.0,GW/leesburg.png,GW/hanover.png,1.0,0.6875,GW/hanover.png,One Edge Diff,Three Edge Four Edge,65b92135e296f28cb1a093c3
9590,1829.899999976158,shortestpath_phase,1305759,blocked,GW/shreveport.png,50.0,GW/newhope.png,GW/leesburg.png,0.0,0.6470588235294118,GW/newhope.png,One Edge Diff,Three Edge Four Edge,65b92135e296f28cb1a093c3
9592,1118.199999988079,shortestpath_phase,1307880,blocked,GW/hanover.png,50.0,GW/carmel.png,GW/racine.png,1.0,0.6666666666666666,GW/racine.png,Four Edge Diff,Two Edge Six Edge,65b92135e296f28cb1a093c3
9594,1468.800000011921,shortestpath_phase,1310352,blocked,GW/shreveport.png,50.0,GW/gatlinburg.png,GW/carmel.png,0.0,0.631578947368421,GW/gatlinburg.png,Two Edge Diff,Three Edge Five Edge,65b92135e296f28cb1a093c3
9596,1829.7000000476835,shortestpath_phase,1313185,blocked,GW/hanover.png,49.0,GW/peoria.png,GW/cornwall.png,1.0,0.65,GW/peoria.png,One Edge Diff,Two Edge Three Edge,65b92135e296f28cb1a093c3
9598,1541.0,shortestpath_phase,1315729,blocked,GW/boulder.png,49.0,GW/hanover.png,GW/racine.png,0.0,0.6190476190476191,GW/racine.png,Two Edge Diff,Four Edge Six Edge,65b92135e296f28cb1a093c3
9600,1622.9000000357628,shortestpath_phase,1318354,blocked,GW/hanover.png,49.0,GW/carmel.png,GW/peoria.png,0.0,0.5909090909090909,GW/peoria.png,Four Edge Diff,Two Edge Six Edge,65b92135e296f28cb1a093c3
9602,1476.4000000357628,shortestpath_phase,1320834,blocked,GW/shreveport.png,49.0,GW/leesburg.png,GW/cornwall.png,0.0,0.5652173913043478,GW/cornwall.png,Two Edge Diff,Two Edge Four Edge,65b92135e296f28cb1a093c3
9604,1495.199999988079,shortestpath_phase,1323332,blocked,GW/hanover.png,50.0,GW/carmel.png,GW/newhope.png,1.0,0.5833333333333334,GW/newhope.png,Two Edge Diff,Four Edge Six Edge,65b92135e296f28cb1a093c3
9606,1060.0,shortestpath_phase,1325395,blocked,GW/boulder.png,49.0,GW/huntsville.png,GW/westpalmbeach.png,1.0,0.6,GW/huntsville.png,Two Edge Diff,Three Edge Five Edge,65b92135e296f28cb1a093c3
9608,1564.600000023842,shortestpath_phase,1327964,blocked,GW/carmel.png,49.0,GW/hanover.png,GW/leesburg.png,0.0,0.5769230769230769,GW/leesburg.png,Four Edge Diff,Two Edge Six Edge,65b92135e296f28cb1a093c3
9610,1895.199999988079,shortestpath_phase,1330862,blocked,GW/hotsprings.png,50.0,GW/westpalmbeach.png,GW/boulder.png,1.0,0.5925925925925926,GW/boulder.png,Three Edge Diff,Two Edge Five Edge,65b92135e296f28cb1a093c3
9612,1376.7999999523165,shortestpath_phase,1333244,blocked,GW/racine.png,49.0,GW/huntsville.png,GW/carmel.png,1.0,0.6071428571428571,GW/huntsville.png,Three Edge Diff,Three Edge Six Edge,65b92135e296f28cb1a093c3
9614,1262.600000023842,shortestpath_phase,1335509,blocked,GW/newhope.png,50.0,GW/carmel.png,GW/boulder.png,1.0,0.6206896551724138,GW/boulder.png,One Edge Diff,Two Edge Three Edge,65b92135e296f28cb1a093c3
9616,1717.600000023842,shortestpath_phase,1338230,blocked,GW/carmel.png,49.0,GW/hanover.png,GW/racine.png,0.0,0.6,GW/racine.png,One Edge Diff,Five Edge Six Edge,65b92135e296f28cb1a093c3
9618,1084.300000011921,shortestpath_phase,1340318,blocked,GW/gatlinburg.png,49.0,GW/newhope.png,GW/hanover.png,1.0,0.6129032258064516,GW/newhope.png,Two Edge Diff,Two Edge Four Edge,65b92135e296f28cb1a093c3
9620,1068.199999988079,shortestpath_phase,1342390,blocked,GW/shreveport.png,49.0,GW/boulder.png,GW/westpalmbeach.png,0.0,0.59375,GW/westpalmbeach.png,Three Edge Diff,Two Edge Five Edge,65b92135e296f28cb1a093c3
9622,2158.100000023842,shortestpath_phase,1345550,blocked,GW/carmel.png,49.0,GW/racine.png,GW/leesburg.png,0.0,0.5757575757575758,GW/leesburg.png,Three Edge Diff,Two Edge Five Edge,65b92135e296f28cb1a093c3
9624,1470.9000000357628,shortestpath_phase,1348023,blocked,GW/peoria.png,50.0,GW/carmel.png,GW/hanover.png,1.0,0.5882352941176471,GW/hanover.png,Two Edge Diff,Two Edge Four Edge,65b92135e296f28cb1a093c3
9626,2965.800000011921,shortestpath_phase,1351992,blocked,GW/westpalmbeach.png,49.0,GW/hotsprings.png,GW/cornwall.png,0.0,0.5714285714285714,GW/cornwall.png,Three Edge Diff,Three Edge Six Edge,65b92135e296f28cb1a093c3
9628,1541.100000023842,shortestpath_phase,1354537,blocked,GW/leesburg.png,49.0,GW/peoria.png,GW/shreveport.png,1.0,0.5833333333333334,GW/peoria.png,One Edge Diff,Three Edge Four Edge,65b92135e296f28cb1a093c3
9630,1562.800000011921,shortestpath_phase,1357104,blocked,GW/boulder.png,50.0,GW/westpalmbeach.png,GW/hanover.png,0.0,0.5675675675675675,GW/westpalmbeach.png,One Edge Diff,Five Edge Six Edge,65b92135e296f28cb1a093c3
9632,1429.600000023842,shortestpath_phase,1359537,blocked,GW/newhope.png,49.0,GW/hanover.png,GW/carmel.png,0.0,0.5526315789473685,GW/carmel.png,One Edge Diff,Three Edge Four Edge,65b92135e296f28cb1a093c3
9634,2099.600000023842,shortestpath_phase,1362641,blocked,GW/westpalmbeach.png,49.0,GW/hanover.png,GW/gatlinburg.png,1.0,0.5641025641025641,GW/hanover.png,One Edge Diff,Three Edge Four Edge,65b92135e296f28cb1a093c3
9636,1030.300000011921,shortestpath_phase,1364674,blocked,GW/hotsprings.png,49.0,GW/shreveport.png,GW/hanover.png,1.0,0.575,GW/shreveport.png,One Edge Diff,Four Edge Five Edge,65b92135e296f28cb1a093c3
9638,1075.699999988079,shortestpath_phase,1366753,blocked,GW/cornwall.png,50.0,GW/westpalmbeach.png,GW/hotsprings.png,0.0,0.5609756097560976,GW/westpalmbeach.png,One Edge Diff,Two Edge Three Edge,65b92135e296f28cb1a093c3
9640,1358.5,shortestpath_phase,1369114,blocked,GW/boulder.png,49.0,GW/peoria.png,GW/hanover.png,1.0,0.5714285714285714,GW/peoria.png,Two Edge Diff,Four Edge Six Edge,65b92135e296f28cb1a093c3
9642,1220.199999988079,shortestpath_phase,1371339,blocked,GW/westpalmbeach.png,49.0,GW/shreveport.png,GW/boulder.png,1.0,0.5813953488372093,GW/shreveport.png,Three Edge Diff,Two Edge Five Edge,65b92135e296f28cb1a093c3
9644,1830.0,shortestpath_phase,1374171,blocked,GW/hotsprings.png,49.0,GW/hanover.png,GW/boulder.png,0.0,0.5681818181818182,GW/boulder.png,Three Edge Diff,Three Edge Six Edge,65b92135e296f28cb1a093c3
9646,1524.0,shortestpath_phase,1376699,blocked,GW/carmel.png,49.0,GW/westpalmbeach.png,GW/gatlinburg.png,0.0,0.5555555555555556,GW/gatlinburg.png,Four Edge Diff,Two Edge Six Edge,65b92135e296f28cb1a093c3
9648,1565.800000011921,shortestpath_phase,1379267,blocked,GW/boulder.png,50.0,GW/shreveport.png,GW/hotsprings.png,1.0,0.5652173913043478,GW/hotsprings.png,Three Edge Diff,Three Edge Six Edge,65b92135e296f28cb1a093c3
9650,1342.199999988079,shortestpath_phase,1381612,blocked,GW/leesburg.png,49.0,GW/huntsville.png,GW/hanover.png,1.0,0.574468085106383,GW/huntsville.png,Three Edge Diff,Two Edge Five Edge,65b92135e296f28cb1a093c3
9652,1517.800000011921,shortestpath_phase,1384132,blocked,GW/boulder.png,49.0,GW/westpalmbeach.png,GW/carmel.png,0.0,0.5625,GW/carmel.png,Two Edge Diff,Three Edge Five Edge,65b92135e296f28cb1a093c3
9654,1885.100000023842,shortestpath_phase,1387022,blocked,GW/hanover.png,49.0,GW/leesburg.png,GW/carmel.png,1.0,0.5714285714285714,GW/leesburg.png,One Edge Diff,Five Edge Six Edge,65b92135e296f28cb1a093c3
9656,883.5,shortestpath_phase,1388909,blocked,GW/boulder.png,49.0,GW/hotsprings.png,GW/hanover.png,1.0,0.58,GW/hotsprings.png,Four Edge Diff,Two Edge Six Edge,65b92135e296f28cb1a093c3
9658,1198.4000000357628,shortestpath_phase,1391110,blocked,GW/hanover.png,49.0,GW/hotsprings.png,GW/westpalmbeach.png,0.0,0.5686274509803921,GW/westpalmbeach.png,Two Edge Diff,Three Edge Five Edge,65b92135e296f28cb1a093c3
9660,1476.9000000357628,shortestpath_phase,1393590,blocked,GW/carmel.png,50.0,GW/westpalmbeach.png,GW/leesburg.png,1.0,0.5769230769230769,GW/leesburg.png,Four Edge Diff,Two Edge Six Edge,65b92135e296f28cb1a093c3
9662,1022.399999976158,shortestpath_phase,1395614,blocked,GW/westpalmbeach.png,49.0,GW/carmel.png,GW/peoria.png,0.0,0.5660377358490566,GW/peoria.png,Four Edge Diff,Two Edge Six Edge,65b92135e296f28cb1a093c3
9664,1046.300000011921,shortestpath_phase,1397664,blocked,GW/boulder.png,50.0,GW/racine.png,GW/carmel.png,1.0,0.5740740740740741,GW/carmel.png,One Edge Diff,Three Edge Four Edge,65b92135e296f28cb1a093c3
9666,940.399999976158,shortestpath_phase,1399608,blocked,GW/westpalmbeach.png,50.0,GW/shreveport.png,GW/carmel.png,0.0,0.5636363636363636,GW/shreveport.png,Four Edge Diff,Two Edge Six Edge,65b92135e296f28cb1a093c3
9668,1099.5,shortestpath_phase,1401712,blocked,GW/carmel.png,49.0,GW/hanover.png,GW/peoria.png,0.0,0.5535714285714286,GW/peoria.png,Two Edge Diff,Four Edge Six Edge,65b92135e296f28cb1a093c3
9670,1522.5999999642372,shortestpath_phase,1404239,blocked,GW/westpalmbeach.png,49.0,GW/carmel.png,GW/gatlinburg.png,0.0,0.543859649122807,GW/gatlinburg.png,Two Edge Diff,Four Edge Six Edge,65b92135e296f28cb1a093c3
9672,1241.600000023842,shortestpath_phase,1406488,blocked,GW/hanover.png,49.0,GW/newhope.png,GW/racine.png,0.0,0.5344827586206896,GW/racine.png,Two Edge Diff,Two Edge Four Edge,65b92135e296f28cb1a093c3
9674,1030.4000000357628,shortestpath_phase,1408522,blocked,GW/westpalmbeach.png,49.0,GW/hotsprings.png,GW/cornwall.png,0.0,0.5254237288135594,GW/cornwall.png,Three Edge Diff,Two Edge Five Edge,65b92135e296f28cb1a093c3
9676,1210.7000000476835,shortestpath_phase,1410736,blocked,GW/gatlinburg.png,49.0,GW/newhope.png,GW/boulder.png,1.0,0.5333333333333333,GW/newhope.png,One Edge Diff,Two Edge Three Edge,65b92135e296f28cb1a093c3
9678,1893.5999999642372,shortestpath_phase,1413634,blocked,GW/carmel.png,50.0,GW/cornwall.png,GW/westpalmbeach.png,0.0,0.5245901639344263,GW/cornwall.png,Two Edge Diff,Four Edge Six Edge,65b92135e296f28cb1a093c3
9680,1419.5999999642372,shortestpath_phase,1416057,blocked,GW/boulder.png,49.0,GW/newhope.png,GW/westpalmbeach.png,1.0,0.532258064516129,GW/newhope.png,Three Edge Diff,Three Edge Six Edge,65b92135e296f28cb1a093c3
9682,1301.0999999642372,shortestpath_phase,1418362,blocked,GW/hanover.png,50.0,GW/huntsville.png,GW/peoria.png,1.0,0.5396825396825397,GW/peoria.png,One Edge Diff,Two Edge Three Edge,65b92135e296f28cb1a093c3
9684,1102.399999976158,shortestpath_phase,1420467,blocked,GW/boulder.png,49.0,GW/newhope.png,GW/shreveport.png,1.0,0.546875,GW/newhope.png,Three Edge Diff,Two Edge Five Edge,65b92135e296f28cb1a093c3
9686,1036.100000023842,shortestpath_phase,1422506,blocked,GW/carmel.png,49.0,GW/westpalmbeach.png,GW/shreveport.png,0.0,0.5384615384615384,GW/shreveport.png,One Edge Diff,Five Edge Six Edge,65b92135e296f28cb1a093c3
9688,1085.0,shortestpath_phase,1424595,blocked,GW/hanover.png,50.0,GW/newhope.png,GW/boulder.png,0.0,0.5303030303030303,GW/newhope.png,Two Edge Diff,Four Edge Six Edge,65b92135e296f28cb1a093c3
9690,1180.9000000357628,shortestpath_phase,1426779,blocked,GW/boulder.png,50.0,GW/racine.png,GW/westpalmbeach.png,0.0,0.5223880597014925,GW/racine.png,One Edge Diff,Four Edge Five Edge,65b92135e296f28cb1a093c3
9692,1741.199999988079,shortestpath_phase,1429524,blocked,GW/carmel.png,50.0,GW/peoria.png,GW/leesburg.png,1.0,0.5294117647058824,GW/leesburg.png,Two Edge Diff,Two Edge Four Edge,65b92135e296f28cb1a093c3
9694,1548.0999999642372,shortestpath_phase,1432076,blocked,GW/boulder.png,50.0,GW/cornwall.png,GW/westpalmbeach.png,0.0,0.5217391304347826,GW/cornwall.png,Two Edge Diff,Three Edge Five Edge,65b92135e296f28cb1a093c3
9696,1989.600000023842,shortestpath_phase,1435069,blocked,GW/hanover.png,49.0,GW/boulder.png,GW/racine.png,0.0,0.5142857142857142,GW/racine.png,Four Edge Diff,Two Edge Six Edge,65b92135e296f28cb1a093c3
9698,2149.899999976158,shortestpath_phase,1438222,blocked,GW/carmel.png,49.0,GW/gatlinburg.png,GW/peoria.png,1.0,0.5211267605633803,GW/gatlinburg.png,Two Edge Diff,Two Edge Four Edge,65b92135e296f28cb1a093c3
9700,1267.5,shortestpath_phase,1440494,blocked,GW/hanover.png,50.0,GW/boulder.png,GW/hotsprings.png,1.0,0.5277777777777778,GW/hotsprings.png,One Edge Diff,Five Edge Six Edge,65b92135e296f28cb1a093c3
9702,1655.199999988079,shortestpath_phase,1443151,blocked,GW/leesburg.png,50.0,GW/hanover.png,GW/huntsville.png,1.0,0.5342465753424658,GW/huntsville.png,Three Edge Diff,Three Edge Six Edge,65b92135e296f28cb1a093c3
9704,857.6000000238419,shortestpath_phase,1445014,blocked,GW/carmel.png,49.0,GW/westpalmbeach.png,GW/peoria.png,0.0,0.527027027027027,GW/peoria.png,Two Edge Diff,Four Edge Six Edge,65b92135e296f28cb1a093c3
9706,1198.300000011921,shortestpath_phase,1447215,blocked,GW/hanover.png,49.0,GW/hotsprings.png,GW/carmel.png,1.0,0.5333333333333333,GW/hotsprings.png,One Edge Diff,Five Edge Six Edge,65b92135e296f28cb1a093c3
9708,1180.0999999642372,shortestpath_phase,1449398,blocked,GW/boulder.png,49.0,GW/carmel.png,GW/shreveport.png,1.0,0.5394736842105263,GW/carmel.png,Two Edge Diff,Three Edge Five Edge,65b92135e296f28cb1a093c3
9710,1188.699999988079,shortestpath_phase,1451591,blocked,GW/hanover.png,50.0,GW/leesburg.png,GW/huntsville.png,1.0,0.5454545454545454,GW/huntsville.png,Two Edge Diff,Three Edge Five Edge,65b92135e296f28cb1a093c3
9712,1260.600000023842,shortestpath_phase,1453855,blocked,GW/leesburg.png,49.0,GW/hanover.png,GW/carmel.png,0.0,0.5384615384615384,GW/carmel.png,Three Edge Diff,Three Edge Six Edge,65b92135e296f28cb1a093c3
9714,1078.0,shortestpath_phase,1455936,blocked,GW/westpalmbeach.png,49.0,GW/carmel.png,GW/cornwall.png,0.0,0.5316455696202531,GW/cornwall.png,Four Edge Diff,Two Edge Six Edge,65b92135e296f28cb1a093c3
9716,1518.800000011921,shortestpath_phase,1458457,blocked,GW/huntsville.png,50.0,GW/carmel.png,GW/leesburg.png,1.0,0.5375,GW/leesburg.png,One Edge Diff,Two Edge Three Edge,65b92135e296f28cb1a093c3
9718,1081.800000011921,shortestpath_phase,1460544,blocked,GW/hanover.png,50.0,GW/boulder.png,GW/peoria.png,1.0,0.5432098765432098,GW/peoria.png,Four Edge Diff,Two Edge Six Edge,65b92135e296f28cb1a093c3
9720,1974.0,shortestpath_phase,1463521,blocked,GW/leesburg.png,49.0,GW/shreveport.png,GW/carmel.png,0.0,0.5365853658536586,GW/carmel.png,Two Edge Diff,Two Edge Four Edge,65b92135e296f28cb1a093c3
9722,1206.899999976158,shortestpath_phase,1465731,blocked,GW/boulder.png,49.0,GW/shreveport.png,GW/peoria.png,0.0,0.5301204819277109,GW/peoria.png,One Edge Diff,Four Edge Five Edge,65b92135e296f28cb1a093c3
9724,1523.0,shortestpath_phase,1468257,blocked,GW/carmel.png,50.0,GW/hanover.png,GW/gatlinburg.png,1.0,0.5357142857142857,GW/gatlinburg.png,Four Edge Diff,Two Edge Six Edge,65b92135e296f28cb1a093c3
10533,2951.9000000059605,shortestpath_phase,1468381,blocked,GW/peoria.png,49.0,GW/racine.png,GW/shreveport.png,0.0,0.0,GW/shreveport.png,Three Edge Diff,Two Edge Five Edge,5fc50bb38378c80ac88354ef
10535,2071.4000000059605,shortestpath_phase,1471463,blocked,GW/newhope.png,49.0,GW/leesburg.png,GW/hotsprings.png,0.0,0.0,GW/hotsprings.png,Three Edge Diff,Three Edge Six Edge,5fc50bb38378c80ac88354ef
10537,3056.5999999940395,shortestpath_phase,1475528,blocked,GW/shreveport.png,50.0,GW/westpalmbeach.png,GW/huntsville.png,1.0,0.3333333333333333,GW/huntsville.png,Two Edge Diff,Two Edge Four Edge,5fc50bb38378c80ac88354ef
10539,2878.0,shortestpath_phase,1479415,blocked,GW/racine.png,50.0,GW/cornwall.png,GW/newhope.png,0.0,0.25,GW/cornwall.png,Four Edge Diff,Two Edge Six Edge,5fc50bb38378c80ac88354ef
10541,2565.899999976158,shortestpath_phase,1482991,blocked,GW/boulder.png,49.0,GW/leesburg.png,GW/carmel.png,0.0,0.2,GW/carmel.png,One Edge Diff,Four Edge Five Edge,5fc50bb38378c80ac88354ef
10543,2454.5,shortestpath_phase,1486455,blocked,GW/shreveport.png,49.0,GW/westpalmbeach.png,GW/hanover.png,0.0,0.1666666666666666,GW/hanover.png,One Edge Diff,Three Edge Four Edge,5fc50bb38378c80ac88354ef
10545,2858.0999999940395,shortestpath_phase,1490334,blocked,GW/newhope.png,49.0,GW/boulder.png,GW/leesburg.png,1.0,0.2857142857142857,GW/boulder.png,Three Edge Diff,Three Edge Six Edge,5fc50bb38378c80ac88354ef
10547,2932.4000000059605,shortestpath_phase,1494278,blocked,GW/carmel.png,50.0,GW/boulder.png,GW/leesburg.png,1.0,0.375,GW/leesburg.png,Two Edge Diff,Two Edge Four Edge,5fc50bb38378c80ac88354ef
10549,2422.0,shortestpath_phase,1497710,blocked,GW/newhope.png,50.0,GW/gatlinburg.png,GW/carmel.png,0.0,0.3333333333333333,GW/gatlinburg.png,One Edge Diff,Four Edge Five Edge,5fc50bb38378c80ac88354ef
10551,2653.2000000178814,shortestpath_phase,1501372,blocked,GW/carmel.png,49.0,GW/shreveport.png,GW/boulder.png,1.0,0.4,GW/shreveport.png,Two Edge Diff,Two Edge Four Edge,5fc50bb38378c80ac88354ef
10553,2725.0,shortestpath_phase,1505103,blocked,GW/boulder.png,50.0,GW/leesburg.png,GW/gatlinburg.png,1.0,0.4545454545454545,GW/gatlinburg.png,Two Edge Diff,Three Edge Five Edge,5fc50bb38378c80ac88354ef
10555,1895.9000000059605,shortestpath_phase,1508007,blocked,GW/carmel.png,50.0,GW/shreveport.png,GW/peoria.png,0.0,0.4166666666666667,GW/shreveport.png,Two Edge Diff,Two Edge Four Edge,5fc50bb38378c80ac88354ef
10557,2148.0999999940395,shortestpath_phase,1511164,blocked,GW/leesburg.png,49.0,GW/hanover.png,GW/westpalmbeach.png,1.0,0.4615384615384615,GW/hanover.png,Two Edge Diff,Four Edge Six Edge,5fc50bb38378c80ac88354ef
10559,2750.2000000178814,shortestpath_phase,1514919,blocked,GW/peoria.png,50.0,GW/racine.png,GW/huntsville.png,1.0,0.5,GW/huntsville.png,Three Edge Diff,Three Edge Six Edge,5fc50bb38378c80ac88354ef
10561,1855.800000011921,shortestpath_phase,1517780,blocked,GW/racine.png,49.0,GW/shreveport.png,GW/hotsprings.png,1.0,0.5333333333333333,GW/shreveport.png,One Edge Diff,Three Edge Four Edge,5fc50bb38378c80ac88354ef
10563,2130.5,shortestpath_phase,1520928,blocked,GW/newhope.png,49.0,GW/carmel.png,GW/boulder.png,0.0,0.5,GW/boulder.png,Three Edge Diff,Two Edge Five Edge,5fc50bb38378c80ac88354ef
10565,1948.2999999821184,shortestpath_phase,1523884,blocked,GW/racine.png,50.0,GW/peoria.png,GW/westpalmbeach.png,0.0,0.4705882352941176,GW/peoria.png,One Edge Diff,Five Edge Six Edge,5fc50bb38378c80ac88354ef
10567,2052.2999999821186,shortestpath_phase,1526951,blocked,GW/cornwall.png,49.0,GW/boulder.png,GW/westpalmbeach.png,1.0,0.5,GW/boulder.png,One Edge Diff,Four Edge Five Edge,5fc50bb38378c80ac88354ef
10569,2094.9000000059605,shortestpath_phase,1530054,blocked,GW/westpalmbeach.png,50.0,GW/racine.png,GW/carmel.png,1.0,0.5263157894736842,GW/carmel.png,One Edge Diff,Five Edge Six Edge,5fc50bb38378c80ac88354ef
10571,2299.5999999940395,shortestpath_phase,1533375,blocked,GW/racine.png,49.0,GW/newhope.png,GW/hanover.png,0.0,0.5,GW/hanover.png,Two Edge Diff,Four Edge Six Edge,5fc50bb38378c80ac88354ef
10573,2612.899999976158,shortestpath_phase,1537000,blocked,GW/peoria.png,50.0,GW/cornwall.png,GW/racine.png,0.0,0.4761904761904761,GW/cornwall.png,Two Edge Diff,Three Edge Five Edge,5fc50bb38378c80ac88354ef
10575,2011.699999988079,shortestpath_phase,1540022,blocked,GW/newhope.png,50.0,GW/hotsprings.png,GW/gatlinburg.png,0.0,0.4545454545454545,GW/hotsprings.png,Two Edge Diff,Two Edge Four Edge,5fc50bb38378c80ac88354ef
10577,1848.9000000059605,shortestpath_phase,1542878,blocked,GW/westpalmbeach.png,49.0,GW/gatlinburg.png,GW/racine.png,1.0,0.4782608695652174,GW/gatlinburg.png,Two Edge Diff,Four Edge Six Edge,5fc50bb38378c80ac88354ef
10579,2000.899999976158,shortestpath_phase,1545888,blocked,GW/racine.png,50.0,GW/hanover.png,GW/westpalmbeach.png,0.0,0.4583333333333333,GW/hanover.png,Two Edge Diff,Four Edge Six Edge,5fc50bb38378c80ac88354ef
10581,1768.7000000178814,shortestpath_phase,1548670,blocked,GW/leesburg.png,50.0,GW/peoria.png,GW/westpalmbeach.png,0.0,0.44,GW/peoria.png,Two Edge Diff,Four Edge Six Edge,5fc50bb38378c80ac88354ef
10583,1494.0999999940395,shortestpath_phase,1551174,blocked,GW/racine.png,50.0,GW/peoria.png,GW/gatlinburg.png,1.0,0.4615384615384615,GW/gatlinburg.png,Three Edge Diff,Two Edge Five Edge,5fc50bb38378c80ac88354ef
10585,1426.0,shortestpath_phase,1553607,blocked,GW/huntsville.png,50.0,GW/leesburg.png,GW/carmel.png,1.0,0.4814814814814814,GW/carmel.png,One Edge Diff,Two Edge Three Edge,5fc50bb38378c80ac88354ef
10587,1567.5,shortestpath_phase,1556191,blocked,GW/racine.png,49.0,GW/hotsprings.png,GW/newhope.png,1.0,0.5,GW/hotsprings.png,Two Edge Diff,Four Edge Six Edge,5fc50bb38378c80ac88354ef
10589,1471.0999999940395,shortestpath_phase,1558669,blocked,GW/leesburg.png,49.0,GW/shreveport.png,GW/westpalmbeach.png,1.0,0.5172413793103449,GW/shreveport.png,Four Edge Diff,Two Edge Six Edge,5fc50bb38378c80ac88354ef
10591,2186.5,shortestpath_phase,1561863,blocked,GW/racine.png,50.0,GW/peoria.png,GW/newhope.png,0.0,0.5,GW/peoria.png,One Edge Diff,Five Edge Six Edge,5fc50bb38378c80ac88354ef
10593,1350.7000000178814,shortestpath_phase,1564223,blocked,GW/cornwall.png,50.0,GW/newhope.png,GW/hanover.png,1.0,0.5161290322580645,GW/hanover.png,One Edge Diff,Three Edge Four Edge,5fc50bb38378c80ac88354ef
10595,3176.4000000059605,shortestpath_phase,1568415,blocked,GW/westpalmbeach.png,49.0,GW/peoria.png,GW/carmel.png,1.0,0.53125,GW/peoria.png,Three Edge Diff,Two Edge Five Edge,5fc50bb38378c80ac88354ef
10597,1721.9000000059605,shortestpath_phase,1571143,blocked,GW/boulder.png,50.0,GW/huntsville.png,GW/racine.png,0.0,0.5151515151515151,GW/huntsville.png,Three Edge Diff,Three Edge Six Edge,5fc50bb38378c80ac88354ef
10599,1382.7000000178814,shortestpath_phase,1573540,blocked,GW/westpalmbeach.png,50.0,GW/carmel.png,GW/gatlinburg.png,1.0,0.5294117647058824,GW/gatlinburg.png,One Edge Diff,Four Edge Five Edge,5fc50bb38378c80ac88354ef
10601,1365.199999988079,shortestpath_phase,1575910,blocked,GW/racine.png,49.0,GW/cornwall.png,GW/peoria.png,1.0,0.5428571428571428,GW/cornwall.png,Three Edge Diff,Two Edge Five Edge,5fc50bb38378c80ac88354ef
10603,1579.0999999940395,shortestpath_phase,1578494,blocked,GW/westpalmbeach.png,49.0,GW/huntsville.png,GW/cornwall.png,1.0,0.5555555555555556,GW/huntsville.png,Two Edge Diff,Three Edge Five Edge,5fc50bb38378c80ac88354ef
10605,1839.699999988079,shortestpath_phase,1581341,blocked,GW/racine.png,50.0,GW/newhope.png,GW/gatlinburg.png,1.0,0.5675675675675675,GW/gatlinburg.png,Four Edge Diff,Two Edge Six Edge,5fc50bb38378c80ac88354ef
10607,1729.699999988079,shortestpath_phase,1584078,blocked,GW/westpalmbeach.png,50.0,GW/shreveport.png,GW/peoria.png,1.0,0.5789473684210527,GW/peoria.png,Two Edge Diff,Two Edge Four Edge,5fc50bb38378c80ac88354ef
10609,1622.0,shortestpath_phase,1586708,blocked,GW/racine.png,50.0,GW/cornwall.png,GW/huntsville.png,0.0,0.5641025641025641,GW/cornwall.png,One Edge Diff,Two Edge Three Edge,5fc50bb38378c80ac88354ef
10611,1486.7999999821186,shortestpath_phase,1589199,blocked,GW/newhope.png,49.0,GW/cornwall.png,GW/hanover.png,0.0,0.55,GW/hanover.png,One Edge Diff,Three Edge Four Edge,5fc50bb38378c80ac88354ef
10613,1510.0,shortestpath_phase,1591719,blocked,GW/westpalmbeach.png,49.0,GW/leesburg.png,GW/cornwall.png,0.0,0.5365853658536586,GW/cornwall.png,One Edge Diff,Five Edge Six Edge,5fc50bb38378c80ac88354ef
10615,1535.699999988079,shortestpath_phase,1594261,blocked,GW/racine.png,49.0,GW/westpalmbeach.png,GW/gatlinburg.png,0.0,0.5238095238095238,GW/gatlinburg.png,Four Edge Diff,Two Edge Six Edge,5fc50bb38378c80ac88354ef
10617,1497.9000000059605,shortestpath_phase,1596764,blocked,GW/cornwall.png,50.0,GW/hanover.png,GW/westpalmbeach.png,0.0,0.5116279069767442,GW/hanover.png,Two Edge Diff,Three Edge Five Edge,5fc50bb38378c80ac88354ef
10619,1782.7999999821186,shortestpath_phase,1599560,blocked,GW/leesburg.png,49.0,GW/newhope.png,GW/westpalmbeach.png,1.0,0.5227272727272727,GW/newhope.png,One Edge Diff,Five Edge Six Edge,5fc50bb38378c80ac88354ef
10621,1645.5,shortestpath_phase,1602212,blocked,GW/huntsville.png,50.0,GW/racine.png,GW/boulder.png,1.0,0.5333333333333333,GW/boulder.png,One Edge Diff,Two Edge Three Edge,5fc50bb38378c80ac88354ef
10623,1548.0,shortestpath_phase,1604766,blocked,GW/leesburg.png,50.0,GW/boulder.png,GW/shreveport.png,1.0,0.5434782608695652,GW/shreveport.png,Three Edge Diff,Two Edge Five Edge,5fc50bb38378c80ac88354ef
10625,1694.5,shortestpath_phase,1607479,blocked,GW/westpalmbeach.png,49.0,GW/racine.png,GW/peoria.png,0.0,0.5319148936170213,GW/peoria.png,Four Edge Diff,Two Edge Six Edge,5fc50bb38378c80ac88354ef
10627,1319.800000011921,shortestpath_phase,1609806,blocked,GW/racine.png,50.0,GW/cornwall.png,GW/westpalmbeach.png,0.0,0.5208333333333334,GW/cornwall.png,Four Edge Diff,Two Edge Six Edge,5fc50bb38378c80ac88354ef
10629,1607.899999976158,shortestpath_phase,1612420,blocked,GW/huntsville.png,50.0,GW/carmel.png,GW/newhope.png,0.0,0.5102040816326531,GW/carmel.png,One Edge Diff,Two Edge Three Edge,5fc50bb38378c80ac88354ef
10631,1501.7000000178814,shortestpath_phase,1614926,blocked,GW/westpalmbeach.png,49.0,GW/leesburg.png,GW/gatlinburg.png,0.0,0.5,GW/gatlinburg.png,Two Edge Diff,Four Edge Six Edge,5fc50bb38378c80ac88354ef
10633,1343.800000011921,shortestpath_phase,1617278,blocked,GW/cornwall.png,49.0,GW/westpalmbeach.png,GW/huntsville.png,0.0,0.4901960784313725,GW/huntsville.png,Three Edge Diff,Three Edge Six Edge,5fc50bb38378c80ac88354ef
10635,1713.399999976158,shortestpath_phase,1619998,blocked,GW/leesburg.png,49.0,GW/newhope.png,GW/carmel.png,0.0,0.4807692307692308,GW/carmel.png,Three Edge Diff,Three Edge Six Edge,5fc50bb38378c80ac88354ef
10637,1578.199999988079,shortestpath_phase,1622582,blocked,GW/newhope.png,50.0,GW/racine.png,GW/cornwall.png,1.0,0.490566037735849,GW/cornwall.png,Two Edge Diff,Four Edge Six Edge,5fc50bb38378c80ac88354ef
10639,1468.0999999940395,shortestpath_phase,1625055,blocked,GW/westpalmbeach.png,49.0,GW/peoria.png,GW/leesburg.png,1.0,0.5,GW/peoria.png,Four Edge Diff,Two Edge Six Edge,5fc50bb38378c80ac88354ef
10641,1902.800000011921,shortestpath_phase,1627966,blocked,GW/leesburg.png,50.0,GW/gatlinburg.png,GW/newhope.png,0.0,0.4909090909090909,GW/gatlinburg.png,Three Edge Diff,Three Edge Six Edge,5fc50bb38378c80ac88354ef
10643,1542.5999999940395,shortestpath_phase,1630518,blocked,GW/carmel.png,50.0,GW/huntsville.png,GW/newhope.png,0.0,0.4821428571428571,GW/huntsville.png,Three Edge Diff,Two Edge Five Edge,5fc50bb38378c80ac88354ef
10645,1526.5999999940395,shortestpath_phase,1633052,blocked,GW/newhope.png,49.0,GW/boulder.png,GW/racine.png,1.0,0.4912280701754385,GW/boulder.png,Four Edge Diff,Two Edge Six Edge,5fc50bb38378c80ac88354ef
10647,1403.0999999940395,shortestpath_phase,1635461,blocked,GW/carmel.png,49.0,GW/westpalmbeach.png,GW/leesburg.png,0.0,0.4827586206896552,GW/leesburg.png,Three Edge Diff,Three Edge Six Edge,5fc50bb38378c80ac88354ef
10649,1554.2000000178814,shortestpath_phase,1638022,blocked,GW/newhope.png,50.0,GW/boulder.png,GW/gatlinburg.png,0.0,0.4745762711864407,GW/boulder.png,Two Edge Diff,Two Edge Four Edge,5fc50bb38378c80ac88354ef
10651,1909.5999999940395,shortestpath_phase,1640940,blocked,GW/leesburg.png,49.0,GW/carmel.png,GW/westpalmbeach.png,1.0,0.4833333333333333,GW/carmel.png,Four Edge Diff,Two Edge Six Edge,5fc50bb38378c80ac88354ef
10653,1486.300000011921,shortestpath_phase,1643432,blocked,GW/peoria.png,50.0,GW/westpalmbeach.png,GW/racine.png,0.0,0.4754098360655737,GW/westpalmbeach.png,Three Edge Diff,Two Edge Five Edge,5fc50bb38378c80ac88354ef
10655,1455.2999999821186,shortestpath_phase,1645895,blocked,GW/leesburg.png,50.0,GW/westpalmbeach.png,GW/gatlinburg.png,1.0,0.4838709677419355,GW/gatlinburg.png,Four Edge Diff,Two Edge Six Edge,5fc50bb38378c80ac88354ef
10657,1511.100000023842,shortestpath_phase,1648414,blocked,GW/carmel.png,49.0,GW/westpalmbeach.png,GW/huntsville.png,0.0,0.4761904761904761,GW/huntsville.png,Three Edge Diff,Three Edge Six Edge,5fc50bb38378c80ac88354ef
10659,1545.0,shortestpath_phase,1650966,blocked,GW/racine.png,49.0,GW/gatlinburg.png,GW/peoria.png,1.0,0.484375,GW/gatlinburg.png,Three Edge Diff,Three Edge Six Edge,5fc50bb38378c80ac88354ef
10661,1306.300000011921,shortestpath_phase,1653277,blocked,GW/carmel.png,50.0,GW/hotsprings.png,GW/westpalmbeach.png,0.0,0.4769230769230769,GW/hotsprings.png,Two Edge Diff,Three Edge Five Edge,5fc50bb38378c80ac88354ef
10663,1496.4000000059605,shortestpath_phase,1655780,blocked,GW/leesburg.png,50.0,GW/racine.png,GW/boulder.png,0.0,0.4696969696969697,GW/racine.png,Two Edge Diff,Three Edge Five Edge,5fc50bb38378c80ac88354ef
