,rt,trial_type,time_elapsed,sequence,stimulus,key_press,accuracy,cumulative_accuracy,stimulus_down_left,stimulus_down_mid,stimulus_down_right,stimulus_correct,stimulus_short,stimulus_far,weighted_accuracy,missedtrial,partid
2648,2502.7999999821186,directmemory_phase,1040245,blocked,GW/leesburg.png,50.0,1.0,1.0,GW/huntsville.png,GW/cornwall.png,GW/hotsprings.png,GW/cornwall.png,GW/huntsville.png,GW/hotsprings.png,1.0,,560ce65601c38a0012769e20
2650,4865.5,directmemory_phase,1046113,blocked,GW/boulder.png,51.0,1.0,1.0,GW/cornwall.png,GW/huntsville.png,GW/newhope.png,GW/newhope.png,GW/huntsville.png,GW/cornwall.png,1.0,,560ce65601c38a0012769e20
2652,3889.900000005961,directmemory_phase,1051005,blocked,GW/gatlinburg.png,50.0,0.0,0.6666666666666666,GW/racine.png,GW/huntsville.png,GW/cornwall.png,GW/cornwall.png,GW/huntsville.png,GW/racine.png,0.5,closer,560ce65601c38a0012769e20
2654,2037.7000000178816,directmemory_phase,1054045,blocked,GW/shreveport.png,49.0,1.0,0.75,GW/leesburg.png,GW/newhope.png,GW/gatlinburg.png,GW/leesburg.png,GW/gatlinburg.png,GW/newhope.png,1.0,,560ce65601c38a0012769e20
2656,2993.5999999940395,directmemory_phase,1058041,blocked,GW/cornwall.png,51.0,1.0,0.8,GW/racine.png,GW/carmel.png,GW/huntsville.png,GW/huntsville.png,GW/carmel.png,GW/racine.png,1.0,,560ce65601c38a0012769e20
2658,4411.300000011921,directmemory_phase,1063455,blocked,GW/peoria.png,51.0,1.0,0.8333333333333334,GW/cornwall.png,GW/gatlinburg.png,GW/racine.png,GW/racine.png,GW/gatlinburg.png,GW/cornwall.png,1.0,,560ce65601c38a0012769e20
2660,4953.300000011921,directmemory_phase,1069411,blocked,GW/shreveport.png,50.0,1.0,0.8571428571428571,GW/westpalmbeach.png,GW/huntsville.png,GW/boulder.png,GW/huntsville.png,GW/westpalmbeach.png,GW/boulder.png,1.0,,560ce65601c38a0012769e20
2662,1584.300000011921,directmemory_phase,1071998,blocked,GW/gatlinburg.png,50.0,1.0,0.875,GW/leesburg.png,GW/westpalmbeach.png,GW/carmel.png,GW/westpalmbeach.png,GW/leesburg.png,GW/carmel.png,1.0,,560ce65601c38a0012769e20
2664,4102.800000011921,directmemory_phase,1077103,blocked,GW/shreveport.png,50.0,0.0,0.7777777777777778,GW/cornwall.png,GW/peoria.png,GW/westpalmbeach.png,GW/cornwall.png,GW/westpalmbeach.png,GW/peoria.png,0.5,closer,560ce65601c38a0012769e20
2666,5538.700000017881,directmemory_phase,1083644,blocked,GW/westpalmbeach.png,49.0,1.0,0.8,GW/huntsville.png,GW/carmel.png,GW/peoria.png,GW/huntsville.png,GW/peoria.png,GW/carmel.png,1.0,,560ce65601c38a0012769e20
2668,,directmemory_phase,1091147,blocked,GW/cornwall.png,,0.0,0.7272727272727273,GW/carmel.png,GW/gatlinburg.png,GW/racine.png,GW/gatlinburg.png,GW/carmel.png,GW/racine.png,0.0,,560ce65601c38a0012769e20
2671,2541.0999999940395,directmemory_phase,1097693,blocked,GW/huntsville.png,51.0,1.0,0.75,GW/racine.png,GW/hanover.png,GW/shreveport.png,GW/shreveport.png,GW/hanover.png,GW/racine.png,1.0,,560ce65601c38a0012769e20
2673,3515.0,directmemory_phase,1102212,blocked,GW/westpalmbeach.png,49.0,0.0,0.6923076923076923,GW/leesburg.png,GW/hotsprings.png,GW/gatlinburg.png,GW/gatlinburg.png,GW/hotsprings.png,GW/leesburg.png,0.5,closer,560ce65601c38a0012769e20
2675,2392.9000000059605,directmemory_phase,1105607,blocked,GW/cornwall.png,49.0,1.0,0.7142857142857143,GW/leesburg.png,GW/peoria.png,GW/hanover.png,GW/leesburg.png,GW/hanover.png,GW/peoria.png,1.0,,560ce65601c38a0012769e20
2677,1294.9000000059605,directmemory_phase,1107904,blocked,GW/hotsprings.png,50.0,1.0,0.7333333333333333,GW/westpalmbeach.png,GW/gatlinburg.png,GW/huntsville.png,GW/gatlinburg.png,GW/westpalmbeach.png,GW/huntsville.png,1.0,,560ce65601c38a0012769e20
2679,3490.800000011921,directmemory_phase,1112398,blocked,GW/huntsville.png,50.0,1.0,0.75,GW/gatlinburg.png,GW/cornwall.png,GW/hotsprings.png,GW/cornwall.png,GW/gatlinburg.png,GW/hotsprings.png,1.0,,560ce65601c38a0012769e20
2681,2989.300000011921,directmemory_phase,1116404,blocked,GW/newhope.png,49.0,1.0,0.7647058823529411,GW/boulder.png,GW/racine.png,GW/westpalmbeach.png,GW/boulder.png,GW/westpalmbeach.png,GW/racine.png,1.0,,560ce65601c38a0012769e20
2683,2171.800000011921,directmemory_phase,1119578,blocked,GW/hanover.png,49.0,1.0,0.7777777777777778,GW/shreveport.png,GW/gatlinburg.png,GW/huntsville.png,GW/shreveport.png,GW/huntsville.png,GW/gatlinburg.png,1.0,,560ce65601c38a0012769e20
2685,4175.0999999940395,directmemory_phase,1124756,blocked,GW/westpalmbeach.png,51.0,0.0,0.7368421052631579,GW/boulder.png,GW/racine.png,GW/cornwall.png,GW/boulder.png,GW/cornwall.png,GW/racine.png,0.5,closer,560ce65601c38a0012769e20
2687,2315.5999999940395,directmemory_phase,1128074,blocked,GW/leesburg.png,50.0,1.0,0.75,GW/hanover.png,GW/shreveport.png,GW/boulder.png,GW/shreveport.png,GW/hanover.png,GW/boulder.png,1.0,,560ce65601c38a0012769e20
2689,4596.300000011921,directmemory_phase,1133673,blocked,GW/hotsprings.png,49.0,1.0,0.7619047619047619,GW/peoria.png,GW/leesburg.png,GW/boulder.png,GW/peoria.png,GW/boulder.png,GW/leesburg.png,1.0,,560ce65601c38a0012769e20
2691,4291.199999988079,directmemory_phase,1138966,blocked,GW/huntsville.png,50.0,0.0,0.7272727272727273,GW/racine.png,GW/boulder.png,GW/westpalmbeach.png,GW/westpalmbeach.png,GW/boulder.png,GW/racine.png,0.5,closer,560ce65601c38a0012769e20
2693,4380.9000000059605,directmemory_phase,1144349,blocked,GW/peoria.png,50.0,0.0,0.6956521739130435,GW/cornwall.png,GW/newhope.png,GW/hotsprings.png,GW/hotsprings.png,GW/newhope.png,GW/cornwall.png,0.5,closer,560ce65601c38a0012769e20
2695,4295.4000000059605,directmemory_phase,1149647,blocked,GW/leesburg.png,51.0,1.0,0.7083333333333334,GW/boulder.png,GW/hanover.png,GW/carmel.png,GW/carmel.png,GW/hanover.png,GW/boulder.png,1.0,,560ce65601c38a0012769e20
2697,1937.0,directmemory_phase,1152586,blocked,GW/shreveport.png,50.0,1.0,0.72,GW/westpalmbeach.png,GW/hanover.png,GW/peoria.png,GW/hanover.png,GW/westpalmbeach.png,GW/peoria.png,1.0,,560ce65601c38a0012769e20
2699,1991.300000011921,directmemory_phase,1155580,blocked,GW/boulder.png,49.0,1.0,0.7307692307692307,GW/westpalmbeach.png,GW/shreveport.png,GW/hotsprings.png,GW/westpalmbeach.png,GW/hotsprings.png,GW/shreveport.png,1.0,,560ce65601c38a0012769e20
2701,4056.400000005961,directmemory_phase,1160638,blocked,GW/carmel.png,49.0,1.0,0.7407407407407407,GW/leesburg.png,GW/hotsprings.png,GW/cornwall.png,GW/leesburg.png,GW/cornwall.png,GW/hotsprings.png,1.0,,560ce65601c38a0012769e20
2703,3903.5,directmemory_phase,1165544,blocked,GW/racine.png,50.0,1.0,0.75,GW/boulder.png,GW/peoria.png,GW/newhope.png,GW/peoria.png,GW/boulder.png,GW/newhope.png,1.0,,560ce65601c38a0012769e20
2705,1473.600000023842,directmemory_phase,1168020,blocked,GW/gatlinburg.png,49.0,1.0,0.7586206896551724,GW/hotsprings.png,GW/racine.png,GW/boulder.png,GW/hotsprings.png,GW/boulder.png,GW/racine.png,1.0,,560ce65601c38a0012769e20
2707,2435.4000000059605,directmemory_phase,1171458,blocked,GW/boulder.png,50.0,0.0,0.7333333333333333,GW/leesburg.png,GW/gatlinburg.png,GW/peoria.png,GW/peoria.png,GW/gatlinburg.png,GW/leesburg.png,0.5,closer,560ce65601c38a0012769e20
2709,4749.300000011921,directmemory_phase,1177210,blocked,GW/cornwall.png,49.0,0.0,0.7096774193548387,GW/westpalmbeach.png,GW/shreveport.png,GW/boulder.png,GW/shreveport.png,GW/westpalmbeach.png,GW/boulder.png,0.5,closer,560ce65601c38a0012769e20
2711,2289.100000023842,directmemory_phase,1180503,blocked,GW/peoria.png,51.0,1.0,0.71875,GW/huntsville.png,GW/newhope.png,GW/boulder.png,GW/boulder.png,GW/newhope.png,GW/huntsville.png,1.0,,560ce65601c38a0012769e20
3629,3810.299999952316,directmemory_phase,1070668,blocked,GW/peoria.png,49.0,1.0,1.0,GW/westpalmbeach.png,GW/cornwall.png,GW/hotsprings.png,GW/westpalmbeach.png,GW/hotsprings.png,GW/cornwall.png,1.0,,60ddfe929fff846f04cd2c95
3631,4018.300000190735,directmemory_phase,1075688,blocked,GW/racine.png,49.0,0.0,0.5,GW/leesburg.png,GW/newhope.png,GW/shreveport.png,GW/shreveport.png,GW/newhope.png,GW/leesburg.png,0.5,closer,60ddfe929fff846f04cd2c95
3633,2182.100000143051,directmemory_phase,1078872,blocked,GW/huntsville.png,51.0,1.0,0.6666666666666666,GW/cornwall.png,GW/newhope.png,GW/carmel.png,GW/carmel.png,GW/newhope.png,GW/cornwall.png,1.0,,60ddfe929fff846f04cd2c95
3635,2693.800000190735,directmemory_phase,1082568,blocked,GW/westpalmbeach.png,51.0,1.0,0.75,GW/hotsprings.png,GW/shreveport.png,GW/peoria.png,GW/peoria.png,GW/shreveport.png,GW/hotsprings.png,1.0,,60ddfe929fff846f04cd2c95
3637,3325.7000000476837,directmemory_phase,1086896,blocked,GW/leesburg.png,49.0,0.0,0.6,GW/huntsville.png,GW/carmel.png,GW/hanover.png,GW/carmel.png,GW/huntsville.png,GW/hanover.png,0.5,closer,60ddfe929fff846f04cd2c95
3639,3665.799999952316,directmemory_phase,1091564,blocked,GW/gatlinburg.png,49.0,1.0,0.6666666666666666,GW/hotsprings.png,GW/westpalmbeach.png,GW/racine.png,GW/hotsprings.png,GW/racine.png,GW/westpalmbeach.png,1.0,,60ddfe929fff846f04cd2c95
3641,2445.899999856949,directmemory_phase,1095012,blocked,GW/shreveport.png,50.0,1.0,0.7142857142857143,GW/westpalmbeach.png,GW/newhope.png,GW/leesburg.png,GW/newhope.png,GW/westpalmbeach.png,GW/leesburg.png,1.0,,60ddfe929fff846f04cd2c95
3643,4949.0,directmemory_phase,1100964,blocked,GW/boulder.png,49.0,1.0,0.75,GW/cornwall.png,GW/huntsville.png,GW/racine.png,GW/cornwall.png,GW/racine.png,GW/huntsville.png,1.0,,60ddfe929fff846f04cd2c95
3645,2533.800000190735,directmemory_phase,1104500,blocked,GW/hotsprings.png,51.0,1.0,0.7777777777777778,GW/carmel.png,GW/shreveport.png,GW/gatlinburg.png,GW/gatlinburg.png,GW/shreveport.png,GW/carmel.png,1.0,,60ddfe929fff846f04cd2c95
3647,5365.200000047684,directmemory_phase,1110868,blocked,GW/shreveport.png,51.0,1.0,0.8,GW/leesburg.png,GW/boulder.png,GW/racine.png,GW/racine.png,GW/boulder.png,GW/leesburg.png,1.0,,60ddfe929fff846f04cd2c95
3649,3929.5,directmemory_phase,1115800,blocked,GW/carmel.png,51.0,0.0,0.7272727272727273,GW/huntsville.png,GW/hotsprings.png,GW/peoria.png,GW/huntsville.png,GW/peoria.png,GW/hotsprings.png,0.5,closer,60ddfe929fff846f04cd2c95
3651,3693.899999856949,directmemory_phase,1120495,blocked,GW/boulder.png,49.0,0.0,0.6666666666666666,GW/gatlinburg.png,GW/hotsprings.png,GW/peoria.png,GW/hotsprings.png,GW/gatlinburg.png,GW/peoria.png,0.5,closer,60ddfe929fff846f04cd2c95
3653,3537.900000095367,directmemory_phase,1125035,blocked,GW/peoria.png,49.0,0.0,0.6153846153846154,GW/boulder.png,GW/hanover.png,GW/huntsville.png,GW/huntsville.png,GW/hanover.png,GW/boulder.png,0.5,closer,60ddfe929fff846f04cd2c95
3655,4194.5,directmemory_phase,1130232,blocked,GW/carmel.png,49.0,1.0,0.6428571428571429,GW/westpalmbeach.png,GW/racine.png,GW/hanover.png,GW/westpalmbeach.png,GW/hanover.png,GW/racine.png,1.0,,60ddfe929fff846f04cd2c95
3657,2169.7999999523163,directmemory_phase,1133404,blocked,GW/shreveport.png,51.0,1.0,0.6666666666666666,GW/hanover.png,GW/hotsprings.png,GW/huntsville.png,GW/huntsville.png,GW/hotsprings.png,GW/hanover.png,1.0,,60ddfe929fff846f04cd2c95
3659,3101.199999809265,directmemory_phase,1137507,blocked,GW/carmel.png,51.0,1.0,0.6875,GW/boulder.png,GW/hanover.png,GW/leesburg.png,GW/leesburg.png,GW/hanover.png,GW/boulder.png,1.0,,60ddfe929fff846f04cd2c95
3661,3174.2999999523163,directmemory_phase,1141684,blocked,GW/hotsprings.png,51.0,1.0,0.7058823529411765,GW/huntsville.png,GW/newhope.png,GW/boulder.png,GW/boulder.png,GW/newhope.png,GW/huntsville.png,1.0,,60ddfe929fff846f04cd2c95
3663,1857.7000000476835,directmemory_phase,1144543,blocked,GW/westpalmbeach.png,51.0,1.0,0.7222222222222222,GW/gatlinburg.png,GW/racine.png,GW/carmel.png,GW/carmel.png,GW/racine.png,GW/gatlinburg.png,1.0,,60ddfe929fff846f04cd2c95
3665,5226.399999856949,directmemory_phase,1150771,blocked,GW/racine.png,51.0,1.0,0.7368421052631579,GW/leesburg.png,GW/gatlinburg.png,GW/peoria.png,GW/peoria.png,GW/gatlinburg.png,GW/leesburg.png,1.0,,60ddfe929fff846f04cd2c95
3667,3434.0,directmemory_phase,1155208,blocked,GW/newhope.png,49.0,1.0,0.75,GW/boulder.png,GW/peoria.png,GW/cornwall.png,GW/boulder.png,GW/cornwall.png,GW/peoria.png,1.0,,60ddfe929fff846f04cd2c95
3669,6162.599999904633,directmemory_phase,1162372,blocked,GW/huntsville.png,51.0,1.0,0.7619047619047619,GW/gatlinburg.png,GW/newhope.png,GW/peoria.png,GW/peoria.png,GW/newhope.png,GW/gatlinburg.png,1.0,,60ddfe929fff846f04cd2c95
3671,4961.5,directmemory_phase,1168336,blocked,GW/westpalmbeach.png,50.0,0.0,0.7272727272727273,GW/newhope.png,GW/shreveport.png,GW/hanover.png,GW/hanover.png,GW/shreveport.png,GW/newhope.png,0.5,closer,60ddfe929fff846f04cd2c95
3673,2320.7000000476837,directmemory_phase,1171659,blocked,GW/boulder.png,49.0,0.0,0.6956521739130435,GW/huntsville.png,GW/racine.png,GW/newhope.png,GW/newhope.png,GW/racine.png,GW/huntsville.png,0.5,closer,60ddfe929fff846f04cd2c95
3675,4469.399999856949,directmemory_phase,1177131,blocked,GW/hanover.png,49.0,0.0,0.6666666666666666,GW/shreveport.png,GW/peoria.png,GW/westpalmbeach.png,GW/westpalmbeach.png,GW/peoria.png,GW/shreveport.png,0.5,closer,60ddfe929fff846f04cd2c95
3677,1757.5,directmemory_phase,1179891,blocked,GW/cornwall.png,50.0,1.0,0.68,GW/newhope.png,GW/boulder.png,GW/peoria.png,GW/boulder.png,GW/newhope.png,GW/peoria.png,1.0,,60ddfe929fff846f04cd2c95
3679,2798.099999904633,directmemory_phase,1183691,blocked,GW/westpalmbeach.png,50.0,0.0,0.6538461538461539,GW/hotsprings.png,GW/shreveport.png,GW/huntsville.png,GW/huntsville.png,GW/shreveport.png,GW/hotsprings.png,0.5,closer,60ddfe929fff846f04cd2c95
3681,4361.100000143051,directmemory_phase,1189055,blocked,GW/newhope.png,51.0,1.0,0.6666666666666666,GW/carmel.png,GW/huntsville.png,GW/shreveport.png,GW/shreveport.png,GW/huntsville.png,GW/carmel.png,1.0,,60ddfe929fff846f04cd2c95
3683,2478.399999856949,directmemory_phase,1192535,blocked,GW/racine.png,51.0,1.0,0.6785714285714286,GW/carmel.png,GW/huntsville.png,GW/hotsprings.png,GW/hotsprings.png,GW/huntsville.png,GW/carmel.png,1.0,,60ddfe929fff846f04cd2c95
3685,2978.099999904633,directmemory_phase,1196515,blocked,GW/huntsville.png,50.0,0.0,0.6551724137931034,GW/shreveport.png,GW/boulder.png,GW/leesburg.png,GW/shreveport.png,GW/leesburg.png,GW/boulder.png,0.5,closer,60ddfe929fff846f04cd2c95
3687,2125.2999999523163,directmemory_phase,1199643,blocked,GW/hotsprings.png,49.0,1.0,0.6666666666666666,GW/racine.png,GW/hanover.png,GW/shreveport.png,GW/racine.png,GW/shreveport.png,GW/hanover.png,1.0,,60ddfe929fff846f04cd2c95
3689,3917.900000095367,directmemory_phase,1204563,blocked,GW/huntsville.png,49.0,0.0,0.6451612903225806,GW/gatlinburg.png,GW/leesburg.png,GW/westpalmbeach.png,GW/westpalmbeach.png,GW/leesburg.png,GW/gatlinburg.png,0.5,closer,60ddfe929fff846f04cd2c95
3691,3458.0,directmemory_phase,1209023,blocked,GW/peoria.png,50.0,0.0,0.625,GW/racine.png,GW/leesburg.png,GW/hanover.png,GW/racine.png,GW/hanover.png,GW/leesburg.png,0.5,closer,60ddfe929fff846f04cd2c95
6558,5245.0,directmemory_phase,1029686,blocked,GW/shreveport.png,51.0,1.0,1.0,GW/westpalmbeach.png,GW/boulder.png,GW/cornwall.png,GW/cornwall.png,GW/boulder.png,GW/westpalmbeach.png,1.0,,638476f72ab8021be345e3ac
6560,1899.300000011921,directmemory_phase,1032596,blocked,GW/hotsprings.png,49.0,1.0,1.0,GW/leesburg.png,GW/hanover.png,GW/shreveport.png,GW/leesburg.png,GW/shreveport.png,GW/hanover.png,1.0,,638476f72ab8021be345e3ac
6562,2241.900000035763,directmemory_phase,1035845,blocked,GW/newhope.png,51.0,1.0,1.0,GW/westpalmbeach.png,GW/racine.png,GW/hanover.png,GW/hanover.png,GW/racine.png,GW/westpalmbeach.png,1.0,,638476f72ab8021be345e3ac
6564,3256.699999988079,directmemory_phase,1040111,blocked,GW/huntsville.png,51.0,0.0,0.75,GW/racine.png,GW/gatlinburg.png,GW/shreveport.png,GW/racine.png,GW/shreveport.png,GW/gatlinburg.png,0.5,closer,638476f72ab8021be345e3ac
6566,1771.0,directmemory_phase,1042893,blocked,GW/gatlinburg.png,50.0,1.0,0.8,GW/peoria.png,GW/hanover.png,GW/boulder.png,GW/hanover.png,GW/peoria.png,GW/boulder.png,1.0,,638476f72ab8021be345e3ac
6568,1768.100000023842,directmemory_phase,1045671,blocked,GW/carmel.png,51.0,1.0,0.8333333333333334,GW/shreveport.png,GW/cornwall.png,GW/racine.png,GW/racine.png,GW/cornwall.png,GW/shreveport.png,1.0,,638476f72ab8021be345e3ac
6570,2277.099999964237,directmemory_phase,1048957,blocked,GW/huntsville.png,51.0,1.0,0.8571428571428571,GW/westpalmbeach.png,GW/hanover.png,GW/newhope.png,GW/newhope.png,GW/hanover.png,GW/westpalmbeach.png,1.0,,638476f72ab8021be345e3ac
6572,3050.5,directmemory_phase,1053014,blocked,GW/hotsprings.png,49.0,1.0,0.875,GW/cornwall.png,GW/newhope.png,GW/shreveport.png,GW/cornwall.png,GW/shreveport.png,GW/newhope.png,1.0,,638476f72ab8021be345e3ac
6574,1698.199999988079,directmemory_phase,1055721,blocked,GW/newhope.png,51.0,1.0,0.8888888888888888,GW/hotsprings.png,GW/racine.png,GW/huntsville.png,GW/huntsville.png,GW/racine.png,GW/hotsprings.png,1.0,,638476f72ab8021be345e3ac
6576,2914.199999988079,directmemory_phase,1059646,blocked,GW/hotsprings.png,49.0,1.0,0.9,GW/carmel.png,GW/hanover.png,GW/racine.png,GW/carmel.png,GW/racine.png,GW/hanover.png,1.0,,638476f72ab8021be345e3ac
6578,3009.399999976158,directmemory_phase,1063663,blocked,GW/peoria.png,49.0,1.0,0.9090909090909092,GW/newhope.png,GW/hotsprings.png,GW/cornwall.png,GW/newhope.png,GW/cornwall.png,GW/hotsprings.png,1.0,,638476f72ab8021be345e3ac
6580,1746.199999988079,directmemory_phase,1066417,blocked,GW/cornwall.png,50.0,1.0,0.9166666666666666,GW/newhope.png,GW/huntsville.png,GW/hanover.png,GW/huntsville.png,GW/newhope.png,GW/hanover.png,1.0,,638476f72ab8021be345e3ac
6582,2091.400000035763,directmemory_phase,1069520,blocked,GW/hanover.png,51.0,1.0,0.9230769230769232,GW/carmel.png,GW/shreveport.png,GW/newhope.png,GW/newhope.png,GW/shreveport.png,GW/carmel.png,1.0,,638476f72ab8021be345e3ac
6584,3001.0,directmemory_phase,1073527,blocked,GW/cornwall.png,49.0,0.0,0.8571428571428571,GW/carmel.png,GW/hotsprings.png,GW/boulder.png,GW/hotsprings.png,GW/carmel.png,GW/boulder.png,0.5,closer,638476f72ab8021be345e3ac
6586,2042.199999988079,directmemory_phase,1076578,blocked,GW/shreveport.png,49.0,1.0,0.8666666666666667,GW/peoria.png,GW/carmel.png,GW/huntsville.png,GW/peoria.png,GW/huntsville.png,GW/carmel.png,1.0,,638476f72ab8021be345e3ac
6588,2988.800000011921,directmemory_phase,1080576,blocked,GW/carmel.png,51.0,1.0,0.875,GW/peoria.png,GW/leesburg.png,GW/westpalmbeach.png,GW/westpalmbeach.png,GW/leesburg.png,GW/peoria.png,1.0,,638476f72ab8021be345e3ac
6590,2967.099999964237,directmemory_phase,1084552,blocked,GW/peoria.png,50.0,0.0,0.8235294117647058,GW/racine.png,GW/cornwall.png,GW/boulder.png,GW/boulder.png,GW/cornwall.png,GW/racine.png,0.5,closer,638476f72ab8021be345e3ac
6592,3904.800000011921,directmemory_phase,1089464,blocked,GW/racine.png,51.0,0.0,0.7777777777777778,GW/huntsville.png,GW/gatlinburg.png,GW/hotsprings.png,GW/huntsville.png,GW/hotsprings.png,GW/gatlinburg.png,0.5,closer,638476f72ab8021be345e3ac
6594,2209.300000011921,directmemory_phase,1092682,blocked,GW/newhope.png,51.0,1.0,0.7894736842105263,GW/hotsprings.png,GW/racine.png,GW/peoria.png,GW/peoria.png,GW/racine.png,GW/hotsprings.png,1.0,,638476f72ab8021be345e3ac
6596,1358.0999999642372,directmemory_phase,1095049,blocked,GW/hanover.png,49.0,1.0,0.8,GW/gatlinburg.png,GW/hotsprings.png,GW/shreveport.png,GW/gatlinburg.png,GW/shreveport.png,GW/hotsprings.png,1.0,,638476f72ab8021be345e3ac
6598,1314.300000011921,directmemory_phase,1097369,blocked,GW/leesburg.png,51.0,1.0,0.8095238095238095,GW/shreveport.png,GW/carmel.png,GW/hotsprings.png,GW/hotsprings.png,GW/carmel.png,GW/shreveport.png,1.0,,638476f72ab8021be345e3ac
6600,2472.2000000476837,directmemory_phase,1100850,blocked,GW/hanover.png,49.0,1.0,0.8181818181818182,GW/peoria.png,GW/cornwall.png,GW/huntsville.png,GW/peoria.png,GW/huntsville.png,GW/cornwall.png,1.0,,638476f72ab8021be345e3ac
6602,3436.399999976158,directmemory_phase,1105298,blocked,GW/carmel.png,50.0,0.0,0.782608695652174,GW/hotsprings.png,GW/peoria.png,GW/huntsville.png,GW/hotsprings.png,GW/huntsville.png,GW/peoria.png,0.5,closer,638476f72ab8021be345e3ac
6604,2696.5,directmemory_phase,1109002,blocked,GW/boulder.png,51.0,1.0,0.7916666666666666,GW/racine.png,GW/shreveport.png,GW/peoria.png,GW/peoria.png,GW/shreveport.png,GW/racine.png,1.0,,638476f72ab8021be345e3ac
6606,2561.599999964237,directmemory_phase,1112571,blocked,GW/westpalmbeach.png,51.0,1.0,0.8,GW/newhope.png,GW/hotsprings.png,GW/carmel.png,GW/carmel.png,GW/hotsprings.png,GW/newhope.png,1.0,,638476f72ab8021be345e3ac
6608,2682.300000011921,directmemory_phase,1116260,blocked,GW/cornwall.png,50.0,1.0,0.8076923076923077,GW/racine.png,GW/shreveport.png,GW/boulder.png,GW/shreveport.png,GW/racine.png,GW/boulder.png,1.0,,638476f72ab8021be345e3ac
6610,1808.0999999642372,directmemory_phase,1119075,blocked,GW/peoria.png,51.0,1.0,0.8148148148148148,GW/hotsprings.png,GW/gatlinburg.png,GW/hanover.png,GW/hanover.png,GW/gatlinburg.png,GW/hotsprings.png,1.0,,638476f72ab8021be345e3ac
6612,1902.100000023842,directmemory_phase,1121994,blocked,GW/newhope.png,51.0,1.0,0.8214285714285714,GW/hotsprings.png,GW/racine.png,GW/shreveport.png,GW/shreveport.png,GW/racine.png,GW/hotsprings.png,1.0,,638476f72ab8021be345e3ac
6614,2566.800000011921,directmemory_phase,1125574,blocked,GW/racine.png,51.0,1.0,0.8275862068965517,GW/peoria.png,GW/hotsprings.png,GW/carmel.png,GW/carmel.png,GW/hotsprings.png,GW/peoria.png,1.0,,638476f72ab8021be345e3ac
6616,2639.800000011921,directmemory_phase,1129227,blocked,GW/peoria.png,49.0,1.0,0.8333333333333334,GW/shreveport.png,GW/carmel.png,GW/cornwall.png,GW/shreveport.png,GW/cornwall.png,GW/carmel.png,1.0,,638476f72ab8021be345e3ac
6618,2340.100000023842,directmemory_phase,1132574,blocked,GW/huntsville.png,51.0,1.0,0.8387096774193549,GW/westpalmbeach.png,GW/hotsprings.png,GW/cornwall.png,GW/cornwall.png,GW/hotsprings.png,GW/westpalmbeach.png,1.0,,638476f72ab8021be345e3ac
6620,3645.600000023842,directmemory_phase,1137230,blocked,GW/shreveport.png,51.0,1.0,0.84375,GW/westpalmbeach.png,GW/hanover.png,GW/newhope.png,GW/newhope.png,GW/hanover.png,GW/westpalmbeach.png,1.0,,638476f72ab8021be345e3ac
8511,3405.300000190735,directmemory_phase,1307258,blocked,GW/shreveport.png,50.0,0.0,0.0,GW/peoria.png,GW/westpalmbeach.png,GW/cornwall.png,GW/peoria.png,GW/cornwall.png,GW/westpalmbeach.png,0.5,closer,6595938bf754e3013651e556
8513,1213.5,directmemory_phase,1309482,blocked,GW/hanover.png,49.0,1.0,0.5,GW/gatlinburg.png,GW/huntsville.png,GW/newhope.png,GW/gatlinburg.png,GW/newhope.png,GW/huntsville.png,1.0,,6595938bf754e3013651e556
8515,1683.6000001430511,directmemory_phase,1312170,blocked,GW/westpalmbeach.png,50.0,1.0,0.6666666666666666,GW/cornwall.png,GW/hotsprings.png,GW/boulder.png,GW/hotsprings.png,GW/cornwall.png,GW/boulder.png,1.0,,6595938bf754e3013651e556
8517,2796.7999999523163,directmemory_phase,1315970,blocked,GW/boulder.png,50.0,0.0,0.5,GW/huntsville.png,GW/newhope.png,GW/carmel.png,GW/huntsville.png,GW/carmel.png,GW/newhope.png,0.5,closer,6595938bf754e3013651e556
8519,1226.4000000953674,directmemory_phase,1318202,blocked,GW/gatlinburg.png,49.0,1.0,0.6,GW/westpalmbeach.png,GW/peoria.png,GW/hotsprings.png,GW/westpalmbeach.png,GW/hotsprings.png,GW/peoria.png,1.0,,6595938bf754e3013651e556
8521,2300.100000143051,directmemory_phase,1321506,blocked,GW/cornwall.png,50.0,1.0,0.6666666666666666,GW/westpalmbeach.png,GW/newhope.png,GW/racine.png,GW/newhope.png,GW/westpalmbeach.png,GW/racine.png,1.0,,6595938bf754e3013651e556
8523,1596.0,directmemory_phase,1324106,blocked,GW/hotsprings.png,50.0,1.0,0.7142857142857143,GW/racine.png,GW/hanover.png,GW/peoria.png,GW/hanover.png,GW/racine.png,GW/peoria.png,1.0,,6595938bf754e3013651e556
8525,1716.1999998092651,directmemory_phase,1326826,blocked,GW/westpalmbeach.png,51.0,0.0,0.625,GW/racine.png,GW/newhope.png,GW/huntsville.png,GW/newhope.png,GW/racine.png,GW/huntsville.png,0.5,closer,6595938bf754e3013651e556
8527,2835.600000143051,directmemory_phase,1330666,blocked,GW/peoria.png,49.0,0.0,0.5555555555555556,GW/westpalmbeach.png,GW/newhope.png,GW/huntsville.png,GW/huntsville.png,GW/newhope.png,GW/westpalmbeach.png,0.5,closer,6595938bf754e3013651e556
8529,2140.199999809265,directmemory_phase,1333810,blocked,GW/newhope.png,49.0,0.0,0.5,GW/gatlinburg.png,GW/westpalmbeach.png,GW/shreveport.png,GW/westpalmbeach.png,GW/gatlinburg.png,GW/shreveport.png,0.5,closer,6595938bf754e3013651e556
8531,2323.300000190735,directmemory_phase,1337146,blocked,GW/huntsville.png,49.0,0.0,0.4545454545454545,GW/shreveport.png,GW/boulder.png,GW/hotsprings.png,GW/boulder.png,GW/shreveport.png,GW/hotsprings.png,0.5,closer,6595938bf754e3013651e556
8533,2547.400000095367,directmemory_phase,1340698,blocked,GW/hotsprings.png,51.0,1.0,0.5,GW/peoria.png,GW/newhope.png,GW/westpalmbeach.png,GW/westpalmbeach.png,GW/newhope.png,GW/peoria.png,1.0,,6595938bf754e3013651e556
8535,2627.900000095367,directmemory_phase,1344330,blocked,GW/huntsville.png,50.0,0.0,0.4615384615384615,GW/carmel.png,GW/hotsprings.png,GW/shreveport.png,GW/carmel.png,GW/shreveport.png,GW/hotsprings.png,0.5,closer,6595938bf754e3013651e556
8537,2357.2000000476837,directmemory_phase,1347690,blocked,GW/westpalmbeach.png,50.0,0.0,0.4285714285714285,GW/hanover.png,GW/shreveport.png,GW/leesburg.png,GW/hanover.png,GW/leesburg.png,GW/shreveport.png,0.5,closer,6595938bf754e3013651e556
8539,2224.099999904633,directmemory_phase,1350922,blocked,GW/huntsville.png,51.0,0.0,0.4,GW/peoria.png,GW/westpalmbeach.png,GW/shreveport.png,GW/peoria.png,GW/shreveport.png,GW/westpalmbeach.png,0.5,closer,6595938bf754e3013651e556
8541,3419.5,directmemory_phase,1355346,blocked,GW/westpalmbeach.png,51.0,1.0,0.4375,GW/boulder.png,GW/leesburg.png,GW/gatlinburg.png,GW/gatlinburg.png,GW/leesburg.png,GW/boulder.png,1.0,,6595938bf754e3013651e556
8543,2237.399999856949,directmemory_phase,1358586,blocked,GW/newhope.png,51.0,0.0,0.4117647058823529,GW/carmel.png,GW/shreveport.png,GW/hanover.png,GW/carmel.png,GW/hanover.png,GW/shreveport.png,0.5,closer,6595938bf754e3013651e556
8545,1930.7999999523165,directmemory_phase,1361522,blocked,GW/gatlinburg.png,51.0,1.0,0.4444444444444444,GW/boulder.png,GW/racine.png,GW/hanover.png,GW/hanover.png,GW/racine.png,GW/boulder.png,1.0,,6595938bf754e3013651e556
8547,1388.1999998092651,directmemory_phase,1363914,blocked,GW/carmel.png,49.0,0.0,0.4210526315789473,GW/hanover.png,GW/newhope.png,GW/racine.png,GW/newhope.png,GW/hanover.png,GW/racine.png,0.5,closer,6595938bf754e3013651e556
8549,2434.900000095367,directmemory_phase,1367354,blocked,GW/hanover.png,49.0,1.0,0.45,GW/westpalmbeach.png,GW/peoria.png,GW/newhope.png,GW/westpalmbeach.png,GW/newhope.png,GW/peoria.png,1.0,,6595938bf754e3013651e556
8551,2243.900000095367,directmemory_phase,1370602,blocked,GW/leesburg.png,50.0,1.0,0.4761904761904761,GW/hanover.png,GW/hotsprings.png,GW/cornwall.png,GW/hotsprings.png,GW/hanover.png,GW/cornwall.png,1.0,,6595938bf754e3013651e556
8553,2739.2000000476837,directmemory_phase,1374346,blocked,GW/carmel.png,51.0,1.0,0.5,GW/hotsprings.png,GW/westpalmbeach.png,GW/gatlinburg.png,GW/gatlinburg.png,GW/westpalmbeach.png,GW/hotsprings.png,1.0,,6595938bf754e3013651e556
8555,3346.599999904633,directmemory_phase,1378698,blocked,GW/cornwall.png,51.0,0.0,0.4782608695652174,GW/shreveport.png,GW/peoria.png,GW/boulder.png,GW/peoria.png,GW/shreveport.png,GW/boulder.png,0.5,closer,6595938bf754e3013651e556
8557,1044.0999999046326,directmemory_phase,1380746,blocked,GW/racine.png,49.0,1.0,0.5,GW/hanover.png,GW/cornwall.png,GW/westpalmbeach.png,GW/hanover.png,GW/westpalmbeach.png,GW/cornwall.png,1.0,,6595938bf754e3013651e556
8559,2561.099999904633,directmemory_phase,1384314,blocked,GW/peoria.png,49.0,0.0,0.48,GW/hanover.png,GW/boulder.png,GW/shreveport.png,GW/shreveport.png,GW/boulder.png,GW/hanover.png,0.5,closer,6595938bf754e3013651e556
8561,1146.7000000476835,directmemory_phase,1386466,blocked,GW/hanover.png,49.0,0.0,0.4615384615384615,GW/carmel.png,GW/racine.png,GW/boulder.png,GW/racine.png,GW/carmel.png,GW/boulder.png,0.5,closer,6595938bf754e3013651e556
8563,1242.8999998569489,directmemory_phase,1388714,blocked,GW/peoria.png,50.0,0.0,0.4444444444444444,GW/hanover.png,GW/carmel.png,GW/cornwall.png,GW/cornwall.png,GW/carmel.png,GW/hanover.png,0.5,closer,6595938bf754e3013651e556
8565,2403.2000000476837,directmemory_phase,1392122,blocked,GW/carmel.png,50.0,0.0,0.4285714285714285,GW/huntsville.png,GW/racine.png,GW/peoria.png,GW/huntsville.png,GW/peoria.png,GW/racine.png,0.5,closer,6595938bf754e3013651e556
8567,3162.7999999523163,directmemory_phase,1396290,blocked,GW/hanover.png,49.0,0.0,0.4137931034482758,GW/leesburg.png,GW/hotsprings.png,GW/peoria.png,GW/hotsprings.png,GW/leesburg.png,GW/peoria.png,0.5,closer,6595938bf754e3013651e556
8569,1035.2999999523165,directmemory_phase,1398330,blocked,GW/gatlinburg.png,49.0,1.0,0.4333333333333333,GW/carmel.png,GW/peoria.png,GW/racine.png,GW/carmel.png,GW/racine.png,GW/peoria.png,1.0,,6595938bf754e3013651e556
8571,1689.0999999046326,directmemory_phase,1401026,blocked,GW/hotsprings.png,50.0,1.0,0.4516129032258064,GW/newhope.png,GW/leesburg.png,GW/cornwall.png,GW/leesburg.png,GW/newhope.png,GW/cornwall.png,1.0,,6595938bf754e3013651e556
8573,1652.3000001907349,directmemory_phase,1403682,blocked,GW/newhope.png,50.0,0.0,0.4375,GW/racine.png,GW/hanover.png,GW/cornwall.png,GW/cornwall.png,GW/hanover.png,GW/racine.png,0.5,closer,6595938bf754e3013651e556
9485,5232.099999964237,directmemory_phase,1064041,blocked,GW/cornwall.png,50.0,1.0,1.0,GW/westpalmbeach.png,GW/racine.png,GW/boulder.png,GW/racine.png,GW/westpalmbeach.png,GW/boulder.png,1.0,,65b92135e296f28cb1a093c3
9487,4293.699999988079,directmemory_phase,1069339,blocked,GW/boulder.png,49.0,1.0,1.0,GW/leesburg.png,GW/carmel.png,GW/newhope.png,GW/leesburg.png,GW/newhope.png,GW/carmel.png,1.0,,65b92135e296f28cb1a093c3
9489,5301.399999976158,directmemory_phase,1075642,blocked,GW/shreveport.png,49.0,1.0,1.0,GW/racine.png,GW/gatlinburg.png,GW/huntsville.png,GW/racine.png,GW/huntsville.png,GW/gatlinburg.png,1.0,,65b92135e296f28cb1a093c3
9491,,directmemory_phase,1083147,blocked,GW/cornwall.png,,0.0,0.75,GW/leesburg.png,GW/newhope.png,GW/boulder.png,GW/newhope.png,GW/leesburg.png,GW/boulder.png,0.0,,65b92135e296f28cb1a093c3
9494,2996.600000023842,directmemory_phase,1090150,blocked,GW/racine.png,51.0,1.0,0.8,GW/leesburg.png,GW/hanover.png,GW/peoria.png,GW/peoria.png,GW/hanover.png,GW/leesburg.png,1.0,,65b92135e296f28cb1a093c3
9496,1661.0999999642372,directmemory_phase,1092814,blocked,GW/leesburg.png,49.0,0.0,0.6666666666666666,GW/shreveport.png,GW/cornwall.png,GW/newhope.png,GW/newhope.png,GW/cornwall.png,GW/shreveport.png,0.5,closer,65b92135e296f28cb1a093c3
9498,2885.599999964237,directmemory_phase,1096702,blocked,GW/cornwall.png,51.0,1.0,0.7142857142857143,GW/hanover.png,GW/huntsville.png,GW/peoria.png,GW/peoria.png,GW/huntsville.png,GW/hanover.png,1.0,,65b92135e296f28cb1a093c3
9500,2252.600000023842,directmemory_phase,1099959,blocked,GW/huntsville.png,49.0,1.0,0.75,GW/newhope.png,GW/westpalmbeach.png,GW/leesburg.png,GW/newhope.png,GW/leesburg.png,GW/westpalmbeach.png,1.0,,65b92135e296f28cb1a093c3
9502,1382.0999999642372,directmemory_phase,1102343,blocked,GW/peoria.png,49.0,1.0,0.7777777777777778,GW/racine.png,GW/boulder.png,GW/westpalmbeach.png,GW/racine.png,GW/westpalmbeach.png,GW/boulder.png,1.0,,65b92135e296f28cb1a093c3
9504,1766.199999988079,directmemory_phase,1105112,blocked,GW/newhope.png,51.0,1.0,0.8,GW/carmel.png,GW/gatlinburg.png,GW/cornwall.png,GW/cornwall.png,GW/gatlinburg.png,GW/carmel.png,1.0,,65b92135e296f28cb1a093c3
9506,1974.0,directmemory_phase,1108089,blocked,GW/huntsville.png,51.0,0.0,0.7272727272727273,GW/gatlinburg.png,GW/westpalmbeach.png,GW/cornwall.png,GW/gatlinburg.png,GW/cornwall.png,GW/westpalmbeach.png,0.5,closer,65b92135e296f28cb1a093c3
9508,2027.800000011921,directmemory_phase,1111120,blocked,GW/racine.png,50.0,1.0,0.75,GW/hanover.png,GW/shreveport.png,GW/gatlinburg.png,GW/shreveport.png,GW/hanover.png,GW/gatlinburg.png,1.0,,65b92135e296f28cb1a093c3
9510,2422.0,directmemory_phase,1114546,blocked,GW/gatlinburg.png,51.0,1.0,0.7692307692307693,GW/westpalmbeach.png,GW/leesburg.png,GW/hotsprings.png,GW/hotsprings.png,GW/leesburg.png,GW/westpalmbeach.png,1.0,,65b92135e296f28cb1a093c3
9512,2725.2000000476837,directmemory_phase,1118273,blocked,GW/peoria.png,51.0,1.0,0.7857142857142857,GW/hotsprings.png,GW/newhope.png,GW/huntsville.png,GW/huntsville.png,GW/newhope.png,GW/hotsprings.png,1.0,,65b92135e296f28cb1a093c3
9514,1686.899999976158,directmemory_phase,1120962,blocked,GW/carmel.png,50.0,1.0,0.8,GW/leesburg.png,GW/hotsprings.png,GW/boulder.png,GW/hotsprings.png,GW/leesburg.png,GW/boulder.png,1.0,,65b92135e296f28cb1a093c3
9516,2998.300000011921,directmemory_phase,1124963,blocked,GW/peoria.png,49.0,0.0,0.75,GW/hotsprings.png,GW/westpalmbeach.png,GW/shreveport.png,GW/shreveport.png,GW/westpalmbeach.png,GW/hotsprings.png,0.5,closer,65b92135e296f28cb1a093c3
9518,1668.5999999642372,directmemory_phase,1127635,blocked,GW/westpalmbeach.png,49.0,1.0,0.7647058823529411,GW/racine.png,GW/gatlinburg.png,GW/peoria.png,GW/racine.png,GW/peoria.png,GW/gatlinburg.png,1.0,,65b92135e296f28cb1a093c3
9520,1853.2000000476835,directmemory_phase,1130492,blocked,GW/shreveport.png,49.0,0.0,0.7222222222222222,GW/leesburg.png,GW/cornwall.png,GW/hanover.png,GW/hanover.png,GW/cornwall.png,GW/leesburg.png,0.5,closer,65b92135e296f28cb1a093c3
9522,2640.0,directmemory_phase,1134142,blocked,GW/racine.png,50.0,0.0,0.6842105263157895,GW/cornwall.png,GW/leesburg.png,GW/newhope.png,GW/cornwall.png,GW/newhope.png,GW/leesburg.png,0.5,closer,65b92135e296f28cb1a093c3
9524,2213.100000023842,directmemory_phase,1137358,blocked,GW/shreveport.png,49.0,0.0,0.65,GW/leesburg.png,GW/huntsville.png,GW/peoria.png,GW/peoria.png,GW/huntsville.png,GW/leesburg.png,0.5,closer,65b92135e296f28cb1a093c3
9526,1708.0,directmemory_phase,1140069,blocked,GW/hotsprings.png,51.0,1.0,0.6666666666666666,GW/shreveport.png,GW/huntsville.png,GW/carmel.png,GW/carmel.png,GW/huntsville.png,GW/shreveport.png,1.0,,65b92135e296f28cb1a093c3
9528,1974.699999988079,directmemory_phase,1143047,blocked,GW/hanover.png,50.0,1.0,0.6818181818181818,GW/racine.png,GW/shreveport.png,GW/gatlinburg.png,GW/shreveport.png,GW/racine.png,GW/gatlinburg.png,1.0,,65b92135e296f28cb1a093c3
9530,1959.199999988079,directmemory_phase,1146015,blocked,GW/leesburg.png,49.0,1.0,0.6956521739130435,GW/boulder.png,GW/westpalmbeach.png,GW/huntsville.png,GW/boulder.png,GW/huntsville.png,GW/westpalmbeach.png,1.0,,65b92135e296f28cb1a093c3
9532,1899.899999976158,directmemory_phase,1148919,blocked,GW/peoria.png,50.0,1.0,0.7083333333333334,GW/hanover.png,GW/cornwall.png,GW/boulder.png,GW/cornwall.png,GW/hanover.png,GW/boulder.png,1.0,,65b92135e296f28cb1a093c3
9534,1973.199999988079,directmemory_phase,1151895,blocked,GW/gatlinburg.png,49.0,1.0,0.72,GW/huntsville.png,GW/boulder.png,GW/peoria.png,GW/huntsville.png,GW/peoria.png,GW/boulder.png,1.0,,65b92135e296f28cb1a093c3
9536,2758.300000011921,directmemory_phase,1155656,blocked,GW/leesburg.png,51.0,1.0,0.7307692307692307,GW/westpalmbeach.png,GW/carmel.png,GW/hotsprings.png,GW/hotsprings.png,GW/carmel.png,GW/westpalmbeach.png,1.0,,65b92135e296f28cb1a093c3
9538,2405.199999988079,directmemory_phase,1159065,blocked,GW/newhope.png,49.0,1.0,0.7407407407407407,GW/huntsville.png,GW/shreveport.png,GW/gatlinburg.png,GW/huntsville.png,GW/gatlinburg.png,GW/shreveport.png,1.0,,65b92135e296f28cb1a093c3
9540,2172.5,directmemory_phase,1162240,blocked,GW/hotsprings.png,49.0,1.0,0.75,GW/leesburg.png,GW/peoria.png,GW/boulder.png,GW/leesburg.png,GW/boulder.png,GW/peoria.png,1.0,,65b92135e296f28cb1a093c3
9542,1191.0,directmemory_phase,1164434,blocked,GW/huntsville.png,51.0,1.0,0.7586206896551724,GW/hanover.png,GW/racine.png,GW/peoria.png,GW/peoria.png,GW/racine.png,GW/hanover.png,1.0,,65b92135e296f28cb1a093c3
9544,1940.7999999523165,directmemory_phase,1167377,blocked,GW/newhope.png,50.0,1.0,0.7666666666666667,GW/boulder.png,GW/leesburg.png,GW/shreveport.png,GW/leesburg.png,GW/boulder.png,GW/shreveport.png,1.0,,65b92135e296f28cb1a093c3
9546,1133.199999988079,directmemory_phase,1169514,blocked,GW/hotsprings.png,51.0,1.0,0.7741935483870968,GW/peoria.png,GW/huntsville.png,GW/gatlinburg.png,GW/gatlinburg.png,GW/huntsville.png,GW/peoria.png,1.0,,65b92135e296f28cb1a093c3
9548,1429.800000011921,directmemory_phase,1171946,blocked,GW/racine.png,51.0,1.0,0.78125,GW/leesburg.png,GW/newhope.png,GW/westpalmbeach.png,GW/westpalmbeach.png,GW/newhope.png,GW/leesburg.png,1.0,,65b92135e296f28cb1a093c3
10460,,directmemory_phase,1181669,blocked,GW/boulder.png,,0.0,0.0,GW/huntsville.png,GW/hanover.png,GW/cornwall.png,GW/hanover.png,GW/huntsville.png,GW/cornwall.png,0.0,,5fc50bb38378c80ac88354ef
10463,2094.4000000059605,directmemory_phase,1187772,blocked,GW/huntsville.png,49.0,1.0,0.5,GW/hotsprings.png,GW/racine.png,GW/cornwall.png,GW/hotsprings.png,GW/cornwall.png,GW/racine.png,1.0,,5fc50bb38378c80ac88354ef
10465,2450.100000023842,directmemory_phase,1191228,blocked,GW/boulder.png,50.0,0.0,0.3333333333333333,GW/shreveport.png,GW/newhope.png,GW/westpalmbeach.png,GW/westpalmbeach.png,GW/newhope.png,GW/shreveport.png,0.5,closer,5fc50bb38378c80ac88354ef
10467,2835.5,directmemory_phase,1195068,blocked,GW/peoria.png,50.0,1.0,0.5,GW/hanover.png,GW/newhope.png,GW/cornwall.png,GW/newhope.png,GW/hanover.png,GW/cornwall.png,1.0,,5fc50bb38378c80ac88354ef
10469,4458.9000000059605,directmemory_phase,1200534,blocked,GW/hotsprings.png,51.0,0.0,0.4,GW/shreveport.png,GW/leesburg.png,GW/hanover.png,GW/shreveport.png,GW/hanover.png,GW/leesburg.png,0.5,closer,5fc50bb38378c80ac88354ef
10471,2718.800000011921,directmemory_phase,1204260,blocked,GW/gatlinburg.png,49.0,0.0,0.3333333333333333,GW/leesburg.png,GW/carmel.png,GW/boulder.png,GW/carmel.png,GW/leesburg.png,GW/boulder.png,0.5,closer,5fc50bb38378c80ac88354ef
10473,2798.5,directmemory_phase,1208063,blocked,GW/peoria.png,49.0,0.0,0.2857142857142857,GW/leesburg.png,GW/westpalmbeach.png,GW/hotsprings.png,GW/hotsprings.png,GW/westpalmbeach.png,GW/leesburg.png,0.5,closer,5fc50bb38378c80ac88354ef
10475,2616.7999999821186,directmemory_phase,1211683,blocked,GW/cornwall.png,50.0,1.0,0.375,GW/racine.png,GW/gatlinburg.png,GW/newhope.png,GW/gatlinburg.png,GW/racine.png,GW/newhope.png,1.0,,5fc50bb38378c80ac88354ef
10477,2885.5,directmemory_phase,1215574,blocked,GW/hotsprings.png,50.0,0.0,0.3333333333333333,GW/carmel.png,GW/boulder.png,GW/peoria.png,GW/peoria.png,GW/boulder.png,GW/carmel.png,0.5,closer,5fc50bb38378c80ac88354ef
10479,2609.699999988079,directmemory_phase,1219190,blocked,GW/huntsville.png,51.0,0.0,0.3,GW/boulder.png,GW/hanover.png,GW/newhope.png,GW/hanover.png,GW/boulder.png,GW/newhope.png,0.5,closer,5fc50bb38378c80ac88354ef
10481,4127.0999999940395,directmemory_phase,1224325,blocked,GW/gatlinburg.png,51.0,0.0,0.2727272727272727,GW/leesburg.png,GW/cornwall.png,GW/boulder.png,GW/cornwall.png,GW/leesburg.png,GW/boulder.png,0.5,closer,5fc50bb38378c80ac88354ef
10483,2193.899999976158,directmemory_phase,1227525,blocked,GW/newhope.png,49.0,0.0,0.25,GW/huntsville.png,GW/boulder.png,GW/peoria.png,GW/peoria.png,GW/boulder.png,GW/huntsville.png,0.5,closer,5fc50bb38378c80ac88354ef
10485,2450.699999988079,directmemory_phase,1230982,blocked,GW/shreveport.png,49.0,0.0,0.2307692307692307,GW/hanover.png,GW/carmel.png,GW/gatlinburg.png,GW/gatlinburg.png,GW/carmel.png,GW/hanover.png,0.5,closer,5fc50bb38378c80ac88354ef
10487,2423.5,directmemory_phase,1234415,blocked,GW/cornwall.png,50.0,1.0,0.2857142857142857,GW/huntsville.png,GW/carmel.png,GW/hanover.png,GW/carmel.png,GW/huntsville.png,GW/hanover.png,1.0,,5fc50bb38378c80ac88354ef
10489,3207.199999988079,directmemory_phase,1238628,blocked,GW/hanover.png,51.0,1.0,0.3333333333333333,GW/cornwall.png,GW/hotsprings.png,GW/huntsville.png,GW/huntsville.png,GW/hotsprings.png,GW/cornwall.png,1.0,,5fc50bb38378c80ac88354ef
10491,2017.9000000059605,directmemory_phase,1241653,blocked,GW/shreveport.png,49.0,1.0,0.375,GW/cornwall.png,GW/westpalmbeach.png,GW/leesburg.png,GW/cornwall.png,GW/leesburg.png,GW/westpalmbeach.png,1.0,,5fc50bb38378c80ac88354ef
10493,2258.9000000059605,directmemory_phase,1244916,blocked,GW/carmel.png,49.0,0.0,0.3529411764705882,GW/huntsville.png,GW/gatlinburg.png,GW/hotsprings.png,GW/gatlinburg.png,GW/huntsville.png,GW/hotsprings.png,0.5,closer,5fc50bb38378c80ac88354ef
10495,2316.300000011921,directmemory_phase,1248237,blocked,GW/cornwall.png,50.0,0.0,0.3333333333333333,GW/shreveport.png,GW/peoria.png,GW/hotsprings.png,GW/shreveport.png,GW/hotsprings.png,GW/peoria.png,0.5,closer,5fc50bb38378c80ac88354ef
10497,2439.7999999821186,directmemory_phase,1251685,blocked,GW/huntsville.png,51.0,0.0,0.3157894736842105,GW/gatlinburg.png,GW/westpalmbeach.png,GW/peoria.png,GW/gatlinburg.png,GW/peoria.png,GW/westpalmbeach.png,0.5,closer,5fc50bb38378c80ac88354ef
10499,2265.5999999940395,directmemory_phase,1254956,blocked,GW/carmel.png,51.0,0.0,0.3,GW/huntsville.png,GW/cornwall.png,GW/hotsprings.png,GW/cornwall.png,GW/huntsville.png,GW/hotsprings.png,0.5,closer,5fc50bb38378c80ac88354ef
10501,2437.9000000059605,directmemory_phase,1258399,blocked,GW/gatlinburg.png,49.0,0.0,0.2857142857142857,GW/newhope.png,GW/racine.png,GW/shreveport.png,GW/shreveport.png,GW/racine.png,GW/newhope.png,0.5,closer,5fc50bb38378c80ac88354ef
10503,1998.5,directmemory_phase,1261406,blocked,GW/hotsprings.png,49.0,1.0,0.3181818181818182,GW/huntsville.png,GW/westpalmbeach.png,GW/boulder.png,GW/huntsville.png,GW/boulder.png,GW/westpalmbeach.png,1.0,,5fc50bb38378c80ac88354ef
10505,1907.0,directmemory_phase,1264327,blocked,GW/peoria.png,50.0,0.0,0.3043478260869565,GW/carmel.png,GW/westpalmbeach.png,GW/boulder.png,GW/boulder.png,GW/westpalmbeach.png,GW/carmel.png,0.5,closer,5fc50bb38378c80ac88354ef
10507,2031.5,directmemory_phase,1267367,blocked,GW/gatlinburg.png,49.0,0.0,0.2916666666666667,GW/hanover.png,GW/huntsville.png,GW/boulder.png,GW/huntsville.png,GW/hanover.png,GW/boulder.png,0.5,closer,5fc50bb38378c80ac88354ef
10509,1941.9000000059605,directmemory_phase,1270318,blocked,GW/racine.png,51.0,0.0,0.28,GW/carmel.png,GW/shreveport.png,GW/cornwall.png,GW/carmel.png,GW/cornwall.png,GW/shreveport.png,0.5,closer,5fc50bb38378c80ac88354ef
10511,2346.4000000059605,directmemory_phase,1273670,blocked,GW/boulder.png,50.0,1.0,0.3076923076923077,GW/hotsprings.png,GW/peoria.png,GW/shreveport.png,GW/peoria.png,GW/hotsprings.png,GW/shreveport.png,1.0,,5fc50bb38378c80ac88354ef
10513,2285.100000023842,directmemory_phase,1276964,blocked,GW/carmel.png,51.0,0.0,0.2962962962962963,GW/racine.png,GW/hotsprings.png,GW/huntsville.png,GW/racine.png,GW/huntsville.png,GW/hotsprings.png,0.5,closer,5fc50bb38378c80ac88354ef
10515,1971.9000000059605,directmemory_phase,1279940,blocked,GW/leesburg.png,49.0,1.0,0.3214285714285714,GW/cornwall.png,GW/hanover.png,GW/shreveport.png,GW/cornwall.png,GW/shreveport.png,GW/hanover.png,1.0,,5fc50bb38378c80ac88354ef
10517,2215.699999988079,directmemory_phase,1283159,blocked,GW/westpalmbeach.png,49.0,0.0,0.3103448275862069,GW/hotsprings.png,GW/hanover.png,GW/boulder.png,GW/boulder.png,GW/hanover.png,GW/hotsprings.png,0.5,closer,5fc50bb38378c80ac88354ef
10519,2574.699999988079,directmemory_phase,1286742,blocked,GW/cornwall.png,50.0,0.0,0.3,GW/leesburg.png,GW/peoria.png,GW/racine.png,GW/leesburg.png,GW/racine.png,GW/peoria.png,0.5,closer,5fc50bb38378c80ac88354ef
10521,1958.5,directmemory_phase,1289710,blocked,GW/hanover.png,49.0,0.0,0.2903225806451613,GW/gatlinburg.png,GW/boulder.png,GW/cornwall.png,GW/boulder.png,GW/gatlinburg.png,GW/cornwall.png,0.5,closer,5fc50bb38378c80ac88354ef
10523,1799.7999999821186,directmemory_phase,1292519,blocked,GW/shreveport.png,51.0,1.0,0.3125,GW/boulder.png,GW/peoria.png,GW/hotsprings.png,GW/hotsprings.png,GW/peoria.png,GW/boulder.png,1.0,,5fc50bb38378c80ac88354ef
12426,3463.600000023842,directmemory_phase,970481,blocked,GW/newhope.png,49.0,1.0,1.0,GW/cornwall.png,GW/huntsville.png,GW/hotsprings.png,GW/cornwall.png,GW/hotsprings.png,GW/huntsville.png,1.0,,5e2ac2aa0038f21089a533a4
12428,6105.399999976158,directmemory_phase,977594,blocked,GW/boulder.png,51.0,1.0,1.0,GW/gatlinburg.png,GW/leesburg.png,GW/hanover.png,GW/hanover.png,GW/leesburg.png,GW/gatlinburg.png,1.0,,5e2ac2aa0038f21089a533a4
12430,4584.799999952316,directmemory_phase,983185,blocked,GW/cornwall.png,50.0,1.0,1.0,GW/westpalmbeach.png,GW/newhope.png,GW/carmel.png,GW/newhope.png,GW/westpalmbeach.png,GW/carmel.png,1.0,,5e2ac2aa0038f21089a533a4
12432,2105.100000023842,directmemory_phase,986301,blocked,GW/gatlinburg.png,51.0,1.0,1.0,GW/huntsville.png,GW/peoria.png,GW/racine.png,GW/racine.png,GW/peoria.png,GW/huntsville.png,1.0,,5e2ac2aa0038f21089a533a4
12434,2388.7000000476837,directmemory_phase,989696,blocked,GW/newhope.png,50.0,1.0,1.0,GW/carmel.png,GW/westpalmbeach.png,GW/huntsville.png,GW/westpalmbeach.png,GW/carmel.png,GW/huntsville.png,1.0,,5e2ac2aa0038f21089a533a4
12436,1498.600000023842,directmemory_phase,992201,blocked,GW/leesburg.png,49.0,1.0,1.0,GW/hanover.png,GW/westpalmbeach.png,GW/cornwall.png,GW/hanover.png,GW/cornwall.png,GW/westpalmbeach.png,1.0,,5e2ac2aa0038f21089a533a4
12438,1644.2000000476835,directmemory_phase,994852,blocked,GW/carmel.png,51.0,1.0,1.0,GW/boulder.png,GW/newhope.png,GW/gatlinburg.png,GW/gatlinburg.png,GW/newhope.png,GW/boulder.png,1.0,,5e2ac2aa0038f21089a533a4
12440,4617.5,directmemory_phase,1000475,blocked,GW/westpalmbeach.png,51.0,1.0,1.0,GW/leesburg.png,GW/hanover.png,GW/newhope.png,GW/newhope.png,GW/hanover.png,GW/leesburg.png,1.0,,5e2ac2aa0038f21089a533a4
12442,2387.5,directmemory_phase,1003870,blocked,GW/boulder.png,49.0,1.0,1.0,GW/huntsville.png,GW/racine.png,GW/cornwall.png,GW/huntsville.png,GW/cornwall.png,GW/racine.png,1.0,,5e2ac2aa0038f21089a533a4
12444,2790.5,directmemory_phase,1007667,blocked,GW/gatlinburg.png,51.0,1.0,1.0,GW/huntsville.png,GW/shreveport.png,GW/carmel.png,GW/carmel.png,GW/shreveport.png,GW/huntsville.png,1.0,,5e2ac2aa0038f21089a533a4
12446,3942.600000023842,directmemory_phase,1012616,blocked,GW/racine.png,50.0,1.0,1.0,GW/carmel.png,GW/hotsprings.png,GW/huntsville.png,GW/hotsprings.png,GW/carmel.png,GW/huntsville.png,1.0,,5e2ac2aa0038f21089a533a4
12448,4800.400000095367,directmemory_phase,1018423,blocked,GW/newhope.png,51.0,0.0,0.9166666666666666,GW/gatlinburg.png,GW/huntsville.png,GW/racine.png,GW/gatlinburg.png,GW/racine.png,GW/huntsville.png,0.5,closer,5e2ac2aa0038f21089a533a4
12450,2819.599999904633,directmemory_phase,1022251,blocked,GW/carmel.png,51.0,1.0,0.9230769230769232,GW/cornwall.png,GW/newhope.png,GW/hotsprings.png,GW/hotsprings.png,GW/newhope.png,GW/cornwall.png,1.0,,5e2ac2aa0038f21089a533a4
12452,5570.199999928474,directmemory_phase,1028827,blocked,GW/hanover.png,51.0,1.0,0.9285714285714286,GW/peoria.png,GW/newhope.png,GW/boulder.png,GW/boulder.png,GW/newhope.png,GW/peoria.png,1.0,,5e2ac2aa0038f21089a533a4
12454,2755.399999976158,directmemory_phase,1032588,blocked,GW/hotsprings.png,49.0,1.0,0.9333333333333332,GW/gatlinburg.png,GW/leesburg.png,GW/newhope.png,GW/gatlinburg.png,GW/newhope.png,GW/leesburg.png,1.0,,5e2ac2aa0038f21089a533a4
12456,1903.899999976158,directmemory_phase,1035497,blocked,GW/westpalmbeach.png,51.0,1.0,0.9375,GW/leesburg.png,GW/gatlinburg.png,GW/boulder.png,GW/boulder.png,GW/gatlinburg.png,GW/leesburg.png,1.0,,5e2ac2aa0038f21089a533a4
12458,3438.100000023842,directmemory_phase,1039941,blocked,GW/hotsprings.png,49.0,1.0,0.9411764705882352,GW/racine.png,GW/boulder.png,GW/cornwall.png,GW/racine.png,GW/cornwall.png,GW/boulder.png,1.0,,5e2ac2aa0038f21089a533a4
12460,2380.600000023842,directmemory_phase,1043329,blocked,GW/carmel.png,49.0,1.0,0.9444444444444444,GW/shreveport.png,GW/westpalmbeach.png,GW/racine.png,GW/shreveport.png,GW/racine.png,GW/westpalmbeach.png,1.0,,5e2ac2aa0038f21089a533a4
12462,2830.899999976158,directmemory_phase,1047167,blocked,GW/hotsprings.png,51.0,1.0,0.9473684210526316,GW/leesburg.png,GW/shreveport.png,GW/peoria.png,GW/peoria.png,GW/shreveport.png,GW/leesburg.png,1.0,,5e2ac2aa0038f21089a533a4
12464,3367.0,directmemory_phase,1051540,blocked,GW/cornwall.png,51.0,1.0,0.95,GW/shreveport.png,GW/boulder.png,GW/racine.png,GW/racine.png,GW/boulder.png,GW/shreveport.png,1.0,,5e2ac2aa0038f21089a533a4
12466,1860.0,directmemory_phase,1054407,blocked,GW/hotsprings.png,51.0,1.0,0.9523809523809524,GW/hanover.png,GW/cornwall.png,GW/carmel.png,GW/carmel.png,GW/cornwall.png,GW/hanover.png,1.0,,5e2ac2aa0038f21089a533a4
12468,2790.1999999284744,directmemory_phase,1058203,blocked,GW/hanover.png,51.0,1.0,0.9545454545454546,GW/carmel.png,GW/newhope.png,GW/leesburg.png,GW/leesburg.png,GW/newhope.png,GW/carmel.png,1.0,,5e2ac2aa0038f21089a533a4
12470,1971.0,directmemory_phase,1061180,blocked,GW/peoria.png,50.0,1.0,0.9565217391304348,GW/gatlinburg.png,GW/hotsprings.png,GW/cornwall.png,GW/hotsprings.png,GW/gatlinburg.png,GW/cornwall.png,1.0,,5e2ac2aa0038f21089a533a4
12472,2543.100000023842,directmemory_phase,1064729,blocked,GW/huntsville.png,49.0,1.0,0.9583333333333334,GW/boulder.png,GW/cornwall.png,GW/hanover.png,GW/boulder.png,GW/hanover.png,GW/cornwall.png,1.0,,5e2ac2aa0038f21089a533a4
12474,3287.100000023842,directmemory_phase,1069022,blocked,GW/racine.png,51.0,1.0,0.96,GW/westpalmbeach.png,GW/newhope.png,GW/cornwall.png,GW/cornwall.png,GW/newhope.png,GW/westpalmbeach.png,1.0,,5e2ac2aa0038f21089a533a4
12476,1814.399999976158,directmemory_phase,1071842,blocked,GW/boulder.png,51.0,0.0,0.9230769230769232,GW/westpalmbeach.png,GW/racine.png,GW/leesburg.png,GW/westpalmbeach.png,GW/leesburg.png,GW/racine.png,0.5,closer,5e2ac2aa0038f21089a533a4
12478,2724.100000023842,directmemory_phase,1075573,blocked,GW/racine.png,51.0,1.0,0.925925925925926,GW/westpalmbeach.png,GW/peoria.png,GW/gatlinburg.png,GW/gatlinburg.png,GW/peoria.png,GW/westpalmbeach.png,1.0,,5e2ac2aa0038f21089a533a4
12480,6325.799999952316,directmemory_phase,1082904,blocked,GW/cornwall.png,50.0,0.0,0.8928571428571429,GW/carmel.png,GW/westpalmbeach.png,GW/hanover.png,GW/hanover.png,GW/westpalmbeach.png,GW/carmel.png,0.5,closer,5e2ac2aa0038f21089a533a4
12482,3454.1999999284744,directmemory_phase,1087365,blocked,GW/gatlinburg.png,49.0,1.0,0.896551724137931,GW/hotsprings.png,GW/leesburg.png,GW/peoria.png,GW/hotsprings.png,GW/peoria.png,GW/leesburg.png,1.0,,5e2ac2aa0038f21089a533a4
12484,5080.399999976158,directmemory_phase,1093452,blocked,GW/hanover.png,51.0,1.0,0.9,GW/peoria.png,GW/huntsville.png,GW/cornwall.png,GW/cornwall.png,GW/huntsville.png,GW/peoria.png,1.0,,5e2ac2aa0038f21089a533a4
12486,1922.899999976158,directmemory_phase,1096382,blocked,GW/gatlinburg.png,49.0,1.0,0.9032258064516128,GW/newhope.png,GW/boulder.png,GW/westpalmbeach.png,GW/newhope.png,GW/westpalmbeach.png,GW/boulder.png,1.0,,5e2ac2aa0038f21089a533a4
12488,1653.100000023842,directmemory_phase,1099042,blocked,GW/shreveport.png,51.0,1.0,0.90625,GW/newhope.png,GW/gatlinburg.png,GW/carmel.png,GW/carmel.png,GW/gatlinburg.png,GW/newhope.png,1.0,,5e2ac2aa0038f21089a533a4
16336,,directmemory_phase,931595,blocked,GW/peoria.png,,0.0,0.0,GW/leesburg.png,GW/westpalmbeach.png,GW/hotsprings.png,GW/leesburg.png,GW/hotsprings.png,GW/westpalmbeach.png,0.0,,56d39b96da2aaa000dab6178
16339,1250.199999999255,directmemory_phase,936858,blocked,GW/shreveport.png,49.0,1.0,0.5,GW/huntsville.png,GW/newhope.png,GW/hotsprings.png,GW/huntsville.png,GW/hotsprings.png,GW/newhope.png,1.0,,56d39b96da2aaa000dab6178
16341,1975.0999999996277,directmemory_phase,939840,blocked,GW/newhope.png,50.0,1.0,0.6666666666666666,GW/peoria.png,GW/hanover.png,GW/cornwall.png,GW/hanover.png,GW/peoria.png,GW/cornwall.png,1.0,,56d39b96da2aaa000dab6178
16343,2630.0999999996275,directmemory_phase,943477,blocked,GW/huntsville.png,49.0,1.0,0.75,GW/carmel.png,GW/racine.png,GW/boulder.png,GW/carmel.png,GW/boulder.png,GW/racine.png,1.0,,56d39b96da2aaa000dab6178
16345,1924.4000000003723,directmemory_phase,946406,blocked,GW/cornwall.png,50.0,1.0,0.8,GW/leesburg.png,GW/peoria.png,GW/huntsville.png,GW/peoria.png,GW/leesburg.png,GW/huntsville.png,1.0,,56d39b96da2aaa000dab6178
16347,1908.2000000001865,directmemory_phase,949320,blocked,GW/hotsprings.png,49.0,1.0,0.8333333333333334,GW/huntsville.png,GW/cornwall.png,GW/peoria.png,GW/huntsville.png,GW/peoria.png,GW/cornwall.png,1.0,,56d39b96da2aaa000dab6178
16349,3705.0,directmemory_phase,954030,blocked,GW/peoria.png,50.0,0.0,0.7142857142857143,GW/carmel.png,GW/racine.png,GW/huntsville.png,GW/carmel.png,GW/huntsville.png,GW/racine.png,0.5,closer,56d39b96da2aaa000dab6178
16351,4424.299999999814,directmemory_phase,959461,blocked,GW/racine.png,51.0,1.0,0.75,GW/gatlinburg.png,GW/westpalmbeach.png,GW/boulder.png,GW/boulder.png,GW/westpalmbeach.png,GW/gatlinburg.png,1.0,,56d39b96da2aaa000dab6178
16353,3313.100000000559,directmemory_phase,963778,blocked,GW/hanover.png,50.0,1.0,0.7777777777777778,GW/leesburg.png,GW/carmel.png,GW/westpalmbeach.png,GW/carmel.png,GW/leesburg.png,GW/westpalmbeach.png,1.0,,56d39b96da2aaa000dab6178
16355,3712.2000000001863,directmemory_phase,968495,blocked,GW/westpalmbeach.png,51.0,1.0,0.8,GW/carmel.png,GW/huntsville.png,GW/boulder.png,GW/boulder.png,GW/huntsville.png,GW/carmel.png,1.0,,56d39b96da2aaa000dab6178
16357,3327.2000000001863,directmemory_phase,972829,blocked,GW/carmel.png,50.0,1.0,0.8181818181818182,GW/cornwall.png,GW/peoria.png,GW/boulder.png,GW/peoria.png,GW/cornwall.png,GW/boulder.png,1.0,,56d39b96da2aaa000dab6178
16359,3621.0,directmemory_phase,977456,blocked,GW/shreveport.png,51.0,0.0,0.75,GW/carmel.png,GW/westpalmbeach.png,GW/hanover.png,GW/westpalmbeach.png,GW/carmel.png,GW/hanover.png,0.5,closer,56d39b96da2aaa000dab6178
16361,3001.5999999996275,directmemory_phase,981465,blocked,GW/peoria.png,50.0,1.0,0.7692307692307693,GW/newhope.png,GW/cornwall.png,GW/racine.png,GW/cornwall.png,GW/newhope.png,GW/racine.png,1.0,,56d39b96da2aaa000dab6178
16363,2192.0,directmemory_phase,984664,blocked,GW/boulder.png,50.0,1.0,0.7857142857142857,GW/huntsville.png,GW/hotsprings.png,GW/hanover.png,GW/hotsprings.png,GW/huntsville.png,GW/hanover.png,1.0,,56d39b96da2aaa000dab6178
16365,3129.0999999996275,directmemory_phase,988800,blocked,GW/carmel.png,50.0,0.0,0.7333333333333333,GW/racine.png,GW/newhope.png,GW/hanover.png,GW/hanover.png,GW/newhope.png,GW/racine.png,0.5,closer,56d39b96da2aaa000dab6178
16367,4241.299999999814,directmemory_phase,994047,blocked,GW/hotsprings.png,51.0,1.0,0.75,GW/hanover.png,GW/shreveport.png,GW/leesburg.png,GW/leesburg.png,GW/shreveport.png,GW/hanover.png,1.0,,56d39b96da2aaa000dab6178
16369,3520.2999999998137,directmemory_phase,998575,blocked,GW/hanover.png,50.0,0.0,0.7058823529411765,GW/hotsprings.png,GW/leesburg.png,GW/peoria.png,GW/peoria.png,GW/leesburg.png,GW/hotsprings.png,0.5,closer,56d39b96da2aaa000dab6178
16371,2874.7000000001863,directmemory_phase,1002454,blocked,GW/huntsville.png,51.0,1.0,0.7222222222222222,GW/racine.png,GW/westpalmbeach.png,GW/hotsprings.png,GW/hotsprings.png,GW/westpalmbeach.png,GW/racine.png,1.0,,56d39b96da2aaa000dab6178
16373,4915.0,directmemory_phase,1008375,blocked,GW/westpalmbeach.png,50.0,0.0,0.6842105263157895,GW/shreveport.png,GW/peoria.png,GW/huntsville.png,GW/shreveport.png,GW/huntsville.png,GW/peoria.png,0.5,closer,56d39b96da2aaa000dab6178
16375,4090.899999999441,directmemory_phase,1013472,blocked,GW/peoria.png,50.0,0.0,0.65,GW/boulder.png,GW/huntsville.png,GW/hanover.png,GW/hanover.png,GW/huntsville.png,GW/boulder.png,0.5,closer,56d39b96da2aaa000dab6178
16377,2569.600000000559,directmemory_phase,1017048,blocked,GW/leesburg.png,51.0,1.0,0.6666666666666666,GW/newhope.png,GW/huntsville.png,GW/carmel.png,GW/carmel.png,GW/huntsville.png,GW/newhope.png,1.0,,56d39b96da2aaa000dab6178
16379,2273.5999999996275,directmemory_phase,1020328,blocked,GW/westpalmbeach.png,50.0,1.0,0.6818181818181818,GW/racine.png,GW/gatlinburg.png,GW/leesburg.png,GW/gatlinburg.png,GW/racine.png,GW/leesburg.png,1.0,,56d39b96da2aaa000dab6178
16381,4656.5,directmemory_phase,1025993,blocked,GW/carmel.png,50.0,0.0,0.6521739130434783,GW/gatlinburg.png,GW/cornwall.png,GW/huntsville.png,GW/huntsville.png,GW/cornwall.png,GW/gatlinburg.png,0.5,closer,56d39b96da2aaa000dab6178
16383,4775.199999999255,directmemory_phase,1031776,blocked,GW/boulder.png,51.0,1.0,0.6666666666666666,GW/carmel.png,GW/huntsville.png,GW/racine.png,GW/racine.png,GW/huntsville.png,GW/carmel.png,1.0,,56d39b96da2aaa000dab6178
16385,4623.5,directmemory_phase,1037406,blocked,GW/carmel.png,51.0,1.0,0.68,GW/boulder.png,GW/cornwall.png,GW/leesburg.png,GW/leesburg.png,GW/cornwall.png,GW/boulder.png,1.0,,56d39b96da2aaa000dab6178
16387,2364.7000000001863,directmemory_phase,1040776,blocked,GW/boulder.png,51.0,1.0,0.6923076923076923,GW/cornwall.png,GW/shreveport.png,GW/westpalmbeach.png,GW/westpalmbeach.png,GW/shreveport.png,GW/cornwall.png,1.0,,56d39b96da2aaa000dab6178
16389,2523.0,directmemory_phase,1044305,blocked,GW/hanover.png,49.0,1.0,0.7037037037037037,GW/newhope.png,GW/shreveport.png,GW/leesburg.png,GW/newhope.png,GW/leesburg.png,GW/shreveport.png,1.0,,56d39b96da2aaa000dab6178
16391,3903.400000000373,directmemory_phase,1049216,blocked,GW/leesburg.png,51.0,1.0,0.7142857142857143,GW/racine.png,GW/cornwall.png,GW/hotsprings.png,GW/hotsprings.png,GW/cornwall.png,GW/racine.png,1.0,,56d39b96da2aaa000dab6178
16393,1369.699999999255,directmemory_phase,1051592,blocked,GW/gatlinburg.png,49.0,1.0,0.7241379310344828,GW/westpalmbeach.png,GW/carmel.png,GW/boulder.png,GW/westpalmbeach.png,GW/boulder.png,GW/carmel.png,1.0,,56d39b96da2aaa000dab6178
16395,3959.7000000001863,directmemory_phase,1056559,blocked,GW/leesburg.png,51.0,1.0,0.7333333333333333,GW/westpalmbeach.png,GW/hanover.png,GW/peoria.png,GW/peoria.png,GW/hanover.png,GW/westpalmbeach.png,1.0,,56d39b96da2aaa000dab6178
16397,2484.600000000559,directmemory_phase,1060050,blocked,GW/hotsprings.png,51.0,1.0,0.7419354838709677,GW/gatlinburg.png,GW/westpalmbeach.png,GW/boulder.png,GW/boulder.png,GW/westpalmbeach.png,GW/gatlinburg.png,1.0,,56d39b96da2aaa000dab6178
16399,1885.5,directmemory_phase,1062944,blocked,GW/huntsville.png,49.0,1.0,0.75,GW/shreveport.png,GW/newhope.png,GW/westpalmbeach.png,GW/shreveport.png,GW/westpalmbeach.png,GW/newhope.png,1.0,,56d39b96da2aaa000dab6178
18286,4308.0,directmemory_phase,1051911,blocked,GW/hanover.png,51.0,1.0,1.0,GW/carmel.png,GW/huntsville.png,GW/gatlinburg.png,GW/gatlinburg.png,GW/huntsville.png,GW/carmel.png,1.0,,5dccb82a76eab294aa4837ff
18288,1724.9000000059605,directmemory_phase,1054643,blocked,GW/newhope.png,50.0,0.0,0.5,GW/peoria.png,GW/cornwall.png,GW/racine.png,GW/racine.png,GW/cornwall.png,GW/peoria.png,0.5,closer,5dccb82a76eab294aa4837ff
18290,5815.9000000059605,directmemory_phase,1061466,blocked,GW/peoria.png,49.0,1.0,0.6666666666666666,GW/hotsprings.png,GW/gatlinburg.png,GW/boulder.png,GW/hotsprings.png,GW/boulder.png,GW/gatlinburg.png,1.0,,5dccb82a76eab294aa4837ff
18292,1344.2999999970198,directmemory_phase,1063831,blocked,GW/carmel.png,51.0,1.0,0.75,GW/westpalmbeach.png,GW/shreveport.png,GW/leesburg.png,GW/leesburg.png,GW/shreveport.png,GW/westpalmbeach.png,1.0,,5dccb82a76eab294aa4837ff
18294,4039.1000000089407,directmemory_phase,1068878,blocked,GW/hanover.png,49.0,1.0,0.8,GW/boulder.png,GW/peoria.png,GW/cornwall.png,GW/boulder.png,GW/cornwall.png,GW/peoria.png,1.0,,5dccb82a76eab294aa4837ff
18296,3548.20000000298,directmemory_phase,1073432,blocked,GW/peoria.png,50.0,1.0,0.8333333333333334,GW/carmel.png,GW/cornwall.png,GW/newhope.png,GW/cornwall.png,GW/carmel.png,GW/newhope.png,1.0,,5dccb82a76eab294aa4837ff
18298,1314.0,directmemory_phase,1075753,blocked,GW/boulder.png,49.0,1.0,0.8571428571428571,GW/hotsprings.png,GW/carmel.png,GW/newhope.png,GW/hotsprings.png,GW/newhope.png,GW/carmel.png,1.0,,5dccb82a76eab294aa4837ff
18300,2119.199999988079,directmemory_phase,1078883,blocked,GW/shreveport.png,51.0,1.0,0.875,GW/racine.png,GW/hotsprings.png,GW/leesburg.png,GW/leesburg.png,GW/hotsprings.png,GW/racine.png,1.0,,5dccb82a76eab294aa4837ff
18302,2053.5,directmemory_phase,1081944,blocked,GW/newhope.png,51.0,1.0,0.8888888888888888,GW/shreveport.png,GW/boulder.png,GW/huntsville.png,GW/huntsville.png,GW/boulder.png,GW/shreveport.png,1.0,,5dccb82a76eab294aa4837ff
18304,5712.5,directmemory_phase,1088667,blocked,GW/leesburg.png,51.0,1.0,0.9,GW/gatlinburg.png,GW/westpalmbeach.png,GW/hotsprings.png,GW/hotsprings.png,GW/westpalmbeach.png,GW/gatlinburg.png,1.0,,5dccb82a76eab294aa4837ff
18306,3903.099999994039,directmemory_phase,1093576,blocked,GW/cornwall.png,49.0,0.0,0.8181818181818182,GW/carmel.png,GW/hanover.png,GW/boulder.png,GW/boulder.png,GW/hanover.png,GW/carmel.png,0.5,closer,5dccb82a76eab294aa4837ff
18308,3055.5999999940395,directmemory_phase,1097639,blocked,GW/shreveport.png,49.0,1.0,0.8333333333333334,GW/peoria.png,GW/boulder.png,GW/carmel.png,GW/peoria.png,GW/carmel.png,GW/boulder.png,1.0,,5dccb82a76eab294aa4837ff
18310,,directmemory_phase,1105145,blocked,GW/newhope.png,,0.0,0.7692307692307693,GW/leesburg.png,GW/gatlinburg.png,GW/hanover.png,GW/hanover.png,GW/gatlinburg.png,GW/leesburg.png,0.0,,5dccb82a76eab294aa4837ff
18313,2616.1000000089407,directmemory_phase,1111778,blocked,GW/peoria.png,50.0,1.0,0.7857142857142857,GW/boulder.png,GW/leesburg.png,GW/hanover.png,GW/leesburg.png,GW/boulder.png,GW/hanover.png,1.0,,5dccb82a76eab294aa4837ff
18315,1675.5999999940395,directmemory_phase,1114460,blocked,GW/hotsprings.png,51.0,1.0,0.8,GW/racine.png,GW/hanover.png,GW/boulder.png,GW/boulder.png,GW/hanover.png,GW/racine.png,1.0,,5dccb82a76eab294aa4837ff
18317,2804.0999999940395,directmemory_phase,1118271,blocked,GW/leesburg.png,51.0,1.0,0.8125,GW/racine.png,GW/cornwall.png,GW/peoria.png,GW/peoria.png,GW/cornwall.png,GW/racine.png,1.0,,5dccb82a76eab294aa4837ff
18319,2365.4000000059605,directmemory_phase,1121643,blocked,GW/racine.png,50.0,0.0,0.7647058823529411,GW/cornwall.png,GW/shreveport.png,GW/hanover.png,GW/cornwall.png,GW/hanover.png,GW/shreveport.png,0.5,closer,5dccb82a76eab294aa4837ff
18321,2045.0,directmemory_phase,1124695,blocked,GW/hotsprings.png,51.0,1.0,0.7777777777777778,GW/newhope.png,GW/cornwall.png,GW/leesburg.png,GW/leesburg.png,GW/cornwall.png,GW/newhope.png,1.0,,5dccb82a76eab294aa4837ff
18323,1301.8999999910593,directmemory_phase,1127004,blocked,GW/huntsville.png,50.0,1.0,0.7894736842105263,GW/racine.png,GW/newhope.png,GW/cornwall.png,GW/newhope.png,GW/racine.png,GW/cornwall.png,1.0,,5dccb82a76eab294aa4837ff
18325,2112.9000000059605,directmemory_phase,1130131,blocked,GW/hotsprings.png,49.0,1.0,0.8,GW/peoria.png,GW/huntsville.png,GW/hanover.png,GW/peoria.png,GW/hanover.png,GW/huntsville.png,1.0,,5dccb82a76eab294aa4837ff
18327,2212.8999999910593,directmemory_phase,1133347,blocked,GW/westpalmbeach.png,50.0,1.0,0.8095238095238095,GW/leesburg.png,GW/shreveport.png,GW/racine.png,GW/shreveport.png,GW/leesburg.png,GW/racine.png,1.0,,5dccb82a76eab294aa4837ff
18329,1373.5,directmemory_phase,1135724,blocked,GW/gatlinburg.png,51.0,1.0,0.8181818181818182,GW/leesburg.png,GW/boulder.png,GW/hanover.png,GW/hanover.png,GW/boulder.png,GW/leesburg.png,1.0,,5dccb82a76eab294aa4837ff
18331,2288.5,directmemory_phase,1139019,blocked,GW/peoria.png,49.0,0.0,0.782608695652174,GW/hanover.png,GW/racine.png,GW/shreveport.png,GW/shreveport.png,GW/racine.png,GW/hanover.png,0.5,closer,5dccb82a76eab294aa4837ff
18333,2614.6000000089407,directmemory_phase,1142641,blocked,GW/boulder.png,49.0,0.0,0.75,GW/shreveport.png,GW/peoria.png,GW/cornwall.png,GW/cornwall.png,GW/peoria.png,GW/shreveport.png,0.5,closer,5dccb82a76eab294aa4837ff
18335,2165.6000000089407,directmemory_phase,1145814,blocked,GW/racine.png,50.0,0.0,0.72,GW/newhope.png,GW/shreveport.png,GW/peoria.png,GW/newhope.png,GW/peoria.png,GW/shreveport.png,0.5,closer,5dccb82a76eab294aa4837ff
18337,2359.79999999702,directmemory_phase,1149181,blocked,GW/cornwall.png,49.0,1.0,0.7307692307692307,GW/peoria.png,GW/carmel.png,GW/hanover.png,GW/peoria.png,GW/hanover.png,GW/carmel.png,1.0,,5dccb82a76eab294aa4837ff
18339,2127.3999999910593,directmemory_phase,1152315,blocked,GW/shreveport.png,49.0,0.0,0.7037037037037037,GW/cornwall.png,GW/westpalmbeach.png,GW/hanover.png,GW/westpalmbeach.png,GW/cornwall.png,GW/hanover.png,0.5,closer,5dccb82a76eab294aa4837ff
18341,2405.29999999702,directmemory_phase,1155731,blocked,GW/hanover.png,50.0,1.0,0.7142857142857143,GW/cornwall.png,GW/newhope.png,GW/shreveport.png,GW/newhope.png,GW/cornwall.png,GW/shreveport.png,1.0,,5dccb82a76eab294aa4837ff
18343,1783.0,directmemory_phase,1158522,blocked,GW/leesburg.png,49.0,0.0,0.6896551724137931,GW/newhope.png,GW/westpalmbeach.png,GW/carmel.png,GW/carmel.png,GW/westpalmbeach.png,GW/newhope.png,0.5,closer,5dccb82a76eab294aa4837ff
18345,1948.0,directmemory_phase,1161478,blocked,GW/boulder.png,51.0,1.0,0.7,GW/westpalmbeach.png,GW/racine.png,GW/hanover.png,GW/hanover.png,GW/racine.png,GW/westpalmbeach.png,1.0,,5dccb82a76eab294aa4837ff
18347,1585.7999999970198,directmemory_phase,1164071,blocked,GW/leesburg.png,49.0,1.0,0.7096774193548387,GW/shreveport.png,GW/newhope.png,GW/boulder.png,GW/shreveport.png,GW/boulder.png,GW/newhope.png,1.0,,5dccb82a76eab294aa4837ff
18349,2114.9000000059605,directmemory_phase,1167193,blocked,GW/cornwall.png,51.0,0.0,0.6875,GW/racine.png,GW/gatlinburg.png,GW/newhope.png,GW/racine.png,GW/newhope.png,GW/gatlinburg.png,0.5,closer,5dccb82a76eab294aa4837ff
20253,,directmemory_phase,1351166,blocked,GW/racine.png,,0.0,0.0,GW/carmel.png,GW/shreveport.png,GW/cornwall.png,GW/cornwall.png,GW/shreveport.png,GW/carmel.png,0.0,,644b1e452a0061d713dcbf4a
20256,2324.900000002235,directmemory_phase,1357499,blocked,GW/shreveport.png,51.0,0.0,0.0,GW/hanover.png,GW/newhope.png,GW/peoria.png,GW/hanover.png,GW/peoria.png,GW/newhope.png,0.5,closer,644b1e452a0061d713dcbf4a
20258,3343.300000000745,directmemory_phase,1361850,blocked,GW/cornwall.png,50.0,1.0,0.3333333333333333,GW/gatlinburg.png,GW/leesburg.png,GW/westpalmbeach.png,GW/leesburg.png,GW/gatlinburg.png,GW/westpalmbeach.png,1.0,,644b1e452a0061d713dcbf4a
20260,2059.300000000745,directmemory_phase,1364915,blocked,GW/racine.png,51.0,1.0,0.5,GW/peoria.png,GW/shreveport.png,GW/gatlinburg.png,GW/gatlinburg.png,GW/shreveport.png,GW/peoria.png,1.0,,644b1e452a0061d713dcbf4a
20262,1698.800000000745,directmemory_phase,1367620,blocked,GW/westpalmbeach.png,51.0,1.0,0.6,GW/racine.png,GW/huntsville.png,GW/peoria.png,GW/peoria.png,GW/huntsville.png,GW/racine.png,1.0,,644b1e452a0061d713dcbf4a
20264,2188.400000002235,directmemory_phase,1370812,blocked,GW/leesburg.png,49.0,1.0,0.6666666666666666,GW/boulder.png,GW/hotsprings.png,GW/hanover.png,GW/boulder.png,GW/hanover.png,GW/hotsprings.png,1.0,,644b1e452a0061d713dcbf4a
20266,2677.20000000298,directmemory_phase,1374492,blocked,GW/cornwall.png,49.0,0.0,0.5714285714285714,GW/shreveport.png,GW/gatlinburg.png,GW/newhope.png,GW/newhope.png,GW/gatlinburg.png,GW/shreveport.png,0.5,closer,644b1e452a0061d713dcbf4a
20268,3046.60000000149,directmemory_phase,1378544,blocked,GW/racine.png,49.0,1.0,0.625,GW/hotsprings.png,GW/carmel.png,GW/newhope.png,GW/hotsprings.png,GW/newhope.png,GW/carmel.png,1.0,,644b1e452a0061d713dcbf4a
20270,2104.0,directmemory_phase,1381652,blocked,GW/hanover.png,51.0,1.0,0.6666666666666666,GW/hotsprings.png,GW/carmel.png,GW/shreveport.png,GW/shreveport.png,GW/carmel.png,GW/hotsprings.png,1.0,,644b1e452a0061d713dcbf4a
20272,1128.699999999255,directmemory_phase,1383786,blocked,GW/hotsprings.png,51.0,1.0,0.7,GW/hanover.png,GW/cornwall.png,GW/racine.png,GW/racine.png,GW/cornwall.png,GW/hanover.png,1.0,,644b1e452a0061d713dcbf4a
20274,2015.199999999255,directmemory_phase,1386805,blocked,GW/leesburg.png,49.0,1.0,0.7272727272727273,GW/cornwall.png,GW/huntsville.png,GW/newhope.png,GW/cornwall.png,GW/newhope.png,GW/huntsville.png,1.0,,644b1e452a0061d713dcbf4a
20276,1451.699999999255,directmemory_phase,1389260,blocked,GW/boulder.png,51.0,1.0,0.75,GW/carmel.png,GW/racine.png,GW/hanover.png,GW/hanover.png,GW/racine.png,GW/carmel.png,1.0,,644b1e452a0061d713dcbf4a
20278,1557.10000000149,directmemory_phase,1391821,blocked,GW/cornwall.png,51.0,1.0,0.7692307692307693,GW/hanover.png,GW/hotsprings.png,GW/racine.png,GW/racine.png,GW/hotsprings.png,GW/hanover.png,1.0,,644b1e452a0061d713dcbf4a
20280,1218.5,directmemory_phase,1394044,blocked,GW/huntsville.png,51.0,1.0,0.7857142857142857,GW/boulder.png,GW/hanover.png,GW/peoria.png,GW/peoria.png,GW/hanover.png,GW/boulder.png,1.0,,644b1e452a0061d713dcbf4a
20282,1694.89999999851,directmemory_phase,1396754,blocked,GW/shreveport.png,51.0,1.0,0.8,GW/huntsville.png,GW/peoria.png,GW/gatlinburg.png,GW/gatlinburg.png,GW/peoria.png,GW/huntsville.png,1.0,,644b1e452a0061d713dcbf4a
20284,1338.39999999851,directmemory_phase,1399102,blocked,GW/westpalmbeach.png,51.0,1.0,0.8125,GW/leesburg.png,GW/gatlinburg.png,GW/carmel.png,GW/carmel.png,GW/gatlinburg.png,GW/leesburg.png,1.0,,644b1e452a0061d713dcbf4a
20286,2527.60000000149,directmemory_phase,1402636,blocked,GW/gatlinburg.png,49.0,1.0,0.8235294117647058,GW/boulder.png,GW/newhope.png,GW/westpalmbeach.png,GW/boulder.png,GW/westpalmbeach.png,GW/newhope.png,1.0,,644b1e452a0061d713dcbf4a
20288,2512.300000000745,directmemory_phase,1406163,blocked,GW/shreveport.png,51.0,0.0,0.7777777777777778,GW/westpalmbeach.png,GW/hotsprings.png,GW/boulder.png,GW/westpalmbeach.png,GW/boulder.png,GW/hotsprings.png,0.5,closer,644b1e452a0061d713dcbf4a
20290,2089.10000000149,directmemory_phase,1409259,blocked,GW/boulder.png,49.0,1.0,0.7894736842105263,GW/gatlinburg.png,GW/carmel.png,GW/racine.png,GW/gatlinburg.png,GW/racine.png,GW/carmel.png,1.0,,644b1e452a0061d713dcbf4a
20292,1089.5,directmemory_phase,1411355,blocked,GW/carmel.png,51.0,1.0,0.8,GW/boulder.png,GW/hanover.png,GW/westpalmbeach.png,GW/westpalmbeach.png,GW/hanover.png,GW/boulder.png,1.0,,644b1e452a0061d713dcbf4a
20294,1616.7999999970198,directmemory_phase,1413981,blocked,GW/gatlinburg.png,49.0,1.0,0.8095238095238095,GW/shreveport.png,GW/huntsville.png,GW/westpalmbeach.png,GW/shreveport.png,GW/westpalmbeach.png,GW/huntsville.png,1.0,,644b1e452a0061d713dcbf4a
20296,2096.0,directmemory_phase,1417082,blocked,GW/peoria.png,49.0,1.0,0.8181818181818182,GW/westpalmbeach.png,GW/cornwall.png,GW/carmel.png,GW/westpalmbeach.png,GW/carmel.png,GW/cornwall.png,1.0,,644b1e452a0061d713dcbf4a
20298,1516.199999999255,directmemory_phase,1419603,blocked,GW/hanover.png,51.0,1.0,0.8260869565217391,GW/racine.png,GW/leesburg.png,GW/boulder.png,GW/boulder.png,GW/leesburg.png,GW/racine.png,1.0,,644b1e452a0061d713dcbf4a
20300,1644.4000000022352,directmemory_phase,1422252,blocked,GW/westpalmbeach.png,51.0,1.0,0.8333333333333334,GW/racine.png,GW/gatlinburg.png,GW/shreveport.png,GW/shreveport.png,GW/gatlinburg.png,GW/racine.png,1.0,,644b1e452a0061d713dcbf4a
20302,2423.400000002235,directmemory_phase,1425680,blocked,GW/hanover.png,49.0,0.0,0.8,GW/huntsville.png,GW/peoria.png,GW/cornwall.png,GW/peoria.png,GW/huntsville.png,GW/cornwall.png,0.5,closer,644b1e452a0061d713dcbf4a
20304,1728.300000000745,directmemory_phase,1428420,blocked,GW/boulder.png,50.0,0.0,0.7692307692307693,GW/carmel.png,GW/peoria.png,GW/leesburg.png,GW/leesburg.png,GW/peoria.png,GW/carmel.png,0.5,closer,644b1e452a0061d713dcbf4a
20306,2212.599999997765,directmemory_phase,1431635,blocked,GW/westpalmbeach.png,49.0,1.0,0.7777777777777778,GW/hanover.png,GW/racine.png,GW/gatlinburg.png,GW/hanover.png,GW/gatlinburg.png,GW/racine.png,1.0,,644b1e452a0061d713dcbf4a
20308,2637.699999999255,directmemory_phase,1435276,blocked,GW/gatlinburg.png,51.0,1.0,0.7857142857142857,GW/peoria.png,GW/cornwall.png,GW/racine.png,GW/racine.png,GW/cornwall.png,GW/peoria.png,1.0,,644b1e452a0061d713dcbf4a
20310,2038.300000000745,directmemory_phase,1438319,blocked,GW/peoria.png,49.0,1.0,0.7931034482758621,GW/hanover.png,GW/leesburg.png,GW/carmel.png,GW/hanover.png,GW/carmel.png,GW/leesburg.png,1.0,,644b1e452a0061d713dcbf4a
20312,1133.39999999851,directmemory_phase,1440460,blocked,GW/newhope.png,51.0,1.0,0.8,GW/gatlinburg.png,GW/racine.png,GW/cornwall.png,GW/cornwall.png,GW/racine.png,GW/gatlinburg.png,1.0,,644b1e452a0061d713dcbf4a
20314,1909.89999999851,directmemory_phase,1443374,blocked,GW/hanover.png,51.0,1.0,0.8064516129032258,GW/racine.png,GW/carmel.png,GW/westpalmbeach.png,GW/westpalmbeach.png,GW/carmel.png,GW/racine.png,1.0,,644b1e452a0061d713dcbf4a
20316,1523.699999999255,directmemory_phase,1445903,blocked,GW/peoria.png,51.0,1.0,0.8125,GW/gatlinburg.png,GW/boulder.png,GW/huntsville.png,GW/huntsville.png,GW/boulder.png,GW/gatlinburg.png,1.0,,644b1e452a0061d713dcbf4a
22204,3448.0,directmemory_phase,1294676,blocked,GW/newhope.png,50.0,1.0,1.0,GW/hotsprings.png,GW/carmel.png,GW/gatlinburg.png,GW/carmel.png,GW/hotsprings.png,GW/gatlinburg.png,1.0,,626976d0dfd20d6832fc92aa
22206,4733.699999928474,directmemory_phase,1300412,blocked,GW/hotsprings.png,49.0,1.0,1.0,GW/leesburg.png,GW/westpalmbeach.png,GW/boulder.png,GW/leesburg.png,GW/boulder.png,GW/westpalmbeach.png,1.0,,626976d0dfd20d6832fc92aa
22208,3509.2999999523163,directmemory_phase,1304924,blocked,GW/cornwall.png,49.0,1.0,1.0,GW/racine.png,GW/carmel.png,GW/shreveport.png,GW/racine.png,GW/shreveport.png,GW/carmel.png,1.0,,626976d0dfd20d6832fc92aa
22210,2397.2999999523163,directmemory_phase,1308324,blocked,GW/shreveport.png,51.0,1.0,1.0,GW/boulder.png,GW/leesburg.png,GW/hotsprings.png,GW/hotsprings.png,GW/leesburg.png,GW/boulder.png,1.0,,626976d0dfd20d6832fc92aa
22212,3845.899999976158,directmemory_phase,1313172,blocked,GW/newhope.png,51.0,1.0,1.0,GW/leesburg.png,GW/hanover.png,GW/westpalmbeach.png,GW/westpalmbeach.png,GW/hanover.png,GW/leesburg.png,1.0,,626976d0dfd20d6832fc92aa
22214,3404.899999976158,directmemory_phase,1317580,blocked,GW/hotsprings.png,51.0,1.0,1.0,GW/westpalmbeach.png,GW/huntsville.png,GW/peoria.png,GW/peoria.png,GW/huntsville.png,GW/westpalmbeach.png,1.0,,626976d0dfd20d6832fc92aa
22216,2309.2999999523163,directmemory_phase,1320892,blocked,GW/huntsville.png,51.0,1.0,1.0,GW/boulder.png,GW/hanover.png,GW/newhope.png,GW/newhope.png,GW/hanover.png,GW/boulder.png,1.0,,626976d0dfd20d6832fc92aa
22218,,directmemory_phase,1328396,blocked,GW/leesburg.png,,0.0,0.875,GW/shreveport.png,GW/cornwall.png,GW/newhope.png,GW/cornwall.png,GW/shreveport.png,GW/newhope.png,0.0,,626976d0dfd20d6832fc92aa
22221,1844.7000000476835,directmemory_phase,1334244,blocked,GW/carmel.png,51.0,1.0,0.8888888888888888,GW/leesburg.png,GW/peoria.png,GW/newhope.png,GW/newhope.png,GW/peoria.png,GW/leesburg.png,1.0,,626976d0dfd20d6832fc92aa
22223,2069.1999999284744,directmemory_phase,1337316,blocked,GW/racine.png,49.0,1.0,0.9,GW/cornwall.png,GW/hotsprings.png,GW/gatlinburg.png,GW/cornwall.png,GW/gatlinburg.png,GW/hotsprings.png,1.0,,626976d0dfd20d6832fc92aa
22225,2389.0,directmemory_phase,1340707,blocked,GW/peoria.png,51.0,1.0,0.9090909090909092,GW/gatlinburg.png,GW/westpalmbeach.png,GW/hotsprings.png,GW/hotsprings.png,GW/westpalmbeach.png,GW/gatlinburg.png,1.0,,626976d0dfd20d6832fc92aa
22227,1789.7999999523165,directmemory_phase,1343499,blocked,GW/cornwall.png,49.0,1.0,0.9166666666666666,GW/gatlinburg.png,GW/peoria.png,GW/boulder.png,GW/gatlinburg.png,GW/boulder.png,GW/peoria.png,1.0,,626976d0dfd20d6832fc92aa
22229,1909.8000000715256,directmemory_phase,1346411,blocked,GW/newhope.png,51.0,1.0,0.9230769230769232,GW/cornwall.png,GW/hanover.png,GW/peoria.png,GW/peoria.png,GW/hanover.png,GW/cornwall.png,1.0,,626976d0dfd20d6832fc92aa
22231,3165.1999999284744,directmemory_phase,1350579,blocked,GW/shreveport.png,50.0,0.0,0.8571428571428571,GW/westpalmbeach.png,GW/peoria.png,GW/huntsville.png,GW/huntsville.png,GW/peoria.png,GW/westpalmbeach.png,0.5,closer,626976d0dfd20d6832fc92aa
22233,3036.399999976158,directmemory_phase,1354619,blocked,GW/westpalmbeach.png,49.0,1.0,0.8666666666666667,GW/newhope.png,GW/hotsprings.png,GW/huntsville.png,GW/newhope.png,GW/huntsville.png,GW/hotsprings.png,1.0,,626976d0dfd20d6832fc92aa
22235,4189.400000095367,directmemory_phase,1359811,blocked,GW/huntsville.png,49.0,1.0,0.875,GW/carmel.png,GW/boulder.png,GW/hotsprings.png,GW/carmel.png,GW/hotsprings.png,GW/boulder.png,1.0,,626976d0dfd20d6832fc92aa
22237,2029.100000023842,directmemory_phase,1362843,blocked,GW/shreveport.png,50.0,1.0,0.8823529411764706,GW/leesburg.png,GW/gatlinburg.png,GW/westpalmbeach.png,GW/gatlinburg.png,GW/leesburg.png,GW/westpalmbeach.png,1.0,,626976d0dfd20d6832fc92aa
22239,3557.100000023842,directmemory_phase,1367403,blocked,GW/cornwall.png,50.0,1.0,0.8888888888888888,GW/boulder.png,GW/leesburg.png,GW/peoria.png,GW/leesburg.png,GW/boulder.png,GW/peoria.png,1.0,,626976d0dfd20d6832fc92aa
22241,2245.100000023842,directmemory_phase,1370651,blocked,GW/hotsprings.png,49.0,1.0,0.8947368421052632,GW/shreveport.png,GW/hanover.png,GW/boulder.png,GW/shreveport.png,GW/boulder.png,GW/hanover.png,1.0,,626976d0dfd20d6832fc92aa
22243,2252.899999976158,directmemory_phase,1373907,blocked,GW/hanover.png,50.0,1.0,0.9,GW/huntsville.png,GW/carmel.png,GW/shreveport.png,GW/carmel.png,GW/huntsville.png,GW/shreveport.png,1.0,,626976d0dfd20d6832fc92aa
22245,3973.100000023842,directmemory_phase,1378883,blocked,GW/huntsville.png,49.0,1.0,0.9047619047619048,GW/shreveport.png,GW/cornwall.png,GW/hotsprings.png,GW/shreveport.png,GW/hotsprings.png,GW/cornwall.png,1.0,,626976d0dfd20d6832fc92aa
22247,3725.399999976158,directmemory_phase,1383611,blocked,GW/leesburg.png,50.0,0.0,0.8636363636363636,GW/boulder.png,GW/newhope.png,GW/peoria.png,GW/boulder.png,GW/peoria.png,GW/newhope.png,0.5,closer,626976d0dfd20d6832fc92aa
22249,2901.0,directmemory_phase,1387515,blocked,GW/gatlinburg.png,51.0,1.0,0.8695652173913043,GW/peoria.png,GW/huntsville.png,GW/cornwall.png,GW/cornwall.png,GW/huntsville.png,GW/peoria.png,1.0,,626976d0dfd20d6832fc92aa
22251,3173.2999999523163,directmemory_phase,1391691,blocked,GW/boulder.png,51.0,1.0,0.875,GW/huntsville.png,GW/cornwall.png,GW/leesburg.png,GW/leesburg.png,GW/cornwall.png,GW/huntsville.png,1.0,,626976d0dfd20d6832fc92aa
22253,3773.700000047684,directmemory_phase,1396467,blocked,GW/huntsville.png,51.0,1.0,0.88,GW/leesburg.png,GW/gatlinburg.png,GW/peoria.png,GW/peoria.png,GW/gatlinburg.png,GW/leesburg.png,1.0,,626976d0dfd20d6832fc92aa
22255,2541.5,directmemory_phase,1400011,blocked,GW/gatlinburg.png,49.0,1.0,0.8846153846153846,GW/shreveport.png,GW/hanover.png,GW/racine.png,GW/shreveport.png,GW/racine.png,GW/hanover.png,1.0,,626976d0dfd20d6832fc92aa
22257,3407.5,directmemory_phase,1404421,blocked,GW/peoria.png,49.0,1.0,0.8888888888888888,GW/huntsville.png,GW/racine.png,GW/leesburg.png,GW/huntsville.png,GW/leesburg.png,GW/racine.png,1.0,,626976d0dfd20d6832fc92aa
22259,2579.0,directmemory_phase,1408002,blocked,GW/carmel.png,50.0,1.0,0.8928571428571429,GW/shreveport.png,GW/hanover.png,GW/leesburg.png,GW/hanover.png,GW/shreveport.png,GW/leesburg.png,1.0,,626976d0dfd20d6832fc92aa
22261,3292.899999976158,directmemory_phase,1412298,blocked,GW/newhope.png,50.0,1.0,0.896551724137931,GW/hanover.png,GW/huntsville.png,GW/gatlinburg.png,GW/huntsville.png,GW/hanover.png,GW/gatlinburg.png,1.0,,626976d0dfd20d6832fc92aa
22263,3580.600000023842,directmemory_phase,1416882,blocked,GW/leesburg.png,49.0,1.0,0.9,GW/hotsprings.png,GW/newhope.png,GW/peoria.png,GW/hotsprings.png,GW/peoria.png,GW/newhope.png,1.0,,626976d0dfd20d6832fc92aa
22265,3181.1999999284744,directmemory_phase,1421066,blocked,GW/peoria.png,49.0,1.0,0.9032258064516128,GW/newhope.png,GW/hanover.png,GW/leesburg.png,GW/newhope.png,GW/leesburg.png,GW/hanover.png,1.0,,626976d0dfd20d6832fc92aa
22267,3613.399999976158,directmemory_phase,1425682,blocked,GW/carmel.png,49.0,1.0,0.90625,GW/huntsville.png,GW/gatlinburg.png,GW/shreveport.png,GW/huntsville.png,GW/shreveport.png,GW/gatlinburg.png,1.0,,626976d0dfd20d6832fc92aa
26111,1901.899999976158,directmemory_phase,1127523,blocked,GW/cornwall.png,50.0,1.0,1.0,GW/carmel.png,GW/hotsprings.png,GW/shreveport.png,GW/hotsprings.png,GW/carmel.png,GW/shreveport.png,1.0,,65d563ecf8df20ade2f17888
26113,2480.600000023842,directmemory_phase,1131012,blocked,GW/gatlinburg.png,49.0,1.0,1.0,GW/racine.png,GW/newhope.png,GW/westpalmbeach.png,GW/racine.png,GW/westpalmbeach.png,GW/newhope.png,1.0,,65d563ecf8df20ade2f17888
26115,2286.100000023842,directmemory_phase,1134304,blocked,GW/huntsville.png,50.0,1.0,1.0,GW/carmel.png,GW/hotsprings.png,GW/peoria.png,GW/hotsprings.png,GW/carmel.png,GW/peoria.png,1.0,,65d563ecf8df20ade2f17888
26117,5386.799999952316,directmemory_phase,1140701,blocked,GW/peoria.png,49.0,1.0,1.0,GW/gatlinburg.png,GW/newhope.png,GW/hanover.png,GW/gatlinburg.png,GW/hanover.png,GW/newhope.png,1.0,,65d563ecf8df20ade2f17888
26119,,directmemory_phase,1148212,blocked,GW/newhope.png,,0.0,0.8,GW/shreveport.png,GW/westpalmbeach.png,GW/huntsville.png,GW/huntsville.png,GW/westpalmbeach.png,GW/shreveport.png,0.0,,65d563ecf8df20ade2f17888
26122,1676.600000023842,directmemory_phase,1153907,blocked,GW/hanover.png,50.0,0.0,0.6666666666666666,GW/hotsprings.png,GW/carmel.png,GW/cornwall.png,GW/hotsprings.png,GW/cornwall.png,GW/carmel.png,0.5,closer,65d563ecf8df20ade2f17888
26124,2395.5,directmemory_phase,1157312,blocked,GW/leesburg.png,51.0,1.0,0.7142857142857143,GW/hanover.png,GW/newhope.png,GW/huntsville.png,GW/huntsville.png,GW/newhope.png,GW/hanover.png,1.0,,65d563ecf8df20ade2f17888
26126,2140.0,directmemory_phase,1160466,blocked,GW/newhope.png,51.0,0.0,0.625,GW/carmel.png,GW/shreveport.png,GW/hanover.png,GW/carmel.png,GW/hanover.png,GW/shreveport.png,0.5,closer,65d563ecf8df20ade2f17888
26128,2223.7999999523163,directmemory_phase,1163700,blocked,GW/peoria.png,49.0,0.0,0.5555555555555556,GW/carmel.png,GW/boulder.png,GW/shreveport.png,GW/shreveport.png,GW/boulder.png,GW/carmel.png,0.5,closer,65d563ecf8df20ade2f17888
26130,1767.600000023842,directmemory_phase,1166478,blocked,GW/hotsprings.png,50.0,0.0,0.5,GW/hanover.png,GW/peoria.png,GW/boulder.png,GW/hanover.png,GW/boulder.png,GW/peoria.png,0.5,closer,65d563ecf8df20ade2f17888
26132,2360.0,directmemory_phase,1169845,blocked,GW/westpalmbeach.png,51.0,1.0,0.5454545454545454,GW/huntsville.png,GW/boulder.png,GW/peoria.png,GW/peoria.png,GW/boulder.png,GW/huntsville.png,1.0,,65d563ecf8df20ade2f17888
26134,2482.0,directmemory_phase,1173334,blocked,GW/hotsprings.png,49.0,1.0,0.5833333333333334,GW/newhope.png,GW/shreveport.png,GW/carmel.png,GW/newhope.png,GW/carmel.png,GW/shreveport.png,1.0,,65d563ecf8df20ade2f17888
26136,2761.899999976158,directmemory_phase,1177104,blocked,GW/westpalmbeach.png,50.0,0.0,0.5384615384615384,GW/racine.png,GW/shreveport.png,GW/hanover.png,GW/hanover.png,GW/shreveport.png,GW/racine.png,0.5,closer,65d563ecf8df20ade2f17888
26138,3190.2999999523163,directmemory_phase,1181310,blocked,GW/newhope.png,50.0,0.0,0.5,GW/gatlinburg.png,GW/hanover.png,GW/hotsprings.png,GW/hotsprings.png,GW/hanover.png,GW/gatlinburg.png,0.5,closer,65d563ecf8df20ade2f17888
26140,1584.600000023842,directmemory_phase,1183901,blocked,GW/racine.png,50.0,1.0,0.5333333333333333,GW/boulder.png,GW/gatlinburg.png,GW/hotsprings.png,GW/gatlinburg.png,GW/boulder.png,GW/hotsprings.png,1.0,,65d563ecf8df20ade2f17888
26142,2682.100000023842,directmemory_phase,1187592,blocked,GW/carmel.png,51.0,0.0,0.5,GW/newhope.png,GW/hanover.png,GW/cornwall.png,GW/newhope.png,GW/cornwall.png,GW/hanover.png,0.5,closer,65d563ecf8df20ade2f17888
26144,1976.100000023842,directmemory_phase,1190574,blocked,GW/cornwall.png,50.0,1.0,0.5294117647058824,GW/huntsville.png,GW/westpalmbeach.png,GW/boulder.png,GW/westpalmbeach.png,GW/huntsville.png,GW/boulder.png,1.0,,65d563ecf8df20ade2f17888
26146,2403.899999976158,directmemory_phase,1193981,blocked,GW/gatlinburg.png,49.0,1.0,0.5555555555555556,GW/peoria.png,GW/huntsville.png,GW/westpalmbeach.png,GW/peoria.png,GW/westpalmbeach.png,GW/huntsville.png,1.0,,65d563ecf8df20ade2f17888
26148,4076.700000047684,directmemory_phase,1199064,blocked,GW/hotsprings.png,50.0,0.0,0.5263157894736842,GW/cornwall.png,GW/shreveport.png,GW/boulder.png,GW/cornwall.png,GW/boulder.png,GW/shreveport.png,0.5,closer,65d563ecf8df20ade2f17888
26150,2173.5,directmemory_phase,1202246,blocked,GW/peoria.png,51.0,1.0,0.55,GW/carmel.png,GW/racine.png,GW/westpalmbeach.png,GW/westpalmbeach.png,GW/racine.png,GW/carmel.png,1.0,,65d563ecf8df20ade2f17888
26152,2965.0,directmemory_phase,1206217,blocked,GW/newhope.png,50.0,0.0,0.5238095238095238,GW/gatlinburg.png,GW/hanover.png,GW/cornwall.png,GW/cornwall.png,GW/hanover.png,GW/gatlinburg.png,0.5,closer,65d563ecf8df20ade2f17888
26154,2646.400000095367,directmemory_phase,1209870,blocked,GW/gatlinburg.png,51.0,1.0,0.5454545454545454,GW/hotsprings.png,GW/shreveport.png,GW/boulder.png,GW/boulder.png,GW/shreveport.png,GW/hotsprings.png,1.0,,65d563ecf8df20ade2f17888
26156,3366.100000023842,directmemory_phase,1214239,blocked,GW/cornwall.png,51.0,1.0,0.5652173913043478,GW/boulder.png,GW/hanover.png,GW/newhope.png,GW/newhope.png,GW/hanover.png,GW/boulder.png,1.0,,65d563ecf8df20ade2f17888
26158,2874.899999976158,directmemory_phase,1218121,blocked,GW/huntsville.png,51.0,1.0,0.5833333333333334,GW/gatlinburg.png,GW/carmel.png,GW/leesburg.png,GW/leesburg.png,GW/carmel.png,GW/gatlinburg.png,1.0,,65d563ecf8df20ade2f17888
26160,2816.0,directmemory_phase,1221945,blocked,GW/westpalmbeach.png,51.0,1.0,0.6,GW/leesburg.png,GW/gatlinburg.png,GW/cornwall.png,GW/cornwall.png,GW/gatlinburg.png,GW/leesburg.png,1.0,,65d563ecf8df20ade2f17888
26162,2386.100000023842,directmemory_phase,1225337,blocked,GW/hanover.png,49.0,1.0,0.6153846153846154,GW/boulder.png,GW/carmel.png,GW/gatlinburg.png,GW/boulder.png,GW/gatlinburg.png,GW/carmel.png,1.0,,65d563ecf8df20ade2f17888
26164,3751.700000047684,directmemory_phase,1230092,blocked,GW/shreveport.png,50.0,0.0,0.5925925925925926,GW/peoria.png,GW/hotsprings.png,GW/westpalmbeach.png,GW/peoria.png,GW/westpalmbeach.png,GW/hotsprings.png,0.5,closer,65d563ecf8df20ade2f17888
26166,1644.0,directmemory_phase,1232739,blocked,GW/boulder.png,51.0,1.0,0.6071428571428571,GW/huntsville.png,GW/peoria.png,GW/gatlinburg.png,GW/gatlinburg.png,GW/peoria.png,GW/huntsville.png,1.0,,65d563ecf8df20ade2f17888
26168,2780.399999976158,directmemory_phase,1236532,blocked,GW/hanover.png,49.0,1.0,0.6206896551724138,GW/westpalmbeach.png,GW/carmel.png,GW/cornwall.png,GW/westpalmbeach.png,GW/cornwall.png,GW/carmel.png,1.0,,65d563ecf8df20ade2f17888
26170,2498.100000023842,directmemory_phase,1240039,blocked,GW/hotsprings.png,51.0,1.0,0.6333333333333333,GW/peoria.png,GW/boulder.png,GW/huntsville.png,GW/huntsville.png,GW/boulder.png,GW/peoria.png,1.0,,65d563ecf8df20ade2f17888
26172,2888.8000000715256,directmemory_phase,1243933,blocked,GW/boulder.png,49.0,1.0,0.6451612903225806,GW/hanover.png,GW/huntsville.png,GW/hotsprings.png,GW/hanover.png,GW/hotsprings.png,GW/huntsville.png,1.0,,65d563ecf8df20ade2f17888
26174,3798.399999976158,directmemory_phase,1248736,blocked,GW/huntsville.png,50.0,0.0,0.625,GW/newhope.png,GW/peoria.png,GW/hanover.png,GW/newhope.png,GW/hanover.png,GW/peoria.png,0.5,closer,65d563ecf8df20ade2f17888
27086,3474.0,directmemory_phase,1141580,blocked,GW/huntsville.png,51.0,1.0,1.0,GW/newhope.png,GW/cornwall.png,GW/carmel.png,GW/carmel.png,GW/cornwall.png,GW/newhope.png,1.0,,6604cdce9c02df4997ec8b68
27088,2995.0,directmemory_phase,1145585,blocked,GW/hotsprings.png,51.0,1.0,1.0,GW/boulder.png,GW/cornwall.png,GW/racine.png,GW/racine.png,GW/cornwall.png,GW/boulder.png,1.0,,6604cdce9c02df4997ec8b68
27090,4780.000000000233,directmemory_phase,1151376,blocked,GW/carmel.png,51.0,1.0,1.0,GW/shreveport.png,GW/leesburg.png,GW/hanover.png,GW/hanover.png,GW/leesburg.png,GW/shreveport.png,1.0,,6604cdce9c02df4997ec8b68
27092,3247.000000000233,directmemory_phase,1155636,blocked,GW/huntsville.png,49.0,1.0,1.0,GW/peoria.png,GW/gatlinburg.png,GW/hanover.png,GW/peoria.png,GW/hanover.png,GW/gatlinburg.png,1.0,,6604cdce9c02df4997ec8b68
27094,5599.0,directmemory_phase,1162246,blocked,GW/cornwall.png,50.0,0.0,0.8,GW/boulder.png,GW/huntsville.png,GW/gatlinburg.png,GW/gatlinburg.png,GW/huntsville.png,GW/boulder.png,0.5,closer,6604cdce9c02df4997ec8b68
27096,,directmemory_phase,1169759,blocked,GW/carmel.png,,0.0,0.6666666666666666,GW/hotsprings.png,GW/leesburg.png,GW/huntsville.png,GW/huntsville.png,GW/leesburg.png,GW/hotsprings.png,0.0,,6604cdce9c02df4997ec8b68
27099,2069.0,directmemory_phase,1175842,blocked,GW/shreveport.png,50.0,1.0,0.7142857142857143,GW/gatlinburg.png,GW/hotsprings.png,GW/hanover.png,GW/hotsprings.png,GW/gatlinburg.png,GW/hanover.png,1.0,,6604cdce9c02df4997ec8b68
27101,1527.0,directmemory_phase,1178381,blocked,GW/newhope.png,49.0,1.0,0.75,GW/racine.png,GW/shreveport.png,GW/westpalmbeach.png,GW/racine.png,GW/westpalmbeach.png,GW/shreveport.png,1.0,,6604cdce9c02df4997ec8b68
27103,2192.0,directmemory_phase,1181582,blocked,GW/gatlinburg.png,51.0,1.0,0.7777777777777778,GW/leesburg.png,GW/carmel.png,GW/hotsprings.png,GW/hotsprings.png,GW/carmel.png,GW/leesburg.png,1.0,,6604cdce9c02df4997ec8b68
27105,3474.0,directmemory_phase,1186067,blocked,GW/racine.png,49.0,1.0,0.8,GW/newhope.png,GW/hanover.png,GW/cornwall.png,GW/newhope.png,GW/cornwall.png,GW/hanover.png,1.0,,6604cdce9c02df4997ec8b68
27107,1440.0,directmemory_phase,1188517,blocked,GW/leesburg.png,49.0,1.0,0.8181818181818182,GW/huntsville.png,GW/boulder.png,GW/carmel.png,GW/huntsville.png,GW/carmel.png,GW/boulder.png,1.0,,6604cdce9c02df4997ec8b68
27109,2967.0,directmemory_phase,1192495,blocked,GW/newhope.png,49.0,1.0,0.8333333333333334,GW/cornwall.png,GW/leesburg.png,GW/peoria.png,GW/cornwall.png,GW/peoria.png,GW/leesburg.png,1.0,,6604cdce9c02df4997ec8b68
27111,2838.0,directmemory_phase,1196345,blocked,GW/carmel.png,51.0,1.0,0.8461538461538461,GW/racine.png,GW/gatlinburg.png,GW/boulder.png,GW/boulder.png,GW/gatlinburg.png,GW/racine.png,1.0,,6604cdce9c02df4997ec8b68
27113,4168.0,directmemory_phase,1201522,blocked,GW/peoria.png,49.0,1.0,0.8571428571428571,GW/cornwall.png,GW/hotsprings.png,GW/boulder.png,GW/cornwall.png,GW/boulder.png,GW/hotsprings.png,1.0,,6604cdce9c02df4997ec8b68
27115,3180.0,directmemory_phase,1205713,blocked,GW/boulder.png,50.0,0.0,0.8,GW/hotsprings.png,GW/peoria.png,GW/carmel.png,GW/carmel.png,GW/peoria.png,GW/hotsprings.png,0.5,closer,6604cdce9c02df4997ec8b68
27117,3125.0,directmemory_phase,1209848,blocked,GW/westpalmbeach.png,50.0,0.0,0.75,GW/racine.png,GW/hanover.png,GW/newhope.png,GW/racine.png,GW/newhope.png,GW/hanover.png,0.5,closer,6604cdce9c02df4997ec8b68
27119,2459.0,directmemory_phase,1213318,blocked,GW/carmel.png,51.0,1.0,0.7647058823529411,GW/hotsprings.png,GW/leesburg.png,GW/peoria.png,GW/peoria.png,GW/leesburg.png,GW/hotsprings.png,1.0,,6604cdce9c02df4997ec8b68
27121,1680.0,directmemory_phase,1216007,blocked,GW/racine.png,51.0,1.0,0.7777777777777778,GW/peoria.png,GW/gatlinburg.png,GW/hotsprings.png,GW/hotsprings.png,GW/gatlinburg.png,GW/peoria.png,1.0,,6604cdce9c02df4997ec8b68
27123,3100.0,directmemory_phase,1220115,blocked,GW/gatlinburg.png,50.0,0.0,0.7368421052631579,GW/boulder.png,GW/carmel.png,GW/cornwall.png,GW/cornwall.png,GW/carmel.png,GW/boulder.png,0.5,closer,6604cdce9c02df4997ec8b68
27125,2702.0,directmemory_phase,1223828,blocked,GW/hanover.png,50.0,1.0,0.75,GW/cornwall.png,GW/peoria.png,GW/newhope.png,GW/peoria.png,GW/cornwall.png,GW/newhope.png,1.0,,6604cdce9c02df4997ec8b68
27127,2310.0,directmemory_phase,1227147,blocked,GW/hotsprings.png,50.0,1.0,0.7619047619047619,GW/cornwall.png,GW/gatlinburg.png,GW/carmel.png,GW/gatlinburg.png,GW/cornwall.png,GW/carmel.png,1.0,,6604cdce9c02df4997ec8b68
27129,3341.0,directmemory_phase,1231501,blocked,GW/cornwall.png,50.0,0.0,0.7272727272727273,GW/boulder.png,GW/carmel.png,GW/peoria.png,GW/peoria.png,GW/carmel.png,GW/boulder.png,0.5,closer,6604cdce9c02df4997ec8b68
27131,2733.999999999767,directmemory_phase,1235246,blocked,GW/gatlinburg.png,49.0,1.0,0.7391304347826086,GW/hanover.png,GW/boulder.png,GW/newhope.png,GW/hanover.png,GW/newhope.png,GW/boulder.png,1.0,,6604cdce9c02df4997ec8b68
27133,2468.0,directmemory_phase,1238724,blocked,GW/cornwall.png,49.0,1.0,0.75,GW/newhope.png,GW/leesburg.png,GW/carmel.png,GW/newhope.png,GW/carmel.png,GW/leesburg.png,1.0,,6604cdce9c02df4997ec8b68
27135,1537.0,directmemory_phase,1241272,blocked,GW/hotsprings.png,51.0,1.0,0.76,GW/peoria.png,GW/newhope.png,GW/shreveport.png,GW/shreveport.png,GW/newhope.png,GW/peoria.png,1.0,,6604cdce9c02df4997ec8b68
27137,1560.9999999997672,directmemory_phase,1243842,blocked,GW/peoria.png,50.0,0.0,0.7307692307692307,GW/hotsprings.png,GW/leesburg.png,GW/hanover.png,GW/hanover.png,GW/leesburg.png,GW/hotsprings.png,0.5,closer,6604cdce9c02df4997ec8b68
27139,2150.0,directmemory_phase,1247003,blocked,GW/huntsville.png,49.0,1.0,0.7407407407407407,GW/leesburg.png,GW/hotsprings.png,GW/boulder.png,GW/leesburg.png,GW/boulder.png,GW/hotsprings.png,1.0,,6604cdce9c02df4997ec8b68
27141,1969.0,directmemory_phase,1249984,blocked,GW/peoria.png,50.0,1.0,0.75,GW/leesburg.png,GW/carmel.png,GW/racine.png,GW/carmel.png,GW/leesburg.png,GW/racine.png,1.0,,6604cdce9c02df4997ec8b68
27143,1271.0,directmemory_phase,1252264,blocked,GW/hanover.png,51.0,1.0,0.7586206896551724,GW/westpalmbeach.png,GW/cornwall.png,GW/gatlinburg.png,GW/gatlinburg.png,GW/cornwall.png,GW/westpalmbeach.png,1.0,,6604cdce9c02df4997ec8b68
27145,3711.0,directmemory_phase,1256987,blocked,GW/peoria.png,51.0,1.0,0.7666666666666667,GW/shreveport.png,GW/gatlinburg.png,GW/huntsville.png,GW/huntsville.png,GW/gatlinburg.png,GW/shreveport.png,1.0,,6604cdce9c02df4997ec8b68
27147,3701.0,directmemory_phase,1261698,blocked,GW/hanover.png,51.0,0.0,0.7419354838709677,GW/carmel.png,GW/shreveport.png,GW/cornwall.png,GW/carmel.png,GW/cornwall.png,GW/shreveport.png,0.5,closer,6604cdce9c02df4997ec8b68
27149,3263.0,directmemory_phase,1265972,blocked,GW/racine.png,51.0,0.0,0.71875,GW/westpalmbeach.png,GW/carmel.png,GW/gatlinburg.png,GW/westpalmbeach.png,GW/gatlinburg.png,GW/carmel.png,0.5,closer,6604cdce9c02df4997ec8b68
30988,3145.2000000001863,directmemory_phase,1079661,blocked,GW/leesburg.png,51.0,1.0,1.0,GW/hanover.png,GW/westpalmbeach.png,GW/hotsprings.png,GW/hotsprings.png,GW/westpalmbeach.png,GW/hanover.png,1.0,,6841f4329a9deda70eae9ed4
30990,3373.0,directmemory_phase,1084044,blocked,GW/westpalmbeach.png,49.0,0.0,0.5,GW/cornwall.png,GW/shreveport.png,GW/newhope.png,GW/shreveport.png,GW/cornwall.png,GW/newhope.png,0.5,closer,6841f4329a9deda70eae9ed4
30992,4092.2999999998137,directmemory_phase,1089143,blocked,GW/boulder.png,49.0,1.0,0.6666666666666666,GW/hanover.png,GW/huntsville.png,GW/westpalmbeach.png,GW/hanover.png,GW/westpalmbeach.png,GW/huntsville.png,1.0,,6841f4329a9deda70eae9ed4
30994,3114.0,directmemory_phase,1093265,blocked,GW/shreveport.png,50.0,0.0,0.5,GW/racine.png,GW/cornwall.png,GW/westpalmbeach.png,GW/westpalmbeach.png,GW/cornwall.png,GW/racine.png,0.5,closer,6841f4329a9deda70eae9ed4
30996,2769.7000000001863,directmemory_phase,1097044,blocked,GW/huntsville.png,51.0,1.0,0.6,GW/westpalmbeach.png,GW/carmel.png,GW/peoria.png,GW/peoria.png,GW/carmel.png,GW/westpalmbeach.png,1.0,,6841f4329a9deda70eae9ed4
30998,3134.0999999996275,directmemory_phase,1101185,blocked,GW/westpalmbeach.png,51.0,1.0,0.6666666666666666,GW/huntsville.png,GW/peoria.png,GW/hanover.png,GW/hanover.png,GW/peoria.png,GW/huntsville.png,1.0,,6841f4329a9deda70eae9ed4
31000,3053.7000000001863,directmemory_phase,1105246,blocked,GW/leesburg.png,50.0,0.0,0.5714285714285714,GW/peoria.png,GW/gatlinburg.png,GW/cornwall.png,GW/cornwall.png,GW/gatlinburg.png,GW/peoria.png,0.5,closer,6841f4329a9deda70eae9ed4
31002,1956.9000000003723,directmemory_phase,1108220,blocked,GW/hanover.png,51.0,1.0,0.625,GW/leesburg.png,GW/gatlinburg.png,GW/westpalmbeach.png,GW/westpalmbeach.png,GW/gatlinburg.png,GW/leesburg.png,1.0,,6841f4329a9deda70eae9ed4
31004,2065.7000000001863,directmemory_phase,1111293,blocked,GW/shreveport.png,51.0,0.0,0.5555555555555556,GW/leesburg.png,GW/peoria.png,GW/cornwall.png,GW/leesburg.png,GW/cornwall.png,GW/peoria.png,0.5,closer,6841f4329a9deda70eae9ed4
31006,1610.300000000745,directmemory_phase,1113912,blocked,GW/peoria.png,49.0,1.0,0.6,GW/hanover.png,GW/cornwall.png,GW/racine.png,GW/hanover.png,GW/racine.png,GW/cornwall.png,1.0,,6841f4329a9deda70eae9ed4
31008,3114.5,directmemory_phase,1118034,blocked,GW/westpalmbeach.png,51.0,1.0,0.6363636363636364,GW/racine.png,GW/cornwall.png,GW/gatlinburg.png,GW/gatlinburg.png,GW/cornwall.png,GW/racine.png,1.0,,6841f4329a9deda70eae9ed4
31010,2308.5,directmemory_phase,1121350,blocked,GW/hanover.png,49.0,0.0,0.5833333333333334,GW/hotsprings.png,GW/huntsville.png,GW/peoria.png,GW/peoria.png,GW/huntsville.png,GW/hotsprings.png,0.5,closer,6841f4329a9deda70eae9ed4
31012,4452.200000000186,directmemory_phase,1126812,blocked,GW/gatlinburg.png,50.0,1.0,0.6153846153846154,GW/newhope.png,GW/westpalmbeach.png,GW/peoria.png,GW/westpalmbeach.png,GW/newhope.png,GW/peoria.png,1.0,,6841f4329a9deda70eae9ed4
31014,1702.8999999994412,directmemory_phase,1129522,blocked,GW/peoria.png,50.0,1.0,0.6428571428571429,GW/racine.png,GW/huntsville.png,GW/leesburg.png,GW/huntsville.png,GW/racine.png,GW/leesburg.png,1.0,,6841f4329a9deda70eae9ed4
31016,2526.2999999998137,directmemory_phase,1133059,blocked,GW/gatlinburg.png,50.0,1.0,0.6666666666666666,GW/shreveport.png,GW/boulder.png,GW/hotsprings.png,GW/boulder.png,GW/shreveport.png,GW/hotsprings.png,1.0,,6841f4329a9deda70eae9ed4
31018,4785.9000000003725,directmemory_phase,1138853,blocked,GW/hotsprings.png,51.0,0.0,0.625,GW/leesburg.png,GW/boulder.png,GW/shreveport.png,GW/leesburg.png,GW/shreveport.png,GW/boulder.png,0.5,closer,6841f4329a9deda70eae9ed4
31020,2136.5999999996275,directmemory_phase,1141997,blocked,GW/gatlinburg.png,51.0,1.0,0.6470588235294118,GW/racine.png,GW/hanover.png,GW/cornwall.png,GW/cornwall.png,GW/hanover.png,GW/racine.png,1.0,,6841f4329a9deda70eae9ed4
31022,4424.600000000559,directmemory_phase,1147429,blocked,GW/boulder.png,51.0,1.0,0.6666666666666666,GW/hotsprings.png,GW/westpalmbeach.png,GW/carmel.png,GW/carmel.png,GW/westpalmbeach.png,GW/hotsprings.png,1.0,,6841f4329a9deda70eae9ed4
31024,1641.0,directmemory_phase,1150078,blocked,GW/newhope.png,51.0,1.0,0.6842105263157895,GW/westpalmbeach.png,GW/gatlinburg.png,GW/cornwall.png,GW/cornwall.png,GW/gatlinburg.png,GW/westpalmbeach.png,1.0,,6841f4329a9deda70eae9ed4
31026,4554.700000000186,directmemory_phase,1155640,blocked,GW/carmel.png,50.0,0.0,0.65,GW/shreveport.png,GW/westpalmbeach.png,GW/peoria.png,GW/peoria.png,GW/westpalmbeach.png,GW/shreveport.png,0.5,closer,6841f4329a9deda70eae9ed4
31028,2377.899999999441,directmemory_phase,1159025,blocked,GW/hanover.png,50.0,0.0,0.6190476190476191,GW/newhope.png,GW/shreveport.png,GW/boulder.png,GW/boulder.png,GW/shreveport.png,GW/newhope.png,0.5,closer,6841f4329a9deda70eae9ed4
31030,1742.2999999998135,directmemory_phase,1161776,blocked,GW/carmel.png,50.0,0.0,0.5909090909090909,GW/newhope.png,GW/westpalmbeach.png,GW/racine.png,GW/racine.png,GW/westpalmbeach.png,GW/newhope.png,0.5,closer,6841f4329a9deda70eae9ed4
31032,4655.200000000186,directmemory_phase,1167438,blocked,GW/leesburg.png,49.0,0.0,0.5652173913043478,GW/gatlinburg.png,GW/shreveport.png,GW/hanover.png,GW/shreveport.png,GW/gatlinburg.png,GW/hanover.png,0.5,closer,6841f4329a9deda70eae9ed4
31034,2105.7999999998137,directmemory_phase,1170552,blocked,GW/hanover.png,49.0,1.0,0.5833333333333334,GW/carmel.png,GW/cornwall.png,GW/racine.png,GW/carmel.png,GW/racine.png,GW/cornwall.png,1.0,,6841f4329a9deda70eae9ed4
31036,1511.300000000745,directmemory_phase,1173071,blocked,GW/cornwall.png,50.0,1.0,0.6,GW/shreveport.png,GW/gatlinburg.png,GW/carmel.png,GW/gatlinburg.png,GW/shreveport.png,GW/carmel.png,1.0,,6841f4329a9deda70eae9ed4
31038,1783.7000000001865,directmemory_phase,1175862,blocked,GW/carmel.png,50.0,1.0,0.6153846153846154,GW/huntsville.png,GW/boulder.png,GW/cornwall.png,GW/boulder.png,GW/huntsville.png,GW/cornwall.png,1.0,,6841f4329a9deda70eae9ed4
31040,2910.9000000003725,directmemory_phase,1179781,blocked,GW/cornwall.png,49.0,1.0,0.6296296296296297,GW/leesburg.png,GW/carmel.png,GW/westpalmbeach.png,GW/leesburg.png,GW/westpalmbeach.png,GW/carmel.png,1.0,,6841f4329a9deda70eae9ed4
31042,2630.5,directmemory_phase,1183419,blocked,GW/carmel.png,49.0,1.0,0.6428571428571429,GW/hanover.png,GW/leesburg.png,GW/gatlinburg.png,GW/hanover.png,GW/gatlinburg.png,GW/leesburg.png,1.0,,6841f4329a9deda70eae9ed4
31044,2539.7000000001863,directmemory_phase,1186966,blocked,GW/cornwall.png,49.0,1.0,0.6551724137931034,GW/newhope.png,GW/racine.png,GW/hotsprings.png,GW/newhope.png,GW/hotsprings.png,GW/racine.png,1.0,,6841f4329a9deda70eae9ed4
