rt,responses,trial_type,time_elapsed,stimulus,cities,city_images,button_pressed,response,key_press,stimulus_left,stimulus_right,accuracy,cumulative_accuracy,stimulus_down_left,stimulus_down_mid,stimulus_down_right,stimulus_correct,stimulus_short,stimulus_far,weighted_accuracy,missedtrial,condition,specific_pairs,imgL_ID,imgR_ID,linedress,linedressed,image_position,unknowncity,testedstates,currentstate,otherstate,problems,smooth,distraction,strategies,easier,similar,comments,Unnamed: 40,Unnamed: 41,city_type,detectfocus,partid,age
256848.5,{worker_id:67cf70ec9741a100ffc7f570},id_enter,256856,intro,Gatlinburg; Boulder; Shreveport; Carmel; Racine; Peoria; Huntsville; Hanover; Leesburg; Cornwall; New Hope; Hot Springs; West Palm Beach,US_Cities_List/nat_gatlinburg.png; US_Cities_List/mm_boulder.png; US_Cities_List/mm_shreveport.png; US_Cities_List/mm_carmel.png; US_Cities_List/nat_racine.png; US_Cities_List/nat_peoria.png; US_Cities_List/nat_huntsville.png; US_Cities_List/nat_hanover.png; US_Cities_List/mm_leesburg.png; US_Cities_List/nat_cornwall.png; US_Cities_List/nat_newhope.png; US_Cities_List/mm_hotsprings.png; US_Cities_List/mm_westpalmbeach.png,,,,,,,,,,,,,,,,,,,,,,,,,,,,,,,,,,,,US,,67cf70ec9741a100ffc7f570,old
1802463.6,,fullscreen,2059339,make_fullscreen,,,0.0,,,,,,,,,,,,,,,,,,,,,,,,,,,,,,,,,,,US,,67cf70ec9741a100ffc7f570,old
14881.9,,intro_1,2074239,instruct,,,0.0,,,,,,,,,,,,,,,,,,,,,,,,,,,,,,,,,,,US,,67cf70ec9741a100ffc7f570,old
18990.9,,intro_2,2093238,instruct,,,1.0,Next,,,,,,,,,,,,,,,,,,,,,,,,,,,,,,,,,,US,,67cf70ec9741a100ffc7f570,old
17460.5,,intro_3,2110702,instruct,,,1.0,Next,,,,,,,,,,,,,,,,,,,,,,,,,,,,,,,,,,US,,67cf70ec9741a100ffc7f570,old
30715.7,,intro_4,2141422,instruct,,,1.0,Next,,,,,,,,,,,,,,,,,,,,,,,,,,,,,,,,,,US,,67cf70ec9741a100ffc7f570,old
11197.4,,intro_5,2152623,instruct,,,1.0,Next,,,,,,,,,,,,,,,,,,,,,,,,,,,,,,,,,,US,,67cf70ec9741a100ffc7f570,old
48212.5,,intro_6,2200840,instruct,,,1.0,Next,,,,,,,,,,,,,,,,,,,,,,,,,,,,,,,,,,US,,67cf70ec9741a100ffc7f570,old
,,prac_atten_color_black,2201217,black_plus_sign,,,,,,,,,,,,,,,,,,,,,,,,,,,,,,,,,,,,,,US,,67cf70ec9741a100ffc7f570,old
523.7,,prac_atten_color,2202248,prac_stop_color,,,,,49.0,,,,,,,,,,,,,,,,,,,,,,,,,,,,,,,,,US,,67cf70ec9741a100ffc7f570,old
,,prac_atten_color_black,2204252,black_plus_sign,,,,,,,,,,,,,,,,,,,,,,,,,,,,,,,,,,,,,,US,,67cf70ec9741a100ffc7f570,old
,,prac_atten_color_black,2204629,black_plus_sign,,,,,,,,,,,,,,,,,,,,,,,,,,,,,,,,,,,,,,US,,67cf70ec9741a100ffc7f570,old
,,prac_atten_color,2205210,prac_stop_color,,,,,,,,,,,,,,,,,,,,,,,,,,,,,,,,,,,,,,US,,67cf70ec9741a100ffc7f570,old
87.4,,prac_atten_color_black,2207213,black_plus_sign,,,,,50.0,,,,,,,,,,,,,,,,,,,,,,,,,,,,,,,,,US,,67cf70ec9741a100ffc7f570,old
,,prac_atten_color_black,2208040,black_plus_sign,,,,,,,,,,,,,,,,,,,,,,,,,,,,,,,,,,,,,,US,,67cf70ec9741a100ffc7f570,old
452.6,,prac_atten_color,2209017,prac_stop_color,,,,,50.0,,,,,,,,,,,,,,,,,,,,,,,,,,,,,,,,,US,,67cf70ec9741a100ffc7f570,old
,,prac_atten_color_black,2211020,black_plus_sign,,,,,,,,,,,,,,,,,,,,,,,,,,,,,,,,,,,,,,US,,67cf70ec9741a100ffc7f570,old
,,prac_atten_color_black,2211449,black_plus_sign,,,,,,,,,,,,,,,,,,,,,,,,,,,,,,,,,,,,,,US,,67cf70ec9741a100ffc7f570,old
,,prac_atten_color,2211957,prac_stop_color,,,,,,,,,,,,,,,,,,,,,,,,,,,,,,,,,,,,,,US,,67cf70ec9741a100ffc7f570,old
275.6,,prac_atten_color_black,2213961,black_plus_sign,,,,,49.0,,,,,,,,,,,,,,,,,,,,,,,,,,,,,,,,,US,,67cf70ec9741a100ffc7f570,old
,,prac_atten_color_black,2214861,black_plus_sign,,,,,,,,,,,,,,,,,,,,,,,,,,,,,,,,,,,,,,US,,67cf70ec9741a100ffc7f570,old
602.2,,prac_atten_color,2215933,prac_stop_color,,,,,50.0,,,,,,,,,,,,,,,,,,,,,,,,,,,,,,,,,US,,67cf70ec9741a100ffc7f570,old
,,prac_atten_color_black,2217937,black_plus_sign,,,,,,,,,,,,,,,,,,,,,,,,,,,,,,,,,,,,,,US,,67cf70ec9741a100ffc7f570,old
,,prac_atten_color_black,2218270,black_plus_sign,,,,,,,,,,,,,,,,,,,,,,,,,,,,,,,,,,,,,,US,,67cf70ec9741a100ffc7f570,old
,,prac_atten_color,2218775,prac_stop_color,,,,,,,,,,,,,,,,,,,,,,,,,,,,,,,,,,,,,,US,,67cf70ec9741a100ffc7f570,old
18.7,,prac_atten_color_black,2220779,black_plus_sign,,,,,50.0,,,,,,,,,,,,,,,,,,,,,,,,,,,,,,,,,US,,67cf70ec9741a100ffc7f570,old
,,prac_atten_color_black,2221688,black_plus_sign,,,,,,,,,,,,,,,,,,,,,,,,,,,,,,,,,,,,,,US,,67cf70ec9741a100ffc7f570,old
,,prac_atten_color,2222150,prac_stop_color,,,,,,,,,,,,,,,,,,,,,,,,,,,,,,,,,,,,,,US,,67cf70ec9741a100ffc7f570,old
37.90000001,,prac_atten_color_black,2224153,black_plus_sign,,,,,49.0,,,,,,,,,,,,,,,,,,,,,,,,,,,,,,,,,US,,67cf70ec9741a100ffc7f570,old
,,prac_atten_color_black,2225099,black_plus_sign,,,,,,,,,,,,,,,,,,,,,,,,,,,,,,,,,,,,,,US,,67cf70ec9741a100ffc7f570,old
549.4,,prac_atten_color,2226172,prac_stop_color,,,,,50.0,,,,,,,,,,,,,,,,,,,,,,,,,,,,,,,,,US,,67cf70ec9741a100ffc7f570,old
,,prac_atten_color_black,2228174,black_plus_sign,,,,,,,,,,,,,,,,,,,,,,,,,,,,,,,,,,,,,,US,,67cf70ec9741a100ffc7f570,old
,,prac_atten_color_black,2228507,black_plus_sign,,,,,,,,,,,,,,,,,,,,,,,,,,,,,,,,,,,,,,US,,67cf70ec9741a100ffc7f570,old
,,prac_atten_color,2228911,prac_stop_color,,,,,,,,,,,,,,,,,,,,,,,,,,,,,,,,,,,,,,US,,67cf70ec9741a100ffc7f570,old
116.2,,prac_atten_color_black,2230913,black_plus_sign,,,,,49.0,,,,,,,,,,,,,,,,,,,,,,,,,,,,,,,,,US,,67cf70ec9741a100ffc7f570,old
,,prac_atten_color_black,2231917,black_plus_sign,,,,,,,,,,,,,,,,,,,,,,,,,,,,,,,,,,,,,,US,,67cf70ec9741a100ffc7f570,old
497.6,,prac_atten_color,2232557,prac_stop_color,,,,,49.0,,,,,,,,,,,,,,,,,,,,,,,,,,,,,,,,,US,,67cf70ec9741a100ffc7f570,old
,,prac_atten_color_black,2234560,black_plus_sign,,,,,,,,,,,,,,,,,,,,,,,,,,,,,,,,,,,,,,US,,67cf70ec9741a100ffc7f570,old
13199.1,,attentioncheck_feedback,2247763,cross_check_feedback,,,0.0,,,,,,,,,,,,,,,,,,,,,,,,,,,,,,,,,,,US,,67cf70ec9741a100ffc7f570,old
15962.1,,last_instruct,2263728,instruct,,,,,32.0,,,,,,,,,,,,,,,,,,,,,,,,,,,,,,,,,US,,67cf70ec9741a100ffc7f570,old
,,learn_phase(without_color),2265798,black_plus_sign,,,,,,US_Cities_List/nat_hanover.png,US_Cities_List/mm_leesburg.png,,,,,,,,,,,,,,,,,,,,,,,,,,,,,,,US,,67cf70ec9741a100ffc7f570,old
,,black_cross(without_color),2266829,blue,,,,,,US_Cities_List/nat_hanover.png,US_Cities_List/mm_leesburg.png,,,,,,,,,,,,,,,,,,,,,,,,,,,,,,,US,,67cf70ec9741a100ffc7f570,old
,,rt_plussign_withcolor,2267333,blue,,,,,,US_Cities_List/nat_hanover.png,US_Cities_List/mm_leesburg.png,,,,,,,,,,,,,,,,,,,,,,,,,,,,,,,US,,67cf70ec9741a100ffc7f570,old
899.2,,rt_thecrossant_black,2268309,black_plus_sign,,,,,49.0,,,1.0,1.0,,,,,,,,,,,,,,,,,,,,,,,,,,,,,US,,67cf70ec9741a100ffc7f570,old
,,color_black,2268413,black_plus_sign,,,,,,,,,,,,,,,,,,,,,,,,,,,,,,,,,,,,,,US,,67cf70ec9741a100ffc7f570,old
,,learn_phase(without_color),2271013,black_plus_sign,,,,,,US_Cities_List/mm_shreveport.png,US_Cities_List/nat_peoria.png,,,,,,,,,,,,,,,,,,,,,,,,,,,,,,,US,,67cf70ec9741a100ffc7f570,old
,,black_cross(without_color),2271591,green,,,,,,US_Cities_List/mm_shreveport.png,US_Cities_List/nat_peoria.png,,,,,,,,,,,,,,,,,,,,,,,,,,,,,,,US,,67cf70ec9741a100ffc7f570,old
471.7,,rt_plussign_withcolor,2272093,green,,,,,50.0,US_Cities_List/mm_shreveport.png,US_Cities_List/nat_peoria.png,,,,,,,,,,,,,,,,,,,,,,,,,,,,,,,US,,67cf70ec9741a100ffc7f570,old
,,rt_thecrossant_black,2273523,black_plus_sign,,,,,,,,1.0,1.0,,,,,,,,,,,,,,,,,,,,,,,,,,,,,US,,67cf70ec9741a100ffc7f570,old
,,color_black,2273626,black_plus_sign,,,,,,,,,,,,,,,,,,,,,,,,,,,,,,,,,,,,,,US,,67cf70ec9741a100ffc7f570,old
,,learn_phase(without_color),2276216,black_plus_sign,,,,,,US_Cities_List/mm_carmel.png,US_Cities_List/mm_hotsprings.png,,,,,,,,,,,,,,,,,,,,,,,,,,,,,,,US,,67cf70ec9741a100ffc7f570,old
,,black_cross(without_color),2277259,green,,,,,,US_Cities_List/mm_carmel.png,US_Cities_List/mm_hotsprings.png,,,,,,,,,,,,,,,,,,,,,,,,,,,,,,,US,,67cf70ec9741a100ffc7f570,old
,,rt_plussign_withcolor,2277762,green,,,,,,US_Cities_List/mm_carmel.png,US_Cities_List/mm_hotsprings.png,,,,,,,,,,,,,,,,,,,,,,,,,,,,,,,US,,67cf70ec9741a100ffc7f570,old
807.9,,rt_thecrossant_black,2278726,black_plus_sign,,,,,50.0,,,1.0,1.0,,,,,,,,,,,,,,,,,,,,,,,,,,,,,US,,67cf70ec9741a100ffc7f570,old
,,color_black,2278829,black_plus_sign,,,,,,,,,,,,,,,,,,,,,,,,,,,,,,,,,,,,,,US,,67cf70ec9741a100ffc7f570,old
,,learn_phase(without_color),2281413,black_plus_sign,,,,,,US_Cities_List/mm_shreveport.png,US_Cities_List/nat_peoria.png,,,,,,,,,,,,,,,,,,,,,,,,,,,,,,,US,,67cf70ec9741a100ffc7f570,old
,,black_cross(without_color),2281846,blue,,,,,,US_Cities_List/mm_shreveport.png,US_Cities_List/nat_peoria.png,,,,,,,,,,,,,,,,,,,,,,,,,,,,,,,US,,67cf70ec9741a100ffc7f570,old
,,rt_plussign_withcolor,2282349,blue,,,,,,US_Cities_List/mm_shreveport.png,US_Cities_List/nat_peoria.png,,,,,,,,,,,,,,,,,,,,,,,,,,,,,,,US,,67cf70ec9741a100ffc7f570,old
1426.6,,rt_thecrossant_black,2283923,black_plus_sign,,,,,49.0,,,1.0,1.0,,,,,,,,,,,,,,,,,,,,,,,,,,,,,US,,67cf70ec9741a100ffc7f570,old
,,color_black,2284026,black_plus_sign,,,,,,,,,,,,,,,,,,,,,,,,,,,,,,,,,,,,,,US,,67cf70ec9741a100ffc7f570,old
,,learn_phase(without_color),2286621,black_plus_sign,,,,,,US_Cities_List/nat_peoria.png,US_Cities_List/nat_huntsville.png,,,,,,,,,,,,,,,,,,,,,,,,,,,,,,,US,,67cf70ec9741a100ffc7f570,old
,,black_cross(without_color),2287336,blue,,,,,,US_Cities_List/nat_peoria.png,US_Cities_List/nat_huntsville.png,,,,,,,,,,,,,,,,,,,,,,,,,,,,,,,US,,67cf70ec9741a100ffc7f570,old
,,rt_plussign_withcolor,2287839,blue,,,,,,US_Cities_List/nat_peoria.png,US_Cities_List/nat_huntsville.png,,,,,,,,,,,,,,,,,,,,,,,,,,,,,,,US,,67cf70ec9741a100ffc7f570,old
865.2,,rt_thecrossant_black,2289146,black_plus_sign,,,,,49.0,,,1.0,1.0,,,,,,,,,,,,,,,,,,,,,,,,,,,,,US,,67cf70ec9741a100ffc7f570,old
,,color_black,2289249,black_plus_sign,,,,,,,,,,,,,,,,,,,,,,,,,,,,,,,,,,,,,,US,,67cf70ec9741a100ffc7f570,old
,,learn_phase(without_color),2291833,black_plus_sign,,,,,,US_Cities_List/mm_boulder.png,US_Cities_List/mm_carmel.png,,,,,,,,,,,,,,,,,,,,,,,,,,,,,,,US,,67cf70ec9741a100ffc7f570,old
,,black_cross(without_color),2292755,blue,,,,,,US_Cities_List/mm_boulder.png,US_Cities_List/mm_carmel.png,,,,,,,,,,,,,,,,,,,,,,,,,,,,,,,US,,67cf70ec9741a100ffc7f570,old
,,rt_plussign_withcolor,2293258,blue,,,,,,US_Cities_List/mm_boulder.png,US_Cities_List/mm_carmel.png,,,,,,,,,,,,,,,,,,,,,,,,,,,,,,,US,,67cf70ec9741a100ffc7f570,old
916.6,,rt_thecrossant_black,2294342,black_plus_sign,,,,,49.0,,,1.0,1.0,,,,,,,,,,,,,,,,,,,,,,,,,,,,,US,,67cf70ec9741a100ffc7f570,old
,,color_black,2294446,black_plus_sign,,,,,,,,,,,,,,,,,,,,,,,,,,,,,,,,,,,,,,US,,67cf70ec9741a100ffc7f570,old
,,learn_phase(without_color),2297027,black_plus_sign,,,,,,US_Cities_List/mm_leesburg.png,US_Cities_List/nat_newhope.png,,,,,,,,,,,,,,,,,,,,,,,,,,,,,,,US,,67cf70ec9741a100ffc7f570,old
,,black_cross(without_color),2297959,blue,,,,,,US_Cities_List/mm_leesburg.png,US_Cities_List/nat_newhope.png,,,,,,,,,,,,,,,,,,,,,,,,,,,,,,,US,,67cf70ec9741a100ffc7f570,old
,,rt_plussign_withcolor,2298462,blue,,,,,,US_Cities_List/mm_leesburg.png,US_Cities_List/nat_newhope.png,,,,,,,,,,,,,,,,,,,,,,,,,,,,,,,US,,67cf70ec9741a100ffc7f570,old
1236.6,,rt_thecrossant_black,2299536,black_plus_sign,,,,,49.0,,,1.0,1.0,,,,,,,,,,,,,,,,,,,,,,,,,,,,,US,,67cf70ec9741a100ffc7f570,old
,,color_black,2299640,black_plus_sign,,,,,,,,,,,,,,,,,,,,,,,,,,,,,,,,,,,,,,US,,67cf70ec9741a100ffc7f570,old
,,learn_phase(without_color),2302243,black_plus_sign,,,,,,US_Cities_List/nat_peoria.png,US_Cities_List/nat_huntsville.png,,,,,,,,,,,,,,,,,,,,,,,,,,,,,,,US,,67cf70ec9741a100ffc7f570,old
,,black_cross(without_color),2302961,blue,,,,,,US_Cities_List/nat_peoria.png,US_Cities_List/nat_huntsville.png,,,,,,,,,,,,,,,,,,,,,,,,,,,,,,,US,,67cf70ec9741a100ffc7f570,old
,,rt_plussign_withcolor,2303464,blue,,,,,,US_Cities_List/nat_peoria.png,US_Cities_List/nat_huntsville.png,,,,,,,,,,,,,,,,,,,,,,,,,,,,,,,US,,67cf70ec9741a100ffc7f570,old
1132.0,,rt_thecrossant_black,2304750,black_plus_sign,,,,,49.0,,,1.0,1.0,,,,,,,,,,,,,,,,,,,,,,,,,,,,,US,,67cf70ec9741a100ffc7f570,old
,,color_black,2304854,black_plus_sign,,,,,,,,,,,,,,,,,,,,,,,,,,,,,,,,,,,,,,US,,67cf70ec9741a100ffc7f570,old
,,learn_phase(without_color),2307442,black_plus_sign,,,,,,US_Cities_List/mm_boulder.png,US_Cities_List/mm_shreveport.png,,,,,,,,,,,,,,,,,,,,,,,,,,,,,,,US,,67cf70ec9741a100ffc7f570,old
,,black_cross(without_color),2307998,blue,,,,,,US_Cities_List/mm_boulder.png,US_Cities_List/mm_shreveport.png,,,,,,,,,,,,,,,,,,,,,,,,,,,,,,,US,,67cf70ec9741a100ffc7f570,old
,,rt_plussign_withcolor,2308501,blue,,,,,,US_Cities_List/mm_boulder.png,US_Cities_List/mm_shreveport.png,,,,,,,,,,,,,,,,,,,,,,,,,,,,,,,US,,67cf70ec9741a100ffc7f570,old
924.5,,rt_thecrossant_black,2309950,black_plus_sign,,,,,49.0,,,1.0,1.0,,,,,,,,,,,,,,,,,,,,,,,,,,,,,US,,67cf70ec9741a100ffc7f570,old
,,color_black,2310054,black_plus_sign,,,,,,,,,,,,,,,,,,,,,,,,,,,,,,,,,,,,,,US,,67cf70ec9741a100ffc7f570,old
,,learn_phase(without_color),2312634,black_plus_sign,,,,,,US_Cities_List/nat_huntsville.png,US_Cities_List/nat_hanover.png,,,,,,,,,,,,,,,,,,,,,,,,,,,,,,,US,,67cf70ec9741a100ffc7f570,old
,,black_cross(without_color),2313066,green,,,,,,US_Cities_List/nat_huntsville.png,US_Cities_List/nat_hanover.png,,,,,,,,,,,,,,,,,,,,,,,,,,,,,,,US,,67cf70ec9741a100ffc7f570,old
,,rt_plussign_withcolor,2313569,green,,,,,,US_Cities_List/nat_huntsville.png,US_Cities_List/nat_hanover.png,,,,,,,,,,,,,,,,,,,,,,,,,,,,,,,US,,67cf70ec9741a100ffc7f570,old
653.5,,rt_thecrossant_black,2315144,black_plus_sign,,,,,50.0,,,1.0,1.0,,,,,,,,,,,,,,,,,,,,,,,,,,,,,US,,67cf70ec9741a100ffc7f570,old
,,color_black,2315247,black_plus_sign,,,,,,,,,,,,,,,,,,,,,,,,,,,,,,,,,,,,,,US,,67cf70ec9741a100ffc7f570,old
,,learn_phase(without_color),2317852,black_plus_sign,,,,,,US_Cities_List/nat_huntsville.png,US_Cities_List/mm_westpalmbeach.png,,,,,,,,,,,,,,,,,,,,,,,,,,,,,,,US,,67cf70ec9741a100ffc7f570,old
,,black_cross(without_color),2318659,blue,,,,,,US_Cities_List/nat_huntsville.png,US_Cities_List/mm_westpalmbeach.png,,,,,,,,,,,,,,,,,,,,,,,,,,,,,,,US,,67cf70ec9741a100ffc7f570,old
,,rt_plussign_withcolor,2319162,blue,,,,,,US_Cities_List/nat_huntsville.png,US_Cities_List/mm_westpalmbeach.png,,,,,,,,,,,,,,,,,,,,,,,,,,,,,,,US,,67cf70ec9741a100ffc7f570,old
608.0,,rt_thecrossant_black,2320362,black_plus_sign,,,,,49.0,,,1.0,1.0,,,,,,,,,,,,,,,,,,,,,,,,,,,,,US,,67cf70ec9741a100ffc7f570,old
,,color_black,2320466,black_plus_sign,,,,,,,,,,,,,,,,,,,,,,,,,,,,,,,,,,,,,,US,,67cf70ec9741a100ffc7f570,old
,,learn_phase(without_color),2323062,black_plus_sign,,,,,,US_Cities_List/nat_huntsville.png,US_Cities_List/mm_leesburg.png,,,,,,,,,,,,,,,,,,,,,,,,,,,,,,,US,,67cf70ec9741a100ffc7f570,old
,,black_cross(without_color),2323817,blue,,,,,,US_Cities_List/nat_huntsville.png,US_Cities_List/mm_leesburg.png,,,,,,,,,,,,,,,,,,,,,,,,,,,,,,,US,,67cf70ec9741a100ffc7f570,old
,,rt_plussign_withcolor,2324320,blue,,,,,,US_Cities_List/nat_huntsville.png,US_Cities_List/mm_leesburg.png,,,,,,,,,,,,,,,,,,,,,,,,,,,,,,,US,,67cf70ec9741a100ffc7f570,old
908.3,,rt_thecrossant_black,2325571,black_plus_sign,,,,,49.0,,,1.0,1.0,,,,,,,,,,,,,,,,,,,,,,,,,,,,,US,,67cf70ec9741a100ffc7f570,old
,,color_black,2325675,black_plus_sign,,,,,,,,,,,,,,,,,,,,,,,,,,,,,,,,,,,,,,US,,67cf70ec9741a100ffc7f570,old
,,learn_phase(without_color),2328265,black_plus_sign,,,,,,US_Cities_List/nat_gatlinburg.png,US_Cities_List/mm_boulder.png,,,,,,,,,,,,,,,,,,,,,,,,,,,,,,,US,,67cf70ec9741a100ffc7f570,old
,,black_cross(without_color),2328701,blue,,,,,,US_Cities_List/nat_gatlinburg.png,US_Cities_List/mm_boulder.png,,,,,,,,,,,,,,,,,,,,,,,,,,,,,,,US,,67cf70ec9741a100ffc7f570,old
,,rt_plussign_withcolor,2329204,blue,,,,,,US_Cities_List/nat_gatlinburg.png,US_Cities_List/mm_boulder.png,,,,,,,,,,,,,,,,,,,,,,,,,,,,,,,US,,67cf70ec9741a100ffc7f570,old
852.3,,rt_thecrossant_black,2330787,black_plus_sign,,,,,49.0,,,1.0,1.0,,,,,,,,,,,,,,,,,,,,,,,,,,,,,US,,67cf70ec9741a100ffc7f570,old
,,color_black,2330891,black_plus_sign,,,,,,,,,,,,,,,,,,,,,,,,,,,,,,,,,,,,,,US,,67cf70ec9741a100ffc7f570,old
,,learn_phase(without_color),2333497,black_plus_sign,,,,,,US_Cities_List/nat_huntsville.png,US_Cities_List/mm_leesburg.png,,,,,,,,,,,,,,,,,,,,,,,,,,,,,,,US,,67cf70ec9741a100ffc7f570,old
,,black_cross(without_color),2334580,blue,,,,,,US_Cities_List/nat_huntsville.png,US_Cities_List/mm_leesburg.png,,,,,,,,,,,,,,,,,,,,,,,,,,,,,,,US,,67cf70ec9741a100ffc7f570,old
,,rt_plussign_withcolor,2335083,blue,,,,,,US_Cities_List/nat_huntsville.png,US_Cities_List/mm_leesburg.png,,,,,,,,,,,,,,,,,,,,,,,,,,,,,,,US,,67cf70ec9741a100ffc7f570,old
579.7,,rt_thecrossant_black,2336006,black_plus_sign,,,,,49.0,,,1.0,1.0,,,,,,,,,,,,,,,,,,,,,,,,,,,,,US,,67cf70ec9741a100ffc7f570,old
,,color_black,2336109,black_plus_sign,,,,,,,,,,,,,,,,,,,,,,,,,,,,,,,,,,,,,,US,,67cf70ec9741a100ffc7f570,old
,,learn_phase(without_color),2338678,black_plus_sign,,,,,,US_Cities_List/mm_boulder.png,US_Cities_List/mm_carmel.png,,,,,,,,,,,,,,,,,,,,,,,,,,,,,,,US,,67cf70ec9741a100ffc7f570,old
,,black_cross(without_color),2339569,green,,,,,,US_Cities_List/mm_boulder.png,US_Cities_List/mm_carmel.png,,,,,,,,,,,,,,,,,,,,,,,,,,,,,,,US,,67cf70ec9741a100ffc7f570,old
,,rt_plussign_withcolor,2340072,green,,,,,,US_Cities_List/mm_boulder.png,US_Cities_List/mm_carmel.png,,,,,,,,,,,,,,,,,,,,,,,,,,,,,,,US,,67cf70ec9741a100ffc7f570,old
1404.4,,rt_thecrossant_black,2341189,black_plus_sign,,,,,50.0,,,1.0,1.0,,,,,,,,,,,,,,,,,,,,,,,,,,,,,US,,67cf70ec9741a100ffc7f570,old
,,color_black,2341292,black_plus_sign,,,,,,,,,,,,,,,,,,,,,,,,,,,,,,,,,,,,,,US,,67cf70ec9741a100ffc7f570,old
,,learn_phase(without_color),2343900,black_plus_sign,,,,,,US_Cities_List/nat_huntsville.png,US_Cities_List/mm_westpalmbeach.png,,,,,,,,,,,,,,,,,,,,,,,,,,,,,,,US,,67cf70ec9741a100ffc7f570,old
,,black_cross(without_color),2344495,green,,,,,,US_Cities_List/nat_huntsville.png,US_Cities_List/mm_westpalmbeach.png,,,,,,,,,,,,,,,,,,,,,,,,,,,,,,,US,,67cf70ec9741a100ffc7f570,old
,,rt_plussign_withcolor,2344997,green,,,,,,US_Cities_List/nat_huntsville.png,US_Cities_List/mm_westpalmbeach.png,,,,,,,,,,,,,,,,,,,,,,,,,,,,,,,US,,67cf70ec9741a100ffc7f570,old
1168.7,,rt_thecrossant_black,2346411,black_plus_sign,,,,,50.0,,,1.0,1.0,,,,,,,,,,,,,,,,,,,,,,,,,,,,,US,,67cf70ec9741a100ffc7f570,old
,,color_black,2346514,black_plus_sign,,,,,,,,,,,,,,,,,,,,,,,,,,,,,,,,,,,,,,US,,67cf70ec9741a100ffc7f570,old
,,learn_phase(without_color),2349114,black_plus_sign,,,,,,US_Cities_List/mm_carmel.png,US_Cities_List/mm_hotsprings.png,,,,,,,,,,,,,,,,,,,,,,,,,,,,,,,US,,67cf70ec9741a100ffc7f570,old
,,black_cross(without_color),2349561,blue,,,,,,US_Cities_List/mm_carmel.png,US_Cities_List/mm_hotsprings.png,,,,,,,,,,,,,,,,,,,,,,,,,,,,,,,US,,67cf70ec9741a100ffc7f570,old
,,rt_plussign_withcolor,2350063,blue,,,,,,US_Cities_List/mm_carmel.png,US_Cities_List/mm_hotsprings.png,,,,,,,,,,,,,,,,,,,,,,,,,,,,,,,US,,67cf70ec9741a100ffc7f570,old
816.9,,rt_thecrossant_black,2351624,black_plus_sign,,,,,49.0,,,1.0,1.0,,,,,,,,,,,,,,,,,,,,,,,,,,,,,US,,67cf70ec9741a100ffc7f570,old
,,color_black,2351727,black_plus_sign,,,,,,,,,,,,,,,,,,,,,,,,,,,,,,,,,,,,,,US,,67cf70ec9741a100ffc7f570,old
,,learn_phase(without_color),2354326,black_plus_sign,,,,,,US_Cities_List/nat_huntsville.png,US_Cities_List/mm_leesburg.png,,,,,,,,,,,,,,,,,,,,,,,,,,,,,,,US,,67cf70ec9741a100ffc7f570,old
,,black_cross(without_color),2354937,green,,,,,,US_Cities_List/nat_huntsville.png,US_Cities_List/mm_leesburg.png,,,,,,,,,,,,,,,,,,,,,,,,,,,,,,,US,,67cf70ec9741a100ffc7f570,old
,,rt_plussign_withcolor,2355440,green,,,,,,US_Cities_List/nat_huntsville.png,US_Cities_List/mm_leesburg.png,,,,,,,,,,,,,,,,,,,,,,,,,,,,,,,US,,67cf70ec9741a100ffc7f570,old
808.7,,rt_thecrossant_black,2356835,black_plus_sign,,,,,50.0,,,1.0,1.0,,,,,,,,,,,,,,,,,,,,,,,,,,,,,US,,67cf70ec9741a100ffc7f570,old
,,color_black,2356939,black_plus_sign,,,,,,,,,,,,,,,,,,,,,,,,,,,,,,,,,,,,,,US,,67cf70ec9741a100ffc7f570,old
,,learn_phase(without_color),2359550,black_plus_sign,,,,,,US_Cities_List/mm_boulder.png,US_Cities_List/mm_shreveport.png,,,,,,,,,,,,,,,,,,,,,,,,,,,,,,,US,,67cf70ec9741a100ffc7f570,old
,,black_cross(without_color),2360386,blue,,,,,,US_Cities_List/mm_boulder.png,US_Cities_List/mm_shreveport.png,,,,,,,,,,,,,,,,,,,,,,,,,,,,,,,US,,67cf70ec9741a100ffc7f570,old
,,rt_plussign_withcolor,2360888,blue,,,,,,US_Cities_List/mm_boulder.png,US_Cities_List/mm_shreveport.png,,,,,,,,,,,,,,,,,,,,,,,,,,,,,,,US,,67cf70ec9741a100ffc7f570,old
842.2,,rt_thecrossant_black,2362059,black_plus_sign,,,,,49.0,,,1.0,1.0,,,,,,,,,,,,,,,,,,,,,,,,,,,,,US,,67cf70ec9741a100ffc7f570,old
,,color_black,2362162,black_plus_sign,,,,,,,,,,,,,,,,,,,,,,,,,,,,,,,,,,,,,,US,,67cf70ec9741a100ffc7f570,old
,,learn_phase(without_color),2364760,black_plus_sign,,,,,,US_Cities_List/mm_carmel.png,US_Cities_List/mm_hotsprings.png,,,,,,,,,,,,,,,,,,,,,,,,,,,,,,,US,,67cf70ec9741a100ffc7f570,old
,,black_cross(without_color),2365590,blue,,,,,,US_Cities_List/mm_carmel.png,US_Cities_List/mm_hotsprings.png,,,,,,,,,,,,,,,,,,,,,,,,,,,,,,,US,,67cf70ec9741a100ffc7f570,old
,,rt_plussign_withcolor,2366092,blue,,,,,,US_Cities_List/mm_carmel.png,US_Cities_List/mm_hotsprings.png,,,,,,,,,,,,,,,,,,,,,,,,,,,,,,,US,,67cf70ec9741a100ffc7f570,old
1125.2,,rt_thecrossant_black,2367269,black_plus_sign,,,,,49.0,,,1.0,1.0,,,,,,,,,,,,,,,,,,,,,,,,,,,,,US,,67cf70ec9741a100ffc7f570,old
,,color_black,2367373,black_plus_sign,,,,,,,,,,,,,,,,,,,,,,,,,,,,,,,,,,,,,,US,,67cf70ec9741a100ffc7f570,old
,,learn_phase(without_color),2369946,black_plus_sign,,,,,,US_Cities_List/nat_huntsville.png,US_Cities_List/mm_leesburg.png,,,,,,,,,,,,,,,,,,,,,,,,,,,,,,,US,,67cf70ec9741a100ffc7f570,old
,,black_cross(without_color),2370587,blue,,,,,,US_Cities_List/nat_huntsville.png,US_Cities_List/mm_leesburg.png,,,,,,,,,,,,,,,,,,,,,,,,,,,,,,,US,,67cf70ec9741a100ffc7f570,old
,,rt_plussign_withcolor,2371089,blue,,,,,,US_Cities_List/nat_huntsville.png,US_Cities_List/mm_leesburg.png,,,,,,,,,,,,,,,,,,,,,,,,,,,,,,,US,,67cf70ec9741a100ffc7f570,old
1074.7,,rt_thecrossant_black,2372454,black_plus_sign,,,,,50.0,,,0.0,0.952380952,,,,,,,,,,,,,,,,,,,,,,,,,,,,,US,,67cf70ec9741a100ffc7f570,old
,,color_black,2372557,black_plus_sign,,,,,,,,,,,,,,,,,,,,,,,,,,,,,,,,,,,,,,US,,67cf70ec9741a100ffc7f570,old
,,learn_phase(without_color),2375141,black_plus_sign,,,,,,US_Cities_List/nat_peoria.png,US_Cities_List/mm_leesburg.png,,,,,,,,,,,,,,,,,,,,,,,,,,,,,,,US,,67cf70ec9741a100ffc7f570,old
,,black_cross(without_color),2375966,blue,,,,,,US_Cities_List/nat_peoria.png,US_Cities_List/mm_leesburg.png,,,,,,,,,,,,,,,,,,,,,,,,,,,,,,,US,,67cf70ec9741a100ffc7f570,old
,,rt_plussign_withcolor,2376469,blue,,,,,,US_Cities_List/nat_peoria.png,US_Cities_List/mm_leesburg.png,,,,,,,,,,,,,,,,,,,,,,,,,,,,,,,US,,67cf70ec9741a100ffc7f570,old
853.5,,rt_thecrossant_black,2377650,black_plus_sign,,,,,49.0,,,1.0,0.954545455,,,,,,,,,,,,,,,,,,,,,,,,,,,,,US,,67cf70ec9741a100ffc7f570,old
,,color_black,2377753,black_plus_sign,,,,,,,,,,,,,,,,,,,,,,,,,,,,,,,,,,,,,,US,,67cf70ec9741a100ffc7f570,old
,,learn_phase(without_color),2380346,black_plus_sign,,,,,,US_Cities_List/mm_carmel.png,US_Cities_List/mm_hotsprings.png,,,,,,,,,,,,,,,,,,,,,,,,,,,,,,,US,,67cf70ec9741a100ffc7f570,old
,,black_cross(without_color),2380865,green,,,,,,US_Cities_List/mm_carmel.png,US_Cities_List/mm_hotsprings.png,,,,,,,,,,,,,,,,,,,,,,,,,,,,,,,US,,67cf70ec9741a100ffc7f570,old
,,rt_plussign_withcolor,2381367,green,,,,,,US_Cities_List/mm_carmel.png,US_Cities_List/mm_hotsprings.png,,,,,,,,,,,,,,,,,,,,,,,,,,,,,,,US,,67cf70ec9741a100ffc7f570,old
1161.5,,rt_thecrossant_black,2382855,black_plus_sign,,,,,50.0,,,1.0,0.956521739,,,,,,,,,,,,,,,,,,,,,,,,,,,,,US,,67cf70ec9741a100ffc7f570,old
,,color_black,2382959,black_plus_sign,,,,,,,,,,,,,,,,,,,,,,,,,,,,,,,,,,,,,,US,,67cf70ec9741a100ffc7f570,old
,,learn_phase(without_color),2385556,black_plus_sign,,,,,,US_Cities_List/mm_shreveport.png,US_Cities_List/nat_newhope.png,,,,,,,,,,,,,,,,,,,,,,,,,,,,,,,US,,67cf70ec9741a100ffc7f570,old
,,black_cross(without_color),2386112,blue,,,,,,US_Cities_List/mm_shreveport.png,US_Cities_List/nat_newhope.png,,,,,,,,,,,,,,,,,,,,,,,,,,,,,,,US,,67cf70ec9741a100ffc7f570,old
,,rt_plussign_withcolor,2386614,blue,,,,,,US_Cities_List/mm_shreveport.png,US_Cities_List/nat_newhope.png,,,,,,,,,,,,,,,,,,,,,,,,,,,,,,,US,,67cf70ec9741a100ffc7f570,old
833.8,,rt_thecrossant_black,2388065,black_plus_sign,,,,,49.0,,,1.0,0.958333333,,,,,,,,,,,,,,,,,,,,,,,,,,,,,US,,67cf70ec9741a100ffc7f570,old
,,color_black,2388168,black_plus_sign,,,,,,,,,,,,,,,,,,,,,,,,,,,,,,,,,,,,,,US,,67cf70ec9741a100ffc7f570,old
,,learn_phase(without_color),2390754,black_plus_sign,,,,,,US_Cities_List/mm_carmel.png,US_Cities_List/nat_racine.png,,,,,,,,,,,,,,,,,,,,,,,,,,,,,,,US,,67cf70ec9741a100ffc7f570,old
,,black_cross(without_color),2391535,green,,,,,,US_Cities_List/mm_carmel.png,US_Cities_List/nat_racine.png,,,,,,,,,,,,,,,,,,,,,,,,,,,,,,,US,,67cf70ec9741a100ffc7f570,old
,,rt_plussign_withcolor,2392044,green,,,,,,US_Cities_List/mm_carmel.png,US_Cities_List/nat_racine.png,,,,,,,,,,,,,,,,,,,,,,,,,,,,,,,US,,67cf70ec9741a100ffc7f570,old
1103.9,,rt_thecrossant_black,2393272,black_plus_sign,,,,,50.0,,,1.0,0.96,,,,,,,,,,,,,,,,,,,,,,,,,,,,,US,,67cf70ec9741a100ffc7f570,old
,,color_black,2393375,black_plus_sign,,,,,,,,,,,,,,,,,,,,,,,,,,,,,,,,,,,,,,US,,67cf70ec9741a100ffc7f570,old
,,learn_phase(without_color),2395959,black_plus_sign,,,,,,US_Cities_List/mm_shreveport.png,US_Cities_List/nat_peoria.png,,,,,,,,,,,,,,,,,,,,,,,,,,,,,,,US,,67cf70ec9741a100ffc7f570,old
,,black_cross(without_color),2396401,green,,,,,,US_Cities_List/mm_shreveport.png,US_Cities_List/nat_peoria.png,,,,,,,,,,,,,,,,,,,,,,,,,,,,,,,US,,67cf70ec9741a100ffc7f570,old
,,rt_plussign_withcolor,2396904,green,,,,,,US_Cities_List/mm_shreveport.png,US_Cities_List/nat_peoria.png,,,,,,,,,,,,,,,,,,,,,,,,,,,,,,,US,,67cf70ec9741a100ffc7f570,old
1102.4,,rt_thecrossant_black,2398469,black_plus_sign,,,,,50.0,,,1.0,0.961538462,,,,,,,,,,,,,,,,,,,,,,,,,,,,,US,,67cf70ec9741a100ffc7f570,old
,,color_black,2398573,black_plus_sign,,,,,,,,,,,,,,,,,,,,,,,,,,,,,,,,,,,,,,US,,67cf70ec9741a100ffc7f570,old
,,learn_phase(without_color),2401156,black_plus_sign,,,,,,US_Cities_List/nat_huntsville.png,US_Cities_List/mm_leesburg.png,,,,,,,,,,,,,,,,,,,,,,,,,,,,,,,US,,67cf70ec9741a100ffc7f570,old
,,black_cross(without_color),2402000,green,,,,,,US_Cities_List/nat_huntsville.png,US_Cities_List/mm_leesburg.png,,,,,,,,,,,,,,,,,,,,,,,,,,,,,,,US,,67cf70ec9741a100ffc7f570,old
,,rt_plussign_withcolor,2402503,green,,,,,,US_Cities_List/nat_huntsville.png,US_Cities_List/mm_leesburg.png,,,,,,,,,,,,,,,,,,,,,,,,,,,,,,,US,,67cf70ec9741a100ffc7f570,old
667.9,,rt_thecrossant_black,2403666,black_plus_sign,,,,,50.0,,,1.0,0.962962963,,,,,,,,,,,,,,,,,,,,,,,,,,,,,US,,67cf70ec9741a100ffc7f570,old
,,color_black,2403769,black_plus_sign,,,,,,,,,,,,,,,,,,,,,,,,,,,,,,,,,,,,,,US,,67cf70ec9741a100ffc7f570,old
,,learn_phase(without_color),2406383,black_plus_sign,,,,,,US_Cities_List/mm_carmel.png,US_Cities_List/nat_racine.png,,,,,,,,,,,,,,,,,,,,,,,,,,,,,,,US,,67cf70ec9741a100ffc7f570,old
,,black_cross(without_color),2407417,green,,,,,,US_Cities_List/mm_carmel.png,US_Cities_List/nat_racine.png,,,,,,,,,,,,,,,,,,,,,,,,,,,,,,,US,,67cf70ec9741a100ffc7f570,old
,,rt_plussign_withcolor,2407920,green,,,,,,US_Cities_List/mm_carmel.png,US_Cities_List/nat_racine.png,,,,,,,,,,,,,,,,,,,,,,,,,,,,,,,US,,67cf70ec9741a100ffc7f570,old
1079.5,,rt_thecrossant_black,2408893,black_plus_sign,,,,,50.0,,,1.0,0.964285714,,,,,,,,,,,,,,,,,,,,,,,,,,,,,US,,67cf70ec9741a100ffc7f570,old
,,color_black,2408996,black_plus_sign,,,,,,,,,,,,,,,,,,,,,,,,,,,,,,,,,,,,,,US,,67cf70ec9741a100ffc7f570,old
,,learn_phase(without_color),2411592,black_plus_sign,,,,,,US_Cities_List/nat_peoria.png,US_Cities_List/mm_leesburg.png,,,,,,,,,,,,,,,,,,,,,,,,,,,,,,,US,,67cf70ec9741a100ffc7f570,old
,,black_cross(without_color),2412177,green,,,,,,US_Cities_List/nat_peoria.png,US_Cities_List/mm_leesburg.png,,,,,,,,,,,,,,,,,,,,,,,,,,,,,,,US,,67cf70ec9741a100ffc7f570,old
,,rt_plussign_withcolor,2412679,green,,,,,,US_Cities_List/nat_peoria.png,US_Cities_List/mm_leesburg.png,,,,,,,,,,,,,,,,,,,,,,,,,,,,,,,US,,67cf70ec9741a100ffc7f570,old
1209.9,,rt_thecrossant_black,2414102,black_plus_sign,,,,,50.0,,,1.0,0.965517241,,,,,,,,,,,,,,,,,,,,,,,,,,,,,US,,67cf70ec9741a100ffc7f570,old
,,color_black,2414206,black_plus_sign,,,,,,,,,,,,,,,,,,,,,,,,,,,,,,,,,,,,,,US,,67cf70ec9741a100ffc7f570,old
,,learn_phase(without_color),2416794,black_plus_sign,,,,,,US_Cities_List/nat_hanover.png,US_Cities_List/mm_leesburg.png,,,,,,,,,,,,,,,,,,,,,,,,,,,,,,,US,,67cf70ec9741a100ffc7f570,old
,,black_cross(without_color),2417464,blue,,,,,,US_Cities_List/nat_hanover.png,US_Cities_List/mm_leesburg.png,,,,,,,,,,,,,,,,,,,,,,,,,,,,,,,US,,67cf70ec9741a100ffc7f570,old
,,rt_plussign_withcolor,2417967,blue,,,,,,US_Cities_List/nat_hanover.png,US_Cities_List/mm_leesburg.png,,,,,,,,,,,,,,,,,,,,,,,,,,,,,,,US,,67cf70ec9741a100ffc7f570,old
929.0,,rt_thecrossant_black,2419303,black_plus_sign,,,,,49.0,,,1.0,0.966666667,,,,,,,,,,,,,,,,,,,,,,,,,,,,,US,,67cf70ec9741a100ffc7f570,old
,,color_black,2419407,black_plus_sign,,,,,,,,,,,,,,,,,,,,,,,,,,,,,,,,,,,,,,US,,67cf70ec9741a100ffc7f570,old
,,learn_phase(without_color),2422002,black_plus_sign,,,,,,US_Cities_List/nat_huntsville.png,US_Cities_List/nat_hanover.png,,,,,,,,,,,,,,,,,,,,,,,,,,,,,,,US,,67cf70ec9741a100ffc7f570,old
,,black_cross(without_color),2422812,blue,,,,,,US_Cities_List/nat_huntsville.png,US_Cities_List/nat_hanover.png,,,,,,,,,,,,,,,,,,,,,,,,,,,,,,,US,,67cf70ec9741a100ffc7f570,old
,,rt_plussign_withcolor,2423315,blue,,,,,,US_Cities_List/nat_huntsville.png,US_Cities_List/nat_hanover.png,,,,,,,,,,,,,,,,,,,,,,,,,,,,,,,US,,67cf70ec9741a100ffc7f570,old
1104.7,,rt_thecrossant_black,2424514,black_plus_sign,,,,,49.0,,,1.0,0.967741935,,,,,,,,,,,,,,,,,,,,,,,,,,,,,US,,67cf70ec9741a100ffc7f570,old
,,color_black,2424618,black_plus_sign,,,,,,,,,,,,,,,,,,,,,,,,,,,,,,,,,,,,,,US,,67cf70ec9741a100ffc7f570,old
,,learn_phase(without_color),2427207,black_plus_sign,,,,,,US_Cities_List/nat_newhope.png,US_Cities_List/mm_hotsprings.png,,,,,,,,,,,,,,,,,,,,,,,,,,,,,,,US,,67cf70ec9741a100ffc7f570,old
,,black_cross(without_color),2427621,green,,,,,,US_Cities_List/nat_newhope.png,US_Cities_List/mm_hotsprings.png,,,,,,,,,,,,,,,,,,,,,,,,,,,,,,,US,,67cf70ec9741a100ffc7f570,old
,,rt_plussign_withcolor,2428124,green,,,,,,US_Cities_List/nat_newhope.png,US_Cities_List/mm_hotsprings.png,,,,,,,,,,,,,,,,,,,,,,,,,,,,,,,US,,67cf70ec9741a100ffc7f570,old
1080.3,,rt_thecrossant_black,2429718,black_plus_sign,,,,,50.0,,,1.0,0.96875,,,,,,,,,,,,,,,,,,,,,,,,,,,,,US,,67cf70ec9741a100ffc7f570,old
,,color_black,2429822,black_plus_sign,,,,,,,,,,,,,,,,,,,,,,,,,,,,,,,,,,,,,,US,,67cf70ec9741a100ffc7f570,old
,,learn_phase(without_color),2432400,black_plus_sign,,,,,,US_Cities_List/nat_peoria.png,US_Cities_List/mm_leesburg.png,,,,,,,,,,,,,,,,,,,,,,,,,,,,,,,US,,67cf70ec9741a100ffc7f570,old
,,black_cross(without_color),2433498,green,,,,,,US_Cities_List/nat_peoria.png,US_Cities_List/mm_leesburg.png,,,,,,,,,,,,,,,,,,,,,,,,,,,,,,,US,,67cf70ec9741a100ffc7f570,old
,,rt_plussign_withcolor,2434001,green,,,,,,US_Cities_List/nat_peoria.png,US_Cities_List/mm_leesburg.png,,,,,,,,,,,,,,,,,,,,,,,,,,,,,,,US,,67cf70ec9741a100ffc7f570,old
722.4,,rt_thecrossant_black,2434910,black_plus_sign,,,,,50.0,,,1.0,0.96969697,,,,,,,,,,,,,,,,,,,,,,,,,,,,,US,,67cf70ec9741a100ffc7f570,old
,,color_black,2435014,black_plus_sign,,,,,,,,,,,,,,,,,,,,,,,,,,,,,,,,,,,,,,US,,67cf70ec9741a100ffc7f570,old
,,learn_phase(without_color),2437617,black_plus_sign,,,,,,US_Cities_List/mm_carmel.png,US_Cities_List/nat_racine.png,,,,,,,,,,,,,,,,,,,,,,,,,,,,,,,US,,67cf70ec9741a100ffc7f570,old
,,black_cross(without_color),2438426,blue,,,,,,US_Cities_List/mm_carmel.png,US_Cities_List/nat_racine.png,,,,,,,,,,,,,,,,,,,,,,,,,,,,,,,US,,67cf70ec9741a100ffc7f570,old
,,rt_plussign_withcolor,2438930,blue,,,,,,US_Cities_List/mm_carmel.png,US_Cities_List/nat_racine.png,,,,,,,,,,,,,,,,,,,,,,,,,,,,,,,US,,67cf70ec9741a100ffc7f570,old
1457.7,,rt_thecrossant_black,2440129,black_plus_sign,,,,,49.0,,,1.0,0.970588235,,,,,,,,,,,,,,,,,,,,,,,,,,,,,US,,67cf70ec9741a100ffc7f570,old
,,color_black,2440248,black_plus_sign,,,,,,,,,,,,,,,,,,,,,,,,,,,,,,,,,,,,,,US,,67cf70ec9741a100ffc7f570,old
,,learn_phase(without_color),2442854,black_plus_sign,,,,,,US_Cities_List/mm_shreveport.png,US_Cities_List/nat_newhope.png,,,,,,,,,,,,,,,,,,,,,,,,,,,,,,,US,,67cf70ec9741a100ffc7f570,old
,,black_cross(without_color),2443850,blue,,,,,,US_Cities_List/mm_shreveport.png,US_Cities_List/nat_newhope.png,,,,,,,,,,,,,,,,,,,,,,,,,,,,,,,US,,67cf70ec9741a100ffc7f570,old
,,rt_plussign_withcolor,2444353,blue,,,,,,US_Cities_List/mm_shreveport.png,US_Cities_List/nat_newhope.png,,,,,,,,,,,,,,,,,,,,,,,,,,,,,,,US,,67cf70ec9741a100ffc7f570,old
1257.7,,rt_thecrossant_black,2445364,black_plus_sign,,,,,49.0,,,1.0,0.971428571,,,,,,,,,,,,,,,,,,,,,,,,,,,,,US,,67cf70ec9741a100ffc7f570,old
,,color_black,2445467,black_plus_sign,,,,,,,,,,,,,,,,,,,,,,,,,,,,,,,,,,,,,,US,,67cf70ec9741a100ffc7f570,old
,,learn_phase(without_color),2448068,black_plus_sign,,,,,,US_Cities_List/nat_peoria.png,US_Cities_List/mm_leesburg.png,,,,,,,,,,,,,,,,,,,,,,,,,,,,,,,US,,67cf70ec9741a100ffc7f570,old
,,black_cross(without_color),2448755,green,,,,,,US_Cities_List/nat_peoria.png,US_Cities_List/mm_leesburg.png,,,,,,,,,,,,,,,,,,,,,,,,,,,,,,,US,,67cf70ec9741a100ffc7f570,old
,,rt_plussign_withcolor,2449259,green,,,,,,US_Cities_List/nat_peoria.png,US_Cities_List/mm_leesburg.png,,,,,,,,,,,,,,,,,,,,,,,,,,,,,,,US,,67cf70ec9741a100ffc7f570,old
1145.1,,rt_thecrossant_black,2450578,black_plus_sign,,,,,50.0,,,1.0,0.972222222,,,,,,,,,,,,,,,,,,,,,,,,,,,,,US,,67cf70ec9741a100ffc7f570,old
,,color_black,2450681,black_plus_sign,,,,,,,,,,,,,,,,,,,,,,,,,,,,,,,,,,,,,,US,,67cf70ec9741a100ffc7f570,old
,,learn_phase(without_color),2453263,black_plus_sign,,,,,,US_Cities_List/mm_boulder.png,US_Cities_List/mm_carmel.png,,,,,,,,,,,,,,,,,,,,,,,,,,,,,,,US,,67cf70ec9741a100ffc7f570,old
,,black_cross(without_color),2453890,green,,,,,,US_Cities_List/mm_boulder.png,US_Cities_List/mm_carmel.png,,,,,,,,,,,,,,,,,,,,,,,,,,,,,,,US,,67cf70ec9741a100ffc7f570,old
,,rt_plussign_withcolor,2454393,green,,,,,,US_Cities_List/mm_boulder.png,US_Cities_List/mm_carmel.png,,,,,,,,,,,,,,,,,,,,,,,,,,,,,,,US,,67cf70ec9741a100ffc7f570,old
867.5,,rt_thecrossant_black,2455772,black_plus_sign,,,,,50.0,,,1.0,0.972972973,,,,,,,,,,,,,,,,,,,,,,,,,,,,,US,,67cf70ec9741a100ffc7f570,old
,,color_black,2455875,black_plus_sign,,,,,,,,,,,,,,,,,,,,,,,,,,,,,,,,,,,,,,US,,67cf70ec9741a100ffc7f570,old
,,learn_phase(without_color),2458467,black_plus_sign,,,,,,US_Cities_List/nat_peoria.png,US_Cities_List/mm_leesburg.png,,,,,,,,,,,,,,,,,,,,,,,,,,,,,,,US,,67cf70ec9741a100ffc7f570,old
,,black_cross(without_color),2459177,green,,,,,,US_Cities_List/nat_peoria.png,US_Cities_List/mm_leesburg.png,,,,,,,,,,,,,,,,,,,,,,,,,,,,,,,US,,67cf70ec9741a100ffc7f570,old
,,rt_plussign_withcolor,2459679,green,,,,,,US_Cities_List/nat_peoria.png,US_Cities_List/mm_leesburg.png,,,,,,,,,,,,,,,,,,,,,,,,,,,,,,,US,,67cf70ec9741a100ffc7f570,old
889.4,,rt_thecrossant_black,2460981,black_plus_sign,,,,,50.0,,,1.0,0.973684211,,,,,,,,,,,,,,,,,,,,,,,,,,,,,US,,67cf70ec9741a100ffc7f570,old
,,color_black,2461085,black_plus_sign,,,,,,,,,,,,,,,,,,,,,,,,,,,,,,,,,,,,,,US,,67cf70ec9741a100ffc7f570,old
,,learn_phase(without_color),2463676,black_plus_sign,,,,,,US_Cities_List/nat_newhope.png,US_Cities_List/mm_hotsprings.png,,,,,,,,,,,,,,,,,,,,,,,,,,,,,,,US,,67cf70ec9741a100ffc7f570,old
,,black_cross(without_color),2464248,green,,,,,,US_Cities_List/nat_newhope.png,US_Cities_List/mm_hotsprings.png,,,,,,,,,,,,,,,,,,,,,,,,,,,,,,,US,,67cf70ec9741a100ffc7f570,old
,,rt_plussign_withcolor,2464750,green,,,,,,US_Cities_List/nat_newhope.png,US_Cities_List/mm_hotsprings.png,,,,,,,,,,,,,,,,,,,,,,,,,,,,,,,US,,67cf70ec9741a100ffc7f570,old
989.9,,rt_thecrossant_black,2466190,black_plus_sign,,,,,50.0,,,1.0,0.974358974,,,,,,,,,,,,,,,,,,,,,,,,,,,,,US,,67cf70ec9741a100ffc7f570,old
,,color_black,2466294,black_plus_sign,,,,,,,,,,,,,,,,,,,,,,,,,,,,,,,,,,,,,,US,,67cf70ec9741a100ffc7f570,old
,,learn_phase(without_color),2468875,black_plus_sign,,,,,,US_Cities_List/nat_hanover.png,US_Cities_List/nat_cornwall.png,,,,,,,,,,,,,,,,,,,,,,,,,,,,,,,US,,67cf70ec9741a100ffc7f570,old
,,black_cross(without_color),2469860,blue,,,,,,US_Cities_List/nat_hanover.png,US_Cities_List/nat_cornwall.png,,,,,,,,,,,,,,,,,,,,,,,,,,,,,,,US,,67cf70ec9741a100ffc7f570,old
,,rt_plussign_withcolor,2470362,blue,,,,,,US_Cities_List/nat_hanover.png,US_Cities_List/nat_cornwall.png,,,,,,,,,,,,,,,,,,,,,,,,,,,,,,,US,,67cf70ec9741a100ffc7f570,old
786.9,,rt_thecrossant_black,2471384,black_plus_sign,,,,,49.0,,,1.0,0.975,,,,,,,,,,,,,,,,,,,,,,,,,,,,,US,,67cf70ec9741a100ffc7f570,old
,,color_black,2471487,black_plus_sign,,,,,,,,,,,,,,,,,,,,,,,,,,,,,,,,,,,,,,US,,67cf70ec9741a100ffc7f570,old
,,learn_phase(without_color),2474081,black_plus_sign,,,,,,US_Cities_List/mm_shreveport.png,US_Cities_List/nat_peoria.png,,,,,,,,,,,,,,,,,,,,,,,,,,,,,,,US,,67cf70ec9741a100ffc7f570,old
,,black_cross(without_color),2474757,blue,,,,,,US_Cities_List/mm_shreveport.png,US_Cities_List/nat_peoria.png,,,,,,,,,,,,,,,,,,,,,,,,,,,,,,,US,,67cf70ec9741a100ffc7f570,old
,,rt_plussign_withcolor,2475260,blue,,,,,,US_Cities_List/mm_shreveport.png,US_Cities_List/nat_peoria.png,,,,,,,,,,,,,,,,,,,,,,,,,,,,,,,US,,67cf70ec9741a100ffc7f570,old
1469.4,,rt_thecrossant_black,2476590,black_plus_sign,,,,,49.0,,,1.0,0.975609756,,,,,,,,,,,,,,,,,,,,,,,,,,,,,US,,67cf70ec9741a100ffc7f570,old
,,color_black,2476693,black_plus_sign,,,,,,,,,,,,,,,,,,,,,,,,,,,,,,,,,,,,,,US,,67cf70ec9741a100ffc7f570,old
,,learn_phase(without_color),2479277,black_plus_sign,,,,,,US_Cities_List/nat_newhope.png,US_Cities_List/mm_hotsprings.png,,,,,,,,,,,,,,,,,,,,,,,,,,,,,,,US,,67cf70ec9741a100ffc7f570,old
,,black_cross(without_color),2480247,blue,,,,,,US_Cities_List/nat_newhope.png,US_Cities_List/mm_hotsprings.png,,,,,,,,,,,,,,,,,,,,,,,,,,,,,,,US,,67cf70ec9741a100ffc7f570,old
,,rt_plussign_withcolor,2480750,blue,,,,,,US_Cities_List/nat_newhope.png,US_Cities_List/mm_hotsprings.png,,,,,,,,,,,,,,,,,,,,,,,,,,,,,,,US,,67cf70ec9741a100ffc7f570,old
792.8,,rt_thecrossant_black,2481787,black_plus_sign,,,,,49.0,,,1.0,0.976190476,,,,,,,,,,,,,,,,,,,,,,,,,,,,,US,,67cf70ec9741a100ffc7f570,old
,,color_black,2481901,black_plus_sign,,,,,,,,,,,,,,,,,,,,,,,,,,,,,,,,,,,,,,US,,67cf70ec9741a100ffc7f570,old
,,learn_phase(without_color),2484476,black_plus_sign,,,,,,US_Cities_List/nat_peoria.png,US_Cities_List/mm_leesburg.png,,,,,,,,,,,,,,,,,,,,,,,,,,,,,,,US,,67cf70ec9741a100ffc7f570,old
,,black_cross(without_color),2485144,blue,,,,,,US_Cities_List/nat_peoria.png,US_Cities_List/mm_leesburg.png,,,,,,,,,,,,,,,,,,,,,,,,,,,,,,,US,,67cf70ec9741a100ffc7f570,old
,,rt_plussign_withcolor,2485648,blue,,,,,,US_Cities_List/nat_peoria.png,US_Cities_List/mm_leesburg.png,,,,,,,,,,,,,,,,,,,,,,,,,,,,,,,US,,67cf70ec9741a100ffc7f570,old
1086.1,,rt_thecrossant_black,2486987,black_plus_sign,,,,,49.0,,,1.0,0.976744186,,,,,,,,,,,,,,,,,,,,,,,,,,,,,US,,67cf70ec9741a100ffc7f570,old
,,color_black,2487091,black_plus_sign,,,,,,,,,,,,,,,,,,,,,,,,,,,,,,,,,,,,,,US,,67cf70ec9741a100ffc7f570,old
,,learn_phase(without_color),2489667,black_plus_sign,,,,,,US_Cities_List/mm_boulder.png,US_Cities_List/mm_carmel.png,,,,,,,,,,,,,,,,,,,,,,,,,,,,,,,US,,67cf70ec9741a100ffc7f570,old
,,black_cross(without_color),2490425,green,,,,,,US_Cities_List/mm_boulder.png,US_Cities_List/mm_carmel.png,,,,,,,,,,,,,,,,,,,,,,,,,,,,,,,US,,67cf70ec9741a100ffc7f570,old
,,rt_plussign_withcolor,2490927,green,,,,,,US_Cities_List/mm_boulder.png,US_Cities_List/mm_carmel.png,,,,,,,,,,,,,,,,,,,,,,,,,,,,,,,US,,67cf70ec9741a100ffc7f570,old
902.1,,rt_thecrossant_black,2492176,black_plus_sign,,,,,50.0,,,1.0,0.977272727,,,,,,,,,,,,,,,,,,,,,,,,,,,,,US,,67cf70ec9741a100ffc7f570,old
,,color_black,2492279,black_plus_sign,,,,,,,,,,,,,,,,,,,,,,,,,,,,,,,,,,,,,,US,,67cf70ec9741a100ffc7f570,old
,,learn_phase(without_color),2494862,black_plus_sign,,,,,,US_Cities_List/nat_newhope.png,US_Cities_List/mm_hotsprings.png,,,,,,,,,,,,,,,,,,,,,,,,,,,,,,,US,,67cf70ec9741a100ffc7f570,old
,,black_cross(without_color),2495914,blue,,,,,,US_Cities_List/nat_newhope.png,US_Cities_List/mm_hotsprings.png,,,,,,,,,,,,,,,,,,,,,,,,,,,,,,,US,,67cf70ec9741a100ffc7f570,old
,,rt_plussign_withcolor,2496417,blue,,,,,,US_Cities_List/nat_newhope.png,US_Cities_List/mm_hotsprings.png,,,,,,,,,,,,,,,,,,,,,,,,,,,,,,,US,,67cf70ec9741a100ffc7f570,old
870.0,,rt_thecrossant_black,2497372,black_plus_sign,,,,,49.0,,,1.0,0.977777778,,,,,,,,,,,,,,,,,,,,,,,,,,,,,US,,67cf70ec9741a100ffc7f570,old
,,color_black,2497475,black_plus_sign,,,,,,,,,,,,,,,,,,,,,,,,,,,,,,,,,,,,,,US,,67cf70ec9741a100ffc7f570,old
,,learn_phase(without_color),2500089,black_plus_sign,,,,,,US_Cities_List/mm_shreveport.png,US_Cities_List/nat_newhope.png,,,,,,,,,,,,,,,,,,,,,,,,,,,,,,,US,,67cf70ec9741a100ffc7f570,old
,,black_cross(without_color),2500915,green,,,,,,US_Cities_List/mm_shreveport.png,US_Cities_List/nat_newhope.png,,,,,,,,,,,,,,,,,,,,,,,,,,,,,,,US,,67cf70ec9741a100ffc7f570,old
,,rt_plussign_withcolor,2501418,green,,,,,,US_Cities_List/mm_shreveport.png,US_Cities_List/nat_newhope.png,,,,,,,,,,,,,,,,,,,,,,,,,,,,,,,US,,67cf70ec9741a100ffc7f570,old
1216.4,,rt_thecrossant_black,2502600,black_plus_sign,,,,,50.0,,,1.0,0.97826087,,,,,,,,,,,,,,,,,,,,,,,,,,,,,US,,67cf70ec9741a100ffc7f570,old
,,color_black,2502704,black_plus_sign,,,,,,,,,,,,,,,,,,,,,,,,,,,,,,,,,,,,,,US,,67cf70ec9741a100ffc7f570,old
,,learn_phase(without_color),2505325,black_plus_sign,,,,,,US_Cities_List/mm_carmel.png,US_Cities_List/mm_hotsprings.png,,,,,,,,,,,,,,,,,,,,,,,,,,,,,,,US,,67cf70ec9741a100ffc7f570,old
,,black_cross(without_color),2505999,green,,,,,,US_Cities_List/mm_carmel.png,US_Cities_List/mm_hotsprings.png,,,,,,,,,,,,,,,,,,,,,,,,,,,,,,,US,,67cf70ec9741a100ffc7f570,old
,,rt_plussign_withcolor,2506505,green,,,,,,US_Cities_List/mm_carmel.png,US_Cities_List/mm_hotsprings.png,,,,,,,,,,,,,,,,,,,,,,,,,,,,,,,US,,67cf70ec9741a100ffc7f570,old
993.4,,rt_thecrossant_black,2507838,black_plus_sign,,,,,50.0,,,1.0,0.978723404,,,,,,,,,,,,,,,,,,,,,,,,,,,,,US,,67cf70ec9741a100ffc7f570,old
,,color_black,2507941,black_plus_sign,,,,,,,,,,,,,,,,,,,,,,,,,,,,,,,,,,,,,,US,,67cf70ec9741a100ffc7f570,old
,,learn_phase(without_color),2510522,black_plus_sign,,,,,,US_Cities_List/mm_leesburg.png,US_Cities_List/nat_newhope.png,,,,,,,,,,,,,,,,,,,,,,,,,,,,,,,US,,67cf70ec9741a100ffc7f570,old
,,black_cross(without_color),2511278,blue,,,,,,US_Cities_List/mm_leesburg.png,US_Cities_List/nat_newhope.png,,,,,,,,,,,,,,,,,,,,,,,,,,,,,,,US,,67cf70ec9741a100ffc7f570,old
,,rt_plussign_withcolor,2511780,blue,,,,,,US_Cities_List/mm_leesburg.png,US_Cities_List/nat_newhope.png,,,,,,,,,,,,,,,,,,,,,,,,,,,,,,,US,,67cf70ec9741a100ffc7f570,old
1182.3,,rt_thecrossant_black,2513032,black_plus_sign,,,,,49.0,,,1.0,0.979166667,,,,,,,,,,,,,,,,,,,,,,,,,,,,,US,,67cf70ec9741a100ffc7f570,old
,,color_black,2513136,black_plus_sign,,,,,,,,,,,,,,,,,,,,,,,,,,,,,,,,,,,,,,US,,67cf70ec9741a100ffc7f570,old
,,learn_phase(without_color),2515723,black_plus_sign,,,,,,US_Cities_List/nat_hanover.png,US_Cities_List/mm_leesburg.png,,,,,,,,,,,,,,,,,,,,,,,,,,,,,,,US,,67cf70ec9741a100ffc7f570,old
,,black_cross(without_color),2516247,blue,,,,,,US_Cities_List/nat_hanover.png,US_Cities_List/mm_leesburg.png,,,,,,,,,,,,,,,,,,,,,,,,,,,,,,,US,,67cf70ec9741a100ffc7f570,old
,,rt_plussign_withcolor,2516751,blue,,,,,,US_Cities_List/nat_hanover.png,US_Cities_List/mm_leesburg.png,,,,,,,,,,,,,,,,,,,,,,,,,,,,,,,US,,67cf70ec9741a100ffc7f570,old
866.2,,rt_thecrossant_black,2518238,black_plus_sign,,,,,49.0,,,1.0,0.979591837,,,,,,,,,,,,,,,,,,,,,,,,,,,,,US,,67cf70ec9741a100ffc7f570,old
,,color_black,2518342,black_plus_sign,,,,,,,,,,,,,,,,,,,,,,,,,,,,,,,,,,,,,,US,,67cf70ec9741a100ffc7f570,old
,,learn_phase(without_color),2520933,black_plus_sign,,,,,,US_Cities_List/nat_hanover.png,US_Cities_List/nat_cornwall.png,,,,,,,,,,,,,,,,,,,,,,,,,,,,,,,US,,67cf70ec9741a100ffc7f570,old
,,black_cross(without_color),2521475,blue,,,,,,US_Cities_List/nat_hanover.png,US_Cities_List/nat_cornwall.png,,,,,,,,,,,,,,,,,,,,,,,,,,,,,,,US,,67cf70ec9741a100ffc7f570,old
,,rt_plussign_withcolor,2521979,blue,,,,,,US_Cities_List/nat_hanover.png,US_Cities_List/nat_cornwall.png,,,,,,,,,,,,,,,,,,,,,,,,,,,,,,,US,,67cf70ec9741a100ffc7f570,old
730.6,,rt_thecrossant_black,2523444,black_plus_sign,,,,,49.0,,,1.0,0.98,,,,,,,,,,,,,,,,,,,,,,,,,,,,,US,,67cf70ec9741a100ffc7f570,old
,,color_black,2523549,black_plus_sign,,,,,,,,,,,,,,,,,,,,,,,,,,,,,,,,,,,,,,US,,67cf70ec9741a100ffc7f570,old
,,learn_phase(without_color),2526160,black_plus_sign,,,,,,US_Cities_List/nat_newhope.png,US_Cities_List/mm_hotsprings.png,,,,,,,,,,,,,,,,,,,,,,,,,,,,,,,US,,67cf70ec9741a100ffc7f570,old
,,black_cross(without_color),2526828,green,,,,,,US_Cities_List/nat_newhope.png,US_Cities_List/mm_hotsprings.png,,,,,,,,,,,,,,,,,,,,,,,,,,,,,,,US,,67cf70ec9741a100ffc7f570,old
464.2,,rt_plussign_withcolor,2527330,green,,,,,49.0,US_Cities_List/nat_newhope.png,US_Cities_List/mm_hotsprings.png,,,,,,,,,,,,,,,,,,,,,,,,,,,,,,,US,,67cf70ec9741a100ffc7f570,old
,,rt_thecrossant_black,2528684,black_plus_sign,,,,,50.0,,,0.0,0.960784314,,,,,,,,,,,,,,,,,,,,,,,,,,,,,US,,67cf70ec9741a100ffc7f570,old
,,color_black,2528788,black_plus_sign,,,,,,,,,,,,,,,,,,,,,,,,,,,,,,,,,,,,,,US,,67cf70ec9741a100ffc7f570,old
,,learn_phase(without_color),2531394,black_plus_sign,,,,,,US_Cities_List/nat_huntsville.png,US_Cities_List/mm_westpalmbeach.png,,,,,,,,,,,,,,,,,,,,,,,,,,,,,,,US,,67cf70ec9741a100ffc7f570,old
,,black_cross(without_color),2532210,green,,,,,,US_Cities_List/nat_huntsville.png,US_Cities_List/mm_westpalmbeach.png,,,,,,,,,,,,,,,,,,,,,,,,,,,,,,,US,,67cf70ec9741a100ffc7f570,old
,,rt_plussign_withcolor,2532712,green,,,,,,US_Cities_List/nat_huntsville.png,US_Cities_List/mm_westpalmbeach.png,,,,,,,,,,,,,,,,,,,,,,,,,,,,,,,US,,67cf70ec9741a100ffc7f570,old
891.2,,rt_thecrossant_black,2533902,black_plus_sign,,,,,50.0,,,1.0,0.961538462,,,,,,,,,,,,,,,,,,,,,,,,,,,,,US,,67cf70ec9741a100ffc7f570,old
,,color_black,2534005,black_plus_sign,,,,,,,,,,,,,,,,,,,,,,,,,,,,,,,,,,,,,,US,,67cf70ec9741a100ffc7f570,old
,,learn_phase(without_color),2536604,black_plus_sign,,,,,,US_Cities_List/nat_hanover.png,US_Cities_List/mm_leesburg.png,,,,,,,,,,,,,,,,,,,,,,,,,,,,,,,US,,67cf70ec9741a100ffc7f570,old
,,black_cross(without_color),2537209,green,,,,,,US_Cities_List/nat_hanover.png,US_Cities_List/mm_leesburg.png,,,,,,,,,,,,,,,,,,,,,,,,,,,,,,,US,,67cf70ec9741a100ffc7f570,old
,,rt_plussign_withcolor,2537712,green,,,,,,US_Cities_List/nat_hanover.png,US_Cities_List/mm_leesburg.png,,,,,,,,,,,,,,,,,,,,,,,,,,,,,,,US,,67cf70ec9741a100ffc7f570,old
1180.1,,rt_thecrossant_black,2539115,black_plus_sign,,,,,50.0,,,1.0,0.962264151,,,,,,,,,,,,,,,,,,,,,,,,,,,,,US,,67cf70ec9741a100ffc7f570,old
,,color_black,2539219,black_plus_sign,,,,,,,,,,,,,,,,,,,,,,,,,,,,,,,,,,,,,,US,,67cf70ec9741a100ffc7f570,old
,,learn_phase(without_color),2541802,black_plus_sign,,,,,,US_Cities_List/mm_boulder.png,US_Cities_List/mm_carmel.png,,,,,,,,,,,,,,,,,,,,,,,,,,,,,,,US,,67cf70ec9741a100ffc7f570,old
,,black_cross(without_color),2542254,blue,,,,,,US_Cities_List/mm_boulder.png,US_Cities_List/mm_carmel.png,,,,,,,,,,,,,,,,,,,,,,,,,,,,,,,US,,67cf70ec9741a100ffc7f570,old
,,rt_plussign_withcolor,2542757,blue,,,,,,US_Cities_List/mm_boulder.png,US_Cities_List/mm_carmel.png,,,,,,,,,,,,,,,,,,,,,,,,,,,,,,,US,,67cf70ec9741a100ffc7f570,old
758.7,,rt_thecrossant_black,2544311,black_plus_sign,,,,,49.0,,,1.0,0.962962963,,,,,,,,,,,,,,,,,,,,,,,,,,,,,US,,67cf70ec9741a100ffc7f570,old
,,color_black,2544416,black_plus_sign,,,,,,,,,,,,,,,,,,,,,,,,,,,,,,,,,,,,,,US,,67cf70ec9741a100ffc7f570,old
,,learn_phase(without_color),2546981,black_plus_sign,,,,,,US_Cities_List/nat_huntsville.png,US_Cities_List/mm_westpalmbeach.png,,,,,,,,,,,,,,,,,,,,,,,,,,,,,,,US,,67cf70ec9741a100ffc7f570,old
,,black_cross(without_color),2547752,green,,,,,,US_Cities_List/nat_huntsville.png,US_Cities_List/mm_westpalmbeach.png,,,,,,,,,,,,,,,,,,,,,,,,,,,,,,,US,,67cf70ec9741a100ffc7f570,old
,,rt_plussign_withcolor,2548254,green,,,,,,US_Cities_List/nat_huntsville.png,US_Cities_List/mm_westpalmbeach.png,,,,,,,,,,,,,,,,,,,,,,,,,,,,,,,US,,67cf70ec9741a100ffc7f570,old
682.0,,rt_thecrossant_black,2549490,black_plus_sign,,,,,50.0,,,1.0,0.963636364,,,,,,,,,,,,,,,,,,,,,,,,,,,,,US,,67cf70ec9741a100ffc7f570,old
,,color_black,2549594,black_plus_sign,,,,,,,,,,,,,,,,,,,,,,,,,,,,,,,,,,,,,,US,,67cf70ec9741a100ffc7f570,old
,,learn_phase(without_color),2552189,black_plus_sign,,,,,,US_Cities_List/nat_newhope.png,US_Cities_List/mm_hotsprings.png,,,,,,,,,,,,,,,,,,,,,,,,,,,,,,,US,,67cf70ec9741a100ffc7f570,old
,,black_cross(without_color),2553266,blue,,,,,,US_Cities_List/nat_newhope.png,US_Cities_List/mm_hotsprings.png,,,,,,,,,,,,,,,,,,,,,,,,,,,,,,,US,,67cf70ec9741a100ffc7f570,old
,,rt_plussign_withcolor,2553770,blue,,,,,,US_Cities_List/nat_newhope.png,US_Cities_List/mm_hotsprings.png,,,,,,,,,,,,,,,,,,,,,,,,,,,,,,,US,,67cf70ec9741a100ffc7f570,old
978.3,,rt_thecrossant_black,2554698,black_plus_sign,,,,,49.0,,,1.0,0.964285714,,,,,,,,,,,,,,,,,,,,,,,,,,,,,US,,67cf70ec9741a100ffc7f570,old
,,color_black,2554803,black_plus_sign,,,,,,,,,,,,,,,,,,,,,,,,,,,,,,,,,,,,,,US,,67cf70ec9741a100ffc7f570,old
,,learn_phase(without_color),2557386,black_plus_sign,,,,,,US_Cities_List/nat_huntsville.png,US_Cities_List/mm_westpalmbeach.png,,,,,,,,,,,,,,,,,,,,,,,,,,,,,,,US,,67cf70ec9741a100ffc7f570,old
,,black_cross(without_color),2558318,green,,,,,,US_Cities_List/nat_huntsville.png,US_Cities_List/mm_westpalmbeach.png,,,,,,,,,,,,,,,,,,,,,,,,,,,,,,,US,,67cf70ec9741a100ffc7f570,old
,,rt_plussign_withcolor,2558821,green,,,,,,US_Cities_List/nat_huntsville.png,US_Cities_List/mm_westpalmbeach.png,,,,,,,,,,,,,,,,,,,,,,,,,,,,,,,US,,67cf70ec9741a100ffc7f570,old
1361.5,,rt_thecrossant_black,2559896,black_plus_sign,,,,,50.0,,,1.0,0.964912281,,,,,,,,,,,,,,,,,,,,,,,,,,,,,US,,67cf70ec9741a100ffc7f570,old
,,color_black,2559999,black_plus_sign,,,,,,,,,,,,,,,,,,,,,,,,,,,,,,,,,,,,,,US,,67cf70ec9741a100ffc7f570,old
,,learn_phase(without_color),2562547,black_plus_sign,,,,,,US_Cities_List/mm_boulder.png,US_Cities_List/mm_shreveport.png,,,,,,,,,,,,,,,,,,,,,,,,,,,,,,,US,,67cf70ec9741a100ffc7f570,old
,,black_cross(without_color),2563374,green,,,,,,US_Cities_List/mm_boulder.png,US_Cities_List/mm_shreveport.png,,,,,,,,,,,,,,,,,,,,,,,,,,,,,,,US,,67cf70ec9741a100ffc7f570,old
,,rt_plussign_withcolor,2563877,green,,,,,,US_Cities_List/mm_boulder.png,US_Cities_List/mm_shreveport.png,,,,,,,,,,,,,,,,,,,,,,,,,,,,,,,US,,67cf70ec9741a100ffc7f570,old
1465.1,,rt_thecrossant_black,2565055,black_plus_sign,,,,,50.0,,,1.0,0.965517241,,,,,,,,,,,,,,,,,,,,,,,,,,,,,US,,67cf70ec9741a100ffc7f570,old
,,color_black,2565159,black_plus_sign,,,,,,,,,,,,,,,,,,,,,,,,,,,,,,,,,,,,,,US,,67cf70ec9741a100ffc7f570,old
,,learn_phase(without_color),2567733,black_plus_sign,,,,,,US_Cities_List/nat_peoria.png,US_Cities_List/mm_leesburg.png,,,,,,,,,,,,,,,,,,,,,,,,,,,,,,,US,,67cf70ec9741a100ffc7f570,old
,,black_cross(without_color),2568776,green,,,,,,US_Cities_List/nat_peoria.png,US_Cities_List/mm_leesburg.png,,,,,,,,,,,,,,,,,,,,,,,,,,,,,,,US,,67cf70ec9741a100ffc7f570,old
,,rt_plussign_withcolor,2569279,green,,,,,,US_Cities_List/nat_peoria.png,US_Cities_List/mm_leesburg.png,,,,,,,,,,,,,,,,,,,,,,,,,,,,,,,US,,67cf70ec9741a100ffc7f570,old
1131.7,,rt_thecrossant_black,2570243,black_plus_sign,,,,,50.0,,,1.0,0.966101695,,,,,,,,,,,,,,,,,,,,,,,,,,,,,US,,67cf70ec9741a100ffc7f570,old
,,color_black,2570346,black_plus_sign,,,,,,,,,,,,,,,,,,,,,,,,,,,,,,,,,,,,,,US,,67cf70ec9741a100ffc7f570,old
,,learn_phase(without_color),2572948,black_plus_sign,,,,,,US_Cities_List/nat_newhope.png,US_Cities_List/mm_hotsprings.png,,,,,,,,,,,,,,,,,,,,,,,,,,,,,,,US,,67cf70ec9741a100ffc7f570,old
,,black_cross(without_color),2573443,green,,,,,,US_Cities_List/nat_newhope.png,US_Cities_List/mm_hotsprings.png,,,,,,,,,,,,,,,,,,,,,,,,,,,,,,,US,,67cf70ec9741a100ffc7f570,old
485.9,,rt_plussign_withcolor,2573946,green,,,,,50.0,US_Cities_List/nat_newhope.png,US_Cities_List/mm_hotsprings.png,,,,,,,,,,,,,,,,,,,,,,,,,,,,,,,US,,67cf70ec9741a100ffc7f570,old
,,rt_thecrossant_black,2575457,black_plus_sign,,,,,,,,1.0,0.966666667,,,,,,,,,,,,,,,,,,,,,,,,,,,,,US,,67cf70ec9741a100ffc7f570,old
,,color_black,2575561,black_plus_sign,,,,,,,,,,,,,,,,,,,,,,,,,,,,,,,,,,,,,,US,,67cf70ec9741a100ffc7f570,old
,,learn_phase(without_color),2578142,black_plus_sign,,,,,,US_Cities_List/nat_huntsville.png,US_Cities_List/mm_leesburg.png,,,,,,,,,,,,,,,,,,,,,,,,,,,,,,,US,,67cf70ec9741a100ffc7f570,old
,,black_cross(without_color),2579061,blue,,,,,,US_Cities_List/nat_huntsville.png,US_Cities_List/mm_leesburg.png,,,,,,,,,,,,,,,,,,,,,,,,,,,,,,,US,,67cf70ec9741a100ffc7f570,old
,,rt_plussign_withcolor,2579564,blue,,,,,,US_Cities_List/nat_huntsville.png,US_Cities_List/mm_leesburg.png,,,,,,,,,,,,,,,,,,,,,,,,,,,,,,,US,,67cf70ec9741a100ffc7f570,old
,,rt_thecrossant_black,2580652,black_plus_sign,,,,,,,,,0.966666667,,,,,,,,,,,,,,,,,,,,,,,,,,,,,US,,67cf70ec9741a100ffc7f570,old
,,color_black,2580755,black_plus_sign,,,,,,,,,,,,,,,,,,,,,,,,,,,,,,,,,,,,,,US,,67cf70ec9741a100ffc7f570,old
,,learn_phase(without_color),2583333,black_plus_sign,,,,,,US_Cities_List/nat_hanover.png,US_Cities_List/mm_leesburg.png,,,,,,,,,,,,,,,,,,,,,,,,,,,,,,,US,,67cf70ec9741a100ffc7f570,old
,,black_cross(without_color),2584035,green,,,,,,US_Cities_List/nat_hanover.png,US_Cities_List/mm_leesburg.png,,,,,,,,,,,,,,,,,,,,,,,,,,,,,,,US,,67cf70ec9741a100ffc7f570,old
,,rt_plussign_withcolor,2584538,green,,,,,,US_Cities_List/nat_hanover.png,US_Cities_List/mm_leesburg.png,,,,,,,,,,,,,,,,,,,,,,,,,,,,,,,US,,67cf70ec9741a100ffc7f570,old
1185.1,,rt_thecrossant_black,2585842,black_plus_sign,,,,,50.0,,,1.0,0.967213115,,,,,,,,,,,,,,,,,,,,,,,,,,,,,US,,67cf70ec9741a100ffc7f570,old
,,color_black,2585947,black_plus_sign,,,,,,,,,,,,,,,,,,,,,,,,,,,,,,,,,,,,,,US,,67cf70ec9741a100ffc7f570,old
,,learn_phase(without_color),2588532,black_plus_sign,,,,,,US_Cities_List/nat_peoria.png,US_Cities_List/nat_huntsville.png,,,,,,,,,,,,,,,,,,,,,,,,,,,,,,,US,,67cf70ec9741a100ffc7f570,old
,,black_cross(without_color),2589124,green,,,,,,US_Cities_List/nat_peoria.png,US_Cities_List/nat_huntsville.png,,,,,,,,,,,,,,,,,,,,,,,,,,,,,,,US,,67cf70ec9741a100ffc7f570,old
,,rt_plussign_withcolor,2589627,green,,,,,,US_Cities_List/nat_peoria.png,US_Cities_List/nat_huntsville.png,,,,,,,,,,,,,,,,,,,,,,,,,,,,,,,US,,67cf70ec9741a100ffc7f570,old
866.5,,rt_thecrossant_black,2591044,black_plus_sign,,,,,50.0,,,1.0,0.967741935,,,,,,,,,,,,,,,,,,,,,,,,,,,,,US,,67cf70ec9741a100ffc7f570,old
,,color_black,2591147,black_plus_sign,,,,,,,,,,,,,,,,,,,,,,,,,,,,,,,,,,,,,,US,,67cf70ec9741a100ffc7f570,old
,,learn_phase(without_color),2593690,black_plus_sign,,,,,,US_Cities_List/nat_gatlinburg.png,US_Cities_List/mm_boulder.png,,,,,,,,,,,,,,,,,,,,,,,,,,,,,,,US,,67cf70ec9741a100ffc7f570,old
,,black_cross(without_color),2594391,green,,,,,,US_Cities_List/nat_gatlinburg.png,US_Cities_List/mm_boulder.png,,,,,,,,,,,,,,,,,,,,,,,,,,,,,,,US,,67cf70ec9741a100ffc7f570,old
,,rt_plussign_withcolor,2594894,green,,,,,,US_Cities_List/nat_gatlinburg.png,US_Cities_List/mm_boulder.png,,,,,,,,,,,,,,,,,,,,,,,,,,,,,,,US,,67cf70ec9741a100ffc7f570,old
913.1,,rt_thecrossant_black,2596199,black_plus_sign,,,,,50.0,,,1.0,0.968253968,,,,,,,,,,,,,,,,,,,,,,,,,,,,,US,,67cf70ec9741a100ffc7f570,old
,,color_black,2596303,black_plus_sign,,,,,,,,,,,,,,,,,,,,,,,,,,,,,,,,,,,,,,US,,67cf70ec9741a100ffc7f570,old
,,learn_phase(without_color),2598885,black_plus_sign,,,,,,US_Cities_List/mm_carmel.png,US_Cities_List/nat_racine.png,,,,,,,,,,,,,,,,,,,,,,,,,,,,,,,US,,67cf70ec9741a100ffc7f570,old
,,black_cross(without_color),2599863,blue,,,,,,US_Cities_List/mm_carmel.png,US_Cities_List/nat_racine.png,,,,,,,,,,,,,,,,,,,,,,,,,,,,,,,US,,67cf70ec9741a100ffc7f570,old
,,rt_plussign_withcolor,2600366,blue,,,,,,US_Cities_List/mm_carmel.png,US_Cities_List/nat_racine.png,,,,,,,,,,,,,,,,,,,,,,,,,,,,,,,US,,67cf70ec9741a100ffc7f570,old
874.4,,rt_thecrossant_black,2601394,black_plus_sign,,,,,49.0,,,1.0,0.96875,,,,,,,,,,,,,,,,,,,,,,,,,,,,,US,,67cf70ec9741a100ffc7f570,old
,,color_black,2601498,black_plus_sign,,,,,,,,,,,,,,,,,,,,,,,,,,,,,,,,,,,,,,US,,67cf70ec9741a100ffc7f570,old
,,learn_phase(without_color),2604100,black_plus_sign,,,,,,US_Cities_List/mm_shreveport.png,US_Cities_List/nat_peoria.png,,,,,,,,,,,,,,,,,,,,,,,,,,,,,,,US,,67cf70ec9741a100ffc7f570,old
,,black_cross(without_color),2605026,blue,,,,,,US_Cities_List/mm_shreveport.png,US_Cities_List/nat_peoria.png,,,,,,,,,,,,,,,,,,,,,,,,,,,,,,,US,,67cf70ec9741a100ffc7f570,old
,,rt_plussign_withcolor,2605529,blue,,,,,,US_Cities_List/mm_shreveport.png,US_Cities_List/nat_peoria.png,,,,,,,,,,,,,,,,,,,,,,,,,,,,,,,US,,67cf70ec9741a100ffc7f570,old
1162.8,,rt_thecrossant_black,2606609,black_plus_sign,,,,,49.0,,,1.0,0.969230769,,,,,,,,,,,,,,,,,,,,,,,,,,,,,US,,67cf70ec9741a100ffc7f570,old
,,color_black,2606713,black_plus_sign,,,,,,,,,,,,,,,,,,,,,,,,,,,,,,,,,,,,,,US,,67cf70ec9741a100ffc7f570,old
,,learn_phase(without_color),2609330,black_plus_sign,,,,,,US_Cities_List/mm_shreveport.png,US_Cities_List/nat_newhope.png,,,,,,,,,,,,,,,,,,,,,,,,,,,,,,,US,,67cf70ec9741a100ffc7f570,old
,,black_cross(without_color),2610165,green,,,,,,US_Cities_List/mm_shreveport.png,US_Cities_List/nat_newhope.png,,,,,,,,,,,,,,,,,,,,,,,,,,,,,,,US,,67cf70ec9741a100ffc7f570,old
476.9,,rt_plussign_withcolor,2610667,green,,,,,50.0,US_Cities_List/mm_shreveport.png,US_Cities_List/nat_newhope.png,,,,,,,,,,,,,,,,,,,,,,,,,,,,,,,US,,67cf70ec9741a100ffc7f570,old
,,rt_thecrossant_black,2611841,black_plus_sign,,,,,,,,1.0,0.96969697,,,,,,,,,,,,,,,,,,,,,,,,,,,,,US,,67cf70ec9741a100ffc7f570,old
,,color_black,2611944,black_plus_sign,,,,,,,,,,,,,,,,,,,,,,,,,,,,,,,,,,,,,,US,,67cf70ec9741a100ffc7f570,old
,,learn_phase(without_color),2614506,black_plus_sign,,,,,,US_Cities_List/mm_shreveport.png,US_Cities_List/nat_peoria.png,,,,,,,,,,,,,,,,,,,,,,,,,,,,,,,US,,67cf70ec9741a100ffc7f570,old
,,black_cross(without_color),2615022,green,,,,,,US_Cities_List/mm_shreveport.png,US_Cities_List/nat_peoria.png,,,,,,,,,,,,,,,,,,,,,,,,,,,,,,,US,,67cf70ec9741a100ffc7f570,old
,,rt_plussign_withcolor,2615524,green,,,,,,US_Cities_List/mm_shreveport.png,US_Cities_List/nat_peoria.png,,,,,,,,,,,,,,,,,,,,,,,,,,,,,,,US,,67cf70ec9741a100ffc7f570,old
968.4,,rt_thecrossant_black,2617028,black_plus_sign,,,,,50.0,,,1.0,0.970149254,,,,,,,,,,,,,,,,,,,,,,,,,,,,,US,,67cf70ec9741a100ffc7f570,old
,,color_black,2617138,black_plus_sign,,,,,,,,,,,,,,,,,,,,,,,,,,,,,,,,,,,,,,US,,67cf70ec9741a100ffc7f570,old
,,learn_phase(without_color),2619721,black_plus_sign,,,,,,US_Cities_List/nat_huntsville.png,US_Cities_List/nat_hanover.png,,,,,,,,,,,,,,,,,,,,,,,,,,,,,,,US,,67cf70ec9741a100ffc7f570,old
,,black_cross(without_color),2620398,green,,,,,,US_Cities_List/nat_huntsville.png,US_Cities_List/nat_hanover.png,,,,,,,,,,,,,,,,,,,,,,,,,,,,,,,US,,67cf70ec9741a100ffc7f570,old
,,rt_plussign_withcolor,2620902,green,,,,,,US_Cities_List/nat_huntsville.png,US_Cities_List/nat_hanover.png,,,,,,,,,,,,,,,,,,,,,,,,,,,,,,,US,,67cf70ec9741a100ffc7f570,old
623.3,,rt_thecrossant_black,2622233,black_plus_sign,,,,,50.0,,,1.0,0.970588235,,,,,,,,,,,,,,,,,,,,,,,,,,,,,US,,67cf70ec9741a100ffc7f570,old
,,color_black,2622338,black_plus_sign,,,,,,,,,,,,,,,,,,,,,,,,,,,,,,,,,,,,,,US,,67cf70ec9741a100ffc7f570,old
,,learn_phase(without_color),2624915,black_plus_sign,,,,,,US_Cities_List/nat_hanover.png,US_Cities_List/nat_cornwall.png,,,,,,,,,,,,,,,,,,,,,,,,,,,,,,,US,,67cf70ec9741a100ffc7f570,old
,,black_cross(without_color),2625512,blue,,,,,,US_Cities_List/nat_hanover.png,US_Cities_List/nat_cornwall.png,,,,,,,,,,,,,,,,,,,,,,,,,,,,,,,US,,67cf70ec9741a100ffc7f570,old
,,rt_plussign_withcolor,2626015,blue,,,,,,US_Cities_List/nat_hanover.png,US_Cities_List/nat_cornwall.png,,,,,,,,,,,,,,,,,,,,,,,,,,,,,,,US,,67cf70ec9741a100ffc7f570,old
995.0,,rt_thecrossant_black,2627425,black_plus_sign,,,,,49.0,,,1.0,0.971014493,,,,,,,,,,,,,,,,,,,,,,,,,,,,,US,,67cf70ec9741a100ffc7f570,old
,,color_black,2627529,black_plus_sign,,,,,,,,,,,,,,,,,,,,,,,,,,,,,,,,,,,,,,US,,67cf70ec9741a100ffc7f570,old
,,learn_phase(without_color),2630110,black_plus_sign,,,,,,US_Cities_List/nat_gatlinburg.png,US_Cities_List/mm_boulder.png,,,,,,,,,,,,,,,,,,,,,,,,,,,,,,,US,,67cf70ec9741a100ffc7f570,old
,,black_cross(without_color),2630595,green,,,,,,US_Cities_List/nat_gatlinburg.png,US_Cities_List/mm_boulder.png,,,,,,,,,,,,,,,,,,,,,,,,,,,,,,,US,,67cf70ec9741a100ffc7f570,old
,,rt_plussign_withcolor,2631098,green,,,,,,US_Cities_List/nat_gatlinburg.png,US_Cities_List/mm_boulder.png,,,,,,,,,,,,,,,,,,,,,,,,,,,,,,,US,,67cf70ec9741a100ffc7f570,old
724.6,,rt_thecrossant_black,2632619,black_plus_sign,,,,,50.0,,,1.0,0.971428571,,,,,,,,,,,,,,,,,,,,,,,,,,,,,US,,67cf70ec9741a100ffc7f570,old
,,color_black,2632723,black_plus_sign,,,,,,,,,,,,,,,,,,,,,,,,,,,,,,,,,,,,,,US,,67cf70ec9741a100ffc7f570,old
,,learn_phase(without_color),2635320,black_plus_sign,,,,,,US_Cities_List/mm_boulder.png,US_Cities_List/mm_carmel.png,,,,,,,,,,,,,,,,,,,,,,,,,,,,,,,US,,67cf70ec9741a100ffc7f570,old
,,black_cross(without_color),2635732,green,,,,,,US_Cities_List/mm_boulder.png,US_Cities_List/mm_carmel.png,,,,,,,,,,,,,,,,,,,,,,,,,,,,,,,US,,67cf70ec9741a100ffc7f570,old
,,rt_plussign_withcolor,2636234,green,,,,,,US_Cities_List/mm_boulder.png,US_Cities_List/mm_carmel.png,,,,,,,,,,,,,,,,,,,,,,,,,,,,,,,US,,67cf70ec9741a100ffc7f570,old
605.7,,rt_thecrossant_black,2637827,black_plus_sign,,,,,50.0,,,1.0,0.971830986,,,,,,,,,,,,,,,,,,,,,,,,,,,,,US,,67cf70ec9741a100ffc7f570,old
,,color_black,2637931,black_plus_sign,,,,,,,,,,,,,,,,,,,,,,,,,,,,,,,,,,,,,,US,,67cf70ec9741a100ffc7f570,old
,,learn_phase(without_color),2640531,black_plus_sign,,,,,,US_Cities_List/nat_hanover.png,US_Cities_List/nat_cornwall.png,,,,,,,,,,,,,,,,,,,,,,,,,,,,,,,US,,67cf70ec9741a100ffc7f570,old
,,black_cross(without_color),2641474,blue,,,,,,US_Cities_List/nat_hanover.png,US_Cities_List/nat_cornwall.png,,,,,,,,,,,,,,,,,,,,,,,,,,,,,,,US,,67cf70ec9741a100ffc7f570,old
454.1,,rt_plussign_withcolor,2641977,blue,,,,,49.0,US_Cities_List/nat_hanover.png,US_Cities_List/nat_cornwall.png,,,,,,,,,,,,,,,,,,,,,,,,,,,,,,,US,,67cf70ec9741a100ffc7f570,old
,,rt_thecrossant_black,2643040,black_plus_sign,,,,,,,,1.0,0.972222222,,,,,,,,,,,,,,,,,,,,,,,,,,,,,US,,67cf70ec9741a100ffc7f570,old
,,color_black,2643143,black_plus_sign,,,,,,,,,,,,,,,,,,,,,,,,,,,,,,,,,,,,,,US,,67cf70ec9741a100ffc7f570,old
,,learn_phase(without_color),2645726,black_plus_sign,,,,,,US_Cities_List/nat_newhope.png,US_Cities_List/mm_hotsprings.png,,,,,,,,,,,,,,,,,,,,,,,,,,,,,,,US,,67cf70ec9741a100ffc7f570,old
,,black_cross(without_color),2646571,green,,,,,,US_Cities_List/nat_newhope.png,US_Cities_List/mm_hotsprings.png,,,,,,,,,,,,,,,,,,,,,,,,,,,,,,,US,,67cf70ec9741a100ffc7f570,old
,,rt_plussign_withcolor,2647075,green,,,,,,US_Cities_List/nat_newhope.png,US_Cities_List/mm_hotsprings.png,,,,,,,,,,,,,,,,,,,,,,,,,,,,,,,US,,67cf70ec9741a100ffc7f570,old
1086.5,,rt_thecrossant_black,2648238,black_plus_sign,,,,,50.0,,,1.0,0.97260274,,,,,,,,,,,,,,,,,,,,,,,,,,,,,US,,67cf70ec9741a100ffc7f570,old
,,color_black,2648342,black_plus_sign,,,,,,,,,,,,,,,,,,,,,,,,,,,,,,,,,,,,,,US,,67cf70ec9741a100ffc7f570,old
,,learn_phase(without_color),2650949,black_plus_sign,,,,,,US_Cities_List/nat_hanover.png,US_Cities_List/nat_cornwall.png,,,,,,,,,,,,,,,,,,,,,,,,,,,,,,,US,,67cf70ec9741a100ffc7f570,old
,,black_cross(without_color),2651426,green,,,,,,US_Cities_List/nat_hanover.png,US_Cities_List/nat_cornwall.png,,,,,,,,,,,,,,,,,,,,,,,,,,,,,,,US,,67cf70ec9741a100ffc7f570,old
,,rt_plussign_withcolor,2651929,green,,,,,,US_Cities_List/nat_hanover.png,US_Cities_List/nat_cornwall.png,,,,,,,,,,,,,,,,,,,,,,,,,,,,,,,US,,67cf70ec9741a100ffc7f570,old
1058.1,,rt_thecrossant_black,2653459,black_plus_sign,,,,,50.0,,,1.0,0.972972973,,,,,,,,,,,,,,,,,,,,,,,,,,,,,US,,67cf70ec9741a100ffc7f570,old
,,color_black,2653566,black_plus_sign,,,,,,,,,,,,,,,,,,,,,,,,,,,,,,,,,,,,,,US,,67cf70ec9741a100ffc7f570,old
,,learn_phase(without_color),2656174,black_plus_sign,,,,,,US_Cities_List/nat_gatlinburg.png,US_Cities_List/mm_boulder.png,,,,,,,,,,,,,,,,,,,,,,,,,,,,,,,US,,67cf70ec9741a100ffc7f570,old
,,black_cross(without_color),2656866,green,,,,,,US_Cities_List/nat_gatlinburg.png,US_Cities_List/mm_boulder.png,,,,,,,,,,,,,,,,,,,,,,,,,,,,,,,US,,67cf70ec9741a100ffc7f570,old
,,rt_plussign_withcolor,2657369,green,,,,,,US_Cities_List/nat_gatlinburg.png,US_Cities_List/mm_boulder.png,,,,,,,,,,,,,,,,,,,,,,,,,,,,,,,US,,67cf70ec9741a100ffc7f570,old
607.1,,rt_thecrossant_black,2658685,black_plus_sign,,,,,50.0,,,1.0,0.973333333,,,,,,,,,,,,,,,,,,,,,,,,,,,,,US,,67cf70ec9741a100ffc7f570,old
,,color_black,2658789,black_plus_sign,,,,,,,,,,,,,,,,,,,,,,,,,,,,,,,,,,,,,,US,,67cf70ec9741a100ffc7f570,old
,,learn_phase(without_color),2661410,black_plus_sign,,,,,,US_Cities_List/nat_hanover.png,US_Cities_List/nat_cornwall.png,,,,,,,,,,,,,,,,,,,,,,,,,,,,,,,US,,67cf70ec9741a100ffc7f570,old
,,black_cross(without_color),2661836,blue,,,,,,US_Cities_List/nat_hanover.png,US_Cities_List/nat_cornwall.png,,,,,,,,,,,,,,,,,,,,,,,,,,,,,,,US,,67cf70ec9741a100ffc7f570,old
,,rt_plussign_withcolor,2662340,blue,,,,,,US_Cities_List/nat_hanover.png,US_Cities_List/nat_cornwall.png,,,,,,,,,,,,,,,,,,,,,,,,,,,,,,,US,,67cf70ec9741a100ffc7f570,old
828.9,,rt_thecrossant_black,2663922,black_plus_sign,,,,,49.0,,,1.0,0.973684211,,,,,,,,,,,,,,,,,,,,,,,,,,,,,US,,67cf70ec9741a100ffc7f570,old
,,color_black,2664026,black_plus_sign,,,,,,,,,,,,,,,,,,,,,,,,,,,,,,,,,,,,,,US,,67cf70ec9741a100ffc7f570,old
,,learn_phase(without_color),2666608,black_plus_sign,,,,,,US_Cities_List/mm_leesburg.png,US_Cities_List/nat_newhope.png,,,,,,,,,,,,,,,,,,,,,,,,,,,,,,,US,,67cf70ec9741a100ffc7f570,old
,,black_cross(without_color),2667154,green,,,,,,US_Cities_List/mm_leesburg.png,US_Cities_List/nat_newhope.png,,,,,,,,,,,,,,,,,,,,,,,,,,,,,,,US,,67cf70ec9741a100ffc7f570,old
,,rt_plussign_withcolor,2667658,green,,,,,,US_Cities_List/mm_leesburg.png,US_Cities_List/nat_newhope.png,,,,,,,,,,,,,,,,,,,,,,,,,,,,,,,US,,67cf70ec9741a100ffc7f570,old
672.2,,rt_thecrossant_black,2669120,black_plus_sign,,,,,50.0,,,1.0,0.974025974,,,,,,,,,,,,,,,,,,,,,,,,,,,,,US,,67cf70ec9741a100ffc7f570,old
,,color_black,2669224,black_plus_sign,,,,,,,,,,,,,,,,,,,,,,,,,,,,,,,,,,,,,,US,,67cf70ec9741a100ffc7f570,old
,,learn_phase(without_color),2671807,black_plus_sign,,,,,,US_Cities_List/nat_peoria.png,US_Cities_List/nat_huntsville.png,,,,,,,,,,,,,,,,,,,,,,,,,,,,,,,US,,67cf70ec9741a100ffc7f570,old
,,black_cross(without_color),2672488,blue,,,,,,US_Cities_List/nat_peoria.png,US_Cities_List/nat_huntsville.png,,,,,,,,,,,,,,,,,,,,,,,,,,,,,,,US,,67cf70ec9741a100ffc7f570,old
,,rt_plussign_withcolor,2672992,blue,,,,,,US_Cities_List/nat_peoria.png,US_Cities_List/nat_huntsville.png,,,,,,,,,,,,,,,,,,,,,,,,,,,,,,,US,,67cf70ec9741a100ffc7f570,old
725.6,,rt_thecrossant_black,2674319,black_plus_sign,,,,,49.0,,,1.0,0.974358974,,,,,,,,,,,,,,,,,,,,,,,,,,,,,US,,67cf70ec9741a100ffc7f570,old
,,color_black,2674423,black_plus_sign,,,,,,,,,,,,,,,,,,,,,,,,,,,,,,,,,,,,,,US,,67cf70ec9741a100ffc7f570,old
,,learn_phase(without_color),2677013,black_plus_sign,,,,,,US_Cities_List/mm_boulder.png,US_Cities_List/mm_shreveport.png,,,,,,,,,,,,,,,,,,,,,,,,,,,,,,,US,,67cf70ec9741a100ffc7f570,old
,,black_cross(without_color),2677432,green,,,,,,US_Cities_List/mm_boulder.png,US_Cities_List/mm_shreveport.png,,,,,,,,,,,,,,,,,,,,,,,,,,,,,,,US,,67cf70ec9741a100ffc7f570,old
492.3,,rt_plussign_withcolor,2677935,green,,,,,50.0,US_Cities_List/mm_boulder.png,US_Cities_List/mm_shreveport.png,,,,,,,,,,,,,,,,,,,,,,,,,,,,,,,US,,67cf70ec9741a100ffc7f570,old
,,rt_thecrossant_black,2679522,black_plus_sign,,,,,,,,1.0,0.974683544,,,,,,,,,,,,,,,,,,,,,,,,,,,,,US,,67cf70ec9741a100ffc7f570,old
,,color_black,2679625,black_plus_sign,,,,,,,,,,,,,,,,,,,,,,,,,,,,,,,,,,,,,,US,,67cf70ec9741a100ffc7f570,old
,,learn_phase(without_color),2682186,black_plus_sign,,,,,,US_Cities_List/nat_gatlinburg.png,US_Cities_List/mm_boulder.png,,,,,,,,,,,,,,,,,,,,,,,,,,,,,,,US,,67cf70ec9741a100ffc7f570,old
,,black_cross(without_color),2682705,green,,,,,,US_Cities_List/nat_gatlinburg.png,US_Cities_List/mm_boulder.png,,,,,,,,,,,,,,,,,,,,,,,,,,,,,,,US,,67cf70ec9741a100ffc7f570,old
,,rt_plussign_withcolor,2683208,green,,,,,,US_Cities_List/nat_gatlinburg.png,US_Cities_List/mm_boulder.png,,,,,,,,,,,,,,,,,,,,,,,,,,,,,,,US,,67cf70ec9741a100ffc7f570,old
650.9,,rt_thecrossant_black,2684696,black_plus_sign,,,,,50.0,,,1.0,0.975,,,,,,,,,,,,,,,,,,,,,,,,,,,,,US,,67cf70ec9741a100ffc7f570,old
,,color_black,2684800,black_plus_sign,,,,,,,,,,,,,,,,,,,,,,,,,,,,,,,,,,,,,,US,,67cf70ec9741a100ffc7f570,old
,,learn_phase(without_color),2687398,black_plus_sign,,,,,,US_Cities_List/nat_huntsville.png,US_Cities_List/nat_hanover.png,,,,,,,,,,,,,,,,,,,,,,,,,,,,,,,US,,67cf70ec9741a100ffc7f570,old
,,black_cross(without_color),2688030,green,,,,,,US_Cities_List/nat_huntsville.png,US_Cities_List/nat_hanover.png,,,,,,,,,,,,,,,,,,,,,,,,,,,,,,,US,,67cf70ec9741a100ffc7f570,old
,,rt_plussign_withcolor,2688533,green,,,,,,US_Cities_List/nat_huntsville.png,US_Cities_List/nat_hanover.png,,,,,,,,,,,,,,,,,,,,,,,,,,,,,,,US,,67cf70ec9741a100ffc7f570,old
638.4,,rt_thecrossant_black,2689908,black_plus_sign,,,,,49.0,,,0.0,0.962962963,,,,,,,,,,,,,,,,,,,,,,,,,,,,,US,,67cf70ec9741a100ffc7f570,old
,,color_black,2690012,black_plus_sign,,,,,,,,,,,,,,,,,,,,,,,,,,,,,,,,,,,,,,US,,67cf70ec9741a100ffc7f570,old
,,learn_phase(without_color),2692599,black_plus_sign,,,,,,US_Cities_List/mm_carmel.png,US_Cities_List/nat_racine.png,,,,,,,,,,,,,,,,,,,,,,,,,,,,,,,US,,67cf70ec9741a100ffc7f570,old
,,black_cross(without_color),2693495,blue,,,,,,US_Cities_List/mm_carmel.png,US_Cities_List/nat_racine.png,,,,,,,,,,,,,,,,,,,,,,,,,,,,,,,US,,67cf70ec9741a100ffc7f570,old
,,rt_plussign_withcolor,2693998,blue,,,,,,US_Cities_List/mm_carmel.png,US_Cities_List/nat_racine.png,,,,,,,,,,,,,,,,,,,,,,,,,,,,,,,US,,67cf70ec9741a100ffc7f570,old
789.8,,rt_thecrossant_black,2695108,black_plus_sign,,,,,49.0,,,1.0,0.963414634,,,,,,,,,,,,,,,,,,,,,,,,,,,,,US,,67cf70ec9741a100ffc7f570,old
,,color_black,2695211,black_plus_sign,,,,,,,,,,,,,,,,,,,,,,,,,,,,,,,,,,,,,,US,,67cf70ec9741a100ffc7f570,old
,,learn_phase(without_color),2697819,black_plus_sign,,,,,,US_Cities_List/nat_huntsville.png,US_Cities_List/mm_westpalmbeach.png,,,,,,,,,,,,,,,,,,,,,,,,,,,,,,,US,,67cf70ec9741a100ffc7f570,old
,,black_cross(without_color),2698480,green,,,,,,US_Cities_List/nat_huntsville.png,US_Cities_List/mm_westpalmbeach.png,,,,,,,,,,,,,,,,,,,,,,,,,,,,,,,US,,67cf70ec9741a100ffc7f570,old
,,rt_plussign_withcolor,2698982,green,,,,,,US_Cities_List/nat_huntsville.png,US_Cities_List/mm_westpalmbeach.png,,,,,,,,,,,,,,,,,,,,,,,,,,,,,,,US,,67cf70ec9741a100ffc7f570,old
1089.5,,rt_thecrossant_black,2700328,black_plus_sign,,,,,50.0,,,1.0,0.963855422,,,,,,,,,,,,,,,,,,,,,,,,,,,,,US,,67cf70ec9741a100ffc7f570,old
,,color_black,2700432,black_plus_sign,,,,,,,,,,,,,,,,,,,,,,,,,,,,,,,,,,,,,,US,,67cf70ec9741a100ffc7f570,old
,,learn_phase(without_color),2703021,black_plus_sign,,,,,,US_Cities_List/nat_hanover.png,US_Cities_List/mm_leesburg.png,,,,,,,,,,,,,,,,,,,,,,,,,,,,,,,US,,67cf70ec9741a100ffc7f570,old
,,black_cross(without_color),2703730,green,,,,,,US_Cities_List/nat_hanover.png,US_Cities_List/mm_leesburg.png,,,,,,,,,,,,,,,,,,,,,,,,,,,,,,,US,,67cf70ec9741a100ffc7f570,old
,,rt_plussign_withcolor,2704233,green,,,,,,US_Cities_List/nat_hanover.png,US_Cities_List/mm_leesburg.png,,,,,,,,,,,,,,,,,,,,,,,,,,,,,,,US,,67cf70ec9741a100ffc7f570,old
793.8,,rt_thecrossant_black,2705531,black_plus_sign,,,,,50.0,,,1.0,0.964285714,,,,,,,,,,,,,,,,,,,,,,,,,,,,,US,,67cf70ec9741a100ffc7f570,old
,,color_black,2705635,black_plus_sign,,,,,,,,,,,,,,,,,,,,,,,,,,,,,,,,,,,,,,US,,67cf70ec9741a100ffc7f570,old
,,learn_phase(without_color),2708244,black_plus_sign,,,,,,US_Cities_List/mm_carmel.png,US_Cities_List/nat_racine.png,,,,,,,,,,,,,,,,,,,,,,,,,,,,,,,US,,67cf70ec9741a100ffc7f570,old
,,black_cross(without_color),2708795,blue,,,,,,US_Cities_List/mm_carmel.png,US_Cities_List/nat_racine.png,,,,,,,,,,,,,,,,,,,,,,,,,,,,,,,US,,67cf70ec9741a100ffc7f570,old
,,rt_plussign_withcolor,2709298,blue,,,,,,US_Cities_List/mm_carmel.png,US_Cities_List/nat_racine.png,,,,,,,,,,,,,,,,,,,,,,,,,,,,,,,US,,67cf70ec9741a100ffc7f570,old
913.9,,rt_thecrossant_black,2710754,black_plus_sign,,,,,49.0,,,1.0,0.964705882,,,,,,,,,,,,,,,,,,,,,,,,,,,,,US,,67cf70ec9741a100ffc7f570,old
,,color_black,2710857,black_plus_sign,,,,,,,,,,,,,,,,,,,,,,,,,,,,,,,,,,,,,,US,,67cf70ec9741a100ffc7f570,old
,,learn_phase(without_color),2713444,black_plus_sign,,,,,,US_Cities_List/nat_huntsville.png,US_Cities_List/mm_westpalmbeach.png,,,,,,,,,,,,,,,,,,,,,,,,,,,,,,,US,,67cf70ec9741a100ffc7f570,old
,,black_cross(without_color),2714190,green,,,,,,US_Cities_List/nat_huntsville.png,US_Cities_List/mm_westpalmbeach.png,,,,,,,,,,,,,,,,,,,,,,,,,,,,,,,US,,67cf70ec9741a100ffc7f570,old
491.1,,rt_plussign_withcolor,2714693,green,,,,,50.0,US_Cities_List/nat_huntsville.png,US_Cities_List/mm_westpalmbeach.png,,,,,,,,,,,,,,,,,,,,,,,,,,,,,,,US,,67cf70ec9741a100ffc7f570,old
,,rt_thecrossant_black,2715954,black_plus_sign,,,,,,,,1.0,0.965116279,,,,,,,,,,,,,,,,,,,,,,,,,,,,,US,,67cf70ec9741a100ffc7f570,old
,,color_black,2716058,black_plus_sign,,,,,,,,,,,,,,,,,,,,,,,,,,,,,,,,,,,,,,US,,67cf70ec9741a100ffc7f570,old
,,learn_phase(without_color),2718663,black_plus_sign,,,,,,US_Cities_List/mm_carmel.png,US_Cities_List/mm_hotsprings.png,,,,,,,,,,,,,,,,,,,,,,,,,,,,,,,US,,67cf70ec9741a100ffc7f570,old
,,black_cross(without_color),2719487,blue,,,,,,US_Cities_List/mm_carmel.png,US_Cities_List/mm_hotsprings.png,,,,,,,,,,,,,,,,,,,,,,,,,,,,,,,US,,67cf70ec9741a100ffc7f570,old
,,rt_plussign_withcolor,2719991,blue,,,,,,US_Cities_List/mm_carmel.png,US_Cities_List/mm_hotsprings.png,,,,,,,,,,,,,,,,,,,,,,,,,,,,,,,US,,67cf70ec9741a100ffc7f570,old
843.4,,rt_thecrossant_black,2721180,black_plus_sign,,,,,49.0,,,1.0,0.965517241,,,,,,,,,,,,,,,,,,,,,,,,,,,,,US,,67cf70ec9741a100ffc7f570,old
,,color_black,2721283,black_plus_sign,,,,,,,,,,,,,,,,,,,,,,,,,,,,,,,,,,,,,,US,,67cf70ec9741a100ffc7f570,old
,,learn_phase(without_color),2723876,black_plus_sign,,,,,,US_Cities_List/mm_shreveport.png,US_Cities_List/nat_newhope.png,,,,,,,,,,,,,,,,,,,,,,,,,,,,,,,US,,67cf70ec9741a100ffc7f570,old
,,black_cross(without_color),2724522,green,,,,,,US_Cities_List/mm_shreveport.png,US_Cities_List/nat_newhope.png,,,,,,,,,,,,,,,,,,,,,,,,,,,,,,,US,,67cf70ec9741a100ffc7f570,old
,,rt_plussign_withcolor,2725025,green,,,,,,US_Cities_List/mm_shreveport.png,US_Cities_List/nat_newhope.png,,,,,,,,,,,,,,,,,,,,,,,,,,,,,,,US,,67cf70ec9741a100ffc7f570,old
1019.4,,rt_thecrossant_black,2726387,black_plus_sign,,,,,50.0,,,1.0,0.965909091,,,,,,,,,,,,,,,,,,,,,,,,,,,,,US,,67cf70ec9741a100ffc7f570,old
,,color_black,2726491,black_plus_sign,,,,,,,,,,,,,,,,,,,,,,,,,,,,,,,,,,,,,,US,,67cf70ec9741a100ffc7f570,old
,,learn_phase(without_color),2729092,black_plus_sign,,,,,,US_Cities_List/mm_boulder.png,US_Cities_List/mm_shreveport.png,,,,,,,,,,,,,,,,,,,,,,,,,,,,,,,US,,67cf70ec9741a100ffc7f570,old
,,black_cross(without_color),2730065,blue,,,,,,US_Cities_List/mm_boulder.png,US_Cities_List/mm_shreveport.png,,,,,,,,,,,,,,,,,,,,,,,,,,,,,,,US,,67cf70ec9741a100ffc7f570,old
,,rt_plussign_withcolor,2730568,blue,,,,,,US_Cities_List/mm_boulder.png,US_Cities_List/mm_shreveport.png,,,,,,,,,,,,,,,,,,,,,,,,,,,,,,,US,,67cf70ec9741a100ffc7f570,old
861.5,,rt_thecrossant_black,2731607,black_plus_sign,,,,,49.0,,,1.0,0.966292135,,,,,,,,,,,,,,,,,,,,,,,,,,,,,US,,67cf70ec9741a100ffc7f570,old
,,color_black,2731711,black_plus_sign,,,,,,,,,,,,,,,,,,,,,,,,,,,,,,,,,,,,,,US,,67cf70ec9741a100ffc7f570,old
,,learn_phase(without_color),2734308,black_plus_sign,,,,,,US_Cities_List/nat_huntsville.png,US_Cities_List/mm_leesburg.png,,,,,,,,,,,,,,,,,,,,,,,,,,,,,,,US,,67cf70ec9741a100ffc7f570,old
,,black_cross(without_color),2735258,green,,,,,,US_Cities_List/nat_huntsville.png,US_Cities_List/mm_leesburg.png,,,,,,,,,,,,,,,,,,,,,,,,,,,,,,,US,,67cf70ec9741a100ffc7f570,old
,,rt_plussign_withcolor,2735761,green,,,,,,US_Cities_List/nat_huntsville.png,US_Cities_List/mm_leesburg.png,,,,,,,,,,,,,,,,,,,,,,,,,,,,,,,US,,67cf70ec9741a100ffc7f570,old
1197.4,,rt_thecrossant_black,2736819,black_plus_sign,,,,,50.0,,,1.0,0.966666667,,,,,,,,,,,,,,,,,,,,,,,,,,,,,US,,67cf70ec9741a100ffc7f570,old
,,color_black,2736931,black_plus_sign,,,,,,,,,,,,,,,,,,,,,,,,,,,,,,,,,,,,,,US,,67cf70ec9741a100ffc7f570,old
,,learn_phase(without_color),2739545,black_plus_sign,,,,,,US_Cities_List/mm_shreveport.png,US_Cities_List/nat_newhope.png,,,,,,,,,,,,,,,,,,,,,,,,,,,,,,,US,,67cf70ec9741a100ffc7f570,old
,,black_cross(without_color),2740197,blue,,,,,,US_Cities_List/mm_shreveport.png,US_Cities_List/nat_newhope.png,,,,,,,,,,,,,,,,,,,,,,,,,,,,,,,US,,67cf70ec9741a100ffc7f570,old
,,rt_plussign_withcolor,2740700,blue,,,,,,US_Cities_List/mm_shreveport.png,US_Cities_List/nat_newhope.png,,,,,,,,,,,,,,,,,,,,,,,,,,,,,,,US,,67cf70ec9741a100ffc7f570,old
1065.8,,rt_thecrossant_black,2742065,black_plus_sign,,,,,49.0,,,1.0,0.967032967,,,,,,,,,,,,,,,,,,,,,,,,,,,,,US,,67cf70ec9741a100ffc7f570,old
,,color_black,2742168,black_plus_sign,,,,,,,,,,,,,,,,,,,,,,,,,,,,,,,,,,,,,,US,,67cf70ec9741a100ffc7f570,old
,,learn_phase(without_color),2744770,black_plus_sign,,,,,,US_Cities_List/mm_boulder.png,US_Cities_List/mm_shreveport.png,,,,,,,,,,,,,,,,,,,,,,,,,,,,,,,US,,67cf70ec9741a100ffc7f570,old
,,black_cross(without_color),2745870,blue,,,,,,US_Cities_List/mm_boulder.png,US_Cities_List/mm_shreveport.png,,,,,,,,,,,,,,,,,,,,,,,,,,,,,,,US,,67cf70ec9741a100ffc7f570,old
,,rt_plussign_withcolor,2746373,blue,,,,,,US_Cities_List/mm_boulder.png,US_Cities_List/mm_shreveport.png,,,,,,,,,,,,,,,,,,,,,,,,,,,,,,,US,,67cf70ec9741a100ffc7f570,old
907.7,,rt_thecrossant_black,2747282,black_plus_sign,,,,,49.0,,,1.0,0.967391304,,,,,,,,,,,,,,,,,,,,,,,,,,,,,US,,67cf70ec9741a100ffc7f570,old
,,color_black,2747386,black_plus_sign,,,,,,,,,,,,,,,,,,,,,,,,,,,,,,,,,,,,,,US,,67cf70ec9741a100ffc7f570,old
,,learn_phase(without_color),2749972,black_plus_sign,,,,,,US_Cities_List/nat_hanover.png,US_Cities_List/mm_leesburg.png,,,,,,,,,,,,,,,,,,,,,,,,,,,,,,,US,,67cf70ec9741a100ffc7f570,old
,,black_cross(without_color),2750958,green,,,,,,US_Cities_List/nat_hanover.png,US_Cities_List/mm_leesburg.png,,,,,,,,,,,,,,,,,,,,,,,,,,,,,,,US,,67cf70ec9741a100ffc7f570,old
,,rt_plussign_withcolor,2751460,green,,,,,,US_Cities_List/nat_hanover.png,US_Cities_List/mm_leesburg.png,,,,,,,,,,,,,,,,,,,,,,,,,,,,,,,US,,67cf70ec9741a100ffc7f570,old
1277.3,,rt_thecrossant_black,2752482,black_plus_sign,,,,,50.0,,,1.0,0.967741935,,,,,,,,,,,,,,,,,,,,,,,,,,,,,US,,67cf70ec9741a100ffc7f570,old
,,color_black,2752585,black_plus_sign,,,,,,,,,,,,,,,,,,,,,,,,,,,,,,,,,,,,,,US,,67cf70ec9741a100ffc7f570,old
,,learn_phase(without_color),2755192,black_plus_sign,,,,,,US_Cities_List/mm_boulder.png,US_Cities_List/mm_shreveport.png,,,,,,,,,,,,,,,,,,,,,,,,,,,,,,,US,,67cf70ec9741a100ffc7f570,old
,,black_cross(without_color),2755635,blue,,,,,,US_Cities_List/mm_boulder.png,US_Cities_List/mm_shreveport.png,,,,,,,,,,,,,,,,,,,,,,,,,,,,,,,US,,67cf70ec9741a100ffc7f570,old
,,rt_plussign_withcolor,2756138,blue,,,,,,US_Cities_List/mm_boulder.png,US_Cities_List/mm_shreveport.png,,,,,,,,,,,,,,,,,,,,,,,,,,,,,,,US,,67cf70ec9741a100ffc7f570,old
1356.4,,rt_thecrossant_black,2757701,black_plus_sign,,,,,49.0,,,1.0,0.968085106,,,,,,,,,,,,,,,,,,,,,,,,,,,,,US,,67cf70ec9741a100ffc7f570,old
,,color_black,2757805,black_plus_sign,,,,,,,,,,,,,,,,,,,,,,,,,,,,,,,,,,,,,,US,,67cf70ec9741a100ffc7f570,old
,,learn_phase(without_color),2760348,black_plus_sign,,,,,,US_Cities_List/nat_huntsville.png,US_Cities_List/nat_hanover.png,,,,,,,,,,,,,,,,,,,,,,,,,,,,,,,US,,67cf70ec9741a100ffc7f570,old
,,black_cross(without_color),2760793,blue,,,,,,US_Cities_List/nat_huntsville.png,US_Cities_List/nat_hanover.png,,,,,,,,,,,,,,,,,,,,,,,,,,,,,,,US,,67cf70ec9741a100ffc7f570,old
,,rt_plussign_withcolor,2761296,blue,,,,,,US_Cities_List/nat_huntsville.png,US_Cities_List/nat_hanover.png,,,,,,,,,,,,,,,,,,,,,,,,,,,,,,,US,,67cf70ec9741a100ffc7f570,old
820.2,,rt_thecrossant_black,2762859,black_plus_sign,,,,,49.0,,,1.0,0.968421053,,,,,,,,,,,,,,,,,,,,,,,,,,,,,US,,67cf70ec9741a100ffc7f570,old
,,color_black,2762966,black_plus_sign,,,,,,,,,,,,,,,,,,,,,,,,,,,,,,,,,,,,,,US,,67cf70ec9741a100ffc7f570,old
,,learn_phase(without_color),2765549,black_plus_sign,,,,,,US_Cities_List/nat_peoria.png,US_Cities_List/nat_huntsville.png,,,,,,,,,,,,,,,,,,,,,,,,,,,,,,,US,,67cf70ec9741a100ffc7f570,old
,,black_cross(without_color),2766518,blue,,,,,,US_Cities_List/nat_peoria.png,US_Cities_List/nat_huntsville.png,,,,,,,,,,,,,,,,,,,,,,,,,,,,,,,US,,67cf70ec9741a100ffc7f570,old
,,rt_plussign_withcolor,2767021,blue,,,,,,US_Cities_List/nat_peoria.png,US_Cities_List/nat_huntsville.png,,,,,,,,,,,,,,,,,,,,,,,,,,,,,,,US,,67cf70ec9741a100ffc7f570,old
599.9,,rt_thecrossant_black,2768060,black_plus_sign,,,,,49.0,,,1.0,0.96875,,,,,,,,,,,,,,,,,,,,,,,,,,,,,US,,67cf70ec9741a100ffc7f570,old
,,color_black,2768165,black_plus_sign,,,,,,,,,,,,,,,,,,,,,,,,,,,,,,,,,,,,,,US,,67cf70ec9741a100ffc7f570,old
,,learn_phase(without_color),2770756,black_plus_sign,,,,,,US_Cities_List/mm_carmel.png,US_Cities_List/nat_racine.png,,,,,,,,,,,,,,,,,,,,,,,,,,,,,,,US,,67cf70ec9741a100ffc7f570,old
,,black_cross(without_color),2771277,green,,,,,,US_Cities_List/mm_carmel.png,US_Cities_List/nat_racine.png,,,,,,,,,,,,,,,,,,,,,,,,,,,,,,,US,,67cf70ec9741a100ffc7f570,old
493.7,,rt_plussign_withcolor,2771780,green,,,,,50.0,US_Cities_List/mm_carmel.png,US_Cities_List/nat_racine.png,,,,,,,,,,,,,,,,,,,,,,,,,,,,,,,US,,67cf70ec9741a100ffc7f570,old
,,rt_thecrossant_black,2773272,black_plus_sign,,,,,,,,1.0,0.969072165,,,,,,,,,,,,,,,,,,,,,,,,,,,,,US,,67cf70ec9741a100ffc7f570,old
,,color_black,2773376,black_plus_sign,,,,,,,,,,,,,,,,,,,,,,,,,,,,,,,,,,,,,,US,,67cf70ec9741a100ffc7f570,old
,,learn_phase(without_color),2775955,black_plus_sign,,,,,,US_Cities_List/nat_gatlinburg.png,US_Cities_List/mm_boulder.png,,,,,,,,,,,,,,,,,,,,,,,,,,,,,,,US,,67cf70ec9741a100ffc7f570,old
,,black_cross(without_color),2776641,blue,,,,,,US_Cities_List/nat_gatlinburg.png,US_Cities_List/mm_boulder.png,,,,,,,,,,,,,,,,,,,,,,,,,,,,,,,US,,67cf70ec9741a100ffc7f570,old
416.4,,rt_plussign_withcolor,2777144,blue,,,,,49.0,US_Cities_List/nat_gatlinburg.png,US_Cities_List/mm_boulder.png,,,,,,,,,,,,,,,,,,,,,,,,,,,,,,,US,,67cf70ec9741a100ffc7f570,old
,,rt_thecrossant_black,2778466,black_plus_sign,,,,,,,,1.0,0.969387755,,,,,,,,,,,,,,,,,,,,,,,,,,,,,US,,67cf70ec9741a100ffc7f570,old
,,color_black,2778571,black_plus_sign,,,,,,,,,,,,,,,,,,,,,,,,,,,,,,,,,,,,,,US,,67cf70ec9741a100ffc7f570,old
,,learn_phase(without_color),2781165,black_plus_sign,,,,,,US_Cities_List/mm_shreveport.png,US_Cities_List/nat_newhope.png,,,,,,,,,,,,,,,,,,,,,,,,,,,,,,,US,,67cf70ec9741a100ffc7f570,old
,,black_cross(without_color),2782140,green,,,,,,US_Cities_List/mm_shreveport.png,US_Cities_List/nat_newhope.png,,,,,,,,,,,,,,,,,,,,,,,,,,,,,,,US,,67cf70ec9741a100ffc7f570,old
432.9,,rt_plussign_withcolor,2782644,green,,,,,50.0,US_Cities_List/mm_shreveport.png,US_Cities_List/nat_newhope.png,,,,,,,,,,,,,,,,,,,,,,,,,,,,,,,US,,67cf70ec9741a100ffc7f570,old
,,rt_thecrossant_black,2783688,black_plus_sign,,,,,,,,1.0,0.96969697,,,,,,,,,,,,,,,,,,,,,,,,,,,,,US,,67cf70ec9741a100ffc7f570,old
,,color_black,2783792,black_plus_sign,,,,,,,,,,,,,,,,,,,,,,,,,,,,,,,,,,,,,,US,,67cf70ec9741a100ffc7f570,old
,,learn_phase(without_color),2786401,black_plus_sign,,,,,,US_Cities_List/mm_shreveport.png,US_Cities_List/nat_peoria.png,,,,,,,,,,,,,,,,,,,,,,,,,,,,,,,US,,67cf70ec9741a100ffc7f570,old
,,black_cross(without_color),2787034,green,,,,,,US_Cities_List/mm_shreveport.png,US_Cities_List/nat_peoria.png,,,,,,,,,,,,,,,,,,,,,,,,,,,,,,,US,,67cf70ec9741a100ffc7f570,old
446.2,,rt_plussign_withcolor,2787537,green,,,,,50.0,US_Cities_List/mm_shreveport.png,US_Cities_List/nat_peoria.png,,,,,,,,,,,,,,,,,,,,,,,,,,,,,,,US,,67cf70ec9741a100ffc7f570,old
,,rt_thecrossant_black,2788913,black_plus_sign,,,,,,,,1.0,0.97,,,,,,,,,,,,,,,,,,,,,,,,,,,,,US,,67cf70ec9741a100ffc7f570,old
,,color_black,2789018,black_plus_sign,,,,,,,,,,,,,,,,,,,,,,,,,,,,,,,,,,,,,,US,,67cf70ec9741a100ffc7f570,old
,,learn_phase(without_color),2791612,black_plus_sign,,,,,,US_Cities_List/nat_gatlinburg.png,US_Cities_List/mm_boulder.png,,,,,,,,,,,,,,,,,,,,,,,,,,,,,,,US,,67cf70ec9741a100ffc7f570,old
,,black_cross(without_color),2792503,green,,,,,,US_Cities_List/nat_gatlinburg.png,US_Cities_List/mm_boulder.png,,,,,,,,,,,,,,,,,,,,,,,,,,,,,,,US,,67cf70ec9741a100ffc7f570,old
,,rt_plussign_withcolor,2793006,green,,,,,,US_Cities_List/nat_gatlinburg.png,US_Cities_List/mm_boulder.png,,,,,,,,,,,,,,,,,,,,,,,,,,,,,,,US,,67cf70ec9741a100ffc7f570,old
966.0,,rt_thecrossant_black,2794124,black_plus_sign,,,,,50.0,,,1.0,0.97029703,,,,,,,,,,,,,,,,,,,,,,,,,,,,,US,,67cf70ec9741a100ffc7f570,old
,,color_black,2794228,black_plus_sign,,,,,,,,,,,,,,,,,,,,,,,,,,,,,,,,,,,,,,US,,67cf70ec9741a100ffc7f570,old
,,learn_phase(without_color),2796827,black_plus_sign,,,,,,US_Cities_List/mm_leesburg.png,US_Cities_List/nat_newhope.png,,,,,,,,,,,,,,,,,,,,,,,,,,,,,,,US,,67cf70ec9741a100ffc7f570,old
,,black_cross(without_color),2797826,blue,,,,,,US_Cities_List/mm_leesburg.png,US_Cities_List/nat_newhope.png,,,,,,,,,,,,,,,,,,,,,,,,,,,,,,,US,,67cf70ec9741a100ffc7f570,old
,,rt_plussign_withcolor,2798328,blue,,,,,,US_Cities_List/mm_leesburg.png,US_Cities_List/nat_newhope.png,,,,,,,,,,,,,,,,,,,,,,,,,,,,,,,US,,67cf70ec9741a100ffc7f570,old
1670.9,,rt_thecrossant_black,2799338,black_plus_sign,,,,,49.0,,,1.0,0.970588235,,,,,,,,,,,,,,,,,,,,,,,,,,,,,US,,67cf70ec9741a100ffc7f570,old
,,color_black,2799441,black_plus_sign,,,,,,,,,,,,,,,,,,,,,,,,,,,,,,,,,,,,,,US,,67cf70ec9741a100ffc7f570,old
,,learn_phase(without_color),2802041,black_plus_sign,,,,,,US_Cities_List/nat_huntsville.png,US_Cities_List/nat_hanover.png,,,,,,,,,,,,,,,,,,,,,,,,,,,,,,,US,,67cf70ec9741a100ffc7f570,old
,,black_cross(without_color),2802576,green,,,,,,US_Cities_List/nat_huntsville.png,US_Cities_List/nat_hanover.png,,,,,,,,,,,,,,,,,,,,,,,,,,,,,,,US,,67cf70ec9741a100ffc7f570,old
,,rt_plussign_withcolor,2803081,green,,,,,,US_Cities_List/nat_huntsville.png,US_Cities_List/nat_hanover.png,,,,,,,,,,,,,,,,,,,,,,,,,,,,,,,US,,67cf70ec9741a100ffc7f570,old
,,rt_thecrossant_black,2804554,black_plus_sign,,,,,,,,,0.970588235,,,,,,,,,,,,,,,,,,,,,,,,,,,,,US,,67cf70ec9741a100ffc7f570,old
,,color_black,2804658,black_plus_sign,,,,,,,,,,,,,,,,,,,,,,,,,,,,,,,,,,,,,,US,,67cf70ec9741a100ffc7f570,old
,,learn_phase(without_color),2807263,black_plus_sign,,,,,,US_Cities_List/nat_huntsville.png,US_Cities_List/mm_leesburg.png,,,,,,,,,,,,,,,,,,,,,,,,,,,,,,,US,,67cf70ec9741a100ffc7f570,old
,,black_cross(without_color),2807742,green,,,,,,US_Cities_List/nat_huntsville.png,US_Cities_List/mm_leesburg.png,,,,,,,,,,,,,,,,,,,,,,,,,,,,,,,US,,67cf70ec9741a100ffc7f570,old
,,rt_plussign_withcolor,2808246,green,,,,,,US_Cities_List/nat_huntsville.png,US_Cities_List/mm_leesburg.png,,,,,,,,,,,,,,,,,,,,,,,,,,,,,,,US,,67cf70ec9741a100ffc7f570,old
1001.9,,rt_thecrossant_black,2809775,black_plus_sign,,,,,50.0,,,1.0,0.970873786,,,,,,,,,,,,,,,,,,,,,,,,,,,,,US,,67cf70ec9741a100ffc7f570,old
,,color_black,2809878,black_plus_sign,,,,,,,,,,,,,,,,,,,,,,,,,,,,,,,,,,,,,,US,,67cf70ec9741a100ffc7f570,old
,,learn_phase(without_color),2812489,black_plus_sign,,,,,,US_Cities_List/mm_boulder.png,US_Cities_List/mm_shreveport.png,,,,,,,,,,,,,,,,,,,,,,,,,,,,,,,US,,67cf70ec9741a100ffc7f570,old
,,black_cross(without_color),2813514,blue,,,,,,US_Cities_List/mm_boulder.png,US_Cities_List/mm_shreveport.png,,,,,,,,,,,,,,,,,,,,,,,,,,,,,,,US,,67cf70ec9741a100ffc7f570,old
504.3,,rt_plussign_withcolor,2814023,blue,,,,,49.0,US_Cities_List/mm_boulder.png,US_Cities_List/mm_shreveport.png,,,,,,,,,,,,,,,,,,,,,,,,,,,,,,,US,,67cf70ec9741a100ffc7f570,old
,,rt_thecrossant_black,2815005,black_plus_sign,,,,,,,,1.0,0.971153846,,,,,,,,,,,,,,,,,,,,,,,,,,,,,US,,67cf70ec9741a100ffc7f570,old
,,color_black,2815109,black_plus_sign,,,,,,,,,,,,,,,,,,,,,,,,,,,,,,,,,,,,,,US,,67cf70ec9741a100ffc7f570,old
,,learn_phase(without_color),2817690,black_plus_sign,,,,,,US_Cities_List/mm_leesburg.png,US_Cities_List/nat_newhope.png,,,,,,,,,,,,,,,,,,,,,,,,,,,,,,,US,,67cf70ec9741a100ffc7f570,old
,,black_cross(without_color),2818188,green,,,,,,US_Cities_List/mm_leesburg.png,US_Cities_List/nat_newhope.png,,,,,,,,,,,,,,,,,,,,,,,,,,,,,,,US,,67cf70ec9741a100ffc7f570,old
,,rt_plussign_withcolor,2818693,green,,,,,,US_Cities_List/mm_leesburg.png,US_Cities_List/nat_newhope.png,,,,,,,,,,,,,,,,,,,,,,,,,,,,,,,US,,67cf70ec9741a100ffc7f570,old
1278.8,,rt_thecrossant_black,2820202,black_plus_sign,,,,,50.0,,,1.0,0.971428571,,,,,,,,,,,,,,,,,,,,,,,,,,,,,US,,67cf70ec9741a100ffc7f570,old
,,color_black,2820307,black_plus_sign,,,,,,,,,,,,,,,,,,,,,,,,,,,,,,,,,,,,,,US,,67cf70ec9741a100ffc7f570,old
,,learn_phase(without_color),2822906,black_plus_sign,,,,,,US_Cities_List/nat_huntsville.png,US_Cities_List/mm_westpalmbeach.png,,,,,,,,,,,,,,,,,,,,,,,,,,,,,,,US,,67cf70ec9741a100ffc7f570,old
,,black_cross(without_color),2823400,blue,,,,,,US_Cities_List/nat_huntsville.png,US_Cities_List/mm_westpalmbeach.png,,,,,,,,,,,,,,,,,,,,,,,,,,,,,,,US,,67cf70ec9741a100ffc7f570,old
,,rt_plussign_withcolor,2823904,blue,,,,,,US_Cities_List/nat_huntsville.png,US_Cities_List/mm_westpalmbeach.png,,,,,,,,,,,,,,,,,,,,,,,,,,,,,,,US,,67cf70ec9741a100ffc7f570,old
658.1,,rt_thecrossant_black,2825419,black_plus_sign,,,,,49.0,,,1.0,0.971698113,,,,,,,,,,,,,,,,,,,,,,,,,,,,,US,,67cf70ec9741a100ffc7f570,old
,,color_black,2825527,black_plus_sign,,,,,,,,,,,,,,,,,,,,,,,,,,,,,,,,,,,,,,US,,67cf70ec9741a100ffc7f570,old
,,learn_phase(without_color),2828111,black_plus_sign,,,,,,US_Cities_List/mm_boulder.png,US_Cities_List/mm_carmel.png,,,,,,,,,,,,,,,,,,,,,,,,,,,,,,,US,,67cf70ec9741a100ffc7f570,old
,,black_cross(without_color),2829182,green,,,,,,US_Cities_List/mm_boulder.png,US_Cities_List/mm_carmel.png,,,,,,,,,,,,,,,,,,,,,,,,,,,,,,,US,,67cf70ec9741a100ffc7f570,old
,,rt_plussign_withcolor,2829685,green,,,,,,US_Cities_List/mm_boulder.png,US_Cities_List/mm_carmel.png,,,,,,,,,,,,,,,,,,,,,,,,,,,,,,,US,,67cf70ec9741a100ffc7f570,old
649.0,,rt_thecrossant_black,2830623,black_plus_sign,,,,,50.0,,,1.0,0.971962617,,,,,,,,,,,,,,,,,,,,,,,,,,,,,US,,67cf70ec9741a100ffc7f570,old
,,color_black,2830728,black_plus_sign,,,,,,,,,,,,,,,,,,,,,,,,,,,,,,,,,,,,,,US,,67cf70ec9741a100ffc7f570,old
,,learn_phase(without_color),2833309,black_plus_sign,,,,,,US_Cities_List/nat_hanover.png,US_Cities_List/nat_cornwall.png,,,,,,,,,,,,,,,,,,,,,,,,,,,,,,,US,,67cf70ec9741a100ffc7f570,old
,,black_cross(without_color),2834016,blue,,,,,,US_Cities_List/nat_hanover.png,US_Cities_List/nat_cornwall.png,,,,,,,,,,,,,,,,,,,,,,,,,,,,,,,US,,67cf70ec9741a100ffc7f570,old
,,rt_plussign_withcolor,2834519,blue,,,,,,US_Cities_List/nat_hanover.png,US_Cities_List/nat_cornwall.png,,,,,,,,,,,,,,,,,,,,,,,,,,,,,,,US,,67cf70ec9741a100ffc7f570,old
1365.5,,rt_thecrossant_black,2835821,black_plus_sign,,,,,49.0,,,1.0,0.972222222,,,,,,,,,,,,,,,,,,,,,,,,,,,,,US,,67cf70ec9741a100ffc7f570,old
,,color_black,2835926,black_plus_sign,,,,,,,,,,,,,,,,,,,,,,,,,,,,,,,,,,,,,,US,,67cf70ec9741a100ffc7f570,old
,,learn_phase(without_color),2838529,black_plus_sign,,,,,,US_Cities_List/nat_huntsville.png,US_Cities_List/nat_hanover.png,,,,,,,,,,,,,,,,,,,,,,,,,,,,,,,US,,67cf70ec9741a100ffc7f570,old
,,black_cross(without_color),2839075,green,,,,,,US_Cities_List/nat_huntsville.png,US_Cities_List/nat_hanover.png,,,,,,,,,,,,,,,,,,,,,,,,,,,,,,,US,,67cf70ec9741a100ffc7f570,old
489.8,,rt_plussign_withcolor,2839578,green,,,,,50.0,US_Cities_List/nat_huntsville.png,US_Cities_List/nat_hanover.png,,,,,,,,,,,,,,,,,,,,,,,,,,,,,,,US,,67cf70ec9741a100ffc7f570,old
,,rt_thecrossant_black,2841039,black_plus_sign,,,,,,,,1.0,0.972477064,,,,,,,,,,,,,,,,,,,,,,,,,,,,,US,,67cf70ec9741a100ffc7f570,old
,,color_black,2841144,black_plus_sign,,,,,,,,,,,,,,,,,,,,,,,,,,,,,,,,,,,,,,US,,67cf70ec9741a100ffc7f570,old
,,learn_phase(without_color),2843751,black_plus_sign,,,,,,US_Cities_List/mm_boulder.png,US_Cities_List/mm_carmel.png,,,,,,,,,,,,,,,,,,,,,,,,,,,,,,,US,,67cf70ec9741a100ffc7f570,old
,,black_cross(without_color),2844825,blue,,,,,,US_Cities_List/mm_boulder.png,US_Cities_List/mm_carmel.png,,,,,,,,,,,,,,,,,,,,,,,,,,,,,,,US,,67cf70ec9741a100ffc7f570,old
,,rt_plussign_withcolor,2845328,blue,,,,,,US_Cities_List/mm_boulder.png,US_Cities_List/mm_carmel.png,,,,,,,,,,,,,,,,,,,,,,,,,,,,,,,US,,67cf70ec9741a100ffc7f570,old
797.4,,rt_thecrossant_black,2846261,black_plus_sign,,,,,49.0,,,1.0,0.972727273,,,,,,,,,,,,,,,,,,,,,,,,,,,,,US,,67cf70ec9741a100ffc7f570,old
,,color_black,2846370,black_plus_sign,,,,,,,,,,,,,,,,,,,,,,,,,,,,,,,,,,,,,,US,,67cf70ec9741a100ffc7f570,old
,,learn_phase(without_color),2848939,black_plus_sign,,,,,,US_Cities_List/nat_peoria.png,US_Cities_List/nat_huntsville.png,,,,,,,,,,,,,,,,,,,,,,,,,,,,,,,US,,67cf70ec9741a100ffc7f570,old
,,black_cross(without_color),2849401,green,,,,,,US_Cities_List/nat_peoria.png,US_Cities_List/nat_huntsville.png,,,,,,,,,,,,,,,,,,,,,,,,,,,,,,,US,,67cf70ec9741a100ffc7f570,old
457.1,,rt_plussign_withcolor,2849903,green,,,,,50.0,US_Cities_List/nat_peoria.png,US_Cities_List/nat_huntsville.png,,,,,,,,,,,,,,,,,,,,,,,,,,,,,,,US,,67cf70ec9741a100ffc7f570,old
,,rt_thecrossant_black,2851448,black_plus_sign,,,,,,,,1.0,0.972972973,,,,,,,,,,,,,,,,,,,,,,,,,,,,,US,,67cf70ec9741a100ffc7f570,old
,,color_black,2851552,black_plus_sign,,,,,,,,,,,,,,,,,,,,,,,,,,,,,,,,,,,,,,US,,67cf70ec9741a100ffc7f570,old
,,learn_phase(without_color),2854118,black_plus_sign,,,,,,US_Cities_List/nat_hanover.png,US_Cities_List/mm_leesburg.png,,,,,,,,,,,,,,,,,,,,,,,,,,,,,,,US,,67cf70ec9741a100ffc7f570,old
,,black_cross(without_color),2854874,blue,,,,,,US_Cities_List/nat_hanover.png,US_Cities_List/mm_leesburg.png,,,,,,,,,,,,,,,,,,,,,,,,,,,,,,,US,,67cf70ec9741a100ffc7f570,old
,,rt_plussign_withcolor,2855377,blue,,,,,,US_Cities_List/nat_hanover.png,US_Cities_List/mm_leesburg.png,,,,,,,,,,,,,,,,,,,,,,,,,,,,,,,US,,67cf70ec9741a100ffc7f570,old
977.8,,rt_thecrossant_black,2856628,black_plus_sign,,,,,49.0,,,1.0,0.973214286,,,,,,,,,,,,,,,,,,,,,,,,,,,,,US,,67cf70ec9741a100ffc7f570,old
,,color_black,2856732,black_plus_sign,,,,,,,,,,,,,,,,,,,,,,,,,,,,,,,,,,,,,,US,,67cf70ec9741a100ffc7f570,old
,,learn_phase(without_color),2859319,black_plus_sign,,,,,,US_Cities_List/nat_huntsville.png,US_Cities_List/nat_hanover.png,,,,,,,,,,,,,,,,,,,,,,,,,,,,,,,US,,67cf70ec9741a100ffc7f570,old
,,black_cross(without_color),2860137,green,,,,,,US_Cities_List/nat_huntsville.png,US_Cities_List/nat_hanover.png,,,,,,,,,,,,,,,,,,,,,,,,,,,,,,,US,,67cf70ec9741a100ffc7f570,old
,,rt_plussign_withcolor,2860641,green,,,,,,US_Cities_List/nat_huntsville.png,US_Cities_List/nat_hanover.png,,,,,,,,,,,,,,,,,,,,,,,,,,,,,,,US,,67cf70ec9741a100ffc7f570,old
868.4,,rt_thecrossant_black,2861831,black_plus_sign,,,,,50.0,,,1.0,0.973451327,,,,,,,,,,,,,,,,,,,,,,,,,,,,,US,,67cf70ec9741a100ffc7f570,old
,,color_black,2861936,black_plus_sign,,,,,,,,,,,,,,,,,,,,,,,,,,,,,,,,,,,,,,US,,67cf70ec9741a100ffc7f570,old
,,learn_phase(without_color),2864534,black_plus_sign,,,,,,US_Cities_List/mm_shreveport.png,US_Cities_List/nat_peoria.png,,,,,,,,,,,,,,,,,,,,,,,,,,,,,,,US,,67cf70ec9741a100ffc7f570,old
,,black_cross(without_color),2865179,green,,,,,,US_Cities_List/mm_shreveport.png,US_Cities_List/nat_peoria.png,,,,,,,,,,,,,,,,,,,,,,,,,,,,,,,US,,67cf70ec9741a100ffc7f570,old
,,rt_plussign_withcolor,2865691,green,,,,,,US_Cities_List/mm_shreveport.png,US_Cities_List/nat_peoria.png,,,,,,,,,,,,,,,,,,,,,,,,,,,,,,,US,,67cf70ec9741a100ffc7f570,old
1199.4,,rt_thecrossant_black,2867053,black_plus_sign,,,,,50.0,,,1.0,0.973684211,,,,,,,,,,,,,,,,,,,,,,,,,,,,,US,,67cf70ec9741a100ffc7f570,old
,,color_black,2867158,black_plus_sign,,,,,,,,,,,,,,,,,,,,,,,,,,,,,,,,,,,,,,US,,67cf70ec9741a100ffc7f570,old
,,learn_phase(without_color),2869756,black_plus_sign,,,,,,US_Cities_List/mm_leesburg.png,US_Cities_List/nat_newhope.png,,,,,,,,,,,,,,,,,,,,,,,,,,,,,,,US,,67cf70ec9741a100ffc7f570,old
,,black_cross(without_color),2870215,green,,,,,,US_Cities_List/mm_leesburg.png,US_Cities_List/nat_newhope.png,,,,,,,,,,,,,,,,,,,,,,,,,,,,,,,US,,67cf70ec9741a100ffc7f570,old
,,rt_plussign_withcolor,2870718,green,,,,,,US_Cities_List/mm_leesburg.png,US_Cities_List/nat_newhope.png,,,,,,,,,,,,,,,,,,,,,,,,,,,,,,,US,,67cf70ec9741a100ffc7f570,old
786.8,,rt_thecrossant_black,2872267,black_plus_sign,,,,,50.0,,,1.0,0.973913043,,,,,,,,,,,,,,,,,,,,,,,,,,,,,US,,67cf70ec9741a100ffc7f570,old
,,color_black,2872371,black_plus_sign,,,,,,,,,,,,,,,,,,,,,,,,,,,,,,,,,,,,,,US,,67cf70ec9741a100ffc7f570,old
,,learn_phase(without_color),2874966,black_plus_sign,,,,,,US_Cities_List/mm_carmel.png,US_Cities_List/mm_hotsprings.png,,,,,,,,,,,,,,,,,,,,,,,,,,,,,,,US,,67cf70ec9741a100ffc7f570,old
,,black_cross(without_color),2875406,blue,,,,,,US_Cities_List/mm_carmel.png,US_Cities_List/mm_hotsprings.png,,,,,,,,,,,,,,,,,,,,,,,,,,,,,,,US,,67cf70ec9741a100ffc7f570,old
,,rt_plussign_withcolor,2875924,blue,,,,,,US_Cities_List/mm_carmel.png,US_Cities_List/mm_hotsprings.png,,,,,,,,,,,,,,,,,,,,,,,,,,,,,,,US,,67cf70ec9741a100ffc7f570,old
574.6,,rt_thecrossant_black,2877492,black_plus_sign,,,,,49.0,,,1.0,0.974137931,,,,,,,,,,,,,,,,,,,,,,,,,,,,,US,,67cf70ec9741a100ffc7f570,old
,,color_black,2877596,black_plus_sign,,,,,,,,,,,,,,,,,,,,,,,,,,,,,,,,,,,,,,US,,67cf70ec9741a100ffc7f570,old
,,learn_phase(without_color),2880185,black_plus_sign,,,,,,US_Cities_List/mm_shreveport.png,US_Cities_List/nat_newhope.png,,,,,,,,,,,,,,,,,,,,,,,,,,,,,,,US,,67cf70ec9741a100ffc7f570,old
,,black_cross(without_color),2881164,blue,,,,,,US_Cities_List/mm_shreveport.png,US_Cities_List/nat_newhope.png,,,,,,,,,,,,,,,,,,,,,,,,,,,,,,,US,,67cf70ec9741a100ffc7f570,old
,,rt_plussign_withcolor,2881668,blue,,,,,,US_Cities_List/mm_shreveport.png,US_Cities_List/nat_newhope.png,,,,,,,,,,,,,,,,,,,,,,,,,,,,,,,US,,67cf70ec9741a100ffc7f570,old
811.5,,rt_thecrossant_black,2882698,black_plus_sign,,,,,49.0,,,1.0,0.974358974,,,,,,,,,,,,,,,,,,,,,,,,,,,,,US,,67cf70ec9741a100ffc7f570,old
,,color_black,2882802,black_plus_sign,,,,,,,,,,,,,,,,,,,,,,,,,,,,,,,,,,,,,,US,,67cf70ec9741a100ffc7f570,old
,,learn_phase(without_color),2885403,black_plus_sign,,,,,,US_Cities_List/mm_leesburg.png,US_Cities_List/nat_newhope.png,,,,,,,,,,,,,,,,,,,,,,,,,,,,,,,US,,67cf70ec9741a100ffc7f570,old
,,black_cross(without_color),2886376,green,,,,,,US_Cities_List/mm_leesburg.png,US_Cities_List/nat_newhope.png,,,,,,,,,,,,,,,,,,,,,,,,,,,,,,,US,,67cf70ec9741a100ffc7f570,old
,,rt_plussign_withcolor,2886879,green,,,,,,US_Cities_List/mm_leesburg.png,US_Cities_List/nat_newhope.png,,,,,,,,,,,,,,,,,,,,,,,,,,,,,,,US,,67cf70ec9741a100ffc7f570,old
1404.6,,rt_thecrossant_black,2887920,black_plus_sign,,,,,50.0,,,1.0,0.974576271,,,,,,,,,,,,,,,,,,,,,,,,,,,,,US,,67cf70ec9741a100ffc7f570,old
,,color_black,2888024,black_plus_sign,,,,,,,,,,,,,,,,,,,,,,,,,,,,,,,,,,,,,,US,,67cf70ec9741a100ffc7f570,old
,,learn_phase(without_color),2890623,black_plus_sign,,,,,,US_Cities_List/mm_carmel.png,US_Cities_List/nat_racine.png,,,,,,,,,,,,,,,,,,,,,,,,,,,,,,,US,,67cf70ec9741a100ffc7f570,old
,,black_cross(without_color),2891662,blue,,,,,,US_Cities_List/mm_carmel.png,US_Cities_List/nat_racine.png,,,,,,,,,,,,,,,,,,,,,,,,,,,,,,,US,,67cf70ec9741a100ffc7f570,old
,,rt_plussign_withcolor,2892178,blue,,,,,,US_Cities_List/mm_carmel.png,US_Cities_List/nat_racine.png,,,,,,,,,,,,,,,,,,,,,,,,,,,,,,,US,,67cf70ec9741a100ffc7f570,old
1076.4,,rt_thecrossant_black,2893148,black_plus_sign,,,,,49.0,,,1.0,0.974789916,,,,,,,,,,,,,,,,,,,,,,,,,,,,,US,,67cf70ec9741a100ffc7f570,old
,,color_black,2893260,black_plus_sign,,,,,,,,,,,,,,,,,,,,,,,,,,,,,,,,,,,,,,US,,67cf70ec9741a100ffc7f570,old
,,learn_phase(without_color),2895847,black_plus_sign,,,,,,US_Cities_List/nat_peoria.png,US_Cities_List/nat_huntsville.png,,,,,,,,,,,,,,,,,,,,,,,,,,,,,,,US,,67cf70ec9741a100ffc7f570,old
,,black_cross(without_color),2896372,blue,,,,,,US_Cities_List/nat_peoria.png,US_Cities_List/nat_huntsville.png,,,,,,,,,,,,,,,,,,,,,,,,,,,,,,,US,,67cf70ec9741a100ffc7f570,old
,,rt_plussign_withcolor,2896875,blue,,,,,,US_Cities_List/nat_peoria.png,US_Cities_List/nat_huntsville.png,,,,,,,,,,,,,,,,,,,,,,,,,,,,,,,US,,67cf70ec9741a100ffc7f570,old
