rt,responses,trial_type,time_elapsed,stimulus,graphorder,button_pressed,response,key_press,stimulus_left,stimulus_right,accuracy,cumulative_accuracy,stimulus_down_left,stimulus_down_mid,stimulus_down_right,stimulus_correct,stimulus_short,stimulus_far,weighted_accuracy,missedtrial,condition,specific_pairs,linedress,linedressed,problems,smooth,distraction,strategies,easier,similar,comments,partid,age
132418.39999999106,{worker_id:67dcc12657e2fe1375df7f89},id_enter,132428,id_enter,GW/hat.jpg; GW/camera.jpg; GW/soldier.jpg; GW/jukebox.jpg; GW/barrel.jpg; GW/snail.jpg; GW/wheelchair.jpg; GW/basket.jpg; GW/teeth.jpg; GW/paint.jpg; GW/dustpan.jpg; GW/globe.jpg; GW/gong.jpg,,,,,,,,,,,,,,,,,,,,,,,,,,,67dcc12657e2fe1375df7f89,young
199738.89999999103,,fullscreen,332185,fullscreen,,0.0,,,,,,,,,,,,,,,,,,,,,,,,,,67dcc12657e2fe1375df7f89,young
140040.69999998808,,intro_1,472232,instruct,,0.0,,,,,,,,,,,,,,,,,,,,,,,,,,67dcc12657e2fe1375df7f89,young
21067.79999999702,,intro_2,493304,instruct,,1.0,Next,,,,,,,,,,,,,,,,,,,,,,,,,67dcc12657e2fe1375df7f89,young
21868.0,,intro_3,515176,instruct,,1.0,Next,,,,,,,,,,,,,,,,,,,,,,,,,67dcc12657e2fe1375df7f89,young
,,learn_prac_1,517188,lean_prac_1,,,,,,,,,,,,,,,,,,,,,,,,,,,,67dcc12657e2fe1375df7f89,young
,,html-keyboard-response,518204,<p></p>,,,,,,,,,,,,,,,,,,,,,,,,,,,,67dcc12657e2fe1375df7f89,young
98754.90000000596,,intro_1,616961,instruct,,0.0,,,,,,,,,,,,,,,,,,,,,,,,,,67dcc12657e2fe1375df7f89,young
155355.29999999702,,intro_2,772320,instruct,,1.0,Next,,,,,,,,,,,,,,,,,,,,,,,,,67dcc12657e2fe1375df7f89,young
,,learn_prac_2,774336,lean_prac_2,,,,,,,,,,,,,,,,,,,,,,,,,,,,67dcc12657e2fe1375df7f89,young
,,html-keyboard-response,775340,<p></p>,,,,,,,,,,,,,,,,,,,,,,,,,,,,67dcc12657e2fe1375df7f89,young
161994.5,,intro_1,937336,instruct,,0.0,,,,,,,,,,,,,,,,,,,,,,,,,,67dcc12657e2fe1375df7f89,young
10732.89999999106,,intro_2,948072,instruct,,1.0,Next,,,,,,,,,,,,,,,,,,,,,,,,,67dcc12657e2fe1375df7f89,young
642228.299999997,,intro_3,1590304,instruct,,1.0,Next,,,,,,,,,,,,,,,,,,,,,,,,,67dcc12657e2fe1375df7f89,young
,,prac_atten_color_black,1590701,black_plus_sign,,,,,,,,,,,,,,,,,,,,,,,,,,,,67dcc12657e2fe1375df7f89,young
430.1000000089407,,prac_atten_color,1591735,prac_stop_color,,,,49.0,,,,,,,,,,,,,,,,,,,,,,,,67dcc12657e2fe1375df7f89,young
,,prac_atten_color_black,1593742,black_plus_sign,,,,,,,,,,,,,,,,,,,,,,,,,,,,67dcc12657e2fe1375df7f89,young
,,prac_atten_color_black,1594139,black_plus_sign,,,,,,,,,,,,,,,,,,,,,,,,,,,,67dcc12657e2fe1375df7f89,young
415.5,,prac_atten_color,1595170,prac_stop_color,,,,50.0,,,,,,,,,,,,,,,,,,,,,,,,67dcc12657e2fe1375df7f89,young
,,prac_atten_color_black,1597184,black_plus_sign,,,,,,,,,,,,,,,,,,,,,,,,,,,,67dcc12657e2fe1375df7f89,young
,,prac_atten_color_black,1597566,black_plus_sign,,,,,,,,,,,,,,,,,,,,,,,,,,,,67dcc12657e2fe1375df7f89,young
592.7999999970198,,prac_atten_color,1598411,prac_stop_color,,,,50.0,,,,,,,,,,,,,,,,,,,,,,,,67dcc12657e2fe1375df7f89,young
,,prac_atten_color_black,1600429,black_plus_sign,,,,,,,,,,,,,,,,,,,,,,,,,,,,67dcc12657e2fe1375df7f89,young
,,prac_atten_color_black,1601012,black_plus_sign,,,,,,,,,,,,,,,,,,,,,,,,,,,,67dcc12657e2fe1375df7f89,young
480.40000000596046,,prac_atten_color,1601524,prac_stop_color,,,,49.0,,,,,,,,,,,,,,,,,,,,,,,,67dcc12657e2fe1375df7f89,young
,,prac_atten_color_black,1603533,black_plus_sign,,,,,,,,,,,,,,,,,,,,,,,,,,,,67dcc12657e2fe1375df7f89,young
,,prac_atten_color_black,1604434,black_plus_sign,,,,,,,,,,,,,,,,,,,,,,,,,,,,67dcc12657e2fe1375df7f89,young
451.29999999701977,,prac_atten_color,1605352,prac_stop_color,,,,50.0,,,,,,,,,,,,,,,,,,,,,,,,67dcc12657e2fe1375df7f89,young
,,prac_atten_color_black,1607358,black_plus_sign,,,,,,,,,,,,,,,,,,,,,,,,,,,,67dcc12657e2fe1375df7f89,young
,,prac_atten_color_black,1607872,black_plus_sign,,,,,,,,,,,,,,,,,,,,,,,,,,,,67dcc12657e2fe1375df7f89,young
528.0999999940395,,prac_atten_color,1608540,prac_stop_color,,,,50.0,,,,,,,,,,,,,,,,,,,,,,,,67dcc12657e2fe1375df7f89,young
,,prac_atten_color_black,1610543,black_plus_sign,,,,,,,,,,,,,,,,,,,,,,,,,,,,67dcc12657e2fe1375df7f89,young
,,prac_atten_color_black,1611299,black_plus_sign,,,,,,,,,,,,,,,,,,,,,,,,,,,,67dcc12657e2fe1375df7f89,young
487.90000000596046,,prac_atten_color,1611963,prac_stop_color,,,,49.0,,,,,,,,,,,,,,,,,,,,,,,,67dcc12657e2fe1375df7f89,young
,,prac_atten_color_black,1613967,black_plus_sign,,,,,,,,,,,,,,,,,,,,,,,,,,,,67dcc12657e2fe1375df7f89,young
,,prac_atten_color_black,1614738,black_plus_sign,,,,,,,,,,,,,,,,,,,,,,,,,,,,67dcc12657e2fe1375df7f89,young
,,prac_atten_color,1615213,prac_stop_color,,,,,,,,,,,,,,,,,,,,,,,,,,,,67dcc12657e2fe1375df7f89,young
81.0,,prac_atten_color_black,1617219,black_plus_sign,,,,50.0,,,,,,,,,,,,,,,,,,,,,,,,67dcc12657e2fe1375df7f89,young
,,prac_atten_color_black,1618172,black_plus_sign,,,,,,,,,,,,,,,,,,,,,,,,,,,,67dcc12657e2fe1375df7f89,young
407.09999999403954,,prac_atten_color,1618726,prac_stop_color,,,,49.0,,,,,,,,,,,,,,,,,,,,,,,,67dcc12657e2fe1375df7f89,young
,,prac_atten_color_black,1620733,black_plus_sign,,,,,,,,,,,,,,,,,,,,,,,,,,,,67dcc12657e2fe1375df7f89,young
,,prac_atten_color_black,1621603,black_plus_sign,,,,,,,,,,,,,,,,,,,,,,,,,,,,67dcc12657e2fe1375df7f89,young
511.5,,prac_atten_color,1622449,prac_stop_color,,,,49.0,,,,,,,,,,,,,,,,,,,,,,,,67dcc12657e2fe1375df7f89,young
,,prac_atten_color_black,1624453,black_plus_sign,,,,,,,,,,,,,,,,,,,,,,,,,,,,67dcc12657e2fe1375df7f89,young
33491.09999999404,,attentioncheck_feedback,1657947,cross_check_feedback,,0.0,,,,,,,,,,,,,,,,,,,,,,,,,,67dcc12657e2fe1375df7f89,young
248890.90000000596,,last_instruct,1906840,instruct,,,,32.0,,,,,,,,,,,,,,,,,,,,,,,,67dcc12657e2fe1375df7f89,young
,,learn_phase(without_color),1908847,black_plus_sign,,,,,GW/camera.jpg,GW/jukebox.jpg,,,,,,,,,,,,,,,,,,,,,,67dcc12657e2fe1375df7f89,young
,,black_cross(without_color),1909637,blue,,,,,GW/camera.jpg,GW/jukebox.jpg,,,,,,,,,,,,,,,,,,,,,,67dcc12657e2fe1375df7f89,young
,,rt_plussign_withcolor,1910139,blue,,,,,GW/camera.jpg,GW/jukebox.jpg,,,,,,,,,,,,,,,,,,,,,,67dcc12657e2fe1375df7f89,young
958.0999999940396,,rt_thecrossant_black,1911365,black_plus_sign,,,,49.0,,,1.0,1.0,,,,,,,,,,,,,,,,,,,,67dcc12657e2fe1375df7f89,young
,,color_black,1911475,black_plus_sign,,,,,,,,,,,,,,,,,,,,,,,,,,,,67dcc12657e2fe1375df7f89,young
,,learn_phase(without_color),1913494,black_plus_sign,,,,,GW/basket.jpg,GW/teeth.jpg,,,,,,,,,,,,,,,,,,,,,,67dcc12657e2fe1375df7f89,young
,,black_cross(without_color),1914531,blue,,,,,GW/basket.jpg,GW/teeth.jpg,,,,,,,,,,,,,,,,,,,,,,67dcc12657e2fe1375df7f89,young
,,rt_plussign_withcolor,1915039,blue,,,,,GW/basket.jpg,GW/teeth.jpg,,,,,,,,,,,,,,,,,,,,,,67dcc12657e2fe1375df7f89,young
873.0999999940395,,rt_thecrossant_black,1916029,black_plus_sign,,,,49.0,,,1.0,1.0,,,,,,,,,,,,,,,,,,,,67dcc12657e2fe1375df7f89,young
,,color_black,1916136,black_plus_sign,,,,,,,,,,,,,,,,,,,,,,,,,,,,67dcc12657e2fe1375df7f89,young
,,learn_phase(without_color),1918143,black_plus_sign,,,,,GW/wheelchair.jpg,GW/basket.jpg,,,,,,,,,,,,,,,,,,,,,,67dcc12657e2fe1375df7f89,young
,,black_cross(without_color),1918664,blue,,,,,GW/wheelchair.jpg,GW/basket.jpg,,,,,,,,,,,,,,,,,,,,,,67dcc12657e2fe1375df7f89,young
447.79999999701977,,rt_plussign_withcolor,1919168,blue,,,,49.0,GW/wheelchair.jpg,GW/basket.jpg,,,,,,,,,,,,,,,,,,,,,,67dcc12657e2fe1375df7f89,young
,,rt_thecrossant_black,1920660,black_plus_sign,,,,,,,1.0,1.0,,,,,,,,,,,,,,,,,,,,67dcc12657e2fe1375df7f89,young
,,color_black,1920765,black_plus_sign,,,,,,,,,,,,,,,,,,,,,,,,,,,,67dcc12657e2fe1375df7f89,young
,,learn_phase(without_color),1922774,black_plus_sign,,,,,GW/soldier.jpg,GW/snail.jpg,,,,,,,,,,,,,,,,,,,,,,67dcc12657e2fe1375df7f89,young
,,black_cross(without_color),1923489,green,,,,,GW/soldier.jpg,GW/snail.jpg,,,,,,,,,,,,,,,,,,,,,,67dcc12657e2fe1375df7f89,young
442.0,,rt_plussign_withcolor,1924006,green,,,,50.0,GW/soldier.jpg,GW/snail.jpg,,,,,,,,,,,,,,,,,,,,,,67dcc12657e2fe1375df7f89,young
,,rt_thecrossant_black,1925313,black_plus_sign,,,,,,,1.0,1.0,,,,,,,,,,,,,,,,,,,,67dcc12657e2fe1375df7f89,young
,,color_black,1925427,black_plus_sign,,,,,,,,,,,,,,,,,,,,,,,,,,,,67dcc12657e2fe1375df7f89,young
,,learn_phase(without_color),1927443,black_plus_sign,,,,,GW/camera.jpg,GW/soldier.jpg,,,,,,,,,,,,,,,,,,,,,,67dcc12657e2fe1375df7f89,young
,,black_cross(without_color),1928481,green,,,,,GW/camera.jpg,GW/soldier.jpg,,,,,,,,,,,,,,,,,,,,,,67dcc12657e2fe1375df7f89,young
,,rt_plussign_withcolor,1928997,green,,,,,GW/camera.jpg,GW/soldier.jpg,,,,,,,,,,,,,,,,,,,,,,67dcc12657e2fe1375df7f89,young
1106.7000000029802,,rt_thecrossant_black,1929975,black_plus_sign,,,,50.0,,,1.0,1.0,,,,,,,,,,,,,,,,,,,,67dcc12657e2fe1375df7f89,young
,,color_black,1930092,black_plus_sign,,,,,,,,,,,,,,,,,,,,,,,,,,,,67dcc12657e2fe1375df7f89,young
,,learn_phase(without_color),1932096,black_plus_sign,,,,,GW/snail.jpg,GW/teeth.jpg,,,,,,,,,,,,,,,,,,,,,,67dcc12657e2fe1375df7f89,young
,,black_cross(without_color),1932637,blue,,,,,GW/snail.jpg,GW/teeth.jpg,,,,,,,,,,,,,,,,,,,,,,67dcc12657e2fe1375df7f89,young
423.5,,rt_plussign_withcolor,1933144,blue,,,,49.0,GW/snail.jpg,GW/teeth.jpg,,,,,,,,,,,,,,,,,,,,,,67dcc12657e2fe1375df7f89,young
,,rt_thecrossant_black,1934631,black_plus_sign,,,,,,,1.0,1.0,,,,,,,,,,,,,,,,,,,,67dcc12657e2fe1375df7f89,young
,,color_black,1934741,black_plus_sign,,,,,,,,,,,,,,,,,,,,,,,,,,,,67dcc12657e2fe1375df7f89,young
,,learn_phase(without_color),1936758,black_plus_sign,,,,,GW/basket.jpg,GW/paint.jpg,,,,,,,,,,,,,,,,,,,,,,67dcc12657e2fe1375df7f89,young
,,black_cross(without_color),1937608,green,,,,,GW/basket.jpg,GW/paint.jpg,,,,,,,,,,,,,,,,,,,,,,67dcc12657e2fe1375df7f89,young
,,rt_plussign_withcolor,1938111,green,,,,,GW/basket.jpg,GW/paint.jpg,,,,,,,,,,,,,,,,,,,,,,67dcc12657e2fe1375df7f89,young
689.0,,rt_thecrossant_black,1939284,black_plus_sign,,,,50.0,,,1.0,1.0,,,,,,,,,,,,,,,,,,,,67dcc12657e2fe1375df7f89,young
,,color_black,1939396,black_plus_sign,,,,,,,,,,,,,,,,,,,,,,,,,,,,67dcc12657e2fe1375df7f89,young
,,learn_phase(without_color),1941404,black_plus_sign,,,,,GW/wheelchair.jpg,GW/teeth.jpg,,,,,,,,,,,,,,,,,,,,,,67dcc12657e2fe1375df7f89,young
,,black_cross(without_color),1942179,green,,,,,GW/wheelchair.jpg,GW/teeth.jpg,,,,,,,,,,,,,,,,,,,,,,67dcc12657e2fe1375df7f89,young
,,rt_plussign_withcolor,1942694,green,,,,,GW/wheelchair.jpg,GW/teeth.jpg,,,,,,,,,,,,,,,,,,,,,,67dcc12657e2fe1375df7f89,young
941.4000000059604,,rt_thecrossant_black,1943950,black_plus_sign,,,,50.0,,,1.0,1.0,,,,,,,,,,,,,,,,,,,,67dcc12657e2fe1375df7f89,young
,,color_black,1944069,black_plus_sign,,,,,,,,,,,,,,,,,,,,,,,,,,,,67dcc12657e2fe1375df7f89,young
,,learn_phase(without_color),1946075,black_plus_sign,,,,,GW/soldier.jpg,GW/snail.jpg,,,,,,,,,,,,,,,,,,,,,,67dcc12657e2fe1375df7f89,young
,,black_cross(without_color),1946961,blue,,,,,GW/soldier.jpg,GW/snail.jpg,,,,,,,,,,,,,,,,,,,,,,67dcc12657e2fe1375df7f89,young
441.5,,rt_plussign_withcolor,1947463,blue,,,,49.0,GW/soldier.jpg,GW/snail.jpg,,,,,,,,,,,,,,,,,,,,,,67dcc12657e2fe1375df7f89,young
,,rt_thecrossant_black,1948593,black_plus_sign,,,,,,,1.0,1.0,,,,,,,,,,,,,,,,,,,,67dcc12657e2fe1375df7f89,young
,,color_black,1948700,black_plus_sign,,,,,,,,,,,,,,,,,,,,,,,,,,,,67dcc12657e2fe1375df7f89,young
,,learn_phase(without_color),1950708,black_plus_sign,,,,,GW/wheelchair.jpg,GW/basket.jpg,,,,,,,,,,,,,,,,,,,,,,67dcc12657e2fe1375df7f89,young
,,black_cross(without_color),1951251,green,,,,,GW/wheelchair.jpg,GW/basket.jpg,,,,,,,,,,,,,,,,,,,,,,67dcc12657e2fe1375df7f89,young
,,rt_plussign_withcolor,1951752,green,,,,,GW/wheelchair.jpg,GW/basket.jpg,,,,,,,,,,,,,,,,,,,,,,67dcc12657e2fe1375df7f89,young
1058.2999999970198,,rt_thecrossant_black,1953229,black_plus_sign,,,,50.0,,,1.0,1.0,,,,,,,,,,,,,,,,,,,,67dcc12657e2fe1375df7f89,young
,,color_black,1953339,black_plus_sign,,,,,,,,,,,,,,,,,,,,,,,,,,,,67dcc12657e2fe1375df7f89,young
,,learn_phase(without_color),1955356,black_plus_sign,,,,,GW/camera.jpg,GW/jukebox.jpg,,,,,,,,,,,,,,,,,,,,,,67dcc12657e2fe1375df7f89,young
,,black_cross(without_color),1956329,green,,,,,GW/camera.jpg,GW/jukebox.jpg,,,,,,,,,,,,,,,,,,,,,,67dcc12657e2fe1375df7f89,young
,,rt_plussign_withcolor,1956842,green,,,,,GW/camera.jpg,GW/jukebox.jpg,,,,,,,,,,,,,,,,,,,,,,67dcc12657e2fe1375df7f89,young
692.1999999880791,,rt_thecrossant_black,1957876,black_plus_sign,,,,50.0,,,1.0,1.0,,,,,,,,,,,,,,,,,,,,67dcc12657e2fe1375df7f89,young
,,color_black,1957986,black_plus_sign,,,,,,,,,,,,,,,,,,,,,,,,,,,,67dcc12657e2fe1375df7f89,young
,,learn_phase(without_color),1959995,black_plus_sign,,,,,GW/snail.jpg,GW/teeth.jpg,,,,,,,,,,,,,,,,,,,,,,67dcc12657e2fe1375df7f89,young
,,black_cross(without_color),1961092,green,,,,,GW/snail.jpg,GW/teeth.jpg,,,,,,,,,,,,,,,,,,,,,,67dcc12657e2fe1375df7f89,young
,,rt_plussign_withcolor,1961599,green,,,,,GW/snail.jpg,GW/teeth.jpg,,,,,,,,,,,,,,,,,,,,,,67dcc12657e2fe1375df7f89,young
1136.5,,rt_thecrossant_black,1962514,black_plus_sign,,,,50.0,,,1.0,1.0,,,,,,,,,,,,,,,,,,,,67dcc12657e2fe1375df7f89,young
,,color_black,1962624,black_plus_sign,,,,,,,,,,,,,,,,,,,,,,,,,,,,67dcc12657e2fe1375df7f89,young
,,learn_phase(without_color),1964633,black_plus_sign,,,,,GW/camera.jpg,GW/jukebox.jpg,,,,,,,,,,,,,,,,,,,,,,67dcc12657e2fe1375df7f89,young
,,black_cross(without_color),1965472,blue,,,,,GW/camera.jpg,GW/jukebox.jpg,,,,,,,,,,,,,,,,,,,,,,67dcc12657e2fe1375df7f89,young
484.29999999701977,,rt_plussign_withcolor,1965976,blue,,,,49.0,GW/camera.jpg,GW/jukebox.jpg,,,,,,,,,,,,,,,,,,,,,,67dcc12657e2fe1375df7f89,young
,,rt_thecrossant_black,1967156,black_plus_sign,,,,,,,1.0,1.0,,,,,,,,,,,,,,,,,,,,67dcc12657e2fe1375df7f89,young
,,color_black,1967265,black_plus_sign,,,,,,,,,,,,,,,,,,,,,,,,,,,,67dcc12657e2fe1375df7f89,young
,,learn_phase(without_color),1969280,black_plus_sign,,,,,GW/basket.jpg,GW/paint.jpg,,,,,,,,,,,,,,,,,,,,,,67dcc12657e2fe1375df7f89,young
,,black_cross(without_color),1970340,blue,,,,,GW/basket.jpg,GW/paint.jpg,,,,,,,,,,,,,,,,,,,,,,67dcc12657e2fe1375df7f89,young
,,rt_plussign_withcolor,1970844,blue,,,,,GW/basket.jpg,GW/paint.jpg,,,,,,,,,,,,,,,,,,,,,,67dcc12657e2fe1375df7f89,young
1076.0,,rt_thecrossant_black,1971807,black_plus_sign,,,,49.0,,,1.0,1.0,,,,,,,,,,,,,,,,,,,,67dcc12657e2fe1375df7f89,young
,,color_black,1971919,black_plus_sign,,,,,,,,,,,,,,,,,,,,,,,,,,,,67dcc12657e2fe1375df7f89,young
,,learn_phase(without_color),1973936,black_plus_sign,,,,,GW/camera.jpg,GW/soldier.jpg,,,,,,,,,,,,,,,,,,,,,,67dcc12657e2fe1375df7f89,young
,,black_cross(without_color),1974433,blue,,,,,GW/camera.jpg,GW/soldier.jpg,,,,,,,,,,,,,,,,,,,,,,67dcc12657e2fe1375df7f89,young
,,rt_plussign_withcolor,1974947,blue,,,,,GW/camera.jpg,GW/soldier.jpg,,,,,,,,,,,,,,,,,,,,,,67dcc12657e2fe1375df7f89,young
1206.1000000089407,,rt_thecrossant_black,1976471,black_plus_sign,,,,49.0,,,1.0,1.0,,,,,,,,,,,,,,,,,,,,67dcc12657e2fe1375df7f89,young
,,color_black,1976580,black_plus_sign,,,,,,,,,,,,,,,,,,,,,,,,,,,,67dcc12657e2fe1375df7f89,young
,,learn_phase(without_color),1978593,black_plus_sign,,,,,GW/basket.jpg,GW/teeth.jpg,,,,,,,,,,,,,,,,,,,,,,67dcc12657e2fe1375df7f89,young
,,black_cross(without_color),1979260,blue,,,,,GW/basket.jpg,GW/teeth.jpg,,,,,,,,,,,,,,,,,,,,,,67dcc12657e2fe1375df7f89,young
,,rt_plussign_withcolor,1979762,blue,,,,,GW/basket.jpg,GW/teeth.jpg,,,,,,,,,,,,,,,,,,,,,,67dcc12657e2fe1375df7f89,young
624.6999999880791,,rt_thecrossant_black,1981104,black_plus_sign,,,,49.0,,,1.0,1.0,,,,,,,,,,,,,,,,,,,,67dcc12657e2fe1375df7f89,young
,,color_black,1981214,black_plus_sign,,,,,,,,,,,,,,,,,,,,,,,,,,,,67dcc12657e2fe1375df7f89,young
,,learn_phase(without_color),1983221,black_plus_sign,,,,,GW/basket.jpg,GW/paint.jpg,,,,,,,,,,,,,,,,,,,,,,67dcc12657e2fe1375df7f89,young
,,black_cross(without_color),1983848,blue,,,,,GW/basket.jpg,GW/paint.jpg,,,,,,,,,,,,,,,,,,,,,,67dcc12657e2fe1375df7f89,young
,,rt_plussign_withcolor,1984355,blue,,,,,GW/basket.jpg,GW/paint.jpg,,,,,,,,,,,,,,,,,,,,,,67dcc12657e2fe1375df7f89,young
763.2999999970198,,rt_thecrossant_black,1985747,black_plus_sign,,,,49.0,,,1.0,1.0,,,,,,,,,,,,,,,,,,,,67dcc12657e2fe1375df7f89,young
,,color_black,1985855,black_plus_sign,,,,,,,,,,,,,,,,,,,,,,,,,,,,67dcc12657e2fe1375df7f89,young
,,learn_phase(without_color),1987870,black_plus_sign,,,,,GW/wheelchair.jpg,GW/gong.jpg,,,,,,,,,,,,,,,,,,,,,,67dcc12657e2fe1375df7f89,young
,,black_cross(without_color),1988526,blue,,,,,GW/wheelchair.jpg,GW/gong.jpg,,,,,,,,,,,,,,,,,,,,,,67dcc12657e2fe1375df7f89,young
,,rt_plussign_withcolor,1989045,blue,,,,,GW/wheelchair.jpg,GW/gong.jpg,,,,,,,,,,,,,,,,,,,,,,67dcc12657e2fe1375df7f89,young
790.4000000059605,,rt_thecrossant_black,1990401,black_plus_sign,,,,49.0,,,1.0,1.0,,,,,,,,,,,,,,,,,,,,67dcc12657e2fe1375df7f89,young
,,color_black,1990508,black_plus_sign,,,,,,,,,,,,,,,,,,,,,,,,,,,,67dcc12657e2fe1375df7f89,young
,,learn_phase(without_color),1992522,black_plus_sign,,,,,GW/jukebox.jpg,GW/globe.jpg,,,,,,,,,,,,,,,,,,,,,,67dcc12657e2fe1375df7f89,young
,,black_cross(without_color),1993587,green,,,,,GW/jukebox.jpg,GW/globe.jpg,,,,,,,,,,,,,,,,,,,,,,67dcc12657e2fe1375df7f89,young
491.40000000596046,,rt_plussign_withcolor,1994093,green,,,,50.0,GW/jukebox.jpg,GW/globe.jpg,,,,,,,,,,,,,,,,,,,,,,67dcc12657e2fe1375df7f89,young
,,rt_thecrossant_black,1995050,black_plus_sign,,,,,,,1.0,1.0,,,,,,,,,,,,,,,,,,,,67dcc12657e2fe1375df7f89,young
,,color_black,1995155,black_plus_sign,,,,,,,,,,,,,,,,,,,,,,,,,,,,67dcc12657e2fe1375df7f89,young
,,learn_phase(without_color),1997183,black_plus_sign,,,,,GW/jukebox.jpg,GW/barrel.jpg,,,,,,,,,,,,,,,,,,,,,,67dcc12657e2fe1375df7f89,young
,,black_cross(without_color),1998183,green,,,,,GW/jukebox.jpg,GW/barrel.jpg,,,,,,,,,,,,,,,,,,,,,,67dcc12657e2fe1375df7f89,young
,,rt_plussign_withcolor,1998694,green,,,,,GW/jukebox.jpg,GW/barrel.jpg,,,,,,,,,,,,,,,,,,,,,,67dcc12657e2fe1375df7f89,young
1154.4000000059605,,rt_thecrossant_black,1999722,black_plus_sign,,,,50.0,,,1.0,1.0,,,,,,,,,,,,,,,,,,,,67dcc12657e2fe1375df7f89,young
,,color_black,1999828,black_plus_sign,,,,,,,,,,,,,,,,,,,,,,,,,,,,67dcc12657e2fe1375df7f89,young
,,learn_phase(without_color),2001840,black_plus_sign,,,,,GW/wheelchair.jpg,GW/gong.jpg,,,,,,,,,,,,,,,,,,,,,,67dcc12657e2fe1375df7f89,young
,,black_cross(without_color),2002833,green,,,,,GW/wheelchair.jpg,GW/gong.jpg,,,,,,,,,,,,,,,,,,,,,,67dcc12657e2fe1375df7f89,young
,,rt_plussign_withcolor,2003337,green,,,,,GW/wheelchair.jpg,GW/gong.jpg,,,,,,,,,,,,,,,,,,,,,,67dcc12657e2fe1375df7f89,young
1090.7000000029802,,rt_thecrossant_black,2004367,black_plus_sign,,,,50.0,,,1.0,1.0,,,,,,,,,,,,,,,,,,,,67dcc12657e2fe1375df7f89,young
,,color_black,2004471,black_plus_sign,,,,,,,,,,,,,,,,,,,,,,,,,,,,67dcc12657e2fe1375df7f89,young
,,learn_phase(without_color),2006480,black_plus_sign,,,,,GW/wheelchair.jpg,GW/basket.jpg,,,,,,,,,,,,,,,,,,,,,,67dcc12657e2fe1375df7f89,young
,,black_cross(without_color),2007510,green,,,,,GW/wheelchair.jpg,GW/basket.jpg,,,,,,,,,,,,,,,,,,,,,,67dcc12657e2fe1375df7f89,young
,,rt_plussign_withcolor,2008011,green,,,,,GW/wheelchair.jpg,GW/basket.jpg,,,,,,,,,,,,,,,,,,,,,,67dcc12657e2fe1375df7f89,young
1102.2000000029802,,rt_thecrossant_black,2009004,black_plus_sign,,,,50.0,,,1.0,1.0,,,,,,,,,,,,,,,,,,,,67dcc12657e2fe1375df7f89,young
,,color_black,2009118,black_plus_sign,,,,,,,,,,,,,,,,,,,,,,,,,,,,67dcc12657e2fe1375df7f89,young
,,learn_phase(without_color),2011135,black_plus_sign,,,,,GW/teeth.jpg,GW/dustpan.jpg,,,,,,,,,,,,,,,,,,,,,,67dcc12657e2fe1375df7f89,young
,,black_cross(without_color),2011920,blue,,,,,GW/teeth.jpg,GW/dustpan.jpg,,,,,,,,,,,,,,,,,,,,,,67dcc12657e2fe1375df7f89,young
,,rt_plussign_withcolor,2012427,blue,,,,,GW/teeth.jpg,GW/dustpan.jpg,,,,,,,,,,,,,,,,,,,,,,67dcc12657e2fe1375df7f89,young
1130.0,,rt_thecrossant_black,2013662,black_plus_sign,,,,49.0,,,1.0,1.0,,,,,,,,,,,,,,,,,,,,67dcc12657e2fe1375df7f89,young
,,color_black,2013766,black_plus_sign,,,,,,,,,,,,,,,,,,,,,,,,,,,,67dcc12657e2fe1375df7f89,young
,,learn_phase(without_color),2015772,black_plus_sign,,,,,GW/hat.jpg,GW/camera.jpg,,,,,,,,,,,,,,,,,,,,,,67dcc12657e2fe1375df7f89,young
,,black_cross(without_color),2016423,green,,,,,GW/hat.jpg,GW/camera.jpg,,,,,,,,,,,,,,,,,,,,,,67dcc12657e2fe1375df7f89,young
475.79999999701977,,rt_plussign_withcolor,2016933,green,,,,50.0,GW/hat.jpg,GW/camera.jpg,,,,,,,,,,,,,,,,,,,,,,67dcc12657e2fe1375df7f89,young
,,rt_thecrossant_black,2018312,black_plus_sign,,,,,,,1.0,1.0,,,,,,,,,,,,,,,,,,,,67dcc12657e2fe1375df7f89,young
,,color_black,2018421,black_plus_sign,,,,,,,,,,,,,,,,,,,,,,,,,,,,67dcc12657e2fe1375df7f89,young
,,learn_phase(without_color),2020431,black_plus_sign,,,,,GW/dustpan.jpg,GW/globe.jpg,,,,,,,,,,,,,,,,,,,,,,67dcc12657e2fe1375df7f89,young
,,black_cross(without_color),2020851,green,,,,,GW/dustpan.jpg,GW/globe.jpg,,,,,,,,,,,,,,,,,,,,,,67dcc12657e2fe1375df7f89,young
,,rt_plussign_withcolor,2021363,green,,,,,GW/dustpan.jpg,GW/globe.jpg,,,,,,,,,,,,,,,,,,,,,,67dcc12657e2fe1375df7f89,young
769.2999999970198,,rt_thecrossant_black,2022963,black_plus_sign,,,,49.0,,,0.0,0.96,,,,,,,,,,,,,,,,,,,,67dcc12657e2fe1375df7f89,young
,,color_black,2023078,black_plus_sign,,,,,,,,,,,,,,,,,,,,,,,,,,,,67dcc12657e2fe1375df7f89,young
,,learn_phase(without_color),2025089,black_plus_sign,,,,,GW/teeth.jpg,GW/dustpan.jpg,,,,,,,,,,,,,,,,,,,,,,67dcc12657e2fe1375df7f89,young
,,black_cross(without_color),2025939,blue,,,,,GW/teeth.jpg,GW/dustpan.jpg,,,,,,,,,,,,,,,,,,,,,,67dcc12657e2fe1375df7f89,young
466.70000000298023,,rt_plussign_withcolor,2026451,blue,,,,49.0,GW/teeth.jpg,GW/dustpan.jpg,,,,,,,,,,,,,,,,,,,,,,67dcc12657e2fe1375df7f89,young
,,rt_thecrossant_black,2027623,black_plus_sign,,,,,,,1.0,0.9615384615384616,,,,,,,,,,,,,,,,,,,,67dcc12657e2fe1375df7f89,young
,,color_black,2027738,black_plus_sign,,,,,,,,,,,,,,,,,,,,,,,,,,,,67dcc12657e2fe1375df7f89,young
,,learn_phase(without_color),2029744,black_plus_sign,,,,,GW/camera.jpg,GW/jukebox.jpg,,,,,,,,,,,,,,,,,,,,,,67dcc12657e2fe1375df7f89,young
,,black_cross(without_color),2030567,green,,,,,GW/camera.jpg,GW/jukebox.jpg,,,,,,,,,,,,,,,,,,,,,,67dcc12657e2fe1375df7f89,young
,,rt_plussign_withcolor,2031070,green,,,,,GW/camera.jpg,GW/jukebox.jpg,,,,,,,,,,,,,,,,,,,,,,67dcc12657e2fe1375df7f89,young
1023.2000000029802,,rt_thecrossant_black,2032274,black_plus_sign,,,,50.0,,,1.0,0.9629629629629628,,,,,,,,,,,,,,,,,,,,67dcc12657e2fe1375df7f89,young
,,color_black,2032382,black_plus_sign,,,,,,,,,,,,,,,,,,,,,,,,,,,,67dcc12657e2fe1375df7f89,young
,,learn_phase(without_color),2034388,black_plus_sign,,,,,GW/soldier.jpg,GW/snail.jpg,,,,,,,,,,,,,,,,,,,,,,67dcc12657e2fe1375df7f89,young
,,black_cross(without_color),2035436,blue,,,,,GW/soldier.jpg,GW/snail.jpg,,,,,,,,,,,,,,,,,,,,,,67dcc12657e2fe1375df7f89,young
495.0,,rt_plussign_withcolor,2035946,blue,,,,49.0,GW/soldier.jpg,GW/snail.jpg,,,,,,,,,,,,,,,,,,,,,,67dcc12657e2fe1375df7f89,young
,,rt_thecrossant_black,2036923,black_plus_sign,,,,,,,1.0,0.9642857142857144,,,,,,,,,,,,,,,,,,,,67dcc12657e2fe1375df7f89,young
,,color_black,2037038,black_plus_sign,,,,,,,,,,,,,,,,,,,,,,,,,,,,67dcc12657e2fe1375df7f89,young
,,learn_phase(without_color),2039042,black_plus_sign,,,,,GW/teeth.jpg,GW/dustpan.jpg,,,,,,,,,,,,,,,,,,,,,,67dcc12657e2fe1375df7f89,young
,,black_cross(without_color),2039482,blue,,,,,GW/teeth.jpg,GW/dustpan.jpg,,,,,,,,,,,,,,,,,,,,,,67dcc12657e2fe1375df7f89,young
,,rt_plussign_withcolor,2039987,blue,,,,,GW/teeth.jpg,GW/dustpan.jpg,,,,,,,,,,,,,,,,,,,,,,67dcc12657e2fe1375df7f89,young
1265.4000000059605,,rt_thecrossant_black,2041572,black_plus_sign,,,,49.0,,,1.0,0.9655172413793104,,,,,,,,,,,,,,,,,,,,67dcc12657e2fe1375df7f89,young
,,color_black,2041684,black_plus_sign,,,,,,,,,,,,,,,,,,,,,,,,,,,,67dcc12657e2fe1375df7f89,young
,,learn_phase(without_color),2043703,black_plus_sign,,,,,GW/snail.jpg,GW/wheelchair.jpg,,,,,,,,,,,,,,,,,,,,,,67dcc12657e2fe1375df7f89,young
,,black_cross(without_color),2044286,blue,,,,,GW/snail.jpg,GW/wheelchair.jpg,,,,,,,,,,,,,,,,,,,,,,67dcc12657e2fe1375df7f89,young
,,rt_plussign_withcolor,2044796,blue,,,,,GW/snail.jpg,GW/wheelchair.jpg,,,,,,,,,,,,,,,,,,,,,,67dcc12657e2fe1375df7f89,young
597.5,,rt_thecrossant_black,2046241,black_plus_sign,,,,49.0,,,1.0,0.9666666666666668,,,,,,,,,,,,,,,,,,,,67dcc12657e2fe1375df7f89,young
,,color_black,2046349,black_plus_sign,,,,,,,,,,,,,,,,,,,,,,,,,,,,67dcc12657e2fe1375df7f89,young
,,learn_phase(without_color),2048355,black_plus_sign,,,,,GW/teeth.jpg,GW/dustpan.jpg,,,,,,,,,,,,,,,,,,,,,,67dcc12657e2fe1375df7f89,young
,,black_cross(without_color),2049027,green,,,,,GW/teeth.jpg,GW/dustpan.jpg,,,,,,,,,,,,,,,,,,,,,,67dcc12657e2fe1375df7f89,young
,,rt_plussign_withcolor,2049538,green,,,,,GW/teeth.jpg,GW/dustpan.jpg,,,,,,,,,,,,,,,,,,,,,,67dcc12657e2fe1375df7f89,young
680.7999999970198,,rt_thecrossant_black,2050879,black_plus_sign,,,,50.0,,,1.0,0.967741935483871,,,,,,,,,,,,,,,,,,,,67dcc12657e2fe1375df7f89,young
,,color_black,2050989,black_plus_sign,,,,,,,,,,,,,,,,,,,,,,,,,,,,67dcc12657e2fe1375df7f89,young
,,learn_phase(without_color),2052994,black_plus_sign,,,,,GW/wheelchair.jpg,GW/basket.jpg,,,,,,,,,,,,,,,,,,,,,,67dcc12657e2fe1375df7f89,young
,,black_cross(without_color),2053434,blue,,,,,GW/wheelchair.jpg,GW/basket.jpg,,,,,,,,,,,,,,,,,,,,,,67dcc12657e2fe1375df7f89,young
,,rt_plussign_withcolor,2053939,blue,,,,,GW/wheelchair.jpg,GW/basket.jpg,,,,,,,,,,,,,,,,,,,,,,67dcc12657e2fe1375df7f89,young
799.5,,rt_thecrossant_black,2055522,black_plus_sign,,,,49.0,,,1.0,0.96875,,,,,,,,,,,,,,,,,,,,67dcc12657e2fe1375df7f89,young
,,color_black,2055632,black_plus_sign,,,,,,,,,,,,,,,,,,,,,,,,,,,,67dcc12657e2fe1375df7f89,young
,,learn_phase(without_color),2057641,black_plus_sign,,,,,GW/dustpan.jpg,GW/globe.jpg,,,,,,,,,,,,,,,,,,,,,,67dcc12657e2fe1375df7f89,young
,,black_cross(without_color),2058576,green,,,,,GW/dustpan.jpg,GW/globe.jpg,,,,,,,,,,,,,,,,,,,,,,67dcc12657e2fe1375df7f89,young
457.29999999701977,,rt_plussign_withcolor,2059079,green,,,,50.0,GW/dustpan.jpg,GW/globe.jpg,,,,,,,,,,,,,,,,,,,,,,67dcc12657e2fe1375df7f89,young
,,rt_thecrossant_black,2060152,black_plus_sign,,,,,,,1.0,0.9696969696969696,,,,,,,,,,,,,,,,,,,,67dcc12657e2fe1375df7f89,young
,,color_black,2060257,black_plus_sign,,,,,,,,,,,,,,,,,,,,,,,,,,,,67dcc12657e2fe1375df7f89,young
,,learn_phase(without_color),2062265,black_plus_sign,,,,,GW/jukebox.jpg,GW/barrel.jpg,,,,,,,,,,,,,,,,,,,,,,67dcc12657e2fe1375df7f89,young
,,black_cross(without_color),2063057,blue,,,,,GW/jukebox.jpg,GW/barrel.jpg,,,,,,,,,,,,,,,,,,,,,,67dcc12657e2fe1375df7f89,young
,,rt_plussign_withcolor,2063567,blue,,,,,GW/jukebox.jpg,GW/barrel.jpg,,,,,,,,,,,,,,,,,,,,,,67dcc12657e2fe1375df7f89,young
1104.0999999940395,,rt_thecrossant_black,2064800,black_plus_sign,,,,49.0,,,1.0,0.9705882352941176,,,,,,,,,,,,,,,,,,,,67dcc12657e2fe1375df7f89,young
,,color_black,2064909,black_plus_sign,,,,,,,,,,,,,,,,,,,,,,,,,,,,67dcc12657e2fe1375df7f89,young
,,learn_phase(without_color),2066918,black_plus_sign,,,,,GW/hat.jpg,GW/camera.jpg,,,,,,,,,,,,,,,,,,,,,,67dcc12657e2fe1375df7f89,young
,,black_cross(without_color),2067904,blue,,,,,GW/hat.jpg,GW/camera.jpg,,,,,,,,,,,,,,,,,,,,,,67dcc12657e2fe1375df7f89,young
,,rt_plussign_withcolor,2068411,blue,,,,,GW/hat.jpg,GW/camera.jpg,,,,,,,,,,,,,,,,,,,,,,67dcc12657e2fe1375df7f89,young
885.7000000029802,,rt_thecrossant_black,2069447,black_plus_sign,,,,49.0,,,1.0,0.9714285714285714,,,,,,,,,,,,,,,,,,,,67dcc12657e2fe1375df7f89,young
,,color_black,2069555,black_plus_sign,,,,,,,,,,,,,,,,,,,,,,,,,,,,67dcc12657e2fe1375df7f89,young
,,learn_phase(without_color),2071569,black_plus_sign,,,,,GW/snail.jpg,GW/teeth.jpg,,,,,,,,,,,,,,,,,,,,,,67dcc12657e2fe1375df7f89,young
,,black_cross(without_color),2072571,blue,,,,,GW/snail.jpg,GW/teeth.jpg,,,,,,,,,,,,,,,,,,,,,,67dcc12657e2fe1375df7f89,young
480.09999999403954,,rt_plussign_withcolor,2073079,blue,,,,49.0,GW/snail.jpg,GW/teeth.jpg,,,,,,,,,,,,,,,,,,,,,,67dcc12657e2fe1375df7f89,young
,,rt_thecrossant_black,2074101,black_plus_sign,,,,,,,1.0,0.9722222222222222,,,,,,,,,,,,,,,,,,,,67dcc12657e2fe1375df7f89,young
,,color_black,2074208,black_plus_sign,,,,,,,,,,,,,,,,,,,,,,,,,,,,67dcc12657e2fe1375df7f89,young
,,learn_phase(without_color),2076219,black_plus_sign,,,,,GW/jukebox.jpg,GW/barrel.jpg,,,,,,,,,,,,,,,,,,,,,,67dcc12657e2fe1375df7f89,young
,,black_cross(without_color),2077161,green,,,,,GW/jukebox.jpg,GW/barrel.jpg,,,,,,,,,,,,,,,,,,,,,,67dcc12657e2fe1375df7f89,young
,,rt_plussign_withcolor,2077673,green,,,,,GW/jukebox.jpg,GW/barrel.jpg,,,,,,,,,,,,,,,,,,,,,,67dcc12657e2fe1375df7f89,young
1179.0,,rt_thecrossant_black,2078751,black_plus_sign,,,,50.0,,,1.0,0.972972972972973,,,,,,,,,,,,,,,,,,,,67dcc12657e2fe1375df7f89,young
,,color_black,2078868,black_plus_sign,,,,,,,,,,,,,,,,,,,,,,,,,,,,67dcc12657e2fe1375df7f89,young
,,learn_phase(without_color),2080879,black_plus_sign,,,,,GW/hat.jpg,GW/camera.jpg,,,,,,,,,,,,,,,,,,,,,,67dcc12657e2fe1375df7f89,young
,,black_cross(without_color),2081873,green,,,,,GW/hat.jpg,GW/camera.jpg,,,,,,,,,,,,,,,,,,,,,,67dcc12657e2fe1375df7f89,young
477.0,,rt_plussign_withcolor,2082374,green,,,,50.0,GW/hat.jpg,GW/camera.jpg,,,,,,,,,,,,,,,,,,,,,,67dcc12657e2fe1375df7f89,young
,,rt_thecrossant_black,2083401,black_plus_sign,,,,,,,1.0,0.9736842105263158,,,,,,,,,,,,,,,,,,,,67dcc12657e2fe1375df7f89,young
,,color_black,2083507,black_plus_sign,,,,,,,,,,,,,,,,,,,,,,,,,,,,67dcc12657e2fe1375df7f89,young
,,learn_phase(without_color),2085514,black_plus_sign,,,,,GW/basket.jpg,GW/paint.jpg,,,,,,,,,,,,,,,,,,,,,,67dcc12657e2fe1375df7f89,young
,,black_cross(without_color),2086208,blue,,,,,GW/basket.jpg,GW/paint.jpg,,,,,,,,,,,,,,,,,,,,,,67dcc12657e2fe1375df7f89,young
,,rt_plussign_withcolor,2086722,blue,,,,,GW/basket.jpg,GW/paint.jpg,,,,,,,,,,,,,,,,,,,,,,67dcc12657e2fe1375df7f89,young
1127.199999988079,,rt_thecrossant_black,2088052,black_plus_sign,,,,49.0,,,1.0,0.9743589743589745,,,,,,,,,,,,,,,,,,,,67dcc12657e2fe1375df7f89,young
,,color_black,2088165,black_plus_sign,,,,,,,,,,,,,,,,,,,,,,,,,,,,67dcc12657e2fe1375df7f89,young
,,learn_phase(without_color),2090176,black_plus_sign,,,,,GW/soldier.jpg,GW/dustpan.jpg,,,,,,,,,,,,,,,,,,,,,,67dcc12657e2fe1375df7f89,young
,,black_cross(without_color),2091234,blue,,,,,GW/soldier.jpg,GW/dustpan.jpg,,,,,,,,,,,,,,,,,,,,,,67dcc12657e2fe1375df7f89,young
498.0,,rt_plussign_withcolor,2091741,blue,,,,49.0,GW/soldier.jpg,GW/dustpan.jpg,,,,,,,,,,,,,,,,,,,,,,67dcc12657e2fe1375df7f89,young
,,rt_thecrossant_black,2092706,black_plus_sign,,,,,,,1.0,0.975,,,,,,,,,,,,,,,,,,,,67dcc12657e2fe1375df7f89,young
,,color_black,2092814,black_plus_sign,,,,,,,,,,,,,,,,,,,,,,,,,,,,67dcc12657e2fe1375df7f89,young
,,learn_phase(without_color),2094831,black_plus_sign,,,,,GW/snail.jpg,GW/wheelchair.jpg,,,,,,,,,,,,,,,,,,,,,,67dcc12657e2fe1375df7f89,young
,,black_cross(without_color),2095394,blue,,,,,GW/snail.jpg,GW/wheelchair.jpg,,,,,,,,,,,,,,,,,,,,,,67dcc12657e2fe1375df7f89,young
466.29999999701977,,rt_plussign_withcolor,2095900,blue,,,,49.0,GW/snail.jpg,GW/wheelchair.jpg,,,,,,,,,,,,,,,,,,,,,,67dcc12657e2fe1375df7f89,young
,,rt_thecrossant_black,2097352,black_plus_sign,,,,,,,1.0,0.975609756097561,,,,,,,,,,,,,,,,,,,,67dcc12657e2fe1375df7f89,young
,,color_black,2097457,black_plus_sign,,,,,,,,,,,,,,,,,,,,,,,,,,,,67dcc12657e2fe1375df7f89,young
,,learn_phase(without_color),2099463,black_plus_sign,,,,,GW/wheelchair.jpg,GW/teeth.jpg,,,,,,,,,,,,,,,,,,,,,,67dcc12657e2fe1375df7f89,young
,,black_cross(without_color),2099935,blue,,,,,GW/wheelchair.jpg,GW/teeth.jpg,,,,,,,,,,,,,,,,,,,,,,67dcc12657e2fe1375df7f89,young
493.6000000089407,,rt_plussign_withcolor,2100439,blue,,,,49.0,GW/wheelchair.jpg,GW/teeth.jpg,,,,,,,,,,,,,,,,,,,,,,67dcc12657e2fe1375df7f89,young
,,rt_thecrossant_black,2101985,black_plus_sign,,,,,,,1.0,0.9761904761904762,,,,,,,,,,,,,,,,,,,,67dcc12657e2fe1375df7f89,young
,,color_black,2102101,black_plus_sign,,,,,,,,,,,,,,,,,,,,,,,,,,,,67dcc12657e2fe1375df7f89,young
,,learn_phase(without_color),2104116,black_plus_sign,,,,,GW/camera.jpg,GW/soldier.jpg,,,,,,,,,,,,,,,,,,,,,,67dcc12657e2fe1375df7f89,young
,,black_cross(without_color),2104637,blue,,,,,GW/camera.jpg,GW/soldier.jpg,,,,,,,,,,,,,,,,,,,,,,67dcc12657e2fe1375df7f89,young
,,rt_plussign_withcolor,2105149,blue,,,,,GW/camera.jpg,GW/soldier.jpg,,,,,,,,,,,,,,,,,,,,,,67dcc12657e2fe1375df7f89,young
565.5,,rt_thecrossant_black,2106651,black_plus_sign,,,,49.0,,,1.0,0.9767441860465116,,,,,,,,,,,,,,,,,,,,67dcc12657e2fe1375df7f89,young
,,color_black,2106761,black_plus_sign,,,,,,,,,,,,,,,,,,,,,,,,,,,,67dcc12657e2fe1375df7f89,young
,,learn_phase(without_color),2108777,black_plus_sign,,,,,GW/snail.jpg,GW/wheelchair.jpg,,,,,,,,,,,,,,,,,,,,,,67dcc12657e2fe1375df7f89,young
,,black_cross(without_color),2109547,blue,,,,,GW/snail.jpg,GW/wheelchair.jpg,,,,,,,,,,,,,,,,,,,,,,67dcc12657e2fe1375df7f89,young
,,rt_plussign_withcolor,2110057,blue,,,,,GW/snail.jpg,GW/wheelchair.jpg,,,,,,,,,,,,,,,,,,,,,,67dcc12657e2fe1375df7f89,young
650.3000000119209,,rt_thecrossant_black,2111310,black_plus_sign,,,,49.0,,,1.0,0.9772727272727272,,,,,,,,,,,,,,,,,,,,67dcc12657e2fe1375df7f89,young
,,color_black,2111419,black_plus_sign,,,,,,,,,,,,,,,,,,,,,,,,,,,,67dcc12657e2fe1375df7f89,young
,,learn_phase(without_color),2113428,black_plus_sign,,,,,GW/wheelchair.jpg,GW/gong.jpg,,,,,,,,,,,,,,,,,,,,,,67dcc12657e2fe1375df7f89,young
,,black_cross(without_color),2114231,blue,,,,,GW/wheelchair.jpg,GW/gong.jpg,,,,,,,,,,,,,,,,,,,,,,67dcc12657e2fe1375df7f89,young
,,rt_plussign_withcolor,2114733,blue,,,,,GW/wheelchair.jpg,GW/gong.jpg,,,,,,,,,,,,,,,,,,,,,,67dcc12657e2fe1375df7f89,young
883.2000000029802,,rt_thecrossant_black,2115947,black_plus_sign,,,,49.0,,,1.0,0.9777777777777776,,,,,,,,,,,,,,,,,,,,67dcc12657e2fe1375df7f89,young
,,color_black,2116054,black_plus_sign,,,,,,,,,,,,,,,,,,,,,,,,,,,,67dcc12657e2fe1375df7f89,young
,,learn_phase(without_color),2118068,black_plus_sign,,,,,GW/jukebox.jpg,GW/barrel.jpg,,,,,,,,,,,,,,,,,,,,,,67dcc12657e2fe1375df7f89,young
,,black_cross(without_color),2118548,green,,,,,GW/jukebox.jpg,GW/barrel.jpg,,,,,,,,,,,,,,,,,,,,,,67dcc12657e2fe1375df7f89,young
,,rt_plussign_withcolor,2119064,green,,,,,GW/jukebox.jpg,GW/barrel.jpg,,,,,,,,,,,,,,,,,,,,,,67dcc12657e2fe1375df7f89,young
951.0,,rt_thecrossant_black,2120599,black_plus_sign,,,,50.0,,,1.0,0.9782608695652174,,,,,,,,,,,,,,,,,,,,67dcc12657e2fe1375df7f89,young
,,color_black,2120713,black_plus_sign,,,,,,,,,,,,,,,,,,,,,,,,,,,,67dcc12657e2fe1375df7f89,young
,,learn_phase(without_color),2122723,black_plus_sign,,,,,GW/snail.jpg,GW/teeth.jpg,,,,,,,,,,,,,,,,,,,,,,67dcc12657e2fe1375df7f89,young
,,black_cross(without_color),2123624,blue,,,,,GW/snail.jpg,GW/teeth.jpg,,,,,,,,,,,,,,,,,,,,,,67dcc12657e2fe1375df7f89,young
,,rt_plussign_withcolor,2124134,blue,,,,,GW/snail.jpg,GW/teeth.jpg,,,,,,,,,,,,,,,,,,,,,,67dcc12657e2fe1375df7f89,young
651.2999999970198,,rt_thecrossant_black,2125253,black_plus_sign,,,,49.0,,,1.0,0.9787234042553192,,,,,,,,,,,,,,,,,,,,67dcc12657e2fe1375df7f89,young
,,color_black,2125364,black_plus_sign,,,,,,,,,,,,,,,,,,,,,,,,,,,,67dcc12657e2fe1375df7f89,young
,,learn_phase(without_color),2127383,black_plus_sign,,,,,GW/dustpan.jpg,GW/globe.jpg,,,,,,,,,,,,,,,,,,,,,,67dcc12657e2fe1375df7f89,young
,,black_cross(without_color),2128196,blue,,,,,GW/dustpan.jpg,GW/globe.jpg,,,,,,,,,,,,,,,,,,,,,,67dcc12657e2fe1375df7f89,young
,,rt_plussign_withcolor,2128709,blue,,,,,GW/dustpan.jpg,GW/globe.jpg,,,,,,,,,,,,,,,,,,,,,,67dcc12657e2fe1375df7f89,young
1053.2000000029802,,rt_thecrossant_black,2129927,black_plus_sign,,,,49.0,,,1.0,0.9791666666666666,,,,,,,,,,,,,,,,,,,,67dcc12657e2fe1375df7f89,young
,,color_black,2130032,black_plus_sign,,,,,,,,,,,,,,,,,,,,,,,,,,,,67dcc12657e2fe1375df7f89,young
,,learn_phase(without_color),2132040,black_plus_sign,,,,,GW/camera.jpg,GW/jukebox.jpg,,,,,,,,,,,,,,,,,,,,,,67dcc12657e2fe1375df7f89,young
,,black_cross(without_color),2133092,green,,,,,GW/camera.jpg,GW/jukebox.jpg,,,,,,,,,,,,,,,,,,,,,,67dcc12657e2fe1375df7f89,young
495.79999999701977,,rt_plussign_withcolor,2133599,green,,,,50.0,GW/camera.jpg,GW/jukebox.jpg,,,,,,,,,,,,,,,,,,,,,,67dcc12657e2fe1375df7f89,young
,,rt_thecrossant_black,2134569,black_plus_sign,,,,,,,1.0,0.979591836734694,,,,,,,,,,,,,,,,,,,,67dcc12657e2fe1375df7f89,young
,,color_black,2134684,black_plus_sign,,,,,,,,,,,,,,,,,,,,,,,,,,,,67dcc12657e2fe1375df7f89,young
,,learn_phase(without_color),2136704,black_plus_sign,,,,,GW/wheelchair.jpg,GW/basket.jpg,,,,,,,,,,,,,,,,,,,,,,67dcc12657e2fe1375df7f89,young
,,black_cross(without_color),2137776,blue,,,,,GW/wheelchair.jpg,GW/basket.jpg,,,,,,,,,,,,,,,,,,,,,,67dcc12657e2fe1375df7f89,young
475.20000000298023,,rt_plussign_withcolor,2138291,blue,,,,50.0,GW/wheelchair.jpg,GW/basket.jpg,,,,,,,,,,,,,,,,,,,,,,67dcc12657e2fe1375df7f89,young
,,rt_thecrossant_black,2139241,black_plus_sign,,,,,,,0.0,0.96,,,,,,,,,,,,,,,,,,,,67dcc12657e2fe1375df7f89,young
,,color_black,2139353,black_plus_sign,,,,,,,,,,,,,,,,,,,,,,,,,,,,67dcc12657e2fe1375df7f89,young
,,learn_phase(without_color),2141363,black_plus_sign,,,,,GW/dustpan.jpg,GW/globe.jpg,,,,,,,,,,,,,,,,,,,,,,67dcc12657e2fe1375df7f89,young
,,black_cross(without_color),2141812,green,,,,,GW/dustpan.jpg,GW/globe.jpg,,,,,,,,,,,,,,,,,,,,,,67dcc12657e2fe1375df7f89,young
,,rt_plussign_withcolor,2142327,green,,,,,GW/dustpan.jpg,GW/globe.jpg,,,,,,,,,,,,,,,,,,,,,,67dcc12657e2fe1375df7f89,young
1292.2999999970198,,rt_thecrossant_black,2143903,black_plus_sign,,,,50.0,,,1.0,0.9607843137254902,,,,,,,,,,,,,,,,,,,,67dcc12657e2fe1375df7f89,young
,,color_black,2144015,black_plus_sign,,,,,,,,,,,,,,,,,,,,,,,,,,,,67dcc12657e2fe1375df7f89,young
,,learn_phase(without_color),2146031,black_plus_sign,,,,,GW/jukebox.jpg,GW/barrel.jpg,,,,,,,,,,,,,,,,,,,,,,67dcc12657e2fe1375df7f89,young
,,black_cross(without_color),2146649,blue,,,,,GW/jukebox.jpg,GW/barrel.jpg,,,,,,,,,,,,,,,,,,,,,,67dcc12657e2fe1375df7f89,young
,,rt_plussign_withcolor,2147162,blue,,,,,GW/jukebox.jpg,GW/barrel.jpg,,,,,,,,,,,,,,,,,,,,,,67dcc12657e2fe1375df7f89,young
588.2999999970198,,rt_thecrossant_black,2148575,black_plus_sign,,,,49.0,,,1.0,0.9615384615384616,,,,,,,,,,,,,,,,,,,,67dcc12657e2fe1375df7f89,young
,,color_black,2148679,black_plus_sign,,,,,,,,,,,,,,,,,,,,,,,,,,,,67dcc12657e2fe1375df7f89,young
,,learn_phase(without_color),2150693,black_plus_sign,,,,,GW/teeth.jpg,GW/dustpan.jpg,,,,,,,,,,,,,,,,,,,,,,67dcc12657e2fe1375df7f89,young
,,black_cross(without_color),2151225,blue,,,,,GW/teeth.jpg,GW/dustpan.jpg,,,,,,,,,,,,,,,,,,,,,,67dcc12657e2fe1375df7f89,young
,,rt_plussign_withcolor,2151736,blue,,,,,GW/teeth.jpg,GW/dustpan.jpg,,,,,,,,,,,,,,,,,,,,,,67dcc12657e2fe1375df7f89,young
830.1000000089407,,rt_thecrossant_black,2153222,black_plus_sign,,,,49.0,,,1.0,0.9622641509433962,,,,,,,,,,,,,,,,,,,,67dcc12657e2fe1375df7f89,young
,,color_black,2153342,black_plus_sign,,,,,,,,,,,,,,,,,,,,,,,,,,,,67dcc12657e2fe1375df7f89,young
,,learn_phase(without_color),2155352,black_plus_sign,,,,,GW/camera.jpg,GW/soldier.jpg,,,,,,,,,,,,,,,,,,,,,,67dcc12657e2fe1375df7f89,young
,,black_cross(without_color),2155845,blue,,,,,GW/camera.jpg,GW/soldier.jpg,,,,,,,,,,,,,,,,,,,,,,67dcc12657e2fe1375df7f89,young
,,rt_plussign_withcolor,2156355,blue,,,,,GW/camera.jpg,GW/soldier.jpg,,,,,,,,,,,,,,,,,,,,,,67dcc12657e2fe1375df7f89,young
656.5999999940395,,rt_thecrossant_black,2157881,black_plus_sign,,,,49.0,,,1.0,0.9629629629629628,,,,,,,,,,,,,,,,,,,,67dcc12657e2fe1375df7f89,young
,,color_black,2157993,black_plus_sign,,,,,,,,,,,,,,,,,,,,,,,,,,,,67dcc12657e2fe1375df7f89,young
,,learn_phase(without_color),2160009,black_plus_sign,,,,,GW/jukebox.jpg,GW/globe.jpg,,,,,,,,,,,,,,,,,,,,,,67dcc12657e2fe1375df7f89,young
,,black_cross(without_color),2160963,blue,,,,,GW/jukebox.jpg,GW/globe.jpg,,,,,,,,,,,,,,,,,,,,,,67dcc12657e2fe1375df7f89,young
,,rt_plussign_withcolor,2161475,blue,,,,,GW/jukebox.jpg,GW/globe.jpg,,,,,,,,,,,,,,,,,,,,,,67dcc12657e2fe1375df7f89,young
834.7000000029802,,rt_thecrossant_black,2162541,black_plus_sign,,,,50.0,,,0.0,0.9454545454545454,,,,,,,,,,,,,,,,,,,,67dcc12657e2fe1375df7f89,young
,,color_black,2162651,black_plus_sign,,,,,,,,,,,,,,,,,,,,,,,,,,,,67dcc12657e2fe1375df7f89,young
,,learn_phase(without_color),2164656,black_plus_sign,,,,,GW/basket.jpg,GW/teeth.jpg,,,,,,,,,,,,,,,,,,,,,,67dcc12657e2fe1375df7f89,young
,,black_cross(without_color),2165412,blue,,,,,GW/basket.jpg,GW/teeth.jpg,,,,,,,,,,,,,,,,,,,,,,67dcc12657e2fe1375df7f89,young
,,rt_plussign_withcolor,2165919,blue,,,,,GW/basket.jpg,GW/teeth.jpg,,,,,,,,,,,,,,,,,,,,,,67dcc12657e2fe1375df7f89,young
1105.2000000029802,,rt_thecrossant_black,2167180,black_plus_sign,,,,49.0,,,1.0,0.9464285714285714,,,,,,,,,,,,,,,,,,,,67dcc12657e2fe1375df7f89,young
,,color_black,2167290,black_plus_sign,,,,,,,,,,,,,,,,,,,,,,,,,,,,67dcc12657e2fe1375df7f89,young
,,learn_phase(without_color),2169306,black_plus_sign,,,,,GW/wheelchair.jpg,GW/basket.jpg,,,,,,,,,,,,,,,,,,,,,,67dcc12657e2fe1375df7f89,young
,,black_cross(without_color),2170396,green,,,,,GW/wheelchair.jpg,GW/basket.jpg,,,,,,,,,,,,,,,,,,,,,,67dcc12657e2fe1375df7f89,young
489.70000000298023,,rt_plussign_withcolor,2170900,green,,,,50.0,GW/wheelchair.jpg,GW/basket.jpg,,,,,,,,,,,,,,,,,,,,,,67dcc12657e2fe1375df7f89,young
,,rt_thecrossant_black,2171832,black_plus_sign,,,,,,,1.0,0.9473684210526316,,,,,,,,,,,,,,,,,,,,67dcc12657e2fe1375df7f89,young
,,color_black,2171942,black_plus_sign,,,,,,,,,,,,,,,,,,,,,,,,,,,,67dcc12657e2fe1375df7f89,young
,,learn_phase(without_color),2173960,black_plus_sign,,,,,GW/dustpan.jpg,GW/globe.jpg,,,,,,,,,,,,,,,,,,,,,,67dcc12657e2fe1375df7f89,young
,,black_cross(without_color),2174729,blue,,,,,GW/dustpan.jpg,GW/globe.jpg,,,,,,,,,,,,,,,,,,,,,,67dcc12657e2fe1375df7f89,young
,,rt_plussign_withcolor,2175236,blue,,,,,GW/dustpan.jpg,GW/globe.jpg,,,,,,,,,,,,,,,,,,,,,,67dcc12657e2fe1375df7f89,young
1212.8999999910593,,rt_thecrossant_black,2176488,black_plus_sign,,,,49.0,,,1.0,0.9482758620689656,,,,,,,,,,,,,,,,,,,,67dcc12657e2fe1375df7f89,young
,,color_black,2176591,black_plus_sign,,,,,,,,,,,,,,,,,,,,,,,,,,,,67dcc12657e2fe1375df7f89,young
,,learn_phase(without_color),2178596,black_plus_sign,,,,,GW/jukebox.jpg,GW/globe.jpg,,,,,,,,,,,,,,,,,,,,,,67dcc12657e2fe1375df7f89,young
,,black_cross(without_color),2179569,blue,,,,,GW/jukebox.jpg,GW/globe.jpg,,,,,,,,,,,,,,,,,,,,,,67dcc12657e2fe1375df7f89,young
,,rt_plussign_withcolor,2180075,blue,,,,,GW/jukebox.jpg,GW/globe.jpg,,,,,,,,,,,,,,,,,,,,,,67dcc12657e2fe1375df7f89,young
1085.2999999970198,,rt_thecrossant_black,2181119,black_plus_sign,,,,49.0,,,1.0,0.9491525423728814,,,,,,,,,,,,,,,,,,,,67dcc12657e2fe1375df7f89,young
,,color_black,2181228,black_plus_sign,,,,,,,,,,,,,,,,,,,,,,,,,,,,67dcc12657e2fe1375df7f89,young
,,learn_phase(without_color),2183241,black_plus_sign,,,,,GW/soldier.jpg,GW/snail.jpg,,,,,,,,,,,,,,,,,,,,,,67dcc12657e2fe1375df7f89,young
,,black_cross(without_color),2184029,blue,,,,,GW/soldier.jpg,GW/snail.jpg,,,,,,,,,,,,,,,,,,,,,,67dcc12657e2fe1375df7f89,young
,,rt_plussign_withcolor,2184533,blue,,,,,GW/soldier.jpg,GW/snail.jpg,,,,,,,,,,,,,,,,,,,,,,67dcc12657e2fe1375df7f89,young
1147.0999999940395,,rt_thecrossant_black,2185768,black_plus_sign,,,,49.0,,,1.0,0.95,,,,,,,,,,,,,,,,,,,,67dcc12657e2fe1375df7f89,young
,,color_black,2185882,black_plus_sign,,,,,,,,,,,,,,,,,,,,,,,,,,,,67dcc12657e2fe1375df7f89,young
,,learn_phase(without_color),2187888,black_plus_sign,,,,,GW/hat.jpg,GW/camera.jpg,,,,,,,,,,,,,,,,,,,,,,67dcc12657e2fe1375df7f89,young
,,black_cross(without_color),2188965,blue,,,,,GW/hat.jpg,GW/camera.jpg,,,,,,,,,,,,,,,,,,,,,,67dcc12657e2fe1375df7f89,young
,,rt_plussign_withcolor,2189474,blue,,,,,GW/hat.jpg,GW/camera.jpg,,,,,,,,,,,,,,,,,,,,,,67dcc12657e2fe1375df7f89,young
899.2999999970198,,rt_thecrossant_black,2190411,black_plus_sign,,,,49.0,,,1.0,0.9508196721311476,,,,,,,,,,,,,,,,,,,,67dcc12657e2fe1375df7f89,young
,,color_black,2190522,black_plus_sign,,,,,,,,,,,,,,,,,,,,,,,,,,,,67dcc12657e2fe1375df7f89,young
,,learn_phase(without_color),2192537,black_plus_sign,,,,,GW/soldier.jpg,GW/snail.jpg,,,,,,,,,,,,,,,,,,,,,,67dcc12657e2fe1375df7f89,young
,,black_cross(without_color),2193498,blue,,,,,GW/soldier.jpg,GW/snail.jpg,,,,,,,,,,,,,,,,,,,,,,67dcc12657e2fe1375df7f89,young
,,rt_plussign_withcolor,2194008,blue,,,,,GW/soldier.jpg,GW/snail.jpg,,,,,,,,,,,,,,,,,,,,,,67dcc12657e2fe1375df7f89,young
1194.7000000029802,,rt_thecrossant_black,2195063,black_plus_sign,,,,49.0,,,1.0,0.9516129032258064,,,,,,,,,,,,,,,,,,,,67dcc12657e2fe1375df7f89,young
,,color_black,2195171,black_plus_sign,,,,,,,,,,,,,,,,,,,,,,,,,,,,67dcc12657e2fe1375df7f89,young
,,learn_phase(without_color),2197184,black_plus_sign,,,,,GW/wheelchair.jpg,GW/gong.jpg,,,,,,,,,,,,,,,,,,,,,,67dcc12657e2fe1375df7f89,young
,,black_cross(without_color),2197730,blue,,,,,GW/wheelchair.jpg,GW/gong.jpg,,,,,,,,,,,,,,,,,,,,,,67dcc12657e2fe1375df7f89,young
,,rt_plussign_withcolor,2198233,blue,,,,,GW/wheelchair.jpg,GW/gong.jpg,,,,,,,,,,,,,,,,,,,,,,67dcc12657e2fe1375df7f89,young
1160.5,,rt_thecrossant_black,2199710,black_plus_sign,,,,49.0,,,1.0,0.9523809523809524,,,,,,,,,,,,,,,,,,,,67dcc12657e2fe1375df7f89,young
,,color_black,2199829,black_plus_sign,,,,,,,,,,,,,,,,,,,,,,,,,,,,67dcc12657e2fe1375df7f89,young
,,learn_phase(without_color),2201834,black_plus_sign,,,,,GW/wheelchair.jpg,GW/teeth.jpg,,,,,,,,,,,,,,,,,,,,,,67dcc12657e2fe1375df7f89,young
,,black_cross(without_color),2202634,green,,,,,GW/wheelchair.jpg,GW/teeth.jpg,,,,,,,,,,,,,,,,,,,,,,67dcc12657e2fe1375df7f89,young
,,rt_plussign_withcolor,2203142,green,,,,,GW/wheelchair.jpg,GW/teeth.jpg,,,,,,,,,,,,,,,,,,,,,,67dcc12657e2fe1375df7f89,young
807.7999999970198,,rt_thecrossant_black,2204360,black_plus_sign,,,,50.0,,,1.0,0.953125,,,,,,,,,,,,,,,,,,,,67dcc12657e2fe1375df7f89,young
,,color_black,2204468,black_plus_sign,,,,,,,,,,,,,,,,,,,,,,,,,,,,67dcc12657e2fe1375df7f89,young
,,learn_phase(without_color),2206483,black_plus_sign,,,,,GW/hat.jpg,GW/camera.jpg,,,,,,,,,,,,,,,,,,,,,,67dcc12657e2fe1375df7f89,young
,,black_cross(without_color),2207133,green,,,,,GW/hat.jpg,GW/camera.jpg,,,,,,,,,,,,,,,,,,,,,,67dcc12657e2fe1375df7f89,young
,,rt_plussign_withcolor,2207649,green,,,,,GW/hat.jpg,GW/camera.jpg,,,,,,,,,,,,,,,,,,,,,,67dcc12657e2fe1375df7f89,young
1075.699999988079,,rt_thecrossant_black,2209008,black_plus_sign,,,,50.0,,,1.0,0.953846153846154,,,,,,,,,,,,,,,,,,,,67dcc12657e2fe1375df7f89,young
,,color_black,2209124,black_plus_sign,,,,,,,,,,,,,,,,,,,,,,,,,,,,67dcc12657e2fe1375df7f89,young
,,learn_phase(without_color),2211129,black_plus_sign,,,,,GW/basket.jpg,GW/paint.jpg,,,,,,,,,,,,,,,,,,,,,,67dcc12657e2fe1375df7f89,young
,,black_cross(without_color),2211672,green,,,,,GW/basket.jpg,GW/paint.jpg,,,,,,,,,,,,,,,,,,,,,,67dcc12657e2fe1375df7f89,young
,,rt_plussign_withcolor,2212203,green,,,,,GW/basket.jpg,GW/paint.jpg,,,,,,,,,,,,,,,,,,,,,,67dcc12657e2fe1375df7f89,young
839.2000000029802,,rt_thecrossant_black,2213683,black_plus_sign,,,,50.0,,,1.0,0.9545454545454546,,,,,,,,,,,,,,,,,,,,67dcc12657e2fe1375df7f89,young
,,color_black,2213792,black_plus_sign,,,,,,,,,,,,,,,,,,,,,,,,,,,,67dcc12657e2fe1375df7f89,young
,,learn_phase(without_color),2215806,black_plus_sign,,,,,GW/basket.jpg,GW/teeth.jpg,,,,,,,,,,,,,,,,,,,,,,67dcc12657e2fe1375df7f89,young
,,black_cross(without_color),2216714,green,,,,,GW/basket.jpg,GW/teeth.jpg,,,,,,,,,,,,,,,,,,,,,,67dcc12657e2fe1375df7f89,young
,,rt_plussign_withcolor,2217223,green,,,,,GW/basket.jpg,GW/teeth.jpg,,,,,,,,,,,,,,,,,,,,,,67dcc12657e2fe1375df7f89,young
829.1000000089407,,rt_thecrossant_black,2218337,black_plus_sign,,,,50.0,,,1.0,0.9552238805970148,,,,,,,,,,,,,,,,,,,,67dcc12657e2fe1375df7f89,young
,,color_black,2218455,black_plus_sign,,,,,,,,,,,,,,,,,,,,,,,,,,,,67dcc12657e2fe1375df7f89,young
,,learn_phase(without_color),2220463,black_plus_sign,,,,,GW/dustpan.jpg,GW/globe.jpg,,,,,,,,,,,,,,,,,,,,,,67dcc12657e2fe1375df7f89,young
,,black_cross(without_color),2221187,blue,,,,,GW/dustpan.jpg,GW/globe.jpg,,,,,,,,,,,,,,,,,,,,,,67dcc12657e2fe1375df7f89,young
,,rt_plussign_withcolor,2221693,blue,,,,,GW/dustpan.jpg,GW/globe.jpg,,,,,,,,,,,,,,,,,,,,,,67dcc12657e2fe1375df7f89,young
1069.0,,rt_thecrossant_black,2223004,black_plus_sign,,,,49.0,,,1.0,0.9558823529411764,,,,,,,,,,,,,,,,,,,,67dcc12657e2fe1375df7f89,young
,,color_black,2223109,black_plus_sign,,,,,,,,,,,,,,,,,,,,,,,,,,,,67dcc12657e2fe1375df7f89,young
,,learn_phase(without_color),2225121,black_plus_sign,,,,,GW/teeth.jpg,GW/dustpan.jpg,,,,,,,,,,,,,,,,,,,,,,67dcc12657e2fe1375df7f89,young
,,black_cross(without_color),2226208,green,,,,,GW/teeth.jpg,GW/dustpan.jpg,,,,,,,,,,,,,,,,,,,,,,67dcc12657e2fe1375df7f89,young
,,rt_plussign_withcolor,2226711,green,,,,,GW/teeth.jpg,GW/dustpan.jpg,,,,,,,,,,,,,,,,,,,,,,67dcc12657e2fe1375df7f89,young
941.9000000059604,,rt_thecrossant_black,2227637,black_plus_sign,,,,50.0,,,1.0,0.9565217391304348,,,,,,,,,,,,,,,,,,,,67dcc12657e2fe1375df7f89,young
,,color_black,2227741,black_plus_sign,,,,,,,,,,,,,,,,,,,,,,,,,,,,67dcc12657e2fe1375df7f89,young
,,learn_phase(without_color),2229756,black_plus_sign,,,,,GW/jukebox.jpg,GW/barrel.jpg,,,,,,,,,,,,,,,,,,,,,,67dcc12657e2fe1375df7f89,young
,,black_cross(without_color),2230198,blue,,,,,GW/jukebox.jpg,GW/barrel.jpg,,,,,,,,,,,,,,,,,,,,,,67dcc12657e2fe1375df7f89,young
,,rt_plussign_withcolor,2230715,blue,,,,,GW/jukebox.jpg,GW/barrel.jpg,,,,,,,,,,,,,,,,,,,,,,67dcc12657e2fe1375df7f89,young
1250.0,,rt_thecrossant_black,2232294,black_plus_sign,,,,49.0,,,1.0,0.9571428571428572,,,,,,,,,,,,,,,,,,,,67dcc12657e2fe1375df7f89,young
,,color_black,2232413,black_plus_sign,,,,,,,,,,,,,,,,,,,,,,,,,,,,67dcc12657e2fe1375df7f89,young
,,learn_phase(without_color),2234420,black_plus_sign,,,,,GW/snail.jpg,GW/teeth.jpg,,,,,,,,,,,,,,,,,,,,,,67dcc12657e2fe1375df7f89,young
,,black_cross(without_color),2235513,blue,,,,,GW/snail.jpg,GW/teeth.jpg,,,,,,,,,,,,,,,,,,,,,,67dcc12657e2fe1375df7f89,young
,,rt_plussign_withcolor,2236021,blue,,,,,GW/snail.jpg,GW/teeth.jpg,,,,,,,,,,,,,,,,,,,,,,67dcc12657e2fe1375df7f89,young
623.7999999970198,,rt_thecrossant_black,2236950,black_plus_sign,,,,49.0,,,1.0,0.9577464788732394,,,,,,,,,,,,,,,,,,,,67dcc12657e2fe1375df7f89,young
,,color_black,2237069,black_plus_sign,,,,,,,,,,,,,,,,,,,,,,,,,,,,67dcc12657e2fe1375df7f89,young
,,learn_phase(without_color),2239085,black_plus_sign,,,,,GW/camera.jpg,GW/soldier.jpg,,,,,,,,,,,,,,,,,,,,,,67dcc12657e2fe1375df7f89,young
,,black_cross(without_color),2240083,green,,,,,GW/camera.jpg,GW/soldier.jpg,,,,,,,,,,,,,,,,,,,,,,67dcc12657e2fe1375df7f89,young
,,rt_plussign_withcolor,2240606,green,,,,,GW/camera.jpg,GW/soldier.jpg,,,,,,,,,,,,,,,,,,,,,,67dcc12657e2fe1375df7f89,young
1208.0,,rt_thecrossant_black,2241638,black_plus_sign,,,,50.0,,,1.0,0.9583333333333334,,,,,,,,,,,,,,,,,,,,67dcc12657e2fe1375df7f89,young
,,color_black,2241750,black_plus_sign,,,,,,,,,,,,,,,,,,,,,,,,,,,,67dcc12657e2fe1375df7f89,young
,,learn_phase(without_color),2243771,black_plus_sign,,,,,GW/hat.jpg,GW/camera.jpg,,,,,,,,,,,,,,,,,,,,,,67dcc12657e2fe1375df7f89,young
,,black_cross(without_color),2244825,blue,,,,,GW/hat.jpg,GW/camera.jpg,,,,,,,,,,,,,,,,,,,,,,67dcc12657e2fe1375df7f89,young
,,rt_plussign_withcolor,2245336,blue,,,,,GW/hat.jpg,GW/camera.jpg,,,,,,,,,,,,,,,,,,,,,,67dcc12657e2fe1375df7f89,young
1148.5,,rt_thecrossant_black,2246293,black_plus_sign,,,,49.0,,,1.0,0.958904109589041,,,,,,,,,,,,,,,,,,,,67dcc12657e2fe1375df7f89,young
,,color_black,2246401,black_plus_sign,,,,,,,,,,,,,,,,,,,,,,,,,,,,67dcc12657e2fe1375df7f89,young
,,learn_phase(without_color),2248408,black_plus_sign,,,,,GW/soldier.jpg,GW/dustpan.jpg,,,,,,,,,,,,,,,,,,,,,,67dcc12657e2fe1375df7f89,young
,,black_cross(without_color),2249361,blue,,,,,GW/soldier.jpg,GW/dustpan.jpg,,,,,,,,,,,,,,,,,,,,,,67dcc12657e2fe1375df7f89,young
,,rt_plussign_withcolor,2249885,blue,,,,,GW/soldier.jpg,GW/dustpan.jpg,,,,,,,,,,,,,,,,,,,,,,67dcc12657e2fe1375df7f89,young
1173.0,,rt_thecrossant_black,2250951,black_plus_sign,,,,49.0,,,1.0,0.9594594594594594,,,,,,,,,,,,,,,,,,,,67dcc12657e2fe1375df7f89,young
,,color_black,2251061,black_plus_sign,,,,,,,,,,,,,,,,,,,,,,,,,,,,67dcc12657e2fe1375df7f89,young
,,learn_phase(without_color),2253073,black_plus_sign,,,,,GW/snail.jpg,GW/wheelchair.jpg,,,,,,,,,,,,,,,,,,,,,,67dcc12657e2fe1375df7f89,young
,,black_cross(without_color),2253862,blue,,,,,GW/snail.jpg,GW/wheelchair.jpg,,,,,,,,,,,,,,,,,,,,,,67dcc12657e2fe1375df7f89,young
,,rt_plussign_withcolor,2254365,blue,,,,,GW/snail.jpg,GW/wheelchair.jpg,,,,,,,,,,,,,,,,,,,,,,67dcc12657e2fe1375df7f89,young
1116.4000000059605,,rt_thecrossant_black,2255599,black_plus_sign,,,,49.0,,,1.0,0.96,,,,,,,,,,,,,,,,,,,,67dcc12657e2fe1375df7f89,young
,,color_black,2255709,black_plus_sign,,,,,,,,,,,,,,,,,,,,,,,,,,,,67dcc12657e2fe1375df7f89,young
,,learn_phase(without_color),2257724,black_plus_sign,,,,,GW/wheelchair.jpg,GW/gong.jpg,,,,,,,,,,,,,,,,,,,,,,67dcc12657e2fe1375df7f89,young
,,black_cross(without_color),2258696,green,,,,,GW/wheelchair.jpg,GW/gong.jpg,,,,,,,,,,,,,,,,,,,,,,67dcc12657e2fe1375df7f89,young
,,rt_plussign_withcolor,2259206,green,,,,,GW/wheelchair.jpg,GW/gong.jpg,,,,,,,,,,,,,,,,,,,,,,67dcc12657e2fe1375df7f89,young
1035.0,,rt_thecrossant_black,2260254,black_plus_sign,,,,50.0,,,1.0,0.9605263157894736,,,,,,,,,,,,,,,,,,,,67dcc12657e2fe1375df7f89,young
,,color_black,2260370,black_plus_sign,,,,,,,,,,,,,,,,,,,,,,,,,,,,67dcc12657e2fe1375df7f89,young
,,learn_phase(without_color),2262383,black_plus_sign,,,,,GW/snail.jpg,GW/wheelchair.jpg,,,,,,,,,,,,,,,,,,,,,,67dcc12657e2fe1375df7f89,young
,,black_cross(without_color),2263134,green,,,,,GW/snail.jpg,GW/wheelchair.jpg,,,,,,,,,,,,,,,,,,,,,,67dcc12657e2fe1375df7f89,young
,,rt_plussign_withcolor,2263642,green,,,,,GW/snail.jpg,GW/wheelchair.jpg,,,,,,,,,,,,,,,,,,,,,,67dcc12657e2fe1375df7f89,young
1266.3999999910593,,rt_thecrossant_black,2264902,black_plus_sign,,,,50.0,,,1.0,0.961038961038961,,,,,,,,,,,,,,,,,,,,67dcc12657e2fe1375df7f89,young
,,color_black,2265015,black_plus_sign,,,,,,,,,,,,,,,,,,,,,,,,,,,,67dcc12657e2fe1375df7f89,young
,,learn_phase(without_color),2267024,black_plus_sign,,,,,GW/jukebox.jpg,GW/globe.jpg,,,,,,,,,,,,,,,,,,,,,,67dcc12657e2fe1375df7f89,young
,,black_cross(without_color),2267455,blue,,,,,GW/jukebox.jpg,GW/globe.jpg,,,,,,,,,,,,,,,,,,,,,,67dcc12657e2fe1375df7f89,young
,,rt_plussign_withcolor,2267960,blue,,,,,GW/jukebox.jpg,GW/globe.jpg,,,,,,,,,,,,,,,,,,,,,,67dcc12657e2fe1375df7f89,young
971.7999999970198,,rt_thecrossant_black,2269547,black_plus_sign,,,,49.0,,,1.0,0.9615384615384616,,,,,,,,,,,,,,,,,,,,67dcc12657e2fe1375df7f89,young
,,color_black,2269659,black_plus_sign,,,,,,,,,,,,,,,,,,,,,,,,,,,,67dcc12657e2fe1375df7f89,young
,,learn_phase(without_color),2271675,black_plus_sign,,,,,GW/snail.jpg,GW/teeth.jpg,,,,,,,,,,,,,,,,,,,,,,67dcc12657e2fe1375df7f89,young
,,black_cross(without_color),2272665,blue,,,,,GW/snail.jpg,GW/teeth.jpg,,,,,,,,,,,,,,,,,,,,,,67dcc12657e2fe1375df7f89,young
,,rt_plussign_withcolor,2273179,blue,,,,,GW/snail.jpg,GW/teeth.jpg,,,,,,,,,,,,,,,,,,,,,,67dcc12657e2fe1375df7f89,young
652.9000000059605,,rt_thecrossant_black,2274200,black_plus_sign,,,,49.0,,,1.0,0.9620253164556962,,,,,,,,,,,,,,,,,,,,67dcc12657e2fe1375df7f89,young
,,color_black,2274317,black_plus_sign,,,,,,,,,,,,,,,,,,,,,,,,,,,,67dcc12657e2fe1375df7f89,young
,,learn_phase(without_color),2276336,black_plus_sign,,,,,GW/snail.jpg,GW/wheelchair.jpg,,,,,,,,,,,,,,,,,,,,,,67dcc12657e2fe1375df7f89,young
,,black_cross(without_color),2277128,blue,,,,,GW/snail.jpg,GW/wheelchair.jpg,,,,,,,,,,,,,,,,,,,,,,67dcc12657e2fe1375df7f89,young
,,rt_plussign_withcolor,2277637,blue,,,,,GW/snail.jpg,GW/wheelchair.jpg,,,,,,,,,,,,,,,,,,,,,,67dcc12657e2fe1375df7f89,young
1212.5,,rt_thecrossant_black,2278870,black_plus_sign,,,,49.0,,,1.0,0.9625,,,,,,,,,,,,,,,,,,,,67dcc12657e2fe1375df7f89,young
,,color_black,2278983,black_plus_sign,,,,,,,,,,,,,,,,,,,,,,,,,,,,67dcc12657e2fe1375df7f89,young
,,learn_phase(without_color),2280993,black_plus_sign,,,,,GW/jukebox.jpg,GW/globe.jpg,,,,,,,,,,,,,,,,,,,,,,67dcc12657e2fe1375df7f89,young
,,black_cross(without_color),2281589,blue,,,,,GW/jukebox.jpg,GW/globe.jpg,,,,,,,,,,,,,,,,,,,,,,67dcc12657e2fe1375df7f89,young
,,rt_plussign_withcolor,2282103,blue,,,,,GW/jukebox.jpg,GW/globe.jpg,,,,,,,,,,,,,,,,,,,,,,67dcc12657e2fe1375df7f89,young
1008.7999999970198,,rt_thecrossant_black,2283533,black_plus_sign,,,,49.0,,,1.0,0.9629629629629628,,,,,,,,,,,,,,,,,,,,67dcc12657e2fe1375df7f89,young
,,color_black,2283641,black_plus_sign,,,,,,,,,,,,,,,,,,,,,,,,,,,,67dcc12657e2fe1375df7f89,young
,,learn_phase(without_color),2285649,black_plus_sign,,,,,GW/camera.jpg,GW/soldier.jpg,,,,,,,,,,,,,,,,,,,,,,67dcc12657e2fe1375df7f89,young
,,black_cross(without_color),2286120,blue,,,,,GW/camera.jpg,GW/soldier.jpg,,,,,,,,,,,,,,,,,,,,,,67dcc12657e2fe1375df7f89,young
,,rt_plussign_withcolor,2286634,blue,,,,,GW/camera.jpg,GW/soldier.jpg,,,,,,,,,,,,,,,,,,,,,,67dcc12657e2fe1375df7f89,young
779.9000000059605,,rt_thecrossant_black,2288176,black_plus_sign,,,,49.0,,,1.0,0.9634146341463414,,,,,,,,,,,,,,,,,,,,67dcc12657e2fe1375df7f89,young
,,color_black,2288282,black_plus_sign,,,,,,,,,,,,,,,,,,,,,,,,,,,,67dcc12657e2fe1375df7f89,young
,,learn_phase(without_color),2290293,black_plus_sign,,,,,GW/teeth.jpg,GW/dustpan.jpg,,,,,,,,,,,,,,,,,,,,,,67dcc12657e2fe1375df7f89,young
,,black_cross(without_color),2290818,green,,,,,GW/teeth.jpg,GW/dustpan.jpg,,,,,,,,,,,,,,,,,,,,,,67dcc12657e2fe1375df7f89,young
,,rt_plussign_withcolor,2291333,green,,,,,GW/teeth.jpg,GW/dustpan.jpg,,,,,,,,,,,,,,,,,,,,,,67dcc12657e2fe1375df7f89,young
686.5999999940395,,rt_thecrossant_black,2292831,black_plus_sign,,,,50.0,,,1.0,0.963855421686747,,,,,,,,,,,,,,,,,,,,67dcc12657e2fe1375df7f89,young
,,color_black,2292935,black_plus_sign,,,,,,,,,,,,,,,,,,,,,,,,,,,,67dcc12657e2fe1375df7f89,young
,,learn_phase(without_color),2294948,black_plus_sign,,,,,GW/hat.jpg,GW/camera.jpg,,,,,,,,,,,,,,,,,,,,,,67dcc12657e2fe1375df7f89,young
,,black_cross(without_color),2295913,blue,,,,,GW/hat.jpg,GW/camera.jpg,,,,,,,,,,,,,,,,,,,,,,67dcc12657e2fe1375df7f89,young
,,rt_plussign_withcolor,2296425,blue,,,,,GW/hat.jpg,GW/camera.jpg,,,,,,,,,,,,,,,,,,,,,,67dcc12657e2fe1375df7f89,young
793.5,,rt_thecrossant_black,2297479,black_plus_sign,,,,49.0,,,1.0,0.9642857142857144,,,,,,,,,,,,,,,,,,,,67dcc12657e2fe1375df7f89,young
,,color_black,2297591,black_plus_sign,,,,,,,,,,,,,,,,,,,,,,,,,,,,67dcc12657e2fe1375df7f89,young
,,learn_phase(without_color),2299603,black_plus_sign,,,,,GW/jukebox.jpg,GW/barrel.jpg,,,,,,,,,,,,,,,,,,,,,,67dcc12657e2fe1375df7f89,young
,,black_cross(without_color),2300276,green,,,,,GW/jukebox.jpg,GW/barrel.jpg,,,,,,,,,,,,,,,,,,,,,,67dcc12657e2fe1375df7f89,young
,,rt_plussign_withcolor,2300791,green,,,,,GW/jukebox.jpg,GW/barrel.jpg,,,,,,,,,,,,,,,,,,,,,,67dcc12657e2fe1375df7f89,young
1186.3999999910593,,rt_thecrossant_black,2302133,black_plus_sign,,,,50.0,,,1.0,0.9647058823529412,,,,,,,,,,,,,,,,,,,,67dcc12657e2fe1375df7f89,young
,,color_black,2302244,black_plus_sign,,,,,,,,,,,,,,,,,,,,,,,,,,,,67dcc12657e2fe1375df7f89,young
,,learn_phase(without_color),2304261,black_plus_sign,,,,,GW/jukebox.jpg,GW/globe.jpg,,,,,,,,,,,,,,,,,,,,,,67dcc12657e2fe1375df7f89,young
,,black_cross(without_color),2304745,green,,,,,GW/jukebox.jpg,GW/globe.jpg,,,,,,,,,,,,,,,,,,,,,,67dcc12657e2fe1375df7f89,young
,,rt_plussign_withcolor,2305258,green,,,,,GW/jukebox.jpg,GW/globe.jpg,,,,,,,,,,,,,,,,,,,,,,67dcc12657e2fe1375df7f89,young
925.3999999910592,,rt_thecrossant_black,2306794,black_plus_sign,,,,50.0,,,1.0,0.9651162790697676,,,,,,,,,,,,,,,,,,,,67dcc12657e2fe1375df7f89,young
,,color_black,2306911,black_plus_sign,,,,,,,,,,,,,,,,,,,,,,,,,,,,67dcc12657e2fe1375df7f89,young
,,learn_phase(without_color),2308920,black_plus_sign,,,,,GW/camera.jpg,GW/jukebox.jpg,,,,,,,,,,,,,,,,,,,,,,67dcc12657e2fe1375df7f89,young
,,black_cross(without_color),2310021,green,,,,,GW/camera.jpg,GW/jukebox.jpg,,,,,,,,,,,,,,,,,,,,,,67dcc12657e2fe1375df7f89,young
507.70000000298023,,rt_plussign_withcolor,2310533,green,,,,50.0,GW/camera.jpg,GW/jukebox.jpg,,,,,,,,,,,,,,,,,,,,,,67dcc12657e2fe1375df7f89,young
,,rt_thecrossant_black,2311471,black_plus_sign,,,,,,,1.0,0.9655172413793104,,,,,,,,,,,,,,,,,,,,67dcc12657e2fe1375df7f89,young
,,color_black,2311575,black_plus_sign,,,,,,,,,,,,,,,,,,,,,,,,,,,,67dcc12657e2fe1375df7f89,young
,,learn_phase(without_color),2313585,black_plus_sign,,,,,GW/basket.jpg,GW/teeth.jpg,,,,,,,,,,,,,,,,,,,,,,67dcc12657e2fe1375df7f89,young
,,black_cross(without_color),2314343,blue,,,,,GW/basket.jpg,GW/teeth.jpg,,,,,,,,,,,,,,,,,,,,,,67dcc12657e2fe1375df7f89,young
,,rt_plussign_withcolor,2314857,blue,,,,,GW/basket.jpg,GW/teeth.jpg,,,,,,,,,,,,,,,,,,,,,,67dcc12657e2fe1375df7f89,young
1270.0999999940395,,rt_thecrossant_black,2316122,black_plus_sign,,,,49.0,,,1.0,0.9659090909090908,,,,,,,,,,,,,,,,,,,,67dcc12657e2fe1375df7f89,young
,,color_black,2316235,black_plus_sign,,,,,,,,,,,,,,,,,,,,,,,,,,,,67dcc12657e2fe1375df7f89,young
,,learn_phase(without_color),2318239,black_plus_sign,,,,,GW/wheelchair.jpg,GW/gong.jpg,,,,,,,,,,,,,,,,,,,,,,67dcc12657e2fe1375df7f89,young
,,black_cross(without_color),2319206,blue,,,,,GW/wheelchair.jpg,GW/gong.jpg,,,,,,,,,,,,,,,,,,,,,,67dcc12657e2fe1375df7f89,young
,,rt_plussign_withcolor,2319712,blue,,,,,GW/wheelchair.jpg,GW/gong.jpg,,,,,,,,,,,,,,,,,,,,,,67dcc12657e2fe1375df7f89,young
978.5,,rt_thecrossant_black,2320771,black_plus_sign,,,,49.0,,,1.0,0.9662921348314608,,,,,,,,,,,,,,,,,,,,67dcc12657e2fe1375df7f89,young
,,color_black,2320882,black_plus_sign,,,,,,,,,,,,,,,,,,,,,,,,,,,,67dcc12657e2fe1375df7f89,young
,,learn_phase(without_color),2322906,black_plus_sign,,,,,GW/basket.jpg,GW/paint.jpg,,,,,,,,,,,,,,,,,,,,,,67dcc12657e2fe1375df7f89,young
,,black_cross(without_color),2323549,green,,,,,GW/basket.jpg,GW/paint.jpg,,,,,,,,,,,,,,,,,,,,,,67dcc12657e2fe1375df7f89,young
,,rt_plussign_withcolor,2324054,green,,,,,GW/basket.jpg,GW/paint.jpg,,,,,,,,,,,,,,,,,,,,,,67dcc12657e2fe1375df7f89,young
1180.9000000059605,,rt_thecrossant_black,2325443,black_plus_sign,,,,50.0,,,1.0,0.9666666666666668,,,,,,,,,,,,,,,,,,,,67dcc12657e2fe1375df7f89,young
,,color_black,2325552,black_plus_sign,,,,,,,,,,,,,,,,,,,,,,,,,,,,67dcc12657e2fe1375df7f89,young
,,learn_phase(without_color),2327564,black_plus_sign,,,,,GW/snail.jpg,GW/teeth.jpg,,,,,,,,,,,,,,,,,,,,,,67dcc12657e2fe1375df7f89,young
,,black_cross(without_color),2328588,green,,,,,GW/snail.jpg,GW/teeth.jpg,,,,,,,,,,,,,,,,,,,,,,67dcc12657e2fe1375df7f89,young
,,rt_plussign_withcolor,2329091,green,,,,,GW/snail.jpg,GW/teeth.jpg,,,,,,,,,,,,,,,,,,,,,,67dcc12657e2fe1375df7f89,young
780.3000000119209,,rt_thecrossant_black,2330095,black_plus_sign,,,,50.0,,,1.0,0.967032967032967,,,,,,,,,,,,,,,,,,,,67dcc12657e2fe1375df7f89,young
,,color_black,2330208,black_plus_sign,,,,,,,,,,,,,,,,,,,,,,,,,,,,67dcc12657e2fe1375df7f89,young
,,learn_phase(without_color),2332217,black_plus_sign,,,,,GW/soldier.jpg,GW/dustpan.jpg,,,,,,,,,,,,,,,,,,,,,,67dcc12657e2fe1375df7f89,young
,,black_cross(without_color),2332700,blue,,,,,GW/soldier.jpg,GW/dustpan.jpg,,,,,,,,,,,,,,,,,,,,,,67dcc12657e2fe1375df7f89,young
,,rt_plussign_withcolor,2333205,blue,,,,,GW/soldier.jpg,GW/dustpan.jpg,,,,,,,,,,,,,,,,,,,,,,67dcc12657e2fe1375df7f89,young
1219.5,,rt_thecrossant_black,2334744,black_plus_sign,,,,49.0,,,1.0,0.967391304347826,,,,,,,,,,,,,,,,,,,,67dcc12657e2fe1375df7f89,young
,,color_black,2334856,black_plus_sign,,,,,,,,,,,,,,,,,,,,,,,,,,,,67dcc12657e2fe1375df7f89,young
,,learn_phase(without_color),2336872,black_plus_sign,,,,,GW/wheelchair.jpg,GW/teeth.jpg,,,,,,,,,,,,,,,,,,,,,,67dcc12657e2fe1375df7f89,young
,,black_cross(without_color),2337952,blue,,,,,GW/wheelchair.jpg,GW/teeth.jpg,,,,,,,,,,,,,,,,,,,,,,67dcc12657e2fe1375df7f89,young
,,rt_plussign_withcolor,2338458,blue,,,,,GW/wheelchair.jpg,GW/teeth.jpg,,,,,,,,,,,,,,,,,,,,,,67dcc12657e2fe1375df7f89,young
632.2000000029802,,rt_thecrossant_black,2339400,black_plus_sign,,,,49.0,,,1.0,0.967741935483871,,,,,,,,,,,,,,,,,,,,67dcc12657e2fe1375df7f89,young
,,color_black,2339505,black_plus_sign,,,,,,,,,,,,,,,,,,,,,,,,,,,,67dcc12657e2fe1375df7f89,young
,,learn_phase(without_color),2341523,black_plus_sign,,,,,GW/snail.jpg,GW/teeth.jpg,,,,,,,,,,,,,,,,,,,,,,67dcc12657e2fe1375df7f89,young
,,black_cross(without_color),2342472,green,,,,,GW/snail.jpg,GW/teeth.jpg,,,,,,,,,,,,,,,,,,,,,,67dcc12657e2fe1375df7f89,young
,,rt_plussign_withcolor,2342977,green,,,,,GW/snail.jpg,GW/teeth.jpg,,,,,,,,,,,,,,,,,,,,,,67dcc12657e2fe1375df7f89,young
1209.5999999940395,,rt_thecrossant_black,2344059,black_plus_sign,,,,50.0,,,1.0,0.9680851063829788,,,,,,,,,,,,,,,,,,,,67dcc12657e2fe1375df7f89,young
,,color_black,2344168,black_plus_sign,,,,,,,,,,,,,,,,,,,,,,,,,,,,67dcc12657e2fe1375df7f89,young
,,learn_phase(without_color),2346185,black_plus_sign,,,,,GW/hat.jpg,GW/camera.jpg,,,,,,,,,,,,,,,,,,,,,,67dcc12657e2fe1375df7f89,young
,,black_cross(without_color),2346790,green,,,,,GW/hat.jpg,GW/camera.jpg,,,,,,,,,,,,,,,,,,,,,,67dcc12657e2fe1375df7f89,young
,,rt_plussign_withcolor,2347295,green,,,,,GW/hat.jpg,GW/camera.jpg,,,,,,,,,,,,,,,,,,,,,,67dcc12657e2fe1375df7f89,young
1098.0,,rt_thecrossant_black,2348721,black_plus_sign,,,,50.0,,,1.0,0.968421052631579,,,,,,,,,,,,,,,,,,,,67dcc12657e2fe1375df7f89,young
,,color_black,2348833,black_plus_sign,,,,,,,,,,,,,,,,,,,,,,,,,,,,67dcc12657e2fe1375df7f89,young
,,learn_phase(without_color),2350850,black_plus_sign,,,,,GW/wheelchair.jpg,GW/teeth.jpg,,,,,,,,,,,,,,,,,,,,,,67dcc12657e2fe1375df7f89,young
,,black_cross(without_color),2351327,green,,,,,GW/wheelchair.jpg,GW/teeth.jpg,,,,,,,,,,,,,,,,,,,,,,67dcc12657e2fe1375df7f89,young
,,rt_plussign_withcolor,2351841,green,,,,,GW/wheelchair.jpg,GW/teeth.jpg,,,,,,,,,,,,,,,,,,,,,,67dcc12657e2fe1375df7f89,young
824.6000000089407,,rt_thecrossant_black,2353397,black_plus_sign,,,,50.0,,,1.0,0.96875,,,,,,,,,,,,,,,,,,,,67dcc12657e2fe1375df7f89,young
,,color_black,2353502,black_plus_sign,,,,,,,,,,,,,,,,,,,,,,,,,,,,67dcc12657e2fe1375df7f89,young
,,learn_phase(without_color),2355512,black_plus_sign,,,,,GW/soldier.jpg,GW/dustpan.jpg,,,,,,,,,,,,,,,,,,,,,,67dcc12657e2fe1375df7f89,young
,,black_cross(without_color),2356545,blue,,,,,GW/soldier.jpg,GW/dustpan.jpg,,,,,,,,,,,,,,,,,,,,,,67dcc12657e2fe1375df7f89,young
,,rt_plussign_withcolor,2357054,blue,,,,,GW/soldier.jpg,GW/dustpan.jpg,,,,,,,,,,,,,,,,,,,,,,67dcc12657e2fe1375df7f89,young
639.0,,rt_thecrossant_black,2358037,black_plus_sign,,,,49.0,,,1.0,0.9690721649484536,,,,,,,,,,,,,,,,,,,,67dcc12657e2fe1375df7f89,young
,,color_black,2358147,black_plus_sign,,,,,,,,,,,,,,,,,,,,,,,,,,,,67dcc12657e2fe1375df7f89,young
,,learn_phase(without_color),2360171,black_plus_sign,,,,,GW/soldier.jpg,GW/snail.jpg,,,,,,,,,,,,,,,,,,,,,,67dcc12657e2fe1375df7f89,young
,,black_cross(without_color),2360619,green,,,,,GW/soldier.jpg,GW/snail.jpg,,,,,,,,,,,,,,,,,,,,,,67dcc12657e2fe1375df7f89,young
,,rt_plussign_withcolor,2361129,green,,,,,GW/soldier.jpg,GW/snail.jpg,,,,,,,,,,,,,,,,,,,,,,67dcc12657e2fe1375df7f89,young
1283.9000000059605,,rt_thecrossant_black,2362693,black_plus_sign,,,,50.0,,,1.0,0.9693877551020408,,,,,,,,,,,,,,,,,,,,67dcc12657e2fe1375df7f89,young
,,color_black,2362807,black_plus_sign,,,,,,,,,,,,,,,,,,,,,,,,,,,,67dcc12657e2fe1375df7f89,young
,,learn_phase(without_color),2364822,black_plus_sign,,,,,GW/wheelchair.jpg,GW/teeth.jpg,,,,,,,,,,,,,,,,,,,,,,67dcc12657e2fe1375df7f89,young
,,black_cross(without_color),2365384,blue,,,,,GW/wheelchair.jpg,GW/teeth.jpg,,,,,,,,,,,,,,,,,,,,,,67dcc12657e2fe1375df7f89,young
,,rt_plussign_withcolor,2365900,blue,,,,,GW/wheelchair.jpg,GW/teeth.jpg,,,,,,,,,,,,,,,,,,,,,,67dcc12657e2fe1375df7f89,young
560.2999999970198,,rt_thecrossant_black,2367363,black_plus_sign,,,,49.0,,,1.0,0.9696969696969696,,,,,,,,,,,,,,,,,,,,67dcc12657e2fe1375df7f89,young
,,color_black,2367475,black_plus_sign,,,,,,,,,,,,,,,,,,,,,,,,,,,,67dcc12657e2fe1375df7f89,young
,,learn_phase(without_color),2369487,black_plus_sign,,,,,GW/soldier.jpg,GW/dustpan.jpg,,,,,,,,,,,,,,,,,,,,,,67dcc12657e2fe1375df7f89,young
,,black_cross(without_color),2370420,blue,,,,,GW/soldier.jpg,GW/dustpan.jpg,,,,,,,,,,,,,,,,,,,,,,67dcc12657e2fe1375df7f89,young
,,rt_plussign_withcolor,2370936,blue,,,,,GW/soldier.jpg,GW/dustpan.jpg,,,,,,,,,,,,,,,,,,,,,,67dcc12657e2fe1375df7f89,young
743.5999999940395,,rt_thecrossant_black,2372028,black_plus_sign,,,,49.0,,,1.0,0.97,,,,,,,,,,,,,,,,,,,,67dcc12657e2fe1375df7f89,young
,,color_black,2372132,black_plus_sign,,,,,,,,,,,,,,,,,,,,,,,,,,,,67dcc12657e2fe1375df7f89,young
,,learn_phase(without_color),2374145,black_plus_sign,,,,,GW/wheelchair.jpg,GW/teeth.jpg,,,,,,,,,,,,,,,,,,,,,,67dcc12657e2fe1375df7f89,young
,,black_cross(without_color),2375166,green,,,,,GW/wheelchair.jpg,GW/teeth.jpg,,,,,,,,,,,,,,,,,,,,,,67dcc12657e2fe1375df7f89,young
,,rt_plussign_withcolor,2375678,green,,,,,GW/wheelchair.jpg,GW/teeth.jpg,,,,,,,,,,,,,,,,,,,,,,67dcc12657e2fe1375df7f89,young
1103.800000011921,,rt_thecrossant_black,2376677,black_plus_sign,,,,50.0,,,1.0,0.9702970297029704,,,,,,,,,,,,,,,,,,,,67dcc12657e2fe1375df7f89,young
,,color_black,2376794,black_plus_sign,,,,,,,,,,,,,,,,,,,,,,,,,,,,67dcc12657e2fe1375df7f89,young
,,learn_phase(without_color),2378807,black_plus_sign,,,,,GW/soldier.jpg,GW/snail.jpg,,,,,,,,,,,,,,,,,,,,,,67dcc12657e2fe1375df7f89,young
,,black_cross(without_color),2379336,green,,,,,GW/soldier.jpg,GW/snail.jpg,,,,,,,,,,,,,,,,,,,,,,67dcc12657e2fe1375df7f89,young
,,rt_plussign_withcolor,2379852,green,,,,,GW/soldier.jpg,GW/snail.jpg,,,,,,,,,,,,,,,,,,,,,,67dcc12657e2fe1375df7f89,young
1267.8999999910593,,rt_thecrossant_black,2381350,black_plus_sign,,,,50.0,,,1.0,0.9705882352941176,,,,,,,,,,,,,,,,,,,,67dcc12657e2fe1375df7f89,young
,,color_black,2381458,black_plus_sign,,,,,,,,,,,,,,,,,,,,,,,,,,,,67dcc12657e2fe1375df7f89,young
,,learn_phase(without_color),2383467,black_plus_sign,,,,,GW/wheelchair.jpg,GW/gong.jpg,,,,,,,,,,,,,,,,,,,,,,67dcc12657e2fe1375df7f89,young
,,black_cross(without_color),2384285,blue,,,,,GW/wheelchair.jpg,GW/gong.jpg,,,,,,,,,,,,,,,,,,,,,,67dcc12657e2fe1375df7f89,young
,,rt_plussign_withcolor,2384793,blue,,,,,GW/wheelchair.jpg,GW/gong.jpg,,,,,,,,,,,,,,,,,,,,,,67dcc12657e2fe1375df7f89,young
735.0999999940395,,rt_thecrossant_black,2385990,black_plus_sign,,,,49.0,,,1.0,0.970873786407767,,,,,,,,,,,,,,,,,,,,67dcc12657e2fe1375df7f89,young
,,color_black,2386097,black_plus_sign,,,,,,,,,,,,,,,,,,,,,,,,,,,,67dcc12657e2fe1375df7f89,young
,,learn_phase(without_color),2388107,black_plus_sign,,,,,GW/camera.jpg,GW/jukebox.jpg,,,,,,,,,,,,,,,,,,,,,,67dcc12657e2fe1375df7f89,young
,,black_cross(without_color),2388607,blue,,,,,GW/camera.jpg,GW/jukebox.jpg,,,,,,,,,,,,,,,,,,,,,,67dcc12657e2fe1375df7f89,young
,,rt_plussign_withcolor,2389117,blue,,,,,GW/camera.jpg,GW/jukebox.jpg,,,,,,,,,,,,,,,,,,,,,,67dcc12657e2fe1375df7f89,young
1065.7999999970198,,rt_thecrossant_black,2390648,black_plus_sign,,,,49.0,,,1.0,0.971153846153846,,,,,,,,,,,,,,,,,,,,67dcc12657e2fe1375df7f89,young
,,color_black,2390759,black_plus_sign,,,,,,,,,,,,,,,,,,,,,,,,,,,,67dcc12657e2fe1375df7f89,young
,,learn_phase(without_color),2392774,black_plus_sign,,,,,GW/jukebox.jpg,GW/globe.jpg,,,,,,,,,,,,,,,,,,,,,,67dcc12657e2fe1375df7f89,young
,,black_cross(without_color),2393727,blue,,,,,GW/jukebox.jpg,GW/globe.jpg,,,,,,,,,,,,,,,,,,,,,,67dcc12657e2fe1375df7f89,young
,,rt_plussign_withcolor,2394243,blue,,,,,GW/jukebox.jpg,GW/globe.jpg,,,,,,,,,,,,,,,,,,,,,,67dcc12657e2fe1375df7f89,young
694.6999999880791,,rt_thecrossant_black,2395313,black_plus_sign,,,,49.0,,,1.0,0.9714285714285714,,,,,,,,,,,,,,,,,,,,67dcc12657e2fe1375df7f89,young
,,color_black,2395418,black_plus_sign,,,,,,,,,,,,,,,,,,,,,,,,,,,,67dcc12657e2fe1375df7f89,young
,,learn_phase(without_color),2397436,black_plus_sign,,,,,GW/soldier.jpg,GW/dustpan.jpg,,,,,,,,,,,,,,,,,,,,,,67dcc12657e2fe1375df7f89,young
,,black_cross(without_color),2398246,blue,,,,,GW/soldier.jpg,GW/dustpan.jpg,,,,,,,,,,,,,,,,,,,,,,67dcc12657e2fe1375df7f89,young
,,rt_plussign_withcolor,2398758,blue,,,,,GW/soldier.jpg,GW/dustpan.jpg,,,,,,,,,,,,,,,,,,,,,,67dcc12657e2fe1375df7f89,young
1101.0999999940395,,rt_thecrossant_black,2399980,black_plus_sign,,,,49.0,,,1.0,0.9716981132075472,,,,,,,,,,,,,,,,,,,,67dcc12657e2fe1375df7f89,young
,,color_black,2400093,black_plus_sign,,,,,,,,,,,,,,,,,,,,,,,,,,,,67dcc12657e2fe1375df7f89,young
,,learn_phase(without_color),2402102,black_plus_sign,,,,,GW/basket.jpg,GW/paint.jpg,,,,,,,,,,,,,,,,,,,,,,67dcc12657e2fe1375df7f89,young
,,black_cross(without_color),2403060,green,,,,,GW/basket.jpg,GW/paint.jpg,,,,,,,,,,,,,,,,,,,,,,67dcc12657e2fe1375df7f89,young
,,rt_plussign_withcolor,2403564,green,,,,,GW/basket.jpg,GW/paint.jpg,,,,,,,,,,,,,,,,,,,,,,67dcc12657e2fe1375df7f89,young
1097.7999999970198,,rt_thecrossant_black,2404622,black_plus_sign,,,,50.0,,,1.0,0.97196261682243,,,,,,,,,,,,,,,,,,,,67dcc12657e2fe1375df7f89,young
,,color_black,2404739,black_plus_sign,,,,,,,,,,,,,,,,,,,,,,,,,,,,67dcc12657e2fe1375df7f89,young
,,learn_phase(without_color),2406754,black_plus_sign,,,,,GW/camera.jpg,GW/soldier.jpg,,,,,,,,,,,,,,,,,,,,,,67dcc12657e2fe1375df7f89,young
,,black_cross(without_color),2407646,green,,,,,GW/camera.jpg,GW/soldier.jpg,,,,,,,,,,,,,,,,,,,,,,67dcc12657e2fe1375df7f89,young
,,rt_plussign_withcolor,2408170,green,,,,,GW/camera.jpg,GW/soldier.jpg,,,,,,,,,,,,,,,,,,,,,,67dcc12657e2fe1375df7f89,young
1170.199999988079,,rt_thecrossant_black,2409288,black_plus_sign,,,,50.0,,,1.0,0.9722222222222222,,,,,,,,,,,,,,,,,,,,67dcc12657e2fe1375df7f89,young
,,color_black,2409400,black_plus_sign,,,,,,,,,,,,,,,,,,,,,,,,,,,,67dcc12657e2fe1375df7f89,young
,,learn_phase(without_color),2411410,black_plus_sign,,,,,GW/camera.jpg,GW/jukebox.jpg,,,,,,,,,,,,,,,,,,,,,,67dcc12657e2fe1375df7f89,young
,,black_cross(without_color),2412101,blue,,,,,GW/camera.jpg,GW/jukebox.jpg,,,,,,,,,,,,,,,,,,,,,,67dcc12657e2fe1375df7f89,young
,,rt_plussign_withcolor,2412608,blue,,,,,GW/camera.jpg,GW/jukebox.jpg,,,,,,,,,,,,,,,,,,,,,,67dcc12657e2fe1375df7f89,young
1113.3999999910593,,rt_thecrossant_black,2413931,black_plus_sign,,,,49.0,,,1.0,0.9724770642201837,,,,,,,,,,,,,,,,,,,,67dcc12657e2fe1375df7f89,young
,,color_black,2414040,black_plus_sign,,,,,,,,,,,,,,,,,,,,,,,,,,,,67dcc12657e2fe1375df7f89,young
,,learn_phase(without_color),2416046,black_plus_sign,,,,,GW/soldier.jpg,GW/dustpan.jpg,,,,,,,,,,,,,,,,,,,,,,67dcc12657e2fe1375df7f89,young
,,black_cross(without_color),2416982,blue,,,,,GW/soldier.jpg,GW/dustpan.jpg,,,,,,,,,,,,,,,,,,,,,,67dcc12657e2fe1375df7f89,young
,,rt_plussign_withcolor,2417503,blue,,,,,GW/soldier.jpg,GW/dustpan.jpg,,,,,,,,,,,,,,,,,,,,,,67dcc12657e2fe1375df7f89,young
786.0,,rt_thecrossant_black,2418596,black_plus_sign,,,,49.0,,,1.0,0.9727272727272728,,,,,,,,,,,,,,,,,,,,67dcc12657e2fe1375df7f89,young
,,color_black,2418705,black_plus_sign,,,,,,,,,,,,,,,,,,,,,,,,,,,,67dcc12657e2fe1375df7f89,young
,,learn_phase(without_color),2420711,black_plus_sign,,,,,GW/dustpan.jpg,GW/globe.jpg,,,,,,,,,,,,,,,,,,,,,,67dcc12657e2fe1375df7f89,young
,,black_cross(without_color),2421215,blue,,,,,GW/dustpan.jpg,GW/globe.jpg,,,,,,,,,,,,,,,,,,,,,,67dcc12657e2fe1375df7f89,young
,,rt_plussign_withcolor,2421730,blue,,,,,GW/dustpan.jpg,GW/globe.jpg,,,,,,,,,,,,,,,,,,,,,,67dcc12657e2fe1375df7f89,young
1075.2000000029802,,rt_thecrossant_black,2423248,black_plus_sign,,,,49.0,,,1.0,0.972972972972973,,,,,,,,,,,,,,,,,,,,67dcc12657e2fe1375df7f89,young
,,color_black,2423352,black_plus_sign,,,,,,,,,,,,,,,,,,,,,,,,,,,,67dcc12657e2fe1375df7f89,young
,,learn_phase(without_color),2425365,black_plus_sign,,,,,GW/soldier.jpg,GW/snail.jpg,,,,,,,,,,,,,,,,,,,,,,67dcc12657e2fe1375df7f89,young
,,black_cross(without_color),2426217,blue,,,,,GW/soldier.jpg,GW/snail.jpg,,,,,,,,,,,,,,,,,,,,,,67dcc12657e2fe1375df7f89,young
,,rt_plussign_withcolor,2426725,blue,,,,,GW/soldier.jpg,GW/snail.jpg,,,,,,,,,,,,,,,,,,,,,,67dcc12657e2fe1375df7f89,young
635.8000000119209,,rt_thecrossant_black,2427886,black_plus_sign,,,,49.0,,,1.0,0.9732142857142856,,,,,,,,,,,,,,,,,,,,67dcc12657e2fe1375df7f89,young
,,color_black,2427995,black_plus_sign,,,,,,,,,,,,,,,,,,,,,,,,,,,,67dcc12657e2fe1375df7f89,young
,,learn_phase(without_color),2430004,black_plus_sign,,,,,GW/snail.jpg,GW/wheelchair.jpg,,,,,,,,,,,,,,,,,,,,,,67dcc12657e2fe1375df7f89,young
,,black_cross(without_color),2430710,green,,,,,GW/snail.jpg,GW/wheelchair.jpg,,,,,,,,,,,,,,,,,,,,,,67dcc12657e2fe1375df7f89,young
,,rt_plussign_withcolor,2431215,green,,,,,GW/snail.jpg,GW/wheelchair.jpg,,,,,,,,,,,,,,,,,,,,,,67dcc12657e2fe1375df7f89,young
1043.4000000059605,,rt_thecrossant_black,2432525,black_plus_sign,,,,50.0,,,1.0,0.9734513274336284,,,,,,,,,,,,,,,,,,,,67dcc12657e2fe1375df7f89,young
,,color_black,2432635,black_plus_sign,,,,,,,,,,,,,,,,,,,,,,,,,,,,67dcc12657e2fe1375df7f89,young
,,learn_phase(without_color),2434654,black_plus_sign,,,,,GW/basket.jpg,GW/teeth.jpg,,,,,,,,,,,,,,,,,,,,,,67dcc12657e2fe1375df7f89,young
,,black_cross(without_color),2435280,green,,,,,GW/basket.jpg,GW/teeth.jpg,,,,,,,,,,,,,,,,,,,,,,67dcc12657e2fe1375df7f89,young
,,rt_plussign_withcolor,2435797,green,,,,,GW/basket.jpg,GW/teeth.jpg,,,,,,,,,,,,,,,,,,,,,,67dcc12657e2fe1375df7f89,young
834.7999999970198,,rt_thecrossant_black,2437189,black_plus_sign,,,,50.0,,,1.0,0.9736842105263158,,,,,,,,,,,,,,,,,,,,67dcc12657e2fe1375df7f89,young
,,color_black,2437297,black_plus_sign,,,,,,,,,,,,,,,,,,,,,,,,,,,,67dcc12657e2fe1375df7f89,young
,,learn_phase(without_color),2439302,black_plus_sign,,,,,GW/snail.jpg,GW/wheelchair.jpg,,,,,,,,,,,,,,,,,,,,,,67dcc12657e2fe1375df7f89,young
,,black_cross(without_color),2440247,blue,,,,,GW/snail.jpg,GW/wheelchair.jpg,,,,,,,,,,,,,,,,,,,,,,67dcc12657e2fe1375df7f89,young
,,rt_plussign_withcolor,2440751,blue,,,,,GW/snail.jpg,GW/wheelchair.jpg,,,,,,,,,,,,,,,,,,,,,,67dcc12657e2fe1375df7f89,young
833.9000000059605,,rt_thecrossant_black,2441840,black_plus_sign,,,,49.0,,,1.0,0.9739130434782608,,,,,,,,,,,,,,,,,,,,67dcc12657e2fe1375df7f89,young
,,color_black,2441944,black_plus_sign,,,,,,,,,,,,,,,,,,,,,,,,,,,,67dcc12657e2fe1375df7f89,young
,,learn_phase(without_color),2443959,black_plus_sign,,,,,GW/soldier.jpg,GW/dustpan.jpg,,,,,,,,,,,,,,,,,,,,,,67dcc12657e2fe1375df7f89,young
,,black_cross(without_color),2444807,blue,,,,,GW/soldier.jpg,GW/dustpan.jpg,,,,,,,,,,,,,,,,,,,,,,67dcc12657e2fe1375df7f89,young
,,rt_plussign_withcolor,2445314,blue,,,,,GW/soldier.jpg,GW/dustpan.jpg,,,,,,,,,,,,,,,,,,,,,,67dcc12657e2fe1375df7f89,young
1117.7000000029802,,rt_thecrossant_black,2446483,black_plus_sign,,,,49.0,,,1.0,0.9741379310344828,,,,,,,,,,,,,,,,,,,,67dcc12657e2fe1375df7f89,young
,,color_black,2446590,black_plus_sign,,,,,,,,,,,,,,,,,,,,,,,,,,,,67dcc12657e2fe1375df7f89,young
,,learn_phase(without_color),2448609,black_plus_sign,,,,,GW/camera.jpg,GW/soldier.jpg,,,,,,,,,,,,,,,,,,,,,,67dcc12657e2fe1375df7f89,young
,,black_cross(without_color),2449422,green,,,,,GW/camera.jpg,GW/soldier.jpg,,,,,,,,,,,,,,,,,,,,,,67dcc12657e2fe1375df7f89,young
507.8999999910593,,rt_plussign_withcolor,2449933,green,,,,50.0,GW/camera.jpg,GW/soldier.jpg,,,,,,,,,,,,,,,,,,,,,,67dcc12657e2fe1375df7f89,young
,,rt_thecrossant_black,2451138,black_plus_sign,,,,,,,1.0,0.9743589743589745,,,,,,,,,,,,,,,,,,,,67dcc12657e2fe1375df7f89,young
,,color_black,2451249,black_plus_sign,,,,,,,,,,,,,,,,,,,,,,,,,,,,67dcc12657e2fe1375df7f89,young
,,learn_phase(without_color),2453264,black_plus_sign,,,,,GW/basket.jpg,GW/paint.jpg,,,,,,,,,,,,,,,,,,,,,,67dcc12657e2fe1375df7f89,young
,,black_cross(without_color),2454089,green,,,,,GW/basket.jpg,GW/paint.jpg,,,,,,,,,,,,,,,,,,,,,,67dcc12657e2fe1375df7f89,young
,,rt_plussign_withcolor,2454599,green,,,,,GW/basket.jpg,GW/paint.jpg,,,,,,,,,,,,,,,,,,,,,,67dcc12657e2fe1375df7f89,young
1184.0999999940395,,rt_thecrossant_black,2455792,black_plus_sign,,,,50.0,,,1.0,0.9745762711864406,,,,,,,,,,,,,,,,,,,,67dcc12657e2fe1375df7f89,young
,,color_black,2455904,black_plus_sign,,,,,,,,,,,,,,,,,,,,,,,,,,,,67dcc12657e2fe1375df7f89,young
,,learn_phase(without_color),2457915,black_plus_sign,,,,,GW/jukebox.jpg,GW/barrel.jpg,,,,,,,,,,,,,,,,,,,,,,67dcc12657e2fe1375df7f89,young
,,black_cross(without_color),2458975,blue,,,,,GW/jukebox.jpg,GW/barrel.jpg,,,,,,,,,,,,,,,,,,,,,,67dcc12657e2fe1375df7f89,young
,,rt_plussign_withcolor,2459482,blue,,,,,GW/jukebox.jpg,GW/barrel.jpg,,,,,,,,,,,,,,,,,,,,,,67dcc12657e2fe1375df7f89,young
973.5,,rt_thecrossant_black,2460443,black_plus_sign,,,,49.0,,,1.0,0.9747899159663864,,,,,,,,,,,,,,,,,,,,67dcc12657e2fe1375df7f89,young
,,color_black,2460555,black_plus_sign,,,,,,,,,,,,,,,,,,,,,,,,,,,,67dcc12657e2fe1375df7f89,young
,,learn_phase(without_color),2462561,black_plus_sign,,,,,GW/basket.jpg,GW/teeth.jpg,,,,,,,,,,,,,,,,,,,,,,67dcc12657e2fe1375df7f89,young
,,black_cross(without_color),2463236,blue,,,,,GW/basket.jpg,GW/teeth.jpg,,,,,,,,,,,,,,,,,,,,,,67dcc12657e2fe1375df7f89,young
,,rt_plussign_withcolor,2463749,blue,,,,,GW/basket.jpg,GW/teeth.jpg,,,,,,,,,,,,,,,,,,,,,,67dcc12657e2fe1375df7f89,young
1233.5,,rt_thecrossant_black,2465094,black_plus_sign,,,,49.0,,,1.0,0.975,,,,,,,,,,,,,,,,,,,,67dcc12657e2fe1375df7f89,young
,,color_black,2465197,black_plus_sign,,,,,,,,,,,,,,,,,,,,,,,,,,,,67dcc12657e2fe1375df7f89,young
,,learn_phase(without_color),2467217,black_plus_sign,,,,,GW/wheelchair.jpg,GW/basket.jpg,,,,,,,,,,,,,,,,,,,,,,67dcc12657e2fe1375df7f89,young
,,black_cross(without_color),2468053,blue,,,,,GW/wheelchair.jpg,GW/basket.jpg,,,,,,,,,,,,,,,,,,,,,,67dcc12657e2fe1375df7f89,young
,,rt_plussign_withcolor,2468559,blue,,,,,GW/wheelchair.jpg,GW/basket.jpg,,,,,,,,,,,,,,,,,,,,,,67dcc12657e2fe1375df7f89,young
936.1999999880792,,rt_thecrossant_black,2469749,black_plus_sign,,,,49.0,,,1.0,0.975206611570248,,,,,,,,,,,,,,,,,,,,67dcc12657e2fe1375df7f89,young
,,color_black,2469865,black_plus_sign,,,,,,,,,,,,,,,,,,,,,,,,,,,,67dcc12657e2fe1375df7f89,young
,,learn_phase(without_color),2471881,black_plus_sign,,,,,GW/teeth.jpg,GW/dustpan.jpg,,,,,,,,,,,,,,,,,,,,,,67dcc12657e2fe1375df7f89,young
,,black_cross(without_color),2472729,green,,,,,GW/teeth.jpg,GW/dustpan.jpg,,,,,,,,,,,,,,,,,,,,,,67dcc12657e2fe1375df7f89,young
,,rt_plussign_withcolor,2473243,green,,,,,GW/teeth.jpg,GW/dustpan.jpg,,,,,,,,,,,,,,,,,,,,,,67dcc12657e2fe1375df7f89,young
972.8999999910592,,rt_thecrossant_black,2474422,black_plus_sign,,,,50.0,,,1.0,0.9754098360655736,,,,,,,,,,,,,,,,,,,,67dcc12657e2fe1375df7f89,young
,,color_black,2474528,black_plus_sign,,,,,,,,,,,,,,,,,,,,,,,,,,,,67dcc12657e2fe1375df7f89,young
,,learn_phase(without_color),2476548,black_plus_sign,,,,,GW/wheelchair.jpg,GW/gong.jpg,,,,,,,,,,,,,,,,,,,,,,67dcc12657e2fe1375df7f89,young
,,black_cross(without_color),2477296,blue,,,,,GW/wheelchair.jpg,GW/gong.jpg,,,,,,,,,,,,,,,,,,,,,,67dcc12657e2fe1375df7f89,young
501.3999999910593,,rt_plussign_withcolor,2477800,blue,,,,49.0,GW/wheelchair.jpg,GW/gong.jpg,,,,,,,,,,,,,,,,,,,,,,67dcc12657e2fe1375df7f89,young
,,rt_thecrossant_black,2479070,black_plus_sign,,,,,,,1.0,0.975609756097561,,,,,,,,,,,,,,,,,,,,67dcc12657e2fe1375df7f89,young
,,color_black,2479186,black_plus_sign,,,,,,,,,,,,,,,,,,,,,,,,,,,,67dcc12657e2fe1375df7f89,young
,,learn_phase(without_color),2481194,black_plus_sign,,,,,GW/wheelchair.jpg,GW/teeth.jpg,,,,,,,,,,,,,,,,,,,,,,67dcc12657e2fe1375df7f89,young
,,black_cross(without_color),2481974,green,,,,,GW/wheelchair.jpg,GW/teeth.jpg,,,,,,,,,,,,,,,,,,,,,,67dcc12657e2fe1375df7f89,young
,,rt_plussign_withcolor,2482485,green,,,,,GW/wheelchair.jpg,GW/teeth.jpg,,,,,,,,,,,,,,,,,,,,,,67dcc12657e2fe1375df7f89,young
870.4000000059605,,rt_thecrossant_black,2483740,black_plus_sign,,,,50.0,,,1.0,0.9758064516129032,,,,,,,,,,,,,,,,,,,,67dcc12657e2fe1375df7f89,young
,,color_black,2483857,black_plus_sign,,,,,,,,,,,,,,,,,,,,,,,,,,,,67dcc12657e2fe1375df7f89,young
,,learn_phase(without_color),2485874,black_plus_sign,,,,,GW/dustpan.jpg,GW/globe.jpg,,,,,,,,,,,,,,,,,,,,,,67dcc12657e2fe1375df7f89,young
,,black_cross(without_color),2486796,green,,,,,GW/dustpan.jpg,GW/globe.jpg,,,,,,,,,,,,,,,,,,,,,,67dcc12657e2fe1375df7f89,young
,,rt_plussign_withcolor,2487305,green,,,,,GW/dustpan.jpg,GW/globe.jpg,,,,,,,,,,,,,,,,,,,,,,67dcc12657e2fe1375df7f89,young
946.2999999970198,,rt_thecrossant_black,2488392,black_plus_sign,,,,50.0,,,1.0,0.976,,,,,,,,,,,,,,,,,,,,67dcc12657e2fe1375df7f89,young
,,color_black,2488505,black_plus_sign,,,,,,,,,,,,,,,,,,,,,,,,,,,,67dcc12657e2fe1375df7f89,young
,,learn_phase(without_color),2490512,black_plus_sign,,,,,GW/jukebox.jpg,GW/globe.jpg,,,,,,,,,,,,,,,,,,,,,,67dcc12657e2fe1375df7f89,young
,,black_cross(without_color),2491559,blue,,,,,GW/jukebox.jpg,GW/globe.jpg,,,,,,,,,,,,,,,,,,,,,,67dcc12657e2fe1375df7f89,young
,,rt_plussign_withcolor,2492073,blue,,,,,GW/jukebox.jpg,GW/globe.jpg,,,,,,,,,,,,,,,,,,,,,,67dcc12657e2fe1375df7f89,young
1132.0,,rt_thecrossant_black,2493044,black_plus_sign,,,,49.0,,,1.0,0.9761904761904762,,,,,,,,,,,,,,,,,,,,67dcc12657e2fe1375df7f89,young
,,color_black,2493156,black_plus_sign,,,,,,,,,,,,,,,,,,,,,,,,,,,,67dcc12657e2fe1375df7f89,young
,,learn_phase(without_color),2495165,black_plus_sign,,,,,GW/wheelchair.jpg,GW/basket.jpg,,,,,,,,,,,,,,,,,,,,,,67dcc12657e2fe1375df7f89,young
,,black_cross(without_color),2496101,blue,,,,,GW/wheelchair.jpg,GW/basket.jpg,,,,,,,,,,,,,,,,,,,,,,67dcc12657e2fe1375df7f89,young
,,rt_plussign_withcolor,2496611,blue,,,,,GW/wheelchair.jpg,GW/basket.jpg,,,,,,,,,,,,,,,,,,,,,,67dcc12657e2fe1375df7f89,young
1229.5999999940395,,rt_thecrossant_black,2497698,black_plus_sign,,,,49.0,,,1.0,0.9763779527559056,,,,,,,,,,,,,,,,,,,,67dcc12657e2fe1375df7f89,young
,,color_black,2497805,black_plus_sign,,,,,,,,,,,,,,,,,,,,,,,,,,,,67dcc12657e2fe1375df7f89,young
,,learn_phase(without_color),2499810,black_plus_sign,,,,,GW/basket.jpg,GW/teeth.jpg,,,,,,,,,,,,,,,,,,,,,,67dcc12657e2fe1375df7f89,young
,,black_cross(without_color),2500313,blue,,,,,GW/basket.jpg,GW/teeth.jpg,,,,,,,,,,,,,,,,,,,,,,67dcc12657e2fe1375df7f89,young
,,rt_plussign_withcolor,2500820,blue,,,,,GW/basket.jpg,GW/teeth.jpg,,,,,,,,,,,,,,,,,,,,,,67dcc12657e2fe1375df7f89,young
1221.1000000089407,,rt_thecrossant_black,2502335,black_plus_sign,,,,49.0,,,1.0,0.9765625,,,,,,,,,,,,,,,,,,,,67dcc12657e2fe1375df7f89,young
,,color_black,2502444,black_plus_sign,,,,,,,,,,,,,,,,,,,,,,,,,,,,67dcc12657e2fe1375df7f89,young
170439.79999999702,,intro_1,2672889,instruct,,0.0,Start,,,,,,,,,,,,,,,,,,,,,,,,,67dcc12657e2fe1375df7f89,young
2641.9000000059605,,directmemory_phase,2675535,GW/teeth.jpg,,,,51.0,,,1.0,1.0,GW/hat.jpg,GW/gong.jpg,GW/snail.jpg,GW/snail.jpg,GW/gong.jpg,GW/hat.jpg,1.0,,,,,,,,,,,,,67dcc12657e2fe1375df7f89,young
,,html-keyboard-response,2676555,<p></p>,,,,,,,,,,,,,,,,,,,,,,,,,,,,67dcc12657e2fe1375df7f89,young
2749.20000000298,,directmemory_phase,2679307,GW/hat.jpg,,,,51.0,,,0.0,0.5,GW/jukebox.jpg,GW/camera.jpg,GW/dustpan.jpg,GW/camera.jpg,GW/jukebox.jpg,GW/dustpan.jpg,0.5,closer,,,,,,,,,,,,67dcc12657e2fe1375df7f89,young
,,html-keyboard-response,2680314,<p></p>,,,,,,,,,,,,,,,,,,,,,,,,,,,,67dcc12657e2fe1375df7f89,young
2410.0999999940395,,directmemory_phase,2682727,GW/dustpan.jpg,,,,50.0,,,1.0,0.6666666666666666,GW/basket.jpg,GW/soldier.jpg,GW/gong.jpg,GW/soldier.jpg,GW/basket.jpg,GW/gong.jpg,1.0,,,,,,,,,,,,,67dcc12657e2fe1375df7f89,young
,,html-keyboard-response,2683741,<p></p>,,,,,,,,,,,,,,,,,,,,,,,,,,,,67dcc12657e2fe1375df7f89,young
2559.5999999940395,,directmemory_phase,2686304,GW/camera.jpg,,,,49.0,,,1.0,0.75,GW/jukebox.jpg,GW/basket.jpg,GW/snail.jpg,GW/jukebox.jpg,GW/snail.jpg,GW/basket.jpg,1.0,,,,,,,,,,,,,67dcc12657e2fe1375df7f89,young
,,html-keyboard-response,2687323,<p></p>,,,,,,,,,,,,,,,,,,,,,,,,,,,,67dcc12657e2fe1375df7f89,young
4452.0,,directmemory_phase,2691777,GW/teeth.jpg,,,,50.0,,,0.0,0.6,GW/wheelchair.jpg,GW/hat.jpg,GW/soldier.jpg,GW/wheelchair.jpg,GW/soldier.jpg,GW/hat.jpg,0.5,closer,,,,,,,,,,,,67dcc12657e2fe1375df7f89,young
,,html-keyboard-response,2692782,<p></p>,,,,,,,,,,,,,,,,,,,,,,,,,,,,67dcc12657e2fe1375df7f89,young
6194.0,,directmemory_phase,2698979,GW/soldier.jpg,,,,49.0,,,0.0,0.5,GW/hat.jpg,GW/snail.jpg,GW/gong.jpg,GW/snail.jpg,GW/hat.jpg,GW/gong.jpg,0.5,closer,,,,,,,,,,,,67dcc12657e2fe1375df7f89,young
,,html-keyboard-response,2699989,<p></p>,,,,,,,,,,,,,,,,,,,,,,,,,,,,67dcc12657e2fe1375df7f89,young
,,directmemory_phase,2706498,GW/teeth.jpg,,,,,,,0.0,0.4285714285714285,GW/hat.jpg,GW/gong.jpg,GW/basket.jpg,GW/basket.jpg,GW/gong.jpg,GW/hat.jpg,0.0,,,,,,,,,,,,,67dcc12657e2fe1375df7f89,young
,,html-keyboard-response,2707520,<p></p>,,,,,,,,,,,,,,,,,,,,,,,,,,,,67dcc12657e2fe1375df7f89,young
2022.8999999910593,,directmemory_phase,2709546,GW/jukebox.jpg,,,,51.0,,,1.0,0.5,GW/teeth.jpg,GW/hat.jpg,GW/globe.jpg,GW/globe.jpg,GW/hat.jpg,GW/teeth.jpg,1.0,,,,,,,,,,,,,67dcc12657e2fe1375df7f89,young
,,html-keyboard-response,2710556,<p></p>,,,,,,,,,,,,,,,,,,,,,,,,,,,,67dcc12657e2fe1375df7f89,young
2478.5,,directmemory_phase,2713036,GW/wheelchair.jpg,,,,50.0,,,0.0,0.4444444444444444,GW/snail.jpg,GW/jukebox.jpg,GW/soldier.jpg,GW/snail.jpg,GW/soldier.jpg,GW/jukebox.jpg,0.5,closer,,,,,,,,,,,,67dcc12657e2fe1375df7f89,young
,,html-keyboard-response,2714050,<p></p>,,,,,,,,,,,,,,,,,,,,,,,,,,,,67dcc12657e2fe1375df7f89,young
2470.5,,directmemory_phase,2716523,GW/dustpan.jpg,,,,49.0,,,0.0,0.4,GW/jukebox.jpg,GW/globe.jpg,GW/hat.jpg,GW/globe.jpg,GW/jukebox.jpg,GW/hat.jpg,0.5,closer,,,,,,,,,,,,67dcc12657e2fe1375df7f89,young
,,html-keyboard-response,2717528,<p></p>,,,,,,,,,,,,,,,,,,,,,,,,,,,,67dcc12657e2fe1375df7f89,young
2135.0999999940395,,directmemory_phase,2719665,GW/camera.jpg,,,,50.0,,,0.0,0.3636363636363636,GW/wheelchair.jpg,GW/dustpan.jpg,GW/soldier.jpg,GW/soldier.jpg,GW/dustpan.jpg,GW/wheelchair.jpg,0.5,closer,,,,,,,,,,,,67dcc12657e2fe1375df7f89,young
,,html-keyboard-response,2720682,<p></p>,,,,,,,,,,,,,,,,,,,,,,,,,,,,67dcc12657e2fe1375df7f89,young
1772.300000011921,,directmemory_phase,2722456,GW/globe.jpg,,,,50.0,,,0.0,0.3333333333333333,GW/gong.jpg,GW/barrel.jpg,GW/dustpan.jpg,GW/dustpan.jpg,GW/barrel.jpg,GW/gong.jpg,0.5,closer,,,,,,,,,,,,67dcc12657e2fe1375df7f89,young
,,html-keyboard-response,2723464,<p></p>,,,,,,,,,,,,,,,,,,,,,,,,,,,,67dcc12657e2fe1375df7f89,young
1935.20000000298,,directmemory_phase,2725402,GW/wheelchair.jpg,,,,51.0,,,1.0,0.3846153846153846,GW/globe.jpg,GW/dustpan.jpg,GW/teeth.jpg,GW/teeth.jpg,GW/dustpan.jpg,GW/globe.jpg,1.0,,,,,,,,,,,,,67dcc12657e2fe1375df7f89,young
,,html-keyboard-response,2726407,<p></p>,,,,,,,,,,,,,,,,,,,,,,,,,,,,67dcc12657e2fe1375df7f89,young
1771.2999999970198,,directmemory_phase,2728181,GW/barrel.jpg,,,,49.0,,,1.0,0.4285714285714285,GW/jukebox.jpg,GW/teeth.jpg,GW/globe.jpg,GW/jukebox.jpg,GW/globe.jpg,GW/teeth.jpg,1.0,,,,,,,,,,,,,67dcc12657e2fe1375df7f89,young
,,html-keyboard-response,2729185,<p></p>,,,,,,,,,,,,,,,,,,,,,,,,,,,,67dcc12657e2fe1375df7f89,young
2027.70000000298,,directmemory_phase,2731215,GW/camera.jpg,,,,50.0,,,0.0,0.4,GW/wheelchair.jpg,GW/barrel.jpg,GW/hat.jpg,GW/hat.jpg,GW/barrel.jpg,GW/wheelchair.jpg,0.5,closer,,,,,,,,,,,,67dcc12657e2fe1375df7f89,young
,,html-keyboard-response,2732225,<p></p>,,,,,,,,,,,,,,,,,,,,,,,,,,,,67dcc12657e2fe1375df7f89,young
1672.2000000029802,,directmemory_phase,2733899,GW/jukebox.jpg,,,,49.0,,,1.0,0.4375,GW/barrel.jpg,GW/teeth.jpg,GW/dustpan.jpg,GW/barrel.jpg,GW/dustpan.jpg,GW/teeth.jpg,1.0,,,,,,,,,,,,,67dcc12657e2fe1375df7f89,young
,,html-keyboard-response,2734917,<p></p>,,,,,,,,,,,,,,,,,,,,,,,,,,,,67dcc12657e2fe1375df7f89,young
1597.7999999970198,,directmemory_phase,2736517,GW/soldier.jpg,,,,50.0,,,0.0,0.4117647058823529,GW/camera.jpg,GW/paint.jpg,GW/jukebox.jpg,GW/camera.jpg,GW/jukebox.jpg,GW/paint.jpg,0.5,closer,,,,,,,,,,,,67dcc12657e2fe1375df7f89,young
,,html-keyboard-response,2737531,<p></p>,,,,,,,,,,,,,,,,,,,,,,,,,,,,67dcc12657e2fe1375df7f89,young
1849.5,,directmemory_phase,2739383,GW/basket.jpg,,,,50.0,,,0.0,0.3888888888888889,GW/paint.jpg,GW/jukebox.jpg,GW/dustpan.jpg,GW/paint.jpg,GW/dustpan.jpg,GW/jukebox.jpg,0.5,closer,,,,,,,,,,,,67dcc12657e2fe1375df7f89,young
,,html-keyboard-response,2740396,<p></p>,,,,,,,,,,,,,,,,,,,,,,,,,,,,67dcc12657e2fe1375df7f89,young
1839.4000000059605,,directmemory_phase,2742238,GW/jukebox.jpg,,,,51.0,,,1.0,0.4210526315789473,GW/basket.jpg,GW/dustpan.jpg,GW/camera.jpg,GW/camera.jpg,GW/dustpan.jpg,GW/basket.jpg,1.0,,,,,,,,,,,,,67dcc12657e2fe1375df7f89,young
,,html-keyboard-response,2743251,<p></p>,,,,,,,,,,,,,,,,,,,,,,,,,,,,67dcc12657e2fe1375df7f89,young
1233.9000000059605,,directmemory_phase,2744488,GW/snail.jpg,,,,50.0,,,1.0,0.45,GW/gong.jpg,GW/teeth.jpg,GW/jukebox.jpg,GW/teeth.jpg,GW/gong.jpg,GW/jukebox.jpg,1.0,,,,,,,,,,,,,67dcc12657e2fe1375df7f89,young
,,html-keyboard-response,2745498,<p></p>,,,,,,,,,,,,,,,,,,,,,,,,,,,,67dcc12657e2fe1375df7f89,young
1171.5999999940395,,directmemory_phase,2746673,GW/gong.jpg,,,,51.0,,,1.0,0.4761904761904761,GW/globe.jpg,GW/teeth.jpg,GW/wheelchair.jpg,GW/wheelchair.jpg,GW/teeth.jpg,GW/globe.jpg,1.0,,,,,,,,,,,,,67dcc12657e2fe1375df7f89,young
,,html-keyboard-response,2747677,<p></p>,,,,,,,,,,,,,,,,,,,,,,,,,,,,67dcc12657e2fe1375df7f89,young
1457.300000011921,,directmemory_phase,2749137,GW/snail.jpg,,,,49.0,,,0.0,0.4545454545454545,GW/paint.jpg,GW/basket.jpg,GW/soldier.jpg,GW/soldier.jpg,GW/basket.jpg,GW/paint.jpg,0.5,closer,,,,,,,,,,,,67dcc12657e2fe1375df7f89,young
,,html-keyboard-response,2750149,<p></p>,,,,,,,,,,,,,,,,,,,,,,,,,,,,67dcc12657e2fe1375df7f89,young
1370.0,,directmemory_phase,2751522,GW/basket.jpg,,,,50.0,,,0.0,0.4347826086956521,GW/soldier.jpg,GW/gong.jpg,GW/wheelchair.jpg,GW/wheelchair.jpg,GW/gong.jpg,GW/soldier.jpg,0.5,closer,,,,,,,,,,,,67dcc12657e2fe1375df7f89,young
,,html-keyboard-response,2752528,<p></p>,,,,,,,,,,,,,,,,,,,,,,,,,,,,67dcc12657e2fe1375df7f89,young
2121.20000000298,,directmemory_phase,2754652,GW/globe.jpg,,,,49.0,,,0.0,0.4166666666666667,GW/snail.jpg,GW/barrel.jpg,GW/jukebox.jpg,GW/jukebox.jpg,GW/barrel.jpg,GW/snail.jpg,0.5,closer,,,,,,,,,,,,67dcc12657e2fe1375df7f89,young
,,html-keyboard-response,2755658,<p></p>,,,,,,,,,,,,,,,,,,,,,,,,,,,,67dcc12657e2fe1375df7f89,young
1502.0999999940395,,directmemory_phase,2757164,GW/wheelchair.jpg,,,,50.0,,,1.0,0.44,GW/dustpan.jpg,GW/basket.jpg,GW/globe.jpg,GW/basket.jpg,GW/dustpan.jpg,GW/globe.jpg,1.0,,,,,,,,,,,,,67dcc12657e2fe1375df7f89,young
,,html-keyboard-response,2758178,<p></p>,,,,,,,,,,,,,,,,,,,,,,,,,,,,67dcc12657e2fe1375df7f89,young
2407.6000000089407,,directmemory_phase,2760589,GW/soldier.jpg,,,,51.0,,,1.0,0.4615384615384615,GW/barrel.jpg,GW/wheelchair.jpg,GW/dustpan.jpg,GW/dustpan.jpg,GW/wheelchair.jpg,GW/barrel.jpg,1.0,,,,,,,,,,,,,67dcc12657e2fe1375df7f89,young
,,html-keyboard-response,2761597,<p></p>,,,,,,,,,,,,,,,,,,,,,,,,,,,,67dcc12657e2fe1375df7f89,young
1787.5999999940395,,directmemory_phase,2763388,GW/paint.jpg,,,,49.0,,,1.0,0.4814814814814814,GW/basket.jpg,GW/globe.jpg,GW/teeth.jpg,GW/basket.jpg,GW/teeth.jpg,GW/globe.jpg,1.0,,,,,,,,,,,,,67dcc12657e2fe1375df7f89,young
,,html-keyboard-response,2764400,<p></p>,,,,,,,,,,,,,,,,,,,,,,,,,,,,67dcc12657e2fe1375df7f89,young
1768.5999999940395,,directmemory_phase,2766172,GW/dustpan.jpg,,,,50.0,,,0.0,0.4642857142857143,GW/teeth.jpg,GW/hat.jpg,GW/wheelchair.jpg,GW/teeth.jpg,GW/wheelchair.jpg,GW/hat.jpg,0.5,closer,,,,,,,,,,,,67dcc12657e2fe1375df7f89,young
,,html-keyboard-response,2767182,<p></p>,,,,,,,,,,,,,,,,,,,,,,,,,,,,67dcc12657e2fe1375df7f89,young
2072.1000000089407,,directmemory_phase,2769257,GW/wheelchair.jpg,,,,49.0,,,0.0,0.4482758620689655,GW/camera.jpg,GW/soldier.jpg,GW/gong.jpg,GW/gong.jpg,GW/soldier.jpg,GW/camera.jpg,0.5,closer,,,,,,,,,,,,67dcc12657e2fe1375df7f89,young
,,html-keyboard-response,2770269,<p></p>,,,,,,,,,,,,,,,,,,,,,,,,,,,,67dcc12657e2fe1375df7f89,young
1742.7000000029802,,directmemory_phase,2772014,GW/teeth.jpg,,,,51.0,,,0.0,0.4333333333333333,GW/gong.jpg,GW/dustpan.jpg,GW/camera.jpg,GW/dustpan.jpg,GW/gong.jpg,GW/camera.jpg,0.5,closer,,,,,,,,,,,,67dcc12657e2fe1375df7f89,young
,,html-keyboard-response,2773027,<p></p>,,,,,,,,,,,,,,,,,,,,,,,,,,,,67dcc12657e2fe1375df7f89,young
2077.70000000298,,directmemory_phase,2775108,GW/snail.jpg,,,,50.0,,,0.0,0.4193548387096774,GW/paint.jpg,GW/gong.jpg,GW/wheelchair.jpg,GW/wheelchair.jpg,GW/gong.jpg,GW/paint.jpg,0.5,closer,,,,,,,,,,,,67dcc12657e2fe1375df7f89,young
,,html-keyboard-response,2776124,<p></p>,,,,,,,,,,,,,,,,,,,,,,,,,,,,67dcc12657e2fe1375df7f89,young
2443.9000000059605,,directmemory_phase,2778571,GW/basket.jpg,,,,50.0,,,0.0,0.40625,GW/teeth.jpg,GW/jukebox.jpg,GW/dustpan.jpg,GW/teeth.jpg,GW/dustpan.jpg,GW/jukebox.jpg,0.5,closer,,,,,,,,,,,,67dcc12657e2fe1375df7f89,young
,,html-keyboard-response,2779584,<p></p>,,,,,,,,,,,,,,,,,,,,,,,,,,,,67dcc12657e2fe1375df7f89,young
345569.700000003,,intro_1,3125156,instruct,,0.0,,,,,,,,,,,,,,,,,,,,,,,,,,67dcc12657e2fe1375df7f89,young
25739.19999998808,,intro_2,3150903,instruct,,1.0,Next,,,,,,,,,,,,,,,,,,,,,,,,,67dcc12657e2fe1375df7f89,young
2545.3999999910593,,intro_3,3153453,instruct,,1.0,Next,,,,,,,,,,,,,,,,,,,,,,,,,67dcc12657e2fe1375df7f89,young
20995.10000000894,,intro_4,3174452,instruct,,1.0,Next,,,,,,,,,,,,,,,,,,,,,,,,,67dcc12657e2fe1375df7f89,young
68862.29999999702,,intro_5,3243320,instruct,,1.0,Next,,,,,,,,,,,,,,,,,,,,,,,,,67dcc12657e2fe1375df7f89,young
26154.59999999404,,intro_6,3269483,instruct,,1.0,Next,,,,,,,,,,,,,,,,,,,,,,,,,67dcc12657e2fe1375df7f89,young
148468.0,,intro_7,3417957,instruct,,1.0,Next,,,,,,,,,,,,,,,,,,,,,,,,,67dcc12657e2fe1375df7f89,young
63024.79999999702,,intro_8,3480985,instruct,,1.0,Next,,,,,,,,,,,,,,,,,,,,,,,,,67dcc12657e2fe1375df7f89,young
1581.699999988079,,shortestpath_phase,3482573,GW/barrel.jpg,,,,49.0,GW/gong.jpg,GW/snail.jpg,0.0,0.0,,,,GW/snail.jpg,,,,,Two Edge Diff,Four Edge Six Edge,,,,,,,,,,67dcc12657e2fe1375df7f89,young
,,html-keyboard-response,3483584,<p></p>,,,,,,,,,,,,,,,,,,,,,,,,,,,,67dcc12657e2fe1375df7f89,young
1325.5999999940395,,shortestpath_phase,3484912,GW/hat.jpg,,,,49.0,GW/gong.jpg,GW/soldier.jpg,0.0,0.0,,,,GW/soldier.jpg,,,,,Three Edge Diff,Two Edge Five Edge,,,,,,,,,,67dcc12657e2fe1375df7f89,young
,,html-keyboard-response,3485929,<p></p>,,,,,,,,,,,,,,,,,,,,,,,,,,,,67dcc12657e2fe1375df7f89,young
1476.800000011921,,shortestpath_phase,3487408,GW/paint.jpg,,,,49.0,GW/globe.jpg,GW/camera.jpg,1.0,0.3333333333333333,,,,GW/globe.jpg,,,,,One Edge Diff,Four Edge Five Edge,,,,,,,,,,67dcc12657e2fe1375df7f89,young
,,html-keyboard-response,3488428,<p></p>,,,,,,,,,,,,,,,,,,,,,,,,,,,,67dcc12657e2fe1375df7f89,young
1651.699999988079,,shortestpath_phase,3490082,GW/gong.jpg,,,,50.0,GW/teeth.jpg,GW/barrel.jpg,0.0,0.25,,,,GW/teeth.jpg,,,,,Four Edge Diff,Two Edge Six Edge,,,,,,,,,,67dcc12657e2fe1375df7f89,young
,,html-keyboard-response,3491088,<p></p>,,,,,,,,,,,,,,,,,,,,,,,,,,,,67dcc12657e2fe1375df7f89,young
1197.9000000059605,,shortestpath_phase,3492289,GW/basket.jpg,,,,50.0,GW/hat.jpg,GW/dustpan.jpg,1.0,0.4,,,,GW/dustpan.jpg,,,,,Three Edge Diff,Three Edge Six Edge,,,,,,,,,,67dcc12657e2fe1375df7f89,young
,,html-keyboard-response,3493307,<p></p>,,,,,,,,,,,,,,,,,,,,,,,,,,,,67dcc12657e2fe1375df7f89,young
955.8999999910592,,shortestpath_phase,3494265,GW/paint.jpg,,,,50.0,GW/camera.jpg,GW/teeth.jpg,1.0,0.5,,,,GW/teeth.jpg,,,,,Three Edge Diff,Two Edge Five Edge,,,,,,,,,,67dcc12657e2fe1375df7f89,young
,,html-keyboard-response,3495273,<p></p>,,,,,,,,,,,,,,,,,,,,,,,,,,,,67dcc12657e2fe1375df7f89,young
1578.2000000029802,,shortestpath_phase,3496854,GW/barrel.jpg,,,,50.0,GW/globe.jpg,GW/gong.jpg,0.0,0.4285714285714285,,,,GW/globe.jpg,,,,,Four Edge Diff,Two Edge Six Edge,,,,,,,,,,67dcc12657e2fe1375df7f89,young
,,html-keyboard-response,3497861,<p></p>,,,,,,,,,,,,,,,,,,,,,,,,,,,,67dcc12657e2fe1375df7f89,young
1743.3999999910593,,shortestpath_phase,3499607,GW/snail.jpg,,,,49.0,GW/paint.jpg,GW/basket.jpg,0.0,0.375,,,,GW/basket.jpg,,,,,One Edge Diff,Two Edge Three Edge,,,,,,,,,,67dcc12657e2fe1375df7f89,young
,,html-keyboard-response,3500615,<p></p>,,,,,,,,,,,,,,,,,,,,,,,,,,,,67dcc12657e2fe1375df7f89,young
1125.0,,shortestpath_phase,3501742,GW/barrel.jpg,,,,50.0,GW/paint.jpg,GW/wheelchair.jpg,1.0,0.4444444444444444,,,,GW/wheelchair.jpg,,,,,One Edge Diff,Five Edge Six Edge,,,,,,,,,,67dcc12657e2fe1375df7f89,young
,,html-keyboard-response,3502749,<p></p>,,,,,,,,,,,,,,,,,,,,,,,,,,,,67dcc12657e2fe1375df7f89,young
1960.199999988079,,shortestpath_phase,3504712,GW/gong.jpg,,,,49.0,GW/hat.jpg,GW/teeth.jpg,0.0,0.4,,,,GW/teeth.jpg,,,,,Three Edge Diff,Two Edge Five Edge,,,,,,,,,,67dcc12657e2fe1375df7f89,young
,,html-keyboard-response,3505720,<p></p>,,,,,,,,,,,,,,,,,,,,,,,,,,,,67dcc12657e2fe1375df7f89,young
1450.5999999940395,,shortestpath_phase,3507172,GW/barrel.jpg,,,,50.0,GW/basket.jpg,GW/gong.jpg,0.0,0.3636363636363636,,,,GW/basket.jpg,,,,,One Edge Diff,Five Edge Six Edge,,,,,,,,,,67dcc12657e2fe1375df7f89,young
,,html-keyboard-response,3508180,<p></p>,,,,,,,,,,,,,,,,,,,,,,,,,,,,67dcc12657e2fe1375df7f89,young
