rt,trial_type,stimulus,key_press,accuracy,stimulus_down_left,stimulus_down_mid,stimulus_down_right,stimulus_correct,stimulus_short,stimulus_far,city_type,partid,age
2778.5,directmemory_phase,mm_boulder.png,49.0,0.0,nat_huntsville.png,nat_peoria.png,mm_carmel.png,mm_carmel.png,nat_peoria.png,nat_huntsville.png,US,67cf70ec9741a100ffc7f570,old
4428.5,directmemory_phase,nat_huntsville.png,51.0,1.0,mm_hotsprings.png,mm_shreveport.png,mm_westpalmbeach.png,mm_westpalmbeach.png,mm_shreveport.png,mm_hotsprings.png,US,67cf70ec9741a100ffc7f570,old
3322.7,directmemory_phase,nat_gatlinburg.png,51.0,1.0,mm_leesburg.png,mm_shreveport.png,mm_boulder.png,mm_boulder.png,mm_shreveport.png,mm_leesburg.png,US,67cf70ec9741a100ffc7f570,old
3231.1,directmemory_phase,nat_hanover.png,49.0,1.0,mm_leesburg.png,mm_carmel.png,mm_westpalmbeach.png,mm_leesburg.png,mm_westpalmbeach.png,mm_carmel.png,US,67cf70ec9741a100ffc7f570,old
3242.2,directmemory_phase,nat_peoria.png,49.0,0.0,nat_racine.png,mm_boulder.png,mm_shreveport.png,mm_shreveport.png,mm_boulder.png,nat_racine.png,US,67cf70ec9741a100ffc7f570,old
3770.7,directmemory_phase,nat_hanover.png,49.0,0.0,mm_shreveport.png,nat_peoria.png,nat_huntsville.png,nat_huntsville.png,nat_peoria.png,mm_shreveport.png,US,67cf70ec9741a100ffc7f570,old
2452.9,directmemory_phase,nat_racine.png,49.0,0.0,nat_newhope.png,mm_boulder.png,mm_carmel.png,mm_carmel.png,mm_boulder.png,nat_newhope.png,US,67cf70ec9741a100ffc7f570,old
1301.0,directmemory_phase,nat_cornwall.png,50.0,0.0,nat_hanover.png,mm_hotsprings.png,mm_leesburg.png,nat_hanover.png,mm_leesburg.png,mm_hotsprings.png,US,67cf70ec9741a100ffc7f570,old
374.0,directmemory_phase,nat_newhope.png,51.0,1.0,nat_cornwall.png,mm_boulder.png,mm_hotsprings.png,mm_hotsprings.png,mm_boulder.png,nat_cornwall.png,US,67cf70ec9741a100ffc7f570,old
264.3,directmemory_phase,mm_carmel.png,49.0,0.0,nat_peoria.png,nat_gatlinburg.png,nat_racine.png,nat_racine.png,nat_gatlinburg.png,nat_peoria.png,US,67cf70ec9741a100ffc7f570,old
293.4,directmemory_phase,nat_huntsville.png,50.0,0.0,mm_boulder.png,mm_shreveport.png,nat_peoria.png,nat_peoria.png,mm_shreveport.png,mm_boulder.png,US,67cf70ec9741a100ffc7f570,old
158.4,directmemory_phase,mm_hotsprings.png,51.0,0.0,mm_carmel.png,nat_cornwall.png,mm_boulder.png,mm_carmel.png,mm_boulder.png,nat_cornwall.png,US,67cf70ec9741a100ffc7f570,old
127.2,directmemory_phase,mm_leesburg.png,49.0,0.0,nat_cornwall.png,nat_peoria.png,nat_racine.png,nat_peoria.png,nat_cornwall.png,nat_racine.png,US,67cf70ec9741a100ffc7f570,old
108.2,directmemory_phase,mm_westpalmbeach.png,51.0,0.0,nat_huntsville.png,nat_cornwall.png,mm_leesburg.png,nat_huntsville.png,mm_leesburg.png,nat_cornwall.png,US,67cf70ec9741a100ffc7f570,old
92.7,directmemory_phase,nat_newhope.png,49.0,0.0,nat_cornwall.png,nat_peoria.png,mm_leesburg.png,mm_leesburg.png,nat_peoria.png,nat_cornwall.png,US,67cf70ec9741a100ffc7f570,old
6.600000001,directmemory_phase,nat_hanover.png,50.0,0.0,mm_carmel.png,nat_newhope.png,nat_cornwall.png,nat_cornwall.png,nat_newhope.png,mm_carmel.png,US,67cf70ec9741a100ffc7f570,old
572.5,directmemory_phase,nat_huntsville.png,50.0,0.0,mm_boulder.png,mm_shreveport.png,mm_leesburg.png,mm_leesburg.png,mm_shreveport.png,mm_boulder.png,US,67cf70ec9741a100ffc7f570,old
266.0,directmemory_phase,mm_shreveport.png,51.0,1.0,nat_hanover.png,mm_carmel.png,mm_boulder.png,mm_boulder.png,mm_carmel.png,nat_hanover.png,US,67cf70ec9741a100ffc7f570,old
291.6,directmemory_phase,mm_leesburg.png,49.0,1.0,nat_hanover.png,nat_gatlinburg.png,mm_westpalmbeach.png,nat_hanover.png,mm_westpalmbeach.png,nat_gatlinburg.png,US,67cf70ec9741a100ffc7f570,old
109.6,directmemory_phase,mm_shreveport.png,51.0,0.0,mm_hotsprings.png,nat_peoria.png,nat_hanover.png,nat_peoria.png,mm_hotsprings.png,nat_hanover.png,US,67cf70ec9741a100ffc7f570,old
0.200000003,directmemory_phase,mm_leesburg.png,50.0,1.0,nat_cornwall.png,nat_huntsville.png,nat_racine.png,nat_huntsville.png,nat_cornwall.png,nat_racine.png,US,67cf70ec9741a100ffc7f570,old
382.1,directmemory_phase,mm_carmel.png,50.0,1.0,mm_shreveport.png,mm_hotsprings.png,nat_hanover.png,mm_hotsprings.png,mm_shreveport.png,nat_hanover.png,US,67cf70ec9741a100ffc7f570,old
370.6,directmemory_phase,nat_peoria.png,50.0,1.0,nat_newhope.png,mm_leesburg.png,nat_cornwall.png,mm_leesburg.png,nat_newhope.png,nat_cornwall.png,US,67cf70ec9741a100ffc7f570,old
366.8,directmemory_phase,mm_carmel.png,51.0,1.0,mm_leesburg.png,nat_gatlinburg.png,mm_boulder.png,mm_boulder.png,nat_gatlinburg.png,mm_leesburg.png,US,67cf70ec9741a100ffc7f570,old
482.8,directmemory_phase,nat_peoria.png,51.0,1.0,nat_cornwall.png,nat_hanover.png,nat_huntsville.png,nat_huntsville.png,nat_hanover.png,nat_cornwall.png,US,67cf70ec9741a100ffc7f570,old
1691.0,directmemory_phase,mm_boulder.png,51.0,0.0,nat_newhope.png,mm_shreveport.png,nat_huntsville.png,mm_shreveport.png,nat_newhope.png,nat_huntsville.png,US,67cf70ec9741a100ffc7f570,old
1519.2,directmemory_phase,nat_huntsville.png,51.0,0.0,mm_shreveport.png,nat_hanover.png,mm_carmel.png,nat_hanover.png,mm_shreveport.png,mm_carmel.png,US,67cf70ec9741a100ffc7f570,old
3266.4,directmemory_phase,mm_shreveport.png,49.0,0.0,mm_hotsprings.png,nat_newhope.png,nat_hanover.png,nat_newhope.png,mm_hotsprings.png,nat_hanover.png,US,67cf70ec9741a100ffc7f570,old
887.0,directmemory_phase,mm_boulder.png,51.0,1.0,mm_leesburg.png,mm_hotsprings.png,nat_gatlinburg.png,nat_gatlinburg.png,mm_hotsprings.png,mm_leesburg.png,US,67cf70ec9741a100ffc7f570,old
673.4,directmemory_phase,mm_hotsprings.png,50.0,0.0,nat_peoria.png,nat_racine.png,nat_newhope.png,nat_newhope.png,nat_racine.png,nat_peoria.png,US,67cf70ec9741a100ffc7f570,old
2003.4,directmemory_phase,,51.0,1.0,,,,,,,US,67cf70ec9741a100ffc7f570,old
2158.0,directmemory_phase,,50.0,1.0,,,,,,,US,67cf70ec9741a100ffc7f570,old
2744.5,directmemory_phase,mm_huntsville.png,51.0,1.0,mm_boulder.png,nat_westpalmbeach.png,nat_gatlinburg.png,nat_gatlinburg.png,nat_westpalmbeach.png,mm_boulder.png,US,634ef87aec0966557c825573,young
2183.2999999523163,directmemory_phase,nat_carmel.png,50.0,1.0,nat_gatlinburg.png,nat_cornwall.png,nat_racine.png,nat_cornwall.png,nat_gatlinburg.png,nat_racine.png,US,634ef87aec0966557c825573,young
3045.2999999523163,directmemory_phase,nat_shreveport.png,50.0,0.0,mm_leesburg.png,mm_boulder.png,nat_racine.png,mm_leesburg.png,nat_racine.png,mm_boulder.png,US,634ef87aec0966557c825573,young
2230.600000023842,directmemory_phase,mm_huntsville.png,49.0,1.0,nat_carmel.png,nat_hotsprings.png,nat_westpalmbeach.png,nat_carmel.png,nat_westpalmbeach.png,nat_hotsprings.png,US,634ef87aec0966557c825573,young
2342.5,directmemory_phase,nat_hotsprings.png,49.0,0.0,mm_huntsville.png,nat_shreveport.png,mm_leesburg.png,mm_leesburg.png,nat_shreveport.png,mm_huntsville.png,US,634ef87aec0966557c825573,young
3934.799999952316,directmemory_phase,mm_huntsville.png,50.0,1.0,nat_shreveport.png,mm_peoria.png,nat_newhope.png,mm_peoria.png,nat_shreveport.png,nat_newhope.png,US,634ef87aec0966557c825573,young
4440.899999976158,directmemory_phase,nat_shreveport.png,50.0,0.0,nat_westpalmbeach.png,nat_hotsprings.png,nat_gatlinburg.png,nat_gatlinburg.png,nat_hotsprings.png,nat_westpalmbeach.png,US,634ef87aec0966557c825573,young
3982.0,directmemory_phase,nat_cornwall.png,49.0,0.0,nat_newhope.png,nat_westpalmbeach.png,mm_huntsville.png,mm_huntsville.png,nat_westpalmbeach.png,nat_newhope.png,US,634ef87aec0966557c825573,young
3198.399999976158,directmemory_phase,mm_peoria.png,49.0,1.0,nat_shreveport.png,nat_westpalmbeach.png,nat_gatlinburg.png,nat_shreveport.png,nat_gatlinburg.png,nat_westpalmbeach.png,US,634ef87aec0966557c825573,young
3084.5,directmemory_phase,nat_gatlinburg.png,50.0,0.0,nat_westpalmbeach.png,mm_peoria.png,nat_cornwall.png,nat_cornwall.png,mm_peoria.png,nat_westpalmbeach.png,US,634ef87aec0966557c825573,young
2311.2999999523163,directmemory_phase,mm_peoria.png,49.0,0.0,nat_gatlinburg.png,mm_huntsville.png,mm_hanover.png,mm_huntsville.png,nat_gatlinburg.png,mm_hanover.png,US,634ef87aec0966557c825573,young
2923.3000000715256,directmemory_phase,nat_westpalmbeach.png,51.0,0.0,nat_carmel.png,nat_gatlinburg.png,mm_huntsville.png,nat_carmel.png,mm_huntsville.png,nat_gatlinburg.png,US,634ef87aec0966557c825573,young
2914.100000023842,directmemory_phase,mm_leesburg.png,51.0,1.0,mm_huntsville.png,nat_gatlinburg.png,nat_shreveport.png,nat_shreveport.png,nat_gatlinburg.png,mm_huntsville.png,US,634ef87aec0966557c825573,young
5303.100000023842,directmemory_phase,nat_carmel.png,50.0,1.0,mm_peoria.png,mm_huntsville.png,mm_leesburg.png,mm_huntsville.png,mm_peoria.png,mm_leesburg.png,US,634ef87aec0966557c825573,young
2143.7000000476837,directmemory_phase,nat_shreveport.png,49.0,1.0,mm_peoria.png,nat_westpalmbeach.png,nat_hotsprings.png,mm_peoria.png,nat_hotsprings.png,nat_westpalmbeach.png,US,634ef87aec0966557c825573,young
5329.399999976158,directmemory_phase,nat_racine.png,50.0,1.0,nat_shreveport.png,nat_hotsprings.png,nat_newhope.png,nat_hotsprings.png,nat_shreveport.png,nat_newhope.png,US,634ef87aec0966557c825573,young
1147.100000023842,directmemory_phase,nat_cornwall.png,49.0,1.0,nat_carmel.png,nat_newhope.png,mm_peoria.png,nat_carmel.png,mm_peoria.png,nat_newhope.png,US,634ef87aec0966557c825573,young
2853.899999976158,directmemory_phase,nat_hotsprings.png,51.0,0.0,mm_boulder.png,nat_carmel.png,mm_peoria.png,mm_boulder.png,mm_peoria.png,nat_carmel.png,US,634ef87aec0966557c825573,young
3234.7000000476837,directmemory_phase,nat_carmel.png,50.0,1.0,nat_gatlinburg.png,nat_westpalmbeach.png,nat_racine.png,nat_westpalmbeach.png,nat_gatlinburg.png,nat_racine.png,US,634ef87aec0966557c825573,young
3044.0,directmemory_phase,nat_gatlinburg.png,49.0,0.0,mm_boulder.png,mm_hanover.png,nat_shreveport.png,nat_shreveport.png,mm_hanover.png,mm_boulder.png,US,634ef87aec0966557c825573,young
5404.100000023842,directmemory_phase,nat_hotsprings.png,51.0,0.0,mm_peoria.png,nat_racine.png,mm_huntsville.png,nat_racine.png,mm_peoria.png,mm_huntsville.png,US,634ef87aec0966557c825573,young
1723.2000000476835,directmemory_phase,nat_cornwall.png,50.0,1.0,nat_westpalmbeach.png,nat_gatlinburg.png,nat_racine.png,nat_gatlinburg.png,nat_westpalmbeach.png,nat_racine.png,US,634ef87aec0966557c825573,young
4947.199999928474,directmemory_phase,nat_racine.png,49.0,0.0,mm_huntsville.png,mm_peoria.png,nat_carmel.png,mm_peoria.png,mm_huntsville.png,nat_carmel.png,US,634ef87aec0966557c825573,young
3711.399999976158,directmemory_phase,nat_gatlinburg.png,51.0,0.0,mm_huntsville.png,nat_hotsprings.png,mm_peoria.png,mm_huntsville.png,mm_peoria.png,nat_hotsprings.png,US,634ef87aec0966557c825573,young
6227.200000047684,directmemory_phase,mm_leesburg.png,51.0,1.0,mm_hanover.png,nat_gatlinburg.png,nat_hotsprings.png,nat_hotsprings.png,nat_gatlinburg.png,mm_hanover.png,US,634ef87aec0966557c825573,young
,directmemory_phase,mm_peoria.png,,0.0,nat_carmel.png,nat_racine.png,nat_westpalmbeach.png,nat_racine.png,nat_carmel.png,nat_westpalmbeach.png,US,634ef87aec0966557c825573,young
2565.5,directmemory_phase,mm_leesburg.png,49.0,1.0,nat_newhope.png,nat_carmel.png,nat_racine.png,nat_newhope.png,nat_racine.png,nat_carmel.png,US,634ef87aec0966557c825573,young
4236.100000023842,directmemory_phase,mm_hanover.png,49.0,0.0,nat_racine.png,nat_gatlinburg.png,nat_cornwall.png,nat_cornwall.png,nat_gatlinburg.png,nat_racine.png,US,634ef87aec0966557c825573,young
3271.7000000476837,directmemory_phase,mm_boulder.png,50.0,0.0,nat_hotsprings.png,mm_huntsville.png,mm_leesburg.png,nat_hotsprings.png,mm_leesburg.png,mm_huntsville.png,US,634ef87aec0966557c825573,young
3244.599999904633,directmemory_phase,nat_cornwall.png,51.0,1.0,nat_newhope.png,nat_shreveport.png,mm_hanover.png,mm_hanover.png,nat_shreveport.png,nat_newhope.png,US,634ef87aec0966557c825573,young
4509.800000071526,directmemory_phase,nat_newhope.png,51.0,0.0,mm_leesburg.png,nat_gatlinburg.png,nat_shreveport.png,mm_leesburg.png,nat_shreveport.png,nat_gatlinburg.png,US,634ef87aec0966557c825573,young
4238.899999976158,directmemory_phase,mm_huntsville.png,49.0,1.0,nat_cornwall.png,nat_hotsprings.png,mm_hanover.png,nat_cornwall.png,mm_hanover.png,nat_hotsprings.png,US,634ef87aec0966557c825573,young
,directmemory_phase,nat_boulder.png,,0.0,nat_westpalmbeach.png,nat_huntsville.png,nat_cornwall.png,nat_westpalmbeach.png,nat_cornwall.png,nat_huntsville.png,US,67dff4b10f363a1974679065,old
5171.599999904633,directmemory_phase,nat_shreveport.png,51.0,1.0,mm_leesburg.png,nat_newhope.png,mm_carmel.png,mm_carmel.png,nat_newhope.png,mm_leesburg.png,US,67dff4b10f363a1974679065,old
2903.5,directmemory_phase,nat_peoria.png,50.0,0.0,mm_hanover.png,mm_racine.png,nat_newhope.png,nat_newhope.png,mm_racine.png,mm_hanover.png,US,67dff4b10f363a1974679065,old
3150.900000095367,directmemory_phase,nat_westpalmbeach.png,51.0,1.0,mm_hanover.png,nat_huntsville.png,mm_carmel.png,mm_carmel.png,nat_huntsville.png,mm_hanover.png,US,67dff4b10f363a1974679065,old
2707.199999809265,directmemory_phase,nat_boulder.png,49.0,1.0,mm_hotsprings.png,nat_peoria.png,nat_shreveport.png,mm_hotsprings.png,nat_shreveport.png,nat_peoria.png,US,67dff4b10f363a1974679065,old
3021.900000095367,directmemory_phase,nat_peoria.png,50.0,1.0,mm_hotsprings.png,nat_shreveport.png,nat_cornwall.png,nat_shreveport.png,mm_hotsprings.png,nat_cornwall.png,US,67dff4b10f363a1974679065,old
2717.100000143051,directmemory_phase,nat_westpalmbeach.png,51.0,0.0,nat_boulder.png,mm_racine.png,mm_hotsprings.png,nat_boulder.png,mm_hotsprings.png,mm_racine.png,US,67dff4b10f363a1974679065,old
2795.199999809265,directmemory_phase,mm_hotsprings.png,50.0,0.0,nat_shreveport.png,nat_huntsville.png,nat_westpalmbeach.png,nat_shreveport.png,nat_westpalmbeach.png,nat_huntsville.png,US,67dff4b10f363a1974679065,old
3169.600000143051,directmemory_phase,mm_carmel.png,50.0,1.0,nat_gatlinburg.png,nat_cornwall.png,mm_leesburg.png,nat_cornwall.png,nat_gatlinburg.png,mm_leesburg.png,US,67dff4b10f363a1974679065,old
2862.5,directmemory_phase,mm_racine.png,50.0,1.0,mm_leesburg.png,mm_hotsprings.png,mm_carmel.png,mm_hotsprings.png,mm_leesburg.png,mm_carmel.png,US,67dff4b10f363a1974679065,old
2761.199999809265,directmemory_phase,nat_huntsville.png,50.0,1.0,mm_carmel.png,nat_cornwall.png,nat_gatlinburg.png,nat_cornwall.png,mm_carmel.png,nat_gatlinburg.png,US,67dff4b10f363a1974679065,old
3068.599999904633,directmemory_phase,mm_carmel.png,49.0,1.0,nat_westpalmbeach.png,mm_hanover.png,nat_huntsville.png,nat_westpalmbeach.png,nat_huntsville.png,mm_hanover.png,US,67dff4b10f363a1974679065,old
3939.600000143051,directmemory_phase,nat_cornwall.png,50.0,1.0,nat_boulder.png,nat_huntsville.png,nat_newhope.png,nat_huntsville.png,nat_boulder.png,nat_newhope.png,US,67dff4b10f363a1974679065,old
2908.5,directmemory_phase,mm_carmel.png,49.0,0.0,nat_peoria.png,nat_shreveport.png,mm_leesburg.png,nat_shreveport.png,nat_peoria.png,mm_leesburg.png,US,67dff4b10f363a1974679065,old
2779.0,directmemory_phase,nat_newhope.png,50.0,1.0,mm_hanover.png,mm_racine.png,nat_westpalmbeach.png,mm_racine.png,mm_hanover.png,nat_westpalmbeach.png,US,67dff4b10f363a1974679065,old
3292.0,directmemory_phase,nat_westpalmbeach.png,49.0,0.0,mm_hotsprings.png,nat_gatlinburg.png,mm_racine.png,nat_gatlinburg.png,mm_hotsprings.png,mm_racine.png,US,67dff4b10f363a1974679065,old
2882.7999999523163,directmemory_phase,mm_leesburg.png,51.0,1.0,mm_hanover.png,nat_peoria.png,nat_newhope.png,nat_newhope.png,nat_peoria.png,mm_hanover.png,US,67dff4b10f363a1974679065,old
3553.599999904633,directmemory_phase,mm_hanover.png,50.0,0.0,mm_racine.png,nat_peoria.png,mm_hotsprings.png,mm_racine.png,mm_hotsprings.png,nat_peoria.png,US,67dff4b10f363a1974679065,old
4132.799999952316,directmemory_phase,nat_newhope.png,51.0,1.0,nat_westpalmbeach.png,mm_hanover.png,nat_peoria.png,nat_peoria.png,mm_hanover.png,nat_westpalmbeach.png,US,67dff4b10f363a1974679065,old
4734.700000047684,directmemory_phase,nat_gatlinburg.png,50.0,0.0,nat_westpalmbeach.png,mm_hotsprings.png,mm_carmel.png,nat_westpalmbeach.png,mm_carmel.png,mm_hotsprings.png,US,67dff4b10f363a1974679065,old
4305.399999856949,directmemory_phase,mm_racine.png,51.0,0.0,nat_shreveport.png,mm_hanover.png,nat_gatlinburg.png,mm_hanover.png,nat_shreveport.png,nat_gatlinburg.png,US,67dff4b10f363a1974679065,old
3420.199999809265,directmemory_phase,nat_newhope.png,49.0,0.0,nat_westpalmbeach.png,nat_shreveport.png,mm_leesburg.png,mm_leesburg.png,nat_shreveport.png,nat_westpalmbeach.png,US,67dff4b10f363a1974679065,old
3283.2999999523163,directmemory_phase,mm_hotsprings.png,51.0,1.0,mm_leesburg.png,mm_hanover.png,mm_racine.png,mm_racine.png,mm_hanover.png,mm_leesburg.png,US,67dff4b10f363a1974679065,old
2111.5,directmemory_phase,nat_shreveport.png,49.0,0.0,nat_boulder.png,nat_peoria.png,nat_gatlinburg.png,nat_peoria.png,nat_boulder.png,nat_gatlinburg.png,US,67dff4b10f363a1974679065,old
1967.0999999046328,directmemory_phase,nat_westpalmbeach.png,49.0,0.0,nat_shreveport.png,nat_cornwall.png,mm_racine.png,nat_cornwall.png,nat_shreveport.png,mm_racine.png,US,67dff4b10f363a1974679065,old
2475.2999999523163,directmemory_phase,mm_carmel.png,51.0,1.0,mm_hanover.png,mm_hotsprings.png,nat_boulder.png,nat_boulder.png,mm_hotsprings.png,mm_hanover.png,US,67dff4b10f363a1974679065,old
2946.399999856949,directmemory_phase,mm_racine.png,49.0,0.0,mm_carmel.png,nat_peoria.png,nat_newhope.png,nat_newhope.png,nat_peoria.png,mm_carmel.png,US,67dff4b10f363a1974679065,old
3739.899999856949,directmemory_phase,nat_boulder.png,51.0,1.0,nat_newhope.png,nat_cornwall.png,mm_carmel.png,mm_carmel.png,nat_cornwall.png,nat_newhope.png,US,67dff4b10f363a1974679065,old
2604.2000000476837,directmemory_phase,nat_shreveport.png,49.0,1.0,mm_hotsprings.png,mm_leesburg.png,mm_racine.png,mm_hotsprings.png,mm_racine.png,mm_leesburg.png,US,67dff4b10f363a1974679065,old
2500.5,directmemory_phase,nat_cornwall.png,51.0,0.0,mm_carmel.png,nat_newhope.png,nat_shreveport.png,mm_carmel.png,nat_shreveport.png,nat_newhope.png,US,67dff4b10f363a1974679065,old
2726.7000000476837,directmemory_phase,mm_hotsprings.png,49.0,1.0,nat_boulder.png,nat_cornwall.png,nat_westpalmbeach.png,nat_boulder.png,nat_westpalmbeach.png,nat_cornwall.png,US,67dff4b10f363a1974679065,old
3489.099999904633,directmemory_phase,nat_cornwall.png,50.0,1.0,nat_boulder.png,nat_westpalmbeach.png,mm_hotsprings.png,nat_westpalmbeach.png,nat_boulder.png,mm_hotsprings.png,US,67dff4b10f363a1974679065,old
,directmemory_phase,nat_cornwall.png,,0.0,nat_racine.png,mm_gatlinburg.png,nat_westpalmbeach.png,nat_westpalmbeach.png,mm_gatlinburg.png,nat_racine.png,US,67eec1cf02e625e0d469f1ed,young
1981.5,directmemory_phase,mm_hotsprings.png,51.0,1.0,mm_huntsville.png,nat_newhope.png,nat_carmel.png,nat_carmel.png,nat_newhope.png,mm_huntsville.png,US,67eec1cf02e625e0d469f1ed,young
1249.4000000357628,directmemory_phase,mm_huntsville.png,50.0,0.0,nat_racine.png,mm_gatlinburg.png,nat_westpalmbeach.png,nat_racine.png,nat_westpalmbeach.png,mm_gatlinburg.png,US,67eec1cf02e625e0d469f1ed,young
2787.899999976158,directmemory_phase,mm_leesburg.png,51.0,1.0,nat_shreveport.png,nat_carmel.png,mm_hotsprings.png,mm_hotsprings.png,nat_carmel.png,nat_shreveport.png,US,67eec1cf02e625e0d469f1ed,young
2060.399999976158,directmemory_phase,mm_peoria.png,49.0,0.0,mm_gatlinburg.png,nat_cornwall.png,mm_huntsville.png,mm_huntsville.png,nat_cornwall.png,mm_gatlinburg.png,US,67eec1cf02e625e0d469f1ed,young
2535.800000011921,directmemory_phase,mm_gatlinburg.png,50.0,0.0,mm_peoria.png,nat_carmel.png,mm_leesburg.png,mm_leesburg.png,nat_carmel.png,mm_peoria.png,US,67eec1cf02e625e0d469f1ed,young
2744.5,directmemory_phase,mm_hotsprings.png,51.0,0.0,mm_hanover.png,nat_cornwall.png,mm_peoria.png,nat_cornwall.png,mm_hanover.png,mm_peoria.png,US,67eec1cf02e625e0d469f1ed,young
993.1999999880792,directmemory_phase,mm_hanover.png,50.0,1.0,mm_hotsprings.png,mm_gatlinburg.png,nat_cornwall.png,mm_gatlinburg.png,mm_hotsprings.png,nat_cornwall.png,US,67eec1cf02e625e0d469f1ed,young
1722.9000000357628,directmemory_phase,nat_westpalmbeach.png,49.0,1.0,nat_cornwall.png,mm_hanover.png,nat_shreveport.png,nat_cornwall.png,nat_shreveport.png,mm_hanover.png,US,67eec1cf02e625e0d469f1ed,young
1793.699999988079,directmemory_phase,mm_huntsville.png,50.0,0.0,nat_newhope.png,nat_cornwall.png,nat_westpalmbeach.png,nat_newhope.png,nat_westpalmbeach.png,nat_cornwall.png,US,67eec1cf02e625e0d469f1ed,young
1405.800000011921,directmemory_phase,mm_hotsprings.png,51.0,1.0,mm_huntsville.png,nat_newhope.png,mm_gatlinburg.png,mm_gatlinburg.png,nat_newhope.png,mm_huntsville.png,US,67eec1cf02e625e0d469f1ed,young
3185.600000023842,directmemory_phase,nat_carmel.png,51.0,0.0,nat_newhope.png,nat_shreveport.png,mm_huntsville.png,nat_newhope.png,mm_huntsville.png,nat_shreveport.png,US,67eec1cf02e625e0d469f1ed,young
1324.199999988079,directmemory_phase,nat_shreveport.png,50.0,1.0,nat_westpalmbeach.png,mm_peoria.png,nat_newhope.png,mm_peoria.png,nat_westpalmbeach.png,nat_newhope.png,US,67eec1cf02e625e0d469f1ed,young
1775.600000023842,directmemory_phase,nat_carmel.png,49.0,0.0,mm_hanover.png,mm_huntsville.png,nat_westpalmbeach.png,nat_westpalmbeach.png,mm_huntsville.png,mm_hanover.png,US,67eec1cf02e625e0d469f1ed,young
2624.2000000476837,directmemory_phase,nat_cornwall.png,50.0,0.0,nat_newhope.png,mm_peoria.png,mm_leesburg.png,mm_leesburg.png,mm_peoria.png,nat_newhope.png,US,67eec1cf02e625e0d469f1ed,young
1371.899999976158,directmemory_phase,mm_huntsville.png,49.0,0.0,mm_gatlinburg.png,nat_shreveport.png,mm_peoria.png,mm_peoria.png,nat_shreveport.png,mm_gatlinburg.png,US,67eec1cf02e625e0d469f1ed,young
1624.600000023842,directmemory_phase,mm_hotsprings.png,50.0,0.0,mm_leesburg.png,mm_peoria.png,nat_newhope.png,mm_leesburg.png,nat_newhope.png,mm_peoria.png,US,67eec1cf02e625e0d469f1ed,young
2547.699999988079,directmemory_phase,nat_westpalmbeach.png,51.0,1.0,mm_boulder.png,nat_newhope.png,mm_peoria.png,mm_peoria.png,nat_newhope.png,mm_boulder.png,US,67eec1cf02e625e0d469f1ed,young
1689.899999976158,directmemory_phase,nat_newhope.png,49.0,0.0,mm_peoria.png,mm_huntsville.png,mm_boulder.png,mm_huntsville.png,mm_peoria.png,mm_boulder.png,US,67eec1cf02e625e0d469f1ed,young
2226.900000035763,directmemory_phase,mm_peoria.png,49.0,0.0,mm_boulder.png,nat_racine.png,nat_shreveport.png,nat_shreveport.png,nat_racine.png,mm_boulder.png,US,67eec1cf02e625e0d469f1ed,young
2675.199999988079,directmemory_phase,mm_leesburg.png,51.0,0.0,mm_boulder.png,mm_huntsville.png,mm_hanover.png,mm_boulder.png,mm_hanover.png,mm_huntsville.png,US,67eec1cf02e625e0d469f1ed,young
2396.199999988079,directmemory_phase,mm_gatlinburg.png,49.0,1.0,mm_hotsprings.png,nat_newhope.png,nat_carmel.png,mm_hotsprings.png,nat_carmel.png,nat_newhope.png,US,67eec1cf02e625e0d469f1ed,young
1277.600000023842,directmemory_phase,mm_leesburg.png,51.0,0.0,nat_westpalmbeach.png,nat_cornwall.png,mm_peoria.png,nat_cornwall.png,nat_westpalmbeach.png,mm_peoria.png,US,67eec1cf02e625e0d469f1ed,young
1376.399999976158,directmemory_phase,mm_gatlinburg.png,50.0,0.0,nat_newhope.png,nat_cornwall.png,mm_hanover.png,mm_hanover.png,nat_cornwall.png,nat_newhope.png,US,67eec1cf02e625e0d469f1ed,young
1819.600000023842,directmemory_phase,nat_cornwall.png,51.0,1.0,mm_huntsville.png,mm_boulder.png,mm_hotsprings.png,mm_hotsprings.png,mm_boulder.png,mm_huntsville.png,US,67eec1cf02e625e0d469f1ed,young
2928.300000011921,directmemory_phase,mm_peoria.png,51.0,0.0,nat_westpalmbeach.png,mm_leesburg.png,nat_carmel.png,nat_westpalmbeach.png,nat_carmel.png,mm_leesburg.png,US,67eec1cf02e625e0d469f1ed,young
1087.9000000357628,directmemory_phase,mm_boulder.png,50.0,1.0,mm_gatlinburg.png,mm_leesburg.png,nat_newhope.png,mm_leesburg.png,mm_gatlinburg.png,nat_newhope.png,US,67eec1cf02e625e0d469f1ed,young
1284.899999976158,directmemory_phase,nat_westpalmbeach.png,50.0,1.0,mm_huntsville.png,nat_carmel.png,nat_racine.png,nat_carmel.png,mm_huntsville.png,nat_racine.png,US,67eec1cf02e625e0d469f1ed,young
1932.0,directmemory_phase,mm_leesburg.png,51.0,1.0,nat_newhope.png,nat_westpalmbeach.png,mm_gatlinburg.png,mm_gatlinburg.png,nat_westpalmbeach.png,nat_newhope.png,US,67eec1cf02e625e0d469f1ed,young
1910.0,directmemory_phase,nat_carmel.png,49.0,1.0,mm_hotsprings.png,nat_shreveport.png,mm_leesburg.png,mm_hotsprings.png,mm_leesburg.png,nat_shreveport.png,US,67eec1cf02e625e0d469f1ed,young
1355.0,directmemory_phase,nat_racine.png,51.0,0.0,mm_peoria.png,mm_huntsville.png,mm_hotsprings.png,mm_huntsville.png,mm_peoria.png,mm_hotsprings.png,US,67eec1cf02e625e0d469f1ed,young
2096.199999988079,directmemory_phase,nat_newhope.png,50.0,0.0,mm_leesburg.png,mm_peoria.png,nat_carmel.png,nat_carmel.png,mm_peoria.png,mm_leesburg.png,US,67eec1cf02e625e0d469f1ed,young
2341.70000000298,directmemory_phase,mm_westpalmbeach.png,49.0,1.0,nat_shreveport.png,nat_peoria.png,mm_huntsville.png,nat_shreveport.png,mm_huntsville.png,nat_peoria.png,US,56e60e39f7957b000b18e37b,young
1544.0,directmemory_phase,nat_racine.png,51.0,1.0,mm_huntsville.png,mm_westpalmbeach.png,nat_peoria.png,nat_peoria.png,mm_westpalmbeach.png,mm_huntsville.png,US,56e60e39f7957b000b18e37b,young
1684.2000000029802,directmemory_phase,nat_shreveport.png,49.0,1.0,nat_carmel.png,nat_boulder.png,nat_leesburg.png,nat_carmel.png,nat_leesburg.png,nat_boulder.png,US,56e60e39f7957b000b18e37b,young
2706.70000000298,directmemory_phase,nat_cornwall.png,51.0,0.0,nat_carmel.png,mm_huntsville.png,nat_racine.png,mm_huntsville.png,nat_carmel.png,nat_racine.png,US,56e60e39f7957b000b18e37b,young
1410.5999999940395,directmemory_phase,nat_peoria.png,49.0,1.0,nat_gatlinburg.png,nat_shreveport.png,nat_leesburg.png,nat_gatlinburg.png,nat_leesburg.png,nat_shreveport.png,US,56e60e39f7957b000b18e37b,young
2190.5,directmemory_phase,nat_shreveport.png,50.0,0.0,nat_peoria.png,mm_hotsprings.png,mm_newhope.png,mm_newhope.png,mm_hotsprings.png,nat_peoria.png,US,56e60e39f7957b000b18e37b,young
2307.20000000298,directmemory_phase,mm_hotsprings.png,51.0,0.0,nat_peoria.png,nat_hanover.png,mm_huntsville.png,nat_hanover.png,nat_peoria.png,mm_huntsville.png,US,56e60e39f7957b000b18e37b,young
1718.2000000029802,directmemory_phase,mm_newhope.png,50.0,1.0,nat_hanover.png,nat_shreveport.png,nat_racine.png,nat_shreveport.png,nat_hanover.png,nat_racine.png,US,56e60e39f7957b000b18e37b,young
1997.5,directmemory_phase,nat_leesburg.png,49.0,0.0,mm_huntsville.png,mm_newhope.png,mm_westpalmbeach.png,mm_westpalmbeach.png,mm_newhope.png,mm_huntsville.png,US,56e60e39f7957b000b18e37b,young
2999.5,directmemory_phase,mm_huntsville.png,51.0,0.0,nat_cornwall.png,nat_carmel.png,nat_shreveport.png,nat_cornwall.png,nat_shreveport.png,nat_carmel.png,US,56e60e39f7957b000b18e37b,young
2088.5,directmemory_phase,nat_gatlinburg.png,50.0,1.0,nat_hanover.png,nat_peoria.png,mm_westpalmbeach.png,nat_peoria.png,nat_hanover.png,mm_westpalmbeach.png,US,56e60e39f7957b000b18e37b,young
2315.0999999940395,directmemory_phase,nat_carmel.png,51.0,1.0,mm_huntsville.png,mm_westpalmbeach.png,nat_shreveport.png,nat_shreveport.png,mm_westpalmbeach.png,mm_huntsville.png,US,56e60e39f7957b000b18e37b,young
2150.29999999702,directmemory_phase,nat_hanover.png,49.0,0.0,mm_westpalmbeach.png,nat_racine.png,mm_hotsprings.png,mm_hotsprings.png,nat_racine.png,mm_westpalmbeach.png,US,56e60e39f7957b000b18e37b,young
2106.29999999702,directmemory_phase,nat_shreveport.png,51.0,1.0,nat_peoria.png,mm_hotsprings.png,nat_cornwall.png,nat_cornwall.png,mm_hotsprings.png,nat_peoria.png,US,56e60e39f7957b000b18e37b,young
2752.5,directmemory_phase,nat_hanover.png,50.0,0.0,nat_carmel.png,nat_gatlinburg.png,nat_peoria.png,nat_peoria.png,nat_gatlinburg.png,nat_carmel.png,US,56e60e39f7957b000b18e37b,young
2323.5,directmemory_phase,mm_newhope.png,49.0,0.0,nat_peoria.png,nat_hanover.png,mm_hotsprings.png,mm_hotsprings.png,nat_hanover.png,nat_peoria.png,US,56e60e39f7957b000b18e37b,young
1936.20000000298,directmemory_phase,nat_shreveport.png,51.0,0.0,mm_hotsprings.png,mm_westpalmbeach.png,nat_racine.png,mm_westpalmbeach.png,mm_hotsprings.png,nat_racine.png,US,56e60e39f7957b000b18e37b,young
2255.79999999702,directmemory_phase,nat_leesburg.png,49.0,0.0,nat_cornwall.png,mm_hotsprings.png,nat_gatlinburg.png,mm_hotsprings.png,nat_cornwall.png,nat_gatlinburg.png,US,56e60e39f7957b000b18e37b,young
2077.300000011921,directmemory_phase,nat_cornwall.png,49.0,1.0,nat_shreveport.png,mm_hotsprings.png,nat_leesburg.png,nat_shreveport.png,nat_leesburg.png,mm_hotsprings.png,US,56e60e39f7957b000b18e37b,young
2233.3999999910593,directmemory_phase,mm_hotsprings.png,49.0,0.0,mm_westpalmbeach.png,nat_leesburg.png,mm_huntsville.png,nat_leesburg.png,mm_westpalmbeach.png,mm_huntsville.png,US,56e60e39f7957b000b18e37b,young
2578.29999999702,directmemory_phase,nat_cornwall.png,49.0,1.0,mm_westpalmbeach.png,nat_hanover.png,mm_newhope.png,mm_westpalmbeach.png,mm_newhope.png,nat_hanover.png,US,56e60e39f7957b000b18e37b,young
2595.1000000089407,directmemory_phase,nat_peoria.png,49.0,0.0,nat_boulder.png,nat_hanover.png,mm_newhope.png,nat_hanover.png,nat_boulder.png,mm_newhope.png,US,56e60e39f7957b000b18e37b,young
2074.79999999702,directmemory_phase,mm_westpalmbeach.png,49.0,0.0,nat_peoria.png,nat_carmel.png,nat_cornwall.png,nat_cornwall.png,nat_carmel.png,nat_peoria.png,US,56e60e39f7957b000b18e37b,young
3867.900000005961,directmemory_phase,nat_racine.png,51.0,0.0,mm_hotsprings.png,nat_leesburg.png,mm_huntsville.png,nat_leesburg.png,mm_hotsprings.png,mm_huntsville.png,US,56e60e39f7957b000b18e37b,young
3590.3999999910593,directmemory_phase,mm_westpalmbeach.png,51.0,0.0,mm_newhope.png,nat_gatlinburg.png,nat_carmel.png,mm_newhope.png,nat_carmel.png,nat_gatlinburg.png,US,56e60e39f7957b000b18e37b,young
2038.0999999940395,directmemory_phase,nat_peoria.png,50.0,1.0,nat_boulder.png,nat_racine.png,nat_shreveport.png,nat_racine.png,nat_boulder.png,nat_shreveport.png,US,56e60e39f7957b000b18e37b,young
3838.0,directmemory_phase,mm_hotsprings.png,49.0,0.0,nat_carmel.png,nat_boulder.png,mm_newhope.png,mm_newhope.png,nat_boulder.png,nat_carmel.png,US,56e60e39f7957b000b18e37b,young
2087.79999999702,directmemory_phase,nat_leesburg.png,50.0,0.0,nat_gatlinburg.png,nat_cornwall.png,nat_racine.png,nat_racine.png,nat_cornwall.png,nat_gatlinburg.png,US,56e60e39f7957b000b18e37b,young
1573.0,directmemory_phase,mm_newhope.png,49.0,1.0,mm_westpalmbeach.png,nat_peoria.png,nat_hanover.png,mm_westpalmbeach.png,nat_hanover.png,nat_peoria.png,US,56e60e39f7957b000b18e37b,young
2732.29999999702,directmemory_phase,nat_hanover.png,51.0,0.0,mm_newhope.png,nat_boulder.png,mm_westpalmbeach.png,nat_boulder.png,mm_newhope.png,mm_westpalmbeach.png,US,56e60e39f7957b000b18e37b,young
1877.29999999702,directmemory_phase,mm_westpalmbeach.png,51.0,0.0,nat_racine.png,nat_leesburg.png,nat_hanover.png,nat_leesburg.png,nat_racine.png,nat_hanover.png,US,56e60e39f7957b000b18e37b,young
2017.0,directmemory_phase,nat_boulder.png,49.0,1.0,nat_hanover.png,nat_gatlinburg.png,nat_peoria.png,nat_hanover.png,nat_peoria.png,nat_gatlinburg.png,US,56e60e39f7957b000b18e37b,young
2454.7,directmemory_phase,nat_leesburg.png,50.0,1.0,nat_boulder.png,nat_racine.png,mm_gatlinburg.png,nat_racine.png,nat_boulder.png,mm_gatlinburg.png,US,66f02f508e8473f0362ed99e,young
3305.6,directmemory_phase,nat_boulder.png,49.0,0.0,nat_newhope.png,mm_gatlinburg.png,nat_peoria.png,nat_peoria.png,mm_gatlinburg.png,nat_newhope.png,US,66f02f508e8473f0362ed99e,young
3529.2,directmemory_phase,nat_shreveport.png,50.0,0.0,mm_gatlinburg.png,mm_hotsprings.png,nat_cornwall.png,mm_gatlinburg.png,nat_cornwall.png,mm_hotsprings.png,US,66f02f508e8473f0362ed99e,young
3462.1,directmemory_phase,nat_boulder.png,50.0,1.0,nat_hanover.png,nat_racine.png,mm_westpalmbeach.png,nat_racine.png,nat_hanover.png,mm_westpalmbeach.png,US,66f02f508e8473f0362ed99e,young
2082.1,directmemory_phase,nat_peoria.png,50.0,0.0,mm_westpalmbeach.png,nat_leesburg.png,mm_carmel.png,mm_carmel.png,nat_leesburg.png,mm_westpalmbeach.png,US,66f02f508e8473f0362ed99e,young
2474.8,directmemory_phase,mm_hotsprings.png,49.0,0.0,mm_gatlinburg.png,nat_leesburg.png,nat_boulder.png,nat_boulder.png,nat_leesburg.png,mm_gatlinburg.png,US,66f02f508e8473f0362ed99e,young
1180.2,directmemory_phase,mm_carmel.png,50.0,0.0,mm_hotsprings.png,nat_shreveport.png,nat_newhope.png,nat_newhope.png,nat_shreveport.png,mm_hotsprings.png,US,66f02f508e8473f0362ed99e,young
2808.4,directmemory_phase,mm_hotsprings.png,49.0,0.0,mm_carmel.png,nat_peoria.png,nat_racine.png,nat_racine.png,nat_peoria.png,mm_carmel.png,US,66f02f508e8473f0362ed99e,young
2673.8,directmemory_phase,mm_gatlinburg.png,50.0,0.0,nat_hanover.png,nat_newhope.png,nat_cornwall.png,nat_cornwall.png,nat_newhope.png,nat_hanover.png,US,66f02f508e8473f0362ed99e,young
3910.6,directmemory_phase,mm_hotsprings.png,51.0,1.0,mm_gatlinburg.png,nat_peoria.png,nat_hanover.png,nat_hanover.png,nat_peoria.png,mm_gatlinburg.png,US,66f02f508e8473f0362ed99e,young
3399.8,directmemory_phase,nat_shreveport.png,51.0,1.0,nat_peoria.png,mm_carmel.png,mm_westpalmbeach.png,mm_westpalmbeach.png,mm_carmel.png,nat_peoria.png,US,66f02f508e8473f0362ed99e,young
3882.0,directmemory_phase,nat_cornwall.png,50.0,1.0,nat_peoria.png,mm_gatlinburg.png,mm_westpalmbeach.png,mm_gatlinburg.png,nat_peoria.png,mm_westpalmbeach.png,US,66f02f508e8473f0362ed99e,young
4201.9,directmemory_phase,nat_newhope.png,49.0,0.0,mm_hotsprings.png,nat_peoria.png,nat_shreveport.png,nat_shreveport.png,nat_peoria.png,mm_hotsprings.png,US,66f02f508e8473f0362ed99e,young
3371.6,directmemory_phase,nat_cornwall.png,50.0,0.0,mm_carmel.png,mm_huntsville.png,nat_peoria.png,mm_carmel.png,nat_peoria.png,mm_huntsville.png,US,66f02f508e8473f0362ed99e,young
4037.8,directmemory_phase,mm_gatlinburg.png,49.0,1.0,nat_shreveport.png,nat_leesburg.png,nat_boulder.png,nat_shreveport.png,nat_boulder.png,nat_leesburg.png,US,66f02f508e8473f0362ed99e,young
3556.2,directmemory_phase,nat_racine.png,50.0,0.0,mm_hotsprings.png,nat_newhope.png,nat_hanover.png,mm_hotsprings.png,nat_hanover.png,nat_newhope.png,US,66f02f508e8473f0362ed99e,young
3144.0,directmemory_phase,mm_carmel.png,49.0,0.0,nat_hanover.png,nat_boulder.png,nat_peoria.png,nat_peoria.png,nat_boulder.png,nat_hanover.png,US,66f02f508e8473f0362ed99e,young
3906.4,directmemory_phase,nat_racine.png,49.0,1.0,nat_leesburg.png,nat_newhope.png,mm_carmel.png,nat_leesburg.png,mm_carmel.png,nat_newhope.png,US,66f02f508e8473f0362ed99e,young
2099.8,directmemory_phase,nat_boulder.png,49.0,1.0,nat_cornwall.png,mm_huntsville.png,nat_hanover.png,nat_cornwall.png,nat_hanover.png,mm_huntsville.png,US,66f02f508e8473f0362ed99e,young
3135.6,directmemory_phase,mm_huntsville.png,50.0,1.0,nat_shreveport.png,nat_newhope.png,nat_racine.png,nat_newhope.png,nat_shreveport.png,nat_racine.png,US,66f02f508e8473f0362ed99e,young
3635.4,directmemory_phase,nat_racine.png,49.0,0.0,nat_shreveport.png,nat_cornwall.png,nat_boulder.png,nat_boulder.png,nat_cornwall.png,nat_shreveport.png,US,66f02f508e8473f0362ed99e,young
3636.2,directmemory_phase,nat_newhope.png,51.0,0.0,mm_huntsville.png,mm_hotsprings.png,mm_gatlinburg.png,mm_huntsville.png,mm_gatlinburg.png,mm_hotsprings.png,US,66f02f508e8473f0362ed99e,young
2375.9,directmemory_phase,nat_peoria.png,49.0,1.0,nat_boulder.png,mm_gatlinburg.png,mm_hotsprings.png,nat_boulder.png,mm_hotsprings.png,mm_gatlinburg.png,US,66f02f508e8473f0362ed99e,young
3572.2,directmemory_phase,mm_westpalmbeach.png,51.0,0.0,mm_gatlinburg.png,nat_shreveport.png,mm_huntsville.png,nat_shreveport.png,mm_gatlinburg.png,mm_huntsville.png,US,66f02f508e8473f0362ed99e,young
4798.5,directmemory_phase,nat_peoria.png,51.0,1.0,mm_huntsville.png,nat_newhope.png,nat_racine.png,nat_racine.png,nat_newhope.png,mm_huntsville.png,US,66f02f508e8473f0362ed99e,young
2593.9,directmemory_phase,mm_carmel.png,49.0,0.0,mm_hotsprings.png,nat_boulder.png,nat_cornwall.png,nat_cornwall.png,nat_boulder.png,mm_hotsprings.png,US,66f02f508e8473f0362ed99e,young
3272.7,directmemory_phase,nat_hanover.png,51.0,1.0,nat_cornwall.png,nat_racine.png,mm_hotsprings.png,mm_hotsprings.png,nat_racine.png,nat_cornwall.png,US,66f02f508e8473f0362ed99e,young
4420.5,directmemory_phase,nat_cornwall.png,50.0,0.0,nat_leesburg.png,nat_peoria.png,nat_boulder.png,nat_boulder.png,nat_peoria.png,nat_leesburg.png,US,66f02f508e8473f0362ed99e,young
3821.1,directmemory_phase,nat_newhope.png,49.0,1.0,mm_carmel.png,nat_leesburg.png,nat_peoria.png,mm_carmel.png,nat_peoria.png,nat_leesburg.png,US,66f02f508e8473f0362ed99e,young
3116.0,directmemory_phase,nat_boulder.png,51.0,1.0,nat_newhope.png,mm_carmel.png,mm_hotsprings.png,mm_hotsprings.png,mm_carmel.png,nat_newhope.png,US,66f02f508e8473f0362ed99e,young
1303.4,directmemory_phase,nat_racine.png,50.0,1.0,mm_carmel.png,nat_peoria.png,nat_newhope.png,nat_peoria.png,mm_carmel.png,nat_newhope.png,US,66f02f508e8473f0362ed99e,young
3370.5,directmemory_phase,nat_shreveport.png,49.0,0.0,mm_hotsprings.png,mm_huntsville.png,nat_newhope.png,nat_newhope.png,mm_huntsville.png,mm_hotsprings.png,US,66f02f508e8473f0362ed99e,young
5334.3,directmemory_phase,mm_peoria.png,51.0,1.0,nat_newhope.png,mm_hotsprings.png,mm_gatlinburg.png,mm_gatlinburg.png,mm_hotsprings.png,nat_newhope.png,US,6732ca9052a3b5780ec6068a,old
4957.8,directmemory_phase,mm_hanover.png,49.0,1.0,mm_racine.png,nat_leesburg.png,mm_carmel.png,mm_racine.png,mm_carmel.png,nat_leesburg.png,US,6732ca9052a3b5780ec6068a,old
2833.7,directmemory_phase,nat_cornwall.png,51.0,1.0,mm_racine.png,nat_newhope.png,nat_shreveport.png,nat_shreveport.png,nat_newhope.png,mm_racine.png,US,6732ca9052a3b5780ec6068a,old
2854.9,directmemory_phase,mm_huntsville.png,50.0,1.0,nat_leesburg.png,mm_hanover.png,mm_peoria.png,mm_hanover.png,nat_leesburg.png,mm_peoria.png,US,6732ca9052a3b5780ec6068a,old
5129.0,directmemory_phase,mm_racine.png,50.0,1.0,mm_peoria.png,mm_gatlinburg.png,mm_carmel.png,mm_gatlinburg.png,mm_peoria.png,mm_carmel.png,US,6732ca9052a3b5780ec6068a,old
3102.9,directmemory_phase,mm_hotsprings.png,50.0,1.0,mm_peoria.png,nat_newhope.png,mm_carmel.png,nat_newhope.png,mm_peoria.png,mm_carmel.png,US,6732ca9052a3b5780ec6068a,old
2486.7,directmemory_phase,mm_gatlinburg.png,50.0,1.0,nat_westpalmbeach.png,mm_peoria.png,mm_carmel.png,mm_peoria.png,nat_westpalmbeach.png,mm_carmel.png,US,6732ca9052a3b5780ec6068a,old
2349.3,directmemory_phase,nat_shreveport.png,49.0,0.0,nat_westpalmbeach.png,mm_boulder.png,mm_hanover.png,mm_hanover.png,mm_boulder.png,nat_westpalmbeach.png,US,6732ca9052a3b5780ec6068a,old
5078.2,directmemory_phase,mm_hotsprings.png,49.0,0.0,mm_huntsville.png,nat_shreveport.png,mm_gatlinburg.png,mm_gatlinburg.png,nat_shreveport.png,mm_huntsville.png,US,6732ca9052a3b5780ec6068a,old
1958.1,directmemory_phase,mm_hanover.png,50.0,0.0,nat_leesburg.png,mm_hotsprings.png,nat_shreveport.png,nat_shreveport.png,mm_hotsprings.png,nat_leesburg.png,US,6732ca9052a3b5780ec6068a,old
4077.8,directmemory_phase,mm_hotsprings.png,51.0,0.0,mm_peoria.png,mm_racine.png,mm_huntsville.png,mm_racine.png,mm_peoria.png,mm_huntsville.png,US,6732ca9052a3b5780ec6068a,old
3370.5,directmemory_phase,mm_carmel.png,50.0,0.0,nat_leesburg.png,mm_hotsprings.png,mm_boulder.png,nat_leesburg.png,mm_boulder.png,mm_hotsprings.png,US,6732ca9052a3b5780ec6068a,old
3740.3,directmemory_phase,nat_shreveport.png,50.0,1.0,mm_boulder.png,nat_newhope.png,nat_leesburg.png,nat_newhope.png,mm_boulder.png,nat_leesburg.png,US,6732ca9052a3b5780ec6068a,old
2207.0,directmemory_phase,mm_carmel.png,49.0,0.0,mm_hotsprings.png,nat_shreveport.png,mm_huntsville.png,mm_huntsville.png,nat_shreveport.png,mm_hotsprings.png,US,6732ca9052a3b5780ec6068a,old
3015.7,directmemory_phase,nat_newhope.png,49.0,1.0,nat_shreveport.png,nat_leesburg.png,mm_gatlinburg.png,nat_shreveport.png,mm_gatlinburg.png,nat_leesburg.png,US,6732ca9052a3b5780ec6068a,old
3521.3,directmemory_phase,nat_leesburg.png,51.0,1.0,mm_boulder.png,nat_cornwall.png,mm_carmel.png,mm_carmel.png,nat_cornwall.png,mm_boulder.png,US,6732ca9052a3b5780ec6068a,old
2362.0,directmemory_phase,mm_racine.png,50.0,1.0,nat_westpalmbeach.png,mm_hanover.png,mm_carmel.png,mm_hanover.png,nat_westpalmbeach.png,mm_carmel.png,US,6732ca9052a3b5780ec6068a,old
3936.4,directmemory_phase,mm_gatlinburg.png,50.0,0.0,nat_shreveport.png,nat_newhope.png,mm_hotsprings.png,mm_hotsprings.png,nat_newhope.png,nat_shreveport.png,US,6732ca9052a3b5780ec6068a,old
4764.1,directmemory_phase,mm_racine.png,50.0,0.0,mm_carmel.png,mm_huntsville.png,nat_newhope.png,nat_newhope.png,mm_huntsville.png,mm_carmel.png,US,6732ca9052a3b5780ec6068a,old
3636.3,directmemory_phase,mm_hotsprings.png,50.0,1.0,nat_shreveport.png,nat_westpalmbeach.png,mm_boulder.png,nat_westpalmbeach.png,nat_shreveport.png,mm_boulder.png,US,6732ca9052a3b5780ec6068a,old
3440.9,directmemory_phase,mm_gatlinburg.png,49.0,1.0,mm_racine.png,mm_huntsville.png,nat_westpalmbeach.png,mm_racine.png,nat_westpalmbeach.png,mm_huntsville.png,US,6732ca9052a3b5780ec6068a,old
5391.0,directmemory_phase,nat_westpalmbeach.png,50.0,0.0,mm_huntsville.png,mm_gatlinburg.png,mm_hotsprings.png,mm_hotsprings.png,mm_gatlinburg.png,mm_huntsville.png,US,6732ca9052a3b5780ec6068a,old
2901.4,directmemory_phase,nat_cornwall.png,49.0,0.0,mm_hanover.png,mm_boulder.png,mm_racine.png,mm_boulder.png,mm_hanover.png,mm_racine.png,US,6732ca9052a3b5780ec6068a,old
3607.0,directmemory_phase,nat_newhope.png,50.0,0.0,mm_carmel.png,mm_hanover.png,mm_hotsprings.png,mm_hotsprings.png,mm_hanover.png,mm_carmel.png,US,6732ca9052a3b5780ec6068a,old
2898.4,directmemory_phase,mm_carmel.png,51.0,1.0,mm_gatlinburg.png,mm_boulder.png,nat_cornwall.png,nat_cornwall.png,mm_boulder.png,mm_gatlinburg.png,US,6732ca9052a3b5780ec6068a,old
3194.0,directmemory_phase,mm_hanover.png,49.0,0.0,nat_leesburg.png,mm_gatlinburg.png,mm_huntsville.png,mm_huntsville.png,mm_gatlinburg.png,nat_leesburg.png,US,6732ca9052a3b5780ec6068a,old
2309.5,directmemory_phase,nat_cornwall.png,51.0,1.0,mm_hotsprings.png,mm_hanover.png,mm_carmel.png,mm_carmel.png,mm_hanover.png,mm_hotsprings.png,US,6732ca9052a3b5780ec6068a,old
2697.9,directmemory_phase,mm_racine.png,50.0,1.0,nat_westpalmbeach.png,mm_hotsprings.png,mm_carmel.png,mm_hotsprings.png,nat_westpalmbeach.png,mm_carmel.png,US,6732ca9052a3b5780ec6068a,old
4000.8,directmemory_phase,mm_huntsville.png,49.0,1.0,mm_carmel.png,mm_peoria.png,nat_cornwall.png,mm_carmel.png,nat_cornwall.png,mm_peoria.png,US,6732ca9052a3b5780ec6068a,old
4797.9,directmemory_phase,mm_boulder.png,49.0,1.0,nat_cornwall.png,mm_racine.png,nat_shreveport.png,nat_cornwall.png,nat_shreveport.png,mm_racine.png,US,6732ca9052a3b5780ec6068a,old
2649.4,directmemory_phase,nat_newhope.png,49.0,1.0,mm_racine.png,mm_carmel.png,nat_cornwall.png,mm_racine.png,nat_cornwall.png,mm_carmel.png,US,6732ca9052a3b5780ec6068a,old
3807.5,directmemory_phase,nat_shreveport.png,49.0,1.0,nat_cornwall.png,nat_leesburg.png,mm_huntsville.png,nat_cornwall.png,mm_huntsville.png,nat_leesburg.png,US,6732ca9052a3b5780ec6068a,old
3456.6,directmemory_phase,mm_huntsville.png,51.0,1.0,mm_cornwall.png,nat_carmel.png,mm_westpalmbeach.png,mm_westpalmbeach.png,nat_carmel.png,mm_cornwall.png,US,615e420a23219efe3427a367,old
5103.8,directmemory_phase,nat_shreveport.png,50.0,0.0,mm_huntsville.png,mm_hanover.png,mm_cornwall.png,mm_cornwall.png,mm_hanover.png,mm_huntsville.png,US,615e420a23219efe3427a367,old
4259.3,directmemory_phase,mm_hotsprings.png,50.0,0.0,mm_racine.png,mm_cornwall.png,mm_boulder.png,mm_racine.png,mm_boulder.png,mm_cornwall.png,US,615e420a23219efe3427a367,old
3669.9,directmemory_phase,mm_cornwall.png,49.0,1.0,mm_hanover.png,nat_leesburg.png,nat_gatlinburg.png,mm_hanover.png,nat_gatlinburg.png,nat_leesburg.png,US,615e420a23219efe3427a367,old
6027.4,directmemory_phase,mm_racine.png,49.0,0.0,nat_newhope.png,nat_peoria.png,mm_boulder.png,mm_boulder.png,nat_peoria.png,nat_newhope.png,US,615e420a23219efe3427a367,old
3341.0,directmemory_phase,nat_carmel.png,51.0,0.0,mm_huntsville.png,nat_leesburg.png,mm_racine.png,nat_leesburg.png,mm_huntsville.png,mm_racine.png,US,615e420a23219efe3427a367,old
5042.7,directmemory_phase,mm_hotsprings.png,51.0,1.0,nat_peoria.png,mm_westpalmbeach.png,nat_gatlinburg.png,nat_gatlinburg.png,mm_westpalmbeach.png,nat_peoria.png,US,615e420a23219efe3427a367,old
2721.5,directmemory_phase,mm_boulder.png,49.0,0.0,mm_hotsprings.png,nat_peoria.png,nat_leesburg.png,nat_peoria.png,mm_hotsprings.png,nat_leesburg.png,US,615e420a23219efe3427a367,old
,directmemory_phase,nat_gatlinburg.png,,0.0,mm_boulder.png,mm_racine.png,mm_hotsprings.png,mm_hotsprings.png,mm_racine.png,mm_boulder.png,US,615e420a23219efe3427a367,old
2721.3,directmemory_phase,mm_hanover.png,51.0,1.0,mm_westpalmbeach.png,mm_hotsprings.png,mm_cornwall.png,mm_cornwall.png,mm_hotsprings.png,mm_westpalmbeach.png,US,615e420a23219efe3427a367,old
1956.3,directmemory_phase,nat_leesburg.png,49.0,1.0,nat_gatlinburg.png,mm_boulder.png,mm_hanover.png,nat_gatlinburg.png,mm_hanover.png,mm_boulder.png,US,615e420a23219efe3427a367,old
2921.8,directmemory_phase,nat_peoria.png,50.0,0.0,mm_boulder.png,mm_hanover.png,nat_shreveport.png,mm_boulder.png,nat_shreveport.png,mm_hanover.png,US,615e420a23219efe3427a367,old
2781.4,directmemory_phase,nat_shreveport.png,51.0,1.0,mm_hotsprings.png,nat_peoria.png,nat_newhope.png,nat_newhope.png,nat_peoria.png,mm_hotsprings.png,US,615e420a23219efe3427a367,old
2591.6,directmemory_phase,mm_racine.png,49.0,0.0,nat_newhope.png,nat_peoria.png,mm_hotsprings.png,mm_hotsprings.png,nat_peoria.png,nat_newhope.png,US,615e420a23219efe3427a367,old
2649.9,directmemory_phase,mm_cornwall.png,50.0,0.0,mm_westpalmbeach.png,mm_boulder.png,nat_shreveport.png,nat_shreveport.png,mm_boulder.png,mm_westpalmbeach.png,US,615e420a23219efe3427a367,old
2132.6,directmemory_phase,nat_leesburg.png,51.0,0.0,mm_westpalmbeach.png,mm_huntsville.png,nat_shreveport.png,mm_huntsville.png,mm_westpalmbeach.png,nat_shreveport.png,US,615e420a23219efe3427a367,old
2248.2,directmemory_phase,nat_newhope.png,49.0,1.0,nat_shreveport.png,nat_gatlinburg.png,mm_boulder.png,nat_shreveport.png,mm_boulder.png,nat_gatlinburg.png,US,615e420a23219efe3427a367,old
3291.6,directmemory_phase,mm_huntsville.png,50.0,1.0,mm_hanover.png,nat_leesburg.png,nat_peoria.png,nat_leesburg.png,mm_hanover.png,nat_peoria.png,US,615e420a23219efe3427a367,old
3026.7,directmemory_phase,nat_gatlinburg.png,49.0,0.0,nat_shreveport.png,mm_racine.png,mm_hanover.png,mm_hanover.png,mm_racine.png,nat_shreveport.png,US,615e420a23219efe3427a367,old
2356.3,directmemory_phase,mm_huntsville.png,51.0,1.0,nat_peoria.png,mm_hanover.png,mm_hotsprings.png,mm_hotsprings.png,mm_hanover.png,nat_peoria.png,US,615e420a23219efe3427a367,old
3451.5,directmemory_phase,mm_boulder.png,49.0,0.0,nat_newhope.png,nat_shreveport.png,mm_huntsville.png,nat_shreveport.png,nat_newhope.png,mm_huntsville.png,US,615e420a23219efe3427a367,old
2813.8,directmemory_phase,mm_huntsville.png,51.0,1.0,mm_cornwall.png,nat_carmel.png,nat_gatlinburg.png,nat_gatlinburg.png,nat_carmel.png,mm_cornwall.png,US,615e420a23219efe3427a367,old
3151.4,directmemory_phase,nat_shreveport.png,50.0,0.0,mm_boulder.png,nat_leesburg.png,mm_hanover.png,mm_boulder.png,mm_hanover.png,nat_leesburg.png,US,615e420a23219efe3427a367,old
2009.1,directmemory_phase,mm_hotsprings.png,49.0,0.0,nat_peoria.png,nat_leesburg.png,mm_huntsville.png,mm_huntsville.png,nat_leesburg.png,nat_peoria.png,US,615e420a23219efe3427a367,old
1888.2,directmemory_phase,nat_leesburg.png,49.0,1.0,nat_carmel.png,mm_cornwall.png,mm_hotsprings.png,nat_carmel.png,mm_hotsprings.png,mm_cornwall.png,US,615e420a23219efe3427a367,old
2106.0,directmemory_phase,mm_boulder.png,51.0,0.0,mm_racine.png,nat_leesburg.png,mm_hanover.png,mm_racine.png,mm_hanover.png,nat_leesburg.png,US,615e420a23219efe3427a367,old
3667.4,directmemory_phase,nat_gatlinburg.png,51.0,1.0,nat_shreveport.png,mm_racine.png,nat_leesburg.png,nat_leesburg.png,mm_racine.png,nat_shreveport.png,US,615e420a23219efe3427a367,old
1836.4,directmemory_phase,mm_hanover.png,50.0,0.0,nat_carmel.png,mm_boulder.png,mm_racine.png,mm_racine.png,mm_boulder.png,nat_carmel.png,US,615e420a23219efe3427a367,old
2943.4,directmemory_phase,mm_westpalmbeach.png,51.0,1.0,mm_cornwall.png,nat_leesburg.png,mm_huntsville.png,mm_huntsville.png,nat_leesburg.png,mm_cornwall.png,US,615e420a23219efe3427a367,old
2811.9,directmemory_phase,mm_hanover.png,50.0,0.0,mm_westpalmbeach.png,nat_leesburg.png,nat_gatlinburg.png,nat_gatlinburg.png,nat_leesburg.png,mm_westpalmbeach.png,US,615e420a23219efe3427a367,old
,directmemory_phase,,,0.0,,,,,,,US,615e420a23219efe3427a367,old
3468.3,directmemory_phase,,50.0,1.0,,,,,,,US,615e420a23219efe3427a367,old
,directmemory_phase,nat_shreveport.png,,0.0,mm_westpalmbeach.png,nat_carmel.png,mm_peoria.png,mm_westpalmbeach.png,mm_peoria.png,nat_carmel.png,US,682b4aa9f44c4882f1629d8a,young
3400.1,directmemory_phase,mm_leesburg.png,49.0,1.0,nat_gatlinburg.png,mm_westpalmbeach.png,mm_peoria.png,nat_gatlinburg.png,mm_peoria.png,mm_westpalmbeach.png,US,682b4aa9f44c4882f1629d8a,young
1835.8,directmemory_phase,mm_hotsprings.png,49.0,1.0,nat_newhope.png,nat_carmel.png,mm_westpalmbeach.png,nat_newhope.png,mm_westpalmbeach.png,nat_carmel.png,US,682b4aa9f44c4882f1629d8a,young
2023.8,directmemory_phase,nat_boulder.png,50.0,0.0,mm_leesburg.png,nat_racine.png,nat_gatlinburg.png,mm_leesburg.png,nat_gatlinburg.png,nat_racine.png,US,682b4aa9f44c4882f1629d8a,young
2067.2,directmemory_phase,nat_newhope.png,51.0,0.0,mm_peoria.png,mm_hanover.png,nat_gatlinburg.png,mm_peoria.png,nat_gatlinburg.png,mm_hanover.png,US,682b4aa9f44c4882f1629d8a,young
1529.4,directmemory_phase,mm_leesburg.png,51.0,1.0,nat_racine.png,mm_peoria.png,nat_boulder.png,nat_boulder.png,mm_peoria.png,nat_racine.png,US,682b4aa9f44c4882f1629d8a,young
2717.5,directmemory_phase,nat_cornwall.png,50.0,0.0,nat_huntsville.png,mm_hotsprings.png,nat_shreveport.png,nat_shreveport.png,mm_hotsprings.png,nat_huntsville.png,US,682b4aa9f44c4882f1629d8a,young
2574.7,directmemory_phase,nat_newhope.png,49.0,0.0,mm_westpalmbeach.png,mm_leesburg.png,nat_boulder.png,nat_boulder.png,mm_leesburg.png,mm_westpalmbeach.png,US,682b4aa9f44c4882f1629d8a,young
2282.9,directmemory_phase,mm_hotsprings.png,50.0,0.0,nat_shreveport.png,nat_huntsville.png,mm_westpalmbeach.png,nat_shreveport.png,mm_westpalmbeach.png,nat_huntsville.png,US,682b4aa9f44c4882f1629d8a,young
1611.9,directmemory_phase,nat_boulder.png,50.0,1.0,mm_hotsprings.png,nat_carmel.png,mm_westpalmbeach.png,nat_carmel.png,mm_hotsprings.png,mm_westpalmbeach.png,US,682b4aa9f44c4882f1629d8a,young
2874.8,directmemory_phase,mm_peoria.png,49.0,1.0,nat_gatlinburg.png,mm_hanover.png,mm_hotsprings.png,nat_gatlinburg.png,mm_hotsprings.png,mm_hanover.png,US,682b4aa9f44c4882f1629d8a,young
3097.4,directmemory_phase,nat_boulder.png,49.0,0.0,nat_cornwall.png,mm_peoria.png,nat_newhope.png,nat_newhope.png,mm_peoria.png,nat_cornwall.png,US,682b4aa9f44c4882f1629d8a,young
1523.5,directmemory_phase,nat_racine.png,51.0,1.0,nat_carmel.png,nat_gatlinburg.png,mm_peoria.png,mm_peoria.png,nat_gatlinburg.png,nat_carmel.png,US,682b4aa9f44c4882f1629d8a,young
4830.9,directmemory_phase,nat_shreveport.png,49.0,1.0,nat_cornwall.png,nat_carmel.png,nat_huntsville.png,nat_cornwall.png,nat_huntsville.png,nat_carmel.png,US,682b4aa9f44c4882f1629d8a,young
1846.3,directmemory_phase,mm_peoria.png,50.0,0.0,mm_hanover.png,nat_shreveport.png,nat_newhope.png,nat_newhope.png,nat_shreveport.png,mm_hanover.png,US,682b4aa9f44c4882f1629d8a,young
1972.3,directmemory_phase,mm_hanover.png,51.0,1.0,mm_hotsprings.png,nat_gatlinburg.png,mm_leesburg.png,mm_leesburg.png,nat_gatlinburg.png,mm_hotsprings.png,US,682b4aa9f44c4882f1629d8a,young
1802.6,directmemory_phase,nat_gatlinburg.png,51.0,0.0,mm_peoria.png,nat_cornwall.png,nat_boulder.png,mm_peoria.png,nat_boulder.png,nat_cornwall.png,US,682b4aa9f44c4882f1629d8a,young
1599.1,directmemory_phase,mm_leesburg.png,50.0,1.0,mm_peoria.png,mm_hanover.png,mm_westpalmbeach.png,mm_hanover.png,mm_peoria.png,mm_westpalmbeach.png,US,682b4aa9f44c4882f1629d8a,young
3068.7,directmemory_phase,nat_racine.png,50.0,1.0,nat_cornwall.png,mm_westpalmbeach.png,mm_hanover.png,mm_westpalmbeach.png,nat_cornwall.png,mm_hanover.png,US,682b4aa9f44c4882f1629d8a,young
4241.5,directmemory_phase,nat_newhope.png,51.0,0.0,mm_hotsprings.png,mm_hanover.png,nat_gatlinburg.png,mm_hotsprings.png,nat_gatlinburg.png,mm_hanover.png,US,682b4aa9f44c4882f1629d8a,young
1702.4,directmemory_phase,mm_westpalmbeach.png,50.0,1.0,mm_peoria.png,nat_huntsville.png,nat_boulder.png,nat_huntsville.png,mm_peoria.png,nat_boulder.png,US,682b4aa9f44c4882f1629d8a,young
1806.7,directmemory_phase,nat_shreveport.png,49.0,1.0,nat_racine.png,nat_gatlinburg.png,nat_huntsville.png,nat_racine.png,nat_huntsville.png,nat_gatlinburg.png,US,682b4aa9f44c4882f1629d8a,young
1906.2,directmemory_phase,nat_gatlinburg.png,50.0,0.0,nat_huntsville.png,nat_racine.png,mm_leesburg.png,mm_leesburg.png,nat_racine.png,nat_huntsville.png,US,682b4aa9f44c4882f1629d8a,young
3669.6,directmemory_phase,mm_westpalmbeach.png,51.0,1.0,mm_leesburg.png,nat_cornwall.png,nat_racine.png,nat_racine.png,nat_cornwall.png,mm_leesburg.png,US,682b4aa9f44c4882f1629d8a,young
2195.4,directmemory_phase,nat_shreveport.png,49.0,0.0,mm_leesburg.png,nat_newhope.png,mm_hotsprings.png,mm_hotsprings.png,nat_newhope.png,mm_leesburg.png,US,682b4aa9f44c4882f1629d8a,young
4920.7,directmemory_phase,nat_huntsville.png,49.0,0.0,mm_hotsprings.png,nat_racine.png,mm_westpalmbeach.png,mm_westpalmbeach.png,nat_racine.png,mm_hotsprings.png,US,682b4aa9f44c4882f1629d8a,young
2324.9,directmemory_phase,nat_racine.png,51.0,0.0,mm_hotsprings.png,mm_hanover.png,nat_cornwall.png,mm_hotsprings.png,nat_cornwall.png,mm_hanover.png,US,682b4aa9f44c4882f1629d8a,young
2879.0,directmemory_phase,mm_westpalmbeach.png,50.0,0.0,nat_newhope.png,mm_hotsprings.png,nat_shreveport.png,nat_shreveport.png,mm_hotsprings.png,nat_newhope.png,US,682b4aa9f44c4882f1629d8a,young
4327.8,directmemory_phase,mm_hotsprings.png,51.0,0.0,nat_racine.png,mm_leesburg.png,mm_peoria.png,nat_racine.png,mm_peoria.png,mm_leesburg.png,US,682b4aa9f44c4882f1629d8a,young
1805.2,directmemory_phase,nat_carmel.png,51.0,1.0,nat_shreveport.png,nat_newhope.png,nat_boulder.png,nat_boulder.png,nat_newhope.png,nat_shreveport.png,US,682b4aa9f44c4882f1629d8a,young
2448.1,directmemory_phase,mm_peoria.png,51.0,1.0,nat_cornwall.png,mm_leesburg.png,nat_racine.png,nat_racine.png,mm_leesburg.png,nat_cornwall.png,US,682b4aa9f44c4882f1629d8a,young
3497.1,directmemory_phase,,51.0,1.0,,,,,,,US,682b4aa9f44c4882f1629d8a,young
5136.4,directmemory_phase,mm_huntsville.png,51.0,1.0,nat_boulder.png,mm_hotsprings.png,nat_westpalmbeach.png,nat_westpalmbeach.png,mm_hotsprings.png,nat_boulder.png,US,67e1ab7aba45c5e515df8a71,young
,directmemory_phase,nat_peoria.png,,0.0,mm_gatlinburg.png,mm_hotsprings.png,mm_newhope.png,mm_newhope.png,mm_hotsprings.png,mm_gatlinburg.png,US,67e1ab7aba45c5e515df8a71,young
3381.6,directmemory_phase,nat_westpalmbeach.png,49.0,1.0,mm_leesburg.png,nat_peoria.png,mm_carmel.png,mm_leesburg.png,mm_carmel.png,nat_peoria.png,US,67e1ab7aba45c5e515df8a71,young
3662.9,directmemory_phase,nat_peoria.png,51.0,1.0,mm_huntsville.png,nat_racine.png,nat_boulder.png,nat_boulder.png,nat_racine.png,mm_huntsville.png,US,67e1ab7aba45c5e515df8a71,young
3378.4,directmemory_phase,mm_carmel.png,49.0,1.0,mm_leesburg.png,mm_cornwall.png,nat_westpalmbeach.png,mm_leesburg.png,nat_westpalmbeach.png,mm_cornwall.png,US,67e1ab7aba45c5e515df8a71,young
2463.1,directmemory_phase,mm_huntsville.png,51.0,1.0,nat_boulder.png,mm_cornwall.png,nat_hanover.png,nat_hanover.png,mm_cornwall.png,nat_boulder.png,US,67e1ab7aba45c5e515df8a71,young
3444.6,directmemory_phase,mm_cornwall.png,51.0,1.0,nat_boulder.png,mm_leesburg.png,mm_gatlinburg.png,mm_gatlinburg.png,mm_leesburg.png,nat_boulder.png,US,67e1ab7aba45c5e515df8a71,young
2821.3,directmemory_phase,mm_newhope.png,51.0,1.0,mm_huntsville.png,nat_shreveport.png,nat_racine.png,nat_racine.png,nat_shreveport.png,mm_huntsville.png,US,67e1ab7aba45c5e515df8a71,young
3299.7,directmemory_phase,mm_hotsprings.png,49.0,1.0,nat_westpalmbeach.png,mm_cornwall.png,nat_peoria.png,nat_westpalmbeach.png,nat_peoria.png,mm_cornwall.png,US,67e1ab7aba45c5e515df8a71,young
2567.9,directmemory_phase,mm_newhope.png,51.0,1.0,mm_gatlinburg.png,nat_westpalmbeach.png,nat_peoria.png,nat_peoria.png,nat_westpalmbeach.png,mm_gatlinburg.png,US,67e1ab7aba45c5e515df8a71,young
4899.7,directmemory_phase,mm_hotsprings.png,51.0,0.0,mm_carmel.png,nat_hanover.png,mm_huntsville.png,mm_carmel.png,mm_huntsville.png,nat_hanover.png,US,67e1ab7aba45c5e515df8a71,young
5141.1,directmemory_phase,mm_huntsville.png,50.0,0.0,nat_peoria.png,mm_cornwall.png,mm_gatlinburg.png,mm_gatlinburg.png,mm_cornwall.png,nat_peoria.png,US,67e1ab7aba45c5e515df8a71,young
2482.0,directmemory_phase,nat_westpalmbeach.png,51.0,1.0,nat_boulder.png,mm_carmel.png,mm_hotsprings.png,mm_hotsprings.png,mm_carmel.png,nat_boulder.png,US,67e1ab7aba45c5e515df8a71,young
3931.2,directmemory_phase,mm_gatlinburg.png,51.0,1.0,mm_newhope.png,nat_westpalmbeach.png,mm_huntsville.png,mm_huntsville.png,nat_westpalmbeach.png,mm_newhope.png,US,67e1ab7aba45c5e515df8a71,young
3154.9,directmemory_phase,mm_hotsprings.png,50.0,0.0,mm_newhope.png,mm_gatlinburg.png,nat_boulder.png,mm_newhope.png,nat_boulder.png,mm_gatlinburg.png,US,67e1ab7aba45c5e515df8a71,young
5670.3,directmemory_phase,nat_shreveport.png,49.0,0.0,nat_boulder.png,nat_peoria.png,mm_carmel.png,nat_peoria.png,nat_boulder.png,mm_carmel.png,US,67e1ab7aba45c5e515df8a71,young
3585.1,directmemory_phase,nat_westpalmbeach.png,50.0,1.0,mm_carmel.png,mm_huntsville.png,nat_boulder.png,mm_huntsville.png,mm_carmel.png,nat_boulder.png,US,67e1ab7aba45c5e515df8a71,young
,directmemory_phase,nat_boulder.png,,0.0,nat_peoria.png,nat_hanover.png,mm_leesburg.png,nat_peoria.png,mm_leesburg.png,nat_hanover.png,US,67e1ab7aba45c5e515df8a71,young
2517.7,directmemory_phase,mm_carmel.png,49.0,1.0,mm_hotsprings.png,mm_cornwall.png,nat_westpalmbeach.png,mm_hotsprings.png,nat_westpalmbeach.png,mm_cornwall.png,US,67e1ab7aba45c5e515df8a71,young
3497.7,directmemory_phase,mm_leesburg.png,49.0,1.0,mm_huntsville.png,nat_racine.png,nat_hanover.png,mm_huntsville.png,nat_hanover.png,nat_racine.png,US,67e1ab7aba45c5e515df8a71,young
3458.9,directmemory_phase,nat_peoria.png,50.0,1.0,nat_racine.png,nat_shreveport.png,nat_westpalmbeach.png,nat_shreveport.png,nat_racine.png,nat_westpalmbeach.png,US,67e1ab7aba45c5e515df8a71,young
3496.5,directmemory_phase,mm_leesburg.png,51.0,0.0,nat_westpalmbeach.png,nat_racine.png,mm_cornwall.png,nat_westpalmbeach.png,mm_cornwall.png,nat_racine.png,US,67e1ab7aba45c5e515df8a71,young
3270.9,directmemory_phase,nat_boulder.png,49.0,0.0,mm_cornwall.png,nat_shreveport.png,mm_carmel.png,mm_carmel.png,nat_shreveport.png,mm_cornwall.png,US,67e1ab7aba45c5e515df8a71,young
2378.7,directmemory_phase,mm_gatlinburg.png,50.0,0.0,nat_boulder.png,mm_carmel.png,mm_cornwall.png,mm_cornwall.png,mm_carmel.png,nat_boulder.png,US,67e1ab7aba45c5e515df8a71,young
1523.5,directmemory_phase,mm_leesburg.png,51.0,1.0,nat_peoria.png,mm_hotsprings.png,mm_carmel.png,mm_carmel.png,mm_hotsprings.png,nat_peoria.png,US,67e1ab7aba45c5e515df8a71,young
4350.8,directmemory_phase,mm_newhope.png,49.0,1.0,mm_hotsprings.png,mm_huntsville.png,nat_shreveport.png,mm_hotsprings.png,nat_shreveport.png,mm_huntsville.png,US,67e1ab7aba45c5e515df8a71,young
4334.7,directmemory_phase,mm_huntsville.png,50.0,0.0,mm_leesburg.png,nat_boulder.png,mm_hotsprings.png,mm_leesburg.png,mm_hotsprings.png,nat_boulder.png,US,67e1ab7aba45c5e515df8a71,young
3869.1,directmemory_phase,mm_carmel.png,51.0,0.0,nat_boulder.png,nat_racine.png,nat_westpalmbeach.png,nat_boulder.png,nat_westpalmbeach.png,nat_racine.png,US,67e1ab7aba45c5e515df8a71,young
2833.9,directmemory_phase,mm_gatlinburg.png,51.0,1.0,mm_hotsprings.png,nat_westpalmbeach.png,mm_leesburg.png,mm_leesburg.png,nat_westpalmbeach.png,mm_hotsprings.png,US,67e1ab7aba45c5e515df8a71,young
2911.1,directmemory_phase,nat_hanover.png,49.0,1.0,mm_huntsville.png,mm_cornwall.png,nat_westpalmbeach.png,mm_huntsville.png,nat_westpalmbeach.png,mm_cornwall.png,US,67e1ab7aba45c5e515df8a71,young
2670.3,directmemory_phase,mm_leesburg.png,50.0,1.0,nat_hanover.png,mm_gatlinburg.png,mm_newhope.png,mm_gatlinburg.png,nat_hanover.png,mm_newhope.png,US,67e1ab7aba45c5e515df8a71,young
1390.4,directmemory_phase,nat_racine.png,51.0,1.0,nat_boulder.png,nat_peoria.png,mm_newhope.png,mm_newhope.png,nat_peoria.png,nat_boulder.png,US,67e1ab7aba45c5e515df8a71,young
4427.2,directmemory_phase,nat_cornwall.png,51.0,1.0,nat_westpalmbeach.png,nat_carmel.png,nat_shreveport.png,nat_shreveport.png,nat_carmel.png,nat_westpalmbeach.png,US,628f7e982aad1788d940317a,old
4522.0,directmemory_phase,nat_huntsville.png,50.0,1.0,nat_racine.png,mm_leesburg.png,nat_gatlinburg.png,mm_leesburg.png,nat_racine.png,nat_gatlinburg.png,US,628f7e982aad1788d940317a,old
5659.5,directmemory_phase,nat_carmel.png,50.0,0.0,nat_newhope.png,nat_huntsville.png,nat_shreveport.png,nat_shreveport.png,nat_huntsville.png,nat_newhope.png,US,628f7e982aad1788d940317a,old
3374.2,directmemory_phase,nat_huntsville.png,49.0,0.0,mm_hanover.png,nat_carmel.png,nat_newhope.png,nat_newhope.png,nat_carmel.png,mm_hanover.png,US,628f7e982aad1788d940317a,old
5642.6,directmemory_phase,nat_carmel.png,50.0,0.0,nat_peoria.png,nat_westpalmbeach.png,mm_hanover.png,mm_hanover.png,nat_westpalmbeach.png,nat_peoria.png,US,628f7e982aad1788d940317a,old
3286.8,directmemory_phase,nat_shreveport.png,49.0,0.0,nat_gatlinburg.png,mm_hanover.png,nat_huntsville.png,nat_huntsville.png,mm_hanover.png,nat_gatlinburg.png,US,628f7e982aad1788d940317a,old
4368.4,directmemory_phase,mm_hanover.png,51.0,1.0,nat_newhope.png,nat_boulder.png,nat_carmel.png,nat_carmel.png,nat_boulder.png,nat_newhope.png,US,628f7e982aad1788d940317a,old
2855.8,directmemory_phase,mm_hotsprings.png,51.0,1.0,nat_carmel.png,nat_racine.png,nat_gatlinburg.png,nat_gatlinburg.png,nat_racine.png,nat_carmel.png,US,628f7e982aad1788d940317a,old
3543.1,directmemory_phase,nat_westpalmbeach.png,49.0,0.0,nat_shreveport.png,mm_hotsprings.png,nat_boulder.png,nat_boulder.png,mm_hotsprings.png,nat_shreveport.png,US,628f7e982aad1788d940317a,old
3900.6,directmemory_phase,mm_leesburg.png,50.0,0.0,nat_boulder.png,nat_gatlinburg.png,nat_huntsville.png,nat_huntsville.png,nat_gatlinburg.png,nat_boulder.png,US,628f7e982aad1788d940317a,old
2660.7,directmemory_phase,mm_hanover.png,51.0,0.0,nat_westpalmbeach.png,nat_peoria.png,nat_shreveport.png,nat_westpalmbeach.png,nat_shreveport.png,nat_peoria.png,US,628f7e982aad1788d940317a,old
1998.8,directmemory_phase,nat_peoria.png,49.0,1.0,nat_cornwall.png,mm_hanover.png,nat_huntsville.png,nat_cornwall.png,nat_huntsville.png,mm_hanover.png,US,628f7e982aad1788d940317a,old
3509.4,directmemory_phase,nat_shreveport.png,49.0,0.0,mm_hotsprings.png,mm_hanover.png,mm_leesburg.png,mm_leesburg.png,mm_hanover.png,mm_hotsprings.png,US,628f7e982aad1788d940317a,old
4743.3,directmemory_phase,nat_carmel.png,51.0,0.0,mm_leesburg.png,nat_racine.png,mm_hotsprings.png,nat_racine.png,mm_leesburg.png,mm_hotsprings.png,US,628f7e982aad1788d940317a,old
2633.5,directmemory_phase,nat_cornwall.png,50.0,1.0,nat_carmel.png,nat_huntsville.png,nat_racine.png,nat_huntsville.png,nat_carmel.png,nat_racine.png,US,628f7e982aad1788d940317a,old
3173.1,directmemory_phase,nat_westpalmbeach.png,51.0,1.0,nat_cornwall.png,nat_racine.png,mm_hanover.png,mm_hanover.png,nat_racine.png,nat_cornwall.png,US,628f7e982aad1788d940317a,old
3165.7,directmemory_phase,nat_huntsville.png,50.0,0.0,mm_hanover.png,nat_carmel.png,nat_cornwall.png,nat_cornwall.png,nat_carmel.png,mm_hanover.png,US,628f7e982aad1788d940317a,old
2052.9,directmemory_phase,nat_westpalmbeach.png,50.0,1.0,mm_hotsprings.png,nat_gatlinburg.png,nat_huntsville.png,nat_gatlinburg.png,mm_hotsprings.png,nat_huntsville.png,US,628f7e982aad1788d940317a,old
2831.2,directmemory_phase,nat_racine.png,49.0,0.0,nat_peoria.png,nat_huntsville.png,nat_carmel.png,nat_carmel.png,nat_huntsville.png,nat_peoria.png,US,628f7e982aad1788d940317a,old
2224.0,directmemory_phase,nat_huntsville.png,49.0,0.0,nat_westpalmbeach.png,nat_carmel.png,nat_shreveport.png,nat_shreveport.png,nat_carmel.png,nat_westpalmbeach.png,US,628f7e982aad1788d940317a,old
2967.9,directmemory_phase,nat_gatlinburg.png,51.0,0.0,nat_carmel.png,nat_westpalmbeach.png,nat_shreveport.png,nat_westpalmbeach.png,nat_carmel.png,nat_shreveport.png,US,628f7e982aad1788d940317a,old
2498.0,directmemory_phase,mm_leesburg.png,50.0,0.0,nat_racine.png,mm_hotsprings.png,nat_gatlinburg.png,nat_racine.png,nat_gatlinburg.png,mm_hotsprings.png,US,628f7e982aad1788d940317a,old
2891.4,directmemory_phase,nat_gatlinburg.png,50.0,1.0,nat_carmel.png,mm_hotsprings.png,nat_newhope.png,mm_hotsprings.png,nat_carmel.png,nat_newhope.png,US,628f7e982aad1788d940317a,old
4818.5,directmemory_phase,nat_shreveport.png,51.0,1.0,mm_hotsprings.png,nat_peoria.png,nat_carmel.png,nat_carmel.png,nat_peoria.png,mm_hotsprings.png,US,628f7e982aad1788d940317a,old
4363.9,directmemory_phase,nat_boulder.png,50.0,0.0,nat_westpalmbeach.png,mm_hotsprings.png,mm_hanover.png,nat_westpalmbeach.png,mm_hanover.png,mm_hotsprings.png,US,628f7e982aad1788d940317a,old
3927.6,directmemory_phase,mm_leesburg.png,51.0,1.0,nat_peoria.png,nat_carmel.png,nat_shreveport.png,nat_shreveport.png,nat_carmel.png,nat_peoria.png,US,628f7e982aad1788d940317a,old
3811.3,directmemory_phase,nat_cornwall.png,49.0,1.0,nat_peoria.png,nat_racine.png,mm_leesburg.png,nat_peoria.png,mm_leesburg.png,nat_racine.png,US,628f7e982aad1788d940317a,old
2305.7,directmemory_phase,nat_newhope.png,51.0,1.0,nat_carmel.png,nat_cornwall.png,nat_huntsville.png,nat_huntsville.png,nat_cornwall.png,nat_carmel.png,US,628f7e982aad1788d940317a,old
4329.9,directmemory_phase,nat_shreveport.png,49.0,0.0,nat_gatlinburg.png,nat_newhope.png,nat_cornwall.png,nat_cornwall.png,nat_newhope.png,nat_gatlinburg.png,US,628f7e982aad1788d940317a,old
3911.8,directmemory_phase,nat_gatlinburg.png,51.0,0.0,nat_racine.png,nat_newhope.png,mm_hanover.png,nat_racine.png,mm_hanover.png,nat_newhope.png,US,628f7e982aad1788d940317a,old
2933.4,directmemory_phase,,50.0,1.0,,,,,,,US,628f7e982aad1788d940317a,old
4668.8,directmemory_phase,,51.0,1.0,,,,,,,US,628f7e982aad1788d940317a,old
2979.7,directmemory_phase,nat_leesburg.png,49.0,0.0,mm_racine.png,nat_peoria.png,mm_boulder.png,mm_boulder.png,nat_peoria.png,mm_racine.png,US,5cba50bf114fa5001aac5570,old
2127.5,directmemory_phase,mm_carmel.png,49.0,0.0,mm_huntsville.png,nat_hotsprings.png,mm_racine.png,mm_racine.png,nat_hotsprings.png,mm_huntsville.png,US,5cba50bf114fa5001aac5570,old
2318.3,directmemory_phase,nat_gatlinburg.png,49.0,0.0,mm_boulder.png,mm_westpalmbeach.png,nat_leesburg.png,mm_westpalmbeach.png,mm_boulder.png,nat_leesburg.png,US,5cba50bf114fa5001aac5570,old
2288.6,directmemory_phase,mm_boulder.png,50.0,0.0,mm_carmel.png,nat_gatlinburg.png,nat_leesburg.png,nat_leesburg.png,nat_gatlinburg.png,mm_carmel.png,US,5cba50bf114fa5001aac5570,old
2526.7,directmemory_phase,mm_racine.png,49.0,0.0,nat_hanover.png,mm_westpalmbeach.png,nat_gatlinburg.png,nat_gatlinburg.png,mm_westpalmbeach.png,nat_hanover.png,US,5cba50bf114fa5001aac5570,old
1939.4,directmemory_phase,mm_boulder.png,51.0,0.0,mm_westpalmbeach.png,mm_racine.png,nat_peoria.png,mm_westpalmbeach.png,nat_peoria.png,mm_racine.png,US,5cba50bf114fa5001aac5570,old
1736.9,directmemory_phase,nat_gatlinburg.png,49.0,1.0,mm_racine.png,nat_shreveport.png,nat_peoria.png,mm_racine.png,nat_peoria.png,nat_shreveport.png,US,5cba50bf114fa5001aac5570,old
1761.6,directmemory_phase,nat_hanover.png,50.0,1.0,mm_westpalmbeach.png,nat_leesburg.png,nat_newhope.png,nat_leesburg.png,mm_westpalmbeach.png,nat_newhope.png,US,5cba50bf114fa5001aac5570,old
1913.1,directmemory_phase,mm_racine.png,50.0,1.0,mm_westpalmbeach.png,mm_carmel.png,nat_leesburg.png,mm_carmel.png,mm_westpalmbeach.png,nat_leesburg.png,US,5cba50bf114fa5001aac5570,old
1367.2,directmemory_phase,mm_westpalmbeach.png,50.0,0.0,nat_gatlinburg.png,mm_huntsville.png,nat_hotsprings.png,nat_gatlinburg.png,nat_hotsprings.png,mm_huntsville.png,US,5cba50bf114fa5001aac5570,old
1072.8,directmemory_phase,nat_newhope.png,49.0,1.0,nat_hotsprings.png,nat_peoria.png,mm_westpalmbeach.png,nat_hotsprings.png,mm_westpalmbeach.png,nat_peoria.png,US,5cba50bf114fa5001aac5570,old
1888.7,directmemory_phase,nat_peoria.png,51.0,0.0,mm_westpalmbeach.png,nat_hotsprings.png,nat_gatlinburg.png,mm_westpalmbeach.png,nat_gatlinburg.png,nat_hotsprings.png,US,5cba50bf114fa5001aac5570,old
1396.1,directmemory_phase,nat_hotsprings.png,49.0,0.0,nat_leesburg.png,mm_boulder.png,mm_huntsville.png,mm_huntsville.png,mm_boulder.png,nat_leesburg.png,US,5cba50bf114fa5001aac5570,old
1309.0,directmemory_phase,nat_newhope.png,49.0,1.0,mm_boulder.png,mm_carmel.png,mm_huntsville.png,mm_boulder.png,mm_huntsville.png,mm_carmel.png,US,5cba50bf114fa5001aac5570,old
1832.1,directmemory_phase,mm_cornwall.png,50.0,0.0,nat_newhope.png,nat_leesburg.png,nat_hanover.png,nat_hanover.png,nat_leesburg.png,nat_newhope.png,US,5cba50bf114fa5001aac5570,old
1530.7,directmemory_phase,nat_hotsprings.png,51.0,0.0,nat_gatlinburg.png,nat_leesburg.png,mm_carmel.png,nat_gatlinburg.png,mm_carmel.png,nat_leesburg.png,US,5cba50bf114fa5001aac5570,old
1739.5,directmemory_phase,nat_hanover.png,50.0,0.0,nat_hotsprings.png,nat_shreveport.png,nat_peoria.png,nat_peoria.png,nat_shreveport.png,nat_hotsprings.png,US,5cba50bf114fa5001aac5570,old
1829.6,directmemory_phase,mm_westpalmbeach.png,50.0,0.0,nat_shreveport.png,nat_hanover.png,mm_boulder.png,mm_boulder.png,nat_hanover.png,nat_shreveport.png,US,5cba50bf114fa5001aac5570,old
2058.8,directmemory_phase,nat_peoria.png,49.0,0.0,nat_gatlinburg.png,nat_hanover.png,mm_huntsville.png,nat_hanover.png,nat_gatlinburg.png,mm_huntsville.png,US,5cba50bf114fa5001aac5570,old
1228.9,directmemory_phase,nat_gatlinburg.png,49.0,0.0,nat_leesburg.png,mm_boulder.png,nat_newhope.png,nat_newhope.png,mm_boulder.png,nat_leesburg.png,US,5cba50bf114fa5001aac5570,old
1781.8,directmemory_phase,mm_racine.png,51.0,0.0,nat_hotsprings.png,nat_hanover.png,mm_westpalmbeach.png,nat_hotsprings.png,mm_westpalmbeach.png,nat_hanover.png,US,5cba50bf114fa5001aac5570,old
1941.7,directmemory_phase,mm_westpalmbeach.png,49.0,0.0,nat_shreveport.png,nat_hotsprings.png,nat_peoria.png,nat_peoria.png,nat_hotsprings.png,nat_shreveport.png,US,5cba50bf114fa5001aac5570,old
1696.2,directmemory_phase,nat_hanover.png,49.0,0.0,mm_westpalmbeach.png,mm_cornwall.png,mm_racine.png,mm_cornwall.png,mm_westpalmbeach.png,mm_racine.png,US,5cba50bf114fa5001aac5570,old
1409.5,directmemory_phase,nat_shreveport.png,51.0,1.0,nat_newhope.png,nat_hanover.png,nat_leesburg.png,nat_leesburg.png,nat_hanover.png,nat_newhope.png,US,5cba50bf114fa5001aac5570,old
1756.2,directmemory_phase,nat_gatlinburg.png,51.0,1.0,nat_shreveport.png,mm_carmel.png,nat_hotsprings.png,nat_hotsprings.png,mm_carmel.png,nat_shreveport.png,US,5cba50bf114fa5001aac5570,old
1265.9,directmemory_phase,nat_leesburg.png,50.0,0.0,nat_shreveport.png,nat_hotsprings.png,mm_westpalmbeach.png,nat_shreveport.png,mm_westpalmbeach.png,nat_hotsprings.png,US,5cba50bf114fa5001aac5570,old
1091.5,directmemory_phase,nat_newhope.png,49.0,0.0,nat_shreveport.png,mm_westpalmbeach.png,nat_gatlinburg.png,nat_gatlinburg.png,mm_westpalmbeach.png,nat_shreveport.png,US,5cba50bf114fa5001aac5570,old
920.1999999,directmemory_phase,mm_huntsville.png,51.0,0.0,nat_hotsprings.png,mm_boulder.png,mm_racine.png,nat_hotsprings.png,mm_racine.png,mm_boulder.png,US,5cba50bf114fa5001aac5570,old
1127.2,directmemory_phase,mm_boulder.png,50.0,0.0,nat_newhope.png,mm_racine.png,nat_hanover.png,nat_newhope.png,nat_hanover.png,mm_racine.png,US,5cba50bf114fa5001aac5570,old
952.1,directmemory_phase,nat_leesburg.png,51.0,1.0,mm_racine.png,nat_peoria.png,nat_hanover.png,nat_hanover.png,nat_peoria.png,mm_racine.png,US,5cba50bf114fa5001aac5570,old
860.5,directmemory_phase,nat_hotsprings.png,51.0,0.0,nat_newhope.png,nat_shreveport.png,mm_boulder.png,nat_newhope.png,mm_boulder.png,nat_shreveport.png,US,5cba50bf114fa5001aac5570,old
2639.2,directmemory_phase,,49.0,1.0,,,,,,,US,5cba50bf114fa5001aac5570,old
4483.4,directmemory_phase,mm_peoria.png,51.0,1.0,mm_gatlinburg.png,mm_carmel.png,nat_leesburg.png,nat_leesburg.png,mm_carmel.png,mm_gatlinburg.png,US,6657584ca6e3645f4a99e753,young
1898.4,directmemory_phase,nat_huntsville.png,49.0,1.0,nat_shreveport.png,mm_newhope.png,mm_hotsprings.png,nat_shreveport.png,mm_hotsprings.png,mm_newhope.png,US,6657584ca6e3645f4a99e753,young
2249.7,directmemory_phase,mm_carmel.png,50.0,0.0,nat_racine.png,nat_hanover.png,nat_westpalmbeach.png,nat_racine.png,nat_westpalmbeach.png,nat_hanover.png,US,6657584ca6e3645f4a99e753,young
2986.8,directmemory_phase,nat_westpalmbeach.png,49.0,0.0,nat_leesburg.png,nat_hanover.png,mm_boulder.png,mm_boulder.png,nat_hanover.png,nat_leesburg.png,US,6657584ca6e3645f4a99e753,young
2285.8,directmemory_phase,nat_leesburg.png,50.0,0.0,nat_cornwall.png,mm_boulder.png,nat_huntsville.png,nat_cornwall.png,nat_huntsville.png,mm_boulder.png,US,6657584ca6e3645f4a99e753,young
2408.7,directmemory_phase,nat_westpalmbeach.png,50.0,0.0,nat_huntsville.png,nat_leesburg.png,nat_hanover.png,nat_huntsville.png,nat_hanover.png,nat_leesburg.png,US,6657584ca6e3645f4a99e753,young
3054.5,directmemory_phase,nat_racine.png,49.0,0.0,nat_huntsville.png,mm_carmel.png,mm_hotsprings.png,mm_carmel.png,nat_huntsville.png,mm_hotsprings.png,US,6657584ca6e3645f4a99e753,young
2726.3,directmemory_phase,mm_boulder.png,49.0,1.0,nat_westpalmbeach.png,mm_peoria.png,nat_huntsville.png,nat_westpalmbeach.png,nat_huntsville.png,mm_peoria.png,US,6657584ca6e3645f4a99e753,young
2854.9,directmemory_phase,nat_shreveport.png,50.0,0.0,nat_huntsville.png,nat_cornwall.png,nat_westpalmbeach.png,nat_huntsville.png,nat_westpalmbeach.png,nat_cornwall.png,US,6657584ca6e3645f4a99e753,young
2585.2,directmemory_phase,mm_newhope.png,50.0,0.0,nat_shreveport.png,mm_hotsprings.png,nat_hanover.png,nat_hanover.png,mm_hotsprings.png,nat_shreveport.png,US,6657584ca6e3645f4a99e753,young
3054.9,directmemory_phase,mm_hotsprings.png,50.0,0.0,nat_racine.png,mm_newhope.png,nat_shreveport.png,nat_shreveport.png,mm_newhope.png,nat_racine.png,US,6657584ca6e3645f4a99e753,young
2473.3,directmemory_phase,nat_huntsville.png,50.0,0.0,mm_newhope.png,mm_boulder.png,mm_carmel.png,mm_carmel.png,mm_boulder.png,mm_newhope.png,US,6657584ca6e3645f4a99e753,young
1784.0,directmemory_phase,mm_hotsprings.png,51.0,1.0,nat_racine.png,mm_gatlinburg.png,nat_hanover.png,nat_hanover.png,mm_gatlinburg.png,nat_racine.png,US,6657584ca6e3645f4a99e753,young
1539.9,directmemory_phase,mm_boulder.png,49.0,0.0,nat_racine.png,nat_shreveport.png,mm_gatlinburg.png,mm_gatlinburg.png,nat_shreveport.png,nat_racine.png,US,6657584ca6e3645f4a99e753,young
2186.2,directmemory_phase,nat_hanover.png,50.0,1.0,mm_gatlinburg.png,mm_hotsprings.png,mm_carmel.png,mm_hotsprings.png,mm_gatlinburg.png,mm_carmel.png,US,6657584ca6e3645f4a99e753,young
2029.0,directmemory_phase,nat_leesburg.png,51.0,1.0,nat_westpalmbeach.png,nat_shreveport.png,mm_carmel.png,mm_carmel.png,nat_shreveport.png,nat_westpalmbeach.png,US,6657584ca6e3645f4a99e753,young
2626.9,directmemory_phase,mm_hotsprings.png,51.0,1.0,nat_cornwall.png,mm_peoria.png,mm_boulder.png,mm_boulder.png,mm_peoria.png,nat_cornwall.png,US,6657584ca6e3645f4a99e753,young
2893.1,directmemory_phase,nat_huntsville.png,49.0,1.0,nat_westpalmbeach.png,mm_newhope.png,mm_peoria.png,nat_westpalmbeach.png,mm_peoria.png,mm_newhope.png,US,6657584ca6e3645f4a99e753,young
2107.3,directmemory_phase,mm_boulder.png,50.0,0.0,nat_hanover.png,mm_peoria.png,nat_huntsville.png,nat_hanover.png,nat_huntsville.png,mm_peoria.png,US,6657584ca6e3645f4a99e753,young
2603.9,directmemory_phase,mm_carmel.png,51.0,0.0,nat_leesburg.png,mm_hotsprings.png,nat_westpalmbeach.png,nat_leesburg.png,nat_westpalmbeach.png,mm_hotsprings.png,US,6657584ca6e3645f4a99e753,young
3070.6,directmemory_phase,nat_westpalmbeach.png,51.0,0.0,mm_carmel.png,mm_hotsprings.png,mm_newhope.png,mm_hotsprings.png,mm_carmel.png,mm_newhope.png,US,6657584ca6e3645f4a99e753,young
2240.8,directmemory_phase,nat_cornwall.png,49.0,0.0,nat_huntsville.png,mm_peoria.png,nat_leesburg.png,nat_leesburg.png,mm_peoria.png,nat_huntsville.png,US,6657584ca6e3645f4a99e753,young
1834.0,directmemory_phase,mm_peoria.png,50.0,1.0,nat_huntsville.png,nat_shreveport.png,mm_boulder.png,nat_shreveport.png,nat_huntsville.png,mm_boulder.png,US,6657584ca6e3645f4a99e753,young
2265.9,directmemory_phase,nat_hanover.png,49.0,0.0,nat_leesburg.png,nat_shreveport.png,mm_newhope.png,mm_newhope.png,nat_shreveport.png,nat_leesburg.png,US,6657584ca6e3645f4a99e753,young
3089.0,directmemory_phase,nat_shreveport.png,51.0,0.0,mm_hotsprings.png,nat_cornwall.png,nat_westpalmbeach.png,mm_hotsprings.png,nat_westpalmbeach.png,nat_cornwall.png,US,6657584ca6e3645f4a99e753,young
2440.5,directmemory_phase,mm_carmel.png,49.0,0.0,mm_boulder.png,nat_shreveport.png,nat_huntsville.png,nat_huntsville.png,nat_shreveport.png,mm_boulder.png,US,6657584ca6e3645f4a99e753,young
2831.9,directmemory_phase,mm_gatlinburg.png,50.0,0.0,nat_shreveport.png,nat_hanover.png,mm_boulder.png,mm_boulder.png,nat_hanover.png,nat_shreveport.png,US,6657584ca6e3645f4a99e753,young
2088.5,directmemory_phase,nat_leesburg.png,51.0,0.0,mm_peoria.png,nat_westpalmbeach.png,nat_racine.png,mm_peoria.png,nat_racine.png,nat_westpalmbeach.png,US,6657584ca6e3645f4a99e753,young
2226.5,directmemory_phase,mm_boulder.png,50.0,0.0,mm_carmel.png,nat_huntsville.png,mm_hotsprings.png,mm_hotsprings.png,nat_huntsville.png,mm_carmel.png,US,6657584ca6e3645f4a99e753,young
1473.8,directmemory_phase,nat_shreveport.png,51.0,0.0,nat_westpalmbeach.png,mm_peoria.png,mm_newhope.png,mm_peoria.png,nat_westpalmbeach.png,mm_newhope.png,US,6657584ca6e3645f4a99e753,young
2068.2,directmemory_phase,mm_hotsprings.png,50.0,0.0,nat_westpalmbeach.png,nat_leesburg.png,mm_gatlinburg.png,nat_westpalmbeach.png,mm_gatlinburg.png,nat_leesburg.png,US,6657584ca6e3645f4a99e753,young
2296.6,directmemory_phase,nat_hanover.png,50.0,0.0,nat_leesburg.png,nat_westpalmbeach.png,mm_boulder.png,mm_boulder.png,nat_westpalmbeach.png,nat_leesburg.png,US,6657584ca6e3645f4a99e753,young
5302.2,directmemory_phase,mm_hotsprings.png,49.0,1.0,mm_carmel.png,mm_boulder.png,mm_shreveport.png,mm_carmel.png,mm_shreveport.png,mm_boulder.png,US,6826aa7ffe3641d3eba2c4bd,young
4895.1,directmemory_phase,nat_huntsville.png,51.0,0.0,nat_leesburg.png,nat_cornwall.png,nat_peoria.png,nat_cornwall.png,nat_leesburg.png,nat_peoria.png,US,6826aa7ffe3641d3eba2c4bd,young
3312.6,directmemory_phase,mm_carmel.png,50.0,1.0,nat_newhope.png,mm_westpalmbeach.png,nat_gatlinburg.png,mm_westpalmbeach.png,nat_newhope.png,nat_gatlinburg.png,US,6826aa7ffe3641d3eba2c4bd,young
6218.5,directmemory_phase,nat_cornwall.png,49.0,0.0,mm_carmel.png,nat_gatlinburg.png,nat_racine.png,nat_racine.png,nat_gatlinburg.png,mm_carmel.png,US,6826aa7ffe3641d3eba2c4bd,young
4096.7,directmemory_phase,mm_westpalmbeach.png,51.0,0.0,mm_carmel.png,nat_huntsville.png,mm_hotsprings.png,mm_carmel.png,mm_hotsprings.png,nat_huntsville.png,US,6826aa7ffe3641d3eba2c4bd,young
6230.8,directmemory_phase,nat_gatlinburg.png,51.0,1.0,nat_huntsville.png,nat_newhope.png,nat_leesburg.png,nat_leesburg.png,nat_newhope.png,nat_huntsville.png,US,6826aa7ffe3641d3eba2c4bd,young
5363.3,directmemory_phase,mm_hotsprings.png,51.0,1.0,nat_gatlinburg.png,nat_leesburg.png,nat_racine.png,nat_racine.png,nat_leesburg.png,nat_gatlinburg.png,US,6826aa7ffe3641d3eba2c4bd,young
3163.6,directmemory_phase,nat_peoria.png,50.0,1.0,nat_racine.png,mm_carmel.png,nat_huntsville.png,mm_carmel.png,nat_racine.png,nat_huntsville.png,US,6826aa7ffe3641d3eba2c4bd,young
3419.7,directmemory_phase,nat_racine.png,49.0,0.0,mm_carmel.png,mm_westpalmbeach.png,mm_boulder.png,mm_westpalmbeach.png,mm_carmel.png,mm_boulder.png,US,6826aa7ffe3641d3eba2c4bd,young
3957.6,directmemory_phase,nat_cornwall.png,51.0,1.0,mm_hanover.png,mm_hotsprings.png,nat_leesburg.png,nat_leesburg.png,mm_hotsprings.png,mm_hanover.png,US,6826aa7ffe3641d3eba2c4bd,young
4172.4,directmemory_phase,mm_westpalmbeach.png,51.0,1.0,nat_gatlinburg.png,nat_cornwall.png,nat_peoria.png,nat_peoria.png,nat_cornwall.png,nat_gatlinburg.png,US,6826aa7ffe3641d3eba2c4bd,young
2452.2,directmemory_phase,nat_racine.png,49.0,1.0,nat_cornwall.png,nat_gatlinburg.png,nat_newhope.png,nat_cornwall.png,nat_newhope.png,nat_gatlinburg.png,US,6826aa7ffe3641d3eba2c4bd,young
3244.9,directmemory_phase,mm_shreveport.png,51.0,0.0,mm_hanover.png,mm_carmel.png,nat_racine.png,mm_carmel.png,mm_hanover.png,nat_racine.png,US,6826aa7ffe3641d3eba2c4bd,young
2085.4,directmemory_phase,nat_cornwall.png,50.0,0.0,nat_huntsville.png,mm_carmel.png,nat_newhope.png,nat_huntsville.png,nat_newhope.png,mm_carmel.png,US,6826aa7ffe3641d3eba2c4bd,young
4461.7,directmemory_phase,mm_westpalmbeach.png,51.0,1.0,nat_leesburg.png,mm_hanover.png,nat_racine.png,nat_racine.png,mm_hanover.png,nat_leesburg.png,US,6826aa7ffe3641d3eba2c4bd,young
5233.2,directmemory_phase,mm_hanover.png,51.0,0.0,mm_carmel.png,nat_peoria.png,mm_hotsprings.png,nat_peoria.png,mm_carmel.png,mm_hotsprings.png,US,6826aa7ffe3641d3eba2c4bd,young
3199.0,directmemory_phase,nat_racine.png,50.0,0.0,mm_hotsprings.png,mm_shreveport.png,nat_leesburg.png,mm_hotsprings.png,nat_leesburg.png,mm_shreveport.png,US,6826aa7ffe3641d3eba2c4bd,young
2907.1,directmemory_phase,nat_leesburg.png,50.0,0.0,nat_newhope.png,mm_westpalmbeach.png,nat_huntsville.png,nat_newhope.png,nat_huntsville.png,mm_westpalmbeach.png,US,6826aa7ffe3641d3eba2c4bd,young
2562.6,directmemory_phase,nat_peoria.png,49.0,1.0,mm_westpalmbeach.png,nat_leesburg.png,mm_boulder.png,mm_westpalmbeach.png,mm_boulder.png,nat_leesburg.png,US,6826aa7ffe3641d3eba2c4bd,young
4389.8,directmemory_phase,nat_leesburg.png,50.0,1.0,nat_racine.png,nat_cornwall.png,nat_peoria.png,nat_cornwall.png,nat_racine.png,nat_peoria.png,US,6826aa7ffe3641d3eba2c4bd,young
4632.0,directmemory_phase,mm_hotsprings.png,51.0,0.0,mm_shreveport.png,nat_newhope.png,mm_hanover.png,nat_newhope.png,mm_shreveport.png,mm_hanover.png,US,6826aa7ffe3641d3eba2c4bd,young
,directmemory_phase,mm_shreveport.png,,0.0,mm_hanover.png,nat_peoria.png,nat_cornwall.png,nat_peoria.png,mm_hanover.png,nat_cornwall.png,US,6826aa7ffe3641d3eba2c4bd,young
0.299999952,directmemory_phase,nat_newhope.png,50.0,0.0,mm_shreveport.png,nat_racine.png,mm_hotsprings.png,mm_hotsprings.png,nat_racine.png,mm_shreveport.png,US,6826aa7ffe3641d3eba2c4bd,young
4091.1,directmemory_phase,mm_shreveport.png,49.0,1.0,mm_boulder.png,nat_leesburg.png,mm_westpalmbeach.png,mm_boulder.png,mm_westpalmbeach.png,nat_leesburg.png,US,6826aa7ffe3641d3eba2c4bd,young
2423.0,directmemory_phase,mm_carmel.png,50.0,0.0,nat_leesburg.png,mm_hanover.png,nat_peoria.png,nat_peoria.png,mm_hanover.png,nat_leesburg.png,US,6826aa7ffe3641d3eba2c4bd,young
2445.5,directmemory_phase,nat_leesburg.png,50.0,0.0,nat_gatlinburg.png,nat_peoria.png,nat_racine.png,nat_gatlinburg.png,nat_racine.png,nat_peoria.png,US,6826aa7ffe3641d3eba2c4bd,young
3243.6,directmemory_phase,nat_peoria.png,50.0,0.0,nat_huntsville.png,mm_boulder.png,mm_hanover.png,mm_hanover.png,mm_boulder.png,nat_huntsville.png,US,6826aa7ffe3641d3eba2c4bd,young
4237.1,directmemory_phase,mm_carmel.png,49.0,1.0,mm_shreveport.png,nat_cornwall.png,mm_boulder.png,mm_shreveport.png,mm_boulder.png,nat_cornwall.png,US,6826aa7ffe3641d3eba2c4bd,young
3153.5,directmemory_phase,nat_newhope.png,51.0,0.0,nat_cornwall.png,nat_leesburg.png,mm_hanover.png,nat_leesburg.png,nat_cornwall.png,mm_hanover.png,US,6826aa7ffe3641d3eba2c4bd,young
3756.5,directmemory_phase,mm_boulder.png,50.0,0.0,mm_hotsprings.png,nat_peoria.png,mm_shreveport.png,mm_shreveport.png,nat_peoria.png,mm_hotsprings.png,US,6826aa7ffe3641d3eba2c4bd,young
2118.4,directmemory_phase,mm_carmel.png,50.0,1.0,mm_boulder.png,mm_hotsprings.png,nat_leesburg.png,mm_hotsprings.png,mm_boulder.png,nat_leesburg.png,US,6826aa7ffe3641d3eba2c4bd,young
3491.0,directmemory_phase,nat_peoria.png,51.0,1.0,nat_leesburg.png,mm_boulder.png,mm_shreveport.png,mm_shreveport.png,mm_boulder.png,nat_leesburg.png,US,6826aa7ffe3641d3eba2c4bd,young
4484.8,directmemory_phase,nat_peoria.png,51.0,1.0,nat_leesburg.png,mm_cornwall.png,nat_shreveport.png,nat_shreveport.png,mm_cornwall.png,nat_leesburg.png,US,682dd11f39ce4e00502afaf7,old
5442.6,directmemory_phase,nat_leesburg.png,51.0,1.0,mm_racine.png,nat_boulder.png,mm_gatlinburg.png,mm_gatlinburg.png,nat_boulder.png,mm_racine.png,US,682dd11f39ce4e00502afaf7,old
2522.5,directmemory_phase,mm_westpalmbeach.png,50.0,1.0,mm_hotsprings.png,nat_peoria.png,nat_boulder.png,nat_peoria.png,mm_hotsprings.png,nat_boulder.png,US,682dd11f39ce4e00502afaf7,old
1930.5,directmemory_phase,nat_leesburg.png,51.0,1.0,nat_peoria.png,nat_boulder.png,nat_carmel.png,nat_carmel.png,nat_boulder.png,nat_peoria.png,US,682dd11f39ce4e00502afaf7,old
1575.1,directmemory_phase,nat_huntsville.png,49.0,1.0,mm_hotsprings.png,nat_boulder.png,nat_peoria.png,mm_hotsprings.png,nat_peoria.png,nat_boulder.png,US,682dd11f39ce4e00502afaf7,old
4188.3,directmemory_phase,nat_carmel.png,50.0,0.0,nat_peoria.png,mm_hanover.png,nat_leesburg.png,nat_leesburg.png,mm_hanover.png,nat_peoria.png,US,682dd11f39ce4e00502afaf7,old
4742.9,directmemory_phase,mm_hotsprings.png,51.0,1.0,mm_gatlinburg.png,mm_westpalmbeach.png,nat_shreveport.png,nat_shreveport.png,mm_westpalmbeach.png,mm_gatlinburg.png,US,682dd11f39ce4e00502afaf7,old
5134.6,directmemory_phase,mm_cornwall.png,51.0,1.0,mm_westpalmbeach.png,nat_leesburg.png,nat_boulder.png,nat_boulder.png,nat_leesburg.png,mm_westpalmbeach.png,US,682dd11f39ce4e00502afaf7,old
4217.3,directmemory_phase,mm_gatlinburg.png,49.0,1.0,nat_leesburg.png,mm_hotsprings.png,mm_hanover.png,nat_leesburg.png,mm_hanover.png,mm_hotsprings.png,US,682dd11f39ce4e00502afaf7,old
,directmemory_phase,nat_shreveport.png,,0.0,mm_newhope.png,mm_westpalmbeach.png,mm_racine.png,mm_racine.png,mm_westpalmbeach.png,mm_newhope.png,US,682dd11f39ce4e00502afaf7,old
2891.3,directmemory_phase,mm_hotsprings.png,51.0,1.0,mm_newhope.png,mm_cornwall.png,nat_peoria.png,nat_peoria.png,mm_cornwall.png,mm_newhope.png,US,682dd11f39ce4e00502afaf7,old
3200.5,directmemory_phase,mm_racine.png,50.0,1.0,nat_huntsville.png,nat_shreveport.png,mm_hanover.png,nat_shreveport.png,nat_huntsville.png,mm_hanover.png,US,682dd11f39ce4e00502afaf7,old
1391.7,directmemory_phase,mm_hotsprings.png,51.0,1.0,mm_newhope.png,mm_cornwall.png,nat_huntsville.png,nat_huntsville.png,mm_cornwall.png,mm_newhope.png,US,682dd11f39ce4e00502afaf7,old
1519.1,directmemory_phase,mm_cornwall.png,49.0,1.0,nat_carmel.png,nat_huntsville.png,mm_hotsprings.png,nat_carmel.png,mm_hotsprings.png,nat_huntsville.png,US,682dd11f39ce4e00502afaf7,old
2567.2,directmemory_phase,mm_hotsprings.png,51.0,1.0,nat_carmel.png,nat_boulder.png,mm_racine.png,mm_racine.png,nat_boulder.png,nat_carmel.png,US,682dd11f39ce4e00502afaf7,old
2665.9,directmemory_phase,nat_leesburg.png,49.0,1.0,mm_hanover.png,mm_racine.png,mm_newhope.png,mm_hanover.png,mm_newhope.png,mm_racine.png,US,682dd11f39ce4e00502afaf7,old
2710.2,directmemory_phase,nat_peoria.png,49.0,0.0,mm_racine.png,mm_hotsprings.png,nat_boulder.png,mm_hotsprings.png,mm_racine.png,nat_boulder.png,US,682dd11f39ce4e00502afaf7,old
1959.5,directmemory_phase,mm_newhope.png,49.0,1.0,mm_gatlinburg.png,nat_carmel.png,nat_boulder.png,mm_gatlinburg.png,nat_boulder.png,nat_carmel.png,US,682dd11f39ce4e00502afaf7,old
2382.1,directmemory_phase,mm_racine.png,51.0,0.0,nat_boulder.png,nat_carmel.png,mm_gatlinburg.png,nat_boulder.png,mm_gatlinburg.png,nat_carmel.png,US,682dd11f39ce4e00502afaf7,old
2328.3,directmemory_phase,nat_carmel.png,51.0,1.0,mm_hotsprings.png,mm_hanover.png,mm_cornwall.png,mm_cornwall.png,mm_hanover.png,mm_hotsprings.png,US,682dd11f39ce4e00502afaf7,old
2643.1,directmemory_phase,nat_boulder.png,51.0,1.0,mm_hanover.png,nat_shreveport.png,mm_racine.png,mm_racine.png,nat_shreveport.png,mm_hanover.png,US,682dd11f39ce4e00502afaf7,old
3218.4,directmemory_phase,nat_shreveport.png,51.0,0.0,nat_huntsville.png,mm_cornwall.png,mm_hanover.png,mm_cornwall.png,nat_huntsville.png,mm_hanover.png,US,682dd11f39ce4e00502afaf7,old
2591.5,directmemory_phase,mm_racine.png,51.0,1.0,nat_carmel.png,nat_huntsville.png,mm_hotsprings.png,mm_hotsprings.png,nat_huntsville.png,nat_carmel.png,US,682dd11f39ce4e00502afaf7,old
2500.5,directmemory_phase,nat_boulder.png,51.0,1.0,mm_hanover.png,nat_carmel.png,mm_cornwall.png,mm_cornwall.png,nat_carmel.png,mm_hanover.png,US,682dd11f39ce4e00502afaf7,old
1870.2,directmemory_phase,nat_peoria.png,50.0,1.0,mm_racine.png,mm_westpalmbeach.png,nat_boulder.png,mm_westpalmbeach.png,mm_racine.png,nat_boulder.png,US,682dd11f39ce4e00502afaf7,old
2432.7,directmemory_phase,mm_cornwall.png,51.0,1.0,mm_newhope.png,mm_gatlinburg.png,nat_shreveport.png,nat_shreveport.png,mm_gatlinburg.png,mm_newhope.png,US,682dd11f39ce4e00502afaf7,old
4016.8,directmemory_phase,mm_gatlinburg.png,51.0,0.0,nat_boulder.png,nat_huntsville.png,mm_racine.png,nat_boulder.png,mm_racine.png,nat_huntsville.png,US,682dd11f39ce4e00502afaf7,old
1297.8,directmemory_phase,mm_hanover.png,49.0,1.0,nat_leesburg.png,nat_boulder.png,nat_carmel.png,nat_leesburg.png,nat_carmel.png,nat_boulder.png,US,682dd11f39ce4e00502afaf7,old
1971.9,directmemory_phase,mm_gatlinburg.png,49.0,0.0,nat_shreveport.png,mm_racine.png,mm_newhope.png,mm_newhope.png,mm_racine.png,nat_shreveport.png,US,682dd11f39ce4e00502afaf7,old
2814.7,directmemory_phase,nat_shreveport.png,50.0,1.0,nat_carmel.png,nat_peoria.png,nat_leesburg.png,nat_peoria.png,nat_carmel.png,nat_leesburg.png,US,682dd11f39ce4e00502afaf7,old
2457.5,directmemory_phase,nat_boulder.png,51.0,1.0,mm_hanover.png,mm_hotsprings.png,mm_gatlinburg.png,mm_gatlinburg.png,mm_hotsprings.png,mm_hanover.png,US,682dd11f39ce4e00502afaf7,old
3675.1,directmemory_phase,nat_shreveport.png,49.0,0.0,mm_gatlinburg.png,nat_carmel.png,mm_hotsprings.png,mm_hotsprings.png,nat_carmel.png,mm_gatlinburg.png,US,682dd11f39ce4e00502afaf7,old
3092.20000000298,directmemory_phase,nat_leesburg.png,50.0,0.0,nat_newhope.png,nat_cornwall.png,mm_westpalmbeach.png,mm_westpalmbeach.png,nat_cornwall.png,nat_newhope.png,US,66ecded667f721bca7e5609d,young
3158.0,directmemory_phase,nat_cornwall.png,51.0,1.0,mm_racine.png,nat_shreveport.png,mm_carmel.png,mm_carmel.png,nat_shreveport.png,mm_racine.png,US,66ecded667f721bca7e5609d,young
3800.70000000298,directmemory_phase,nat_peoria.png,49.0,0.0,mm_westpalmbeach.png,mm_hotsprings.png,mm_gatlinburg.png,mm_gatlinburg.png,mm_hotsprings.png,mm_westpalmbeach.png,US,66ecded667f721bca7e5609d,young
3956.29999999702,directmemory_phase,mm_carmel.png,50.0,0.0,mm_hanover.png,nat_huntsville.png,nat_leesburg.png,nat_leesburg.png,nat_huntsville.png,mm_hanover.png,US,66ecded667f721bca7e5609d,young
1859.8999999910593,directmemory_phase,mm_gatlinburg.png,50.0,1.0,nat_boulder.png,nat_peoria.png,mm_carmel.png,nat_peoria.png,nat_boulder.png,mm_carmel.png,US,66ecded667f721bca7e5609d,young
1814.70000000298,directmemory_phase,mm_carmel.png,49.0,1.0,nat_cornwall.png,nat_shreveport.png,mm_racine.png,nat_cornwall.png,mm_racine.png,nat_shreveport.png,US,66ecded667f721bca7e5609d,young
2989.800000011921,directmemory_phase,mm_hanover.png,51.0,1.0,mm_gatlinburg.png,nat_peoria.png,nat_boulder.png,nat_boulder.png,nat_peoria.png,mm_gatlinburg.png,US,66ecded667f721bca7e5609d,young
2386.4000000059605,directmemory_phase,nat_cornwall.png,50.0,0.0,nat_boulder.png,nat_leesburg.png,nat_newhope.png,nat_newhope.png,nat_leesburg.png,nat_boulder.png,US,66ecded667f721bca7e5609d,young
2190.5,directmemory_phase,mm_westpalmbeach.png,49.0,1.0,nat_leesburg.png,nat_peoria.png,nat_cornwall.png,nat_leesburg.png,nat_cornwall.png,nat_peoria.png,US,66ecded667f721bca7e5609d,young
1527.5,directmemory_phase,mm_racine.png,50.0,1.0,mm_hotsprings.png,nat_boulder.png,nat_shreveport.png,nat_boulder.png,mm_hotsprings.png,nat_shreveport.png,US,66ecded667f721bca7e5609d,young
3156.70000000298,directmemory_phase,nat_leesburg.png,49.0,0.0,mm_hanover.png,mm_carmel.png,nat_shreveport.png,mm_carmel.png,mm_hanover.png,nat_shreveport.png,US,66ecded667f721bca7e5609d,young
2393.800000011921,directmemory_phase,nat_boulder.png,49.0,0.0,mm_gatlinburg.png,nat_peoria.png,nat_huntsville.png,nat_peoria.png,mm_gatlinburg.png,nat_huntsville.png,US,66ecded667f721bca7e5609d,young
2932.20000000298,directmemory_phase,nat_leesburg.png,51.0,1.0,nat_newhope.png,nat_boulder.png,mm_racine.png,mm_racine.png,nat_boulder.png,nat_newhope.png,US,66ecded667f721bca7e5609d,young
2969.0,directmemory_phase,mm_hotsprings.png,51.0,0.0,mm_racine.png,nat_boulder.png,mm_gatlinburg.png,nat_boulder.png,mm_racine.png,mm_gatlinburg.png,US,66ecded667f721bca7e5609d,young
2359.79999999702,directmemory_phase,nat_peoria.png,50.0,0.0,nat_huntsville.png,nat_leesburg.png,mm_racine.png,mm_racine.png,nat_leesburg.png,nat_huntsville.png,US,66ecded667f721bca7e5609d,young
2348.20000000298,directmemory_phase,nat_shreveport.png,51.0,1.0,mm_carmel.png,nat_cornwall.png,nat_huntsville.png,nat_huntsville.png,nat_cornwall.png,mm_carmel.png,US,66ecded667f721bca7e5609d,young
1646.5,directmemory_phase,nat_boulder.png,50.0,0.0,nat_cornwall.png,mm_westpalmbeach.png,mm_racine.png,mm_racine.png,mm_westpalmbeach.png,nat_cornwall.png,US,66ecded667f721bca7e5609d,young
2609.6000000089407,directmemory_phase,nat_newhope.png,51.0,0.0,nat_cornwall.png,mm_racine.png,nat_huntsville.png,nat_cornwall.png,nat_huntsville.png,mm_racine.png,US,66ecded667f721bca7e5609d,young
3098.5,directmemory_phase,mm_hanover.png,50.0,0.0,mm_racine.png,nat_shreveport.png,nat_peoria.png,mm_racine.png,nat_peoria.png,nat_shreveport.png,US,66ecded667f721bca7e5609d,young
1921.9000000059605,directmemory_phase,nat_peoria.png,49.0,0.0,mm_westpalmbeach.png,nat_leesburg.png,nat_boulder.png,nat_boulder.png,nat_leesburg.png,mm_westpalmbeach.png,US,66ecded667f721bca7e5609d,young
2464.70000000298,directmemory_phase,mm_racine.png,51.0,0.0,mm_carmel.png,mm_hanover.png,nat_newhope.png,mm_hanover.png,mm_carmel.png,nat_newhope.png,US,66ecded667f721bca7e5609d,young
2124.0,directmemory_phase,nat_huntsville.png,50.0,1.0,mm_hanover.png,nat_shreveport.png,nat_boulder.png,nat_shreveport.png,mm_hanover.png,nat_boulder.png,US,66ecded667f721bca7e5609d,young
3429.4000000059605,directmemory_phase,nat_boulder.png,50.0,0.0,nat_shreveport.png,mm_gatlinburg.png,mm_hanover.png,mm_hanover.png,mm_gatlinburg.png,nat_shreveport.png,US,66ecded667f721bca7e5609d,young
2719.9000000059605,directmemory_phase,nat_cornwall.png,50.0,0.0,nat_huntsville.png,nat_boulder.png,nat_shreveport.png,nat_huntsville.png,nat_shreveport.png,nat_boulder.png,US,66ecded667f721bca7e5609d,young
1697.5999999940395,directmemory_phase,nat_boulder.png,49.0,0.0,mm_carmel.png,nat_leesburg.png,mm_hotsprings.png,mm_hotsprings.png,nat_leesburg.png,mm_carmel.png,US,66ecded667f721bca7e5609d,young
3561.5,directmemory_phase,mm_westpalmbeach.png,51.0,0.0,mm_carmel.png,nat_huntsville.png,mm_hotsprings.png,nat_huntsville.png,mm_carmel.png,mm_hotsprings.png,US,66ecded667f721bca7e5609d,young
2494.0999999940395,directmemory_phase,mm_racine.png,51.0,1.0,nat_cornwall.png,mm_gatlinburg.png,nat_peoria.png,nat_peoria.png,mm_gatlinburg.png,nat_cornwall.png,US,66ecded667f721bca7e5609d,young
3276.20000000298,directmemory_phase,nat_huntsville.png,51.0,0.0,nat_cornwall.png,nat_boulder.png,nat_newhope.png,nat_cornwall.png,nat_newhope.png,nat_boulder.png,US,66ecded667f721bca7e5609d,young
2215.4000000059605,directmemory_phase,mm_westpalmbeach.png,51.0,0.0,nat_boulder.png,mm_hanover.png,nat_peoria.png,mm_hanover.png,nat_boulder.png,nat_peoria.png,US,66ecded667f721bca7e5609d,young
2080.5,directmemory_phase,mm_racine.png,50.0,0.0,nat_newhope.png,mm_hotsprings.png,nat_leesburg.png,nat_leesburg.png,mm_hotsprings.png,nat_newhope.png,US,66ecded667f721bca7e5609d,young
3714.199999988079,directmemory_phase,mm_hanover.png,50.0,0.0,mm_westpalmbeach.png,nat_shreveport.png,nat_huntsville.png,mm_westpalmbeach.png,nat_huntsville.png,nat_shreveport.png,US,66ecded667f721bca7e5609d,young
,directmemory_phase,,,0.0,,,,,,,US,66ecded667f721bca7e5609d,young
6455.4,directmemory_phase,nat_peoria.png,50.0,0.0,mm_hanover.png,nat_racine.png,mm_hotsprings.png,mm_hotsprings.png,nat_racine.png,mm_hanover.png,US,5fadeb340e10471fdeb5fbf5,young
5380.3,directmemory_phase,mm_carmel.png,51.0,0.0,mm_leesburg.png,mm_westpalmbeach.png,mm_gatlinburg.png,mm_leesburg.png,mm_gatlinburg.png,mm_westpalmbeach.png,US,5fadeb340e10471fdeb5fbf5,young
,directmemory_phase,nat_huntsville.png,,0.0,mm_hanover.png,mm_boulder.png,nat_peoria.png,nat_peoria.png,mm_boulder.png,mm_hanover.png,US,5fadeb340e10471fdeb5fbf5,young
2849.9,directmemory_phase,mm_carmel.png,50.0,1.0,mm_hanover.png,mm_cornwall.png,mm_shreveport.png,mm_cornwall.png,mm_hanover.png,mm_shreveport.png,US,5fadeb340e10471fdeb5fbf5,young
3740.9,directmemory_phase,mm_gatlinburg.png,50.0,0.0,mm_hotsprings.png,mm_shreveport.png,nat_huntsville.png,nat_huntsville.png,mm_shreveport.png,mm_hotsprings.png,US,5fadeb340e10471fdeb5fbf5,young
3610.5,directmemory_phase,nat_newhope.png,50.0,0.0,mm_carmel.png,mm_westpalmbeach.png,mm_gatlinburg.png,mm_carmel.png,mm_gatlinburg.png,mm_westpalmbeach.png,US,5fadeb340e10471fdeb5fbf5,young
3810.4,directmemory_phase,nat_racine.png,50.0,0.0,mm_boulder.png,nat_peoria.png,mm_westpalmbeach.png,mm_westpalmbeach.png,nat_peoria.png,mm_boulder.png,US,5fadeb340e10471fdeb5fbf5,young
3245.4,directmemory_phase,mm_leesburg.png,49.0,0.0,nat_newhope.png,mm_carmel.png,mm_shreveport.png,mm_carmel.png,nat_newhope.png,mm_shreveport.png,US,5fadeb340e10471fdeb5fbf5,young
4090.2,directmemory_phase,mm_boulder.png,50.0,0.0,mm_westpalmbeach.png,mm_carmel.png,mm_gatlinburg.png,mm_gatlinburg.png,mm_carmel.png,mm_westpalmbeach.png,US,5fadeb340e10471fdeb5fbf5,young
4385.3,directmemory_phase,mm_hanover.png,50.0,0.0,nat_newhope.png,nat_peoria.png,mm_boulder.png,nat_newhope.png,mm_boulder.png,nat_peoria.png,US,5fadeb340e10471fdeb5fbf5,young
1995.2,directmemory_phase,mm_boulder.png,50.0,0.0,nat_racine.png,nat_peoria.png,mm_shreveport.png,mm_shreveport.png,nat_peoria.png,nat_racine.png,US,5fadeb340e10471fdeb5fbf5,young
2737.4,directmemory_phase,mm_westpalmbeach.png,50.0,0.0,nat_newhope.png,mm_hotsprings.png,nat_huntsville.png,nat_huntsville.png,mm_hotsprings.png,nat_newhope.png,US,5fadeb340e10471fdeb5fbf5,young
2556.3,directmemory_phase,nat_newhope.png,50.0,0.0,mm_hotsprings.png,mm_leesburg.png,mm_boulder.png,mm_boulder.png,mm_leesburg.png,mm_hotsprings.png,US,5fadeb340e10471fdeb5fbf5,young
3088.2,directmemory_phase,nat_huntsville.png,51.0,1.0,mm_leesburg.png,nat_racine.png,mm_shreveport.png,mm_shreveport.png,nat_racine.png,mm_leesburg.png,US,5fadeb340e10471fdeb5fbf5,young
4219.3,directmemory_phase,mm_gatlinburg.png,49.0,0.0,mm_leesburg.png,mm_westpalmbeach.png,mm_boulder.png,mm_boulder.png,mm_westpalmbeach.png,mm_leesburg.png,US,5fadeb340e10471fdeb5fbf5,young
2527.5,directmemory_phase,nat_peoria.png,50.0,0.0,nat_newhope.png,mm_boulder.png,nat_huntsville.png,nat_huntsville.png,mm_boulder.png,nat_newhope.png,US,5fadeb340e10471fdeb5fbf5,young
4601.3,directmemory_phase,mm_carmel.png,50.0,0.0,nat_huntsville.png,mm_boulder.png,nat_newhope.png,nat_newhope.png,mm_boulder.png,nat_huntsville.png,US,5fadeb340e10471fdeb5fbf5,young
3402.9,directmemory_phase,nat_peoria.png,51.0,1.0,mm_cornwall.png,nat_racine.png,mm_shreveport.png,mm_shreveport.png,nat_racine.png,mm_cornwall.png,US,5fadeb340e10471fdeb5fbf5,young
5040.4,directmemory_phase,nat_huntsville.png,49.0,0.0,mm_hotsprings.png,mm_westpalmbeach.png,mm_leesburg.png,mm_westpalmbeach.png,mm_hotsprings.png,mm_leesburg.png,US,5fadeb340e10471fdeb5fbf5,young
2881.9,directmemory_phase,mm_shreveport.png,51.0,1.0,nat_racine.png,nat_newhope.png,nat_peoria.png,nat_peoria.png,nat_newhope.png,nat_racine.png,US,5fadeb340e10471fdeb5fbf5,young
3222.4,directmemory_phase,mm_westpalmbeach.png,50.0,0.0,nat_newhope.png,mm_gatlinburg.png,nat_racine.png,nat_racine.png,mm_gatlinburg.png,nat_newhope.png,US,5fadeb340e10471fdeb5fbf5,young
3349.5,directmemory_phase,mm_cornwall.png,49.0,1.0,mm_carmel.png,nat_peoria.png,nat_huntsville.png,mm_carmel.png,nat_huntsville.png,nat_peoria.png,US,5fadeb340e10471fdeb5fbf5,young
4279.0,directmemory_phase,mm_shreveport.png,49.0,0.0,mm_cornwall.png,mm_hotsprings.png,nat_huntsville.png,nat_huntsville.png,mm_hotsprings.png,mm_cornwall.png,US,5fadeb340e10471fdeb5fbf5,young
