rt,trial_type,stimulus,key_press,stimulus_left,stimulus_right,accuracy,stimulus_correct,condition,specific_pairs,city_type,partid,age
3531.3,shortestpath_phase,nat_gatlinburg.png,49.0,mm_leesburg.png,nat_peoria.png,0.0,nat_peoria.png,One Edge Diff,Three Edge Four Edge,US,67cf70ec9741a100ffc7f570,old
3679.1,shortestpath_phase,nat_racine.png,49.0,mm_westpalmbeach.png,nat_hanover.png,0.0,nat_hanover.png,One Edge Diff,Five Edge Six Edge,US,67cf70ec9741a100ffc7f570,old
4422.9,shortestpath_phase,mm_westpalmbeach.png,49.0,mm_hotsprings.png,nat_peoria.png,0.0,nat_peoria.png,Two Edge Diff,Two Edge Four Edge,US,67cf70ec9741a100ffc7f570,old
2584.1,shortestpath_phase,mm_carmel.png,50.0,nat_cornwall.png,mm_leesburg.png,1.0,mm_leesburg.png,Two Edge Diff,Three Edge Five Edge,US,67cf70ec9741a100ffc7f570,old
3185.6,shortestpath_phase,nat_cornwall.png,49.0,mm_shreveport.png,nat_racine.png,1.0,mm_shreveport.png,Two Edge Diff,Four Edge Six Edge,US,67cf70ec9741a100ffc7f570,old
4614.2,shortestpath_phase,nat_racine.png,49.0,nat_hanover.png,nat_cornwall.png,1.0,nat_hanover.png,One Edge Diff,Five Edge Six Edge,US,67cf70ec9741a100ffc7f570,old
5363.7,shortestpath_phase,nat_cornwall.png,50.0,mm_hotsprings.png,nat_racine.png,0.0,mm_hotsprings.png,Two Edge Diff,Four Edge Six Edge,US,67cf70ec9741a100ffc7f570,old
4615.1,shortestpath_phase,nat_peoria.png,49.0,nat_hanover.png,nat_gatlinburg.png,1.0,nat_hanover.png,One Edge Diff,Two Edge Three Edge,US,67cf70ec9741a100ffc7f570,old
574.6,shortestpath_phase,nat_racine.png,50.0,mm_westpalmbeach.png,nat_huntsville.png,1.0,nat_huntsville.png,One Edge Diff,Five Edge Six Edge,US,67cf70ec9741a100ffc7f570,old
392.4,shortestpath_phase,nat_gatlinburg.png,49.0,nat_hanover.png,mm_carmel.png,0.0,mm_carmel.png,Three Edge Diff,Three Edge Six Edge,US,67cf70ec9741a100ffc7f570,old
408.6,shortestpath_phase,nat_cornwall.png,50.0,nat_gatlinburg.png,mm_boulder.png,1.0,mm_boulder.png,One Edge Diff,Five Edge Six Edge,US,67cf70ec9741a100ffc7f570,old
293.7,shortestpath_phase,nat_racine.png,49.0,mm_leesburg.png,mm_westpalmbeach.png,1.0,mm_leesburg.png,Two Edge Diff,Four Edge Six Edge,US,67cf70ec9741a100ffc7f570,old
5.5,shortestpath_phase,mm_westpalmbeach.png,50.0,nat_racine.png,nat_hanover.png,1.0,nat_hanover.png,Four Edge Diff,Two Edge Six Edge,US,67cf70ec9741a100ffc7f570,old
620.0,shortestpath_phase,mm_boulder.png,49.0,nat_newhope.png,nat_cornwall.png,1.0,nat_newhope.png,Three Edge Diff,Two Edge Five Edge,US,67cf70ec9741a100ffc7f570,old
531.0,shortestpath_phase,nat_gatlinburg.png,50.0,nat_huntsville.png,mm_hotsprings.png,1.0,mm_hotsprings.png,One Edge Diff,Three Edge Four Edge,US,67cf70ec9741a100ffc7f570,old
478.0,shortestpath_phase,nat_cornwall.png,49.0,mm_carmel.png,nat_huntsville.png,0.0,nat_huntsville.png,Three Edge Diff,Two Edge Five Edge,US,67cf70ec9741a100ffc7f570,old
435.6,shortestpath_phase,nat_gatlinburg.png,50.0,nat_peoria.png,mm_shreveport.png,1.0,mm_shreveport.png,One Edge Diff,Two Edge Three Edge,US,67cf70ec9741a100ffc7f570,old
369.1,shortestpath_phase,nat_racine.png,49.0,nat_huntsville.png,mm_hotsprings.png,0.0,mm_hotsprings.png,Three Edge Diff,Two Edge Five Edge,US,67cf70ec9741a100ffc7f570,old
798.6,shortestpath_phase,mm_boulder.png,50.0,nat_peoria.png,mm_westpalmbeach.png,0.0,nat_peoria.png,Two Edge Diff,Two Edge Four Edge,US,67cf70ec9741a100ffc7f570,old
472.8,shortestpath_phase,nat_racine.png,49.0,nat_gatlinburg.png,nat_huntsville.png,1.0,nat_gatlinburg.png,Two Edge Diff,Three Edge Five Edge,US,67cf70ec9741a100ffc7f570,old
303.0,shortestpath_phase,mm_leesburg.png,50.0,mm_hotsprings.png,mm_boulder.png,0.0,mm_hotsprings.png,One Edge Diff,Two Edge Three Edge,US,67cf70ec9741a100ffc7f570,old
478.8,shortestpath_phase,nat_gatlinburg.png,49.0,mm_hotsprings.png,mm_carmel.png,0.0,mm_carmel.png,One Edge Diff,Two Edge Three Edge,US,67cf70ec9741a100ffc7f570,old
366.0,shortestpath_phase,mm_hotsprings.png,50.0,mm_boulder.png,mm_westpalmbeach.png,0.0,mm_boulder.png,Two Edge Diff,Two Edge Four Edge,US,67cf70ec9741a100ffc7f570,old
544.8,shortestpath_phase,mm_carmel.png,50.0,nat_huntsville.png,mm_westpalmbeach.png,0.0,nat_huntsville.png,One Edge Diff,Four Edge Five Edge,US,67cf70ec9741a100ffc7f570,old
727.4,shortestpath_phase,mm_westpalmbeach.png,49.0,mm_carmel.png,mm_hotsprings.png,0.0,mm_hotsprings.png,One Edge Diff,Four Edge Five Edge,US,67cf70ec9741a100ffc7f570,old
676.7,shortestpath_phase,nat_gatlinburg.png,49.0,nat_huntsville.png,nat_cornwall.png,1.0,nat_huntsville.png,Two Edge Diff,Four Edge Six Edge,US,67cf70ec9741a100ffc7f570,old
581.4,shortestpath_phase,mm_westpalmbeach.png,49.0,nat_racine.png,mm_carmel.png,0.0,mm_carmel.png,One Edge Diff,Five Edge Six Edge,US,67cf70ec9741a100ffc7f570,old
565.2,shortestpath_phase,nat_hanover.png,50.0,mm_shreveport.png,mm_boulder.png,0.0,mm_shreveport.png,One Edge Diff,Three Edge Four Edge,US,67cf70ec9741a100ffc7f570,old
989.8,shortestpath_phase,nat_racine.png,49.0,nat_huntsville.png,mm_hotsprings.png,0.0,mm_hotsprings.png,Three Edge Diff,Three Edge Six Edge,US,67cf70ec9741a100ffc7f570,old
3017.5,shortestpath_phase,mm_carmel.png,50.0,mm_westpalmbeach.png,mm_shreveport.png,1.0,mm_shreveport.png,Three Edge Diff,Two Edge Five Edge,US,67cf70ec9741a100ffc7f570,old
2722.8,shortestpath_phase,mm_leesburg.png,50.0,nat_racine.png,mm_boulder.png,1.0,mm_boulder.png,One Edge Diff,Three Edge Four Edge,US,67cf70ec9741a100ffc7f570,old
1260.6,shortestpath_phase,nat_gatlinburg.png,49.0,nat_cornwall.png,mm_shreveport.png,0.0,mm_shreveport.png,Four Edge Diff,Two Edge Six Edge,US,67cf70ec9741a100ffc7f570,old
511.4,shortestpath_phase,nat_racine.png,50.0,nat_newhope.png,nat_peoria.png,0.0,nat_newhope.png,One Edge Diff,Three Edge Four Edge,US,67cf70ec9741a100ffc7f570,old
508.7,shortestpath_phase,mm_boulder.png,49.0,nat_peoria.png,nat_cornwall.png,1.0,nat_peoria.png,Three Edge Diff,Three Edge Six Edge,US,67cf70ec9741a100ffc7f570,old
403.4,shortestpath_phase,nat_cornwall.png,50.0,nat_huntsville.png,mm_boulder.png,0.0,nat_huntsville.png,Three Edge Diff,Three Edge Six Edge,US,67cf70ec9741a100ffc7f570,old
279.8,shortestpath_phase,nat_racine.png,49.0,nat_cornwall.png,nat_peoria.png,0.0,nat_peoria.png,Two Edge Diff,Four Edge Six Edge,US,67cf70ec9741a100ffc7f570,old
258.7,shortestpath_phase,mm_shreveport.png,50.0,nat_huntsville.png,nat_cornwall.png,0.0,nat_huntsville.png,Two Edge Diff,Two Edge Four Edge,US,67cf70ec9741a100ffc7f570,old
256.5,shortestpath_phase,nat_racine.png,50.0,mm_boulder.png,mm_leesburg.png,0.0,mm_boulder.png,Two Edge Diff,Two Edge Four Edge,US,67cf70ec9741a100ffc7f570,old
318.2,shortestpath_phase,nat_cornwall.png,49.0,nat_huntsville.png,nat_racine.png,1.0,nat_huntsville.png,Four Edge Diff,Two Edge Six Edge,US,67cf70ec9741a100ffc7f570,old
336.0,shortestpath_phase,mm_boulder.png,50.0,nat_cornwall.png,mm_leesburg.png,1.0,mm_leesburg.png,Two Edge Diff,Three Edge Five Edge,US,67cf70ec9741a100ffc7f570,old
320.9,shortestpath_phase,mm_westpalmbeach.png,50.0,nat_gatlinburg.png,nat_racine.png,0.0,nat_gatlinburg.png,One Edge Diff,Five Edge Six Edge,US,67cf70ec9741a100ffc7f570,old
245.0,shortestpath_phase,nat_cornwall.png,49.0,mm_boulder.png,nat_racine.png,1.0,mm_boulder.png,One Edge Diff,Five Edge Six Edge,US,67cf70ec9741a100ffc7f570,old
314.4,shortestpath_phase,mm_westpalmbeach.png,50.0,nat_peoria.png,nat_gatlinburg.png,0.0,nat_peoria.png,Three Edge Diff,Three Edge Six Edge,US,67cf70ec9741a100ffc7f570,old
211.0,shortestpath_phase,nat_gatlinburg.png,50.0,mm_leesburg.png,nat_racine.png,1.0,nat_racine.png,One Edge Diff,Three Edge Four Edge,US,67cf70ec9741a100ffc7f570,old
227.5,shortestpath_phase,mm_westpalmbeach.png,49.0,nat_racine.png,mm_leesburg.png,0.0,mm_leesburg.png,Four Edge Diff,Two Edge Six Edge,US,67cf70ec9741a100ffc7f570,old
283.9,shortestpath_phase,nat_peoria.png,50.0,nat_racine.png,mm_hotsprings.png,1.0,mm_hotsprings.png,One Edge Diff,Three Edge Four Edge,US,67cf70ec9741a100ffc7f570,old
250.9,shortestpath_phase,nat_cornwall.png,49.0,mm_hotsprings.png,mm_leesburg.png,0.0,mm_leesburg.png,Two Edge Diff,Two Edge Four Edge,US,67cf70ec9741a100ffc7f570,old
246.8,shortestpath_phase,mm_westpalmbeach.png,50.0,nat_gatlinburg.png,mm_shreveport.png,1.0,mm_shreveport.png,Two Edge Diff,Three Edge Five Edge,US,67cf70ec9741a100ffc7f570,old
276.8,shortestpath_phase,nat_hanover.png,49.0,nat_newhope.png,nat_racine.png,1.0,nat_newhope.png,Three Edge Diff,Two Edge Five Edge,US,67cf70ec9741a100ffc7f570,old
241.9,shortestpath_phase,mm_boulder.png,50.0,nat_huntsville.png,nat_hanover.png,0.0,nat_huntsville.png,One Edge Diff,Three Edge Four Edge,US,67cf70ec9741a100ffc7f570,old
293.8,shortestpath_phase,mm_carmel.png,49.0,nat_gatlinburg.png,nat_cornwall.png,1.0,nat_gatlinburg.png,Three Edge Diff,Two Edge Five Edge,US,67cf70ec9741a100ffc7f570,old
164.8,shortestpath_phase,nat_cornwall.png,50.0,nat_huntsville.png,nat_gatlinburg.png,0.0,nat_huntsville.png,Four Edge Diff,Two Edge Six Edge,US,67cf70ec9741a100ffc7f570,old
225.2,shortestpath_phase,nat_racine.png,50.0,nat_gatlinburg.png,nat_peoria.png,0.0,nat_gatlinburg.png,One Edge Diff,Three Edge Four Edge,US,67cf70ec9741a100ffc7f570,old
237.2,shortestpath_phase,nat_huntsville.png,50.0,nat_newhope.png,nat_racine.png,0.0,nat_newhope.png,Three Edge Diff,Two Edge Five Edge,US,67cf70ec9741a100ffc7f570,old
115.2,shortestpath_phase,nat_hanover.png,49.0,nat_gatlinburg.png,mm_boulder.png,0.0,mm_boulder.png,One Edge Diff,Four Edge Five Edge,US,67cf70ec9741a100ffc7f570,old
170.0,shortestpath_phase,nat_cornwall.png,50.0,mm_leesburg.png,nat_gatlinburg.png,0.0,mm_leesburg.png,Four Edge Diff,Two Edge Six Edge,US,67cf70ec9741a100ffc7f570,old
107.7,shortestpath_phase,nat_hanover.png,50.0,nat_gatlinburg.png,nat_newhope.png,1.0,nat_newhope.png,Three Edge Diff,Three Edge Six Edge,US,67cf70ec9741a100ffc7f570,old
786.7,shortestpath_phase,nat_racine.png,50.0,nat_cornwall.png,mm_leesburg.png,1.0,mm_leesburg.png,Two Edge Diff,Four Edge Six Edge,US,67cf70ec9741a100ffc7f570,old
461.8,shortestpath_phase,mm_carmel.png,50.0,nat_huntsville.png,nat_newhope.png,1.0,nat_newhope.png,Two Edge Diff,Two Edge Four Edge,US,67cf70ec9741a100ffc7f570,old
592.1,shortestpath_phase,nat_gatlinburg.png,50.0,nat_cornwall.png,mm_westpalmbeach.png,1.0,mm_westpalmbeach.png,One Edge Diff,Five Edge Six Edge,US,67cf70ec9741a100ffc7f570,old
263.8,shortestpath_phase,mm_carmel.png,50.0,nat_cornwall.png,nat_newhope.png,1.0,nat_newhope.png,Three Edge Diff,Two Edge Five Edge,US,67cf70ec9741a100ffc7f570,old
22.7,shortestpath_phase,nat_racine.png,50.0,mm_boulder.png,nat_cornwall.png,0.0,mm_boulder.png,Four Edge Diff,Two Edge Six Edge,US,67cf70ec9741a100ffc7f570,old
2376.5,shortestpath_phase,mm_carmel.png,49.0,nat_gatlinburg.png,nat_hanover.png,1.0,nat_gatlinburg.png,Two Edge Diff,Two Edge Four Edge,US,67cf70ec9741a100ffc7f570,old
366.7,shortestpath_phase,nat_racine.png,50.0,nat_peoria.png,mm_westpalmbeach.png,0.0,nat_peoria.png,Two Edge Diff,Four Edge Six Edge,US,67cf70ec9741a100ffc7f570,old
576.8,shortestpath_phase,nat_newhope.png,49.0,nat_huntsville.png,nat_cornwall.png,1.0,nat_huntsville.png,One Edge Diff,Two Edge Three Edge,US,67cf70ec9741a100ffc7f570,old
550.4,shortestpath_phase,mm_carmel.png,50.0,nat_hanover.png,mm_leesburg.png,1.0,mm_leesburg.png,One Edge Diff,Three Edge Four Edge,US,67cf70ec9741a100ffc7f570,old
357.0,shortestpath_phase,nat_hanover.png,50.0,nat_newhope.png,nat_gatlinburg.png,0.0,nat_newhope.png,Three Edge Diff,Two Edge Five Edge,US,67cf70ec9741a100ffc7f570,old
302.6,shortestpath_phase,nat_racine.png,49.0,mm_hotsprings.png,mm_westpalmbeach.png,1.0,mm_hotsprings.png,Four Edge Diff,Two Edge Six Edge,US,67cf70ec9741a100ffc7f570,old
259.7,shortestpath_phase,mm_westpalmbeach.png,50.0,mm_leesburg.png,mm_boulder.png,0.0,mm_leesburg.png,Two Edge Diff,Two Edge Four Edge,US,67cf70ec9741a100ffc7f570,old
273.6,shortestpath_phase,mm_boulder.png,49.0,mm_leesburg.png,nat_racine.png,0.0,nat_racine.png,One Edge Diff,Two Edge Three Edge,US,67cf70ec9741a100ffc7f570,old
238.9,shortestpath_phase,mm_shreveport.png,49.0,nat_hanover.png,nat_gatlinburg.png,0.0,nat_gatlinburg.png,One Edge Diff,Two Edge Three Edge,US,67cf70ec9741a100ffc7f570,old
393.8,shortestpath_phase,nat_racine.png,50.0,nat_hanover.png,nat_peoria.png,1.0,nat_peoria.png,One Edge Diff,Four Edge Five Edge,US,67cf70ec9741a100ffc7f570,old
281.9,shortestpath_phase,mm_hotsprings.png,49.0,nat_hanover.png,mm_boulder.png,0.0,mm_boulder.png,One Edge Diff,Two Edge Three Edge,US,67cf70ec9741a100ffc7f570,old
535.2,shortestpath_phase,nat_cornwall.png,50.0,mm_leesburg.png,nat_racine.png,0.0,mm_leesburg.png,Four Edge Diff,Two Edge Six Edge,US,67cf70ec9741a100ffc7f570,old
306.5,shortestpath_phase,nat_racine.png,49.0,mm_hotsprings.png,nat_cornwall.png,1.0,mm_hotsprings.png,Four Edge Diff,Two Edge Six Edge,US,67cf70ec9741a100ffc7f570,old
262.7,shortestpath_phase,mm_westpalmbeach.png,50.0,mm_hotsprings.png,nat_hanover.png,1.0,nat_hanover.png,Two Edge Diff,Two Edge Four Edge,US,67cf70ec9741a100ffc7f570,old
322.2,shortestpath_phase,nat_racine.png,50.0,nat_cornwall.png,nat_huntsville.png,1.0,nat_huntsville.png,One Edge Diff,Five Edge Six Edge,US,67cf70ec9741a100ffc7f570,old
274.2,shortestpath_phase,nat_hanover.png,49.0,mm_hotsprings.png,nat_racine.png,1.0,mm_hotsprings.png,Two Edge Diff,Three Edge Five Edge,US,67cf70ec9741a100ffc7f570,old
208.9,shortestpath_phase,nat_racine.png,50.0,mm_westpalmbeach.png,mm_boulder.png,1.0,mm_boulder.png,Four Edge Diff,Two Edge Six Edge,US,67cf70ec9741a100ffc7f570,old
129.0,shortestpath_phase,nat_cornwall.png,50.0,mm_shreveport.png,nat_gatlinburg.png,0.0,mm_shreveport.png,Two Edge Diff,Four Edge Six Edge,US,67cf70ec9741a100ffc7f570,old
175.8,shortestpath_phase,nat_racine.png,49.0,nat_huntsville.png,mm_leesburg.png,0.0,mm_leesburg.png,One Edge Diff,Four Edge Five Edge,US,67cf70ec9741a100ffc7f570,old
287.4,shortestpath_phase,mm_westpalmbeach.png,50.0,nat_hanover.png,mm_carmel.png,0.0,nat_hanover.png,Three Edge Diff,Three Edge Six Edge,US,67cf70ec9741a100ffc7f570,old
311.1,shortestpath_phase,mm_shreveport.png,49.0,nat_racine.png,mm_carmel.png,0.0,mm_carmel.png,One Edge Diff,Two Edge Three Edge,US,67cf70ec9741a100ffc7f570,old
287.8,shortestpath_phase,nat_cornwall.png,50.0,mm_carmel.png,nat_huntsville.png,1.0,nat_huntsville.png,Three Edge Diff,Three Edge Six Edge,US,67cf70ec9741a100ffc7f570,old
253.9,shortestpath_phase,mm_carmel.png,49.0,mm_westpalmbeach.png,nat_gatlinburg.png,0.0,nat_gatlinburg.png,Three Edge Diff,Three Edge Six Edge,US,67cf70ec9741a100ffc7f570,old
266.7,shortestpath_phase,nat_racine.png,50.0,mm_leesburg.png,nat_hanover.png,0.0,mm_leesburg.png,One Edge Diff,Four Edge Five Edge,US,67cf70ec9741a100ffc7f570,old
149.4,shortestpath_phase,mm_carmel.png,49.0,nat_cornwall.png,mm_shreveport.png,0.0,mm_shreveport.png,Three Edge Diff,Two Edge Five Edge,US,67cf70ec9741a100ffc7f570,old
149.2,shortestpath_phase,nat_cornwall.png,50.0,nat_huntsville.png,mm_shreveport.png,0.0,nat_huntsville.png,Two Edge Diff,Two Edge Four Edge,US,67cf70ec9741a100ffc7f570,old
254.0,shortestpath_phase,mm_carmel.png,49.0,nat_cornwall.png,mm_shreveport.png,0.0,mm_shreveport.png,Three Edge Diff,Three Edge Six Edge,US,67cf70ec9741a100ffc7f570,old
269.9,shortestpath_phase,nat_gatlinburg.png,50.0,nat_hanover.png,nat_peoria.png,1.0,nat_peoria.png,Two Edge Diff,Three Edge Five Edge,US,67cf70ec9741a100ffc7f570,old
198.2,shortestpath_phase,nat_cornwall.png,50.0,mm_carmel.png,nat_gatlinburg.png,0.0,mm_carmel.png,One Edge Diff,Five Edge Six Edge,US,67cf70ec9741a100ffc7f570,old
274.9,shortestpath_phase,nat_huntsville.png,50.0,mm_boulder.png,nat_newhope.png,1.0,nat_newhope.png,One Edge Diff,Two Edge Three Edge,US,67cf70ec9741a100ffc7f570,old
680.0,shortestpath_phase,mm_westpalmbeach.png,50.0,nat_racine.png,mm_boulder.png,1.0,mm_boulder.png,Two Edge Diff,Four Edge Six Edge,US,67cf70ec9741a100ffc7f570,old
321.1,shortestpath_phase,nat_gatlinburg.png,49.0,nat_cornwall.png,mm_carmel.png,0.0,mm_carmel.png,Four Edge Diff,Two Edge Six Edge,US,67cf70ec9741a100ffc7f570,old
334.2,shortestpath_phase,mm_westpalmbeach.png,50.0,mm_carmel.png,mm_leesburg.png,1.0,mm_leesburg.png,Three Edge Diff,Three Edge Six Edge,US,67cf70ec9741a100ffc7f570,old
0.200000003,shortestpath_phase,mm_carmel.png,49.0,nat_cornwall.png,nat_hanover.png,0.0,nat_hanover.png,One Edge Diff,Four Edge Five Edge,US,67cf70ec9741a100ffc7f570,old
440.9,shortestpath_phase,mm_westpalmbeach.png,49.0,mm_leesburg.png,mm_carmel.png,1.0,mm_leesburg.png,Three Edge Diff,Two Edge Five Edge,US,67cf70ec9741a100ffc7f570,old
302.2,shortestpath_phase,nat_hanover.png,49.0,nat_gatlinburg.png,mm_carmel.png,0.0,mm_carmel.png,One Edge Diff,Four Edge Five Edge,US,67cf70ec9741a100ffc7f570,old
207.9,shortestpath_phase,nat_gatlinburg.png,50.0,nat_cornwall.png,mm_leesburg.png,1.0,mm_leesburg.png,Two Edge Diff,Four Edge Six Edge,US,67cf70ec9741a100ffc7f570,old
274.8,shortestpath_phase,mm_westpalmbeach.png,49.0,mm_carmel.png,nat_newhope.png,0.0,nat_newhope.png,Two Edge Diff,Three Edge Five Edge,US,67cf70ec9741a100ffc7f570,old
108.1,shortestpath_phase,mm_leesburg.png,50.0,nat_racine.png,mm_carmel.png,1.0,mm_carmel.png,One Edge Diff,Three Edge Four Edge,US,67cf70ec9741a100ffc7f570,old
275.4,shortestpath_phase,nat_gatlinburg.png,50.0,nat_racine.png,mm_westpalmbeach.png,0.0,nat_racine.png,Two Edge Diff,Three Edge Five Edge,US,67cf70ec9741a100ffc7f570,old
661.4,shortestpath_phase,mm_shreveport.png,50.0,nat_hanover.png,mm_leesburg.png,1.0,mm_leesburg.png,One Edge Diff,Two Edge Three Edge,US,67cf70ec9741a100ffc7f570,old
332.5,shortestpath_phase,mm_westpalmbeach.png,50.0,nat_racine.png,mm_hotsprings.png,1.0,mm_hotsprings.png,Two Edge Diff,Four Edge Six Edge,US,67cf70ec9741a100ffc7f570,old
393.3,shortestpath_phase,mm_carmel.png,49.0,mm_leesburg.png,mm_westpalmbeach.png,1.0,mm_leesburg.png,Two Edge Diff,Three Edge Five Edge,US,67cf70ec9741a100ffc7f570,old
438.0,shortestpath_phase,nat_hanover.png,49.0,nat_racine.png,mm_shreveport.png,0.0,mm_shreveport.png,Two Edge Diff,Three Edge Five Edge,US,67cf70ec9741a100ffc7f570,old
769.5,shortestpath_phase,nat_gatlinburg.png,49.0,mm_westpalmbeach.png,mm_leesburg.png,0.0,mm_leesburg.png,One Edge Diff,Four Edge Five Edge,US,67cf70ec9741a100ffc7f570,old
1000.5,shortestpath_phase,nat_cornwall.png,50.0,nat_peoria.png,mm_shreveport.png,0.0,nat_peoria.png,One Edge Diff,Three Edge Four Edge,US,67cf70ec9741a100ffc7f570,old
290.4,shortestpath_phase,nat_gatlinburg.png,50.0,nat_hanover.png,nat_racine.png,1.0,nat_racine.png,Two Edge Diff,Three Edge Five Edge,US,67cf70ec9741a100ffc7f570,old
1687.3,shortestpath_phase,nat_cornwall.png,49.0,mm_boulder.png,mm_westpalmbeach.png,0.0,mm_westpalmbeach.png,Two Edge Diff,Three Edge Five Edge,US,67cf70ec9741a100ffc7f570,old
495.5,shortestpath_phase,nat_racine.png,50.0,nat_huntsville.png,nat_peoria.png,1.0,nat_peoria.png,One Edge Diff,Four Edge Five Edge,US,67cf70ec9741a100ffc7f570,old
122.3,shortestpath_phase,nat_cornwall.png,50.0,mm_hotsprings.png,nat_gatlinburg.png,0.0,mm_hotsprings.png,Two Edge Diff,Four Edge Six Edge,US,67cf70ec9741a100ffc7f570,old
812.1,shortestpath_phase,nat_huntsville.png,49.0,nat_gatlinburg.png,nat_racine.png,1.0,nat_gatlinburg.png,One Edge Diff,Four Edge Five Edge,US,67cf70ec9741a100ffc7f570,old
368.0,shortestpath_phase,nat_hanover.png,50.0,nat_gatlinburg.png,mm_westpalmbeach.png,1.0,mm_westpalmbeach.png,Three Edge Diff,Two Edge Five Edge,US,67cf70ec9741a100ffc7f570,old
20.40000001,shortestpath_phase,mm_carmel.png,50.0,nat_newhope.png,nat_cornwall.png,0.0,nat_newhope.png,Three Edge Diff,Three Edge Six Edge,US,67cf70ec9741a100ffc7f570,old
414.3,shortestpath_phase,nat_gatlinburg.png,49.0,nat_hanover.png,nat_cornwall.png,1.0,nat_hanover.png,One Edge Diff,Five Edge Six Edge,US,67cf70ec9741a100ffc7f570,old
1239.7,shortestpath_phase,nat_cornwall.png,50.0,mm_carmel.png,nat_racine.png,0.0,mm_carmel.png,One Edge Diff,Five Edge Six Edge,US,67cf70ec9741a100ffc7f570,old
529.4,shortestpath_phase,mm_leesburg.png,50.0,nat_racine.png,mm_westpalmbeach.png,1.0,mm_westpalmbeach.png,Two Edge Diff,Two Edge Four Edge,US,67cf70ec9741a100ffc7f570,old
241.9,shortestpath_phase,nat_gatlinburg.png,50.0,mm_westpalmbeach.png,nat_huntsville.png,1.0,nat_huntsville.png,One Edge Diff,Four Edge Five Edge,US,67cf70ec9741a100ffc7f570,old
226.5,shortestpath_phase,mm_westpalmbeach.png,50.0,nat_racine.png,nat_peoria.png,1.0,nat_peoria.png,Four Edge Diff,Two Edge Six Edge,US,67cf70ec9741a100ffc7f570,old
233.2,shortestpath_phase,mm_hotsprings.png,50.0,nat_peoria.png,nat_racine.png,1.0,nat_racine.png,One Edge Diff,Two Edge Three Edge,US,67cf70ec9741a100ffc7f570,old
2488.399999976158,shortestpath_phase,nat_newhope.png,49.0,mm_huntsville.png,nat_hotsprings.png,0.0,nat_hotsprings.png,Two Edge Diff,Two Edge Four Edge,US,634ef87aec0966557c825573,young
1796.0,shortestpath_phase,mm_boulder.png,49.0,nat_gatlinburg.png,nat_carmel.png,1.0,nat_gatlinburg.png,One Edge Diff,Four Edge Five Edge,US,634ef87aec0966557c825573,young
2492.399999976158,shortestpath_phase,nat_hotsprings.png,50.0,mm_hanover.png,nat_carmel.png,1.0,nat_carmel.png,One Edge Diff,Four Edge Five Edge,US,634ef87aec0966557c825573,young
1273.6999999284744,shortestpath_phase,nat_gatlinburg.png,50.0,mm_leesburg.png,mm_boulder.png,0.0,mm_leesburg.png,Two Edge Diff,Two Edge Four Edge,US,634ef87aec0966557c825573,young
1517.0,shortestpath_phase,nat_westpalmbeach.png,49.0,nat_racine.png,nat_hotsprings.png,1.0,nat_racine.png,One Edge Diff,Four Edge Five Edge,US,634ef87aec0966557c825573,young
1144.6999999284744,shortestpath_phase,nat_gatlinburg.png,50.0,nat_carmel.png,mm_boulder.png,0.0,nat_carmel.png,Two Edge Diff,Two Edge Four Edge,US,634ef87aec0966557c825573,young
2074.3000000715256,shortestpath_phase,nat_racine.png,50.0,mm_leesburg.png,nat_gatlinburg.png,0.0,mm_leesburg.png,One Edge Diff,Two Edge Three Edge,US,634ef87aec0966557c825573,young
2483.399999976158,shortestpath_phase,nat_carmel.png,50.0,mm_boulder.png,nat_gatlinburg.png,1.0,nat_gatlinburg.png,Three Edge Diff,Three Edge Six Edge,US,634ef87aec0966557c825573,young
1451.2000000476835,shortestpath_phase,nat_newhope.png,49.0,mm_hanover.png,nat_hotsprings.png,0.0,nat_hotsprings.png,Three Edge Diff,Three Edge Six Edge,US,634ef87aec0966557c825573,young
1642.1999999284744,shortestpath_phase,mm_peoria.png,49.0,nat_gatlinburg.png,nat_newhope.png,1.0,nat_gatlinburg.png,One Edge Diff,Two Edge Three Edge,US,634ef87aec0966557c825573,young
1772.0,shortestpath_phase,nat_westpalmbeach.png,50.0,mm_boulder.png,nat_shreveport.png,1.0,nat_shreveport.png,Two Edge Diff,Four Edge Six Edge,US,634ef87aec0966557c825573,young
1872.7000000476835,shortestpath_phase,mm_peoria.png,50.0,nat_carmel.png,nat_newhope.png,0.0,nat_carmel.png,One Edge Diff,Two Edge Three Edge,US,634ef87aec0966557c825573,young
1593.100000023842,shortestpath_phase,nat_newhope.png,50.0,nat_hotsprings.png,nat_carmel.png,0.0,nat_hotsprings.png,Three Edge Diff,Three Edge Six Edge,US,634ef87aec0966557c825573,young
2464.7000000476837,shortestpath_phase,mm_boulder.png,49.0,nat_carmel.png,nat_westpalmbeach.png,1.0,nat_carmel.png,One Edge Diff,Five Edge Six Edge,US,634ef87aec0966557c825573,young
1895.600000023842,shortestpath_phase,nat_newhope.png,49.0,nat_shreveport.png,nat_carmel.png,1.0,nat_shreveport.png,Three Edge Diff,Two Edge Five Edge,US,634ef87aec0966557c825573,young
2111.0,shortestpath_phase,mm_hanover.png,50.0,nat_hotsprings.png,mm_boulder.png,0.0,nat_hotsprings.png,One Edge Diff,Five Edge Six Edge,US,634ef87aec0966557c825573,young
2530.399999976158,shortestpath_phase,nat_carmel.png,50.0,nat_hotsprings.png,mm_peoria.png,1.0,mm_peoria.png,Two Edge Diff,Two Edge Four Edge,US,634ef87aec0966557c825573,young
2527.899999976158,shortestpath_phase,mm_boulder.png,49.0,nat_cornwall.png,mm_huntsville.png,0.0,mm_huntsville.png,One Edge Diff,Four Edge Five Edge,US,634ef87aec0966557c825573,young
2665.399999976158,shortestpath_phase,nat_hotsprings.png,49.0,nat_westpalmbeach.png,mm_peoria.png,0.0,mm_peoria.png,Three Edge Diff,Two Edge Five Edge,US,634ef87aec0966557c825573,young
1688.0,shortestpath_phase,nat_newhope.png,50.0,nat_gatlinburg.png,nat_carmel.png,0.0,nat_gatlinburg.png,Two Edge Diff,Three Edge Five Edge,US,634ef87aec0966557c825573,young
2460.100000023842,shortestpath_phase,nat_westpalmbeach.png,49.0,mm_boulder.png,nat_hotsprings.png,0.0,nat_hotsprings.png,One Edge Diff,Five Edge Six Edge,US,634ef87aec0966557c825573,young
1127.6999999284744,shortestpath_phase,nat_racine.png,49.0,mm_hanover.png,nat_carmel.png,0.0,nat_carmel.png,One Edge Diff,Three Edge Four Edge,US,634ef87aec0966557c825573,young
1645.5,shortestpath_phase,nat_newhope.png,49.0,nat_westpalmbeach.png,nat_hotsprings.png,0.0,nat_hotsprings.png,Four Edge Diff,Two Edge Six Edge,US,634ef87aec0966557c825573,young
1745.7000000476835,shortestpath_phase,mm_leesburg.png,50.0,nat_westpalmbeach.png,nat_racine.png,1.0,nat_racine.png,Three Edge Diff,Three Edge Six Edge,US,634ef87aec0966557c825573,young
1276.1999999284744,shortestpath_phase,nat_hotsprings.png,49.0,mm_hanover.png,mm_peoria.png,0.0,mm_peoria.png,Three Edge Diff,Two Edge Five Edge,US,634ef87aec0966557c825573,young
1474.8000000715256,shortestpath_phase,nat_carmel.png,50.0,nat_gatlinburg.png,mm_boulder.png,0.0,nat_gatlinburg.png,Three Edge Diff,Two Edge Five Edge,US,634ef87aec0966557c825573,young
1200.2000000476835,shortestpath_phase,nat_hotsprings.png,49.0,nat_westpalmbeach.png,nat_newhope.png,0.0,nat_newhope.png,Three Edge Diff,Two Edge Five Edge,US,634ef87aec0966557c825573,young
828.1000000238419,shortestpath_phase,nat_westpalmbeach.png,50.0,nat_newhope.png,mm_huntsville.png,1.0,mm_huntsville.png,Four Edge Diff,Two Edge Six Edge,US,634ef87aec0966557c825573,young
1647.8000000715256,shortestpath_phase,nat_hotsprings.png,50.0,nat_westpalmbeach.png,nat_carmel.png,1.0,nat_carmel.png,One Edge Diff,Four Edge Five Edge,US,634ef87aec0966557c825573,young
1049.0,shortestpath_phase,nat_gatlinburg.png,49.0,nat_westpalmbeach.png,mm_boulder.png,1.0,nat_westpalmbeach.png,One Edge Diff,Three Edge Four Edge,US,634ef87aec0966557c825573,young
1084.5999999046326,shortestpath_phase,mm_boulder.png,49.0,nat_racine.png,mm_huntsville.png,1.0,nat_racine.png,Two Edge Diff,Two Edge Four Edge,US,634ef87aec0966557c825573,young
1414.7000000476835,shortestpath_phase,mm_hanover.png,50.0,mm_leesburg.png,mm_boulder.png,0.0,mm_leesburg.png,Two Edge Diff,Four Edge Six Edge,US,634ef87aec0966557c825573,young
1776.2000000476835,shortestpath_phase,mm_boulder.png,50.0,mm_hanover.png,nat_carmel.png,1.0,nat_carmel.png,One Edge Diff,Five Edge Six Edge,US,634ef87aec0966557c825573,young
1919.5,shortestpath_phase,nat_racine.png,49.0,nat_gatlinburg.png,nat_westpalmbeach.png,1.0,nat_gatlinburg.png,One Edge Diff,Three Edge Four Edge,US,634ef87aec0966557c825573,young
1180.2999999523165,shortestpath_phase,mm_hanover.png,50.0,nat_westpalmbeach.png,nat_newhope.png,0.0,nat_westpalmbeach.png,Two Edge Diff,Three Edge Five Edge,US,634ef87aec0966557c825573,young
1658.0,shortestpath_phase,nat_hotsprings.png,49.0,nat_carmel.png,nat_gatlinburg.png,0.0,nat_gatlinburg.png,One Edge Diff,Three Edge Four Edge,US,634ef87aec0966557c825573,young
1157.0,shortestpath_phase,nat_newhope.png,50.0,mm_hanover.png,nat_westpalmbeach.png,0.0,mm_hanover.png,One Edge Diff,Five Edge Six Edge,US,634ef87aec0966557c825573,young
1393.899999976158,shortestpath_phase,nat_hotsprings.png,49.0,nat_gatlinburg.png,mm_hanover.png,1.0,nat_gatlinburg.png,Two Edge Diff,Three Edge Five Edge,US,634ef87aec0966557c825573,young
1732.600000023842,shortestpath_phase,mm_hanover.png,49.0,nat_racine.png,mm_huntsville.png,0.0,mm_huntsville.png,Two Edge Diff,Two Edge Four Edge,US,634ef87aec0966557c825573,young
1327.100000023842,shortestpath_phase,nat_carmel.png,50.0,nat_gatlinburg.png,nat_racine.png,0.0,nat_gatlinburg.png,One Edge Diff,Two Edge Three Edge,US,634ef87aec0966557c825573,young
825.7000000476837,shortestpath_phase,nat_westpalmbeach.png,50.0,nat_hotsprings.png,mm_peoria.png,1.0,mm_peoria.png,Two Edge Diff,Three Edge Five Edge,US,634ef87aec0966557c825573,young
1151.4000000953674,shortestpath_phase,mm_hanover.png,49.0,nat_gatlinburg.png,mm_boulder.png,1.0,nat_gatlinburg.png,Four Edge Diff,Two Edge Six Edge,US,634ef87aec0966557c825573,young
1285.3000000715256,shortestpath_phase,nat_westpalmbeach.png,49.0,nat_shreveport.png,mm_leesburg.png,1.0,nat_shreveport.png,One Edge Diff,Four Edge Five Edge,US,634ef87aec0966557c825573,young
1099.7000000476835,shortestpath_phase,mm_hanover.png,49.0,mm_boulder.png,nat_newhope.png,0.0,nat_newhope.png,One Edge Diff,Five Edge Six Edge,US,634ef87aec0966557c825573,young
581.5,shortestpath_phase,mm_boulder.png,50.0,mm_leesburg.png,mm_hanover.png,0.0,mm_leesburg.png,Four Edge Diff,Two Edge Six Edge,US,634ef87aec0966557c825573,young
639.2000000476837,shortestpath_phase,mm_hanover.png,50.0,nat_gatlinburg.png,nat_newhope.png,0.0,nat_gatlinburg.png,Three Edge Diff,Two Edge Five Edge,US,634ef87aec0966557c825573,young
660.3999999761581,shortestpath_phase,nat_newhope.png,49.0,nat_westpalmbeach.png,nat_shreveport.png,0.0,nat_shreveport.png,Four Edge Diff,Two Edge Six Edge,US,634ef87aec0966557c825573,young
569.5,shortestpath_phase,mm_hanover.png,49.0,nat_newhope.png,mm_leesburg.png,0.0,mm_leesburg.png,One Edge Diff,Four Edge Five Edge,US,634ef87aec0966557c825573,young
442.3000000715256,shortestpath_phase,nat_carmel.png,49.0,mm_peoria.png,mm_boulder.png,1.0,mm_peoria.png,Three Edge Diff,Three Edge Six Edge,US,634ef87aec0966557c825573,young
1364.399999976158,shortestpath_phase,nat_shreveport.png,49.0,nat_carmel.png,nat_racine.png,0.0,nat_racine.png,One Edge Diff,Two Edge Three Edge,US,634ef87aec0966557c825573,young
588.5,shortestpath_phase,nat_carmel.png,49.0,mm_boulder.png,mm_peoria.png,0.0,mm_peoria.png,Three Edge Diff,Two Edge Five Edge,US,634ef87aec0966557c825573,young
1428.2000000476835,shortestpath_phase,nat_westpalmbeach.png,50.0,nat_gatlinburg.png,nat_cornwall.png,1.0,nat_cornwall.png,One Edge Diff,Two Edge Three Edge,US,634ef87aec0966557c825573,young
490.0,shortestpath_phase,mm_hanover.png,50.0,nat_hotsprings.png,mm_peoria.png,1.0,mm_peoria.png,Two Edge Diff,Three Edge Five Edge,US,634ef87aec0966557c825573,young
1387.3000000715256,shortestpath_phase,nat_carmel.png,50.0,mm_boulder.png,mm_leesburg.png,1.0,mm_leesburg.png,One Edge Diff,Four Edge Five Edge,US,634ef87aec0966557c825573,young
917.0,shortestpath_phase,nat_newhope.png,50.0,nat_cornwall.png,mm_peoria.png,1.0,mm_peoria.png,One Edge Diff,Three Edge Four Edge,US,634ef87aec0966557c825573,young
150.09999990463257,shortestpath_phase,mm_boulder.png,50.0,mm_leesburg.png,nat_gatlinburg.png,0.0,mm_leesburg.png,Two Edge Diff,Two Edge Four Edge,US,634ef87aec0966557c825573,young
965.399999976158,shortestpath_phase,nat_westpalmbeach.png,50.0,nat_newhope.png,nat_shreveport.png,1.0,nat_shreveport.png,Two Edge Diff,Four Edge Six Edge,US,634ef87aec0966557c825573,young
1211.8000000715256,shortestpath_phase,mm_boulder.png,49.0,nat_westpalmbeach.png,mm_leesburg.png,0.0,mm_leesburg.png,Four Edge Diff,Two Edge Six Edge,US,634ef87aec0966557c825573,young
1540.899999976158,shortestpath_phase,nat_cornwall.png,49.0,nat_shreveport.png,mm_boulder.png,1.0,nat_shreveport.png,Three Edge Diff,Three Edge Six Edge,US,634ef87aec0966557c825573,young
688.0,shortestpath_phase,nat_hotsprings.png,50.0,nat_gatlinburg.png,mm_peoria.png,1.0,mm_peoria.png,One Edge Diff,Two Edge Three Edge,US,634ef87aec0966557c825573,young
1910.399999976158,shortestpath_phase,mm_boulder.png,50.0,nat_racine.png,nat_cornwall.png,0.0,nat_racine.png,Three Edge Diff,Three Edge Six Edge,US,634ef87aec0966557c825573,young
997.899999976158,shortestpath_phase,nat_hotsprings.png,49.0,nat_newhope.png,mm_hanover.png,1.0,nat_newhope.png,Three Edge Diff,Three Edge Six Edge,US,634ef87aec0966557c825573,young
1162.399999976158,shortestpath_phase,mm_hanover.png,49.0,nat_carmel.png,nat_hotsprings.png,1.0,nat_carmel.png,Three Edge Diff,Three Edge Six Edge,US,634ef87aec0966557c825573,young
1198.6999999284744,shortestpath_phase,nat_cornwall.png,49.0,nat_racine.png,nat_hotsprings.png,1.0,nat_racine.png,One Edge Diff,Three Edge Four Edge,US,634ef87aec0966557c825573,young
1295.899999976158,shortestpath_phase,mm_boulder.png,50.0,nat_carmel.png,nat_shreveport.png,1.0,nat_shreveport.png,Two Edge Diff,Three Edge Five Edge,US,634ef87aec0966557c825573,young
1295.5,shortestpath_phase,nat_westpalmbeach.png,50.0,nat_newhope.png,nat_racine.png,1.0,nat_racine.png,Two Edge Diff,Four Edge Six Edge,US,634ef87aec0966557c825573,young
1110.9000000953674,shortestpath_phase,mm_boulder.png,49.0,nat_cornwall.png,mm_leesburg.png,0.0,mm_leesburg.png,Three Edge Diff,Two Edge Five Edge,US,634ef87aec0966557c825573,young
638.2999999523163,shortestpath_phase,nat_carmel.png,49.0,nat_racine.png,mm_peoria.png,0.0,mm_peoria.png,One Edge Diff,Two Edge Three Edge,US,634ef87aec0966557c825573,young
1686.7000000476835,shortestpath_phase,nat_westpalmbeach.png,49.0,nat_newhope.png,mm_leesburg.png,0.0,mm_leesburg.png,One Edge Diff,Five Edge Six Edge,US,634ef87aec0966557c825573,young
523.7000000476837,shortestpath_phase,mm_hanover.png,49.0,mm_huntsville.png,nat_newhope.png,1.0,mm_huntsville.png,Three Edge Diff,Two Edge Five Edge,US,634ef87aec0966557c825573,young
621.8000000715256,shortestpath_phase,nat_newhope.png,50.0,nat_shreveport.png,nat_gatlinburg.png,0.0,nat_shreveport.png,One Edge Diff,Two Edge Three Edge,US,634ef87aec0966557c825573,young
1944.9000000953672,shortestpath_phase,mm_hanover.png,50.0,mm_boulder.png,nat_carmel.png,1.0,nat_carmel.png,Four Edge Diff,Two Edge Six Edge,US,634ef87aec0966557c825573,young
1068.899999976158,shortestpath_phase,nat_westpalmbeach.png,50.0,nat_cornwall.png,nat_newhope.png,0.0,nat_cornwall.png,Four Edge Diff,Two Edge Six Edge,US,634ef87aec0966557c825573,young
759.5,shortestpath_phase,nat_newhope.png,50.0,nat_hotsprings.png,nat_racine.png,0.0,nat_hotsprings.png,One Edge Diff,Two Edge Three Edge,US,634ef87aec0966557c825573,young
716.3999999761581,shortestpath_phase,mm_hanover.png,49.0,nat_hotsprings.png,nat_westpalmbeach.png,0.0,nat_westpalmbeach.png,Two Edge Diff,Three Edge Five Edge,US,634ef87aec0966557c825573,young
647.1000000238419,shortestpath_phase,mm_boulder.png,49.0,nat_racine.png,nat_cornwall.png,1.0,nat_racine.png,Three Edge Diff,Two Edge Five Edge,US,634ef87aec0966557c825573,young
1393.899999976158,shortestpath_phase,nat_westpalmbeach.png,49.0,mm_boulder.png,mm_huntsville.png,0.0,mm_huntsville.png,Four Edge Diff,Two Edge Six Edge,US,634ef87aec0966557c825573,young
1701.600000023842,shortestpath_phase,nat_carmel.png,50.0,mm_hanover.png,nat_newhope.png,0.0,mm_hanover.png,Three Edge Diff,Two Edge Five Edge,US,634ef87aec0966557c825573,young
972.399999976158,shortestpath_phase,nat_westpalmbeach.png,50.0,mm_huntsville.png,mm_leesburg.png,0.0,mm_huntsville.png,Three Edge Diff,Two Edge Five Edge,US,634ef87aec0966557c825573,young
738.7999999523163,shortestpath_phase,mm_hanover.png,50.0,nat_gatlinburg.png,nat_racine.png,0.0,nat_gatlinburg.png,Two Edge Diff,Two Edge Four Edge,US,634ef87aec0966557c825573,young
494.2000000476837,shortestpath_phase,mm_huntsville.png,49.0,mm_boulder.png,mm_leesburg.png,0.0,mm_leesburg.png,One Edge Diff,Three Edge Four Edge,US,634ef87aec0966557c825573,young
542.8999999761581,shortestpath_phase,nat_hotsprings.png,49.0,mm_peoria.png,mm_hanover.png,1.0,mm_peoria.png,Three Edge Diff,Three Edge Six Edge,US,634ef87aec0966557c825573,young
,shortestpath_phase,mm_hanover.png,,nat_racine.png,nat_carmel.png,0.0,nat_carmel.png,Two Edge Diff,Two Edge Four Edge,US,634ef87aec0966557c825573,young
847.2999999523163,shortestpath_phase,nat_westpalmbeach.png,49.0,mm_leesburg.png,mm_boulder.png,1.0,mm_leesburg.png,One Edge Diff,Five Edge Six Edge,US,634ef87aec0966557c825573,young
2349.2999999523163,shortestpath_phase,mm_hanover.png,49.0,nat_gatlinburg.png,nat_hotsprings.png,1.0,nat_gatlinburg.png,Three Edge Diff,Three Edge Six Edge,US,634ef87aec0966557c825573,young
1244.899999976158,shortestpath_phase,mm_boulder.png,49.0,nat_gatlinburg.png,mm_peoria.png,0.0,mm_peoria.png,One Edge Diff,Three Edge Four Edge,US,634ef87aec0966557c825573,young
1167.5,shortestpath_phase,mm_hanover.png,49.0,mm_boulder.png,nat_racine.png,0.0,nat_racine.png,Two Edge Diff,Four Edge Six Edge,US,634ef87aec0966557c825573,young
556.2000000476837,shortestpath_phase,nat_cornwall.png,49.0,nat_westpalmbeach.png,nat_hotsprings.png,1.0,nat_westpalmbeach.png,Two Edge Diff,Two Edge Four Edge,US,634ef87aec0966557c825573,young
571.7999999523163,shortestpath_phase,nat_newhope.png,50.0,mm_huntsville.png,nat_carmel.png,0.0,mm_huntsville.png,One Edge Diff,Four Edge Five Edge,US,634ef87aec0966557c825573,young
316.0,shortestpath_phase,mm_hanover.png,50.0,nat_hotsprings.png,mm_leesburg.png,1.0,mm_leesburg.png,One Edge Diff,Four Edge Five Edge,US,634ef87aec0966557c825573,young
2377.899999976158,shortestpath_phase,nat_westpalmbeach.png,50.0,mm_peoria.png,nat_shreveport.png,0.0,mm_peoria.png,One Edge Diff,Three Edge Four Edge,US,634ef87aec0966557c825573,young
573.5,shortestpath_phase,nat_hotsprings.png,49.0,nat_westpalmbeach.png,nat_cornwall.png,0.0,nat_cornwall.png,One Edge Diff,Four Edge Five Edge,US,634ef87aec0966557c825573,young
413.40000009536743,shortestpath_phase,nat_carmel.png,49.0,nat_gatlinburg.png,mm_leesburg.png,1.0,nat_gatlinburg.png,Two Edge Diff,Two Edge Four Edge,US,634ef87aec0966557c825573,young
1270.2999999523165,shortestpath_phase,nat_westpalmbeach.png,50.0,nat_newhope.png,nat_hotsprings.png,1.0,nat_hotsprings.png,One Edge Diff,Five Edge Six Edge,US,634ef87aec0966557c825573,young
680.7999999523163,shortestpath_phase,mm_boulder.png,50.0,nat_gatlinburg.png,mm_hanover.png,0.0,nat_gatlinburg.png,Two Edge Diff,Four Edge Six Edge,US,634ef87aec0966557c825573,young
1506.3000000715256,shortestpath_phase,nat_westpalmbeach.png,50.0,mm_boulder.png,nat_cornwall.png,1.0,nat_cornwall.png,Four Edge Diff,Two Edge Six Edge,US,634ef87aec0966557c825573,young
1274.399999976158,shortestpath_phase,nat_hotsprings.png,49.0,nat_westpalmbeach.png,mm_huntsville.png,0.0,mm_huntsville.png,Two Edge Diff,Three Edge Five Edge,US,634ef87aec0966557c825573,young
1168.399999976158,shortestpath_phase,mm_leesburg.png,49.0,mm_hanover.png,nat_gatlinburg.png,0.0,nat_gatlinburg.png,Two Edge Diff,Two Edge Four Edge,US,634ef87aec0966557c825573,young
738.4000000953674,shortestpath_phase,nat_shreveport.png,50.0,nat_newhope.png,mm_hanover.png,0.0,nat_newhope.png,One Edge Diff,Two Edge Three Edge,US,634ef87aec0966557c825573,young
575.7000000476837,shortestpath_phase,mm_boulder.png,50.0,nat_racine.png,mm_hanover.png,0.0,nat_racine.png,Four Edge Diff,Two Edge Six Edge,US,634ef87aec0966557c825573,young
1944.5999999046328,shortestpath_phase,nat_newhope.png,50.0,nat_carmel.png,nat_westpalmbeach.png,0.0,nat_carmel.png,One Edge Diff,Five Edge Six Edge,US,634ef87aec0966557c825573,young
599.7000000476837,shortestpath_phase,nat_westpalmbeach.png,50.0,mm_boulder.png,nat_racine.png,1.0,nat_racine.png,Two Edge Diff,Four Edge Six Edge,US,634ef87aec0966557c825573,young
339.3000000715256,shortestpath_phase,mm_boulder.png,49.0,nat_cornwall.png,mm_hanover.png,1.0,nat_cornwall.png,One Edge Diff,Five Edge Six Edge,US,634ef87aec0966557c825573,young
354.10000002384186,shortestpath_phase,nat_racine.png,49.0,nat_westpalmbeach.png,nat_newhope.png,0.0,nat_newhope.png,One Edge Diff,Three Edge Four Edge,US,634ef87aec0966557c825573,young
460.0,shortestpath_phase,mm_boulder.png,49.0,nat_westpalmbeach.png,mm_huntsville.png,0.0,mm_huntsville.png,Two Edge Diff,Four Edge Six Edge,US,634ef87aec0966557c825573,young
1673.899999976158,shortestpath_phase,nat_newhope.png,49.0,mm_hanover.png,nat_cornwall.png,0.0,nat_cornwall.png,One Edge Diff,Four Edge Five Edge,US,634ef87aec0966557c825573,young
198.39999997615817,shortestpath_phase,mm_boulder.png,49.0,mm_hanover.png,mm_huntsville.png,0.0,mm_huntsville.png,Two Edge Diff,Four Edge Six Edge,US,634ef87aec0966557c825573,young
1132.5,shortestpath_phase,nat_newhope.png,50.0,nat_gatlinburg.png,mm_huntsville.png,0.0,nat_gatlinburg.png,One Edge Diff,Three Edge Four Edge,US,634ef87aec0966557c825573,young
2348.6999999284744,shortestpath_phase,mm_boulder.png,49.0,nat_racine.png,nat_westpalmbeach.png,1.0,nat_racine.png,Four Edge Diff,Two Edge Six Edge,US,634ef87aec0966557c825573,young
1412.100000023842,shortestpath_phase,nat_newhope.png,49.0,nat_racine.png,nat_shreveport.png,0.0,nat_shreveport.png,One Edge Diff,Two Edge Three Edge,US,634ef87aec0966557c825573,young
2109.099999904633,shortestpath_phase,nat_carmel.png,50.0,nat_racine.png,nat_hotsprings.png,0.0,nat_racine.png,One Edge Diff,Three Edge Four Edge,US,634ef87aec0966557c825573,young
2352.7000000476837,shortestpath_phase,mm_boulder.png,49.0,nat_cornwall.png,nat_westpalmbeach.png,1.0,nat_cornwall.png,One Edge Diff,Five Edge Six Edge,US,634ef87aec0966557c825573,young
1659.3000000715256,shortestpath_phase,mm_hanover.png,50.0,mm_huntsville.png,mm_boulder.png,0.0,mm_huntsville.png,Four Edge Diff,Two Edge Six Edge,US,634ef87aec0966557c825573,young
1330.399999976158,shortestpath_phase,mm_leesburg.png,49.0,nat_cornwall.png,nat_westpalmbeach.png,1.0,nat_cornwall.png,Two Edge Diff,Three Edge Five Edge,US,634ef87aec0966557c825573,young
2298.399999976158,shortestpath_phase,mm_boulder.png,49.0,nat_gatlinburg.png,nat_westpalmbeach.png,1.0,nat_gatlinburg.png,Two Edge Diff,Four Edge Six Edge,US,634ef87aec0966557c825573,young
1265.0999999046326,shortestpath_phase,nat_newhope.png,50.0,mm_hanover.png,nat_shreveport.png,1.0,nat_shreveport.png,Three Edge Diff,Three Edge Six Edge,US,634ef87aec0966557c825573,young
808.5999999046326,shortestpath_phase,mm_boulder.png,50.0,mm_peoria.png,nat_cornwall.png,0.0,mm_peoria.png,Two Edge Diff,Three Edge Five Edge,US,634ef87aec0966557c825573,young
764.8000000715256,shortestpath_phase,nat_newhope.png,49.0,nat_racine.png,nat_carmel.png,1.0,nat_racine.png,Two Edge Diff,Three Edge Five Edge,US,634ef87aec0966557c825573,young
2175.900000095367,shortestpath_phase,,49.0,,,1.0,,Two Edge Diff,Four Edge Six Edge,US,634ef87aec0966557c825573,young
1959.0,shortestpath_phase,,50.0,,,1.0,,Two Edge Diff,Three Edge Five Edge,US,634ef87aec0966557c825573,young
547.5,shortestpath_phase,,50.0,,,1.0,,Two Edge Diff,Four Edge Six Edge,US,634ef87aec0966557c825573,young
2929.2999999523163,shortestpath_phase,nat_gatlinburg.png,50.0,mm_leesburg.png,nat_cornwall.png,1.0,nat_cornwall.png,Four Edge Diff,Two Edge Six Edge,US,67dff4b10f363a1974679065,old
2190.300000190735,shortestpath_phase,mm_hanover.png,49.0,mm_hotsprings.png,nat_cornwall.png,1.0,mm_hotsprings.png,Three Edge Diff,Three Edge Six Edge,US,67dff4b10f363a1974679065,old
2543.0,shortestpath_phase,nat_newhope.png,50.0,nat_gatlinburg.png,nat_westpalmbeach.png,1.0,nat_westpalmbeach.png,One Edge Diff,Four Edge Five Edge,US,67dff4b10f363a1974679065,old
1946.0,shortestpath_phase,mm_hanover.png,49.0,mm_leesburg.png,mm_hotsprings.png,0.0,mm_hotsprings.png,One Edge Diff,Two Edge Three Edge,US,67dff4b10f363a1974679065,old
1825.2999999523165,shortestpath_phase,nat_newhope.png,49.0,nat_shreveport.png,nat_gatlinburg.png,1.0,nat_shreveport.png,Three Edge Diff,Two Edge Five Edge,US,67dff4b10f363a1974679065,old
1872.0,shortestpath_phase,mm_hanover.png,50.0,nat_huntsville.png,nat_westpalmbeach.png,1.0,nat_westpalmbeach.png,Two Edge Diff,Four Edge Six Edge,US,67dff4b10f363a1974679065,old
1893.6000001430511,shortestpath_phase,mm_leesburg.png,49.0,nat_gatlinburg.png,nat_peoria.png,0.0,nat_peoria.png,Four Edge Diff,Two Edge Six Edge,US,67dff4b10f363a1974679065,old
2184.300000190735,shortestpath_phase,mm_hanover.png,49.0,nat_gatlinburg.png,nat_newhope.png,0.0,nat_newhope.png,Three Edge Diff,Two Edge Five Edge,US,67dff4b10f363a1974679065,old
2966.0,shortestpath_phase,mm_leesburg.png,50.0,nat_westpalmbeach.png,nat_gatlinburg.png,0.0,nat_westpalmbeach.png,One Edge Diff,Five Edge Six Edge,US,67dff4b10f363a1974679065,old
2228.400000095367,shortestpath_phase,nat_newhope.png,49.0,nat_boulder.png,nat_huntsville.png,1.0,nat_boulder.png,Two Edge Diff,Three Edge Five Edge,US,67dff4b10f363a1974679065,old
2550.2999999523163,shortestpath_phase,nat_gatlinburg.png,50.0,mm_hanover.png,nat_peoria.png,1.0,nat_peoria.png,One Edge Diff,Four Edge Five Edge,US,67dff4b10f363a1974679065,old
2998.2999999523163,shortestpath_phase,mm_hanover.png,49.0,nat_boulder.png,nat_cornwall.png,1.0,nat_boulder.png,Two Edge Diff,Three Edge Five Edge,US,67dff4b10f363a1974679065,old
2543.2000000476837,shortestpath_phase,nat_newhope.png,50.0,nat_shreveport.png,nat_huntsville.png,0.0,nat_shreveport.png,Three Edge Diff,Three Edge Six Edge,US,67dff4b10f363a1974679065,old
2533.600000143051,shortestpath_phase,mm_leesburg.png,49.0,nat_westpalmbeach.png,nat_peoria.png,0.0,nat_peoria.png,Three Edge Diff,Two Edge Five Edge,US,67dff4b10f363a1974679065,old
2261.900000095367,shortestpath_phase,nat_boulder.png,50.0,mm_leesburg.png,nat_shreveport.png,1.0,nat_shreveport.png,Two Edge Diff,Two Edge Four Edge,US,67dff4b10f363a1974679065,old
1812.9000000953672,shortestpath_phase,mm_hanover.png,49.0,mm_carmel.png,nat_huntsville.png,1.0,mm_carmel.png,Two Edge Diff,Four Edge Six Edge,US,67dff4b10f363a1974679065,old
2407.0,shortestpath_phase,nat_peoria.png,50.0,nat_huntsville.png,nat_cornwall.png,1.0,nat_cornwall.png,One Edge Diff,Three Edge Four Edge,US,67dff4b10f363a1974679065,old
1667.0999999046326,shortestpath_phase,mm_carmel.png,49.0,nat_huntsville.png,mm_hanover.png,1.0,nat_huntsville.png,Two Edge Diff,Two Edge Four Edge,US,67dff4b10f363a1974679065,old
2481.2000000476837,shortestpath_phase,mm_hanover.png,49.0,nat_shreveport.png,nat_gatlinburg.png,1.0,nat_shreveport.png,Two Edge Diff,Three Edge Five Edge,US,67dff4b10f363a1974679065,old
2109.2000000476837,shortestpath_phase,mm_leesburg.png,50.0,nat_westpalmbeach.png,mm_racine.png,1.0,mm_racine.png,Three Edge Diff,Two Edge Five Edge,US,67dff4b10f363a1974679065,old
2435.599999904633,shortestpath_phase,mm_carmel.png,50.0,mm_leesburg.png,nat_gatlinburg.png,1.0,nat_gatlinburg.png,Two Edge Diff,Two Edge Four Edge,US,67dff4b10f363a1974679065,old
2623.900000095367,shortestpath_phase,mm_leesburg.png,50.0,nat_gatlinburg.png,nat_boulder.png,1.0,nat_boulder.png,Two Edge Diff,Four Edge Six Edge,US,67dff4b10f363a1974679065,old
2462.5,shortestpath_phase,mm_hanover.png,49.0,nat_newhope.png,nat_huntsville.png,1.0,nat_newhope.png,Four Edge Diff,Two Edge Six Edge,US,67dff4b10f363a1974679065,old
3368.2000000476837,shortestpath_phase,mm_leesburg.png,50.0,nat_westpalmbeach.png,nat_shreveport.png,1.0,nat_shreveport.png,Two Edge Diff,Three Edge Five Edge,US,67dff4b10f363a1974679065,old
2318.0,shortestpath_phase,nat_gatlinburg.png,49.0,nat_cornwall.png,mm_hanover.png,1.0,nat_cornwall.png,Three Edge Diff,Two Edge Five Edge,US,67dff4b10f363a1974679065,old
3289.2000000476837,shortestpath_phase,nat_shreveport.png,49.0,mm_hanover.png,nat_westpalmbeach.png,0.0,nat_westpalmbeach.png,One Edge Diff,Two Edge Three Edge,US,67dff4b10f363a1974679065,old
2273.699999809265,shortestpath_phase,nat_boulder.png,49.0,mm_hanover.png,mm_leesburg.png,1.0,mm_hanover.png,One Edge Diff,Three Edge Four Edge,US,67dff4b10f363a1974679065,old
1878.4000000953672,shortestpath_phase,nat_westpalmbeach.png,50.0,mm_leesburg.png,mm_hotsprings.png,1.0,mm_hotsprings.png,Three Edge Diff,Two Edge Five Edge,US,67dff4b10f363a1974679065,old
2022.5,shortestpath_phase,mm_racine.png,49.0,nat_gatlinburg.png,mm_leesburg.png,0.0,mm_leesburg.png,Two Edge Diff,Two Edge Four Edge,US,67dff4b10f363a1974679065,old
3113.7999999523163,shortestpath_phase,nat_huntsville.png,49.0,mm_leesburg.png,mm_hotsprings.png,0.0,mm_hotsprings.png,Two Edge Diff,Four Edge Six Edge,US,67dff4b10f363a1974679065,old
2071.0,shortestpath_phase,nat_gatlinburg.png,50.0,mm_racine.png,nat_newhope.png,0.0,mm_racine.png,One Edge Diff,Four Edge Five Edge,US,67dff4b10f363a1974679065,old
1984.7999999523165,shortestpath_phase,mm_leesburg.png,50.0,nat_gatlinburg.png,nat_cornwall.png,1.0,nat_cornwall.png,One Edge Diff,Five Edge Six Edge,US,67dff4b10f363a1974679065,old
1739.2000000476835,shortestpath_phase,nat_peoria.png,49.0,mm_hotsprings.png,nat_westpalmbeach.png,1.0,mm_hotsprings.png,One Edge Diff,Two Edge Three Edge,US,67dff4b10f363a1974679065,old
1651.7999999523165,shortestpath_phase,nat_cornwall.png,49.0,nat_shreveport.png,mm_leesburg.png,1.0,nat_shreveport.png,Three Edge Diff,Two Edge Five Edge,US,67dff4b10f363a1974679065,old
1865.5,shortestpath_phase,mm_leesburg.png,49.0,nat_westpalmbeach.png,nat_huntsville.png,1.0,nat_westpalmbeach.png,One Edge Diff,Five Edge Six Edge,US,67dff4b10f363a1974679065,old
1522.5999999046326,shortestpath_phase,nat_cornwall.png,50.0,mm_leesburg.png,mm_racine.png,1.0,mm_racine.png,One Edge Diff,Four Edge Five Edge,US,67dff4b10f363a1974679065,old
1731.3999998569489,shortestpath_phase,nat_peoria.png,49.0,nat_cornwall.png,mm_leesburg.png,0.0,mm_leesburg.png,One Edge Diff,Two Edge Three Edge,US,67dff4b10f363a1974679065,old
2188.099999904633,shortestpath_phase,nat_huntsville.png,49.0,nat_westpalmbeach.png,nat_newhope.png,1.0,nat_westpalmbeach.png,Three Edge Diff,Three Edge Six Edge,US,67dff4b10f363a1974679065,old
2420.899999856949,shortestpath_phase,mm_leesburg.png,50.0,mm_carmel.png,mm_racine.png,1.0,mm_racine.png,Two Edge Diff,Two Edge Four Edge,US,67dff4b10f363a1974679065,old
2020.0999999046328,shortestpath_phase,mm_hanover.png,49.0,nat_westpalmbeach.png,nat_boulder.png,0.0,nat_boulder.png,One Edge Diff,Three Edge Four Edge,US,67dff4b10f363a1974679065,old
2247.2999999523163,shortestpath_phase,mm_leesburg.png,49.0,nat_gatlinburg.png,mm_carmel.png,0.0,mm_carmel.png,Two Edge Diff,Four Edge Six Edge,US,67dff4b10f363a1974679065,old
1785.5,shortestpath_phase,nat_gatlinburg.png,49.0,mm_hanover.png,mm_leesburg.png,1.0,mm_hanover.png,One Edge Diff,Five Edge Six Edge,US,67dff4b10f363a1974679065,old
2394.7000000476837,shortestpath_phase,nat_cornwall.png,50.0,mm_leesburg.png,nat_newhope.png,1.0,nat_newhope.png,One Edge Diff,Four Edge Five Edge,US,67dff4b10f363a1974679065,old
2249.5,shortestpath_phase,mm_hotsprings.png,49.0,nat_cornwall.png,mm_hanover.png,0.0,mm_hanover.png,One Edge Diff,Two Edge Three Edge,US,67dff4b10f363a1974679065,old
2368.100000143051,shortestpath_phase,nat_gatlinburg.png,50.0,mm_leesburg.png,nat_boulder.png,1.0,nat_boulder.png,Four Edge Diff,Two Edge Six Edge,US,67dff4b10f363a1974679065,old
2643.900000095367,shortestpath_phase,nat_newhope.png,50.0,mm_hanover.png,nat_huntsville.png,0.0,mm_hanover.png,Three Edge Diff,Three Edge Six Edge,US,67dff4b10f363a1974679065,old
1964.0,shortestpath_phase,nat_gatlinburg.png,49.0,mm_racine.png,nat_shreveport.png,0.0,nat_shreveport.png,One Edge Diff,Three Edge Four Edge,US,67dff4b10f363a1974679065,old
1746.9000000953674,shortestpath_phase,nat_newhope.png,49.0,mm_hotsprings.png,nat_westpalmbeach.png,1.0,mm_hotsprings.png,Two Edge Diff,Two Edge Four Edge,US,67dff4b10f363a1974679065,old
1709.8000001907349,shortestpath_phase,nat_huntsville.png,50.0,mm_hanover.png,mm_racine.png,1.0,mm_racine.png,One Edge Diff,Five Edge Six Edge,US,67dff4b10f363a1974679065,old
2277.2000000476837,shortestpath_phase,nat_cornwall.png,50.0,mm_hotsprings.png,nat_newhope.png,0.0,mm_hotsprings.png,One Edge Diff,Three Edge Four Edge,US,67dff4b10f363a1974679065,old
2258.5,shortestpath_phase,nat_gatlinburg.png,49.0,nat_peoria.png,mm_leesburg.png,1.0,nat_peoria.png,Two Edge Diff,Four Edge Six Edge,US,67dff4b10f363a1974679065,old
2319.0,shortestpath_phase,nat_newhope.png,49.0,nat_cornwall.png,mm_hanover.png,0.0,mm_hanover.png,Two Edge Diff,Two Edge Four Edge,US,67dff4b10f363a1974679065,old
3023.5,shortestpath_phase,nat_gatlinburg.png,50.0,nat_cornwall.png,mm_hanover.png,0.0,nat_cornwall.png,Three Edge Diff,Three Edge Six Edge,US,67dff4b10f363a1974679065,old
1940.6000001430511,shortestpath_phase,mm_hotsprings.png,49.0,mm_hanover.png,mm_leesburg.png,1.0,mm_hanover.png,One Edge Diff,Two Edge Three Edge,US,67dff4b10f363a1974679065,old
1514.9000000953674,shortestpath_phase,mm_leesburg.png,49.0,mm_racine.png,nat_cornwall.png,1.0,mm_racine.png,Three Edge Diff,Three Edge Six Edge,US,67dff4b10f363a1974679065,old
1449.5,shortestpath_phase,nat_huntsville.png,49.0,nat_shreveport.png,nat_westpalmbeach.png,0.0,nat_westpalmbeach.png,One Edge Diff,Two Edge Three Edge,US,67dff4b10f363a1974679065,old
1937.8999998569489,shortestpath_phase,mm_leesburg.png,50.0,nat_huntsville.png,mm_carmel.png,1.0,mm_carmel.png,Two Edge Diff,Four Edge Six Edge,US,67dff4b10f363a1974679065,old
1796.5999999046326,shortestpath_phase,nat_westpalmbeach.png,50.0,mm_racine.png,nat_newhope.png,0.0,mm_racine.png,One Edge Diff,Three Edge Four Edge,US,67dff4b10f363a1974679065,old
1429.5,shortestpath_phase,mm_leesburg.png,49.0,nat_cornwall.png,mm_hanover.png,0.0,mm_hanover.png,Two Edge Diff,Three Edge Five Edge,US,67dff4b10f363a1974679065,old
1754.0999999046326,shortestpath_phase,mm_hotsprings.png,49.0,nat_newhope.png,nat_huntsville.png,1.0,nat_newhope.png,Two Edge Diff,Two Edge Four Edge,US,67dff4b10f363a1974679065,old
1367.5999999046326,shortestpath_phase,mm_leesburg.png,49.0,nat_cornwall.png,nat_huntsville.png,1.0,nat_cornwall.png,One Edge Diff,Five Edge Six Edge,US,67dff4b10f363a1974679065,old
1842.5999999046328,shortestpath_phase,nat_newhope.png,49.0,mm_hanover.png,nat_huntsville.png,1.0,mm_hanover.png,Three Edge Diff,Two Edge Five Edge,US,67dff4b10f363a1974679065,old
1572.2000000476835,shortestpath_phase,nat_westpalmbeach.png,50.0,mm_leesburg.png,nat_shreveport.png,1.0,nat_shreveport.png,Three Edge Diff,Three Edge Six Edge,US,67dff4b10f363a1974679065,old
2132.400000095367,shortestpath_phase,nat_gatlinburg.png,50.0,mm_leesburg.png,nat_newhope.png,1.0,nat_newhope.png,One Edge Diff,Five Edge Six Edge,US,67dff4b10f363a1974679065,old
2323.0,shortestpath_phase,nat_huntsville.png,50.0,mm_leesburg.png,mm_carmel.png,1.0,mm_carmel.png,Four Edge Diff,Two Edge Six Edge,US,67dff4b10f363a1974679065,old
1967.2000000476835,shortestpath_phase,nat_westpalmbeach.png,50.0,mm_leesburg.png,mm_racine.png,1.0,mm_racine.png,Two Edge Diff,Three Edge Five Edge,US,67dff4b10f363a1974679065,old
2302.2000000476837,shortestpath_phase,nat_huntsville.png,49.0,nat_newhope.png,mm_hanover.png,1.0,nat_newhope.png,One Edge Diff,Five Edge Six Edge,US,67dff4b10f363a1974679065,old
1874.0,shortestpath_phase,nat_gatlinburg.png,50.0,mm_hanover.png,mm_carmel.png,1.0,mm_carmel.png,Three Edge Diff,Two Edge Five Edge,US,67dff4b10f363a1974679065,old
2029.5,shortestpath_phase,mm_leesburg.png,50.0,mm_racine.png,nat_huntsville.png,0.0,mm_racine.png,Four Edge Diff,Two Edge Six Edge,US,67dff4b10f363a1974679065,old
1846.2999999523165,shortestpath_phase,nat_newhope.png,49.0,mm_carmel.png,nat_huntsville.png,1.0,mm_carmel.png,Two Edge Diff,Three Edge Five Edge,US,67dff4b10f363a1974679065,old
2062.7000000476837,shortestpath_phase,mm_hanover.png,49.0,nat_huntsville.png,mm_hotsprings.png,0.0,mm_hotsprings.png,Four Edge Diff,Two Edge Six Edge,US,67dff4b10f363a1974679065,old
2169.2000000476837,shortestpath_phase,nat_huntsville.png,49.0,mm_hanover.png,nat_westpalmbeach.png,0.0,nat_westpalmbeach.png,Four Edge Diff,Two Edge Six Edge,US,67dff4b10f363a1974679065,old
2120.7999999523163,shortestpath_phase,nat_cornwall.png,50.0,mm_hanover.png,mm_hotsprings.png,1.0,mm_hotsprings.png,Two Edge Diff,Three Edge Five Edge,US,67dff4b10f363a1974679065,old
1633.0,shortestpath_phase,nat_huntsville.png,49.0,nat_newhope.png,nat_shreveport.png,0.0,nat_shreveport.png,Two Edge Diff,Three Edge Five Edge,US,67dff4b10f363a1974679065,old
2165.2999999523163,shortestpath_phase,mm_hanover.png,50.0,nat_cornwall.png,nat_huntsville.png,0.0,nat_cornwall.png,One Edge Diff,Five Edge Six Edge,US,67dff4b10f363a1974679065,old
2115.400000095367,shortestpath_phase,nat_huntsville.png,49.0,nat_peoria.png,mm_hanover.png,1.0,nat_peoria.png,Two Edge Diff,Four Edge Six Edge,US,67dff4b10f363a1974679065,old
1577.5999999046326,shortestpath_phase,nat_westpalmbeach.png,49.0,nat_shreveport.png,nat_peoria.png,1.0,nat_shreveport.png,One Edge Diff,Two Edge Three Edge,US,67dff4b10f363a1974679065,old
2266.400000095367,shortestpath_phase,nat_huntsville.png,50.0,mm_leesburg.png,nat_peoria.png,1.0,nat_peoria.png,Two Edge Diff,Four Edge Six Edge,US,67dff4b10f363a1974679065,old
1758.7999999523165,shortestpath_phase,mm_leesburg.png,49.0,mm_racine.png,nat_cornwall.png,1.0,mm_racine.png,Three Edge Diff,Two Edge Five Edge,US,67dff4b10f363a1974679065,old
1694.0999999046326,shortestpath_phase,nat_huntsville.png,50.0,mm_hanover.png,mm_carmel.png,1.0,mm_carmel.png,Four Edge Diff,Two Edge Six Edge,US,67dff4b10f363a1974679065,old
2241.0,shortestpath_phase,mm_hanover.png,49.0,nat_boulder.png,nat_gatlinburg.png,1.0,nat_boulder.png,Two Edge Diff,Three Edge Five Edge,US,67dff4b10f363a1974679065,old
2806.2999999523163,shortestpath_phase,nat_huntsville.png,49.0,nat_peoria.png,nat_newhope.png,1.0,nat_peoria.png,One Edge Diff,Four Edge Five Edge,US,67dff4b10f363a1974679065,old
1864.2999999523165,shortestpath_phase,mm_hanover.png,49.0,mm_carmel.png,mm_leesburg.png,0.0,mm_leesburg.png,One Edge Diff,Three Edge Four Edge,US,67dff4b10f363a1974679065,old
1307.8000001907349,shortestpath_phase,nat_huntsville.png,50.0,mm_leesburg.png,nat_westpalmbeach.png,1.0,nat_westpalmbeach.png,Four Edge Diff,Two Edge Six Edge,US,67dff4b10f363a1974679065,old
2072.0,shortestpath_phase,nat_gatlinburg.png,49.0,nat_boulder.png,mm_hanover.png,1.0,nat_boulder.png,Three Edge Diff,Two Edge Five Edge,US,67dff4b10f363a1974679065,old
2094.2000000476837,shortestpath_phase,nat_peoria.png,49.0,mm_leesburg.png,mm_hanover.png,1.0,mm_leesburg.png,One Edge Diff,Two Edge Three Edge,US,67dff4b10f363a1974679065,old
1666.7999999523165,shortestpath_phase,nat_huntsville.png,50.0,mm_leesburg.png,mm_racine.png,1.0,mm_racine.png,One Edge Diff,Five Edge Six Edge,US,67dff4b10f363a1974679065,old
1481.7000000476835,shortestpath_phase,nat_newhope.png,50.0,mm_hotsprings.png,nat_gatlinburg.png,0.0,mm_hotsprings.png,Three Edge Diff,Three Edge Six Edge,US,67dff4b10f363a1974679065,old
1262.7000000476835,shortestpath_phase,nat_peoria.png,49.0,mm_racine.png,nat_huntsville.png,1.0,mm_racine.png,Two Edge Diff,Two Edge Four Edge,US,67dff4b10f363a1974679065,old
1503.7999999523165,shortestpath_phase,mm_hanover.png,49.0,nat_cornwall.png,nat_shreveport.png,0.0,nat_shreveport.png,Two Edge Diff,Three Edge Five Edge,US,67dff4b10f363a1974679065,old
1448.9000000953674,shortestpath_phase,mm_leesburg.png,49.0,mm_racine.png,nat_gatlinburg.png,1.0,mm_racine.png,Four Edge Diff,Two Edge Six Edge,US,67dff4b10f363a1974679065,old
1965.9000000953672,shortestpath_phase,nat_gatlinburg.png,50.0,mm_hanover.png,nat_shreveport.png,1.0,nat_shreveport.png,Two Edge Diff,Three Edge Five Edge,US,67dff4b10f363a1974679065,old
2083.699999809265,shortestpath_phase,mm_leesburg.png,50.0,nat_westpalmbeach.png,nat_boulder.png,1.0,nat_boulder.png,One Edge Diff,Four Edge Five Edge,US,67dff4b10f363a1974679065,old
1234.3000001907349,shortestpath_phase,nat_cornwall.png,49.0,mm_hanover.png,mm_racine.png,0.0,mm_racine.png,One Edge Diff,Four Edge Five Edge,US,67dff4b10f363a1974679065,old
1181.2999999523165,shortestpath_phase,nat_newhope.png,49.0,nat_westpalmbeach.png,nat_huntsville.png,1.0,nat_westpalmbeach.png,One Edge Diff,Four Edge Five Edge,US,67dff4b10f363a1974679065,old
683.6000001430511,shortestpath_phase,mm_leesburg.png,50.0,mm_carmel.png,mm_hanover.png,1.0,mm_hanover.png,One Edge Diff,Three Edge Four Edge,US,67dff4b10f363a1974679065,old
2189.5,shortestpath_phase,nat_huntsville.png,49.0,mm_hanover.png,mm_hotsprings.png,0.0,mm_hotsprings.png,Two Edge Diff,Four Edge Six Edge,US,67dff4b10f363a1974679065,old
2083.5,shortestpath_phase,nat_cornwall.png,49.0,mm_leesburg.png,nat_shreveport.png,0.0,nat_shreveport.png,Three Edge Diff,Three Edge Six Edge,US,67dff4b10f363a1974679065,old
1664.7000000476835,shortestpath_phase,nat_huntsville.png,50.0,mm_leesburg.png,nat_newhope.png,1.0,nat_newhope.png,One Edge Diff,Five Edge Six Edge,US,67dff4b10f363a1974679065,old
971.5,shortestpath_phase,nat_peoria.png,49.0,nat_cornwall.png,mm_carmel.png,0.0,mm_carmel.png,One Edge Diff,Two Edge Three Edge,US,67dff4b10f363a1974679065,old
1593.1000001430511,shortestpath_phase,nat_boulder.png,50.0,nat_huntsville.png,mm_racine.png,1.0,mm_racine.png,One Edge Diff,Two Edge Three Edge,US,67dff4b10f363a1974679065,old
1449.6000001430511,shortestpath_phase,nat_gatlinburg.png,49.0,nat_peoria.png,nat_newhope.png,1.0,nat_peoria.png,One Edge Diff,Four Edge Five Edge,US,67dff4b10f363a1974679065,old
1729.1000001430511,shortestpath_phase,nat_boulder.png,49.0,nat_newhope.png,mm_leesburg.png,1.0,nat_newhope.png,One Edge Diff,Three Edge Four Edge,US,67dff4b10f363a1974679065,old
2003.7000000476835,shortestpath_phase,nat_huntsville.png,49.0,nat_gatlinburg.png,mm_hotsprings.png,1.0,nat_gatlinburg.png,One Edge Diff,Three Edge Four Edge,US,67dff4b10f363a1974679065,old
2224.399999856949,shortestpath_phase,mm_leesburg.png,50.0,nat_peoria.png,mm_carmel.png,0.0,nat_peoria.png,Two Edge Diff,Two Edge Four Edge,US,67dff4b10f363a1974679065,old
1630.1000001430511,shortestpath_phase,nat_gatlinburg.png,50.0,mm_racine.png,mm_hotsprings.png,1.0,mm_hotsprings.png,One Edge Diff,Three Edge Four Edge,US,67dff4b10f363a1974679065,old
2076.5,shortestpath_phase,nat_huntsville.png,49.0,nat_westpalmbeach.png,mm_racine.png,1.0,nat_westpalmbeach.png,Three Edge Diff,Three Edge Six Edge,US,67dff4b10f363a1974679065,old
1709.0,shortestpath_phase,nat_gatlinburg.png,50.0,mm_carmel.png,mm_leesburg.png,0.0,mm_carmel.png,Four Edge Diff,Two Edge Six Edge,US,67dff4b10f363a1974679065,old
1904.4000000953672,shortestpath_phase,nat_newhope.png,50.0,nat_cornwall.png,nat_huntsville.png,0.0,nat_cornwall.png,One Edge Diff,Four Edge Five Edge,US,67dff4b10f363a1974679065,old
1361.6999998092651,shortestpath_phase,nat_gatlinburg.png,49.0,mm_leesburg.png,mm_racine.png,0.0,mm_racine.png,Two Edge Diff,Four Edge Six Edge,US,67dff4b10f363a1974679065,old
1547.0,shortestpath_phase,nat_peoria.png,50.0,nat_gatlinburg.png,nat_cornwall.png,1.0,nat_cornwall.png,One Edge Diff,Three Edge Four Edge,US,67dff4b10f363a1974679065,old
1504.8999998569489,shortestpath_phase,nat_westpalmbeach.png,50.0,mm_hanover.png,nat_shreveport.png,1.0,nat_shreveport.png,Two Edge Diff,Two Edge Four Edge,US,67dff4b10f363a1974679065,old
1474.4000000953674,shortestpath_phase,mm_racine.png,50.0,nat_peoria.png,nat_westpalmbeach.png,0.0,nat_peoria.png,One Edge Diff,Two Edge Three Edge,US,67dff4b10f363a1974679065,old
1257.7999999523165,shortestpath_phase,nat_newhope.png,49.0,mm_hanover.png,nat_westpalmbeach.png,1.0,mm_hanover.png,Two Edge Diff,Two Edge Four Edge,US,67dff4b10f363a1974679065,old
1493.1000001430511,shortestpath_phase,nat_gatlinburg.png,50.0,mm_hanover.png,mm_carmel.png,1.0,mm_carmel.png,Three Edge Diff,Three Edge Six Edge,US,67dff4b10f363a1974679065,old
1335.0,shortestpath_phase,mm_leesburg.png,50.0,nat_huntsville.png,nat_boulder.png,1.0,nat_boulder.png,Two Edge Diff,Four Edge Six Edge,US,67dff4b10f363a1974679065,old
1447.7000000476835,shortestpath_phase,nat_huntsville.png,49.0,nat_westpalmbeach.png,nat_newhope.png,1.0,nat_westpalmbeach.png,Three Edge Diff,Two Edge Five Edge,US,67dff4b10f363a1974679065,old
1888.2999999523165,shortestpath_phase,mm_leesburg.png,49.0,nat_peoria.png,nat_huntsville.png,1.0,nat_peoria.png,Four Edge Diff,Two Edge Six Edge,US,67dff4b10f363a1974679065,old
1831.2999999523165,shortestpath_phase,nat_westpalmbeach.png,49.0,nat_newhope.png,mm_leesburg.png,1.0,nat_newhope.png,One Edge Diff,Four Edge Five Edge,US,67dff4b10f363a1974679065,old
1683.7000000476835,shortestpath_phase,mm_hanover.png,49.0,nat_huntsville.png,nat_gatlinburg.png,0.0,nat_gatlinburg.png,One Edge Diff,Five Edge Six Edge,US,67dff4b10f363a1974679065,old
1686.5,shortestpath_phase,nat_huntsville.png,50.0,nat_newhope.png,mm_carmel.png,1.0,mm_carmel.png,Three Edge Diff,Three Edge Six Edge,US,67dff4b10f363a1974679065,old
5618.099999964237,shortestpath_phase,nat_racine.png,50.0,mm_hanover.png,mm_hotsprings.png,1.0,mm_hotsprings.png,Two Edge Diff,Four Edge Six Edge,US,67eec1cf02e625e0d469f1ed,young
2280.400000035763,shortestpath_phase,mm_gatlinburg.png,49.0,mm_peoria.png,nat_shreveport.png,1.0,mm_peoria.png,One Edge Diff,Four Edge Five Edge,US,67eec1cf02e625e0d469f1ed,young
2662.400000035763,shortestpath_phase,nat_shreveport.png,49.0,mm_gatlinburg.png,nat_racine.png,0.0,nat_racine.png,Two Edge Diff,Three Edge Five Edge,US,67eec1cf02e625e0d469f1ed,young
2391.699999988079,shortestpath_phase,mm_boulder.png,50.0,mm_hotsprings.png,nat_newhope.png,0.0,mm_hotsprings.png,Two Edge Diff,Two Edge Four Edge,US,67eec1cf02e625e0d469f1ed,young
1979.5999999642372,shortestpath_phase,mm_hanover.png,49.0,mm_leesburg.png,nat_racine.png,1.0,mm_leesburg.png,Four Edge Diff,Two Edge Six Edge,US,67eec1cf02e625e0d469f1ed,young
2146.399999976158,shortestpath_phase,nat_racine.png,49.0,mm_hanover.png,mm_peoria.png,0.0,mm_peoria.png,Four Edge Diff,Two Edge Six Edge,US,67eec1cf02e625e0d469f1ed,young
3586.300000011921,shortestpath_phase,mm_leesburg.png,49.0,nat_newhope.png,nat_racine.png,1.0,nat_newhope.png,Two Edge Diff,Three Edge Five Edge,US,67eec1cf02e625e0d469f1ed,young
1978.199999988079,shortestpath_phase,mm_peoria.png,50.0,nat_racine.png,mm_leesburg.png,0.0,nat_racine.png,One Edge Diff,Two Edge Three Edge,US,67eec1cf02e625e0d469f1ed,young
1823.800000011921,shortestpath_phase,mm_huntsville.png,49.0,nat_shreveport.png,mm_leesburg.png,1.0,nat_shreveport.png,Two Edge Diff,Two Edge Four Edge,US,67eec1cf02e625e0d469f1ed,young
2366.400000035763,shortestpath_phase,nat_newhope.png,50.0,mm_hotsprings.png,mm_leesburg.png,0.0,mm_hotsprings.png,One Edge Diff,Two Edge Three Edge,US,67eec1cf02e625e0d469f1ed,young
1202.5,shortestpath_phase,mm_huntsville.png,49.0,nat_carmel.png,mm_boulder.png,1.0,nat_carmel.png,Three Edge Diff,Three Edge Six Edge,US,67eec1cf02e625e0d469f1ed,young
2926.5,shortestpath_phase,nat_shreveport.png,49.0,mm_hanover.png,mm_hotsprings.png,0.0,mm_hotsprings.png,Two Edge Diff,Four Edge Six Edge,US,67eec1cf02e625e0d469f1ed,young
2464.899999976158,shortestpath_phase,nat_carmel.png,50.0,mm_boulder.png,mm_leesburg.png,1.0,mm_leesburg.png,One Edge Diff,Two Edge Three Edge,US,67eec1cf02e625e0d469f1ed,young
1857.600000023842,shortestpath_phase,nat_shreveport.png,49.0,mm_hanover.png,mm_gatlinburg.png,0.0,mm_gatlinburg.png,One Edge Diff,Five Edge Six Edge,US,67eec1cf02e625e0d469f1ed,young
2057.5,shortestpath_phase,mm_boulder.png,50.0,nat_shreveport.png,mm_hotsprings.png,1.0,mm_hotsprings.png,Three Edge Diff,Three Edge Six Edge,US,67eec1cf02e625e0d469f1ed,young
2657.300000011921,shortestpath_phase,nat_shreveport.png,50.0,mm_hotsprings.png,nat_newhope.png,1.0,nat_newhope.png,One Edge Diff,Three Edge Four Edge,US,67eec1cf02e625e0d469f1ed,young
1733.5999999642372,shortestpath_phase,mm_boulder.png,49.0,mm_hotsprings.png,nat_westpalmbeach.png,1.0,mm_hotsprings.png,One Edge Diff,Two Edge Three Edge,US,67eec1cf02e625e0d469f1ed,young
1823.800000011921,shortestpath_phase,mm_huntsville.png,50.0,nat_westpalmbeach.png,mm_hanover.png,0.0,nat_westpalmbeach.png,Three Edge Diff,Two Edge Five Edge,US,67eec1cf02e625e0d469f1ed,young
3395.5,shortestpath_phase,mm_boulder.png,50.0,nat_shreveport.png,nat_racine.png,0.0,nat_shreveport.png,One Edge Diff,Five Edge Six Edge,US,67eec1cf02e625e0d469f1ed,young
2066.0,shortestpath_phase,mm_peoria.png,49.0,nat_newhope.png,mm_hanover.png,1.0,nat_newhope.png,Three Edge Diff,Two Edge Five Edge,US,67eec1cf02e625e0d469f1ed,young
1329.600000023842,shortestpath_phase,mm_boulder.png,49.0,mm_huntsville.png,mm_hotsprings.png,0.0,mm_hotsprings.png,Three Edge Diff,Two Edge Five Edge,US,67eec1cf02e625e0d469f1ed,young
2393.400000035763,shortestpath_phase,nat_shreveport.png,50.0,nat_newhope.png,mm_boulder.png,0.0,nat_newhope.png,Two Edge Diff,Three Edge Five Edge,US,67eec1cf02e625e0d469f1ed,young
1757.2999999523165,shortestpath_phase,mm_boulder.png,50.0,mm_hanover.png,mm_gatlinburg.png,1.0,mm_gatlinburg.png,One Edge Diff,Two Edge Three Edge,US,67eec1cf02e625e0d469f1ed,young
2581.900000035763,shortestpath_phase,nat_westpalmbeach.png,50.0,mm_boulder.png,mm_hotsprings.png,1.0,mm_hotsprings.png,One Edge Diff,Two Edge Three Edge,US,67eec1cf02e625e0d469f1ed,young
1549.899999976158,shortestpath_phase,mm_hanover.png,49.0,mm_peoria.png,nat_racine.png,1.0,mm_peoria.png,One Edge Diff,Five Edge Six Edge,US,67eec1cf02e625e0d469f1ed,young
2356.399999976158,shortestpath_phase,mm_boulder.png,50.0,nat_racine.png,mm_huntsville.png,1.0,mm_huntsville.png,One Edge Diff,Five Edge Six Edge,US,67eec1cf02e625e0d469f1ed,young
1440.0,shortestpath_phase,nat_racine.png,49.0,mm_gatlinburg.png,mm_boulder.png,1.0,mm_gatlinburg.png,One Edge Diff,Five Edge Six Edge,US,67eec1cf02e625e0d469f1ed,young
1157.800000011921,shortestpath_phase,mm_huntsville.png,50.0,mm_hanover.png,mm_leesburg.png,1.0,mm_leesburg.png,One Edge Diff,Four Edge Five Edge,US,67eec1cf02e625e0d469f1ed,young
2554.100000023842,shortestpath_phase,mm_hanover.png,50.0,nat_cornwall.png,nat_newhope.png,0.0,nat_cornwall.png,One Edge Diff,Three Edge Four Edge,US,67eec1cf02e625e0d469f1ed,young
1139.199999988079,shortestpath_phase,nat_shreveport.png,49.0,nat_carmel.png,mm_boulder.png,1.0,nat_carmel.png,Two Edge Diff,Three Edge Five Edge,US,67eec1cf02e625e0d469f1ed,young
1779.7000000476835,shortestpath_phase,mm_hanover.png,49.0,mm_leesburg.png,mm_peoria.png,1.0,mm_leesburg.png,Three Edge Diff,Two Edge Five Edge,US,67eec1cf02e625e0d469f1ed,young
1240.600000023842,shortestpath_phase,mm_gatlinburg.png,50.0,nat_cornwall.png,mm_huntsville.png,0.0,nat_cornwall.png,Two Edge Diff,Two Edge Four Edge,US,67eec1cf02e625e0d469f1ed,young
1502.9000000357628,shortestpath_phase,mm_peoria.png,49.0,nat_carmel.png,mm_hanover.png,1.0,nat_carmel.png,Three Edge Diff,Three Edge Six Edge,US,67eec1cf02e625e0d469f1ed,young
1095.0,shortestpath_phase,mm_boulder.png,50.0,nat_newhope.png,nat_racine.png,0.0,nat_newhope.png,Two Edge Diff,Four Edge Six Edge,US,67eec1cf02e625e0d469f1ed,young
1446.5,shortestpath_phase,nat_racine.png,49.0,mm_leesburg.png,nat_westpalmbeach.png,0.0,nat_westpalmbeach.png,Two Edge Diff,Three Edge Five Edge,US,67eec1cf02e625e0d469f1ed,young
1090.399999976158,shortestpath_phase,mm_hanover.png,49.0,mm_leesburg.png,nat_shreveport.png,1.0,mm_leesburg.png,Four Edge Diff,Two Edge Six Edge,US,67eec1cf02e625e0d469f1ed,young
1044.300000011921,shortestpath_phase,nat_racine.png,50.0,nat_cornwall.png,mm_hanover.png,0.0,nat_cornwall.png,Two Edge Diff,Four Edge Six Edge,US,67eec1cf02e625e0d469f1ed,young
1875.0,shortestpath_phase,mm_leesburg.png,49.0,nat_carmel.png,nat_racine.png,1.0,nat_carmel.png,Three Edge Diff,Two Edge Five Edge,US,67eec1cf02e625e0d469f1ed,young
1280.300000011921,shortestpath_phase,mm_peoria.png,49.0,nat_racine.png,mm_hanover.png,1.0,nat_racine.png,Three Edge Diff,Two Edge Five Edge,US,67eec1cf02e625e0d469f1ed,young
3009.800000011921,shortestpath_phase,nat_shreveport.png,49.0,mm_hanover.png,nat_westpalmbeach.png,0.0,nat_westpalmbeach.png,Four Edge Diff,Two Edge Six Edge,US,67eec1cf02e625e0d469f1ed,young
2882.5,shortestpath_phase,nat_racine.png,50.0,nat_cornwall.png,mm_boulder.png,0.0,nat_cornwall.png,Two Edge Diff,Four Edge Six Edge,US,67eec1cf02e625e0d469f1ed,young
2699.100000023842,shortestpath_phase,mm_hanover.png,49.0,mm_hotsprings.png,nat_westpalmbeach.png,1.0,mm_hotsprings.png,Two Edge Diff,Two Edge Four Edge,US,67eec1cf02e625e0d469f1ed,young
1836.100000023842,shortestpath_phase,nat_racine.png,50.0,nat_westpalmbeach.png,mm_gatlinburg.png,0.0,nat_westpalmbeach.png,Two Edge Diff,Three Edge Five Edge,US,67eec1cf02e625e0d469f1ed,young
1472.300000011921,shortestpath_phase,mm_huntsville.png,50.0,nat_carmel.png,mm_boulder.png,0.0,nat_carmel.png,Three Edge Diff,Two Edge Five Edge,US,67eec1cf02e625e0d469f1ed,young
1837.5999999642372,shortestpath_phase,nat_racine.png,50.0,mm_boulder.png,mm_hotsprings.png,1.0,mm_hotsprings.png,Two Edge Diff,Four Edge Six Edge,US,67eec1cf02e625e0d469f1ed,young
1343.300000011921,shortestpath_phase,mm_huntsville.png,49.0,nat_shreveport.png,mm_gatlinburg.png,1.0,nat_shreveport.png,Two Edge Diff,Two Edge Four Edge,US,67eec1cf02e625e0d469f1ed,young
1012.399999976158,shortestpath_phase,nat_racine.png,49.0,mm_leesburg.png,mm_boulder.png,1.0,mm_leesburg.png,One Edge Diff,Five Edge Six Edge,US,67eec1cf02e625e0d469f1ed,young
1738.600000023842,shortestpath_phase,mm_gatlinburg.png,50.0,nat_racine.png,nat_carmel.png,1.0,nat_carmel.png,Three Edge Diff,Two Edge Five Edge,US,67eec1cf02e625e0d469f1ed,young
1628.199999988079,shortestpath_phase,nat_racine.png,49.0,nat_newhope.png,mm_boulder.png,1.0,nat_newhope.png,Four Edge Diff,Two Edge Six Edge,US,67eec1cf02e625e0d469f1ed,young
1094.300000011921,shortestpath_phase,nat_shreveport.png,50.0,mm_leesburg.png,mm_huntsville.png,1.0,mm_huntsville.png,Two Edge Diff,Two Edge Four Edge,US,67eec1cf02e625e0d469f1ed,young
3836.699999988079,shortestpath_phase,mm_hanover.png,50.0,nat_westpalmbeach.png,nat_carmel.png,1.0,nat_carmel.png,One Edge Diff,Three Edge Four Edge,US,67eec1cf02e625e0d469f1ed,young
1638.0999999642372,shortestpath_phase,mm_huntsville.png,49.0,mm_hotsprings.png,mm_leesburg.png,1.0,mm_hotsprings.png,One Edge Diff,Three Edge Four Edge,US,67eec1cf02e625e0d469f1ed,young
1315.2000000476835,shortestpath_phase,mm_boulder.png,49.0,nat_cornwall.png,nat_racine.png,1.0,nat_cornwall.png,Four Edge Diff,Two Edge Six Edge,US,67eec1cf02e625e0d469f1ed,young
2269.699999988079,shortestpath_phase,mm_peoria.png,50.0,mm_boulder.png,nat_carmel.png,1.0,nat_carmel.png,Two Edge Diff,Two Edge Four Edge,US,67eec1cf02e625e0d469f1ed,young
1887.300000011921,shortestpath_phase,mm_hanover.png,50.0,nat_westpalmbeach.png,nat_cornwall.png,1.0,nat_cornwall.png,One Edge Diff,Three Edge Four Edge,US,67eec1cf02e625e0d469f1ed,young
2196.199999988079,shortestpath_phase,mm_boulder.png,50.0,nat_newhope.png,mm_huntsville.png,0.0,nat_newhope.png,One Edge Diff,Four Edge Five Edge,US,67eec1cf02e625e0d469f1ed,young
2678.599999964237,shortestpath_phase,nat_shreveport.png,49.0,nat_cornwall.png,mm_boulder.png,1.0,nat_cornwall.png,Two Edge Diff,Three Edge Five Edge,US,67eec1cf02e625e0d469f1ed,young
1835.9000000357628,shortestpath_phase,mm_boulder.png,49.0,mm_hotsprings.png,nat_racine.png,1.0,mm_hotsprings.png,Four Edge Diff,Two Edge Six Edge,US,67eec1cf02e625e0d469f1ed,young
2429.899999976158,shortestpath_phase,nat_carmel.png,50.0,mm_hanover.png,mm_huntsville.png,1.0,mm_huntsville.png,One Edge Diff,Two Edge Three Edge,US,67eec1cf02e625e0d469f1ed,young
4464.399999976158,shortestpath_phase,nat_newhope.png,49.0,nat_westpalmbeach.png,mm_boulder.png,1.0,nat_westpalmbeach.png,Two Edge Diff,Two Edge Four Edge,US,67eec1cf02e625e0d469f1ed,young
2269.400000035763,shortestpath_phase,mm_boulder.png,50.0,nat_shreveport.png,mm_gatlinburg.png,1.0,mm_gatlinburg.png,Three Edge Diff,Three Edge Six Edge,US,67eec1cf02e625e0d469f1ed,young
1601.5,shortestpath_phase,mm_hanover.png,50.0,nat_racine.png,nat_westpalmbeach.png,1.0,nat_westpalmbeach.png,Two Edge Diff,Four Edge Six Edge,US,67eec1cf02e625e0d469f1ed,young
1106.2999999523165,shortestpath_phase,nat_newhope.png,49.0,mm_hanover.png,mm_leesburg.png,0.0,mm_leesburg.png,One Edge Diff,Three Edge Four Edge,US,67eec1cf02e625e0d469f1ed,young
1364.0999999642372,shortestpath_phase,mm_hanover.png,50.0,mm_huntsville.png,nat_shreveport.png,0.0,mm_huntsville.png,One Edge Diff,Five Edge Six Edge,US,67eec1cf02e625e0d469f1ed,young
1355.600000023842,shortestpath_phase,mm_leesburg.png,49.0,nat_shreveport.png,nat_newhope.png,0.0,nat_newhope.png,One Edge Diff,Three Edge Four Edge,US,67eec1cf02e625e0d469f1ed,young
1192.300000011921,shortestpath_phase,mm_gatlinburg.png,50.0,nat_racine.png,mm_huntsville.png,1.0,mm_huntsville.png,One Edge Diff,Four Edge Five Edge,US,67eec1cf02e625e0d469f1ed,young
984.600000023842,shortestpath_phase,mm_hanover.png,49.0,nat_newhope.png,mm_peoria.png,1.0,nat_newhope.png,One Edge Diff,Four Edge Five Edge,US,67eec1cf02e625e0d469f1ed,young
2151.900000035763,shortestpath_phase,mm_boulder.png,50.0,mm_peoria.png,nat_shreveport.png,0.0,mm_peoria.png,One Edge Diff,Four Edge Five Edge,US,67eec1cf02e625e0d469f1ed,young
1298.300000011921,shortestpath_phase,mm_hanover.png,49.0,nat_racine.png,mm_huntsville.png,0.0,mm_huntsville.png,One Edge Diff,Five Edge Six Edge,US,67eec1cf02e625e0d469f1ed,young
2149.199999988079,shortestpath_phase,nat_newhope.png,50.0,mm_gatlinburg.png,nat_racine.png,1.0,nat_racine.png,One Edge Diff,Two Edge Three Edge,US,67eec1cf02e625e0d469f1ed,young
1874.100000023842,shortestpath_phase,mm_hanover.png,50.0,nat_westpalmbeach.png,nat_shreveport.png,0.0,nat_westpalmbeach.png,Two Edge Diff,Four Edge Six Edge,US,67eec1cf02e625e0d469f1ed,young
1815.899999976158,shortestpath_phase,mm_leesburg.png,50.0,nat_newhope.png,nat_carmel.png,1.0,nat_carmel.png,One Edge Diff,Two Edge Three Edge,US,67eec1cf02e625e0d469f1ed,young
618.3000000119209,shortestpath_phase,mm_hanover.png,49.0,mm_huntsville.png,nat_newhope.png,0.0,nat_newhope.png,One Edge Diff,Four Edge Five Edge,US,67eec1cf02e625e0d469f1ed,young
1755.5,shortestpath_phase,mm_huntsville.png,49.0,nat_westpalmbeach.png,mm_boulder.png,1.0,nat_westpalmbeach.png,Three Edge Diff,Three Edge Six Edge,US,67eec1cf02e625e0d469f1ed,young
2972.0,shortestpath_phase,nat_newhope.png,49.0,mm_leesburg.png,mm_boulder.png,1.0,mm_leesburg.png,One Edge Diff,Three Edge Four Edge,US,67eec1cf02e625e0d469f1ed,young
1863.399999976158,shortestpath_phase,mm_hotsprings.png,50.0,nat_westpalmbeach.png,mm_huntsville.png,0.0,nat_westpalmbeach.png,One Edge Diff,Two Edge Three Edge,US,67eec1cf02e625e0d469f1ed,young
1269.699999988079,shortestpath_phase,mm_gatlinburg.png,49.0,nat_shreveport.png,mm_huntsville.png,0.0,mm_huntsville.png,One Edge Diff,Four Edge Five Edge,US,67eec1cf02e625e0d469f1ed,young
446.0,shortestpath_phase,mm_hanover.png,49.0,mm_huntsville.png,mm_leesburg.png,0.0,mm_leesburg.png,Three Edge Diff,Three Edge Six Edge,US,67eec1cf02e625e0d469f1ed,young
688.0,shortestpath_phase,mm_gatlinburg.png,50.0,nat_shreveport.png,nat_carmel.png,1.0,nat_carmel.png,Three Edge Diff,Three Edge Six Edge,US,67eec1cf02e625e0d469f1ed,young
1477.0999999642372,shortestpath_phase,nat_racine.png,49.0,nat_newhope.png,mm_leesburg.png,1.0,nat_newhope.png,Three Edge Diff,Three Edge Six Edge,US,67eec1cf02e625e0d469f1ed,young
1841.5999999642372,shortestpath_phase,mm_huntsville.png,50.0,mm_boulder.png,mm_gatlinburg.png,1.0,mm_gatlinburg.png,One Edge Diff,Four Edge Five Edge,US,67eec1cf02e625e0d469f1ed,young
1318.300000011921,shortestpath_phase,mm_hanover.png,50.0,nat_shreveport.png,mm_hotsprings.png,1.0,mm_hotsprings.png,Four Edge Diff,Two Edge Six Edge,US,67eec1cf02e625e0d469f1ed,young
1757.800000011921,shortestpath_phase,mm_gatlinburg.png,49.0,mm_huntsville.png,nat_newhope.png,0.0,nat_newhope.png,One Edge Diff,Three Edge Four Edge,US,67eec1cf02e625e0d469f1ed,young
1855.7000000476835,shortestpath_phase,mm_leesburg.png,49.0,mm_hanover.png,nat_racine.png,1.0,mm_hanover.png,Three Edge Diff,Three Edge Six Edge,US,67eec1cf02e625e0d469f1ed,young
2111.0,shortestpath_phase,nat_newhope.png,49.0,nat_westpalmbeach.png,mm_hanover.png,1.0,nat_westpalmbeach.png,Two Edge Diff,Two Edge Four Edge,US,67eec1cf02e625e0d469f1ed,young
1944.899999976158,shortestpath_phase,nat_shreveport.png,49.0,mm_gatlinburg.png,mm_leesburg.png,0.0,mm_leesburg.png,One Edge Diff,Four Edge Five Edge,US,67eec1cf02e625e0d469f1ed,young
1544.5999999642372,shortestpath_phase,nat_newhope.png,50.0,mm_boulder.png,mm_hotsprings.png,1.0,mm_hotsprings.png,Two Edge Diff,Two Edge Four Edge,US,67eec1cf02e625e0d469f1ed,young
2690.699999988079,shortestpath_phase,nat_shreveport.png,50.0,mm_hanover.png,mm_boulder.png,1.0,mm_boulder.png,One Edge Diff,Five Edge Six Edge,US,67eec1cf02e625e0d469f1ed,young
1407.5999999642372,shortestpath_phase,mm_hanover.png,49.0,nat_newhope.png,nat_racine.png,1.0,nat_newhope.png,Two Edge Diff,Four Edge Six Edge,US,67eec1cf02e625e0d469f1ed,young
1557.800000011921,shortestpath_phase,mm_gatlinburg.png,49.0,nat_racine.png,mm_boulder.png,0.0,mm_boulder.png,Three Edge Diff,Two Edge Five Edge,US,67eec1cf02e625e0d469f1ed,young
2248.0,shortestpath_phase,nat_newhope.png,50.0,mm_boulder.png,mm_peoria.png,1.0,mm_peoria.png,Two Edge Diff,Two Edge Four Edge,US,67eec1cf02e625e0d469f1ed,young
4470.199999988079,shortestpath_phase,mm_boulder.png,49.0,nat_westpalmbeach.png,mm_huntsville.png,1.0,nat_westpalmbeach.png,Two Edge Diff,Three Edge Five Edge,US,67eec1cf02e625e0d469f1ed,young
2093.199999988079,shortestpath_phase,mm_peoria.png,49.0,mm_hanover.png,nat_racine.png,0.0,nat_racine.png,Three Edge Diff,Three Edge Six Edge,US,67eec1cf02e625e0d469f1ed,young
1209.800000011921,shortestpath_phase,nat_westpalmbeach.png,50.0,nat_shreveport.png,mm_boulder.png,0.0,nat_shreveport.png,One Edge Diff,Two Edge Three Edge,US,67eec1cf02e625e0d469f1ed,young
1510.5,shortestpath_phase,nat_racine.png,49.0,mm_peoria.png,mm_leesburg.png,1.0,mm_peoria.png,Three Edge Diff,Two Edge Five Edge,US,67eec1cf02e625e0d469f1ed,young
2602.5,shortestpath_phase,nat_shreveport.png,49.0,nat_newhope.png,mm_leesburg.png,1.0,nat_newhope.png,One Edge Diff,Three Edge Four Edge,US,67eec1cf02e625e0d469f1ed,young
1233.399999976158,shortestpath_phase,nat_racine.png,50.0,mm_hanover.png,mm_gatlinburg.png,1.0,mm_gatlinburg.png,One Edge Diff,Five Edge Six Edge,US,67eec1cf02e625e0d469f1ed,young
781.0,shortestpath_phase,mm_hanover.png,49.0,nat_shreveport.png,mm_peoria.png,0.0,mm_peoria.png,One Edge Diff,Five Edge Six Edge,US,67eec1cf02e625e0d469f1ed,young
2094.0,shortestpath_phase,nat_racine.png,50.0,mm_gatlinburg.png,nat_newhope.png,1.0,nat_newhope.png,Three Edge Diff,Two Edge Five Edge,US,67eec1cf02e625e0d469f1ed,young
986.8000000119208,shortestpath_phase,mm_boulder.png,49.0,nat_racine.png,mm_gatlinburg.png,0.0,mm_gatlinburg.png,Four Edge Diff,Two Edge Six Edge,US,67eec1cf02e625e0d469f1ed,young
1991.0,shortestpath_phase,nat_shreveport.png,50.0,mm_gatlinburg.png,nat_carmel.png,1.0,nat_carmel.png,Two Edge Diff,Three Edge Five Edge,US,67eec1cf02e625e0d469f1ed,young
1495.300000011921,shortestpath_phase,mm_boulder.png,49.0,nat_newhope.png,nat_westpalmbeach.png,0.0,nat_westpalmbeach.png,One Edge Diff,Three Edge Four Edge,US,67eec1cf02e625e0d469f1ed,young
1735.699999988079,shortestpath_phase,mm_hanover.png,50.0,mm_hotsprings.png,nat_racine.png,0.0,mm_hotsprings.png,Four Edge Diff,Two Edge Six Edge,US,67eec1cf02e625e0d469f1ed,young
2307.5,shortestpath_phase,mm_huntsville.png,49.0,nat_westpalmbeach.png,mm_hanover.png,1.0,nat_westpalmbeach.png,Three Edge Diff,Three Edge Six Edge,US,67eec1cf02e625e0d469f1ed,young
1106.5999999642372,shortestpath_phase,nat_racine.png,49.0,mm_peoria.png,mm_boulder.png,1.0,mm_peoria.png,Four Edge Diff,Two Edge Six Edge,US,67eec1cf02e625e0d469f1ed,young
891.6999999880791,shortestpath_phase,mm_hanover.png,50.0,nat_shreveport.png,nat_newhope.png,1.0,nat_newhope.png,Two Edge Diff,Four Edge Six Edge,US,67eec1cf02e625e0d469f1ed,young
1806.0,shortestpath_phase,nat_shreveport.png,50.0,mm_huntsville.png,mm_hanover.png,0.0,mm_huntsville.png,Four Edge Diff,Two Edge Six Edge,US,67eec1cf02e625e0d469f1ed,young
1892.199999988079,shortestpath_phase,nat_racine.png,50.0,mm_hanover.png,nat_newhope.png,1.0,nat_newhope.png,Four Edge Diff,Two Edge Six Edge,US,67eec1cf02e625e0d469f1ed,young
1981.5,shortestpath_phase,nat_shreveport.png,49.0,mm_hanover.png,mm_leesburg.png,0.0,mm_leesburg.png,Two Edge Diff,Four Edge Six Edge,US,67eec1cf02e625e0d469f1ed,young
1503.800000011921,shortestpath_phase,nat_racine.png,49.0,mm_gatlinburg.png,mm_hotsprings.png,0.0,mm_hotsprings.png,One Edge Diff,Four Edge Five Edge,US,67eec1cf02e625e0d469f1ed,young
2041.399999976158,shortestpath_phase,mm_huntsville.png,50.0,nat_cornwall.png,nat_shreveport.png,1.0,nat_shreveport.png,One Edge Diff,Two Edge Three Edge,US,67eec1cf02e625e0d469f1ed,young
2070.600000023842,shortestpath_phase,mm_hanover.png,49.0,nat_carmel.png,mm_peoria.png,1.0,nat_carmel.png,Two Edge Diff,Three Edge Five Edge,US,67eec1cf02e625e0d469f1ed,young
1577.199999988079,shortestpath_phase,mm_huntsville.png,50.0,nat_cornwall.png,mm_gatlinburg.png,0.0,nat_cornwall.png,One Edge Diff,Three Edge Four Edge,US,67eec1cf02e625e0d469f1ed,young
602.3999999761581,shortestpath_phase,nat_racine.png,49.0,mm_leesburg.png,nat_shreveport.png,0.0,nat_shreveport.png,Two Edge Diff,Three Edge Five Edge,US,67eec1cf02e625e0d469f1ed,young
1163.300000011921,shortestpath_phase,mm_huntsville.png,50.0,nat_carmel.png,mm_hanover.png,0.0,nat_carmel.png,Three Edge Diff,Two Edge Five Edge,US,67eec1cf02e625e0d469f1ed,young
1748.800000011921,shortestpath_phase,mm_boulder.png,49.0,nat_racine.png,mm_peoria.png,0.0,mm_peoria.png,Two Edge Diff,Four Edge Six Edge,US,67eec1cf02e625e0d469f1ed,young
837.1999999880791,shortestpath_phase,nat_racine.png,49.0,nat_shreveport.png,mm_gatlinburg.png,1.0,nat_shreveport.png,Two Edge Diff,Three Edge Five Edge,US,67eec1cf02e625e0d469f1ed,young
2590.900000035763,shortestpath_phase,mm_boulder.png,50.0,mm_hotsprings.png,mm_peoria.png,0.0,mm_hotsprings.png,Two Edge Diff,Two Edge Four Edge,US,67eec1cf02e625e0d469f1ed,young
1501.2000000476835,shortestpath_phase,mm_hanover.png,49.0,nat_westpalmbeach.png,mm_huntsville.png,1.0,nat_westpalmbeach.png,One Edge Diff,Four Edge Five Edge,US,67eec1cf02e625e0d469f1ed,young
2785.2999999523163,shortestpath_phase,nat_racine.png,49.0,mm_hanover.png,mm_leesburg.png,0.0,mm_leesburg.png,One Edge Diff,Five Edge Six Edge,US,67eec1cf02e625e0d469f1ed,young
1932.699999988079,shortestpath_phase,mm_hanover.png,49.0,mm_hotsprings.png,mm_peoria.png,1.0,mm_hotsprings.png,Three Edge Diff,Three Edge Six Edge,US,67eec1cf02e625e0d469f1ed,young
1600.9000000059605,shortestpath_phase,nat_hanover.png,49.0,mm_huntsville.png,nat_leesburg.png,0.0,nat_leesburg.png,Three Edge Diff,Two Edge Five Edge,US,56e60e39f7957b000b18e37b,young
2656.699999988079,shortestpath_phase,nat_racine.png,50.0,mm_huntsville.png,nat_boulder.png,1.0,nat_boulder.png,One Edge Diff,Three Edge Four Edge,US,56e60e39f7957b000b18e37b,young
2083.5999999940395,shortestpath_phase,nat_shreveport.png,49.0,mm_huntsville.png,nat_gatlinburg.png,1.0,mm_huntsville.png,Three Edge Diff,Two Edge Five Edge,US,56e60e39f7957b000b18e37b,young
2460.300000011921,shortestpath_phase,nat_carmel.png,50.0,nat_cornwall.png,nat_boulder.png,0.0,nat_cornwall.png,Three Edge Diff,Two Edge Five Edge,US,56e60e39f7957b000b18e37b,young
2718.800000011921,shortestpath_phase,mm_huntsville.png,49.0,nat_boulder.png,mm_hotsprings.png,0.0,mm_hotsprings.png,Two Edge Diff,Four Edge Six Edge,US,56e60e39f7957b000b18e37b,young
2005.29999999702,shortestpath_phase,nat_gatlinburg.png,49.0,nat_hanover.png,mm_huntsville.png,1.0,nat_hanover.png,Four Edge Diff,Two Edge Six Edge,US,56e60e39f7957b000b18e37b,young
2252.0999999940395,shortestpath_phase,mm_huntsville.png,50.0,mm_westpalmbeach.png,nat_boulder.png,0.0,mm_westpalmbeach.png,Four Edge Diff,Two Edge Six Edge,US,56e60e39f7957b000b18e37b,young
2464.5999999940395,shortestpath_phase,nat_carmel.png,49.0,nat_leesburg.png,nat_cornwall.png,0.0,nat_cornwall.png,One Edge Diff,Two Edge Three Edge,US,56e60e39f7957b000b18e37b,young
1877.29999999702,shortestpath_phase,nat_boulder.png,50.0,nat_cornwall.png,nat_gatlinburg.png,1.0,nat_gatlinburg.png,Two Edge Diff,Three Edge Five Edge,US,56e60e39f7957b000b18e37b,young
2953.5,shortestpath_phase,nat_cornwall.png,50.0,mm_newhope.png,nat_boulder.png,0.0,mm_newhope.png,Three Edge Diff,Three Edge Six Edge,US,56e60e39f7957b000b18e37b,young
2165.8999999910593,shortestpath_phase,nat_racine.png,50.0,nat_shreveport.png,nat_gatlinburg.png,1.0,nat_gatlinburg.png,One Edge Diff,Two Edge Three Edge,US,56e60e39f7957b000b18e37b,young
2637.20000000298,shortestpath_phase,nat_boulder.png,50.0,nat_carmel.png,nat_leesburg.png,1.0,nat_leesburg.png,Two Edge Diff,Three Edge Five Edge,US,56e60e39f7957b000b18e37b,young
2486.6000000089407,shortestpath_phase,nat_gatlinburg.png,49.0,nat_racine.png,mm_huntsville.png,1.0,nat_racine.png,Four Edge Diff,Two Edge Six Edge,US,56e60e39f7957b000b18e37b,young
2578.70000000298,shortestpath_phase,nat_carmel.png,50.0,nat_cornwall.png,nat_gatlinburg.png,0.0,nat_cornwall.png,Four Edge Diff,Two Edge Six Edge,US,56e60e39f7957b000b18e37b,young
4018.6000000089407,shortestpath_phase,nat_boulder.png,49.0,mm_huntsville.png,mm_hotsprings.png,0.0,mm_hotsprings.png,Four Edge Diff,Two Edge Six Edge,US,56e60e39f7957b000b18e37b,young
1983.6000000089407,shortestpath_phase,mm_huntsville.png,50.0,nat_carmel.png,nat_racine.png,0.0,nat_carmel.png,One Edge Diff,Three Edge Four Edge,US,56e60e39f7957b000b18e37b,young
4152.5,shortestpath_phase,nat_shreveport.png,49.0,nat_gatlinburg.png,nat_leesburg.png,0.0,nat_leesburg.png,Three Edge Diff,Two Edge Five Edge,US,56e60e39f7957b000b18e37b,young
3171.5,shortestpath_phase,mm_newhope.png,50.0,mm_huntsville.png,nat_carmel.png,1.0,nat_carmel.png,One Edge Diff,Two Edge Three Edge,US,56e60e39f7957b000b18e37b,young
1924.29999999702,shortestpath_phase,nat_hanover.png,49.0,nat_leesburg.png,mm_huntsville.png,1.0,nat_leesburg.png,Three Edge Diff,Three Edge Six Edge,US,56e60e39f7957b000b18e37b,young
2335.4000000059605,shortestpath_phase,nat_carmel.png,50.0,nat_peoria.png,mm_westpalmbeach.png,1.0,mm_westpalmbeach.png,Three Edge Diff,Three Edge Six Edge,US,56e60e39f7957b000b18e37b,young
2658.79999999702,shortestpath_phase,nat_shreveport.png,49.0,nat_hanover.png,nat_boulder.png,1.0,nat_hanover.png,One Edge Diff,Three Edge Four Edge,US,56e60e39f7957b000b18e37b,young
2616.70000000298,shortestpath_phase,nat_carmel.png,49.0,nat_peoria.png,mm_newhope.png,0.0,mm_newhope.png,Three Edge Diff,Three Edge Six Edge,US,56e60e39f7957b000b18e37b,young
1859.3999999910593,shortestpath_phase,mm_westpalmbeach.png,49.0,nat_gatlinburg.png,mm_huntsville.png,0.0,mm_huntsville.png,Two Edge Diff,Two Edge Four Edge,US,56e60e39f7957b000b18e37b,young
1947.0,shortestpath_phase,nat_carmel.png,50.0,nat_leesburg.png,nat_peoria.png,0.0,nat_leesburg.png,Two Edge Diff,Three Edge Five Edge,US,56e60e39f7957b000b18e37b,young
2539.1000000089407,shortestpath_phase,mm_hotsprings.png,49.0,nat_gatlinburg.png,mm_huntsville.png,1.0,nat_gatlinburg.png,One Edge Diff,Three Edge Four Edge,US,56e60e39f7957b000b18e37b,young
3518.5,shortestpath_phase,mm_huntsville.png,49.0,nat_gatlinburg.png,mm_westpalmbeach.png,0.0,mm_westpalmbeach.png,Four Edge Diff,Two Edge Six Edge,US,56e60e39f7957b000b18e37b,young
4029.800000011921,shortestpath_phase,nat_boulder.png,50.0,nat_cornwall.png,mm_hotsprings.png,1.0,mm_hotsprings.png,Three Edge Diff,Two Edge Five Edge,US,56e60e39f7957b000b18e37b,young
2519.6000000089407,shortestpath_phase,nat_peoria.png,49.0,nat_leesburg.png,nat_carmel.png,1.0,nat_leesburg.png,Three Edge Diff,Two Edge Five Edge,US,56e60e39f7957b000b18e37b,young
2123.70000000298,shortestpath_phase,nat_boulder.png,50.0,nat_carmel.png,mm_newhope.png,1.0,mm_newhope.png,Two Edge Diff,Three Edge Five Edge,US,56e60e39f7957b000b18e37b,young
2327.0,shortestpath_phase,nat_gatlinburg.png,49.0,nat_racine.png,nat_cornwall.png,1.0,nat_racine.png,Three Edge Diff,Three Edge Six Edge,US,56e60e39f7957b000b18e37b,young
2129.1000000089407,shortestpath_phase,nat_boulder.png,50.0,nat_peoria.png,mm_newhope.png,0.0,nat_peoria.png,One Edge Diff,Two Edge Three Edge,US,56e60e39f7957b000b18e37b,young
2557.5,shortestpath_phase,mm_huntsville.png,49.0,nat_racine.png,nat_shreveport.png,0.0,nat_shreveport.png,Two Edge Diff,Two Edge Four Edge,US,56e60e39f7957b000b18e37b,young
2504.5,shortestpath_phase,mm_westpalmbeach.png,49.0,nat_gatlinburg.png,nat_peoria.png,0.0,nat_peoria.png,One Edge Diff,Three Edge Four Edge,US,56e60e39f7957b000b18e37b,young
2192.20000000298,shortestpath_phase,nat_carmel.png,50.0,nat_gatlinburg.png,nat_boulder.png,1.0,nat_boulder.png,One Edge Diff,Five Edge Six Edge,US,56e60e39f7957b000b18e37b,young
2673.699999988079,shortestpath_phase,nat_hanover.png,49.0,mm_westpalmbeach.png,mm_huntsville.png,1.0,mm_westpalmbeach.png,Two Edge Diff,Three Edge Five Edge,US,56e60e39f7957b000b18e37b,young
1874.0999999940395,shortestpath_phase,nat_cornwall.png,49.0,nat_leesburg.png,nat_peoria.png,1.0,nat_leesburg.png,Two Edge Diff,Two Edge Four Edge,US,56e60e39f7957b000b18e37b,young
2301.70000000298,shortestpath_phase,nat_carmel.png,49.0,nat_peoria.png,mm_huntsville.png,0.0,mm_huntsville.png,Two Edge Diff,Three Edge Five Edge,US,56e60e39f7957b000b18e37b,young
5499.5999999940395,shortestpath_phase,nat_peoria.png,49.0,nat_carmel.png,nat_boulder.png,0.0,nat_boulder.png,Three Edge Diff,Three Edge Six Edge,US,56e60e39f7957b000b18e37b,young
1785.5,shortestpath_phase,nat_gatlinburg.png,49.0,nat_carmel.png,nat_hanover.png,0.0,nat_hanover.png,Four Edge Diff,Two Edge Six Edge,US,56e60e39f7957b000b18e37b,young
1911.5,shortestpath_phase,nat_boulder.png,49.0,mm_huntsville.png,nat_carmel.png,0.0,nat_carmel.png,One Edge Diff,Five Edge Six Edge,US,56e60e39f7957b000b18e37b,young
2212.9000000059605,shortestpath_phase,mm_huntsville.png,49.0,nat_gatlinburg.png,nat_hanover.png,0.0,nat_hanover.png,One Edge Diff,Five Edge Six Edge,US,56e60e39f7957b000b18e37b,young
3223.29999999702,shortestpath_phase,nat_carmel.png,50.0,nat_peoria.png,nat_gatlinburg.png,0.0,nat_peoria.png,One Edge Diff,Five Edge Six Edge,US,56e60e39f7957b000b18e37b,young
2865.0999999940395,shortestpath_phase,mm_huntsville.png,49.0,nat_shreveport.png,nat_hanover.png,1.0,nat_shreveport.png,Three Edge Diff,Two Edge Five Edge,US,56e60e39f7957b000b18e37b,young
2397.4000000059605,shortestpath_phase,nat_cornwall.png,49.0,mm_newhope.png,nat_gatlinburg.png,1.0,mm_newhope.png,Three Edge Diff,Three Edge Six Edge,US,56e60e39f7957b000b18e37b,young
3024.79999999702,shortestpath_phase,nat_carmel.png,49.0,nat_gatlinburg.png,nat_hanover.png,0.0,nat_hanover.png,Two Edge Diff,Four Edge Six Edge,US,56e60e39f7957b000b18e37b,young
2107.4000000059605,shortestpath_phase,nat_shreveport.png,49.0,nat_gatlinburg.png,nat_boulder.png,0.0,nat_boulder.png,One Edge Diff,Four Edge Five Edge,US,56e60e39f7957b000b18e37b,young
2030.3999999910593,shortestpath_phase,nat_hanover.png,50.0,nat_gatlinburg.png,nat_shreveport.png,0.0,nat_gatlinburg.png,One Edge Diff,Two Edge Three Edge,US,56e60e39f7957b000b18e37b,young
2500.300000011921,shortestpath_phase,nat_peoria.png,49.0,mm_westpalmbeach.png,mm_hotsprings.png,0.0,mm_hotsprings.png,One Edge Diff,Two Edge Three Edge,US,56e60e39f7957b000b18e37b,young
2380.0,shortestpath_phase,nat_gatlinburg.png,50.0,nat_carmel.png,mm_westpalmbeach.png,1.0,mm_westpalmbeach.png,Two Edge Diff,Four Edge Six Edge,US,56e60e39f7957b000b18e37b,young
2159.4000000059605,shortestpath_phase,nat_carmel.png,49.0,mm_newhope.png,nat_gatlinburg.png,1.0,mm_newhope.png,Four Edge Diff,Two Edge Six Edge,US,56e60e39f7957b000b18e37b,young
2681.29999999702,shortestpath_phase,nat_gatlinburg.png,50.0,mm_huntsville.png,nat_shreveport.png,1.0,nat_shreveport.png,One Edge Diff,Five Edge Six Edge,US,56e60e39f7957b000b18e37b,young
1761.9000000059605,shortestpath_phase,nat_peoria.png,49.0,mm_newhope.png,nat_cornwall.png,1.0,mm_newhope.png,One Edge Diff,Three Edge Four Edge,US,56e60e39f7957b000b18e37b,young
2409.8999999910593,shortestpath_phase,nat_hanover.png,50.0,nat_gatlinburg.png,mm_huntsville.png,0.0,nat_gatlinburg.png,Three Edge Diff,Three Edge Six Edge,US,56e60e39f7957b000b18e37b,young
2812.300000011921,shortestpath_phase,mm_huntsville.png,50.0,nat_gatlinburg.png,nat_shreveport.png,1.0,nat_shreveport.png,Four Edge Diff,Two Edge Six Edge,US,56e60e39f7957b000b18e37b,young
2924.0,shortestpath_phase,nat_gatlinburg.png,50.0,nat_cornwall.png,mm_newhope.png,1.0,mm_newhope.png,One Edge Diff,Four Edge Five Edge,US,56e60e39f7957b000b18e37b,young
2324.8999999910593,shortestpath_phase,mm_huntsville.png,50.0,nat_gatlinburg.png,nat_racine.png,1.0,nat_racine.png,Two Edge Diff,Four Edge Six Edge,US,56e60e39f7957b000b18e37b,young
2616.0,shortestpath_phase,nat_gatlinburg.png,49.0,nat_cornwall.png,mm_huntsville.png,1.0,nat_cornwall.png,One Edge Diff,Five Edge Six Edge,US,56e60e39f7957b000b18e37b,young
1845.20000000298,shortestpath_phase,mm_huntsville.png,49.0,nat_peoria.png,mm_newhope.png,0.0,mm_newhope.png,Two Edge Diff,Three Edge Five Edge,US,56e60e39f7957b000b18e37b,young
3013.5,shortestpath_phase,nat_gatlinburg.png,50.0,mm_huntsville.png,mm_westpalmbeach.png,1.0,mm_westpalmbeach.png,Two Edge Diff,Four Edge Six Edge,US,56e60e39f7957b000b18e37b,young
4341.29999999702,shortestpath_phase,nat_shreveport.png,49.0,mm_hotsprings.png,nat_peoria.png,1.0,mm_hotsprings.png,Two Edge Diff,Two Edge Four Edge,US,56e60e39f7957b000b18e37b,young
2218.70000000298,shortestpath_phase,nat_boulder.png,49.0,nat_shreveport.png,nat_gatlinburg.png,0.0,nat_gatlinburg.png,One Edge Diff,Three Edge Four Edge,US,56e60e39f7957b000b18e37b,young
1633.7000000029802,shortestpath_phase,nat_carmel.png,49.0,nat_racine.png,mm_newhope.png,0.0,mm_newhope.png,Two Edge Diff,Two Edge Four Edge,US,56e60e39f7957b000b18e37b,young
1868.0,shortestpath_phase,mm_huntsville.png,49.0,nat_peoria.png,nat_shreveport.png,0.0,nat_shreveport.png,Three Edge Diff,Three Edge Six Edge,US,56e60e39f7957b000b18e37b,young
1979.6000000089407,shortestpath_phase,nat_cornwall.png,49.0,mm_newhope.png,nat_gatlinburg.png,1.0,mm_newhope.png,Three Edge Diff,Two Edge Five Edge,US,56e60e39f7957b000b18e37b,young
2114.0,shortestpath_phase,nat_boulder.png,49.0,nat_peoria.png,mm_huntsville.png,1.0,nat_peoria.png,Four Edge Diff,Two Edge Six Edge,US,56e60e39f7957b000b18e37b,young
2172.3999999910593,shortestpath_phase,nat_cornwall.png,49.0,nat_boulder.png,nat_carmel.png,0.0,nat_carmel.png,Three Edge Diff,Two Edge Five Edge,US,56e60e39f7957b000b18e37b,young
1831.20000000298,shortestpath_phase,mm_hotsprings.png,50.0,nat_boulder.png,nat_carmel.png,0.0,nat_boulder.png,One Edge Diff,Two Edge Three Edge,US,56e60e39f7957b000b18e37b,young
2696.0999999940395,shortestpath_phase,nat_gatlinburg.png,49.0,nat_carmel.png,nat_shreveport.png,0.0,nat_shreveport.png,One Edge Diff,Five Edge Six Edge,US,56e60e39f7957b000b18e37b,young
3167.300000011921,shortestpath_phase,mm_newhope.png,49.0,nat_racine.png,nat_gatlinburg.png,1.0,nat_racine.png,One Edge Diff,Three Edge Four Edge,US,56e60e39f7957b000b18e37b,young
3189.29999999702,shortestpath_phase,nat_boulder.png,50.0,mm_huntsville.png,mm_westpalmbeach.png,1.0,mm_westpalmbeach.png,Two Edge Diff,Four Edge Six Edge,US,56e60e39f7957b000b18e37b,young
1594.3999999910593,shortestpath_phase,mm_huntsville.png,50.0,nat_hanover.png,nat_boulder.png,0.0,nat_hanover.png,One Edge Diff,Five Edge Six Edge,US,56e60e39f7957b000b18e37b,young
3650.20000000298,shortestpath_phase,nat_racine.png,50.0,nat_gatlinburg.png,nat_boulder.png,0.0,nat_gatlinburg.png,One Edge Diff,Two Edge Three Edge,US,56e60e39f7957b000b18e37b,young
1721.4000000059605,shortestpath_phase,nat_carmel.png,49.0,nat_peoria.png,nat_hanover.png,0.0,nat_hanover.png,One Edge Diff,Four Edge Five Edge,US,56e60e39f7957b000b18e37b,young
2060.5,shortestpath_phase,mm_huntsville.png,49.0,nat_racine.png,nat_peoria.png,1.0,nat_racine.png,One Edge Diff,Four Edge Five Edge,US,56e60e39f7957b000b18e37b,young
2633.0999999940395,shortestpath_phase,nat_hanover.png,49.0,nat_leesburg.png,nat_carmel.png,1.0,nat_leesburg.png,Two Edge Diff,Two Edge Four Edge,US,56e60e39f7957b000b18e37b,young
3258.0,shortestpath_phase,nat_cornwall.png,49.0,nat_racine.png,nat_peoria.png,1.0,nat_racine.png,One Edge Diff,Three Edge Four Edge,US,56e60e39f7957b000b18e37b,young
3719.699999988079,shortestpath_phase,mm_huntsville.png,49.0,nat_gatlinburg.png,mm_hotsprings.png,0.0,mm_hotsprings.png,Two Edge Diff,Four Edge Six Edge,US,56e60e39f7957b000b18e37b,young
2714.29999999702,shortestpath_phase,nat_gatlinburg.png,50.0,nat_racine.png,nat_shreveport.png,0.0,nat_racine.png,Three Edge Diff,Three Edge Six Edge,US,56e60e39f7957b000b18e37b,young
1906.800000011921,shortestpath_phase,mm_newhope.png,49.0,nat_cornwall.png,nat_gatlinburg.png,1.0,nat_cornwall.png,Two Edge Diff,Two Edge Four Edge,US,56e60e39f7957b000b18e37b,young
1929.70000000298,shortestpath_phase,nat_carmel.png,49.0,nat_racine.png,nat_gatlinburg.png,1.0,nat_racine.png,Two Edge Diff,Four Edge Six Edge,US,56e60e39f7957b000b18e37b,young
2556.9000000059605,shortestpath_phase,nat_leesburg.png,50.0,nat_shreveport.png,nat_carmel.png,0.0,nat_shreveport.png,One Edge Diff,Two Edge Three Edge,US,56e60e39f7957b000b18e37b,young
2241.29999999702,shortestpath_phase,nat_racine.png,50.0,nat_boulder.png,nat_carmel.png,0.0,nat_boulder.png,One Edge Diff,Three Edge Four Edge,US,56e60e39f7957b000b18e37b,young
