rt,trial_type,stimulus,key_press,accuracy,stimulus_down_left,stimulus_down_mid,stimulus_down_right,stimulus_correct,stimulus_short,stimulus_far,city_type,partid,age,stimulus_left,stimulus_right,condition,specific_pairs
2778.5,directmemory_phase,node2,49.0,0.0,node7,node6,node4,node4,node6,node7,US,67cf70ec9741a100ffc7f570,old,,,,
4428.5,directmemory_phase,node7,51.0,1.0,node12,node3,node13,node13,node3,node12,US,67cf70ec9741a100ffc7f570,old,,,,
3322.7,directmemory_phase,node1,51.0,1.0,node9,node3,node2,node2,node3,node9,US,67cf70ec9741a100ffc7f570,old,,,,
3231.1,directmemory_phase,node8,49.0,1.0,node9,node4,node13,node9,node13,node4,US,67cf70ec9741a100ffc7f570,old,,,,
3242.2,directmemory_phase,node6,49.0,0.0,node5,node2,node3,node3,node2,node5,US,67cf70ec9741a100ffc7f570,old,,,,
3770.7,directmemory_phase,node8,49.0,0.0,node3,node6,node7,node7,node6,node3,US,67cf70ec9741a100ffc7f570,old,,,,
2452.9,directmemory_phase,node5,49.0,0.0,node11,node2,node4,node4,node2,node11,US,67cf70ec9741a100ffc7f570,old,,,,
1301.0,directmemory_phase,node10,50.0,0.0,node8,node12,node9,node8,node9,node12,US,67cf70ec9741a100ffc7f570,old,,,,
374.0,directmemory_phase,node11,51.0,1.0,node10,node2,node12,node12,node2,node10,US,67cf70ec9741a100ffc7f570,old,,,,
264.3,directmemory_phase,node4,49.0,0.0,node6,node1,node5,node5,node1,node6,US,67cf70ec9741a100ffc7f570,old,,,,
293.4,directmemory_phase,node7,50.0,0.0,node2,node3,node6,node6,node3,node2,US,67cf70ec9741a100ffc7f570,old,,,,
158.4,directmemory_phase,node12,51.0,0.0,node4,node10,node2,node4,node2,node10,US,67cf70ec9741a100ffc7f570,old,,,,
127.2,directmemory_phase,node9,49.0,0.0,node10,node6,node5,node6,node10,node5,US,67cf70ec9741a100ffc7f570,old,,,,
108.2,directmemory_phase,node13,51.0,0.0,node7,node10,node9,node7,node9,node10,US,67cf70ec9741a100ffc7f570,old,,,,
92.7,directmemory_phase,node11,49.0,0.0,node10,node6,node9,node9,node6,node10,US,67cf70ec9741a100ffc7f570,old,,,,
6.600000001,directmemory_phase,node8,50.0,0.0,node4,node11,node10,node10,node11,node4,US,67cf70ec9741a100ffc7f570,old,,,,
572.5,directmemory_phase,node7,50.0,0.0,node2,node3,node9,node9,node3,node2,US,67cf70ec9741a100ffc7f570,old,,,,
266.0,directmemory_phase,node3,51.0,1.0,node8,node4,node2,node2,node4,node8,US,67cf70ec9741a100ffc7f570,old,,,,
291.6,directmemory_phase,node9,49.0,1.0,node8,node1,node13,node8,node13,node1,US,67cf70ec9741a100ffc7f570,old,,,,
109.6,directmemory_phase,node3,51.0,0.0,node12,node6,node8,node6,node12,node8,US,67cf70ec9741a100ffc7f570,old,,,,
0.200000003,directmemory_phase,node9,50.0,1.0,node10,node7,node5,node7,node10,node5,US,67cf70ec9741a100ffc7f570,old,,,,
382.1,directmemory_phase,node4,50.0,1.0,node3,node12,node8,node12,node3,node8,US,67cf70ec9741a100ffc7f570,old,,,,
370.6,directmemory_phase,node6,50.0,1.0,node11,node9,node10,node9,node11,node10,US,67cf70ec9741a100ffc7f570,old,,,,
366.8,directmemory_phase,node4,51.0,1.0,node9,node1,node2,node2,node1,node9,US,67cf70ec9741a100ffc7f570,old,,,,
482.8,directmemory_phase,node6,51.0,1.0,node10,node8,node7,node7,node8,node10,US,67cf70ec9741a100ffc7f570,old,,,,
1691.0,directmemory_phase,node2,51.0,0.0,node11,node3,node7,node3,node11,node7,US,67cf70ec9741a100ffc7f570,old,,,,
1519.2,directmemory_phase,node7,51.0,0.0,node3,node8,node4,node8,node3,node4,US,67cf70ec9741a100ffc7f570,old,,,,
3266.4,directmemory_phase,node3,49.0,0.0,node12,node11,node8,node11,node12,node8,US,67cf70ec9741a100ffc7f570,old,,,,
887.0,directmemory_phase,node2,51.0,1.0,node9,node12,node1,node1,node12,node9,US,67cf70ec9741a100ffc7f570,old,,,,
673.4,directmemory_phase,node12,50.0,0.0,node6,node5,node11,node11,node5,node6,US,67cf70ec9741a100ffc7f570,old,,,,
2003.4,directmemory_phase,,51.0,,,,,,,,US,67cf70ec9741a100ffc7f570,old,,,,
2158.0,directmemory_phase,,50.0,,,,,,,,US,67cf70ec9741a100ffc7f570,old,,,,
,directmemory_phase,node6,,,node5,node8,node3,node3,node8,node5,US,67eec1cf02e625e0d469f1ed,young,,,,
1981.5,directmemory_phase,node9,51.0,1.0,node4,node12,node11,node11,node12,node4,US,67eec1cf02e625e0d469f1ed,young,,,,
1249.4000000357628,directmemory_phase,node4,50.0,0.0,node5,node8,node3,node5,node3,node8,US,67eec1cf02e625e0d469f1ed,young,,,,
2787.899999976158,directmemory_phase,node7,51.0,1.0,node1,node11,node9,node9,node11,node1,US,67eec1cf02e625e0d469f1ed,young,,,,
2060.399999976158,directmemory_phase,node2,49.0,0.0,node8,node6,node4,node4,node6,node8,US,67eec1cf02e625e0d469f1ed,young,,,,
2535.800000011921,directmemory_phase,node8,50.0,0.0,node2,node11,node7,node7,node11,node2,US,67eec1cf02e625e0d469f1ed,young,,,,
2744.5,directmemory_phase,node9,51.0,0.0,node10,node6,node2,node6,node10,node2,US,67eec1cf02e625e0d469f1ed,young,,,,
993.1999999880792,directmemory_phase,node10,50.0,1.0,node9,node8,node6,node8,node9,node6,US,67eec1cf02e625e0d469f1ed,young,,,,
1722.9000000357628,directmemory_phase,node3,49.0,1.0,node6,node10,node1,node6,node1,node10,US,67eec1cf02e625e0d469f1ed,young,,,,
1793.699999988079,directmemory_phase,node4,50.0,0.0,node12,node6,node3,node12,node3,node6,US,67eec1cf02e625e0d469f1ed,young,,,,
1405.800000011921,directmemory_phase,node9,51.0,1.0,node4,node12,node8,node8,node12,node4,US,67eec1cf02e625e0d469f1ed,young,,,,
3185.600000023842,directmemory_phase,node11,51.0,0.0,node12,node1,node4,node12,node4,node1,US,67eec1cf02e625e0d469f1ed,young,,,,
1324.199999988079,directmemory_phase,node1,50.0,1.0,node3,node2,node12,node2,node3,node12,US,67eec1cf02e625e0d469f1ed,young,,,,
1775.600000023842,directmemory_phase,node11,49.0,0.0,node10,node4,node3,node3,node4,node10,US,67eec1cf02e625e0d469f1ed,young,,,,
2624.200000047684,directmemory_phase,node6,50.0,0.0,node12,node2,node7,node7,node2,node12,US,67eec1cf02e625e0d469f1ed,young,,,,
1371.899999976158,directmemory_phase,node4,49.0,0.0,node8,node1,node2,node2,node1,node8,US,67eec1cf02e625e0d469f1ed,young,,,,
1624.600000023842,directmemory_phase,node9,50.0,0.0,node7,node2,node12,node7,node12,node2,US,67eec1cf02e625e0d469f1ed,young,,,,
2547.699999988079,directmemory_phase,node3,51.0,1.0,node13,node12,node2,node2,node12,node13,US,67eec1cf02e625e0d469f1ed,young,,,,
1689.899999976158,directmemory_phase,node12,49.0,0.0,node2,node4,node13,node4,node2,node13,US,67eec1cf02e625e0d469f1ed,young,,,,
2226.900000035763,directmemory_phase,node2,49.0,0.0,node13,node5,node1,node1,node5,node13,US,67eec1cf02e625e0d469f1ed,young,,,,
2675.199999988079,directmemory_phase,node7,51.0,0.0,node13,node4,node10,node13,node10,node4,US,67eec1cf02e625e0d469f1ed,young,,,,
2396.199999988079,directmemory_phase,node8,49.0,1.0,node9,node12,node11,node9,node11,node12,US,67eec1cf02e625e0d469f1ed,young,,,,
1277.600000023842,directmemory_phase,node7,51.0,0.0,node3,node6,node2,node6,node3,node2,US,67eec1cf02e625e0d469f1ed,young,,,,
1376.399999976158,directmemory_phase,node8,50.0,0.0,node12,node6,node10,node10,node6,node12,US,67eec1cf02e625e0d469f1ed,young,,,,
1819.600000023842,directmemory_phase,node6,51.0,1.0,node4,node13,node9,node9,node13,node4,US,67eec1cf02e625e0d469f1ed,young,,,,
2928.300000011921,directmemory_phase,node2,51.0,0.0,node3,node7,node11,node3,node11,node7,US,67eec1cf02e625e0d469f1ed,young,,,,
1087.9000000357628,directmemory_phase,node13,50.0,1.0,node8,node7,node12,node7,node8,node12,US,67eec1cf02e625e0d469f1ed,young,,,,
1284.899999976158,directmemory_phase,node3,50.0,1.0,node4,node11,node5,node11,node4,node5,US,67eec1cf02e625e0d469f1ed,young,,,,
1932.0,directmemory_phase,node7,51.0,1.0,node12,node3,node8,node8,node3,node12,US,67eec1cf02e625e0d469f1ed,young,,,,
1910.0,directmemory_phase,node11,49.0,1.0,node9,node1,node7,node9,node7,node1,US,67eec1cf02e625e0d469f1ed,young,,,,
1355.0,directmemory_phase,node5,51.0,0.0,node2,node4,node9,node4,node2,node9,US,67eec1cf02e625e0d469f1ed,young,,,,
2096.199999988079,directmemory_phase,node12,50.0,0.0,node7,node2,node11,node11,node2,node7,US,67eec1cf02e625e0d469f1ed,young,,,,
2454.7,directmemory_phase,node13,50.0,1.0,node9,node7,node12,node7,node9,node12,US,66f02f508e8473f0362ed99e,young,,,,
3305.6,directmemory_phase,node9,49.0,0.0,node2,node12,node6,node6,node12,node2,US,66f02f508e8473f0362ed99e,young,,,,
3529.2,directmemory_phase,node4,50.0,0.0,node12,node8,node11,node12,node11,node8,US,66f02f508e8473f0362ed99e,young,,,,
3462.1,directmemory_phase,node9,50.0,1.0,node10,node7,node5,node7,node10,node5,US,66f02f508e8473f0362ed99e,young,,,,
2082.1,directmemory_phase,node6,50.0,0.0,node5,node13,node3,node3,node13,node5,US,66f02f508e8473f0362ed99e,young,,,,
2474.8,directmemory_phase,node8,49.0,0.0,node12,node13,node9,node9,node13,node12,US,66f02f508e8473f0362ed99e,young,,,,
1180.2,directmemory_phase,node3,50.0,0.0,node8,node4,node2,node2,node4,node8,US,66f02f508e8473f0362ed99e,young,,,,
2808.4,directmemory_phase,node8,49.0,0.0,node3,node6,node7,node7,node6,node3,US,66f02f508e8473f0362ed99e,young,,,,
2673.8,directmemory_phase,node12,50.0,0.0,node10,node2,node11,node11,node2,node10,US,66f02f508e8473f0362ed99e,young,,,,
3910.6,directmemory_phase,node8,51.0,1.0,node12,node6,node10,node10,node6,node12,US,66f02f508e8473f0362ed99e,young,,,,
3399.8,directmemory_phase,node4,51.0,1.0,node6,node3,node5,node5,node3,node6,US,66f02f508e8473f0362ed99e,young,,,,
3882.0,directmemory_phase,node11,50.0,1.0,node6,node12,node5,node12,node6,node5,US,66f02f508e8473f0362ed99e,young,,,,
4201.9,directmemory_phase,node2,49.0,0.0,node8,node6,node4,node4,node6,node8,US,66f02f508e8473f0362ed99e,young,,,,
3371.6,directmemory_phase,node11,50.0,0.0,node3,node1,node6,node3,node6,node1,US,66f02f508e8473f0362ed99e,young,,,,
4037.8,directmemory_phase,node12,49.0,1.0,node4,node13,node9,node4,node9,node13,US,66f02f508e8473f0362ed99e,young,,,,
3556.2,directmemory_phase,node7,50.0,0.0,node8,node2,node10,node8,node10,node2,US,66f02f508e8473f0362ed99e,young,,,,
3144.0,directmemory_phase,node3,49.0,0.0,node10,node9,node6,node6,node9,node10,US,66f02f508e8473f0362ed99e,young,,,,
3906.4,directmemory_phase,node7,49.0,1.0,node13,node2,node3,node13,node3,node2,US,66f02f508e8473f0362ed99e,young,,,,
2099.8,directmemory_phase,node9,49.0,1.0,node11,node1,node10,node11,node10,node1,US,66f02f508e8473f0362ed99e,young,,,,
3135.6,directmemory_phase,node1,50.0,1.0,node4,node2,node7,node2,node4,node7,US,66f02f508e8473f0362ed99e,young,,,,
3635.4,directmemory_phase,node7,49.0,0.0,node4,node11,node9,node9,node11,node4,US,66f02f508e8473f0362ed99e,young,,,,
3636.2,directmemory_phase,node2,51.0,0.0,node1,node8,node12,node1,node12,node8,US,66f02f508e8473f0362ed99e,young,,,,
2375.9,directmemory_phase,node6,49.0,1.0,node9,node12,node8,node9,node8,node12,US,66f02f508e8473f0362ed99e,young,,,,
3572.2,directmemory_phase,node5,51.0,0.0,node12,node4,node1,node4,node12,node1,US,66f02f508e8473f0362ed99e,young,,,,
4798.5,directmemory_phase,node6,51.0,1.0,node1,node2,node7,node7,node2,node1,US,66f02f508e8473f0362ed99e,young,,,,
2593.9,directmemory_phase,node3,49.0,0.0,node8,node9,node11,node11,node9,node8,US,66f02f508e8473f0362ed99e,young,,,,
3272.7,directmemory_phase,node10,51.0,1.0,node11,node7,node8,node8,node7,node11,US,66f02f508e8473f0362ed99e,young,,,,
4420.5,directmemory_phase,node11,50.0,0.0,node13,node6,node9,node9,node6,node13,US,66f02f508e8473f0362ed99e,young,,,,
3821.1,directmemory_phase,node2,49.0,1.0,node3,node13,node6,node3,node6,node13,US,66f02f508e8473f0362ed99e,young,,,,
3116.0,directmemory_phase,node9,51.0,1.0,node2,node3,node8,node8,node3,node2,US,66f02f508e8473f0362ed99e,young,,,,
1303.4,directmemory_phase,node7,50.0,1.0,node3,node6,node2,node6,node3,node2,US,66f02f508e8473f0362ed99e,young,,,,
3370.5,directmemory_phase,node4,49.0,0.0,node8,node1,node2,node2,node1,node8,US,66f02f508e8473f0362ed99e,young,,,,
5334.3,directmemory_phase,node10,51.0,1.0,node6,node7,node8,node8,node7,node6,US,6732ca9052a3b5780ec6068a,old,,,,
4957.8,directmemory_phase,node11,49.0,1.0,node9,node5,node4,node9,node4,node5,US,6732ca9052a3b5780ec6068a,old,,,,
2833.7,directmemory_phase,node2,51.0,1.0,node9,node6,node3,node3,node6,node9,US,6732ca9052a3b5780ec6068a,old,,,,
2854.9,directmemory_phase,node12,50.0,1.0,node5,node11,node10,node11,node5,node10,US,6732ca9052a3b5780ec6068a,old,,,,
5129.0,directmemory_phase,node9,50.0,1.0,node10,node8,node4,node8,node10,node4,US,6732ca9052a3b5780ec6068a,old,,,,
3102.9,directmemory_phase,node7,50.0,1.0,node10,node6,node4,node6,node10,node4,US,6732ca9052a3b5780ec6068a,old,,,,
2486.7,directmemory_phase,node8,50.0,1.0,node13,node10,node4,node10,node13,node4,US,6732ca9052a3b5780ec6068a,old,,,,
2349.3,directmemory_phase,node3,49.0,0.0,node13,node1,node11,node11,node1,node13,US,6732ca9052a3b5780ec6068a,old,,,,
5078.2,directmemory_phase,node7,49.0,0.0,node12,node3,node8,node8,node3,node12,US,6732ca9052a3b5780ec6068a,old,,,,
1958.1,directmemory_phase,node11,50.0,0.0,node5,node7,node3,node3,node7,node5,US,6732ca9052a3b5780ec6068a,old,,,,
4077.8,directmemory_phase,node7,51.0,0.0,node10,node9,node12,node9,node10,node12,US,6732ca9052a3b5780ec6068a,old,,,,
3370.5,directmemory_phase,node4,50.0,0.0,node5,node7,node1,node5,node1,node7,US,6732ca9052a3b5780ec6068a,old,,,,
3740.3,directmemory_phase,node3,50.0,1.0,node1,node6,node5,node6,node1,node5,US,6732ca9052a3b5780ec6068a,old,,,,
2207.0,directmemory_phase,node4,49.0,0.0,node7,node3,node12,node12,node3,node7,US,6732ca9052a3b5780ec6068a,old,,,,
3015.7,directmemory_phase,node6,49.0,1.0,node3,node5,node8,node3,node8,node5,US,6732ca9052a3b5780ec6068a,old,,,,
3521.3,directmemory_phase,node5,51.0,1.0,node1,node2,node4,node4,node2,node1,US,6732ca9052a3b5780ec6068a,old,,,,
2362.0,directmemory_phase,node9,50.0,1.0,node13,node11,node4,node11,node13,node4,US,6732ca9052a3b5780ec6068a,old,,,,
3936.4,directmemory_phase,node8,50.0,0.0,node3,node6,node7,node7,node6,node3,US,6732ca9052a3b5780ec6068a,old,,,,
4764.1,directmemory_phase,node9,50.0,0.0,node4,node12,node6,node6,node12,node4,US,6732ca9052a3b5780ec6068a,old,,,,
3636.3,directmemory_phase,node7,50.0,1.0,node3,node13,node1,node13,node3,node1,US,6732ca9052a3b5780ec6068a,old,,,,
3440.9,directmemory_phase,node8,49.0,1.0,node9,node12,node13,node9,node13,node12,US,6732ca9052a3b5780ec6068a,old,,,,
5391.0,directmemory_phase,node13,50.0,0.0,node12,node8,node7,node7,node8,node12,US,6732ca9052a3b5780ec6068a,old,,,,
2901.4,directmemory_phase,node2,49.0,0.0,node11,node1,node9,node1,node11,node9,US,6732ca9052a3b5780ec6068a,old,,,,
3607.0,directmemory_phase,node6,50.0,0.0,node4,node11,node7,node7,node11,node4,US,6732ca9052a3b5780ec6068a,old,,,,
2898.4,directmemory_phase,node4,51.0,1.0,node8,node1,node2,node2,node1,node8,US,6732ca9052a3b5780ec6068a,old,,,,
3194.0,directmemory_phase,node11,49.0,0.0,node5,node8,node12,node12,node8,node5,US,6732ca9052a3b5780ec6068a,old,,,,
2309.5,directmemory_phase,node2,51.0,1.0,node7,node11,node4,node4,node11,node7,US,6732ca9052a3b5780ec6068a,old,,,,
2697.9,directmemory_phase,node9,50.0,1.0,node13,node7,node4,node7,node13,node4,US,6732ca9052a3b5780ec6068a,old,,,,
4000.8,directmemory_phase,node12,49.0,1.0,node4,node10,node2,node4,node2,node10,US,6732ca9052a3b5780ec6068a,old,,,,
4797.9,directmemory_phase,node1,49.0,1.0,node2,node9,node3,node2,node3,node9,US,6732ca9052a3b5780ec6068a,old,,,,
2649.4,directmemory_phase,node6,49.0,1.0,node9,node4,node2,node9,node2,node4,US,6732ca9052a3b5780ec6068a,old,,,,
3807.5,directmemory_phase,node3,49.0,1.0,node2,node5,node12,node2,node12,node5,US,6732ca9052a3b5780ec6068a,old,,,,
3456.6,directmemory_phase,node7,51.0,1.0,node12,node10,node13,node13,node10,node12,US,615e420a23219efe3427a367,old,,,,
5103.8,directmemory_phase,node4,50.0,0.0,node7,node11,node12,node12,node11,node7,US,615e420a23219efe3427a367,old,,,,
4259.3,directmemory_phase,node6,50.0,0.0,node3,node12,node2,node3,node2,node12,US,615e420a23219efe3427a367,old,,,,
3669.9,directmemory_phase,node12,49.0,1.0,node11,node8,node9,node11,node9,node8,US,615e420a23219efe3427a367,old,,,,
6027.4,directmemory_phase,node3,49.0,0.0,node5,node1,node2,node2,node1,node5,US,615e420a23219efe3427a367,old,,,,
3341.0,directmemory_phase,node10,51.0,0.0,node7,node8,node3,node8,node7,node3,US,615e420a23219efe3427a367,old,,,,
5042.7,directmemory_phase,node6,51.0,1.0,node1,node13,node9,node9,node13,node1,US,615e420a23219efe3427a367,old,,,,
2721.5,directmemory_phase,node2,49.0,0.0,node6,node1,node8,node1,node6,node8,US,615e420a23219efe3427a367,old,,,,
,directmemory_phase,node9,,,node2,node3,node6,node6,node3,node2,US,615e420a23219efe3427a367,old,,,,
2721.3,directmemory_phase,node11,51.0,1.0,node13,node6,node12,node12,node6,node13,US,615e420a23219efe3427a367,old,,,,
1956.3,directmemory_phase,node8,49.0,1.0,node9,node2,node11,node9,node11,node2,US,615e420a23219efe3427a367,old,,,,
2921.8,directmemory_phase,node1,50.0,0.0,node2,node11,node4,node2,node4,node11,US,615e420a23219efe3427a367,old,,,,
2781.4,directmemory_phase,node4,51.0,1.0,node6,node1,node5,node5,node1,node6,US,615e420a23219efe3427a367,old,,,,
2591.6,directmemory_phase,node3,49.0,0.0,node5,node1,node6,node6,node1,node5,US,615e420a23219efe3427a367,old,,,,
2649.9,directmemory_phase,node12,50.0,0.0,node13,node2,node4,node4,node2,node13,US,615e420a23219efe3427a367,old,,,,
2132.6,directmemory_phase,node8,51.0,0.0,node13,node7,node4,node7,node13,node4,US,615e420a23219efe3427a367,old,,,,
2248.2,directmemory_phase,node5,49.0,1.0,node4,node9,node2,node4,node2,node9,US,615e420a23219efe3427a367,old,,,,
3291.6,directmemory_phase,node7,50.0,1.0,node11,node8,node1,node8,node11,node1,US,615e420a23219efe3427a367,old,,,,
3026.7,directmemory_phase,node9,49.0,0.0,node4,node3,node11,node11,node3,node4,US,615e420a23219efe3427a367,old,,,,
2356.3,directmemory_phase,node7,51.0,1.0,node1,node11,node6,node6,node11,node1,US,615e420a23219efe3427a367,old,,,,
3451.5,directmemory_phase,node2,49.0,0.0,node5,node4,node7,node4,node5,node7,US,615e420a23219efe3427a367,old,,,,
2813.8,directmemory_phase,node7,51.0,1.0,node12,node10,node9,node9,node10,node12,US,615e420a23219efe3427a367,old,,,,
3151.4,directmemory_phase,node4,50.0,0.0,node2,node8,node11,node2,node11,node8,US,615e420a23219efe3427a367,old,,,,
2009.1,directmemory_phase,node6,49.0,0.0,node1,node8,node7,node7,node8,node1,US,615e420a23219efe3427a367,old,,,,
1888.2,directmemory_phase,node8,49.0,1.0,node10,node12,node6,node10,node6,node12,US,615e420a23219efe3427a367,old,,,,
2106.0,directmemory_phase,node2,51.0,0.0,node3,node8,node11,node3,node11,node8,US,615e420a23219efe3427a367,old,,,,
3667.4,directmemory_phase,node9,51.0,1.0,node4,node3,node8,node8,node3,node4,US,615e420a23219efe3427a367,old,,,,
1836.4,directmemory_phase,node11,50.0,0.0,node10,node2,node3,node3,node2,node10,US,615e420a23219efe3427a367,old,,,,
2943.4,directmemory_phase,node13,51.0,1.0,node12,node8,node7,node7,node8,node12,US,615e420a23219efe3427a367,old,,,,
2811.9,directmemory_phase,node11,50.0,0.0,node13,node8,node9,node9,node8,node13,US,615e420a23219efe3427a367,old,,,,
,directmemory_phase,,,,,,,,,,US,615e420a23219efe3427a367,old,,,,
3468.3,directmemory_phase,,50.0,,,,,,,,US,615e420a23219efe3427a367,old,,,,
,directmemory_phase,node7,,,node8,node1,node11,node8,node11,node1,US,682b4aa9f44c4882f1629d8a,young,,,,
3400.1,directmemory_phase,node4,49.0,1.0,node12,node8,node11,node12,node11,node8,US,682b4aa9f44c4882f1629d8a,young,,,,
1835.8,directmemory_phase,node6,49.0,1.0,node3,node1,node8,node3,node8,node1,US,682b4aa9f44c4882f1629d8a,young,,,,
2023.8,directmemory_phase,node2,50.0,0.0,node4,node9,node12,node4,node12,node9,US,682b4aa9f44c4882f1629d8a,young,,,,
2067.2,directmemory_phase,node3,51.0,0.0,node11,node5,node12,node11,node12,node5,US,682b4aa9f44c4882f1629d8a,young,,,,
1529.4,directmemory_phase,node4,51.0,1.0,node9,node11,node2,node2,node11,node9,US,682b4aa9f44c4882f1629d8a,young,,,,
2717.5,directmemory_phase,node13,50.0,0.0,node10,node6,node7,node7,node6,node10,US,682b4aa9f44c4882f1629d8a,young,,,,
2574.7,directmemory_phase,node3,49.0,0.0,node8,node4,node2,node2,node4,node8,US,682b4aa9f44c4882f1629d8a,young,,,,
2282.9,directmemory_phase,node6,50.0,0.0,node7,node10,node8,node7,node8,node10,US,682b4aa9f44c4882f1629d8a,young,,,,
1611.9,directmemory_phase,node2,50.0,1.0,node6,node1,node8,node1,node6,node8,US,682b4aa9f44c4882f1629d8a,young,,,,
2874.8,directmemory_phase,node11,49.0,1.0,node12,node5,node6,node12,node6,node5,US,682b4aa9f44c4882f1629d8a,young,,,,
3097.4,directmemory_phase,node2,49.0,0.0,node13,node11,node3,node3,node11,node13,US,682b4aa9f44c4882f1629d8a,young,,,,
1523.5,directmemory_phase,node9,51.0,1.0,node1,node12,node11,node11,node12,node1,US,682b4aa9f44c4882f1629d8a,young,,,,
4830.9,directmemory_phase,node7,49.0,1.0,node13,node1,node10,node13,node10,node1,US,682b4aa9f44c4882f1629d8a,young,,,,
1846.3,directmemory_phase,node11,50.0,0.0,node5,node7,node3,node3,node7,node5,US,682b4aa9f44c4882f1629d8a,young,,,,
1972.3,directmemory_phase,node5,51.0,1.0,node6,node12,node4,node4,node12,node6,US,682b4aa9f44c4882f1629d8a,young,,,,
1802.6,directmemory_phase,node12,51.0,0.0,node11,node13,node2,node11,node2,node13,US,682b4aa9f44c4882f1629d8a,young,,,,
1599.1,directmemory_phase,node4,50.0,1.0,node11,node5,node8,node5,node11,node8,US,682b4aa9f44c4882f1629d8a,young,,,,
3068.7,directmemory_phase,node9,50.0,1.0,node13,node8,node5,node8,node13,node5,US,682b4aa9f44c4882f1629d8a,young,,,,
4241.5,directmemory_phase,node3,51.0,0.0,node6,node5,node12,node6,node12,node5,US,682b4aa9f44c4882f1629d8a,young,,,,
1702.4,directmemory_phase,node8,50.0,1.0,node11,node10,node2,node10,node11,node2,US,682b4aa9f44c4882f1629d8a,young,,,,
1806.7,directmemory_phase,node7,49.0,1.0,node9,node12,node10,node9,node10,node12,US,682b4aa9f44c4882f1629d8a,young,,,,
1906.2,directmemory_phase,node12,50.0,0.0,node10,node9,node4,node4,node9,node10,US,682b4aa9f44c4882f1629d8a,young,,,,
3669.6,directmemory_phase,node8,51.0,1.0,node4,node13,node9,node9,node13,node4,US,682b4aa9f44c4882f1629d8a,young,,,,
2195.4,directmemory_phase,node7,49.0,0.0,node4,node3,node6,node6,node3,node4,US,682b4aa9f44c4882f1629d8a,young,,,,
4920.7,directmemory_phase,node10,49.0,0.0,node6,node9,node8,node8,node9,node6,US,682b4aa9f44c4882f1629d8a,young,,,,
2324.9,directmemory_phase,node9,51.0,0.0,node6,node5,node13,node6,node13,node5,US,682b4aa9f44c4882f1629d8a,young,,,,
2879.0,directmemory_phase,node8,50.0,0.0,node3,node6,node7,node7,node6,node3,US,682b4aa9f44c4882f1629d8a,young,,,,
4327.8,directmemory_phase,node6,51.0,0.0,node9,node4,node11,node9,node11,node4,US,682b4aa9f44c4882f1629d8a,young,,,,
1805.2,directmemory_phase,node1,51.0,1.0,node7,node3,node2,node2,node3,node7,US,682b4aa9f44c4882f1629d8a,young,,,,
2448.1,directmemory_phase,node11,51.0,1.0,node13,node4,node9,node9,node4,node13,US,682b4aa9f44c4882f1629d8a,young,,,,
3497.1,directmemory_phase,,51.0,,,,,,,,US,682b4aa9f44c4882f1629d8a,young,,,,
5136.4,directmemory_phase,node7,51.0,1.0,node12,node3,node6,node6,node3,node12,US,67e1ab7aba45c5e515df8a71,young,,,,
,directmemory_phase,node4,,,node8,node3,node2,node2,node3,node8,US,67e1ab7aba45c5e515df8a71,young,,,,
3381.6,directmemory_phase,node6,49.0,1.0,node9,node4,node11,node9,node11,node4,US,67e1ab7aba45c5e515df8a71,young,,,,
3662.9,directmemory_phase,node4,51.0,1.0,node7,node1,node12,node12,node1,node7,US,67e1ab7aba45c5e515df8a71,young,,,,
3378.4,directmemory_phase,node11,49.0,1.0,node9,node10,node6,node9,node6,node10,US,67e1ab7aba45c5e515df8a71,young,,,,
2463.1,directmemory_phase,node7,51.0,1.0,node12,node10,node13,node13,node10,node12,US,67e1ab7aba45c5e515df8a71,young,,,,
3444.6,directmemory_phase,node10,51.0,1.0,node12,node9,node8,node8,node9,node12,US,67e1ab7aba45c5e515df8a71,young,,,,
2821.3,directmemory_phase,node2,51.0,1.0,node7,node5,node1,node1,node5,node7,US,67e1ab7aba45c5e515df8a71,young,,,,
3299.7,directmemory_phase,node3,49.0,1.0,node6,node10,node4,node6,node4,node10,US,67e1ab7aba45c5e515df8a71,young,,,,
2567.9,directmemory_phase,node2,51.0,1.0,node8,node6,node4,node4,node6,node8,US,67e1ab7aba45c5e515df8a71,young,,,,
4899.7,directmemory_phase,node3,51.0,0.0,node11,node13,node7,node11,node7,node13,US,67e1ab7aba45c5e515df8a71,young,,,,
5141.1,directmemory_phase,node7,50.0,0.0,node4,node10,node8,node8,node10,node4,US,67e1ab7aba45c5e515df8a71,young,,,,
2482.0,directmemory_phase,node6,51.0,1.0,node12,node11,node3,node3,node11,node12,US,67e1ab7aba45c5e515df8a71,young,,,,
3931.2,directmemory_phase,node8,51.0,1.0,node2,node6,node7,node7,node6,node2,US,67e1ab7aba45c5e515df8a71,young,,,,
3154.9,directmemory_phase,node3,50.0,0.0,node2,node8,node12,node2,node12,node8,US,67e1ab7aba45c5e515df8a71,young,,,,
5670.3,directmemory_phase,node5,49.0,0.0,node12,node4,node11,node4,node12,node11,US,67e1ab7aba45c5e515df8a71,young,,,,
3585.1,directmemory_phase,node6,50.0,1.0,node11,node7,node12,node7,node11,node12,US,67e1ab7aba45c5e515df8a71,young,,,,
,directmemory_phase,node12,,,node4,node13,node9,node4,node9,node13,US,67e1ab7aba45c5e515df8a71,young,,,,
2517.7,directmemory_phase,node11,49.0,1.0,node3,node10,node6,node3,node6,node10,US,67e1ab7aba45c5e515df8a71,young,,,,
3497.7,directmemory_phase,node9,49.0,1.0,node7,node1,node13,node7,node13,node1,US,67e1ab7aba45c5e515df8a71,young,,,,
3458.9,directmemory_phase,node4,50.0,1.0,node1,node5,node6,node5,node1,node6,US,67e1ab7aba45c5e515df8a71,young,,,,
3496.5,directmemory_phase,node9,51.0,0.0,node6,node1,node10,node6,node10,node1,US,67e1ab7aba45c5e515df8a71,young,,,,
3270.9,directmemory_phase,node12,49.0,0.0,node10,node5,node11,node11,node5,node10,US,67e1ab7aba45c5e515df8a71,young,,,,
2378.7,directmemory_phase,node8,50.0,0.0,node12,node11,node10,node10,node11,node12,US,67e1ab7aba45c5e515df8a71,young,,,,
1523.5,directmemory_phase,node9,51.0,1.0,node4,node3,node11,node11,node3,node4,US,67e1ab7aba45c5e515df8a71,young,,,,
4350.8,directmemory_phase,node2,49.0,1.0,node3,node7,node5,node3,node5,node7,US,67e1ab7aba45c5e515df8a71,young,,,,
4334.7,directmemory_phase,node7,50.0,0.0,node9,node12,node3,node9,node3,node12,US,67e1ab7aba45c5e515df8a71,young,,,,
3869.1,directmemory_phase,node11,51.0,0.0,node12,node1,node6,node12,node6,node1,US,67e1ab7aba45c5e515df8a71,young,,,,
2833.9,directmemory_phase,node8,51.0,1.0,node3,node6,node9,node9,node6,node3,US,67e1ab7aba45c5e515df8a71,young,,,,
2911.1,directmemory_phase,node13,49.0,1.0,node7,node10,node6,node7,node6,node10,US,67e1ab7aba45c5e515df8a71,young,,,,
2670.3,directmemory_phase,node9,50.0,1.0,node13,node8,node2,node8,node13,node2,US,67e1ab7aba45c5e515df8a71,young,,,,
1390.4,directmemory_phase,node1,51.0,1.0,node12,node4,node2,node2,node4,node12,US,67e1ab7aba45c5e515df8a71,young,,,,
4427.2,directmemory_phase,node8,51.0,1.0,node4,node11,node9,node9,node11,node4,US,628f7e982aad1788d940317a,old,,,,
4522.0,directmemory_phase,node7,50.0,1.0,node3,node6,node2,node6,node3,node2,US,628f7e982aad1788d940317a,old,,,,
5659.5,directmemory_phase,node11,50.0,0.0,node13,node7,node9,node9,node7,node13,US,628f7e982aad1788d940317a,old,,,,
3374.2,directmemory_phase,node7,49.0,0.0,node12,node11,node13,node13,node11,node12,US,628f7e982aad1788d940317a,old,,,,
5642.6,directmemory_phase,node11,50.0,0.0,node10,node4,node12,node12,node4,node10,US,628f7e982aad1788d940317a,old,,,,
3286.8,directmemory_phase,node9,49.0,0.0,node2,node12,node7,node7,node12,node2,US,628f7e982aad1788d940317a,old,,,,
4368.4,directmemory_phase,node12,51.0,1.0,node13,node5,node11,node11,node5,node13,US,628f7e982aad1788d940317a,old,,,,
2855.8,directmemory_phase,node1,51.0,1.0,node11,node3,node2,node2,node3,node11,US,628f7e982aad1788d940317a,old,,,,
3543.1,directmemory_phase,node4,49.0,0.0,node9,node1,node5,node5,node1,node9,US,628f7e982aad1788d940317a,old,,,,
3900.6,directmemory_phase,node6,50.0,0.0,node5,node2,node7,node7,node2,node5,US,628f7e982aad1788d940317a,old,,,,
2660.7,directmemory_phase,node12,51.0,0.0,node4,node10,node9,node4,node9,node10,US,628f7e982aad1788d940317a,old,,,,
1998.8,directmemory_phase,node10,49.0,1.0,node8,node12,node7,node8,node7,node12,US,628f7e982aad1788d940317a,old,,,,
3509.4,directmemory_phase,node9,49.0,0.0,node1,node12,node6,node6,node12,node1,US,628f7e982aad1788d940317a,old,,,,
4743.3,directmemory_phase,node11,51.0,0.0,node6,node3,node1,node3,node6,node1,US,628f7e982aad1788d940317a,old,,,,
2633.5,directmemory_phase,node8,50.0,1.0,node11,node7,node3,node7,node11,node3,US,628f7e982aad1788d940317a,old,,,,
3173.1,directmemory_phase,node4,51.0,1.0,node8,node3,node12,node12,node3,node8,US,628f7e982aad1788d940317a,old,,,,
3165.7,directmemory_phase,node7,50.0,0.0,node12,node11,node8,node8,node11,node12,US,628f7e982aad1788d940317a,old,,,,
2052.9,directmemory_phase,node4,50.0,1.0,node1,node2,node7,node2,node1,node7,US,628f7e982aad1788d940317a,old,,,,
2831.2,directmemory_phase,node3,49.0,0.0,node10,node7,node11,node11,node7,node10,US,628f7e982aad1788d940317a,old,,,,
2224.0,directmemory_phase,node7,49.0,0.0,node4,node11,node9,node9,node11,node4,US,628f7e982aad1788d940317a,old,,,,
2967.9,directmemory_phase,node2,51.0,0.0,node11,node4,node9,node4,node11,node9,US,628f7e982aad1788d940317a,old,,,,
2498.0,directmemory_phase,node6,50.0,0.0,node3,node1,node2,node3,node2,node1,US,628f7e982aad1788d940317a,old,,,,
2891.4,directmemory_phase,node2,50.0,1.0,node11,node1,node13,node1,node11,node13,US,628f7e982aad1788d940317a,old,,,,
4818.5,directmemory_phase,node9,51.0,1.0,node1,node10,node11,node11,node10,node1,US,628f7e982aad1788d940317a,old,,,,
4363.9,directmemory_phase,node5,50.0,0.0,node4,node1,node12,node4,node12,node1,US,628f7e982aad1788d940317a,old,,,,
3927.6,directmemory_phase,node6,51.0,1.0,node10,node11,node9,node9,node11,node10,US,628f7e982aad1788d940317a,old,,,,
3811.3,directmemory_phase,node8,49.0,1.0,node10,node3,node6,node10,node6,node3,US,628f7e982aad1788d940317a,old,,,,
2305.7,directmemory_phase,node13,51.0,1.0,node11,node8,node7,node7,node8,node11,US,628f7e982aad1788d940317a,old,,,,
4329.9,directmemory_phase,node9,49.0,0.0,node2,node13,node8,node8,node13,node2,US,628f7e982aad1788d940317a,old,,,,
3911.8,directmemory_phase,node2,51.0,0.0,node3,node13,node12,node3,node12,node13,US,628f7e982aad1788d940317a,old,,,,
2933.4,directmemory_phase,,50.0,,,,,,,,US,628f7e982aad1788d940317a,old,,,,
4668.8,directmemory_phase,,51.0,,,,,,,,US,628f7e982aad1788d940317a,old,,,,
2979.7,directmemory_phase,node2,49.0,0.0,node8,node12,node3,node3,node12,node8,US,5cba50bf114fa5001aac5570,old,,,,
2127.5,directmemory_phase,node10,49.0,0.0,node13,node7,node8,node8,node7,node13,US,5cba50bf114fa5001aac5570,old,,,,
2318.3,directmemory_phase,node9,49.0,0.0,node3,node11,node2,node11,node3,node2,US,5cba50bf114fa5001aac5570,old,,,,
2288.6,directmemory_phase,node3,50.0,0.0,node10,node9,node2,node2,node9,node10,US,5cba50bf114fa5001aac5570,old,,,,
2526.7,directmemory_phase,node8,49.0,0.0,node4,node11,node9,node9,node11,node4,US,5cba50bf114fa5001aac5570,old,,,,
1939.4,directmemory_phase,node3,51.0,0.0,node11,node8,node12,node11,node12,node8,US,5cba50bf114fa5001aac5570,old,,,,
1736.9,directmemory_phase,node9,49.0,1.0,node8,node1,node12,node8,node12,node1,US,5cba50bf114fa5001aac5570,old,,,,
1761.6,directmemory_phase,node4,50.0,1.0,node11,node2,node6,node2,node11,node6,US,5cba50bf114fa5001aac5570,old,,,,
1913.1,directmemory_phase,node8,50.0,1.0,node11,node10,node2,node10,node11,node2,US,5cba50bf114fa5001aac5570,old,,,,
1367.2,directmemory_phase,node11,50.0,0.0,node9,node13,node7,node9,node7,node13,US,5cba50bf114fa5001aac5570,old,,,,
1072.8,directmemory_phase,node6,49.0,1.0,node7,node12,node11,node7,node11,node12,US,5cba50bf114fa5001aac5570,old,,,,
1888.7,directmemory_phase,node12,51.0,0.0,node11,node7,node9,node11,node9,node7,US,5cba50bf114fa5001aac5570,old,,,,
1396.1,directmemory_phase,node7,49.0,0.0,node2,node3,node13,node13,node3,node2,US,5cba50bf114fa5001aac5570,old,,,,
1309.0,directmemory_phase,node6,49.0,1.0,node3,node10,node13,node3,node13,node10,US,5cba50bf114fa5001aac5570,old,,,,
1832.1,directmemory_phase,node5,50.0,0.0,node6,node2,node4,node4,node2,node6,US,5cba50bf114fa5001aac5570,old,,,,
1530.7,directmemory_phase,node7,51.0,0.0,node9,node2,node10,node9,node10,node2,US,5cba50bf114fa5001aac5570,old,,,,
1739.5,directmemory_phase,node4,50.0,0.0,node7,node1,node12,node12,node1,node7,US,5cba50bf114fa5001aac5570,old,,,,
1829.6,directmemory_phase,node11,50.0,0.0,node1,node4,node3,node3,node4,node1,US,5cba50bf114fa5001aac5570,old,,,,
2058.8,directmemory_phase,node12,49.0,0.0,node9,node4,node13,node4,node9,node13,US,5cba50bf114fa5001aac5570,old,,,,
1228.9,directmemory_phase,node9,49.0,0.0,node2,node3,node6,node6,node3,node2,US,5cba50bf114fa5001aac5570,old,,,,
1781.8,directmemory_phase,node8,51.0,0.0,node7,node4,node11,node7,node11,node4,US,5cba50bf114fa5001aac5570,old,,,,
1941.7,directmemory_phase,node11,49.0,0.0,node1,node7,node12,node12,node7,node1,US,5cba50bf114fa5001aac5570,old,,,,
1696.2,directmemory_phase,node4,49.0,0.0,node11,node5,node8,node5,node11,node8,US,5cba50bf114fa5001aac5570,old,,,,
1409.5,directmemory_phase,node1,51.0,1.0,node6,node4,node2,node2,node4,node6,US,5cba50bf114fa5001aac5570,old,,,,
1756.2,directmemory_phase,node9,51.0,1.0,node1,node10,node7,node7,node10,node1,US,5cba50bf114fa5001aac5570,old,,,,
1265.9,directmemory_phase,node2,50.0,0.0,node1,node7,node11,node1,node11,node7,US,5cba50bf114fa5001aac5570,old,,,,
1091.5,directmemory_phase,node6,49.0,0.0,node1,node11,node9,node9,node11,node1,US,5cba50bf114fa5001aac5570,old,,,,
920.1999999,directmemory_phase,node13,51.0,0.0,node7,node3,node8,node7,node8,node3,US,5cba50bf114fa5001aac5570,old,,,,
1127.2,directmemory_phase,node3,50.0,0.0,node6,node8,node4,node6,node4,node8,US,5cba50bf114fa5001aac5570,old,,,,
952.1,directmemory_phase,node2,51.0,1.0,node8,node12,node4,node4,node12,node8,US,5cba50bf114fa5001aac5570,old,,,,
860.5,directmemory_phase,node7,51.0,0.0,node6,node1,node3,node6,node3,node1,US,5cba50bf114fa5001aac5570,old,,,,
2639.2,directmemory_phase,,49.0,,,,,,,,US,5cba50bf114fa5001aac5570,old,,,,
4483.4,directmemory_phase,node12,51.0,1.0,node13,node2,node4,node4,node2,node13,US,6657584ca6e3645f4a99e753,young,,,,
1898.4,directmemory_phase,node3,49.0,1.0,node11,node10,node9,node11,node9,node10,US,6657584ca6e3645f4a99e753,young,,,,
2249.7,directmemory_phase,node2,50.0,0.0,node1,node8,node6,node1,node6,node8,US,6657584ca6e3645f4a99e753,young,,,,
2986.8,directmemory_phase,node6,49.0,0.0,node4,node8,node7,node7,node8,node4,US,6657584ca6e3645f4a99e753,young,,,,
2285.8,directmemory_phase,node4,50.0,0.0,node5,node7,node3,node5,node3,node7,US,6657584ca6e3645f4a99e753,young,,,,
2408.7,directmemory_phase,node6,50.0,0.0,node3,node4,node8,node3,node8,node4,US,6657584ca6e3645f4a99e753,young,,,,
3054.5,directmemory_phase,node1,49.0,0.0,node3,node2,node9,node2,node3,node9,US,6657584ca6e3645f4a99e753,young,,,,
2726.3,directmemory_phase,node7,49.0,1.0,node6,node12,node3,node6,node3,node12,US,6657584ca6e3645f4a99e753,young,,,,
2854.9,directmemory_phase,node11,50.0,0.0,node3,node5,node6,node3,node6,node5,US,6657584ca6e3645f4a99e753,young,,,,
2585.2,directmemory_phase,node10,50.0,0.0,node11,node9,node8,node8,node9,node11,US,6657584ca6e3645f4a99e753,young,,,,
3054.9,directmemory_phase,node9,50.0,0.0,node1,node10,node11,node11,node10,node1,US,6657584ca6e3645f4a99e753,young,,,,
2473.3,directmemory_phase,node3,50.0,0.0,node10,node7,node2,node2,node7,node10,US,6657584ca6e3645f4a99e753,young,,,,
1784.0,directmemory_phase,node9,51.0,1.0,node1,node13,node8,node8,node13,node1,US,6657584ca6e3645f4a99e753,young,,,,
1539.9,directmemory_phase,node7,49.0,0.0,node1,node11,node13,node13,node11,node1,US,6657584ca6e3645f4a99e753,young,,,,
2186.2,directmemory_phase,node8,50.0,1.0,node13,node9,node2,node9,node13,node2,US,6657584ca6e3645f4a99e753,young,,,,
2029.0,directmemory_phase,node4,51.0,1.0,node6,node11,node2,node2,node11,node6,US,6657584ca6e3645f4a99e753,young,,,,
2626.9,directmemory_phase,node9,51.0,1.0,node5,node12,node7,node7,node12,node5,US,6657584ca6e3645f4a99e753,young,,,,
2893.1,directmemory_phase,node3,49.0,1.0,node6,node10,node12,node6,node12,node10,US,6657584ca6e3645f4a99e753,young,,,,
2107.3,directmemory_phase,node7,50.0,0.0,node8,node12,node3,node8,node3,node12,US,6657584ca6e3645f4a99e753,young,,,,
2603.9,directmemory_phase,node2,51.0,0.0,node4,node9,node6,node4,node6,node9,US,6657584ca6e3645f4a99e753,young,,,,
3070.6,directmemory_phase,node6,51.0,0.0,node2,node9,node10,node9,node2,node10,US,6657584ca6e3645f4a99e753,young,,,,
2240.8,directmemory_phase,node5,49.0,0.0,node3,node12,node4,node4,node12,node3,US,6657584ca6e3645f4a99e753,young,,,,
1834.0,directmemory_phase,node12,50.0,1.0,node3,node11,node7,node11,node3,node7,US,6657584ca6e3645f4a99e753,young,,,,
2265.9,directmemory_phase,node8,49.0,0.0,node4,node11,node10,node10,node11,node4,US,6657584ca6e3645f4a99e753,young,,,,
3089.0,directmemory_phase,node11,51.0,0.0,node9,node5,node6,node9,node6,node5,US,6657584ca6e3645f4a99e753,young,,,,
2440.5,directmemory_phase,node2,49.0,0.0,node7,node11,node3,node3,node11,node7,US,6657584ca6e3645f4a99e753,young,,,,
2831.9,directmemory_phase,node13,50.0,0.0,node11,node8,node7,node7,node8,node11,US,6657584ca6e3645f4a99e753,young,,,,
2088.5,directmemory_phase,node4,51.0,0.0,node12,node6,node1,node12,node1,node6,US,6657584ca6e3645f4a99e753,young,,,,
2226.5,directmemory_phase,node7,50.0,0.0,node2,node3,node9,node9,node3,node2,US,6657584ca6e3645f4a99e753,young,,,,
1473.8,directmemory_phase,node11,51.0,0.0,node6,node12,node10,node12,node6,node10,US,6657584ca6e3645f4a99e753,young,,,,
2068.2,directmemory_phase,node9,50.0,0.0,node6,node4,node13,node6,node13,node4,US,6657584ca6e3645f4a99e753,young,,,,
2296.6,directmemory_phase,node8,50.0,0.0,node4,node6,node7,node7,node6,node4,US,6657584ca6e3645f4a99e753,young,,,,
5302.2,directmemory_phase,node11,49.0,1.0,node9,node10,node8,node9,node8,node10,US,6826aa7ffe3641d3eba2c4bd,young,,,,
4895.1,directmemory_phase,node1,51.0,0.0,node4,node2,node7,node2,node4,node7,US,6826aa7ffe3641d3eba2c4bd,young,,,,
3312.6,directmemory_phase,node9,50.0,1.0,node12,node6,node5,node6,node12,node5,US,6826aa7ffe3641d3eba2c4bd,young,,,,
6218.5,directmemory_phase,node2,49.0,0.0,node9,node5,node3,node3,node5,node9,US,6826aa7ffe3641d3eba2c4bd,young,,,,
4096.7,directmemory_phase,node6,51.0,0.0,node9,node1,node11,node9,node11,node1,US,6826aa7ffe3641d3eba2c4bd,young,,,,
6230.8,directmemory_phase,node5,51.0,1.0,node1,node12,node4,node4,node12,node1,US,6826aa7ffe3641d3eba2c4bd,young,,,,
5363.3,directmemory_phase,node11,51.0,1.0,node5,node4,node3,node3,node4,node5,US,6826aa7ffe3641d3eba2c4bd,young,,,,
3163.6,directmemory_phase,node7,50.0,1.0,node3,node9,node1,node9,node3,node1,US,6826aa7ffe3641d3eba2c4bd,young,,,,
3419.7,directmemory_phase,node3,49.0,0.0,node9,node6,node10,node6,node9,node10,US,6826aa7ffe3641d3eba2c4bd,young,,,,
3957.6,directmemory_phase,node2,51.0,1.0,node13,node11,node4,node4,node11,node13,US,6826aa7ffe3641d3eba2c4bd,young,,,,
4172.4,directmemory_phase,node6,51.0,1.0,node5,node2,node7,node7,node2,node5,US,6826aa7ffe3641d3eba2c4bd,young,,,,
2452.2,directmemory_phase,node3,49.0,1.0,node2,node5,node12,node2,node12,node5,US,6826aa7ffe3641d3eba2c4bd,young,,,,
3244.9,directmemory_phase,node8,51.0,0.0,node13,node9,node3,node9,node13,node3,US,6826aa7ffe3641d3eba2c4bd,young,,,,
2085.4,directmemory_phase,node2,50.0,0.0,node1,node9,node12,node1,node12,node9,US,6826aa7ffe3641d3eba2c4bd,young,,,,
4461.7,directmemory_phase,node6,51.0,1.0,node4,node13,node3,node3,node13,node4,US,6826aa7ffe3641d3eba2c4bd,young,,,,
5233.2,directmemory_phase,node13,51.0,0.0,node9,node7,node11,node7,node9,node11,US,6826aa7ffe3641d3eba2c4bd,young,,,,
3199.0,directmemory_phase,node3,50.0,0.0,node11,node8,node4,node11,node4,node8,US,6826aa7ffe3641d3eba2c4bd,young,,,,
2907.1,directmemory_phase,node4,50.0,0.0,node12,node6,node1,node12,node1,node6,US,6826aa7ffe3641d3eba2c4bd,young,,,,
2562.6,directmemory_phase,node7,49.0,1.0,node6,node4,node10,node6,node10,node4,US,6826aa7ffe3641d3eba2c4bd,young,,,,
4389.8,directmemory_phase,node4,50.0,1.0,node3,node2,node7,node2,node3,node7,US,6826aa7ffe3641d3eba2c4bd,young,,,,
4632.0,directmemory_phase,node11,51.0,0.0,node8,node12,node13,node12,node8,node13,US,6826aa7ffe3641d3eba2c4bd,young,,,,
,directmemory_phase,node8,,,node13,node7,node2,node7,node13,node2,US,6826aa7ffe3641d3eba2c4bd,young,,,,
0.299999952,directmemory_phase,node12,50.0,0.0,node8,node3,node11,node11,node3,node8,US,6826aa7ffe3641d3eba2c4bd,young,,,,
4091.1,directmemory_phase,node8,49.0,1.0,node10,node4,node6,node10,node6,node4,US,6826aa7ffe3641d3eba2c4bd,young,,,,
2423.0,directmemory_phase,node9,50.0,0.0,node4,node13,node7,node7,node13,node4,US,6826aa7ffe3641d3eba2c4bd,young,,,,
2445.5,directmemory_phase,node4,50.0,0.0,node5,node7,node3,node5,node3,node7,US,6826aa7ffe3641d3eba2c4bd,young,,,,
3243.6,directmemory_phase,node7,50.0,0.0,node1,node10,node13,node13,node10,node1,US,6826aa7ffe3641d3eba2c4bd,young,,,,
4237.1,directmemory_phase,node9,49.0,1.0,node8,node2,node10,node8,node10,node2,US,6826aa7ffe3641d3eba2c4bd,young,,,,
3153.5,directmemory_phase,node12,51.0,0.0,node2,node4,node13,node4,node2,node13,US,6826aa7ffe3641d3eba2c4bd,young,,,,
3756.5,directmemory_phase,node10,50.0,0.0,node11,node7,node8,node8,node7,node11,US,6826aa7ffe3641d3eba2c4bd,young,,,,
2118.4,directmemory_phase,node9,50.0,1.0,node10,node11,node4,node11,node10,node4,US,6826aa7ffe3641d3eba2c4bd,young,,,,
3491.0,directmemory_phase,node7,51.0,1.0,node4,node10,node8,node8,node10,node4,US,6826aa7ffe3641d3eba2c4bd,young,,,,
4484.8,directmemory_phase,node8,51.0,1.0,node4,node11,node9,node9,node11,node4,US,682dd11f39ce4e00502afaf7,old,,,,
5442.6,directmemory_phase,node4,51.0,1.0,node6,node3,node2,node2,node3,node6,US,682dd11f39ce4e00502afaf7,old,,,,
2522.5,directmemory_phase,node10,50.0,1.0,node7,node8,node3,node8,node7,node3,US,682dd11f39ce4e00502afaf7,old,,,,
1930.5,directmemory_phase,node4,51.0,1.0,node8,node3,node12,node12,node3,node8,US,682dd11f39ce4e00502afaf7,old,,,,
1575.1,directmemory_phase,node13,49.0,1.0,node7,node3,node8,node7,node8,node3,US,682dd11f39ce4e00502afaf7,old,,,,
4188.3,directmemory_phase,node12,50.0,0.0,node8,node5,node4,node4,node5,node8,US,682dd11f39ce4e00502afaf7,old,,,,
4742.9,directmemory_phase,node7,51.0,1.0,node2,node10,node9,node9,node10,node2,US,682dd11f39ce4e00502afaf7,old,,,,
5134.6,directmemory_phase,node11,51.0,1.0,node10,node4,node3,node3,node4,node10,US,682dd11f39ce4e00502afaf7,old,,,,
4217.3,directmemory_phase,node2,49.0,1.0,node4,node7,node5,node4,node5,node7,US,682dd11f39ce4e00502afaf7,old,,,,
,directmemory_phase,node9,,,node1,node10,node6,node6,node10,node1,US,682dd11f39ce4e00502afaf7,old,,,,
2891.3,directmemory_phase,node7,51.0,1.0,node1,node11,node8,node8,node11,node1,US,682dd11f39ce4e00502afaf7,old,,,,
3200.5,directmemory_phase,node6,50.0,1.0,node13,node9,node5,node9,node13,node5,US,682dd11f39ce4e00502afaf7,old,,,,
1391.7,directmemory_phase,node7,51.0,1.0,node1,node11,node13,node13,node11,node1,US,682dd11f39ce4e00502afaf7,old,,,,
1519.1,directmemory_phase,node11,49.0,1.0,node12,node13,node7,node12,node7,node13,US,682dd11f39ce4e00502afaf7,old,,,,
2567.2,directmemory_phase,node7,51.0,1.0,node12,node3,node6,node6,node3,node12,US,682dd11f39ce4e00502afaf7,old,,,,
2665.9,directmemory_phase,node4,49.0,1.0,node5,node6,node1,node5,node1,node6,US,682dd11f39ce4e00502afaf7,old,,,,
2710.2,directmemory_phase,node8,49.0,0.0,node6,node7,node3,node7,node6,node3,US,682dd11f39ce4e00502afaf7,old,,,,
1959.5,directmemory_phase,node1,49.0,1.0,node2,node12,node3,node2,node3,node12,US,682dd11f39ce4e00502afaf7,old,,,,
2382.1,directmemory_phase,node6,51.0,0.0,node3,node12,node2,node3,node2,node12,US,682dd11f39ce4e00502afaf7,old,,,,
2328.3,directmemory_phase,node12,51.0,1.0,node7,node5,node11,node11,node5,node7,US,682dd11f39ce4e00502afaf7,old,,,,
2643.1,directmemory_phase,node3,51.0,1.0,node5,node9,node6,node6,node9,node5,US,682dd11f39ce4e00502afaf7,old,,,,
3218.4,directmemory_phase,node9,51.0,0.0,node13,node11,node5,node11,node13,node5,US,682dd11f39ce4e00502afaf7,old,,,,
2591.5,directmemory_phase,node6,51.0,1.0,node12,node13,node7,node7,node13,node12,US,682dd11f39ce4e00502afaf7,old,,,,
2500.5,directmemory_phase,node3,51.0,1.0,node5,node12,node11,node11,node12,node5,US,682dd11f39ce4e00502afaf7,old,,,,
1870.2,directmemory_phase,node8,50.0,1.0,node6,node10,node3,node10,node6,node3,US,682dd11f39ce4e00502afaf7,old,,,,
2432.7,directmemory_phase,node11,51.0,1.0,node1,node2,node9,node9,node2,node1,US,682dd11f39ce4e00502afaf7,old,,,,
4016.8,directmemory_phase,node2,51.0,0.0,node3,node13,node6,node3,node6,node13,US,682dd11f39ce4e00502afaf7,old,,,,
1297.8,directmemory_phase,node5,49.0,1.0,node4,node3,node12,node4,node12,node3,US,682dd11f39ce4e00502afaf7,old,,,,
1971.9,directmemory_phase,node2,49.0,0.0,node9,node6,node1,node1,node6,node9,US,682dd11f39ce4e00502afaf7,old,,,,
2814.7,directmemory_phase,node9,50.0,1.0,node12,node8,node4,node8,node12,node4,US,682dd11f39ce4e00502afaf7,old,,,,
2457.5,directmemory_phase,node3,51.0,1.0,node5,node7,node2,node2,node7,node5,US,682dd11f39ce4e00502afaf7,old,,,,
3675.1,directmemory_phase,node9,49.0,0.0,node2,node12,node7,node7,node12,node2,US,682dd11f39ce4e00502afaf7,old,,,,
6455.4,directmemory_phase,node7,50.0,0.0,node1,node10,node13,node13,node10,node1,US,5fadeb340e10471fdeb5fbf5,young,,,,
5380.3,directmemory_phase,node4,51.0,0.0,node5,node8,node11,node5,node11,node8,US,5fadeb340e10471fdeb5fbf5,young,,,,
,directmemory_phase,node9,,,node1,node3,node7,node7,node3,node1,US,5fadeb340e10471fdeb5fbf5,young,,,,
2849.9,directmemory_phase,node4,50.0,1.0,node1,node12,node6,node12,node1,node6,US,5fadeb340e10471fdeb5fbf5,young,,,,
3740.9,directmemory_phase,node11,50.0,0.0,node13,node6,node9,node9,node6,node13,US,5fadeb340e10471fdeb5fbf5,young,,,,
3610.5,directmemory_phase,node2,50.0,0.0,node4,node8,node11,node4,node11,node8,US,5fadeb340e10471fdeb5fbf5,young,,,,
3810.4,directmemory_phase,node10,50.0,0.0,node3,node7,node8,node8,node7,node3,US,5fadeb340e10471fdeb5fbf5,young,,,,
3245.4,directmemory_phase,node5,49.0,0.0,node2,node4,node6,node4,node2,node6,US,5fadeb340e10471fdeb5fbf5,young,,,,
4090.2,directmemory_phase,node3,50.0,0.0,node8,node4,node11,node11,node4,node8,US,5fadeb340e10471fdeb5fbf5,young,,,,
4385.3,directmemory_phase,node1,50.0,0.0,node2,node7,node3,node2,node3,node7,US,5fadeb340e10471fdeb5fbf5,young,,,,
1995.2,directmemory_phase,node3,50.0,0.0,node10,node7,node6,node6,node7,node10,US,5fadeb340e10471fdeb5fbf5,young,,,,
2737.4,directmemory_phase,node8,50.0,0.0,node2,node13,node9,node9,node13,node2,US,5fadeb340e10471fdeb5fbf5,young,,,,
2556.3,directmemory_phase,node2,50.0,0.0,node13,node5,node3,node3,node5,node13,US,5fadeb340e10471fdeb5fbf5,young,,,,
3088.2,directmemory_phase,node9,51.0,1.0,node5,node10,node6,node6,node10,node5,US,5fadeb340e10471fdeb5fbf5,young,,,,
4219.3,directmemory_phase,node11,49.0,0.0,node5,node8,node3,node3,node8,node5,US,5fadeb340e10471fdeb5fbf5,young,,,,
2527.5,directmemory_phase,node7,50.0,0.0,node2,node3,node9,node9,node3,node2,US,5fadeb340e10471fdeb5fbf5,young,,,,
4601.3,directmemory_phase,node4,50.0,0.0,node9,node3,node2,node2,node3,node9,US,5fadeb340e10471fdeb5fbf5,young,,,,
3402.9,directmemory_phase,node7,51.0,1.0,node12,node10,node6,node6,node10,node12,US,5fadeb340e10471fdeb5fbf5,young,,,,
5040.4,directmemory_phase,node9,49.0,0.0,node13,node8,node5,node8,node13,node5,US,5fadeb340e10471fdeb5fbf5,young,,,,
2881.9,directmemory_phase,node6,51.0,1.0,node10,node2,node7,node7,node2,node10,US,5fadeb340e10471fdeb5fbf5,young,,,,
3222.4,directmemory_phase,node8,50.0,0.0,node2,node11,node10,node10,node11,node2,US,5fadeb340e10471fdeb5fbf5,young,,,,
3349.5,directmemory_phase,node12,49.0,1.0,node4,node7,node9,node4,node9,node7,US,5fadeb340e10471fdeb5fbf5,young,,,,
4279.0,directmemory_phase,node6,49.0,0.0,node12,node13,node9,node9,node13,node12,US,5fadeb340e10471fdeb5fbf5,young,,,,
2080.4,directmemory_phase,node11,49.0,0.0,node4,node12,node5,node12,node4,node5,US,5fadeb340e10471fdeb5fbf5,young,,,,
5367.4,directmemory_phase,node3,49.0,1.0,node2,node13,node9,node2,node9,node13,US,5fadeb340e10471fdeb5fbf5,young,,,,
3652.7,directmemory_phase,node9,49.0,0.0,node13,node11,node4,node11,node13,node4,US,5fadeb340e10471fdeb5fbf5,young,,,,
5144.7,directmemory_phase,node2,51.0,1.0,node13,node6,node1,node1,node6,node13,US,5fadeb340e10471fdeb5fbf5,young,,,,
3666.0,directmemory_phase,node6,50.0,1.0,node13,node3,node10,node3,node13,node10,US,5fadeb340e10471fdeb5fbf5,young,,,,
2328.9,directmemory_phase,node13,51.0,0.0,node8,node7,node10,node7,node8,node10,US,5fadeb340e10471fdeb5fbf5,young,,,,
4640.9,directmemory_phase,node12,51.0,1.0,node6,node9,node11,node11,node9,node6,US,5fadeb340e10471fdeb5fbf5,young,,,,
3940.0,directmemory_phase,node7,50.0,0.0,node2,node10,node8,node8,node10,node2,US,5fadeb340e10471fdeb5fbf5,young,,,,
2299.9,directmemory_phase,,50.0,,,,,,,,US,5fadeb340e10471fdeb5fbf5,young,,,,
3640.8,directmemory_phase,node10,49.0,1.0,node8,node6,node9,node8,node9,node6,US,67351d691e6e9753f1834168,old,,,,
3913.6,directmemory_phase,node3,50.0,0.0,node2,node13,node1,node2,node1,node13,US,67351d691e6e9753f1834168,old,,,,
3360.5,directmemory_phase,node6,51.0,0.0,node8,node9,node12,node9,node8,node12,US,67351d691e6e9753f1834168,old,,,,
2062.3,directmemory_phase,node1,49.0,1.0,node2,node6,node4,node2,node4,node6,US,67351d691e6e9753f1834168,old,,,,
4396.8,directmemory_phase,node11,50.0,0.0,node1,node7,node3,node3,node7,node1,US,67351d691e6e9753f1834168,old,,,,
2899.4,directmemory_phase,node5,51.0,0.0,node4,node9,node12,node4,node12,node9,US,67351d691e6e9753f1834168,old,,,,
2603.9,directmemory_phase,node3,50.0,0.0,node6,node10,node1,node6,node1,node10,US,67351d691e6e9753f1834168,old,,,,
2445.4,directmemory_phase,node7,51.0,0.0,node3,node9,node4,node9,node3,node4,US,67351d691e6e9753f1834168,old,,,,
5668.4,directmemory_phase,node4,51.0,0.0,node1,node5,node6,node5,node1,node6,US,67351d691e6e9753f1834168,old,,,,
3899.3,directmemory_phase,node7,51.0,1.0,node2,node3,node8,node8,node3,node2,US,67351d691e6e9753f1834168,old,,,,
2629.5,directmemory_phase,node9,50.0,1.0,node12,node11,node1,node11,node12,node1,US,67351d691e6e9753f1834168,old,,,,
3217.6,directmemory_phase,node13,50.0,0.0,node3,node9,node7,node7,node9,node3,US,67351d691e6e9753f1834168,old,,,,
2481.2,directmemory_phase,node4,49.0,1.0,node12,node6,node11,node12,node11,node6,US,67351d691e6e9753f1834168,old,,,,
4478.4,directmemory_phase,node7,51.0,1.0,node1,node3,node13,node13,node3,node1,US,67351d691e6e9753f1834168,old,,,,
4962.9,directmemory_phase,node6,51.0,1.0,node5,node13,node3,node3,node13,node5,US,67351d691e6e9753f1834168,old,,,,
3094.6,directmemory_phase,node8,50.0,0.0,node7,node12,node13,node7,node13,node12,US,67351d691e6e9753f1834168,old,,,,
3389.6,directmemory_phase,node12,49.0,1.0,node11,node8,node3,node11,node3,node8,US,67351d691e6e9753f1834168,old,,,,
3791.1,directmemory_phase,node2,51.0,1.0,node9,node12,node4,node4,node12,node9,US,67351d691e6e9753f1834168,old,,,,
3325.7,directmemory_phase,node8,51.0,0.0,node10,node12,node13,node10,node13,node12,US,67351d691e6e9753f1834168,old,,,,
6216.5,directmemory_phase,node4,49.0,0.0,node6,node1,node2,node2,node1,node6,US,67351d691e6e9753f1834168,old,,,,
4028.9,directmemory_phase,node9,51.0,1.0,node1,node3,node8,node8,node3,node1,US,67351d691e6e9753f1834168,old,,,,
3882.4,directmemory_phase,node11,51.0,1.0,node13,node7,node12,node12,node7,node13,US,67351d691e6e9753f1834168,old,,,,
4592.3,directmemory_phase,node6,51.0,1.0,node4,node11,node7,node7,node11,node4,US,67351d691e6e9753f1834168,old,,,,
4477.9,directmemory_phase,node8,50.0,1.0,node6,node9,node3,node9,node6,node3,US,67351d691e6e9753f1834168,old,,,,
4720.1,directmemory_phase,node7,50.0,1.0,node3,node6,node1,node6,node3,node1,US,67351d691e6e9753f1834168,old,,,,
4106.5,directmemory_phase,node11,51.0,1.0,node13,node8,node9,node9,node8,node13,US,67351d691e6e9753f1834168,old,,,,
3633.2,directmemory_phase,node12,50.0,1.0,node3,node4,node1,node4,node3,node1,US,67351d691e6e9753f1834168,old,,,,
4133.5,directmemory_phase,node3,51.0,0.0,node11,node13,node4,node11,node4,node13,US,67351d691e6e9753f1834168,old,,,,
6032.6,directmemory_phase,node9,50.0,0.0,node7,node5,node10,node7,node10,node5,US,67351d691e6e9753f1834168,old,,,,
3913.3,directmemory_phase,node2,49.0,0.0,node12,node1,node8,node1,node12,node8,US,67351d691e6e9753f1834168,old,,,,
3921.2,directmemory_phase,node9,51.0,1.0,node5,node10,node6,node6,node10,node5,US,67351d691e6e9753f1834168,old,,,,
2743.9,directmemory_phase,node2,51.0,1.0,node13,node12,node3,node3,node12,node13,US,67351d691e6e9753f1834168,old,,,,
5308.5,directmemory_phase,node6,49.0,1.0,node9,node4,node13,node9,node13,node4,US,57bb6878eb28030001f7ea94,old,,,,
447.0,directmemory_phase,node2,51.0,1.0,node9,node5,node3,node3,node5,node9,US,57bb6878eb28030001f7ea94,old,,,,
1082.8,directmemory_phase,node10,49.0,1.0,node8,node13,node9,node8,node9,node13,US,57bb6878eb28030001f7ea94,old,,,,
1584.3,directmemory_phase,node2,49.0,0.0,node7,node12,node4,node4,node12,node7,US,57bb6878eb28030001f7ea94,old,,,,
2928.9,directmemory_phase,node8,51.0,1.0,node4,node13,node10,node10,node13,node4,US,57bb6878eb28030001f7ea94,old,,,,
2971.5,directmemory_phase,node11,49.0,0.0,node13,node8,node12,node12,node8,node13,US,57bb6878eb28030001f7ea94,old,,,,
3717.2,directmemory_phase,node8,50.0,1.0,node11,node9,node3,node9,node11,node3,US,57bb6878eb28030001f7ea94,old,,,,
1932.099999,directmemory_phase,node1,49.0,0.0,node12,node4,node2,node2,node4,node12,US,57bb6878eb28030001f7ea94,old,,,,
3073.8,directmemory_phase,node7,51.0,1.0,node12,node10,node13,node13,node10,node12,US,57bb6878eb28030001f7ea94,old,,,,
1725.4,directmemory_phase,node3,49.0,1.0,node6,node13,node7,node6,node7,node13,US,57bb6878eb28030001f7ea94,old,,,,
2708.8,directmemory_phase,node11,49.0,0.0,node5,node4,node9,node9,node4,node5,US,57bb6878eb28030001f7ea94,old,,,,
2908.5,directmemory_phase,node6,50.0,1.0,node8,node7,node10,node7,node8,node10,US,57bb6878eb28030001f7ea94,old,,,,
2253.4,directmemory_phase,node3,49.0,1.0,node11,node13,node7,node11,node7,node13,US,57bb6878eb28030001f7ea94,old,,,,
3961.6,directmemory_phase,node13,51.0,0.0,node7,node12,node9,node7,node9,node12,US,57bb6878eb28030001f7ea94,old,,,,
2804.2,directmemory_phase,node12,49.0,0.0,node13,node2,node4,node4,node2,node13,US,57bb6878eb28030001f7ea94,old,,,,
3124.1,directmemory_phase,node6,51.0,1.0,node10,node11,node3,node3,node11,node10,US,57bb6878eb28030001f7ea94,old,,,,
3212.9,directmemory_phase,node2,51.0,1.0,node8,node5,node1,node1,node5,node8,US,57bb6878eb28030001f7ea94,old,,,,
2675.799999,directmemory_phase,node11,51.0,1.0,node1,node2,node3,node3,node2,node1,US,57bb6878eb28030001f7ea94,old,,,,
2070.2,directmemory_phase,node7,49.0,0.0,node1,node10,node6,node6,node10,node1,US,57bb6878eb28030001f7ea94,old,,,,
2885.5,directmemory_phase,node3,50.0,0.0,node13,node4,node2,node2,node4,node13,US,57bb6878eb28030001f7ea94,old,,,,
2663.700001,directmemory_phase,node9,49.0,1.0,node11,node4,node10,node11,node10,node4,US,57bb6878eb28030001f7ea94,old,,,,
3540.9,directmemory_phase,node4,49.0,0.0,node6,node1,node2,node2,node1,node6,US,57bb6878eb28030001f7ea94,old,,,,
2306.7,directmemory_phase,node7,51.0,1.0,node1,node10,node9,node9,node10,node1,US,57bb6878eb28030001f7ea94,old,,,,
2502.7,directmemory_phase,node4,50.0,0.0,node12,node7,node11,node12,node11,node7,US,57bb6878eb28030001f7ea94,old,,,,
2281.5,directmemory_phase,node8,50.0,1.0,node6,node7,node2,node7,node6,node2,US,57bb6878eb28030001f7ea94,old,,,,
4389.2,directmemory_phase,node9,50.0,0.0,node4,node13,node6,node6,node13,node4,US,57bb6878eb28030001f7ea94,old,,,,
3145.4,directmemory_phase,node7,50.0,1.0,node10,node8,node12,node8,node10,node12,US,57bb6878eb28030001f7ea94,old,,,,
3217.4,directmemory_phase,node5,49.0,0.0,node9,node2,node4,node4,node2,node9,US,57bb6878eb28030001f7ea94,old,,,,
3294.0,directmemory_phase,node9,51.0,0.0,node3,node8,node2,node8,node3,node2,US,57bb6878eb28030001f7ea94,old,,,,
3403.6,directmemory_phase,node4,50.0,0.0,node5,node9,node1,node5,node1,node9,US,57bb6878eb28030001f7ea94,old,,,,
2906.2,directmemory_phase,node9,51.0,1.0,node1,node10,node7,node7,node10,node1,US,57bb6878eb28030001f7ea94,old,,,,
2149.6,directmemory_phase,node12,49.0,0.0,node13,node3,node11,node11,node3,node13,US,57bb6878eb28030001f7ea94,old,,,,
2312.7,directmemory_phase,node9,50.0,0.0,node7,node1,node12,node7,node12,node1,US,67e2b86a96de1816df85cefe,old,,,,
2770.8,directmemory_phase,node6,51.0,0.0,node2,node3,node4,node3,node2,node4,US,67e2b86a96de1816df85cefe,old,,,,
1972.0,directmemory_phase,node7,51.0,1.0,node2,node3,node9,node9,node3,node2,US,67e2b86a96de1816df85cefe,old,,,,
2051.0,directmemory_phase,node3,51.0,0.0,node2,node5,node4,node2,node4,node5,US,67e2b86a96de1816df85cefe,old,,,,
1780.2,directmemory_phase,node9,51.0,1.0,node4,node13,node11,node11,node13,node4,US,67e2b86a96de1816df85cefe,old,,,,
2920.9,directmemory_phase,node7,50.0,0.0,node8,node1,node11,node8,node11,node1,US,67e2b86a96de1816df85cefe,old,,,,
2058.0,directmemory_phase,node1,49.0,0.0,node11,node3,node2,node2,node3,node11,US,67e2b86a96de1816df85cefe,old,,,,
3343.2,directmemory_phase,node9,50.0,0.0,node8,node2,node10,node8,node10,node2,US,67e2b86a96de1816df85cefe,old,,,,
4249.2,directmemory_phase,node11,50.0,0.0,node5,node7,node12,node12,node7,node5,US,67e2b86a96de1816df85cefe,old,,,,
2223.6,directmemory_phase,node9,51.0,0.0,node10,node6,node4,node6,node10,node4,US,67e2b86a96de1816df85cefe,old,,,,
2791.3,directmemory_phase,node8,50.0,1.0,node13,node7,node3,node7,node13,node3,US,67e2b86a96de1816df85cefe,old,,,,
2589.7,directmemory_phase,node6,50.0,0.0,node10,node2,node9,node9,node2,node10,US,67e2b86a96de1816df85cefe,old,,,,
2978.4,directmemory_phase,node4,49.0,0.0,node11,node5,node6,node5,node11,node6,US,67e2b86a96de1816df85cefe,old,,,,
2701.9,directmemory_phase,node13,50.0,0.0,node7,node11,node8,node7,node8,node11,US,67e2b86a96de1816df85cefe,old,,,,
2924.3,directmemory_phase,node2,49.0,0.0,node7,node12,node1,node1,node12,node7,US,67e2b86a96de1816df85cefe,old,,,,
2603.3,directmemory_phase,node12,49.0,0.0,node1,node5,node4,node4,node5,node1,US,67e2b86a96de1816df85cefe,old,,,,
2624.3,directmemory_phase,node6,49.0,0.0,node10,node2,node7,node7,node2,node10,US,67e2b86a96de1816df85cefe,old,,,,
2972.5,directmemory_phase,node2,51.0,0.0,node12,node4,node13,node4,node12,node13,US,67e2b86a96de1816df85cefe,old,,,,
2135.4,directmemory_phase,node3,50.0,0.0,node6,node10,node12,node6,node12,node10,US,67e2b86a96de1816df85cefe,old,,,,
2727.3,directmemory_phase,node7,51.0,1.0,node2,node10,node13,node13,node10,node2,US,67e2b86a96de1816df85cefe,old,,,,
2211.5,directmemory_phase,node2,51.0,1.0,node9,node6,node3,node3,node6,node9,US,67e2b86a96de1816df85cefe,old,,,,
3521.6,directmemory_phase,node7,51.0,0.0,node6,node2,node10,node6,node10,node2,US,67e2b86a96de1816df85cefe,old,,,,
2587.7,directmemory_phase,node4,50.0,0.0,node6,node3,node2,node2,node3,node6,US,67e2b86a96de1816df85cefe,old,,,,
2910.4,directmemory_phase,node10,49.0,1.0,node8,node11,node7,node8,node7,node11,US,67e2b86a96de1816df85cefe,old,,,,
3785.3,directmemory_phase,node3,51.0,0.0,node11,node13,node9,node11,node9,node13,US,67e2b86a96de1816df85cefe,old,,,,
2753.6,directmemory_phase,node5,50.0,0.0,node4,node11,node12,node4,node12,node11,US,67e2b86a96de1816df85cefe,old,,,,
2780.3,directmemory_phase,node11,50.0,1.0,node2,node9,node13,node9,node2,node13,US,67e2b86a96de1816df85cefe,old,,,,
3036.4,directmemory_phase,node4,50.0,0.0,node6,node1,node12,node12,node1,node6,US,67e2b86a96de1816df85cefe,old,,,,
3279.8,directmemory_phase,node8,51.0,1.0,node12,node11,node9,node9,node11,node12,US,67e2b86a96de1816df85cefe,old,,,,
4586.8,directmemory_phase,node11,50.0,1.0,node8,node3,node5,node3,node8,node5,US,67e2b86a96de1816df85cefe,old,,,,
3230.2,directmemory_phase,node8,49.0,0.0,node4,node13,node10,node10,node13,node4,US,67e2b86a96de1816df85cefe,old,,,,
3130.6,directmemory_phase,node12,49.0,0.0,node10,node5,node11,node11,node5,node10,US,67e2b86a96de1816df85cefe,old,,,,
,directmemory_phase,node11,,,node4,node3,node1,node3,node4,node1,US,62c431f8b8e7dec0d2c03ea7,young,,,,
3205.7,directmemory_phase,node13,50.0,0.0,node7,node2,node6,node7,node6,node2,US,62c431f8b8e7dec0d2c03ea7,young,,,,
2421.6,directmemory_phase,node5,51.0,0.0,node4,node1,node12,node4,node12,node1,US,62c431f8b8e7dec0d2c03ea7,young,,,,
2166.0,directmemory_phase,node9,51.0,1.0,node2,node13,node11,node11,node13,node2,US,62c431f8b8e7dec0d2c03ea7,young,,,,
2109.9,directmemory_phase,node7,51.0,1.0,node4,node11,node6,node6,node11,node4,US,62c431f8b8e7dec0d2c03ea7,young,,,,
1738.0,directmemory_phase,node8,50.0,1.0,node6,node10,node12,node10,node6,node12,US,62c431f8b8e7dec0d2c03ea7,young,,,,
2098.4,directmemory_phase,node9,49.0,1.0,node6,node2,node3,node6,node3,node2,US,62c431f8b8e7dec0d2c03ea7,young,,,,
1732.4,directmemory_phase,node4,50.0,0.0,node6,node3,node2,node2,node3,node6,US,62c431f8b8e7dec0d2c03ea7,young,,,,
1556.0,directmemory_phase,node9,51.0,1.0,node4,node13,node7,node7,node13,node4,US,62c431f8b8e7dec0d2c03ea7,young,,,,
1754.0,directmemory_phase,node11,51.0,0.0,node6,node12,node1,node12,node6,node1,US,62c431f8b8e7dec0d2c03ea7,young,,,,
1712.3,directmemory_phase,node7,51.0,1.0,node12,node10,node13,node13,node10,node12,US,62c431f8b8e7dec0d2c03ea7,young,,,,
1718.9,directmemory_phase,node1,50.0,0.0,node9,node3,node2,node2,node3,node9,US,62c431f8b8e7dec0d2c03ea7,young,,,,
1999.6,directmemory_phase,node9,49.0,1.0,node8,node4,node12,node8,node12,node4,US,62c431f8b8e7dec0d2c03ea7,young,,,,
1698.2,directmemory_phase,node2,50.0,0.0,node13,node6,node3,node3,node6,node13,US,62c431f8b8e7dec0d2c03ea7,young,,,,
1968.8,directmemory_phase,node7,51.0,0.0,node9,node1,node3,node9,node3,node1,US,62c431f8b8e7dec0d2c03ea7,young,,,,
1914.3,directmemory_phase,node3,51.0,1.0,node8,node4,node2,node2,node4,node8,US,62c431f8b8e7dec0d2c03ea7,young,,,,
1832.0,directmemory_phase,node6,49.0,1.0,node9,node1,node8,node9,node8,node1,US,62c431f8b8e7dec0d2c03ea7,young,,,,
1654.2,directmemory_phase,node12,51.0,0.0,node2,node4,node6,node4,node2,node6,US,62c431f8b8e7dec0d2c03ea7,young,,,,
1519.5,directmemory_phase,node6,50.0,0.0,node7,node4,node2,node7,node2,node4,US,62c431f8b8e7dec0d2c03ea7,young,,,,
1517.6,directmemory_phase,node4,50.0,0.0,node7,node11,node12,node12,node11,node7,US,62c431f8b8e7dec0d2c03ea7,young,,,,
1827.0,directmemory_phase,node7,50.0,1.0,node10,node8,node12,node8,node10,node12,US,62c431f8b8e7dec0d2c03ea7,young,,,,
1572.0,directmemory_phase,node3,50.0,0.0,node6,node13,node9,node6,node9,node13,US,62c431f8b8e7dec0d2c03ea7,young,,,,
1489.8,directmemory_phase,node8,49.0,1.0,node7,node4,node13,node7,node13,node4,US,62c431f8b8e7dec0d2c03ea7,young,,,,
1641.7,directmemory_phase,node12,51.0,1.0,node10,node3,node11,node11,node3,node10,US,62c431f8b8e7dec0d2c03ea7,young,,,,
1362.0,directmemory_phase,node8,49.0,0.0,node13,node9,node2,node9,node13,node2,US,62c431f8b8e7dec0d2c03ea7,young,,,,
1054.8,directmemory_phase,node6,50.0,0.0,node4,node13,node3,node3,node13,node4,US,62c431f8b8e7dec0d2c03ea7,young,,,,
1469.8,directmemory_phase,node2,50.0,0.0,node9,node12,node4,node4,node12,node9,US,62c431f8b8e7dec0d2c03ea7,young,,,,
1395.6,directmemory_phase,node3,49.0,0.0,node5,node4,node11,node11,node4,node5,US,62c431f8b8e7dec0d2c03ea7,young,,,,
1708.7,directmemory_phase,node2,49.0,1.0,node1,node8,node6,node1,node6,node8,US,62c431f8b8e7dec0d2c03ea7,young,,,,
1728.4,directmemory_phase,node4,51.0,0.0,node5,node8,node3,node5,node3,node8,US,62c431f8b8e7dec0d2c03ea7,young,,,,
1946.9,directmemory_phase,node11,51.0,0.0,node9,node10,node7,node9,node7,node10,US,62c431f8b8e7dec0d2c03ea7,young,,,,
1767.1,directmemory_phase,node10,50.0,1.0,node9,node8,node12,node8,node9,node12,US,62c431f8b8e7dec0d2c03ea7,young,,,,
3531.3,shortestpath_phase,node1,49.0,0.0,,,,node6,,,US,67cf70ec9741a100ffc7f570,old,node9,node6,One Edge Diff,Three Edge Four Edge
3679.1,shortestpath_phase,node5,49.0,0.0,,,,node8,,,US,67cf70ec9741a100ffc7f570,old,node13,node8,One Edge Diff,Five Edge Six Edge
4422.9,shortestpath_phase,node13,49.0,0.0,,,,node6,,,US,67cf70ec9741a100ffc7f570,old,node12,node6,Two Edge Diff,Two Edge Four Edge
2584.1,shortestpath_phase,node4,50.0,1.0,,,,node9,,,US,67cf70ec9741a100ffc7f570,old,node10,node9,Two Edge Diff,Three Edge Five Edge
3185.6,shortestpath_phase,node10,49.0,1.0,,,,node3,,,US,67cf70ec9741a100ffc7f570,old,node3,node5,Two Edge Diff,Four Edge Six Edge
4614.2,shortestpath_phase,node5,49.0,1.0,,,,node8,,,US,67cf70ec9741a100ffc7f570,old,node8,node10,One Edge Diff,Five Edge Six Edge
5363.7,shortestpath_phase,node10,50.0,0.0,,,,node12,,,US,67cf70ec9741a100ffc7f570,old,node12,node5,Two Edge Diff,Four Edge Six Edge
4615.1,shortestpath_phase,node6,49.0,1.0,,,,node8,,,US,67cf70ec9741a100ffc7f570,old,node8,node1,One Edge Diff,Two Edge Three Edge
574.6,shortestpath_phase,node5,50.0,1.0,,,,node7,,,US,67cf70ec9741a100ffc7f570,old,node13,node7,One Edge Diff,Five Edge Six Edge
392.4,shortestpath_phase,node1,49.0,0.0,,,,node4,,,US,67cf70ec9741a100ffc7f570,old,node8,node4,Three Edge Diff,Three Edge Six Edge
408.6,shortestpath_phase,node10,50.0,1.0,,,,node2,,,US,67cf70ec9741a100ffc7f570,old,node1,node2,One Edge Diff,Five Edge Six Edge
293.7,shortestpath_phase,node5,49.0,1.0,,,,node9,,,US,67cf70ec9741a100ffc7f570,old,node9,node13,Two Edge Diff,Four Edge Six Edge
5.5,shortestpath_phase,node13,50.0,1.0,,,,node8,,,US,67cf70ec9741a100ffc7f570,old,node5,node8,Four Edge Diff,Two Edge Six Edge
620.0,shortestpath_phase,node2,49.0,1.0,,,,node11,,,US,67cf70ec9741a100ffc7f570,old,node11,node10,Three Edge Diff,Two Edge Five Edge
531.0,shortestpath_phase,node1,50.0,1.0,,,,node12,,,US,67cf70ec9741a100ffc7f570,old,node7,node12,One Edge Diff,Three Edge Four Edge
478.0,shortestpath_phase,node10,49.0,0.0,,,,node7,,,US,67cf70ec9741a100ffc7f570,old,node4,node7,Three Edge Diff,Two Edge Five Edge
435.6,shortestpath_phase,node1,50.0,1.0,,,,node3,,,US,67cf70ec9741a100ffc7f570,old,node6,node3,One Edge Diff,Two Edge Three Edge
369.1,shortestpath_phase,node5,49.0,0.0,,,,node12,,,US,67cf70ec9741a100ffc7f570,old,node7,node12,Three Edge Diff,Two Edge Five Edge
798.6,shortestpath_phase,node2,50.0,0.0,,,,node6,,,US,67cf70ec9741a100ffc7f570,old,node6,node13,Two Edge Diff,Two Edge Four Edge
472.8,shortestpath_phase,node5,49.0,1.0,,,,node1,,,US,67cf70ec9741a100ffc7f570,old,node1,node7,Two Edge Diff,Three Edge Five Edge
303.0,shortestpath_phase,node9,50.0,0.0,,,,node12,,,US,67cf70ec9741a100ffc7f570,old,node12,node2,One Edge Diff,Two Edge Three Edge
478.8,shortestpath_phase,node1,49.0,0.0,,,,node4,,,US,67cf70ec9741a100ffc7f570,old,node12,node4,One Edge Diff,Two Edge Three Edge
366.0,shortestpath_phase,node12,50.0,0.0,,,,node2,,,US,67cf70ec9741a100ffc7f570,old,node2,node13,Two Edge Diff,Two Edge Four Edge
544.8,shortestpath_phase,node4,50.0,0.0,,,,node7,,,US,67cf70ec9741a100ffc7f570,old,node7,node13,One Edge Diff,Four Edge Five Edge
727.4,shortestpath_phase,node13,49.0,0.0,,,,node12,,,US,67cf70ec9741a100ffc7f570,old,node4,node12,One Edge Diff,Four Edge Five Edge
676.7,shortestpath_phase,node1,49.0,1.0,,,,node7,,,US,67cf70ec9741a100ffc7f570,old,node7,node10,Two Edge Diff,Four Edge Six Edge
581.4,shortestpath_phase,node13,49.0,0.0,,,,node4,,,US,67cf70ec9741a100ffc7f570,old,node5,node4,One Edge Diff,Five Edge Six Edge
565.2,shortestpath_phase,node8,50.0,0.0,,,,node3,,,US,67cf70ec9741a100ffc7f570,old,node3,node2,One Edge Diff,Three Edge Four Edge
989.8,shortestpath_phase,node5,49.0,0.0,,,,node12,,,US,67cf70ec9741a100ffc7f570,old,node7,node12,Three Edge Diff,Three Edge Six Edge
3017.5,shortestpath_phase,node4,50.0,1.0,,,,node3,,,US,67cf70ec9741a100ffc7f570,old,node13,node3,Three Edge Diff,Two Edge Five Edge
2722.8,shortestpath_phase,node9,50.0,1.0,,,,node2,,,US,67cf70ec9741a100ffc7f570,old,node5,node2,One Edge Diff,Three Edge Four Edge
1260.6,shortestpath_phase,node1,49.0,0.0,,,,node3,,,US,67cf70ec9741a100ffc7f570,old,node10,node3,Four Edge Diff,Two Edge Six Edge
511.4,shortestpath_phase,node5,50.0,0.0,,,,node11,,,US,67cf70ec9741a100ffc7f570,old,node11,node6,One Edge Diff,Three Edge Four Edge
508.7,shortestpath_phase,node2,49.0,1.0,,,,node6,,,US,67cf70ec9741a100ffc7f570,old,node6,node10,Three Edge Diff,Three Edge Six Edge
403.4,shortestpath_phase,node10,50.0,0.0,,,,node7,,,US,67cf70ec9741a100ffc7f570,old,node7,node2,Three Edge Diff,Three Edge Six Edge
279.8,shortestpath_phase,node5,49.0,0.0,,,,node6,,,US,67cf70ec9741a100ffc7f570,old,node10,node6,Two Edge Diff,Four Edge Six Edge
258.7,shortestpath_phase,node3,50.0,0.0,,,,node7,,,US,67cf70ec9741a100ffc7f570,old,node7,node10,Two Edge Diff,Two Edge Four Edge
256.5,shortestpath_phase,node5,50.0,0.0,,,,node2,,,US,67cf70ec9741a100ffc7f570,old,node2,node9,Two Edge Diff,Two Edge Four Edge
318.2,shortestpath_phase,node10,49.0,1.0,,,,node7,,,US,67cf70ec9741a100ffc7f570,old,node7,node5,Four Edge Diff,Two Edge Six Edge
336.0,shortestpath_phase,node2,50.0,1.0,,,,node9,,,US,67cf70ec9741a100ffc7f570,old,node10,node9,Two Edge Diff,Three Edge Five Edge
320.9,shortestpath_phase,node13,50.0,0.0,,,,node1,,,US,67cf70ec9741a100ffc7f570,old,node1,node5,One Edge Diff,Five Edge Six Edge
245.0,shortestpath_phase,node10,49.0,1.0,,,,node2,,,US,67cf70ec9741a100ffc7f570,old,node2,node5,One Edge Diff,Five Edge Six Edge
314.4,shortestpath_phase,node13,50.0,0.0,,,,node6,,,US,67cf70ec9741a100ffc7f570,old,node6,node1,Three Edge Diff,Three Edge Six Edge
211.0,shortestpath_phase,node1,50.0,1.0,,,,node5,,,US,67cf70ec9741a100ffc7f570,old,node9,node5,One Edge Diff,Three Edge Four Edge
227.5,shortestpath_phase,node13,49.0,0.0,,,,node9,,,US,67cf70ec9741a100ffc7f570,old,node5,node9,Four Edge Diff,Two Edge Six Edge
283.9,shortestpath_phase,node6,50.0,1.0,,,,node12,,,US,67cf70ec9741a100ffc7f570,old,node5,node12,One Edge Diff,Three Edge Four Edge
250.9,shortestpath_phase,node10,49.0,0.0,,,,node9,,,US,67cf70ec9741a100ffc7f570,old,node12,node9,Two Edge Diff,Two Edge Four Edge
246.8,shortestpath_phase,node13,50.0,1.0,,,,node3,,,US,67cf70ec9741a100ffc7f570,old,node1,node3,Two Edge Diff,Three Edge Five Edge
276.8,shortestpath_phase,node8,49.0,1.0,,,,node11,,,US,67cf70ec9741a100ffc7f570,old,node11,node5,Three Edge Diff,Two Edge Five Edge
241.9,shortestpath_phase,node2,50.0,0.0,,,,node7,,,US,67cf70ec9741a100ffc7f570,old,node7,node8,One Edge Diff,Three Edge Four Edge
293.8,shortestpath_phase,node4,49.0,1.0,,,,node1,,,US,67cf70ec9741a100ffc7f570,old,node1,node10,Three Edge Diff,Two Edge Five Edge
164.8,shortestpath_phase,node10,50.0,0.0,,,,node7,,,US,67cf70ec9741a100ffc7f570,old,node7,node1,Four Edge Diff,Two Edge Six Edge
225.2,shortestpath_phase,node5,50.0,0.0,,,,node1,,,US,67cf70ec9741a100ffc7f570,old,node1,node6,One Edge Diff,Three Edge Four Edge
237.2,shortestpath_phase,node7,50.0,0.0,,,,node11,,,US,67cf70ec9741a100ffc7f570,old,node11,node5,Three Edge Diff,Two Edge Five Edge
115.2,shortestpath_phase,node8,49.0,0.0,,,,node2,,,US,67cf70ec9741a100ffc7f570,old,node1,node2,One Edge Diff,Four Edge Five Edge
170.0,shortestpath_phase,node10,50.0,0.0,,,,node9,,,US,67cf70ec9741a100ffc7f570,old,node9,node1,Four Edge Diff,Two Edge Six Edge
107.7,shortestpath_phase,node8,50.0,1.0,,,,node11,,,US,67cf70ec9741a100ffc7f570,old,node1,node11,Three Edge Diff,Three Edge Six Edge
786.7,shortestpath_phase,node5,50.0,1.0,,,,node9,,,US,67cf70ec9741a100ffc7f570,old,node10,node9,Two Edge Diff,Four Edge Six Edge
461.8,shortestpath_phase,node4,50.0,1.0,,,,node11,,,US,67cf70ec9741a100ffc7f570,old,node7,node11,Two Edge Diff,Two Edge Four Edge
592.1,shortestpath_phase,node1,50.0,1.0,,,,node13,,,US,67cf70ec9741a100ffc7f570,old,node10,node13,One Edge Diff,Five Edge Six Edge
263.8,shortestpath_phase,node4,50.0,1.0,,,,node11,,,US,67cf70ec9741a100ffc7f570,old,node10,node11,Three Edge Diff,Two Edge Five Edge
22.7,shortestpath_phase,node5,50.0,0.0,,,,node2,,,US,67cf70ec9741a100ffc7f570,old,node2,node10,Four Edge Diff,Two Edge Six Edge
2376.5,shortestpath_phase,node4,49.0,1.0,,,,node1,,,US,67cf70ec9741a100ffc7f570,old,node1,node8,Two Edge Diff,Two Edge Four Edge
366.7,shortestpath_phase,node5,50.0,0.0,,,,node6,,,US,67cf70ec9741a100ffc7f570,old,node6,node13,Two Edge Diff,Four Edge Six Edge
576.8,shortestpath_phase,node11,49.0,1.0,,,,node7,,,US,67cf70ec9741a100ffc7f570,old,node7,node10,One Edge Diff,Two Edge Three Edge
550.4,shortestpath_phase,node4,50.0,1.0,,,,node9,,,US,67cf70ec9741a100ffc7f570,old,node8,node9,One Edge Diff,Three Edge Four Edge
357.0,shortestpath_phase,node8,50.0,0.0,,,,node11,,,US,67cf70ec9741a100ffc7f570,old,node11,node1,Three Edge Diff,Two Edge Five Edge
302.6,shortestpath_phase,node5,49.0,1.0,,,,node12,,,US,67cf70ec9741a100ffc7f570,old,node12,node13,Four Edge Diff,Two Edge Six Edge
259.7,shortestpath_phase,node13,50.0,0.0,,,,node9,,,US,67cf70ec9741a100ffc7f570,old,node9,node2,Two Edge Diff,Two Edge Four Edge
273.6,shortestpath_phase,node2,49.0,0.0,,,,node5,,,US,67cf70ec9741a100ffc7f570,old,node9,node5,One Edge Diff,Two Edge Three Edge
238.9,shortestpath_phase,node3,49.0,0.0,,,,node1,,,US,67cf70ec9741a100ffc7f570,old,node8,node1,One Edge Diff,Two Edge Three Edge
393.8,shortestpath_phase,node5,50.0,1.0,,,,node6,,,US,67cf70ec9741a100ffc7f570,old,node8,node6,One Edge Diff,Four Edge Five Edge
281.9,shortestpath_phase,node12,49.0,0.0,,,,node2,,,US,67cf70ec9741a100ffc7f570,old,node8,node2,One Edge Diff,Two Edge Three Edge
535.2,shortestpath_phase,node10,50.0,0.0,,,,node9,,,US,67cf70ec9741a100ffc7f570,old,node9,node5,Four Edge Diff,Two Edge Six Edge
306.5,shortestpath_phase,node5,49.0,1.0,,,,node12,,,US,67cf70ec9741a100ffc7f570,old,node12,node10,Four Edge Diff,Two Edge Six Edge
262.7,shortestpath_phase,node13,50.0,1.0,,,,node8,,,US,67cf70ec9741a100ffc7f570,old,node12,node8,Two Edge Diff,Two Edge Four Edge
322.2,shortestpath_phase,node5,50.0,1.0,,,,node7,,,US,67cf70ec9741a100ffc7f570,old,node10,node7,One Edge Diff,Five Edge Six Edge
274.2,shortestpath_phase,node8,49.0,1.0,,,,node12,,,US,67cf70ec9741a100ffc7f570,old,node12,node5,Two Edge Diff,Three Edge Five Edge
208.9,shortestpath_phase,node5,50.0,1.0,,,,node2,,,US,67cf70ec9741a100ffc7f570,old,node13,node2,Four Edge Diff,Two Edge Six Edge
129.0,shortestpath_phase,node10,50.0,0.0,,,,node3,,,US,67cf70ec9741a100ffc7f570,old,node3,node1,Two Edge Diff,Four Edge Six Edge
175.8,shortestpath_phase,node5,49.0,0.0,,,,node9,,,US,67cf70ec9741a100ffc7f570,old,node7,node9,One Edge Diff,Four Edge Five Edge
287.4,shortestpath_phase,node13,50.0,0.0,,,,node8,,,US,67cf70ec9741a100ffc7f570,old,node8,node4,Three Edge Diff,Three Edge Six Edge
311.1,shortestpath_phase,node3,49.0,0.0,,,,node4,,,US,67cf70ec9741a100ffc7f570,old,node5,node4,One Edge Diff,Two Edge Three Edge
287.8,shortestpath_phase,node10,50.0,1.0,,,,node7,,,US,67cf70ec9741a100ffc7f570,old,node4,node7,Three Edge Diff,Three Edge Six Edge
253.9,shortestpath_phase,node4,49.0,0.0,,,,node1,,,US,67cf70ec9741a100ffc7f570,old,node13,node1,Three Edge Diff,Three Edge Six Edge
266.7,shortestpath_phase,node5,50.0,0.0,,,,node9,,,US,67cf70ec9741a100ffc7f570,old,node9,node8,One Edge Diff,Four Edge Five Edge
149.4,shortestpath_phase,node4,49.0,0.0,,,,node3,,,US,67cf70ec9741a100ffc7f570,old,node10,node3,Three Edge Diff,Two Edge Five Edge
149.2,shortestpath_phase,node10,50.0,0.0,,,,node7,,,US,67cf70ec9741a100ffc7f570,old,node7,node3,Two Edge Diff,Two Edge Four Edge
254.0,shortestpath_phase,node4,49.0,0.0,,,,node3,,,US,67cf70ec9741a100ffc7f570,old,node10,node3,Three Edge Diff,Three Edge Six Edge
269.9,shortestpath_phase,node1,50.0,1.0,,,,node6,,,US,67cf70ec9741a100ffc7f570,old,node8,node6,Two Edge Diff,Three Edge Five Edge
198.2,shortestpath_phase,node10,50.0,0.0,,,,node4,,,US,67cf70ec9741a100ffc7f570,old,node4,node1,One Edge Diff,Five Edge Six Edge
274.9,shortestpath_phase,node7,50.0,1.0,,,,node11,,,US,67cf70ec9741a100ffc7f570,old,node2,node11,One Edge Diff,Two Edge Three Edge
680.0,shortestpath_phase,node13,50.0,1.0,,,,node2,,,US,67cf70ec9741a100ffc7f570,old,node5,node2,Two Edge Diff,Four Edge Six Edge
321.1,shortestpath_phase,node1,49.0,0.0,,,,node4,,,US,67cf70ec9741a100ffc7f570,old,node10,node4,Four Edge Diff,Two Edge Six Edge
334.2,shortestpath_phase,node13,50.0,1.0,,,,node9,,,US,67cf70ec9741a100ffc7f570,old,node4,node9,Three Edge Diff,Three Edge Six Edge
0.200000003,shortestpath_phase,node4,49.0,0.0,,,,node8,,,US,67cf70ec9741a100ffc7f570,old,node10,node8,One Edge Diff,Four Edge Five Edge
440.9,shortestpath_phase,node13,49.0,1.0,,,,node9,,,US,67cf70ec9741a100ffc7f570,old,node9,node4,Three Edge Diff,Two Edge Five Edge
302.2,shortestpath_phase,node8,49.0,0.0,,,,node4,,,US,67cf70ec9741a100ffc7f570,old,node1,node4,One Edge Diff,Four Edge Five Edge
207.9,shortestpath_phase,node1,50.0,1.0,,,,node9,,,US,67cf70ec9741a100ffc7f570,old,node10,node9,Two Edge Diff,Four Edge Six Edge
274.8,shortestpath_phase,node13,49.0,0.0,,,,node11,,,US,67cf70ec9741a100ffc7f570,old,node4,node11,Two Edge Diff,Three Edge Five Edge
108.1,shortestpath_phase,node9,50.0,1.0,,,,node4,,,US,67cf70ec9741a100ffc7f570,old,node5,node4,One Edge Diff,Three Edge Four Edge
275.4,shortestpath_phase,node1,50.0,0.0,,,,node5,,,US,67cf70ec9741a100ffc7f570,old,node5,node13,Two Edge Diff,Three Edge Five Edge
661.4,shortestpath_phase,node3,50.0,1.0,,,,node9,,,US,67cf70ec9741a100ffc7f570,old,node8,node9,One Edge Diff,Two Edge Three Edge
332.5,shortestpath_phase,node13,50.0,1.0,,,,node12,,,US,67cf70ec9741a100ffc7f570,old,node5,node12,Two Edge Diff,Four Edge Six Edge
393.3,shortestpath_phase,node4,49.0,1.0,,,,node9,,,US,67cf70ec9741a100ffc7f570,old,node9,node13,Two Edge Diff,Three Edge Five Edge
438.0,shortestpath_phase,node8,49.0,0.0,,,,node3,,,US,67cf70ec9741a100ffc7f570,old,node5,node3,Two Edge Diff,Three Edge Five Edge
769.5,shortestpath_phase,node1,49.0,0.0,,,,node9,,,US,67cf70ec9741a100ffc7f570,old,node13,node9,One Edge Diff,Four Edge Five Edge
1000.5,shortestpath_phase,node10,50.0,0.0,,,,node6,,,US,67cf70ec9741a100ffc7f570,old,node6,node3,One Edge Diff,Three Edge Four Edge
290.4,shortestpath_phase,node1,50.0,1.0,,,,node5,,,US,67cf70ec9741a100ffc7f570,old,node8,node5,Two Edge Diff,Three Edge Five Edge
1687.3,shortestpath_phase,node10,49.0,0.0,,,,node13,,,US,67cf70ec9741a100ffc7f570,old,node2,node13,Two Edge Diff,Three Edge Five Edge
495.5,shortestpath_phase,node5,50.0,1.0,,,,node6,,,US,67cf70ec9741a100ffc7f570,old,node7,node6,One Edge Diff,Four Edge Five Edge
122.3,shortestpath_phase,node10,50.0,0.0,,,,node12,,,US,67cf70ec9741a100ffc7f570,old,node12,node1,Two Edge Diff,Four Edge Six Edge
812.1,shortestpath_phase,node7,49.0,1.0,,,,node1,,,US,67cf70ec9741a100ffc7f570,old,node1,node5,One Edge Diff,Four Edge Five Edge
368.0,shortestpath_phase,node8,50.0,1.0,,,,node13,,,US,67cf70ec9741a100ffc7f570,old,node1,node13,Three Edge Diff,Two Edge Five Edge
20.40000001,shortestpath_phase,node4,50.0,0.0,,,,node11,,,US,67cf70ec9741a100ffc7f570,old,node11,node10,Three Edge Diff,Three Edge Six Edge
414.3,shortestpath_phase,node1,49.0,1.0,,,,node8,,,US,67cf70ec9741a100ffc7f570,old,node8,node10,One Edge Diff,Five Edge Six Edge
1239.7,shortestpath_phase,node10,50.0,0.0,,,,node4,,,US,67cf70ec9741a100ffc7f570,old,node4,node5,One Edge Diff,Five Edge Six Edge
529.4,shortestpath_phase,node9,50.0,1.0,,,,node13,,,US,67cf70ec9741a100ffc7f570,old,node5,node13,Two Edge Diff,Two Edge Four Edge
241.9,shortestpath_phase,node1,50.0,1.0,,,,node7,,,US,67cf70ec9741a100ffc7f570,old,node13,node7,One Edge Diff,Four Edge Five Edge
226.5,shortestpath_phase,node13,50.0,1.0,,,,node6,,,US,67cf70ec9741a100ffc7f570,old,node5,node6,Four Edge Diff,Two Edge Six Edge
233.2,shortestpath_phase,node12,50.0,1.0,,,,node5,,,US,67cf70ec9741a100ffc7f570,old,node6,node5,One Edge Diff,Two Edge Three Edge
5618.099999964237,shortestpath_phase,node5,50.0,1.0,,,,node9,,,US,67eec1cf02e625e0d469f1ed,young,node10,node9,Two Edge Diff,Four Edge Six Edge
2280.400000035763,shortestpath_phase,node8,49.0,1.0,,,,node2,,,US,67eec1cf02e625e0d469f1ed,young,node2,node1,One Edge Diff,Four Edge Five Edge
2662.400000035763,shortestpath_phase,node1,49.0,0.0,,,,node5,,,US,67eec1cf02e625e0d469f1ed,young,node8,node5,Two Edge Diff,Three Edge Five Edge
2391.699999988079,shortestpath_phase,node13,50.0,0.0,,,,node9,,,US,67eec1cf02e625e0d469f1ed,young,node9,node12,Two Edge Diff,Two Edge Four Edge
1979.5999999642368,shortestpath_phase,node10,49.0,1.0,,,,node7,,,US,67eec1cf02e625e0d469f1ed,young,node7,node5,Four Edge Diff,Two Edge Six Edge
2146.399999976158,shortestpath_phase,node5,49.0,0.0,,,,node2,,,US,67eec1cf02e625e0d469f1ed,young,node10,node2,Four Edge Diff,Two Edge Six Edge
3586.300000011921,shortestpath_phase,node7,49.0,1.0,,,,node12,,,US,67eec1cf02e625e0d469f1ed,young,node12,node5,Two Edge Diff,Three Edge Five Edge
1978.199999988079,shortestpath_phase,node2,50.0,0.0,,,,node5,,,US,67eec1cf02e625e0d469f1ed,young,node5,node7,One Edge Diff,Two Edge Three Edge
1823.800000011921,shortestpath_phase,node4,49.0,1.0,,,,node1,,,US,67eec1cf02e625e0d469f1ed,young,node1,node7,Two Edge Diff,Two Edge Four Edge
2366.400000035763,shortestpath_phase,node12,50.0,0.0,,,,node9,,,US,67eec1cf02e625e0d469f1ed,young,node9,node7,One Edge Diff,Two Edge Three Edge
1202.5,shortestpath_phase,node4,49.0,1.0,,,,node11,,,US,67eec1cf02e625e0d469f1ed,young,node11,node13,Three Edge Diff,Three Edge Six Edge
2926.5,shortestpath_phase,node1,49.0,0.0,,,,node9,,,US,67eec1cf02e625e0d469f1ed,young,node10,node9,Two Edge Diff,Four Edge Six Edge
2464.899999976158,shortestpath_phase,node11,50.0,1.0,,,,node7,,,US,67eec1cf02e625e0d469f1ed,young,node13,node7,One Edge Diff,Two Edge Three Edge
1857.600000023842,shortestpath_phase,node1,49.0,0.0,,,,node8,,,US,67eec1cf02e625e0d469f1ed,young,node10,node8,One Edge Diff,Five Edge Six Edge
2057.5,shortestpath_phase,node13,50.0,1.0,,,,node9,,,US,67eec1cf02e625e0d469f1ed,young,node1,node9,Three Edge Diff,Three Edge Six Edge
2657.300000011921,shortestpath_phase,node1,50.0,1.0,,,,node12,,,US,67eec1cf02e625e0d469f1ed,young,node9,node12,One Edge Diff,Three Edge Four Edge
1733.5999999642372,shortestpath_phase,node13,49.0,1.0,,,,node9,,,US,67eec1cf02e625e0d469f1ed,young,node9,node3,One Edge Diff,Two Edge Three Edge
1823.800000011921,shortestpath_phase,node4,50.0,0.0,,,,node3,,,US,67eec1cf02e625e0d469f1ed,young,node3,node10,Three Edge Diff,Two Edge Five Edge
3395.5,shortestpath_phase,node13,50.0,0.0,,,,node1,,,US,67eec1cf02e625e0d469f1ed,young,node1,node5,One Edge Diff,Five Edge Six Edge
2066.0,shortestpath_phase,node2,49.0,1.0,,,,node12,,,US,67eec1cf02e625e0d469f1ed,young,node12,node10,Three Edge Diff,Two Edge Five Edge
1329.600000023842,shortestpath_phase,node13,49.0,0.0,,,,node9,,,US,67eec1cf02e625e0d469f1ed,young,node4,node9,Three Edge Diff,Two Edge Five Edge
2393.400000035763,shortestpath_phase,node1,50.0,0.0,,,,node12,,,US,67eec1cf02e625e0d469f1ed,young,node12,node13,Two Edge Diff,Three Edge Five Edge
1757.2999999523165,shortestpath_phase,node13,50.0,1.0,,,,node8,,,US,67eec1cf02e625e0d469f1ed,young,node10,node8,One Edge Diff,Two Edge Three Edge
2581.900000035763,shortestpath_phase,node3,50.0,1.0,,,,node9,,,US,67eec1cf02e625e0d469f1ed,young,node13,node9,One Edge Diff,Two Edge Three Edge
1549.899999976158,shortestpath_phase,node10,49.0,1.0,,,,node2,,,US,67eec1cf02e625e0d469f1ed,young,node2,node5,One Edge Diff,Five Edge Six Edge
2356.399999976158,shortestpath_phase,node13,50.0,1.0,,,,node4,,,US,67eec1cf02e625e0d469f1ed,young,node5,node4,One Edge Diff,Five Edge Six Edge
1440.0,shortestpath_phase,node5,49.0,1.0,,,,node8,,,US,67eec1cf02e625e0d469f1ed,young,node8,node13,One Edge Diff,Five Edge Six Edge
1157.800000011921,shortestpath_phase,node4,50.0,1.0,,,,node7,,,US,67eec1cf02e625e0d469f1ed,young,node10,node7,One Edge Diff,Four Edge Five Edge
2554.100000023842,shortestpath_phase,node10,50.0,0.0,,,,node6,,,US,67eec1cf02e625e0d469f1ed,young,node6,node12,One Edge Diff,Three Edge Four Edge
1139.199999988079,shortestpath_phase,node1,49.0,1.0,,,,node11,,,US,67eec1cf02e625e0d469f1ed,young,node11,node13,Two Edge Diff,Three Edge Five Edge
1779.7000000476835,shortestpath_phase,node10,49.0,1.0,,,,node7,,,US,67eec1cf02e625e0d469f1ed,young,node7,node2,Three Edge Diff,Two Edge Five Edge
1240.600000023842,shortestpath_phase,node8,50.0,0.0,,,,node6,,,US,67eec1cf02e625e0d469f1ed,young,node6,node4,Two Edge Diff,Two Edge Four Edge
1502.9000000357628,shortestpath_phase,node2,49.0,1.0,,,,node11,,,US,67eec1cf02e625e0d469f1ed,young,node11,node10,Three Edge Diff,Three Edge Six Edge
1095.0,shortestpath_phase,node13,50.0,0.0,,,,node12,,,US,67eec1cf02e625e0d469f1ed,young,node12,node5,Two Edge Diff,Four Edge Six Edge
1446.5,shortestpath_phase,node5,49.0,0.0,,,,node3,,,US,67eec1cf02e625e0d469f1ed,young,node7,node3,Two Edge Diff,Three Edge Five Edge
1090.399999976158,shortestpath_phase,node10,49.0,1.0,,,,node7,,,US,67eec1cf02e625e0d469f1ed,young,node7,node1,Four Edge Diff,Two Edge Six Edge
1044.300000011921,shortestpath_phase,node5,50.0,0.0,,,,node6,,,US,67eec1cf02e625e0d469f1ed,young,node6,node10,Two Edge Diff,Four Edge Six Edge
1875.0,shortestpath_phase,node7,49.0,1.0,,,,node11,,,US,67eec1cf02e625e0d469f1ed,young,node11,node5,Three Edge Diff,Two Edge Five Edge
1280.300000011921,shortestpath_phase,node2,49.0,1.0,,,,node5,,,US,67eec1cf02e625e0d469f1ed,young,node5,node10,Three Edge Diff,Two Edge Five Edge
3009.800000011921,shortestpath_phase,node1,49.0,0.0,,,,node3,,,US,67eec1cf02e625e0d469f1ed,young,node10,node3,Four Edge Diff,Two Edge Six Edge
2882.5,shortestpath_phase,node5,50.0,0.0,,,,node6,,,US,67eec1cf02e625e0d469f1ed,young,node6,node13,Two Edge Diff,Four Edge Six Edge
2699.100000023842,shortestpath_phase,node10,49.0,1.0,,,,node9,,,US,67eec1cf02e625e0d469f1ed,young,node9,node3,Two Edge Diff,Two Edge Four Edge
1836.100000023842,shortestpath_phase,node5,50.0,0.0,,,,node3,,,US,67eec1cf02e625e0d469f1ed,young,node3,node8,Two Edge Diff,Three Edge Five Edge
1472.300000011921,shortestpath_phase,node4,50.0,0.0,,,,node11,,,US,67eec1cf02e625e0d469f1ed,young,node11,node13,Three Edge Diff,Two Edge Five Edge
1837.5999999642368,shortestpath_phase,node5,50.0,1.0,,,,node9,,,US,67eec1cf02e625e0d469f1ed,young,node13,node9,Two Edge Diff,Four Edge Six Edge
1343.300000011921,shortestpath_phase,node4,49.0,1.0,,,,node1,,,US,67eec1cf02e625e0d469f1ed,young,node1,node8,Two Edge Diff,Two Edge Four Edge
1012.399999976158,shortestpath_phase,node5,49.0,1.0,,,,node7,,,US,67eec1cf02e625e0d469f1ed,young,node7,node13,One Edge Diff,Five Edge Six Edge
1738.600000023842,shortestpath_phase,node8,50.0,1.0,,,,node11,,,US,67eec1cf02e625e0d469f1ed,young,node5,node11,Three Edge Diff,Two Edge Five Edge
1628.199999988079,shortestpath_phase,node5,49.0,1.0,,,,node12,,,US,67eec1cf02e625e0d469f1ed,young,node12,node13,Four Edge Diff,Two Edge Six Edge
1094.300000011921,shortestpath_phase,node1,50.0,1.0,,,,node4,,,US,67eec1cf02e625e0d469f1ed,young,node7,node4,Two Edge Diff,Two Edge Four Edge
3836.699999988079,shortestpath_phase,node10,50.0,1.0,,,,node11,,,US,67eec1cf02e625e0d469f1ed,young,node3,node11,One Edge Diff,Three Edge Four Edge
1638.0999999642372,shortestpath_phase,node4,49.0,1.0,,,,node9,,,US,67eec1cf02e625e0d469f1ed,young,node9,node7,One Edge Diff,Three Edge Four Edge
1315.2000000476835,shortestpath_phase,node13,49.0,1.0,,,,node6,,,US,67eec1cf02e625e0d469f1ed,young,node6,node5,Four Edge Diff,Two Edge Six Edge
2269.699999988079,shortestpath_phase,node2,50.0,1.0,,,,node11,,,US,67eec1cf02e625e0d469f1ed,young,node13,node11,Two Edge Diff,Two Edge Four Edge
1887.300000011921,shortestpath_phase,node10,50.0,1.0,,,,node6,,,US,67eec1cf02e625e0d469f1ed,young,node3,node6,One Edge Diff,Three Edge Four Edge
2196.199999988079,shortestpath_phase,node13,50.0,0.0,,,,node12,,,US,67eec1cf02e625e0d469f1ed,young,node12,node4,One Edge Diff,Four Edge Five Edge
2678.599999964237,shortestpath_phase,node1,49.0,1.0,,,,node6,,,US,67eec1cf02e625e0d469f1ed,young,node6,node13,Two Edge Diff,Three Edge Five Edge
1835.9000000357628,shortestpath_phase,node13,49.0,1.0,,,,node9,,,US,67eec1cf02e625e0d469f1ed,young,node9,node5,Four Edge Diff,Two Edge Six Edge
2429.899999976158,shortestpath_phase,node11,50.0,1.0,,,,node4,,,US,67eec1cf02e625e0d469f1ed,young,node10,node4,One Edge Diff,Two Edge Three Edge
4464.399999976158,shortestpath_phase,node12,49.0,1.0,,,,node3,,,US,67eec1cf02e625e0d469f1ed,young,node3,node13,Two Edge Diff,Two Edge Four Edge
2269.400000035763,shortestpath_phase,node13,50.0,1.0,,,,node8,,,US,67eec1cf02e625e0d469f1ed,young,node1,node8,Three Edge Diff,Three Edge Six Edge
1601.5,shortestpath_phase,node10,50.0,1.0,,,,node3,,,US,67eec1cf02e625e0d469f1ed,young,node5,node3,Two Edge Diff,Four Edge Six Edge
1106.2999999523165,shortestpath_phase,node12,49.0,0.0,,,,node7,,,US,67eec1cf02e625e0d469f1ed,young,node10,node7,One Edge Diff,Three Edge Four Edge
1364.0999999642372,shortestpath_phase,node10,50.0,0.0,,,,node4,,,US,67eec1cf02e625e0d469f1ed,young,node4,node1,One Edge Diff,Five Edge Six Edge
1355.600000023842,shortestpath_phase,node7,49.0,0.0,,,,node12,,,US,67eec1cf02e625e0d469f1ed,young,node1,node12,One Edge Diff,Three Edge Four Edge
1192.300000011921,shortestpath_phase,node8,50.0,1.0,,,,node4,,,US,67eec1cf02e625e0d469f1ed,young,node5,node4,One Edge Diff,Four Edge Five Edge
984.600000023842,shortestpath_phase,node10,49.0,1.0,,,,node12,,,US,67eec1cf02e625e0d469f1ed,young,node12,node2,One Edge Diff,Four Edge Five Edge
2151.900000035763,shortestpath_phase,node13,50.0,0.0,,,,node2,,,US,67eec1cf02e625e0d469f1ed,young,node2,node1,One Edge Diff,Four Edge Five Edge
1298.300000011921,shortestpath_phase,node10,49.0,0.0,,,,node4,,,US,67eec1cf02e625e0d469f1ed,young,node5,node4,One Edge Diff,Five Edge Six Edge
2149.199999988079,shortestpath_phase,node12,50.0,1.0,,,,node5,,,US,67eec1cf02e625e0d469f1ed,young,node8,node5,One Edge Diff,Two Edge Three Edge
1874.100000023842,shortestpath_phase,node10,50.0,0.0,,,,node3,,,US,67eec1cf02e625e0d469f1ed,young,node3,node1,Two Edge Diff,Four Edge Six Edge
1815.899999976158,shortestpath_phase,node7,50.0,1.0,,,,node11,,,US,67eec1cf02e625e0d469f1ed,young,node12,node11,One Edge Diff,Two Edge Three Edge
618.3000000119209,shortestpath_phase,node10,49.0,0.0,,,,node12,,,US,67eec1cf02e625e0d469f1ed,young,node4,node12,One Edge Diff,Four Edge Five Edge
1755.5,shortestpath_phase,node4,49.0,1.0,,,,node3,,,US,67eec1cf02e625e0d469f1ed,young,node3,node13,Three Edge Diff,Three Edge Six Edge
2972.0,shortestpath_phase,node12,49.0,1.0,,,,node7,,,US,67eec1cf02e625e0d469f1ed,young,node7,node13,One Edge Diff,Three Edge Four Edge
1863.399999976158,shortestpath_phase,node9,50.0,0.0,,,,node3,,,US,67eec1cf02e625e0d469f1ed,young,node3,node4,One Edge Diff,Two Edge Three Edge
1269.699999988079,shortestpath_phase,node8,49.0,0.0,,,,node4,,,US,67eec1cf02e625e0d469f1ed,young,node1,node4,One Edge Diff,Four Edge Five Edge
446.0,shortestpath_phase,node10,49.0,0.0,,,,node7,,,US,67eec1cf02e625e0d469f1ed,young,node4,node7,Three Edge Diff,Three Edge Six Edge
688.0,shortestpath_phase,node8,50.0,1.0,,,,node11,,,US,67eec1cf02e625e0d469f1ed,young,node1,node11,Three Edge Diff,Three Edge Six Edge
1477.0999999642372,shortestpath_phase,node5,49.0,1.0,,,,node12,,,US,67eec1cf02e625e0d469f1ed,young,node12,node7,Three Edge Diff,Three Edge Six Edge
1841.5999999642368,shortestpath_phase,node4,50.0,1.0,,,,node8,,,US,67eec1cf02e625e0d469f1ed,young,node13,node8,One Edge Diff,Four Edge Five Edge
1318.300000011921,shortestpath_phase,node10,50.0,1.0,,,,node9,,,US,67eec1cf02e625e0d469f1ed,young,node1,node9,Four Edge Diff,Two Edge Six Edge
1757.800000011921,shortestpath_phase,node8,49.0,0.0,,,,node12,,,US,67eec1cf02e625e0d469f1ed,young,node4,node12,One Edge Diff,Three Edge Four Edge
1855.7000000476835,shortestpath_phase,node7,49.0,1.0,,,,node10,,,US,67eec1cf02e625e0d469f1ed,young,node10,node5,Three Edge Diff,Three Edge Six Edge
2111.0,shortestpath_phase,node12,49.0,1.0,,,,node3,,,US,67eec1cf02e625e0d469f1ed,young,node3,node10,Two Edge Diff,Two Edge Four Edge
1944.899999976158,shortestpath_phase,node1,49.0,0.0,,,,node7,,,US,67eec1cf02e625e0d469f1ed,young,node8,node7,One Edge Diff,Four Edge Five Edge
1544.5999999642372,shortestpath_phase,node12,50.0,1.0,,,,node9,,,US,67eec1cf02e625e0d469f1ed,young,node13,node9,Two Edge Diff,Two Edge Four Edge
2690.699999988079,shortestpath_phase,node1,50.0,1.0,,,,node13,,,US,67eec1cf02e625e0d469f1ed,young,node10,node13,One Edge Diff,Five Edge Six Edge
1407.5999999642372,shortestpath_phase,node10,49.0,1.0,,,,node12,,,US,67eec1cf02e625e0d469f1ed,young,node12,node5,Two Edge Diff,Four Edge Six Edge
1557.800000011921,shortestpath_phase,node8,49.0,0.0,,,,node13,,,US,67eec1cf02e625e0d469f1ed,young,node5,node13,Three Edge Diff,Two Edge Five Edge
2248.0,shortestpath_phase,node12,50.0,1.0,,,,node2,,,US,67eec1cf02e625e0d469f1ed,young,node13,node2,Two Edge Diff,Two Edge Four Edge
4470.199999988079,shortestpath_phase,node13,49.0,1.0,,,,node3,,,US,67eec1cf02e625e0d469f1ed,young,node3,node4,Two Edge Diff,Three Edge Five Edge
2093.199999988079,shortestpath_phase,node2,49.0,0.0,,,,node5,,,US,67eec1cf02e625e0d469f1ed,young,node10,node5,Three Edge Diff,Three Edge Six Edge
1209.800000011921,shortestpath_phase,node3,50.0,0.0,,,,node1,,,US,67eec1cf02e625e0d469f1ed,young,node1,node13,One Edge Diff,Two Edge Three Edge
1510.5,shortestpath_phase,node5,49.0,1.0,,,,node2,,,US,67eec1cf02e625e0d469f1ed,young,node2,node7,Three Edge Diff,Two Edge Five Edge
2602.5,shortestpath_phase,node1,49.0,1.0,,,,node12,,,US,67eec1cf02e625e0d469f1ed,young,node12,node7,One Edge Diff,Three Edge Four Edge
1233.399999976158,shortestpath_phase,node5,50.0,1.0,,,,node8,,,US,67eec1cf02e625e0d469f1ed,young,node10,node8,One Edge Diff,Five Edge Six Edge
781.0,shortestpath_phase,node10,49.0,0.0,,,,node2,,,US,67eec1cf02e625e0d469f1ed,young,node1,node2,One Edge Diff,Five Edge Six Edge
2094.0,shortestpath_phase,node5,50.0,1.0,,,,node12,,,US,67eec1cf02e625e0d469f1ed,young,node8,node12,Three Edge Diff,Two Edge Five Edge
986.8000000119208,shortestpath_phase,node13,49.0,0.0,,,,node8,,,US,67eec1cf02e625e0d469f1ed,young,node5,node8,Four Edge Diff,Two Edge Six Edge
1991.0,shortestpath_phase,node1,50.0,1.0,,,,node11,,,US,67eec1cf02e625e0d469f1ed,young,node8,node11,Two Edge Diff,Three Edge Five Edge
1495.300000011921,shortestpath_phase,node13,49.0,0.0,,,,node3,,,US,67eec1cf02e625e0d469f1ed,young,node12,node3,One Edge Diff,Three Edge Four Edge
1735.699999988079,shortestpath_phase,node10,50.0,0.0,,,,node9,,,US,67eec1cf02e625e0d469f1ed,young,node9,node5,Four Edge Diff,Two Edge Six Edge
2307.5,shortestpath_phase,node4,49.0,1.0,,,,node3,,,US,67eec1cf02e625e0d469f1ed,young,node3,node10,Three Edge Diff,Three Edge Six Edge
1106.5999999642372,shortestpath_phase,node5,49.0,1.0,,,,node2,,,US,67eec1cf02e625e0d469f1ed,young,node2,node13,Four Edge Diff,Two Edge Six Edge
891.6999999880791,shortestpath_phase,node10,50.0,1.0,,,,node12,,,US,67eec1cf02e625e0d469f1ed,young,node1,node12,Two Edge Diff,Four Edge Six Edge
1806.0,shortestpath_phase,node1,50.0,0.0,,,,node4,,,US,67eec1cf02e625e0d469f1ed,young,node4,node10,Four Edge Diff,Two Edge Six Edge
1892.199999988079,shortestpath_phase,node5,50.0,1.0,,,,node12,,,US,67eec1cf02e625e0d469f1ed,young,node10,node12,Four Edge Diff,Two Edge Six Edge
1981.5,shortestpath_phase,node1,49.0,0.0,,,,node7,,,US,67eec1cf02e625e0d469f1ed,young,node10,node7,Two Edge Diff,Four Edge Six Edge
1503.800000011921,shortestpath_phase,node5,49.0,0.0,,,,node9,,,US,67eec1cf02e625e0d469f1ed,young,node8,node9,One Edge Diff,Four Edge Five Edge
2041.399999976158,shortestpath_phase,node4,50.0,1.0,,,,node1,,,US,67eec1cf02e625e0d469f1ed,young,node6,node1,One Edge Diff,Two Edge Three Edge
2070.600000023842,shortestpath_phase,node10,49.0,1.0,,,,node11,,,US,67eec1cf02e625e0d469f1ed,young,node11,node2,Two Edge Diff,Three Edge Five Edge
1577.199999988079,shortestpath_phase,node4,50.0,0.0,,,,node6,,,US,67eec1cf02e625e0d469f1ed,young,node6,node8,One Edge Diff,Three Edge Four Edge
602.3999999761581,shortestpath_phase,node5,49.0,0.0,,,,node1,,,US,67eec1cf02e625e0d469f1ed,young,node7,node1,Two Edge Diff,Three Edge Five Edge
1163.300000011921,shortestpath_phase,node4,50.0,0.0,,,,node11,,,US,67eec1cf02e625e0d469f1ed,young,node11,node10,Three Edge Diff,Two Edge Five Edge
1748.800000011921,shortestpath_phase,node13,49.0,0.0,,,,node2,,,US,67eec1cf02e625e0d469f1ed,young,node5,node2,Two Edge Diff,Four Edge Six Edge
837.1999999880791,shortestpath_phase,node5,49.0,1.0,,,,node1,,,US,67eec1cf02e625e0d469f1ed,young,node1,node8,Two Edge Diff,Three Edge Five Edge
2590.900000035763,shortestpath_phase,node13,50.0,0.0,,,,node9,,,US,67eec1cf02e625e0d469f1ed,young,node9,node2,Two Edge Diff,Two Edge Four Edge
1501.2000000476835,shortestpath_phase,node10,49.0,1.0,,,,node3,,,US,67eec1cf02e625e0d469f1ed,young,node3,node4,One Edge Diff,Four Edge Five Edge
2785.2999999523163,shortestpath_phase,node5,49.0,0.0,,,,node7,,,US,67eec1cf02e625e0d469f1ed,young,node10,node7,One Edge Diff,Five Edge Six Edge
1932.699999988079,shortestpath_phase,node10,49.0,1.0,,,,node9,,,US,67eec1cf02e625e0d469f1ed,young,node9,node2,Three Edge Diff,Three Edge Six Edge
,shortestpath_phase,node13,,0.0,,,,node8,,,US,66f02f508e8473f0362ed99e,young,node8,node12,Two Edge Diff,Two Edge Four Edge
2791.7,shortestpath_phase,node4,50.0,0.0,,,,node1,,,US,66f02f508e8473f0362ed99e,young,node1,node13,Three Edge Diff,Three Edge Six Edge
3102.6,shortestpath_phase,node8,49.0,1.0,,,,node12,,,US,66f02f508e8473f0362ed99e,young,node12,node2,One Edge Diff,Three Edge Four Edge
3696.1,shortestpath_phase,node1,49.0,1.0,,,,node7,,,US,66f02f508e8473f0362ed99e,young,node7,node13,One Edge Diff,Four Edge Five Edge
4010.2,shortestpath_phase,node9,49.0,1.0,,,,node2,,,US,66f02f508e8473f0362ed99e,young,node2,node5,One Edge Diff,Three Edge Four Edge
2493.8,shortestpath_phase,node7,49.0,1.0,,,,node1,,,US,66f02f508e8473f0362ed99e,young,node1,node5,One Edge Diff,Four Edge Five Edge
1816.4,shortestpath_phase,node9,50.0,1.0,,,,node12,,,US,66f02f508e8473f0362ed99e,young,node1,node12,Two Edge Diff,Two Edge Four Edge
4711.0,shortestpath_phase,node5,49.0,0.0,,,,node1,,,US,66f02f508e8473f0362ed99e,young,node6,node1,One Edge Diff,Three Edge Four Edge
3427.7,shortestpath_phase,node3,50.0,0.0,,,,node12,,,US,66f02f508e8473f0362ed99e,young,node12,node8,One Edge Diff,Two Edge Three Edge
3499.0,shortestpath_phase,node1,50.0,0.0,,,,node9,,,US,66f02f508e8473f0362ed99e,young,node9,node10,Two Edge Diff,Four Edge Six Edge
2708.9,shortestpath_phase,node13,49.0,1.0,,,,node12,,,US,66f02f508e8473f0362ed99e,young,node12,node4,One Edge Diff,Four Edge Five Edge
2520.0,shortestpath_phase,node10,50.0,1.0,,,,node9,,,US,66f02f508e8473f0362ed99e,young,node3,node9,Two Edge Diff,Two Edge Four Edge
2327.2,shortestpath_phase,node11,50.0,1.0,,,,node8,,,US,66f02f508e8473f0362ed99e,young,node10,node8,One Edge Diff,Two Edge Three Edge
2478.1,shortestpath_phase,node1,50.0,0.0,,,,node9,,,US,66f02f508e8473f0362ed99e,young,node9,node8,One Edge Diff,Four Edge Five Edge
2186.6,shortestpath_phase,node5,49.0,1.0,,,,node8,,,US,66f02f508e8473f0362ed99e,young,node8,node13,One Edge Diff,Five Edge Six Edge
1684.5,shortestpath_phase,node10,49.0,0.0,,,,node7,,,US,66f02f508e8473f0362ed99e,young,node5,node7,Four Edge Diff,Two Edge Six Edge
1611.9,shortestpath_phase,node5,50.0,1.0,,,,node2,,,US,66f02f508e8473f0362ed99e,young,node8,node2,Three Edge Diff,Two Edge Five Edge
1316.2,shortestpath_phase,node13,49.0,0.0,,,,node8,,,US,66f02f508e8473f0362ed99e,young,node4,node8,Three Edge Diff,Two Edge Five Edge
2096.5,shortestpath_phase,node5,50.0,0.0,,,,node7,,,US,66f02f508e8473f0362ed99e,young,node7,node13,One Edge Diff,Five Edge Six Edge
2394.5,shortestpath_phase,node10,50.0,0.0,,,,node9,,,US,66f02f508e8473f0362ed99e,young,node9,node2,Three Edge Diff,Three Edge Six Edge
2642.1,shortestpath_phase,node5,49.0,1.0,,,,node3,,,US,66f02f508e8473f0362ed99e,young,node3,node7,Two Edge Diff,Three Edge Five Edge
2821.9,shortestpath_phase,node13,49.0,0.0,,,,node9,,,US,66f02f508e8473f0362ed99e,young,node3,node9,One Edge Diff,Two Edge Three Edge
2987.9,shortestpath_phase,node1,50.0,1.0,,,,node4,,,US,66f02f508e8473f0362ed99e,young,node8,node4,Three Edge Diff,Three Edge Six Edge
2185.4,shortestpath_phase,node5,50.0,0.0,,,,node9,,,US,66f02f508e8473f0362ed99e,young,node9,node10,Two Edge Diff,Four Edge Six Edge
3651.2,shortestpath_phase,node12,49.0,1.0,,,,node8,,,US,66f02f508e8473f0362ed99e,young,node8,node13,One Edge Diff,Three Edge Four Edge
2166.0,shortestpath_phase,node5,50.0,1.0,,,,node9,,,US,66f02f508e8473f0362ed99e,young,node8,node9,One Edge Diff,Four Edge Five Edge
3487.8,shortestpath_phase,node13,50.0,0.0,,,,node6,,,US,66f02f508e8473f0362ed99e,young,node6,node1,Three Edge Diff,Two Edge Five Edge
1697.1,shortestpath_phase,node9,49.0,1.0,,,,node4,,,US,66f02f508e8473f0362ed99e,young,node4,node1,One Edge Diff,Three Edge Four Edge
2514.2,shortestpath_phase,node5,50.0,1.0,,,,node2,,,US,66f02f508e8473f0362ed99e,young,node7,node2,Three Edge Diff,Three Edge Six Edge
