rt,trial_type,stimulus,key_press,accuracy,stimulus_down_left,stimulus_down_mid,stimulus_down_right,stimulus_correct,stimulus_short,stimulus_far,city_type,partid,age
,directmemory_phase,leesburg.png,,0.0,hotsprings.png,huntsville.png,racine.png,racine.png,huntsville.png,hotsprings.png,Fictional,676c956bbeee4e4356eb085b,old
3604.5,directmemory_phase,peoria.png,50.0,0.0,carmel.png,cornwall.png,hotsprings.png,hotsprings.png,cornwall.png,carmel.png,Fictional,676c956bbeee4e4356eb085b,old
3732.0,directmemory_phase,racine.png,49.0,1.0,shreveport.png,hotsprings.png,hanover.png,shreveport.png,hanover.png,hotsprings.png,Fictional,676c956bbeee4e4356eb085b,old
3035.600000023842,directmemory_phase,carmel.png,49.0,1.0,gatlinburg.png,hotsprings.png,huntsville.png,gatlinburg.png,huntsville.png,hotsprings.png,Fictional,676c956bbeee4e4356eb085b,old
3179.199999988079,directmemory_phase,newhope.png,49.0,1.0,huntsville.png,leesburg.png,hanover.png,huntsville.png,hanover.png,leesburg.png,Fictional,676c956bbeee4e4356eb085b,old
3760.300000011921,directmemory_phase,racine.png,50.0,1.0,gatlinburg.png,leesburg.png,westpalmbeach.png,leesburg.png,gatlinburg.png,westpalmbeach.png,Fictional,676c956bbeee4e4356eb085b,old
3696.2000000178814,directmemory_phase,shreveport.png,49.0,0.0,gatlinburg.png,carmel.png,hanover.png,carmel.png,gatlinburg.png,hanover.png,Fictional,676c956bbeee4e4356eb085b,old
4458.0999999940395,directmemory_phase,racine.png,49.0,0.0,peoria.png,hanover.png,huntsville.png,huntsville.png,hanover.png,peoria.png,Fictional,676c956bbeee4e4356eb085b,old
4165.299999982119,directmemory_phase,carmel.png,51.0,1.0,cornwall.png,boulder.png,shreveport.png,shreveport.png,boulder.png,cornwall.png,Fictional,676c956bbeee4e4356eb085b,old
5009.5999999940395,directmemory_phase,hotsprings.png,50.0,0.0,gatlinburg.png,hanover.png,peoria.png,peoria.png,hanover.png,gatlinburg.png,Fictional,676c956bbeee4e4356eb085b,old
3571.800000011921,directmemory_phase,racine.png,49.0,1.0,carmel.png,cornwall.png,gatlinburg.png,carmel.png,gatlinburg.png,cornwall.png,Fictional,676c956bbeee4e4356eb085b,old
3652.0,directmemory_phase,shreveport.png,49.0,0.0,leesburg.png,newhope.png,hanover.png,newhope.png,leesburg.png,hanover.png,Fictional,676c956bbeee4e4356eb085b,old
4242.299999982119,directmemory_phase,leesburg.png,51.0,1.0,hanover.png,gatlinburg.png,carmel.png,carmel.png,gatlinburg.png,hanover.png,Fictional,676c956bbeee4e4356eb085b,old
5518.899999976158,directmemory_phase,shreveport.png,49.0,0.0,peoria.png,gatlinburg.png,racine.png,racine.png,gatlinburg.png,peoria.png,Fictional,676c956bbeee4e4356eb085b,old
4754.0,directmemory_phase,cornwall.png,51.0,1.0,leesburg.png,newhope.png,hanover.png,hanover.png,newhope.png,leesburg.png,Fictional,676c956bbeee4e4356eb085b,old
5141.0999999940395,directmemory_phase,hotsprings.png,49.0,1.0,newhope.png,carmel.png,westpalmbeach.png,newhope.png,westpalmbeach.png,carmel.png,Fictional,676c956bbeee4e4356eb085b,old
5620.0,directmemory_phase,huntsville.png,49.0,1.0,hanover.png,peoria.png,hotsprings.png,hanover.png,hotsprings.png,peoria.png,Fictional,676c956bbeee4e4356eb085b,old
3031.4000000059605,directmemory_phase,boulder.png,49.0,1.0,leesburg.png,gatlinburg.png,carmel.png,leesburg.png,carmel.png,gatlinburg.png,Fictional,676c956bbeee4e4356eb085b,old
3406.0,directmemory_phase,gatlinburg.png,49.0,1.0,carmel.png,hanover.png,racine.png,carmel.png,racine.png,hanover.png,Fictional,676c956bbeee4e4356eb085b,old
4186.199999988079,directmemory_phase,leesburg.png,51.0,1.0,hanover.png,gatlinburg.png,boulder.png,boulder.png,gatlinburg.png,hanover.png,Fictional,676c956bbeee4e4356eb085b,old
3774.699999988079,directmemory_phase,hotsprings.png,51.0,1.0,gatlinburg.png,westpalmbeach.png,cornwall.png,cornwall.png,westpalmbeach.png,gatlinburg.png,Fictional,676c956bbeee4e4356eb085b,old
4214.700000017881,directmemory_phase,carmel.png,49.0,1.0,racine.png,cornwall.png,huntsville.png,racine.png,huntsville.png,cornwall.png,Fictional,676c956bbeee4e4356eb085b,old
5085.799999982119,directmemory_phase,newhope.png,49.0,0.0,racine.png,hotsprings.png,westpalmbeach.png,hotsprings.png,racine.png,westpalmbeach.png,Fictional,676c956bbeee4e4356eb085b,old
3484.800000011921,directmemory_phase,cornwall.png,49.0,1.0,westpalmbeach.png,carmel.png,newhope.png,westpalmbeach.png,newhope.png,carmel.png,Fictional,676c956bbeee4e4356eb085b,old
3700.100000023842,directmemory_phase,huntsville.png,49.0,1.0,newhope.png,peoria.png,leesburg.png,newhope.png,leesburg.png,peoria.png,Fictional,676c956bbeee4e4356eb085b,old
4865.299999982119,directmemory_phase,carmel.png,50.0,1.0,boulder.png,leesburg.png,peoria.png,leesburg.png,boulder.png,peoria.png,Fictional,676c956bbeee4e4356eb085b,old
5334.0999999940395,directmemory_phase,huntsville.png,51.0,0.0,racine.png,peoria.png,cornwall.png,racine.png,cornwall.png,peoria.png,Fictional,676c956bbeee4e4356eb085b,old
3649.2999999821186,directmemory_phase,hanover.png,51.0,1.0,gatlinburg.png,racine.png,cornwall.png,cornwall.png,racine.png,gatlinburg.png,Fictional,676c956bbeee4e4356eb085b,old
5314.0,directmemory_phase,newhope.png,51.0,1.0,gatlinburg.png,racine.png,shreveport.png,shreveport.png,racine.png,gatlinburg.png,Fictional,676c956bbeee4e4356eb085b,old
3797.699999988079,directmemory_phase,westpalmbeach.png,49.0,1.0,cornwall.png,racine.png,hotsprings.png,cornwall.png,hotsprings.png,racine.png,Fictional,676c956bbeee4e4356eb085b,old
4219.399999976158,directmemory_phase,hanover.png,49.0,1.0,huntsville.png,shreveport.png,westpalmbeach.png,huntsville.png,westpalmbeach.png,shreveport.png,Fictional,676c956bbeee4e4356eb085b,old
4296.799999982119,directmemory_phase,cornwall.png,49.0,1.0,hotsprings.png,leesburg.png,peoria.png,hotsprings.png,peoria.png,leesburg.png,Fictional,676c956bbeee4e4356eb085b,old
2208.39999999851,directmemory_phase,newhope.png,51.0,1.0,hotsprings.png,racine.png,gatlinburg.png,gatlinburg.png,racine.png,hotsprings.png,Fictional,62ceeffea6d9872b4adeee6f,young
2071.1999999955297,directmemory_phase,carmel.png,50.0,1.0,leesburg.png,westpalmbeach.png,hanover.png,westpalmbeach.png,leesburg.png,hanover.png,Fictional,62ceeffea6d9872b4adeee6f,young
2385.0999999940395,directmemory_phase,cornwall.png,51.0,1.0,huntsville.png,newhope.png,leesburg.png,leesburg.png,newhope.png,huntsville.png,Fictional,62ceeffea6d9872b4adeee6f,young
2677.10000000149,directmemory_phase,shreveport.png,50.0,0.0,hotsprings.png,racine.png,westpalmbeach.png,hotsprings.png,westpalmbeach.png,racine.png,Fictional,62ceeffea6d9872b4adeee6f,young
1334.10000000149,directmemory_phase,boulder.png,49.0,0.0,huntsville.png,hanover.png,cornwall.png,hanover.png,huntsville.png,cornwall.png,Fictional,62ceeffea6d9872b4adeee6f,young
3024.39999999851,directmemory_phase,racine.png,49.0,1.0,huntsville.png,westpalmbeach.png,cornwall.png,huntsville.png,cornwall.png,westpalmbeach.png,Fictional,62ceeffea6d9872b4adeee6f,young
3423.70000000298,directmemory_phase,hotsprings.png,51.0,0.0,gatlinburg.png,shreveport.png,hanover.png,shreveport.png,gatlinburg.png,hanover.png,Fictional,62ceeffea6d9872b4adeee6f,young
1801.5,directmemory_phase,cornwall.png,51.0,1.0,boulder.png,westpalmbeach.png,gatlinburg.png,gatlinburg.png,westpalmbeach.png,boulder.png,Fictional,62ceeffea6d9872b4adeee6f,young
6250.89999999851,directmemory_phase,racine.png,49.0,0.0,shreveport.png,newhope.png,boulder.png,boulder.png,newhope.png,shreveport.png,Fictional,62ceeffea6d9872b4adeee6f,young
3159.39999999851,directmemory_phase,cornwall.png,50.0,1.0,racine.png,carmel.png,hotsprings.png,carmel.png,racine.png,hotsprings.png,Fictional,62ceeffea6d9872b4adeee6f,young
2387.6999999955297,directmemory_phase,leesburg.png,51.0,0.0,racine.png,westpalmbeach.png,hanover.png,racine.png,hanover.png,westpalmbeach.png,Fictional,62ceeffea6d9872b4adeee6f,young
2207.79999999702,directmemory_phase,gatlinburg.png,51.0,1.0,huntsville.png,hotsprings.png,carmel.png,carmel.png,hotsprings.png,huntsville.png,Fictional,62ceeffea6d9872b4adeee6f,young
3470.29999999702,directmemory_phase,hanover.png,50.0,0.0,westpalmbeach.png,leesburg.png,newhope.png,newhope.png,leesburg.png,westpalmbeach.png,Fictional,62ceeffea6d9872b4adeee6f,young
3674.8000000044703,directmemory_phase,carmel.png,49.0,1.0,shreveport.png,huntsville.png,leesburg.png,shreveport.png,leesburg.png,huntsville.png,Fictional,62ceeffea6d9872b4adeee6f,young
3859.39999999851,directmemory_phase,leesburg.png,50.0,0.0,westpalmbeach.png,boulder.png,cornwall.png,cornwall.png,boulder.png,westpalmbeach.png,Fictional,62ceeffea6d9872b4adeee6f,young
3991.6999999955297,directmemory_phase,boulder.png,50.0,1.0,huntsville.png,racine.png,gatlinburg.png,racine.png,huntsville.png,gatlinburg.png,Fictional,62ceeffea6d9872b4adeee6f,young
1723.39999999851,directmemory_phase,westpalmbeach.png,51.0,1.0,leesburg.png,gatlinburg.png,carmel.png,carmel.png,gatlinburg.png,leesburg.png,Fictional,62ceeffea6d9872b4adeee6f,young
1663.7999999970198,directmemory_phase,gatlinburg.png,49.0,1.0,cornwall.png,huntsville.png,leesburg.png,cornwall.png,leesburg.png,huntsville.png,Fictional,62ceeffea6d9872b4adeee6f,young
1532.0,directmemory_phase,shreveport.png,50.0,1.0,westpalmbeach.png,carmel.png,boulder.png,carmel.png,westpalmbeach.png,boulder.png,Fictional,62ceeffea6d9872b4adeee6f,young
2835.5999999940395,directmemory_phase,huntsville.png,51.0,1.0,gatlinburg.png,leesburg.png,racine.png,racine.png,leesburg.png,gatlinburg.png,Fictional,62ceeffea6d9872b4adeee6f,young
2115.89999999851,directmemory_phase,carmel.png,51.0,1.0,hanover.png,newhope.png,cornwall.png,cornwall.png,newhope.png,hanover.png,Fictional,62ceeffea6d9872b4adeee6f,young
4429.80000000447,directmemory_phase,newhope.png,49.0,1.0,leesburg.png,westpalmbeach.png,boulder.png,leesburg.png,boulder.png,westpalmbeach.png,Fictional,62ceeffea6d9872b4adeee6f,young
4112.0,directmemory_phase,shreveport.png,50.0,1.0,cornwall.png,gatlinburg.png,racine.png,gatlinburg.png,cornwall.png,racine.png,Fictional,62ceeffea6d9872b4adeee6f,young
3252.8000000044703,directmemory_phase,leesburg.png,51.0,1.0,shreveport.png,gatlinburg.png,newhope.png,newhope.png,gatlinburg.png,shreveport.png,Fictional,62ceeffea6d9872b4adeee6f,young
3182.89999999851,directmemory_phase,gatlinburg.png,51.0,1.0,huntsville.png,hotsprings.png,shreveport.png,shreveport.png,hotsprings.png,huntsville.png,Fictional,62ceeffea6d9872b4adeee6f,young
3008.10000000149,directmemory_phase,racine.png,49.0,1.0,leesburg.png,shreveport.png,cornwall.png,leesburg.png,cornwall.png,shreveport.png,Fictional,62ceeffea6d9872b4adeee6f,young
3867.29999999702,directmemory_phase,newhope.png,51.0,1.0,westpalmbeach.png,boulder.png,hanover.png,hanover.png,boulder.png,westpalmbeach.png,Fictional,62ceeffea6d9872b4adeee6f,young
1737.60000000149,directmemory_phase,boulder.png,49.0,1.0,peoria.png,carmel.png,newhope.png,peoria.png,newhope.png,carmel.png,Fictional,62ceeffea6d9872b4adeee6f,young
2409.20000000298,directmemory_phase,gatlinburg.png,49.0,1.0,newhope.png,racine.png,hotsprings.png,newhope.png,hotsprings.png,racine.png,Fictional,62ceeffea6d9872b4adeee6f,young
1452.89999999851,directmemory_phase,peoria.png,49.0,1.0,boulder.png,leesburg.png,racine.png,boulder.png,racine.png,leesburg.png,Fictional,62ceeffea6d9872b4adeee6f,young
2153.70000000298,directmemory_phase,carmel.png,51.0,1.0,hanover.png,newhope.png,gatlinburg.png,gatlinburg.png,newhope.png,hanover.png,Fictional,62ceeffea6d9872b4adeee6f,young
5382.70000000298,directmemory_phase,hanover.png,49.0,1.0,boulder.png,hotsprings.png,peoria.png,boulder.png,peoria.png,hotsprings.png,Fictional,62ceeffea6d9872b4adeee6f,young
3315.100000023842,directmemory_phase,shreveport.png,49.0,1.0,carmel.png,hanover.png,newhope.png,carmel.png,newhope.png,hanover.png,Fictional,63af557b3d4f219c3226b7d6,young
3001.0,directmemory_phase,racine.png,50.0,1.0,carmel.png,peoria.png,huntsville.png,peoria.png,carmel.png,huntsville.png,Fictional,63af557b3d4f219c3226b7d6,young
2317.100000023842,directmemory_phase,carmel.png,51.0,1.0,newhope.png,hanover.png,shreveport.png,shreveport.png,hanover.png,newhope.png,Fictional,63af557b3d4f219c3226b7d6,young
968.8000000119208,directmemory_phase,newhope.png,49.0,1.0,cornwall.png,peoria.png,shreveport.png,cornwall.png,shreveport.png,peoria.png,Fictional,63af557b3d4f219c3226b7d6,young
2109.099999964237,directmemory_phase,shreveport.png,49.0,1.0,westpalmbeach.png,hanover.png,huntsville.png,westpalmbeach.png,huntsville.png,hanover.png,Fictional,63af557b3d4f219c3226b7d6,young
1023.4000000357628,directmemory_phase,cornwall.png,51.0,1.0,racine.png,carmel.png,newhope.png,newhope.png,carmel.png,racine.png,Fictional,63af557b3d4f219c3226b7d6,young
2218.0,directmemory_phase,carmel.png,51.0,1.0,hotsprings.png,boulder.png,peoria.png,peoria.png,boulder.png,hotsprings.png,Fictional,63af557b3d4f219c3226b7d6,young
2893.300000011921,directmemory_phase,cornwall.png,50.0,1.0,huntsville.png,shreveport.png,gatlinburg.png,shreveport.png,huntsville.png,gatlinburg.png,Fictional,63af557b3d4f219c3226b7d6,young
1513.9000000357628,directmemory_phase,peoria.png,51.0,1.0,hotsprings.png,gatlinburg.png,westpalmbeach.png,westpalmbeach.png,gatlinburg.png,hotsprings.png,Fictional,63af557b3d4f219c3226b7d6,young
1060.5,directmemory_phase,hanover.png,50.0,1.0,gatlinburg.png,leesburg.png,boulder.png,leesburg.png,gatlinburg.png,boulder.png,Fictional,63af557b3d4f219c3226b7d6,young
824.3000000119209,directmemory_phase,hotsprings.png,49.0,1.0,boulder.png,shreveport.png,huntsville.png,boulder.png,huntsville.png,shreveport.png,Fictional,63af557b3d4f219c3226b7d6,young
1130.100000023842,directmemory_phase,peoria.png,51.0,1.0,hotsprings.png,huntsville.png,racine.png,racine.png,huntsville.png,hotsprings.png,Fictional,63af557b3d4f219c3226b7d6,young
1523.399999976158,directmemory_phase,huntsville.png,51.0,1.0,racine.png,hotsprings.png,boulder.png,boulder.png,hotsprings.png,racine.png,Fictional,63af557b3d4f219c3226b7d6,young
1870.0,directmemory_phase,racine.png,51.0,1.0,cornwall.png,leesburg.png,gatlinburg.png,gatlinburg.png,leesburg.png,cornwall.png,Fictional,63af557b3d4f219c3226b7d6,young
5163.699999988079,directmemory_phase,carmel.png,51.0,0.0,huntsville.png,leesburg.png,hanover.png,huntsville.png,hanover.png,leesburg.png,Fictional,63af557b3d4f219c3226b7d6,young
2143.300000011921,directmemory_phase,boulder.png,49.0,1.0,hotsprings.png,racine.png,carmel.png,hotsprings.png,carmel.png,racine.png,Fictional,63af557b3d4f219c3226b7d6,young
1831.800000011921,directmemory_phase,peoria.png,49.0,1.0,hanover.png,boulder.png,shreveport.png,hanover.png,shreveport.png,boulder.png,Fictional,63af557b3d4f219c3226b7d6,young
2994.300000011921,directmemory_phase,huntsville.png,50.0,1.0,shreveport.png,carmel.png,newhope.png,carmel.png,shreveport.png,newhope.png,Fictional,63af557b3d4f219c3226b7d6,young
1891.199999988079,directmemory_phase,hanover.png,49.0,1.0,racine.png,huntsville.png,carmel.png,racine.png,carmel.png,huntsville.png,Fictional,63af557b3d4f219c3226b7d6,young
1790.5,directmemory_phase,westpalmbeach.png,51.0,1.0,newhope.png,cornwall.png,peoria.png,peoria.png,cornwall.png,newhope.png,Fictional,63af557b3d4f219c3226b7d6,young
1275.199999988079,directmemory_phase,racine.png,50.0,1.0,leesburg.png,hanover.png,boulder.png,hanover.png,leesburg.png,boulder.png,Fictional,63af557b3d4f219c3226b7d6,young
1588.0,directmemory_phase,peoria.png,49.0,1.0,carmel.png,hotsprings.png,huntsville.png,carmel.png,huntsville.png,hotsprings.png,Fictional,63af557b3d4f219c3226b7d6,young
960.5,directmemory_phase,racine.png,49.0,1.0,westpalmbeach.png,cornwall.png,leesburg.png,westpalmbeach.png,leesburg.png,cornwall.png,Fictional,63af557b3d4f219c3226b7d6,young
1016.2000000476836,directmemory_phase,shreveport.png,51.0,1.0,hanover.png,peoria.png,cornwall.png,cornwall.png,peoria.png,hanover.png,Fictional,63af557b3d4f219c3226b7d6,young
1459.699999988079,directmemory_phase,westpalmbeach.png,51.0,1.0,huntsville.png,gatlinburg.png,racine.png,racine.png,gatlinburg.png,huntsville.png,Fictional,63af557b3d4f219c3226b7d6,young
1099.0999999642372,directmemory_phase,boulder.png,51.0,1.0,peoria.png,carmel.png,huntsville.png,huntsville.png,carmel.png,peoria.png,Fictional,63af557b3d4f219c3226b7d6,young
2081.900000035763,directmemory_phase,westpalmbeach.png,49.0,1.0,shreveport.png,hotsprings.png,cornwall.png,shreveport.png,cornwall.png,hotsprings.png,Fictional,63af557b3d4f219c3226b7d6,young
1111.0,directmemory_phase,hanover.png,50.0,1.0,westpalmbeach.png,peoria.png,cornwall.png,peoria.png,westpalmbeach.png,cornwall.png,Fictional,63af557b3d4f219c3226b7d6,young
1083.5999999642372,directmemory_phase,cornwall.png,49.0,0.0,hanover.png,westpalmbeach.png,boulder.png,boulder.png,westpalmbeach.png,hanover.png,Fictional,63af557b3d4f219c3226b7d6,young
1009.3000000119208,directmemory_phase,gatlinburg.png,51.0,1.0,leesburg.png,hanover.png,racine.png,racine.png,hanover.png,leesburg.png,Fictional,63af557b3d4f219c3226b7d6,young
1880.899999976158,directmemory_phase,boulder.png,51.0,1.0,hanover.png,shreveport.png,cornwall.png,cornwall.png,shreveport.png,hanover.png,Fictional,63af557b3d4f219c3226b7d6,young
747.8999999761581,directmemory_phase,leesburg.png,49.0,1.0,hanover.png,huntsville.png,racine.png,hanover.png,racine.png,huntsville.png,Fictional,63af557b3d4f219c3226b7d6,young
4006.7999999998137,directmemory_phase,leesburg.png,51.0,1.0,gatlinburg.png,cornwall.png,carmel.png,carmel.png,cornwall.png,gatlinburg.png,Fictional,5d2e3cdf6835130001aa16f0,old
2412.4000000003725,directmemory_phase,gatlinburg.png,50.0,1.0,westpalmbeach.png,racine.png,hanover.png,racine.png,westpalmbeach.png,hanover.png,Fictional,5d2e3cdf6835130001aa16f0,old
4965.899999999441,directmemory_phase,hanover.png,50.0,1.0,cornwall.png,boulder.png,huntsville.png,boulder.png,cornwall.png,huntsville.png,Fictional,5d2e3cdf6835130001aa16f0,old
4390.799999999814,directmemory_phase,huntsville.png,51.0,1.0,racine.png,westpalmbeach.png,shreveport.png,shreveport.png,westpalmbeach.png,racine.png,Fictional,5d2e3cdf6835130001aa16f0,old
4260.799999999814,directmemory_phase,boulder.png,50.0,1.0,carmel.png,leesburg.png,gatlinburg.png,leesburg.png,carmel.png,gatlinburg.png,Fictional,5d2e3cdf6835130001aa16f0,old
4818.4000000003725,directmemory_phase,shreveport.png,49.0,1.0,gatlinburg.png,cornwall.png,hotsprings.png,gatlinburg.png,hotsprings.png,cornwall.png,Fictional,5d2e3cdf6835130001aa16f0,old
3558.2999999998137,directmemory_phase,newhope.png,51.0,1.0,hotsprings.png,leesburg.png,hanover.png,hanover.png,leesburg.png,hotsprings.png,Fictional,5d2e3cdf6835130001aa16f0,old
1807.0,directmemory_phase,racine.png,49.0,1.0,peoria.png,boulder.png,shreveport.png,peoria.png,shreveport.png,boulder.png,Fictional,5d2e3cdf6835130001aa16f0,old
5226.9000000003725,directmemory_phase,newhope.png,49.0,1.0,boulder.png,carmel.png,shreveport.png,boulder.png,shreveport.png,carmel.png,Fictional,5d2e3cdf6835130001aa16f0,old
2512.800000000745,directmemory_phase,westpalmbeach.png,51.0,1.0,cornwall.png,gatlinburg.png,shreveport.png,shreveport.png,gatlinburg.png,cornwall.png,Fictional,5d2e3cdf6835130001aa16f0,old
5107.0,directmemory_phase,boulder.png,49.0,1.0,newhope.png,shreveport.png,carmel.png,newhope.png,carmel.png,shreveport.png,Fictional,5d2e3cdf6835130001aa16f0,old
2669.899999999441,directmemory_phase,gatlinburg.png,51.0,1.0,newhope.png,westpalmbeach.png,shreveport.png,shreveport.png,westpalmbeach.png,newhope.png,Fictional,5d2e3cdf6835130001aa16f0,old
2703.899999999441,directmemory_phase,westpalmbeach.png,51.0,1.0,carmel.png,racine.png,peoria.png,peoria.png,racine.png,carmel.png,Fictional,5d2e3cdf6835130001aa16f0,old
2515.5,directmemory_phase,leesburg.png,51.0,1.0,westpalmbeach.png,peoria.png,boulder.png,boulder.png,peoria.png,westpalmbeach.png,Fictional,5d2e3cdf6835130001aa16f0,old
3858.599999999627,directmemory_phase,shreveport.png,50.0,1.0,peoria.png,huntsville.png,cornwall.png,huntsville.png,peoria.png,cornwall.png,Fictional,5d2e3cdf6835130001aa16f0,old
3856.900000000373,directmemory_phase,newhope.png,51.0,1.0,gatlinburg.png,cornwall.png,westpalmbeach.png,westpalmbeach.png,cornwall.png,gatlinburg.png,Fictional,5d2e3cdf6835130001aa16f0,old
2594.2999999998137,directmemory_phase,peoria.png,51.0,1.0,hotsprings.png,leesburg.png,racine.png,racine.png,leesburg.png,hotsprings.png,Fictional,5d2e3cdf6835130001aa16f0,old
2063.7000000001863,directmemory_phase,boulder.png,49.0,1.0,hanover.png,racine.png,carmel.png,hanover.png,carmel.png,racine.png,Fictional,5d2e3cdf6835130001aa16f0,old
3067.600000000559,directmemory_phase,racine.png,51.0,1.0,cornwall.png,hotsprings.png,gatlinburg.png,gatlinburg.png,hotsprings.png,cornwall.png,Fictional,5d2e3cdf6835130001aa16f0,old
1873.7999999998135,directmemory_phase,shreveport.png,51.0,1.0,boulder.png,peoria.png,westpalmbeach.png,westpalmbeach.png,peoria.png,boulder.png,Fictional,5d2e3cdf6835130001aa16f0,old
2959.600000000559,directmemory_phase,leesburg.png,51.0,1.0,westpalmbeach.png,cornwall.png,hanover.png,hanover.png,cornwall.png,westpalmbeach.png,Fictional,5d2e3cdf6835130001aa16f0,old
1969.9000000003723,directmemory_phase,peoria.png,49.0,1.0,westpalmbeach.png,carmel.png,boulder.png,westpalmbeach.png,boulder.png,carmel.png,Fictional,5d2e3cdf6835130001aa16f0,old
2572.2000000001863,directmemory_phase,carmel.png,51.0,1.0,peoria.png,boulder.png,leesburg.png,leesburg.png,boulder.png,peoria.png,Fictional,5d2e3cdf6835130001aa16f0,old
2110.399999999441,directmemory_phase,hanover.png,51.0,0.0,cornwall.png,peoria.png,shreveport.png,peoria.png,cornwall.png,shreveport.png,Fictional,5d2e3cdf6835130001aa16f0,old
1450.7999999998135,directmemory_phase,hotsprings.png,50.0,1.0,racine.png,gatlinburg.png,newhope.png,gatlinburg.png,racine.png,newhope.png,Fictional,5d2e3cdf6835130001aa16f0,old
1783.6000000005588,directmemory_phase,peoria.png,49.0,1.0,hanover.png,carmel.png,boulder.png,hanover.png,boulder.png,carmel.png,Fictional,5d2e3cdf6835130001aa16f0,old
1242.5,directmemory_phase,gatlinburg.png,51.0,1.0,hanover.png,westpalmbeach.png,hotsprings.png,hotsprings.png,westpalmbeach.png,hanover.png,Fictional,5d2e3cdf6835130001aa16f0,old
4145.300000000745,directmemory_phase,hanover.png,50.0,0.0,leesburg.png,shreveport.png,racine.png,leesburg.png,racine.png,shreveport.png,Fictional,5d2e3cdf6835130001aa16f0,old
4891.0999999996275,directmemory_phase,cornwall.png,50.0,0.0,boulder.png,shreveport.png,newhope.png,boulder.png,newhope.png,shreveport.png,Fictional,5d2e3cdf6835130001aa16f0,old
1951.2999999998135,directmemory_phase,hanover.png,49.0,1.0,newhope.png,shreveport.png,westpalmbeach.png,newhope.png,westpalmbeach.png,shreveport.png,Fictional,5d2e3cdf6835130001aa16f0,old
1837.0999999996277,directmemory_phase,boulder.png,51.0,0.0,cornwall.png,shreveport.png,carmel.png,cornwall.png,carmel.png,shreveport.png,Fictional,5d2e3cdf6835130001aa16f0,old
3091.0,directmemory_phase,westpalmbeach.png,49.0,1.0,newhope.png,carmel.png,racine.png,newhope.png,racine.png,carmel.png,Fictional,5d2e3cdf6835130001aa16f0,old
4653.300000000279,directmemory_phase,boulder.png,49.0,1.0,huntsville.png,shreveport.png,racine.png,huntsville.png,racine.png,shreveport.png,Fictional,5b8c611e4cd6dd0001bec307,young
3094.899999999907,directmemory_phase,cornwall.png,51.0,1.0,peoria.png,leesburg.png,hotsprings.png,hotsprings.png,leesburg.png,peoria.png,Fictional,5b8c611e4cd6dd0001bec307,young
3995.3000000002794,directmemory_phase,peoria.png,50.0,1.0,carmel.png,huntsville.png,cornwall.png,huntsville.png,carmel.png,cornwall.png,Fictional,5b8c611e4cd6dd0001bec307,young
2323.5,directmemory_phase,hotsprings.png,49.0,1.0,carmel.png,leesburg.png,gatlinburg.png,carmel.png,gatlinburg.png,leesburg.png,Fictional,5b8c611e4cd6dd0001bec307,young
2919.7999999998137,directmemory_phase,leesburg.png,50.0,1.0,gatlinburg.png,peoria.png,westpalmbeach.png,peoria.png,gatlinburg.png,westpalmbeach.png,Fictional,5b8c611e4cd6dd0001bec307,young
1915.8999999999069,directmemory_phase,gatlinburg.png,50.0,1.0,leesburg.png,newhope.png,westpalmbeach.png,newhope.png,leesburg.png,westpalmbeach.png,Fictional,5b8c611e4cd6dd0001bec307,young
1635.3999999999069,directmemory_phase,westpalmbeach.png,49.0,1.0,hotsprings.png,leesburg.png,carmel.png,hotsprings.png,carmel.png,leesburg.png,Fictional,5b8c611e4cd6dd0001bec307,young
2800.5,directmemory_phase,gatlinburg.png,51.0,1.0,hanover.png,huntsville.png,peoria.png,peoria.png,huntsville.png,hanover.png,Fictional,5b8c611e4cd6dd0001bec307,young
3304.1999999997206,directmemory_phase,boulder.png,50.0,1.0,racine.png,leesburg.png,cornwall.png,leesburg.png,racine.png,cornwall.png,Fictional,5b8c611e4cd6dd0001bec307,young
1929.2999999998135,directmemory_phase,peoria.png,49.0,1.0,gatlinburg.png,westpalmbeach.png,racine.png,gatlinburg.png,racine.png,westpalmbeach.png,Fictional,5b8c611e4cd6dd0001bec307,young
3129.600000000093,directmemory_phase,newhope.png,51.0,1.0,westpalmbeach.png,hotsprings.png,leesburg.png,leesburg.png,hotsprings.png,westpalmbeach.png,Fictional,5b8c611e4cd6dd0001bec307,young
2770.5,directmemory_phase,huntsville.png,51.0,1.0,newhope.png,gatlinburg.png,peoria.png,peoria.png,gatlinburg.png,newhope.png,Fictional,5b8c611e4cd6dd0001bec307,young
2511.0,directmemory_phase,hotsprings.png,49.0,1.0,westpalmbeach.png,leesburg.png,gatlinburg.png,westpalmbeach.png,gatlinburg.png,leesburg.png,Fictional,5b8c611e4cd6dd0001bec307,young
1370.6999999997206,directmemory_phase,shreveport.png,49.0,1.0,cornwall.png,gatlinburg.png,newhope.png,cornwall.png,newhope.png,gatlinburg.png,Fictional,5b8c611e4cd6dd0001bec307,young
2884.2000000001863,directmemory_phase,carmel.png,51.0,1.0,boulder.png,westpalmbeach.png,gatlinburg.png,gatlinburg.png,westpalmbeach.png,boulder.png,Fictional,5b8c611e4cd6dd0001bec307,young
4800.4000000003725,directmemory_phase,huntsville.png,49.0,0.0,gatlinburg.png,racine.png,newhope.png,racine.png,gatlinburg.png,newhope.png,Fictional,5b8c611e4cd6dd0001bec307,young
2377.1999999997206,directmemory_phase,carmel.png,51.0,1.0,racine.png,westpalmbeach.png,hotsprings.png,hotsprings.png,westpalmbeach.png,racine.png,Fictional,5b8c611e4cd6dd0001bec307,young
2588.0,directmemory_phase,newhope.png,49.0,1.0,cornwall.png,huntsville.png,boulder.png,cornwall.png,boulder.png,huntsville.png,Fictional,5b8c611e4cd6dd0001bec307,young
5050.399999999907,directmemory_phase,boulder.png,51.0,1.0,carmel.png,newhope.png,peoria.png,peoria.png,newhope.png,carmel.png,Fictional,5b8c611e4cd6dd0001bec307,young
3394.2000000001863,directmemory_phase,cornwall.png,49.0,1.0,shreveport.png,boulder.png,westpalmbeach.png,shreveport.png,westpalmbeach.png,boulder.png,Fictional,5b8c611e4cd6dd0001bec307,young
2202.899999999907,directmemory_phase,peoria.png,51.0,1.0,cornwall.png,racine.png,boulder.png,boulder.png,racine.png,cornwall.png,Fictional,5b8c611e4cd6dd0001bec307,young
3797.7000000001863,directmemory_phase,cornwall.png,50.0,1.0,gatlinburg.png,newhope.png,huntsville.png,newhope.png,gatlinburg.png,huntsville.png,Fictional,5b8c611e4cd6dd0001bec307,young
2595.100000000093,directmemory_phase,leesburg.png,51.0,1.0,carmel.png,hanover.png,boulder.png,boulder.png,hanover.png,carmel.png,Fictional,5b8c611e4cd6dd0001bec307,young
2648.8000000002794,directmemory_phase,racine.png,49.0,1.0,huntsville.png,gatlinburg.png,boulder.png,huntsville.png,boulder.png,gatlinburg.png,Fictional,5b8c611e4cd6dd0001bec307,young
2923.5,directmemory_phase,hotsprings.png,49.0,1.0,cornwall.png,peoria.png,gatlinburg.png,cornwall.png,gatlinburg.png,peoria.png,Fictional,5b8c611e4cd6dd0001bec307,young
1715.0,directmemory_phase,hanover.png,50.0,1.0,peoria.png,boulder.png,gatlinburg.png,boulder.png,peoria.png,gatlinburg.png,Fictional,5b8c611e4cd6dd0001bec307,young
4842.399999999907,directmemory_phase,leesburg.png,51.0,1.0,westpalmbeach.png,cornwall.png,newhope.png,newhope.png,cornwall.png,westpalmbeach.png,Fictional,5b8c611e4cd6dd0001bec307,young
1648.6000000000931,directmemory_phase,gatlinburg.png,49.0,0.0,huntsville.png,carmel.png,westpalmbeach.png,carmel.png,huntsville.png,westpalmbeach.png,Fictional,5b8c611e4cd6dd0001bec307,young
5848.699999999721,directmemory_phase,peoria.png,49.0,1.0,leesburg.png,hotsprings.png,racine.png,leesburg.png,racine.png,hotsprings.png,Fictional,5b8c611e4cd6dd0001bec307,young
1719.5,directmemory_phase,huntsville.png,51.0,1.0,hotsprings.png,leesburg.png,boulder.png,boulder.png,leesburg.png,hotsprings.png,Fictional,5b8c611e4cd6dd0001bec307,young
1990.0,directmemory_phase,newhope.png,50.0,1.0,peoria.png,gatlinburg.png,hanover.png,gatlinburg.png,peoria.png,hanover.png,Fictional,5b8c611e4cd6dd0001bec307,young
3107.0,directmemory_phase,boulder.png,51.0,1.0,shreveport.png,newhope.png,hanover.png,hanover.png,newhope.png,shreveport.png,Fictional,5b8c611e4cd6dd0001bec307,young
4697.799999952316,directmemory_phase,leesburg.png,50.0,0.0,hanover.png,huntsville.png,gatlinburg.png,gatlinburg.png,huntsville.png,hanover.png,Fictional,652d3c440e9e1391e8840a53,old
2855.899999856949,directmemory_phase,carmel.png,49.0,0.0,newhope.png,peoria.png,shreveport.png,shreveport.png,peoria.png,newhope.png,Fictional,652d3c440e9e1391e8840a53,old
3154.900000095367,directmemory_phase,gatlinburg.png,49.0,0.0,peoria.png,newhope.png,racine.png,newhope.png,peoria.png,racine.png,Fictional,652d3c440e9e1391e8840a53,old
2507.099999904633,directmemory_phase,carmel.png,51.0,1.0,gatlinburg.png,huntsville.png,cornwall.png,cornwall.png,huntsville.png,gatlinburg.png,Fictional,652d3c440e9e1391e8840a53,old
1943.3000001907349,directmemory_phase,gatlinburg.png,50.0,1.0,westpalmbeach.png,huntsville.png,cornwall.png,huntsville.png,westpalmbeach.png,cornwall.png,Fictional,652d3c440e9e1391e8840a53,old
2895.2999999523163,directmemory_phase,racine.png,51.0,0.0,carmel.png,hotsprings.png,newhope.png,carmel.png,newhope.png,hotsprings.png,Fictional,652d3c440e9e1391e8840a53,old
1572.7999999523165,directmemory_phase,huntsville.png,51.0,1.0,westpalmbeach.png,newhope.png,gatlinburg.png,gatlinburg.png,newhope.png,westpalmbeach.png,Fictional,652d3c440e9e1391e8840a53,old
2325.2000000476837,directmemory_phase,peoria.png,51.0,0.0,newhope.png,cornwall.png,leesburg.png,newhope.png,leesburg.png,cornwall.png,Fictional,652d3c440e9e1391e8840a53,old
1904.7000000476835,directmemory_phase,leesburg.png,50.0,1.0,boulder.png,hotsprings.png,shreveport.png,hotsprings.png,boulder.png,shreveport.png,Fictional,652d3c440e9e1391e8840a53,old
1727.0999999046326,directmemory_phase,shreveport.png,50.0,1.0,gatlinburg.png,hanover.png,newhope.png,hanover.png,gatlinburg.png,newhope.png,Fictional,652d3c440e9e1391e8840a53,old
2351.599999904633,directmemory_phase,peoria.png,49.0,0.0,leesburg.png,racine.png,boulder.png,racine.png,leesburg.png,boulder.png,Fictional,652d3c440e9e1391e8840a53,old
2556.600000143051,directmemory_phase,newhope.png,51.0,1.0,carmel.png,hotsprings.png,westpalmbeach.png,westpalmbeach.png,hotsprings.png,carmel.png,Fictional,652d3c440e9e1391e8840a53,old
2082.5,directmemory_phase,huntsville.png,49.0,1.0,peoria.png,westpalmbeach.png,hanover.png,peoria.png,hanover.png,westpalmbeach.png,Fictional,652d3c440e9e1391e8840a53,old
2597.7000000476837,directmemory_phase,westpalmbeach.png,50.0,0.0,leesburg.png,carmel.png,peoria.png,leesburg.png,peoria.png,carmel.png,Fictional,652d3c440e9e1391e8840a53,old
1905.1000001430511,directmemory_phase,huntsville.png,51.0,1.0,boulder.png,newhope.png,shreveport.png,shreveport.png,newhope.png,boulder.png,Fictional,652d3c440e9e1391e8840a53,old
2502.399999856949,directmemory_phase,hotsprings.png,51.0,0.0,westpalmbeach.png,leesburg.png,peoria.png,leesburg.png,westpalmbeach.png,peoria.png,Fictional,652d3c440e9e1391e8840a53,old
2393.399999856949,directmemory_phase,shreveport.png,49.0,0.0,peoria.png,carmel.png,leesburg.png,carmel.png,peoria.png,leesburg.png,Fictional,652d3c440e9e1391e8840a53,old
2473.399999856949,directmemory_phase,leesburg.png,51.0,1.0,racine.png,peoria.png,newhope.png,newhope.png,peoria.png,racine.png,Fictional,652d3c440e9e1391e8840a53,old
2737.5,directmemory_phase,carmel.png,50.0,0.0,racine.png,westpalmbeach.png,hanover.png,racine.png,hanover.png,westpalmbeach.png,Fictional,652d3c440e9e1391e8840a53,old
2718.0,directmemory_phase,westpalmbeach.png,51.0,0.0,newhope.png,huntsville.png,hotsprings.png,newhope.png,hotsprings.png,huntsville.png,Fictional,652d3c440e9e1391e8840a53,old
2481.5,directmemory_phase,gatlinburg.png,51.0,1.0,racine.png,westpalmbeach.png,leesburg.png,leesburg.png,westpalmbeach.png,racine.png,Fictional,652d3c440e9e1391e8840a53,old
1665.3999998569489,directmemory_phase,newhope.png,50.0,1.0,hotsprings.png,peoria.png,carmel.png,peoria.png,hotsprings.png,carmel.png,Fictional,652d3c440e9e1391e8840a53,old
2613.900000095367,directmemory_phase,leesburg.png,50.0,0.0,shreveport.png,huntsville.png,westpalmbeach.png,westpalmbeach.png,huntsville.png,shreveport.png,Fictional,652d3c440e9e1391e8840a53,old
2148.0,directmemory_phase,newhope.png,49.0,1.0,gatlinburg.png,carmel.png,racine.png,gatlinburg.png,racine.png,carmel.png,Fictional,652d3c440e9e1391e8840a53,old
2883.400000095367,directmemory_phase,boulder.png,51.0,0.0,westpalmbeach.png,peoria.png,newhope.png,westpalmbeach.png,newhope.png,peoria.png,Fictional,652d3c440e9e1391e8840a53,old
2340.599999904633,directmemory_phase,newhope.png,49.0,0.0,boulder.png,leesburg.png,shreveport.png,leesburg.png,boulder.png,shreveport.png,Fictional,652d3c440e9e1391e8840a53,old
2751.599999904633,directmemory_phase,westpalmbeach.png,51.0,0.0,boulder.png,carmel.png,peoria.png,boulder.png,peoria.png,carmel.png,Fictional,652d3c440e9e1391e8840a53,old
2590.599999904633,directmemory_phase,peoria.png,50.0,0.0,huntsville.png,cornwall.png,westpalmbeach.png,huntsville.png,westpalmbeach.png,cornwall.png,Fictional,652d3c440e9e1391e8840a53,old
1831.6999998092651,directmemory_phase,cornwall.png,50.0,1.0,shreveport.png,carmel.png,hanover.png,carmel.png,shreveport.png,hanover.png,Fictional,652d3c440e9e1391e8840a53,old
2193.399999856949,directmemory_phase,shreveport.png,50.0,1.0,gatlinburg.png,huntsville.png,newhope.png,huntsville.png,gatlinburg.png,newhope.png,Fictional,652d3c440e9e1391e8840a53,old
2848.899999856949,directmemory_phase,racine.png,51.0,1.0,hanover.png,huntsville.png,peoria.png,peoria.png,huntsville.png,hanover.png,Fictional,652d3c440e9e1391e8840a53,old
2985.0,directmemory_phase,hanover.png,49.0,0.0,racine.png,carmel.png,shreveport.png,shreveport.png,carmel.png,racine.png,Fictional,652d3c440e9e1391e8840a53,old
2759.6000000089407,directmemory_phase,peoria.png,49.0,1.0,boulder.png,racine.png,gatlinburg.png,boulder.png,gatlinburg.png,racine.png,Fictional,5e1e5c3c80e02e1c36679187,old
2192.70000000298,directmemory_phase,leesburg.png,51.0,1.0,peoria.png,gatlinburg.png,hanover.png,hanover.png,gatlinburg.png,peoria.png,Fictional,5e1e5c3c80e02e1c36679187,old
2464.5999999940395,directmemory_phase,carmel.png,49.0,1.0,gatlinburg.png,westpalmbeach.png,cornwall.png,gatlinburg.png,cornwall.png,westpalmbeach.png,Fictional,5e1e5c3c80e02e1c36679187,old
1909.70000000298,directmemory_phase,leesburg.png,50.0,1.0,carmel.png,westpalmbeach.png,shreveport.png,westpalmbeach.png,carmel.png,shreveport.png,Fictional,5e1e5c3c80e02e1c36679187,old
2636.9000000059605,directmemory_phase,hanover.png,49.0,1.0,racine.png,shreveport.png,carmel.png,racine.png,carmel.png,shreveport.png,Fictional,5e1e5c3c80e02e1c36679187,old
1765.7000000029802,directmemory_phase,westpalmbeach.png,49.0,1.0,leesburg.png,gatlinburg.png,hotsprings.png,leesburg.png,hotsprings.png,gatlinburg.png,Fictional,5e1e5c3c80e02e1c36679187,old
1556.7000000029802,directmemory_phase,gatlinburg.png,51.0,1.0,huntsville.png,leesburg.png,cornwall.png,cornwall.png,leesburg.png,huntsville.png,Fictional,5e1e5c3c80e02e1c36679187,old
2450.0,directmemory_phase,hanover.png,51.0,1.0,peoria.png,carmel.png,leesburg.png,leesburg.png,carmel.png,peoria.png,Fictional,5e1e5c3c80e02e1c36679187,old
3360.9000000059605,directmemory_phase,boulder.png,51.0,1.0,racine.png,gatlinburg.png,peoria.png,peoria.png,gatlinburg.png,racine.png,Fictional,5e1e5c3c80e02e1c36679187,old
1769.5,directmemory_phase,racine.png,51.0,1.0,peoria.png,gatlinburg.png,leesburg.png,leesburg.png,gatlinburg.png,peoria.png,Fictional,5e1e5c3c80e02e1c36679187,old
2179.8999999910593,directmemory_phase,hotsprings.png,49.0,1.0,hanover.png,peoria.png,racine.png,hanover.png,racine.png,peoria.png,Fictional,5e1e5c3c80e02e1c36679187,old
1629.2000000029802,directmemory_phase,shreveport.png,51.0,1.0,gatlinburg.png,carmel.png,boulder.png,boulder.png,carmel.png,gatlinburg.png,Fictional,5e1e5c3c80e02e1c36679187,old
2519.79999999702,directmemory_phase,racine.png,51.0,1.0,boulder.png,hotsprings.png,huntsville.png,huntsville.png,hotsprings.png,boulder.png,Fictional,5e1e5c3c80e02e1c36679187,old
2009.5,directmemory_phase,boulder.png,49.0,1.0,shreveport.png,racine.png,hotsprings.png,shreveport.png,hotsprings.png,racine.png,Fictional,5e1e5c3c80e02e1c36679187,old
1958.9000000059605,directmemory_phase,leesburg.png,49.0,1.0,hotsprings.png,peoria.png,huntsville.png,hotsprings.png,huntsville.png,peoria.png,Fictional,5e1e5c3c80e02e1c36679187,old
1941.199999988079,directmemory_phase,racine.png,51.0,1.0,cornwall.png,hotsprings.png,hanover.png,hanover.png,hotsprings.png,cornwall.png,Fictional,5e1e5c3c80e02e1c36679187,old
1852.0999999940395,directmemory_phase,carmel.png,50.0,1.0,cornwall.png,hotsprings.png,racine.png,hotsprings.png,cornwall.png,racine.png,Fictional,5e1e5c3c80e02e1c36679187,old
2090.0,directmemory_phase,peoria.png,49.0,1.0,newhope.png,leesburg.png,shreveport.png,newhope.png,shreveport.png,leesburg.png,Fictional,5e1e5c3c80e02e1c36679187,old
5388.399999991059,directmemory_phase,hanover.png,51.0,1.0,boulder.png,carmel.png,gatlinburg.png,gatlinburg.png,carmel.png,boulder.png,Fictional,5e1e5c3c80e02e1c36679187,old
2107.0999999940395,directmemory_phase,hotsprings.png,51.0,1.0,cornwall.png,westpalmbeach.png,leesburg.png,leesburg.png,westpalmbeach.png,cornwall.png,Fictional,5e1e5c3c80e02e1c36679187,old
1878.199999988079,directmemory_phase,carmel.png,51.0,1.0,racine.png,shreveport.png,boulder.png,boulder.png,shreveport.png,racine.png,Fictional,5e1e5c3c80e02e1c36679187,old
1574.7999999970198,directmemory_phase,gatlinburg.png,51.0,1.0,newhope.png,racine.png,hanover.png,hanover.png,racine.png,newhope.png,Fictional,5e1e5c3c80e02e1c36679187,old
1406.2999999970198,directmemory_phase,boulder.png,51.0,0.0,carmel.png,leesburg.png,gatlinburg.png,carmel.png,gatlinburg.png,leesburg.png,Fictional,5e1e5c3c80e02e1c36679187,old
1779.0,directmemory_phase,cornwall.png,51.0,1.0,westpalmbeach.png,hanover.png,peoria.png,peoria.png,hanover.png,westpalmbeach.png,Fictional,5e1e5c3c80e02e1c36679187,old
1303.8999999910593,directmemory_phase,huntsville.png,49.0,1.0,racine.png,gatlinburg.png,hanover.png,racine.png,hanover.png,gatlinburg.png,Fictional,5e1e5c3c80e02e1c36679187,old
2287.29999999702,directmemory_phase,peoria.png,51.0,1.0,hanover.png,shreveport.png,cornwall.png,cornwall.png,shreveport.png,hanover.png,Fictional,5e1e5c3c80e02e1c36679187,old
1320.5999999940395,directmemory_phase,hanover.png,51.0,1.0,shreveport.png,westpalmbeach.png,hotsprings.png,hotsprings.png,westpalmbeach.png,shreveport.png,Fictional,5e1e5c3c80e02e1c36679187,old
2079.70000000298,directmemory_phase,cornwall.png,50.0,1.0,boulder.png,gatlinburg.png,racine.png,gatlinburg.png,boulder.png,racine.png,Fictional,5e1e5c3c80e02e1c36679187,old
2204.300000011921,directmemory_phase,hotsprings.png,49.0,1.0,carmel.png,newhope.png,racine.png,carmel.png,racine.png,newhope.png,Fictional,5e1e5c3c80e02e1c36679187,old
2186.0,directmemory_phase,leesburg.png,49.0,1.0,racine.png,cornwall.png,carmel.png,racine.png,carmel.png,cornwall.png,Fictional,5e1e5c3c80e02e1c36679187,old
2383.29999999702,directmemory_phase,gatlinburg.png,49.0,1.0,carmel.png,westpalmbeach.png,hotsprings.png,carmel.png,hotsprings.png,westpalmbeach.png,Fictional,5e1e5c3c80e02e1c36679187,old
1399.7999999970198,directmemory_phase,newhope.png,49.0,1.0,peoria.png,shreveport.png,cornwall.png,peoria.png,cornwall.png,shreveport.png,Fictional,5e1e5c3c80e02e1c36679187,old
,directmemory_phase,newhope.png,,0.0,huntsville.png,hanover.png,carmel.png,hanover.png,huntsville.png,carmel.png,Fictional,5a8b61fcf1408d000176b02f,old
3662.6,directmemory_phase,huntsville.png,50.0,1.0,gatlinburg.png,boulder.png,westpalmbeach.png,boulder.png,gatlinburg.png,westpalmbeach.png,Fictional,5a8b61fcf1408d000176b02f,old
3286.3,directmemory_phase,racine.png,51.0,1.0,newhope.png,boulder.png,peoria.png,peoria.png,boulder.png,newhope.png,Fictional,5a8b61fcf1408d000176b02f,old
3533.2,directmemory_phase,shreveport.png,49.0,1.0,newhope.png,hotsprings.png,boulder.png,newhope.png,boulder.png,hotsprings.png,Fictional,5a8b61fcf1408d000176b02f,old
3944.2,directmemory_phase,boulder.png,51.0,1.0,hotsprings.png,racine.png,cornwall.png,cornwall.png,racine.png,hotsprings.png,Fictional,5a8b61fcf1408d000176b02f,old
4370.8,directmemory_phase,westpalmbeach.png,50.0,1.0,carmel.png,peoria.png,boulder.png,peoria.png,carmel.png,boulder.png,Fictional,5a8b61fcf1408d000176b02f,old
4616.8,directmemory_phase,cornwall.png,49.0,1.0,hanover.png,racine.png,carmel.png,hanover.png,carmel.png,racine.png,Fictional,5a8b61fcf1408d000176b02f,old
4248.1,directmemory_phase,peoria.png,50.0,0.0,newhope.png,gatlinburg.png,racine.png,racine.png,gatlinburg.png,newhope.png,Fictional,5a8b61fcf1408d000176b02f,old
3879.9,directmemory_phase,huntsville.png,50.0,1.0,cornwall.png,leesburg.png,shreveport.png,leesburg.png,cornwall.png,shreveport.png,Fictional,5a8b61fcf1408d000176b02f,old
4065.2,directmemory_phase,cornwall.png,49.0,0.0,gatlinburg.png,carmel.png,newhope.png,newhope.png,carmel.png,gatlinburg.png,Fictional,5a8b61fcf1408d000176b02f,old
3448.0,directmemory_phase,racine.png,51.0,1.0,cornwall.png,boulder.png,huntsville.png,huntsville.png,boulder.png,cornwall.png,Fictional,5a8b61fcf1408d000176b02f,old
4241.4,directmemory_phase,leesburg.png,50.0,0.0,carmel.png,gatlinburg.png,racine.png,carmel.png,racine.png,gatlinburg.png,Fictional,5a8b61fcf1408d000176b02f,old
3743.7,directmemory_phase,hanover.png,49.0,1.0,cornwall.png,peoria.png,boulder.png,cornwall.png,boulder.png,peoria.png,Fictional,5a8b61fcf1408d000176b02f,old
3006.8,directmemory_phase,huntsville.png,49.0,1.0,racine.png,shreveport.png,cornwall.png,racine.png,cornwall.png,shreveport.png,Fictional,5a8b61fcf1408d000176b02f,old
3516.8,directmemory_phase,carmel.png,49.0,0.0,hanover.png,westpalmbeach.png,leesburg.png,leesburg.png,westpalmbeach.png,hanover.png,Fictional,5a8b61fcf1408d000176b02f,old
3267.7,directmemory_phase,racine.png,50.0,1.0,westpalmbeach.png,gatlinburg.png,newhope.png,gatlinburg.png,westpalmbeach.png,newhope.png,Fictional,5a8b61fcf1408d000176b02f,old
3544.3,directmemory_phase,leesburg.png,51.0,0.0,cornwall.png,shreveport.png,newhope.png,cornwall.png,newhope.png,shreveport.png,Fictional,5a8b61fcf1408d000176b02f,old
4945.3,directmemory_phase,gatlinburg.png,51.0,1.0,newhope.png,peoria.png,racine.png,racine.png,peoria.png,newhope.png,Fictional,5a8b61fcf1408d000176b02f,old
3871.5,directmemory_phase,cornwall.png,49.0,1.0,leesburg.png,racine.png,shreveport.png,leesburg.png,shreveport.png,racine.png,Fictional,5a8b61fcf1408d000176b02f,old
4600.8,directmemory_phase,boulder.png,50.0,0.0,newhope.png,gatlinburg.png,hanover.png,newhope.png,hanover.png,gatlinburg.png,Fictional,5a8b61fcf1408d000176b02f,old
4175.2,directmemory_phase,leesburg.png,50.0,0.0,huntsville.png,shreveport.png,racine.png,huntsville.png,racine.png,shreveport.png,Fictional,5a8b61fcf1408d000176b02f,old
4035.3,directmemory_phase,hanover.png,49.0,0.0,leesburg.png,newhope.png,huntsville.png,newhope.png,leesburg.png,huntsville.png,Fictional,5a8b61fcf1408d000176b02f,old
4055.1,directmemory_phase,boulder.png,51.0,0.0,huntsville.png,carmel.png,leesburg.png,huntsville.png,leesburg.png,carmel.png,Fictional,5a8b61fcf1408d000176b02f,old
3602.6,directmemory_phase,peoria.png,49.0,1.0,westpalmbeach.png,hanover.png,huntsville.png,westpalmbeach.png,huntsville.png,hanover.png,Fictional,5a8b61fcf1408d000176b02f,old
5294.8,directmemory_phase,newhope.png,49.0,0.0,peoria.png,huntsville.png,shreveport.png,shreveport.png,huntsville.png,peoria.png,Fictional,5a8b61fcf1408d000176b02f,old
4481.9,directmemory_phase,hanover.png,50.0,0.0,hotsprings.png,carmel.png,shreveport.png,hotsprings.png,shreveport.png,carmel.png,Fictional,5a8b61fcf1408d000176b02f,old
5196.0,directmemory_phase,newhope.png,51.0,1.0,racine.png,hotsprings.png,cornwall.png,cornwall.png,hotsprings.png,racine.png,Fictional,5a8b61fcf1408d000176b02f,old
5652.4,directmemory_phase,carmel.png,50.0,0.0,peoria.png,hotsprings.png,westpalmbeach.png,peoria.png,westpalmbeach.png,hotsprings.png,Fictional,5a8b61fcf1408d000176b02f,old
3521.6,directmemory_phase,newhope.png,49.0,0.0,leesburg.png,boulder.png,carmel.png,boulder.png,leesburg.png,carmel.png,Fictional,5a8b61fcf1408d000176b02f,old
2716.6,directmemory_phase,hotsprings.png,51.0,1.0,boulder.png,cornwall.png,hanover.png,hanover.png,cornwall.png,boulder.png,Fictional,5a8b61fcf1408d000176b02f,old
2661.2,directmemory_phase,cornwall.png,49.0,1.0,boulder.png,peoria.png,carmel.png,boulder.png,carmel.png,peoria.png,Fictional,5a8b61fcf1408d000176b02f,old
2498.1,directmemory_phase,peoria.png,51.0,1.0,newhope.png,leesburg.png,carmel.png,carmel.png,leesburg.png,newhope.png,Fictional,5a8b61fcf1408d000176b02f,old
,directmemory_phase,gatlinburg.png,,0.0,hanover.png,leesburg.png,racine.png,hanover.png,racine.png,leesburg.png,Fictional,5e7d2f16e863ba0d96dc610f,young
3013.7999999523163,directmemory_phase,boulder.png,49.0,1.0,leesburg.png,racine.png,huntsville.png,leesburg.png,huntsville.png,racine.png,Fictional,5e7d2f16e863ba0d96dc610f,young
3119.899999976158,directmemory_phase,shreveport.png,51.0,1.0,leesburg.png,newhope.png,gatlinburg.png,gatlinburg.png,newhope.png,leesburg.png,Fictional,5e7d2f16e863ba0d96dc610f,young
3141.3000000715256,directmemory_phase,hanover.png,51.0,0.0,racine.png,peoria.png,hotsprings.png,racine.png,hotsprings.png,peoria.png,Fictional,5e7d2f16e863ba0d96dc610f,young
4561.900000095367,directmemory_phase,gatlinburg.png,49.0,1.0,shreveport.png,cornwall.png,racine.png,shreveport.png,racine.png,cornwall.png,Fictional,5e7d2f16e863ba0d96dc610f,young
4566.800000071526,directmemory_phase,hanover.png,49.0,1.0,newhope.png,leesburg.png,huntsville.png,newhope.png,huntsville.png,leesburg.png,Fictional,5e7d2f16e863ba0d96dc610f,young
2243.8000000715256,directmemory_phase,boulder.png,51.0,1.0,westpalmbeach.png,huntsville.png,hotsprings.png,hotsprings.png,huntsville.png,westpalmbeach.png,Fictional,5e7d2f16e863ba0d96dc610f,young
3811.100000023842,directmemory_phase,shreveport.png,50.0,1.0,westpalmbeach.png,racine.png,peoria.png,racine.png,westpalmbeach.png,peoria.png,Fictional,5e7d2f16e863ba0d96dc610f,young
4480.700000047684,directmemory_phase,huntsville.png,51.0,1.0,newhope.png,peoria.png,cornwall.png,cornwall.png,peoria.png,newhope.png,Fictional,5e7d2f16e863ba0d96dc610f,young
3158.100000023842,directmemory_phase,gatlinburg.png,50.0,0.0,huntsville.png,racine.png,westpalmbeach.png,westpalmbeach.png,racine.png,huntsville.png,Fictional,5e7d2f16e863ba0d96dc610f,young
4085.1999999284744,directmemory_phase,huntsville.png,50.0,0.0,carmel.png,leesburg.png,racine.png,racine.png,leesburg.png,carmel.png,Fictional,5e7d2f16e863ba0d96dc610f,young
5657.800000071526,directmemory_phase,cornwall.png,51.0,0.0,hotsprings.png,leesburg.png,shreveport.png,leesburg.png,hotsprings.png,shreveport.png,Fictional,5e7d2f16e863ba0d96dc610f,young
4346.100000023842,directmemory_phase,huntsville.png,49.0,1.0,hotsprings.png,newhope.png,shreveport.png,hotsprings.png,shreveport.png,newhope.png,Fictional,5e7d2f16e863ba0d96dc610f,young
2159.899999976158,directmemory_phase,racine.png,50.0,0.0,carmel.png,gatlinburg.png,shreveport.png,shreveport.png,gatlinburg.png,carmel.png,Fictional,5e7d2f16e863ba0d96dc610f,young
,directmemory_phase,leesburg.png,,0.0,hanover.png,hotsprings.png,carmel.png,carmel.png,hotsprings.png,hanover.png,Fictional,5e7d2f16e863ba0d96dc610f,young
4257.600000023842,directmemory_phase,racine.png,51.0,1.0,boulder.png,cornwall.png,hanover.png,hanover.png,cornwall.png,boulder.png,Fictional,5e7d2f16e863ba0d96dc610f,young
4170.5,directmemory_phase,carmel.png,50.0,0.0,leesburg.png,shreveport.png,cornwall.png,leesburg.png,cornwall.png,shreveport.png,Fictional,5e7d2f16e863ba0d96dc610f,young
4152.200000047684,directmemory_phase,westpalmbeach.png,50.0,0.0,racine.png,hanover.png,gatlinburg.png,gatlinburg.png,hanover.png,racine.png,Fictional,5e7d2f16e863ba0d96dc610f,young
3194.600000023842,directmemory_phase,hotsprings.png,50.0,1.0,gatlinburg.png,huntsville.png,newhope.png,huntsville.png,gatlinburg.png,newhope.png,Fictional,5e7d2f16e863ba0d96dc610f,young
3907.3000000715256,directmemory_phase,newhope.png,50.0,1.0,shreveport.png,hanover.png,boulder.png,hanover.png,shreveport.png,boulder.png,Fictional,5e7d2f16e863ba0d96dc610f,young
4005.5,directmemory_phase,cornwall.png,50.0,0.0,shreveport.png,carmel.png,huntsville.png,huntsville.png,carmel.png,shreveport.png,Fictional,5e7d2f16e863ba0d96dc610f,young
5498.200000047684,directmemory_phase,shreveport.png,51.0,0.0,newhope.png,hanover.png,leesburg.png,hanover.png,newhope.png,leesburg.png,Fictional,5e7d2f16e863ba0d96dc610f,young
3749.600000023842,directmemory_phase,peoria.png,50.0,0.0,cornwall.png,racine.png,huntsville.png,cornwall.png,huntsville.png,racine.png,Fictional,5e7d2f16e863ba0d96dc610f,young
3989.600000023842,directmemory_phase,hanover.png,50.0,0.0,shreveport.png,leesburg.png,hotsprings.png,shreveport.png,hotsprings.png,leesburg.png,Fictional,5e7d2f16e863ba0d96dc610f,young
5648.5,directmemory_phase,leesburg.png,50.0,0.0,cornwall.png,shreveport.png,hotsprings.png,cornwall.png,hotsprings.png,shreveport.png,Fictional,5e7d2f16e863ba0d96dc610f,young
5715.800000071526,directmemory_phase,hotsprings.png,49.0,0.0,westpalmbeach.png,leesburg.png,shreveport.png,shreveport.png,leesburg.png,westpalmbeach.png,Fictional,5e7d2f16e863ba0d96dc610f,young
5675.300000071526,directmemory_phase,racine.png,50.0,0.0,boulder.png,newhope.png,huntsville.png,huntsville.png,newhope.png,boulder.png,Fictional,5e7d2f16e863ba0d96dc610f,young
6022.700000047684,directmemory_phase,hotsprings.png,49.0,0.0,cornwall.png,boulder.png,carmel.png,boulder.png,cornwall.png,carmel.png,Fictional,5e7d2f16e863ba0d96dc610f,young
4948.600000023842,directmemory_phase,cornwall.png,50.0,1.0,carmel.png,peoria.png,hanover.png,peoria.png,carmel.png,hanover.png,Fictional,5e7d2f16e863ba0d96dc610f,young
5409.899999976158,directmemory_phase,shreveport.png,50.0,0.0,carmel.png,newhope.png,hotsprings.png,hotsprings.png,newhope.png,carmel.png,Fictional,5e7d2f16e863ba0d96dc610f,young
5565.0,directmemory_phase,hanover.png,51.0,0.0,gatlinburg.png,boulder.png,westpalmbeach.png,gatlinburg.png,westpalmbeach.png,boulder.png,Fictional,5e7d2f16e863ba0d96dc610f,young
5232.899999976158,directmemory_phase,leesburg.png,49.0,0.0,racine.png,peoria.png,boulder.png,boulder.png,peoria.png,racine.png,Fictional,5e7d2f16e863ba0d96dc610f,young
2311.0,directmemory_phase,huntsville.png,51.0,1.0,cornwall.png,peoria.png,gatlinburg.png,gatlinburg.png,peoria.png,cornwall.png,Fictional,65845f67f9ed8c08c8e58949,old
1748.7999999523165,directmemory_phase,racine.png,51.0,1.0,newhope.png,carmel.png,shreveport.png,shreveport.png,carmel.png,newhope.png,Fictional,65845f67f9ed8c08c8e58949,old
2137.100000023842,directmemory_phase,newhope.png,51.0,1.0,cornwall.png,hotsprings.png,westpalmbeach.png,westpalmbeach.png,hotsprings.png,cornwall.png,Fictional,65845f67f9ed8c08c8e58949,old
1984.6999999284744,directmemory_phase,boulder.png,50.0,1.0,cornwall.png,racine.png,leesburg.png,racine.png,cornwall.png,leesburg.png,Fictional,65845f67f9ed8c08c8e58949,old
1642.5,directmemory_phase,cornwall.png,51.0,1.0,gatlinburg.png,shreveport.png,peoria.png,peoria.png,shreveport.png,gatlinburg.png,Fictional,65845f67f9ed8c08c8e58949,old
1875.2999999523165,directmemory_phase,leesburg.png,49.0,1.0,westpalmbeach.png,racine.png,hotsprings.png,westpalmbeach.png,hotsprings.png,racine.png,Fictional,65845f67f9ed8c08c8e58949,old
2162.599999904633,directmemory_phase,peoria.png,50.0,1.0,boulder.png,cornwall.png,hotsprings.png,cornwall.png,boulder.png,hotsprings.png,Fictional,65845f67f9ed8c08c8e58949,old
1290.399999976158,directmemory_phase,racine.png,50.0,1.0,peoria.png,boulder.png,newhope.png,boulder.png,peoria.png,newhope.png,Fictional,65845f67f9ed8c08c8e58949,old
5195.399999976158,directmemory_phase,leesburg.png,51.0,1.0,boulder.png,carmel.png,peoria.png,peoria.png,carmel.png,boulder.png,Fictional,65845f67f9ed8c08c8e58949,old
1772.7000000476835,directmemory_phase,boulder.png,49.0,1.0,hanover.png,hotsprings.png,shreveport.png,hanover.png,shreveport.png,hotsprings.png,Fictional,65845f67f9ed8c08c8e58949,old
2831.2999999523163,directmemory_phase,newhope.png,51.0,1.0,racine.png,huntsville.png,carmel.png,carmel.png,huntsville.png,racine.png,Fictional,65845f67f9ed8c08c8e58949,old
3839.099999904633,directmemory_phase,racine.png,50.0,1.0,hanover.png,cornwall.png,leesburg.png,cornwall.png,hanover.png,leesburg.png,Fictional,65845f67f9ed8c08c8e58949,old
2089.7999999523163,directmemory_phase,westpalmbeach.png,51.0,1.0,racine.png,peoria.png,newhope.png,newhope.png,peoria.png,racine.png,Fictional,65845f67f9ed8c08c8e58949,old
4144.100000023842,directmemory_phase,cornwall.png,49.0,1.0,racine.png,hanover.png,carmel.png,racine.png,carmel.png,hanover.png,Fictional,65845f67f9ed8c08c8e58949,old
1759.8000000715256,directmemory_phase,leesburg.png,49.0,1.0,newhope.png,hanover.png,cornwall.png,newhope.png,cornwall.png,hanover.png,Fictional,65845f67f9ed8c08c8e58949,old
3115.5,directmemory_phase,peoria.png,51.0,1.0,hotsprings.png,newhope.png,carmel.png,carmel.png,newhope.png,hotsprings.png,Fictional,65845f67f9ed8c08c8e58949,old
1933.7999999523165,directmemory_phase,westpalmbeach.png,50.0,1.0,carmel.png,leesburg.png,boulder.png,leesburg.png,carmel.png,boulder.png,Fictional,65845f67f9ed8c08c8e58949,old
3315.100000023842,directmemory_phase,carmel.png,51.0,1.0,huntsville.png,racine.png,newhope.png,newhope.png,racine.png,huntsville.png,Fictional,65845f67f9ed8c08c8e58949,old
2142.6999999284744,directmemory_phase,peoria.png,50.0,1.0,racine.png,leesburg.png,shreveport.png,leesburg.png,racine.png,shreveport.png,Fictional,65845f67f9ed8c08c8e58949,old
2894.600000023842,directmemory_phase,gatlinburg.png,50.0,1.0,westpalmbeach.png,huntsville.png,hotsprings.png,huntsville.png,westpalmbeach.png,hotsprings.png,Fictional,65845f67f9ed8c08c8e58949,old
2673.7999999523163,directmemory_phase,newhope.png,51.0,1.0,gatlinburg.png,huntsville.png,leesburg.png,leesburg.png,huntsville.png,gatlinburg.png,Fictional,65845f67f9ed8c08c8e58949,old
4571.800000071526,directmemory_phase,westpalmbeach.png,51.0,1.0,racine.png,peoria.png,huntsville.png,huntsville.png,peoria.png,racine.png,Fictional,65845f67f9ed8c08c8e58949,old
,directmemory_phase,carmel.png,,0.0,peoria.png,huntsville.png,cornwall.png,peoria.png,cornwall.png,huntsville.png,Fictional,65845f67f9ed8c08c8e58949,old
1580.7999999523165,directmemory_phase,leesburg.png,50.0,1.0,cornwall.png,huntsville.png,hanover.png,huntsville.png,cornwall.png,hanover.png,Fictional,65845f67f9ed8c08c8e58949,old
1153.600000023842,directmemory_phase,hanover.png,49.0,1.0,boulder.png,shreveport.png,racine.png,boulder.png,racine.png,shreveport.png,Fictional,65845f67f9ed8c08c8e58949,old
1026.2000000476835,directmemory_phase,shreveport.png,51.0,1.0,newhope.png,boulder.png,racine.png,racine.png,boulder.png,newhope.png,Fictional,65845f67f9ed8c08c8e58949,old
2168.099999904633,directmemory_phase,huntsville.png,49.0,1.0,westpalmbeach.png,cornwall.png,hotsprings.png,westpalmbeach.png,hotsprings.png,cornwall.png,Fictional,65845f67f9ed8c08c8e58949,old
2020.7000000476835,directmemory_phase,carmel.png,51.0,0.0,racine.png,boulder.png,shreveport.png,boulder.png,racine.png,shreveport.png,Fictional,65845f67f9ed8c08c8e58949,old
1050.0,directmemory_phase,hotsprings.png,49.0,1.0,westpalmbeach.png,boulder.png,huntsville.png,westpalmbeach.png,huntsville.png,boulder.png,Fictional,65845f67f9ed8c08c8e58949,old
1417.7999999523165,directmemory_phase,huntsville.png,51.0,1.0,cornwall.png,hotsprings.png,leesburg.png,leesburg.png,hotsprings.png,cornwall.png,Fictional,65845f67f9ed8c08c8e58949,old
845.8000000715256,directmemory_phase,westpalmbeach.png,51.0,1.0,hanover.png,gatlinburg.png,hotsprings.png,hotsprings.png,gatlinburg.png,hanover.png,Fictional,65845f67f9ed8c08c8e58949,old
1634.2000000476835,directmemory_phase,boulder.png,49.0,1.0,carmel.png,hotsprings.png,cornwall.png,carmel.png,cornwall.png,hotsprings.png,Fictional,65845f67f9ed8c08c8e58949,old
,directmemory_phase,carmel.png,,0.0,shreveport.png,peoria.png,cornwall.png,shreveport.png,cornwall.png,peoria.png,Fictional,67927aab0e9ddc106abf2129,old
1316.89999999851,directmemory_phase,racine.png,50.0,0.0,hotsprings.png,carmel.png,gatlinburg.png,hotsprings.png,gatlinburg.png,carmel.png,Fictional,67927aab0e9ddc106abf2129,old
2253.900000002235,directmemory_phase,shreveport.png,49.0,0.0,boulder.png,huntsville.png,newhope.png,newhope.png,huntsville.png,boulder.png,Fictional,67927aab0e9ddc106abf2129,old
2161.0,directmemory_phase,hanover.png,51.0,0.0,hotsprings.png,cornwall.png,peoria.png,hotsprings.png,peoria.png,cornwall.png,Fictional,67927aab0e9ddc106abf2129,old
1276.60000000149,directmemory_phase,newhope.png,50.0,1.0,carmel.png,huntsville.png,westpalmbeach.png,huntsville.png,carmel.png,westpalmbeach.png,Fictional,67927aab0e9ddc106abf2129,old
1566.199999999255,directmemory_phase,hotsprings.png,50.0,0.0,racine.png,peoria.png,huntsville.png,racine.png,huntsville.png,peoria.png,Fictional,67927aab0e9ddc106abf2129,old
2005.0,directmemory_phase,peoria.png,51.0,1.0,hotsprings.png,leesburg.png,cornwall.png,cornwall.png,leesburg.png,hotsprings.png,Fictional,67927aab0e9ddc106abf2129,old
1550.89999999851,directmemory_phase,westpalmbeach.png,50.0,1.0,hanover.png,hotsprings.png,newhope.png,hotsprings.png,hanover.png,newhope.png,Fictional,67927aab0e9ddc106abf2129,old
2308.0,directmemory_phase,racine.png,49.0,0.0,gatlinburg.png,huntsville.png,cornwall.png,huntsville.png,gatlinburg.png,cornwall.png,Fictional,67927aab0e9ddc106abf2129,old
2058.900000002235,directmemory_phase,hotsprings.png,49.0,1.0,hanover.png,cornwall.png,gatlinburg.png,hanover.png,gatlinburg.png,cornwall.png,Fictional,67927aab0e9ddc106abf2129,old
2381.89999999851,directmemory_phase,huntsville.png,51.0,1.0,gatlinburg.png,boulder.png,newhope.png,newhope.png,boulder.png,gatlinburg.png,Fictional,67927aab0e9ddc106abf2129,old
3306.699999999255,directmemory_phase,boulder.png,49.0,1.0,peoria.png,newhope.png,hotsprings.png,peoria.png,hotsprings.png,newhope.png,Fictional,67927aab0e9ddc106abf2129,old
2130.099999997765,directmemory_phase,cornwall.png,49.0,0.0,racine.png,newhope.png,shreveport.png,shreveport.png,newhope.png,racine.png,Fictional,67927aab0e9ddc106abf2129,old
2778.900000002235,directmemory_phase,hanover.png,51.0,0.0,peoria.png,boulder.png,leesburg.png,boulder.png,peoria.png,leesburg.png,Fictional,67927aab0e9ddc106abf2129,old
1661.5,directmemory_phase,hotsprings.png,49.0,1.0,westpalmbeach.png,shreveport.png,huntsville.png,westpalmbeach.png,huntsville.png,shreveport.png,Fictional,67927aab0e9ddc106abf2129,old
2741.89999999851,directmemory_phase,peoria.png,50.0,0.0,westpalmbeach.png,leesburg.png,boulder.png,boulder.png,leesburg.png,westpalmbeach.png,Fictional,67927aab0e9ddc106abf2129,old
2298.5,directmemory_phase,cornwall.png,49.0,0.0,hanover.png,huntsville.png,leesburg.png,leesburg.png,huntsville.png,hanover.png,Fictional,67927aab0e9ddc106abf2129,old
1579.89999999851,directmemory_phase,boulder.png,51.0,1.0,westpalmbeach.png,gatlinburg.png,racine.png,racine.png,gatlinburg.png,westpalmbeach.png,Fictional,67927aab0e9ddc106abf2129,old
2412.0,directmemory_phase,gatlinburg.png,49.0,1.0,hanover.png,newhope.png,boulder.png,hanover.png,boulder.png,newhope.png,Fictional,67927aab0e9ddc106abf2129,old
2091.79999999702,directmemory_phase,racine.png,50.0,0.0,boulder.png,shreveport.png,gatlinburg.png,boulder.png,gatlinburg.png,shreveport.png,Fictional,67927aab0e9ddc106abf2129,old
2776.699999999255,directmemory_phase,newhope.png,49.0,0.0,hotsprings.png,racine.png,shreveport.png,shreveport.png,racine.png,hotsprings.png,Fictional,67927aab0e9ddc106abf2129,old
2668.89999999851,directmemory_phase,hanover.png,49.0,1.0,racine.png,cornwall.png,westpalmbeach.png,racine.png,westpalmbeach.png,cornwall.png,Fictional,67927aab0e9ddc106abf2129,old
1942.39999999851,directmemory_phase,shreveport.png,51.0,1.0,racine.png,huntsville.png,carmel.png,carmel.png,huntsville.png,racine.png,Fictional,67927aab0e9ddc106abf2129,old
2374.0,directmemory_phase,racine.png,49.0,1.0,hanover.png,leesburg.png,westpalmbeach.png,hanover.png,westpalmbeach.png,leesburg.png,Fictional,67927aab0e9ddc106abf2129,old
2937.0,directmemory_phase,leesburg.png,49.0,0.0,hanover.png,shreveport.png,cornwall.png,cornwall.png,shreveport.png,hanover.png,Fictional,67927aab0e9ddc106abf2129,old
2496.70000000298,directmemory_phase,boulder.png,50.0,0.0,westpalmbeach.png,cornwall.png,hanover.png,hanover.png,cornwall.png,westpalmbeach.png,Fictional,67927aab0e9ddc106abf2129,old
2588.20000000298,directmemory_phase,huntsville.png,51.0,0.0,peoria.png,gatlinburg.png,shreveport.png,peoria.png,shreveport.png,gatlinburg.png,Fictional,67927aab0e9ddc106abf2129,old
1370.800000000745,directmemory_phase,hanover.png,50.0,1.0,peoria.png,gatlinburg.png,newhope.png,gatlinburg.png,peoria.png,newhope.png,Fictional,67927aab0e9ddc106abf2129,old
1796.199999999255,directmemory_phase,cornwall.png,51.0,0.0,peoria.png,hotsprings.png,huntsville.png,peoria.png,huntsville.png,hotsprings.png,Fictional,67927aab0e9ddc106abf2129,old
2451.900000002235,directmemory_phase,huntsville.png,51.0,1.0,leesburg.png,boulder.png,racine.png,racine.png,boulder.png,leesburg.png,Fictional,67927aab0e9ddc106abf2129,old
3851.699999999255,directmemory_phase,shreveport.png,50.0,0.0,cornwall.png,hotsprings.png,peoria.png,cornwall.png,peoria.png,hotsprings.png,Fictional,67927aab0e9ddc106abf2129,old
2388.0,directmemory_phase,peoria.png,50.0,0.0,westpalmbeach.png,hanover.png,huntsville.png,huntsville.png,hanover.png,westpalmbeach.png,Fictional,67927aab0e9ddc106abf2129,old
3069.400000095367,directmemory_phase,huntsville.png,51.0,1.0,cornwall.png,gatlinburg.png,westpalmbeach.png,westpalmbeach.png,gatlinburg.png,cornwall.png,Fictional,5e3adfc595ff562fbdd130fa,young
2147.5,directmemory_phase,racine.png,51.0,1.0,westpalmbeach.png,leesburg.png,hotsprings.png,hotsprings.png,leesburg.png,westpalmbeach.png,Fictional,5e3adfc595ff562fbdd130fa,young
2712.7000000476837,directmemory_phase,westpalmbeach.png,51.0,1.0,hotsprings.png,peoria.png,huntsville.png,huntsville.png,peoria.png,hotsprings.png,Fictional,5e3adfc595ff562fbdd130fa,young
1837.4000000953672,directmemory_phase,hotsprings.png,51.0,1.0,leesburg.png,peoria.png,gatlinburg.png,gatlinburg.png,peoria.png,leesburg.png,Fictional,5e3adfc595ff562fbdd130fa,young
2620.600000143051,directmemory_phase,racine.png,51.0,1.0,westpalmbeach.png,leesburg.png,cornwall.png,cornwall.png,leesburg.png,westpalmbeach.png,Fictional,5e3adfc595ff562fbdd130fa,young
2156.7000000476837,directmemory_phase,gatlinburg.png,51.0,1.0,newhope.png,westpalmbeach.png,hanover.png,hanover.png,westpalmbeach.png,newhope.png,Fictional,5e3adfc595ff562fbdd130fa,young
1883.1999998092651,directmemory_phase,hotsprings.png,49.0,1.0,racine.png,shreveport.png,peoria.png,racine.png,peoria.png,shreveport.png,Fictional,5e3adfc595ff562fbdd130fa,young
1532.7999999523165,directmemory_phase,peoria.png,49.0,1.0,shreveport.png,racine.png,hanover.png,shreveport.png,hanover.png,racine.png,Fictional,5e3adfc595ff562fbdd130fa,young
1591.6000001430511,directmemory_phase,racine.png,51.0,1.0,peoria.png,hanover.png,newhope.png,newhope.png,hanover.png,peoria.png,Fictional,5e3adfc595ff562fbdd130fa,young
1855.5999999046328,directmemory_phase,hanover.png,49.0,1.0,gatlinburg.png,leesburg.png,peoria.png,gatlinburg.png,peoria.png,leesburg.png,Fictional,5e3adfc595ff562fbdd130fa,young
1220.6000001430511,directmemory_phase,cornwall.png,50.0,1.0,newhope.png,racine.png,peoria.png,racine.png,newhope.png,peoria.png,Fictional,5e3adfc595ff562fbdd130fa,young
2915.7999999523163,directmemory_phase,peoria.png,50.0,1.0,hotsprings.png,huntsville.png,cornwall.png,huntsville.png,hotsprings.png,cornwall.png,Fictional,5e3adfc595ff562fbdd130fa,young
1886.0,directmemory_phase,carmel.png,51.0,1.0,shreveport.png,leesburg.png,racine.png,racine.png,leesburg.png,shreveport.png,Fictional,5e3adfc595ff562fbdd130fa,young
3266.5,directmemory_phase,huntsville.png,49.0,1.0,boulder.png,racine.png,hanover.png,boulder.png,hanover.png,racine.png,Fictional,5e3adfc595ff562fbdd130fa,young
4074.299999952316,directmemory_phase,cornwall.png,50.0,1.0,hanover.png,carmel.png,westpalmbeach.png,carmel.png,hanover.png,westpalmbeach.png,Fictional,5e3adfc595ff562fbdd130fa,young
1663.2000000476835,directmemory_phase,newhope.png,51.0,1.0,westpalmbeach.png,hotsprings.png,racine.png,racine.png,hotsprings.png,westpalmbeach.png,Fictional,5e3adfc595ff562fbdd130fa,young
1240.0,directmemory_phase,boulder.png,51.0,1.0,gatlinburg.png,peoria.png,huntsville.png,huntsville.png,peoria.png,gatlinburg.png,Fictional,5e3adfc595ff562fbdd130fa,young
4676.5,directmemory_phase,hanover.png,49.0,1.0,westpalmbeach.png,leesburg.png,racine.png,westpalmbeach.png,racine.png,leesburg.png,Fictional,5e3adfc595ff562fbdd130fa,young
1898.0999999046328,directmemory_phase,carmel.png,51.0,1.0,peoria.png,newhope.png,cornwall.png,cornwall.png,newhope.png,peoria.png,Fictional,5e3adfc595ff562fbdd130fa,young
1872.9000000953672,directmemory_phase,peoria.png,51.0,1.0,carmel.png,hanover.png,gatlinburg.png,gatlinburg.png,hanover.png,carmel.png,Fictional,5e3adfc595ff562fbdd130fa,young
1530.0999999046326,directmemory_phase,racine.png,49.0,1.0,carmel.png,peoria.png,leesburg.png,carmel.png,leesburg.png,peoria.png,Fictional,5e3adfc595ff562fbdd130fa,young
1697.0999999046326,directmemory_phase,gatlinburg.png,51.0,1.0,leesburg.png,racine.png,hotsprings.png,hotsprings.png,racine.png,leesburg.png,Fictional,5e3adfc595ff562fbdd130fa,young
1553.0,directmemory_phase,huntsville.png,50.0,1.0,hanover.png,peoria.png,racine.png,peoria.png,hanover.png,racine.png,Fictional,5e3adfc595ff562fbdd130fa,young
5311.200000047684,directmemory_phase,carmel.png,50.0,1.0,westpalmbeach.png,hanover.png,boulder.png,hanover.png,westpalmbeach.png,boulder.png,Fictional,5e3adfc595ff562fbdd130fa,young
1480.5,directmemory_phase,shreveport.png,49.0,1.0,peoria.png,hotsprings.png,huntsville.png,peoria.png,huntsville.png,hotsprings.png,Fictional,5e3adfc595ff562fbdd130fa,young
3361.899999856949,directmemory_phase,carmel.png,50.0,1.0,gatlinburg.png,hotsprings.png,shreveport.png,hotsprings.png,gatlinburg.png,shreveport.png,Fictional,5e3adfc595ff562fbdd130fa,young
5328.899999856949,directmemory_phase,westpalmbeach.png,50.0,0.0,newhope.png,carmel.png,hanover.png,hanover.png,carmel.png,newhope.png,Fictional,5e3adfc595ff562fbdd130fa,young
2346.399999856949,directmemory_phase,hotsprings.png,49.0,1.0,carmel.png,westpalmbeach.png,cornwall.png,carmel.png,cornwall.png,westpalmbeach.png,Fictional,5e3adfc595ff562fbdd130fa,young
960.5999999046326,directmemory_phase,leesburg.png,49.0,1.0,cornwall.png,newhope.png,carmel.png,cornwall.png,carmel.png,newhope.png,Fictional,5e3adfc595ff562fbdd130fa,young
2199.0,directmemory_phase,hanover.png,51.0,1.0,leesburg.png,peoria.png,carmel.png,carmel.png,peoria.png,leesburg.png,Fictional,5e3adfc595ff562fbdd130fa,young
1281.1000001430511,directmemory_phase,cornwall.png,50.0,1.0,hanover.png,leesburg.png,gatlinburg.png,leesburg.png,hanover.png,gatlinburg.png,Fictional,5e3adfc595ff562fbdd130fa,young
1833.8999998569489,directmemory_phase,gatlinburg.png,50.0,1.0,shreveport.png,peoria.png,boulder.png,peoria.png,shreveport.png,boulder.png,Fictional,5e3adfc595ff562fbdd130fa,young
,directmemory_phase,shreveport.png,,0.0,newhope.png,hotsprings.png,peoria.png,newhope.png,peoria.png,hotsprings.png,Fictional,650c3f3a36d72f87324d708f,young
6217.400000095367,directmemory_phase,westpalmbeach.png,49.0,1.0,cornwall.png,peoria.png,hanover.png,cornwall.png,hanover.png,peoria.png,Fictional,650c3f3a36d72f87324d708f,young
3355.899999856949,directmemory_phase,huntsville.png,51.0,1.0,racine.png,shreveport.png,boulder.png,boulder.png,shreveport.png,racine.png,Fictional,650c3f3a36d72f87324d708f,young
2003.8999998569489,directmemory_phase,westpalmbeach.png,50.0,0.0,newhope.png,boulder.png,huntsville.png,newhope.png,huntsville.png,boulder.png,Fictional,650c3f3a36d72f87324d708f,young
1599.8999998569489,directmemory_phase,leesburg.png,49.0,1.0,huntsville.png,shreveport.png,boulder.png,huntsville.png,boulder.png,shreveport.png,Fictional,650c3f3a36d72f87324d708f,young
2737.0,directmemory_phase,gatlinburg.png,49.0,1.0,shreveport.png,cornwall.png,newhope.png,shreveport.png,newhope.png,cornwall.png,Fictional,650c3f3a36d72f87324d708f,young
1926.7999999523165,directmemory_phase,hotsprings.png,49.0,0.0,peoria.png,huntsville.png,leesburg.png,leesburg.png,huntsville.png,peoria.png,Fictional,650c3f3a36d72f87324d708f,young
2097.7000000476837,directmemory_phase,newhope.png,51.0,1.0,racine.png,gatlinburg.png,huntsville.png,huntsville.png,gatlinburg.png,racine.png,Fictional,650c3f3a36d72f87324d708f,young
1531.2999999523165,directmemory_phase,peoria.png,50.0,1.0,racine.png,carmel.png,leesburg.png,carmel.png,racine.png,leesburg.png,Fictional,650c3f3a36d72f87324d708f,young
1496.7999999523165,directmemory_phase,huntsville.png,49.0,1.0,leesburg.png,hanover.png,hotsprings.png,leesburg.png,hotsprings.png,hanover.png,Fictional,650c3f3a36d72f87324d708f,young
1640.2000000476835,directmemory_phase,hanover.png,51.0,1.0,newhope.png,leesburg.png,hotsprings.png,hotsprings.png,leesburg.png,newhope.png,Fictional,650c3f3a36d72f87324d708f,young
2641.2999999523163,directmemory_phase,newhope.png,50.0,1.0,hotsprings.png,westpalmbeach.png,hanover.png,westpalmbeach.png,hotsprings.png,hanover.png,Fictional,650c3f3a36d72f87324d708f,young
2644.699999809265,directmemory_phase,peoria.png,51.0,0.0,gatlinburg.png,leesburg.png,racine.png,gatlinburg.png,racine.png,leesburg.png,Fictional,650c3f3a36d72f87324d708f,young
2365.5,directmemory_phase,huntsville.png,49.0,1.0,newhope.png,hanover.png,westpalmbeach.png,newhope.png,westpalmbeach.png,hanover.png,Fictional,650c3f3a36d72f87324d708f,young
2439.900000095367,directmemory_phase,boulder.png,50.0,0.0,peoria.png,hanover.png,racine.png,peoria.png,racine.png,hanover.png,Fictional,650c3f3a36d72f87324d708f,young
1162.7000000476835,directmemory_phase,racine.png,51.0,1.0,huntsville.png,peoria.png,gatlinburg.png,gatlinburg.png,peoria.png,huntsville.png,Fictional,650c3f3a36d72f87324d708f,young
989.2999999523164,directmemory_phase,carmel.png,49.0,1.0,peoria.png,shreveport.png,gatlinburg.png,peoria.png,gatlinburg.png,shreveport.png,Fictional,650c3f3a36d72f87324d708f,young
1663.8000001907349,directmemory_phase,gatlinburg.png,51.0,0.0,racine.png,westpalmbeach.png,newhope.png,racine.png,newhope.png,westpalmbeach.png,Fictional,650c3f3a36d72f87324d708f,young
1581.9000000953674,directmemory_phase,peoria.png,49.0,1.0,boulder.png,leesburg.png,shreveport.png,boulder.png,shreveport.png,leesburg.png,Fictional,650c3f3a36d72f87324d708f,young
1125.2000000476835,directmemory_phase,newhope.png,51.0,1.0,carmel.png,hotsprings.png,shreveport.png,shreveport.png,hotsprings.png,carmel.png,Fictional,650c3f3a36d72f87324d708f,young
3028.2999999523163,directmemory_phase,boulder.png,50.0,0.0,gatlinburg.png,hotsprings.png,carmel.png,gatlinburg.png,carmel.png,hotsprings.png,Fictional,650c3f3a36d72f87324d708f,young
2314.5,directmemory_phase,hotsprings.png,51.0,1.0,peoria.png,cornwall.png,westpalmbeach.png,westpalmbeach.png,cornwall.png,peoria.png,Fictional,650c3f3a36d72f87324d708f,young
2644.899999856949,directmemory_phase,gatlinburg.png,51.0,1.0,westpalmbeach.png,newhope.png,peoria.png,peoria.png,newhope.png,westpalmbeach.png,Fictional,650c3f3a36d72f87324d708f,young
2625.0,directmemory_phase,boulder.png,50.0,0.0,huntsville.png,hotsprings.png,newhope.png,huntsville.png,newhope.png,hotsprings.png,Fictional,650c3f3a36d72f87324d708f,young
2098.100000143051,directmemory_phase,shreveport.png,49.0,1.0,gatlinburg.png,carmel.png,westpalmbeach.png,gatlinburg.png,westpalmbeach.png,carmel.png,Fictional,650c3f3a36d72f87324d708f,young
1202.5999999046326,directmemory_phase,cornwall.png,51.0,1.0,hanover.png,hotsprings.png,westpalmbeach.png,westpalmbeach.png,hotsprings.png,hanover.png,Fictional,650c3f3a36d72f87324d708f,young
2247.100000143051,directmemory_phase,gatlinburg.png,51.0,1.0,westpalmbeach.png,newhope.png,boulder.png,boulder.png,newhope.png,westpalmbeach.png,Fictional,650c3f3a36d72f87324d708f,young
2930.7999999523163,directmemory_phase,westpalmbeach.png,51.0,1.0,racine.png,shreveport.png,hotsprings.png,hotsprings.png,shreveport.png,racine.png,Fictional,650c3f3a36d72f87324d708f,young
1605.6999998092651,directmemory_phase,shreveport.png,50.0,0.0,carmel.png,westpalmbeach.png,boulder.png,boulder.png,westpalmbeach.png,carmel.png,Fictional,650c3f3a36d72f87324d708f,young
3983.300000190735,directmemory_phase,leesburg.png,49.0,1.0,hotsprings.png,shreveport.png,hanover.png,hotsprings.png,hanover.png,shreveport.png,Fictional,650c3f3a36d72f87324d708f,young
2069.900000095367,directmemory_phase,boulder.png,51.0,1.0,hanover.png,racine.png,shreveport.png,shreveport.png,racine.png,hanover.png,Fictional,650c3f3a36d72f87324d708f,young
3105.0,directmemory_phase,hotsprings.png,49.0,1.0,hanover.png,boulder.png,huntsville.png,hanover.png,huntsville.png,boulder.png,Fictional,650c3f3a36d72f87324d708f,young
5644.5,directmemory_phase,hotsprings.png,50.0,1.0,huntsville.png,newhope.png,carmel.png,newhope.png,huntsville.png,carmel.png,Fictional,67608d020ab313f56180df41,old
3143.8000000715256,directmemory_phase,westpalmbeach.png,49.0,1.0,gatlinburg.png,boulder.png,carmel.png,gatlinburg.png,carmel.png,boulder.png,Fictional,67608d020ab313f56180df41,old
5300.600000023842,directmemory_phase,racine.png,50.0,1.0,newhope.png,carmel.png,shreveport.png,carmel.png,newhope.png,shreveport.png,Fictional,67608d020ab313f56180df41,old
2694.599999904633,directmemory_phase,westpalmbeach.png,51.0,1.0,leesburg.png,shreveport.png,hanover.png,hanover.png,shreveport.png,leesburg.png,Fictional,67608d020ab313f56180df41,old
3510.7999999523163,directmemory_phase,huntsville.png,49.0,1.0,leesburg.png,westpalmbeach.png,cornwall.png,leesburg.png,cornwall.png,westpalmbeach.png,Fictional,67608d020ab313f56180df41,old
3643.399999976158,directmemory_phase,shreveport.png,51.0,1.0,newhope.png,westpalmbeach.png,gatlinburg.png,gatlinburg.png,westpalmbeach.png,newhope.png,Fictional,67608d020ab313f56180df41,old
3275.7000000476837,directmemory_phase,boulder.png,51.0,1.0,carmel.png,leesburg.png,huntsville.png,huntsville.png,leesburg.png,carmel.png,Fictional,67608d020ab313f56180df41,old
4789.100000023842,directmemory_phase,carmel.png,51.0,1.0,peoria.png,westpalmbeach.png,gatlinburg.png,gatlinburg.png,westpalmbeach.png,peoria.png,Fictional,67608d020ab313f56180df41,old
5030.299999952316,directmemory_phase,boulder.png,51.0,1.0,gatlinburg.png,leesburg.png,newhope.png,newhope.png,leesburg.png,gatlinburg.png,Fictional,67608d020ab313f56180df41,old
2696.8000000715256,directmemory_phase,hanover.png,50.0,1.0,gatlinburg.png,westpalmbeach.png,newhope.png,westpalmbeach.png,gatlinburg.png,newhope.png,Fictional,67608d020ab313f56180df41,old
3423.0,directmemory_phase,huntsville.png,51.0,1.0,peoria.png,cornwall.png,newhope.png,newhope.png,cornwall.png,peoria.png,Fictional,67608d020ab313f56180df41,old
,directmemory_phase,cornwall.png,,0.0,huntsville.png,boulder.png,racine.png,boulder.png,huntsville.png,racine.png,Fictional,67608d020ab313f56180df41,old
2909.899999976158,directmemory_phase,gatlinburg.png,51.0,1.0,huntsville.png,peoria.png,shreveport.png,shreveport.png,peoria.png,huntsville.png,Fictional,67608d020ab313f56180df41,old
3800.600000023842,directmemory_phase,newhope.png,49.0,1.0,boulder.png,gatlinburg.png,racine.png,boulder.png,racine.png,gatlinburg.png,Fictional,67608d020ab313f56180df41,old
,directmemory_phase,huntsville.png,,0.0,shreveport.png,hanover.png,racine.png,racine.png,hanover.png,shreveport.png,Fictional,67608d020ab313f56180df41,old
2697.2000000476837,directmemory_phase,gatlinburg.png,51.0,1.0,huntsville.png,racine.png,westpalmbeach.png,westpalmbeach.png,racine.png,huntsville.png,Fictional,67608d020ab313f56180df41,old
2284.399999976158,directmemory_phase,racine.png,51.0,1.0,cornwall.png,leesburg.png,hanover.png,hanover.png,leesburg.png,cornwall.png,Fictional,67608d020ab313f56180df41,old
2357.3000000715256,directmemory_phase,leesburg.png,51.0,1.0,cornwall.png,racine.png,huntsville.png,huntsville.png,racine.png,cornwall.png,Fictional,67608d020ab313f56180df41,old
4479.5,directmemory_phase,newhope.png,49.0,1.0,hotsprings.png,westpalmbeach.png,carmel.png,hotsprings.png,carmel.png,westpalmbeach.png,Fictional,67608d020ab313f56180df41,old
5102.800000071526,directmemory_phase,racine.png,50.0,0.0,shreveport.png,westpalmbeach.png,huntsville.png,huntsville.png,westpalmbeach.png,shreveport.png,Fictional,67608d020ab313f56180df41,old
4948.200000047684,directmemory_phase,peoria.png,49.0,0.0,racine.png,hanover.png,westpalmbeach.png,westpalmbeach.png,hanover.png,racine.png,Fictional,67608d020ab313f56180df41,old
3877.6999999284744,directmemory_phase,newhope.png,51.0,1.0,westpalmbeach.png,racine.png,huntsville.png,huntsville.png,racine.png,westpalmbeach.png,Fictional,67608d020ab313f56180df41,old
5521.200000047684,directmemory_phase,carmel.png,49.0,0.0,cornwall.png,shreveport.png,leesburg.png,leesburg.png,shreveport.png,cornwall.png,Fictional,67608d020ab313f56180df41,old
3847.0,directmemory_phase,huntsville.png,49.0,1.0,boulder.png,shreveport.png,cornwall.png,boulder.png,cornwall.png,shreveport.png,Fictional,67608d020ab313f56180df41,old
5917.800000071526,directmemory_phase,leesburg.png,51.0,1.0,shreveport.png,racine.png,carmel.png,carmel.png,racine.png,shreveport.png,Fictional,67608d020ab313f56180df41,old
2703.7000000476837,directmemory_phase,westpalmbeach.png,49.0,1.0,peoria.png,leesburg.png,racine.png,peoria.png,racine.png,leesburg.png,Fictional,67608d020ab313f56180df41,old
3688.600000023842,directmemory_phase,carmel.png,51.0,1.0,boulder.png,newhope.png,racine.png,racine.png,newhope.png,boulder.png,Fictional,67608d020ab313f56180df41,old
6358.0,directmemory_phase,boulder.png,51.0,1.0,hanover.png,hotsprings.png,cornwall.png,cornwall.png,hotsprings.png,hanover.png,Fictional,67608d020ab313f56180df41,old
2730.900000095367,directmemory_phase,gatlinburg.png,50.0,1.0,racine.png,carmel.png,huntsville.png,carmel.png,racine.png,huntsville.png,Fictional,67608d020ab313f56180df41,old
2525.8000000715256,directmemory_phase,leesburg.png,51.0,1.0,shreveport.png,racine.png,newhope.png,newhope.png,racine.png,shreveport.png,Fictional,67608d020ab313f56180df41,old
,directmemory_phase,hanover.png,,0.0,boulder.png,gatlinburg.png,racine.png,racine.png,gatlinburg.png,boulder.png,Fictional,67608d020ab313f56180df41,old
2177.100000023842,directmemory_phase,newhope.png,51.0,1.0,gatlinburg.png,cornwall.png,leesburg.png,leesburg.png,cornwall.png,gatlinburg.png,Fictional,67608d020ab313f56180df41,old
3930.399999976158,directmemory_phase,westpalmbeach.png,50.0,1.0,cornwall.png,shreveport.png,gatlinburg.png,shreveport.png,cornwall.png,gatlinburg.png,Fictional,61074792728f0f9e791ad083,young
2464.399999976158,directmemory_phase,hotsprings.png,51.0,1.0,shreveport.png,peoria.png,hanover.png,hanover.png,peoria.png,shreveport.png,Fictional,61074792728f0f9e791ad083,young
1442.6999999284744,directmemory_phase,racine.png,50.0,1.0,boulder.png,peoria.png,shreveport.png,peoria.png,boulder.png,shreveport.png,Fictional,61074792728f0f9e791ad083,young
3614.599999904633,directmemory_phase,boulder.png,50.0,0.0,westpalmbeach.png,newhope.png,carmel.png,westpalmbeach.png,carmel.png,newhope.png,Fictional,61074792728f0f9e791ad083,young
1289.600000023842,directmemory_phase,racine.png,49.0,1.0,hanover.png,newhope.png,boulder.png,hanover.png,boulder.png,newhope.png,Fictional,61074792728f0f9e791ad083,young
3383.0,directmemory_phase,boulder.png,49.0,1.0,peoria.png,hotsprings.png,racine.png,peoria.png,racine.png,hotsprings.png,Fictional,61074792728f0f9e791ad083,young
1567.7000000476835,directmemory_phase,hanover.png,51.0,1.0,cornwall.png,boulder.png,racine.png,racine.png,boulder.png,cornwall.png,Fictional,61074792728f0f9e791ad083,young
1147.0,directmemory_phase,shreveport.png,51.0,1.0,racine.png,huntsville.png,cornwall.png,cornwall.png,huntsville.png,racine.png,Fictional,61074792728f0f9e791ad083,young
961.2000000476836,directmemory_phase,hanover.png,50.0,1.0,boulder.png,hotsprings.png,westpalmbeach.png,hotsprings.png,boulder.png,westpalmbeach.png,Fictional,61074792728f0f9e791ad083,young
1216.2000000476835,directmemory_phase,cornwall.png,49.0,1.0,shreveport.png,hanover.png,newhope.png,shreveport.png,newhope.png,hanover.png,Fictional,61074792728f0f9e791ad083,young
1425.7000000476835,directmemory_phase,westpalmbeach.png,51.0,1.0,hotsprings.png,newhope.png,carmel.png,carmel.png,newhope.png,hotsprings.png,Fictional,61074792728f0f9e791ad083,young
1045.2000000476835,directmemory_phase,newhope.png,51.0,1.0,carmel.png,cornwall.png,shreveport.png,shreveport.png,cornwall.png,carmel.png,Fictional,61074792728f0f9e791ad083,young
2678.0,directmemory_phase,cornwall.png,51.0,1.0,peoria.png,boulder.png,huntsville.png,huntsville.png,boulder.png,peoria.png,Fictional,61074792728f0f9e791ad083,young
3527.899999976158,directmemory_phase,shreveport.png,51.0,1.0,racine.png,boulder.png,westpalmbeach.png,westpalmbeach.png,boulder.png,racine.png,Fictional,61074792728f0f9e791ad083,young
1074.0,directmemory_phase,racine.png,49.0,1.0,hotsprings.png,shreveport.png,cornwall.png,hotsprings.png,cornwall.png,shreveport.png,Fictional,61074792728f0f9e791ad083,young
1612.7000000476835,directmemory_phase,peoria.png,49.0,0.0,hotsprings.png,hanover.png,newhope.png,hanover.png,hotsprings.png,newhope.png,Fictional,61074792728f0f9e791ad083,young
2427.8000000715256,directmemory_phase,huntsville.png,49.0,1.0,racine.png,newhope.png,hotsprings.png,racine.png,hotsprings.png,newhope.png,Fictional,61074792728f0f9e791ad083,young
2243.100000023842,directmemory_phase,hotsprings.png,51.0,1.0,boulder.png,gatlinburg.png,leesburg.png,leesburg.png,gatlinburg.png,boulder.png,Fictional,61074792728f0f9e791ad083,young
2067.100000023842,directmemory_phase,huntsville.png,51.0,1.0,carmel.png,peoria.png,cornwall.png,cornwall.png,peoria.png,carmel.png,Fictional,61074792728f0f9e791ad083,young
1019.0,directmemory_phase,hanover.png,49.0,1.0,gatlinburg.png,westpalmbeach.png,boulder.png,gatlinburg.png,boulder.png,westpalmbeach.png,Fictional,61074792728f0f9e791ad083,young
3613.100000023842,directmemory_phase,westpalmbeach.png,51.0,0.0,boulder.png,hanover.png,newhope.png,boulder.png,newhope.png,hanover.png,Fictional,61074792728f0f9e791ad083,young
2513.8000000715256,directmemory_phase,racine.png,49.0,1.0,huntsville.png,westpalmbeach.png,cornwall.png,huntsville.png,cornwall.png,westpalmbeach.png,Fictional,61074792728f0f9e791ad083,young
2591.600000023842,directmemory_phase,hanover.png,50.0,1.0,boulder.png,peoria.png,carmel.png,peoria.png,boulder.png,carmel.png,Fictional,61074792728f0f9e791ad083,young
2608.7999999523163,directmemory_phase,huntsville.png,49.0,1.0,boulder.png,gatlinburg.png,westpalmbeach.png,boulder.png,westpalmbeach.png,gatlinburg.png,Fictional,61074792728f0f9e791ad083,young
2099.899999976158,directmemory_phase,hotsprings.png,51.0,1.0,cornwall.png,huntsville.png,racine.png,racine.png,huntsville.png,cornwall.png,Fictional,61074792728f0f9e791ad083,young
1606.5,directmemory_phase,boulder.png,49.0,1.0,huntsville.png,hotsprings.png,carmel.png,huntsville.png,carmel.png,hotsprings.png,Fictional,61074792728f0f9e791ad083,young
1048.100000023842,directmemory_phase,peoria.png,50.0,1.0,westpalmbeach.png,racine.png,shreveport.png,racine.png,westpalmbeach.png,shreveport.png,Fictional,61074792728f0f9e791ad083,young
903.6999999284744,directmemory_phase,gatlinburg.png,51.0,1.0,leesburg.png,racine.png,hanover.png,hanover.png,racine.png,leesburg.png,Fictional,61074792728f0f9e791ad083,young
920.899999976158,directmemory_phase,shreveport.png,51.0,1.0,peoria.png,huntsville.png,newhope.png,newhope.png,huntsville.png,peoria.png,Fictional,61074792728f0f9e791ad083,young
1850.5,directmemory_phase,peoria.png,51.0,1.0,leesburg.png,westpalmbeach.png,boulder.png,boulder.png,westpalmbeach.png,leesburg.png,Fictional,61074792728f0f9e791ad083,young
1023.7999999523164,directmemory_phase,leesburg.png,49.0,1.0,hotsprings.png,peoria.png,racine.png,hotsprings.png,racine.png,peoria.png,Fictional,61074792728f0f9e791ad083,young
880.0,directmemory_phase,carmel.png,51.0,1.0,peoria.png,boulder.png,westpalmbeach.png,westpalmbeach.png,boulder.png,peoria.png,Fictional,61074792728f0f9e791ad083,young
1542.399999976158,directmemory_phase,racine.png,50.0,0.0,westpalmbeach.png,peoria.png,carmel.png,carmel.png,peoria.png,westpalmbeach.png,Fictional,66ac145b55e2055063cd4079,old
1885.4000000357628,directmemory_phase,westpalmbeach.png,49.0,0.0,gatlinburg.png,boulder.png,racine.png,boulder.png,gatlinburg.png,racine.png,Fictional,66ac145b55e2055063cd4079,old
2236.600000023842,directmemory_phase,hotsprings.png,50.0,0.0,racine.png,leesburg.png,hanover.png,racine.png,hanover.png,leesburg.png,Fictional,66ac145b55e2055063cd4079,old
1265.199999988079,directmemory_phase,carmel.png,51.0,1.0,leesburg.png,gatlinburg.png,cornwall.png,cornwall.png,gatlinburg.png,leesburg.png,Fictional,66ac145b55e2055063cd4079,old
1645.800000011921,directmemory_phase,newhope.png,50.0,1.0,leesburg.png,westpalmbeach.png,gatlinburg.png,westpalmbeach.png,leesburg.png,gatlinburg.png,Fictional,66ac145b55e2055063cd4079,old
1977.100000023842,directmemory_phase,peoria.png,50.0,1.0,leesburg.png,boulder.png,hanover.png,boulder.png,leesburg.png,hanover.png,Fictional,66ac145b55e2055063cd4079,old
2131.699999988079,directmemory_phase,westpalmbeach.png,49.0,0.0,huntsville.png,shreveport.png,leesburg.png,leesburg.png,shreveport.png,huntsville.png,Fictional,66ac145b55e2055063cd4079,old
1476.300000011921,directmemory_phase,carmel.png,51.0,1.0,westpalmbeach.png,hotsprings.png,huntsville.png,huntsville.png,hotsprings.png,westpalmbeach.png,Fictional,66ac145b55e2055063cd4079,old
1418.800000011921,directmemory_phase,westpalmbeach.png,50.0,0.0,newhope.png,carmel.png,peoria.png,newhope.png,peoria.png,carmel.png,Fictional,66ac145b55e2055063cd4079,old
1024.300000011921,directmemory_phase,hanover.png,49.0,0.0,carmel.png,huntsville.png,gatlinburg.png,huntsville.png,carmel.png,gatlinburg.png,Fictional,66ac145b55e2055063cd4079,old
1799.5,directmemory_phase,cornwall.png,50.0,0.0,leesburg.png,huntsville.png,carmel.png,carmel.png,huntsville.png,leesburg.png,Fictional,66ac145b55e2055063cd4079,old
1487.199999988079,directmemory_phase,hotsprings.png,51.0,0.0,hanover.png,huntsville.png,westpalmbeach.png,huntsville.png,hanover.png,westpalmbeach.png,Fictional,66ac145b55e2055063cd4079,old
1591.5,directmemory_phase,gatlinburg.png,49.0,0.0,cornwall.png,hotsprings.png,leesburg.png,leesburg.png,hotsprings.png,cornwall.png,Fictional,66ac145b55e2055063cd4079,old
1757.4000000357628,directmemory_phase,huntsville.png,51.0,0.0,hotsprings.png,leesburg.png,cornwall.png,hotsprings.png,cornwall.png,leesburg.png,Fictional,66ac145b55e2055063cd4079,old
1456.2999999523165,directmemory_phase,peoria.png,50.0,0.0,newhope.png,westpalmbeach.png,gatlinburg.png,gatlinburg.png,westpalmbeach.png,newhope.png,Fictional,66ac145b55e2055063cd4079,old
1109.399999976158,directmemory_phase,huntsville.png,51.0,1.0,leesburg.png,peoria.png,racine.png,racine.png,peoria.png,leesburg.png,Fictional,66ac145b55e2055063cd4079,old
1184.4000000357628,directmemory_phase,peoria.png,49.0,1.0,hotsprings.png,carmel.png,leesburg.png,hotsprings.png,leesburg.png,carmel.png,Fictional,66ac145b55e2055063cd4079,old
807.6000000238419,directmemory_phase,boulder.png,50.0,0.0,racine.png,newhope.png,westpalmbeach.png,westpalmbeach.png,newhope.png,racine.png,Fictional,66ac145b55e2055063cd4079,old
1497.399999976158,directmemory_phase,racine.png,51.0,0.0,hanover.png,huntsville.png,boulder.png,huntsville.png,hanover.png,boulder.png,Fictional,66ac145b55e2055063cd4079,old
1056.100000023842,directmemory_phase,boulder.png,50.0,0.0,huntsville.png,leesburg.png,shreveport.png,shreveport.png,leesburg.png,huntsville.png,Fictional,66ac145b55e2055063cd4079,old
1171.2999999523165,directmemory_phase,leesburg.png,51.0,0.0,peoria.png,gatlinburg.png,shreveport.png,gatlinburg.png,peoria.png,shreveport.png,Fictional,66ac145b55e2055063cd4079,old
1020.5,directmemory_phase,huntsville.png,50.0,0.0,boulder.png,gatlinburg.png,carmel.png,carmel.png,gatlinburg.png,boulder.png,Fictional,66ac145b55e2055063cd4079,old
995.5,directmemory_phase,leesburg.png,49.0,0.0,shreveport.png,boulder.png,westpalmbeach.png,westpalmbeach.png,boulder.png,shreveport.png,Fictional,66ac145b55e2055063cd4079,old
1274.800000011921,directmemory_phase,carmel.png,50.0,0.0,peoria.png,hotsprings.png,racine.png,racine.png,hotsprings.png,peoria.png,Fictional,66ac145b55e2055063cd4079,old
871.0,directmemory_phase,shreveport.png,51.0,0.0,peoria.png,boulder.png,leesburg.png,boulder.png,peoria.png,leesburg.png,Fictional,66ac145b55e2055063cd4079,old
1154.399999976158,directmemory_phase,racine.png,51.0,1.0,westpalmbeach.png,peoria.png,hotsprings.png,hotsprings.png,peoria.png,westpalmbeach.png,Fictional,66ac145b55e2055063cd4079,old
1250.2999999523165,directmemory_phase,gatlinburg.png,50.0,0.0,hanover.png,boulder.png,peoria.png,peoria.png,boulder.png,hanover.png,Fictional,66ac145b55e2055063cd4079,old
1567.800000011921,directmemory_phase,huntsville.png,51.0,0.0,hanover.png,westpalmbeach.png,gatlinburg.png,hanover.png,gatlinburg.png,westpalmbeach.png,Fictional,66ac145b55e2055063cd4079,old
1641.800000011921,directmemory_phase,hotsprings.png,51.0,0.0,peoria.png,shreveport.png,carmel.png,peoria.png,carmel.png,shreveport.png,Fictional,66ac145b55e2055063cd4079,old
786.7999999523163,directmemory_phase,racine.png,50.0,0.0,gatlinburg.png,westpalmbeach.png,leesburg.png,gatlinburg.png,leesburg.png,westpalmbeach.png,Fictional,66ac145b55e2055063cd4079,old
831.5999999642372,directmemory_phase,boulder.png,49.0,1.0,peoria.png,hanover.png,hotsprings.png,peoria.png,hotsprings.png,hanover.png,Fictional,66ac145b55e2055063cd4079,old
883.0,directmemory_phase,gatlinburg.png,50.0,0.0,newhope.png,hotsprings.png,racine.png,racine.png,hotsprings.png,newhope.png,Fictional,66ac145b55e2055063cd4079,old
,directmemory_phase,shreveport.png,,0.0,westpalmbeach.png,hanover.png,carmel.png,hanover.png,westpalmbeach.png,carmel.png,Fictional,67151b09180ba43415c564e8,young
2488.2000000476837,directmemory_phase,leesburg.png,51.0,1.0,westpalmbeach.png,carmel.png,gatlinburg.png,gatlinburg.png,carmel.png,westpalmbeach.png,Fictional,67151b09180ba43415c564e8,young
3033.7999999523163,directmemory_phase,boulder.png,50.0,0.0,gatlinburg.png,hanover.png,shreveport.png,shreveport.png,hanover.png,gatlinburg.png,Fictional,67151b09180ba43415c564e8,young
2725.2999999523163,directmemory_phase,hotsprings.png,51.0,1.0,leesburg.png,peoria.png,newhope.png,newhope.png,peoria.png,leesburg.png,Fictional,67151b09180ba43415c564e8,young
2657.0,directmemory_phase,shreveport.png,49.0,0.0,racine.png,hotsprings.png,boulder.png,boulder.png,hotsprings.png,racine.png,Fictional,67151b09180ba43415c564e8,young
1575.0,directmemory_phase,peoria.png,50.0,0.0,boulder.png,carmel.png,huntsville.png,huntsville.png,carmel.png,boulder.png,Fictional,67151b09180ba43415c564e8,young
3188.599999904633,directmemory_phase,newhope.png,49.0,1.0,hotsprings.png,peoria.png,hanover.png,hotsprings.png,hanover.png,peoria.png,Fictional,67151b09180ba43415c564e8,young
1517.5999999046326,directmemory_phase,huntsville.png,50.0,1.0,racine.png,peoria.png,boulder.png,peoria.png,racine.png,boulder.png,Fictional,67151b09180ba43415c564e8,young
1523.3000001907349,directmemory_phase,shreveport.png,51.0,1.0,racine.png,hotsprings.png,newhope.png,newhope.png,hotsprings.png,racine.png,Fictional,67151b09180ba43415c564e8,young
2340.2000000476837,directmemory_phase,hotsprings.png,51.0,0.0,racine.png,huntsville.png,westpalmbeach.png,racine.png,westpalmbeach.png,huntsville.png,Fictional,67151b09180ba43415c564e8,young
1838.2000000476835,directmemory_phase,carmel.png,51.0,1.0,huntsville.png,newhope.png,gatlinburg.png,gatlinburg.png,newhope.png,huntsville.png,Fictional,67151b09180ba43415c564e8,young
2143.2000000476837,directmemory_phase,westpalmbeach.png,49.0,0.0,shreveport.png,newhope.png,leesburg.png,newhope.png,shreveport.png,leesburg.png,Fictional,67151b09180ba43415c564e8,young
1475.2999999523165,directmemory_phase,racine.png,51.0,1.0,leesburg.png,newhope.png,hotsprings.png,hotsprings.png,newhope.png,leesburg.png,Fictional,67151b09180ba43415c564e8,young
2712.599999904633,directmemory_phase,newhope.png,49.0,1.0,shreveport.png,gatlinburg.png,hanover.png,shreveport.png,hanover.png,gatlinburg.png,Fictional,67151b09180ba43415c564e8,young
2417.900000095367,directmemory_phase,racine.png,51.0,0.0,peoria.png,shreveport.png,newhope.png,peoria.png,newhope.png,shreveport.png,Fictional,67151b09180ba43415c564e8,young
1985.5,directmemory_phase,hotsprings.png,51.0,1.0,gatlinburg.png,westpalmbeach.png,boulder.png,boulder.png,westpalmbeach.png,gatlinburg.png,Fictional,67151b09180ba43415c564e8,young
2032.5,directmemory_phase,racine.png,50.0,0.0,westpalmbeach.png,cornwall.png,carmel.png,westpalmbeach.png,carmel.png,cornwall.png,Fictional,67151b09180ba43415c564e8,young
1536.0,directmemory_phase,gatlinburg.png,51.0,1.0,shreveport.png,huntsville.png,carmel.png,carmel.png,huntsville.png,shreveport.png,Fictional,67151b09180ba43415c564e8,young
1265.5,directmemory_phase,westpalmbeach.png,51.0,0.0,hotsprings.png,racine.png,huntsville.png,racine.png,hotsprings.png,huntsville.png,Fictional,67151b09180ba43415c564e8,young
2188.400000095367,directmemory_phase,gatlinburg.png,49.0,0.0,racine.png,peoria.png,hotsprings.png,peoria.png,racine.png,hotsprings.png,Fictional,67151b09180ba43415c564e8,young
2228.0,directmemory_phase,carmel.png,51.0,0.0,westpalmbeach.png,cornwall.png,peoria.png,westpalmbeach.png,peoria.png,cornwall.png,Fictional,67151b09180ba43415c564e8,young
1413.9000000953674,directmemory_phase,newhope.png,51.0,0.0,carmel.png,boulder.png,leesburg.png,boulder.png,carmel.png,leesburg.png,Fictional,67151b09180ba43415c564e8,young
1547.0999999046326,directmemory_phase,gatlinburg.png,51.0,0.0,leesburg.png,boulder.png,huntsville.png,leesburg.png,huntsville.png,boulder.png,Fictional,67151b09180ba43415c564e8,young
2117.400000095367,directmemory_phase,newhope.png,51.0,0.0,cornwall.png,westpalmbeach.png,peoria.png,westpalmbeach.png,cornwall.png,peoria.png,Fictional,67151b09180ba43415c564e8,young
1655.6000001430511,directmemory_phase,boulder.png,50.0,0.0,cornwall.png,peoria.png,racine.png,cornwall.png,racine.png,peoria.png,Fictional,67151b09180ba43415c564e8,young
2658.0,directmemory_phase,hanover.png,49.0,0.0,newhope.png,shreveport.png,westpalmbeach.png,shreveport.png,newhope.png,westpalmbeach.png,Fictional,67151b09180ba43415c564e8,young
2321.099999904633,directmemory_phase,boulder.png,50.0,0.0,huntsville.png,racine.png,newhope.png,newhope.png,racine.png,huntsville.png,Fictional,67151b09180ba43415c564e8,young
2651.900000095367,directmemory_phase,westpalmbeach.png,49.0,0.0,leesburg.png,gatlinburg.png,carmel.png,carmel.png,gatlinburg.png,leesburg.png,Fictional,67151b09180ba43415c564e8,young
1156.8999998569489,directmemory_phase,boulder.png,51.0,1.0,carmel.png,hanover.png,hotsprings.png,hotsprings.png,hanover.png,carmel.png,Fictional,67151b09180ba43415c564e8,young
2085.900000095367,directmemory_phase,peoria.png,50.0,0.0,racine.png,cornwall.png,hotsprings.png,racine.png,hotsprings.png,cornwall.png,Fictional,67151b09180ba43415c564e8,young
1754.1000001430511,directmemory_phase,cornwall.png,50.0,1.0,newhope.png,boulder.png,westpalmbeach.png,boulder.png,newhope.png,westpalmbeach.png,Fictional,67151b09180ba43415c564e8,young
1760.0,directmemory_phase,peoria.png,51.0,0.0,hotsprings.png,gatlinburg.png,newhope.png,gatlinburg.png,hotsprings.png,newhope.png,Fictional,67151b09180ba43415c564e8,young
,directmemory_phase,huntsville.png,,0.0,gatlinburg.png,leesburg.png,hanover.png,gatlinburg.png,hanover.png,leesburg.png,Fictional,6824ca9431d5202089ce433d,young
3703.0,directmemory_phase,westpalmbeach.png,49.0,0.0,racine.png,shreveport.png,cornwall.png,cornwall.png,shreveport.png,racine.png,Fictional,6824ca9431d5202089ce433d,young
4110.0,directmemory_phase,peoria.png,51.0,0.0,racine.png,hanover.png,hotsprings.png,hanover.png,racine.png,hotsprings.png,Fictional,6824ca9431d5202089ce433d,young
5417.0,directmemory_phase,cornwall.png,49.0,1.0,hotsprings.png,newhope.png,boulder.png,hotsprings.png,boulder.png,newhope.png,Fictional,6824ca9431d5202089ce433d,young
5517.0,directmemory_phase,racine.png,51.0,0.0,gatlinburg.png,cornwall.png,peoria.png,gatlinburg.png,peoria.png,cornwall.png,Fictional,6824ca9431d5202089ce433d,young
5006.0,directmemory_phase,hotsprings.png,49.0,0.0,westpalmbeach.png,cornwall.png,shreveport.png,cornwall.png,westpalmbeach.png,shreveport.png,Fictional,6824ca9431d5202089ce433d,young
5892.0,directmemory_phase,hanover.png,49.0,1.0,boulder.png,cornwall.png,huntsville.png,boulder.png,huntsville.png,cornwall.png,Fictional,6824ca9431d5202089ce433d,young
4197.0,directmemory_phase,leesburg.png,51.0,1.0,peoria.png,gatlinburg.png,racine.png,racine.png,gatlinburg.png,peoria.png,Fictional,6824ca9431d5202089ce433d,young
3292.0,directmemory_phase,westpalmbeach.png,51.0,0.0,shreveport.png,peoria.png,racine.png,peoria.png,shreveport.png,racine.png,Fictional,6824ca9431d5202089ce433d,young
2497.0,directmemory_phase,newhope.png,49.0,0.0,hotsprings.png,leesburg.png,racine.png,racine.png,leesburg.png,hotsprings.png,Fictional,6824ca9431d5202089ce433d,young
5168.0,directmemory_phase,carmel.png,51.0,0.0,cornwall.png,racine.png,peoria.png,cornwall.png,peoria.png,racine.png,Fictional,6824ca9431d5202089ce433d,young
4787.0,directmemory_phase,racine.png,49.0,0.0,boulder.png,peoria.png,leesburg.png,leesburg.png,peoria.png,boulder.png,Fictional,6824ca9431d5202089ce433d,young
5354.0,directmemory_phase,carmel.png,51.0,0.0,shreveport.png,newhope.png,peoria.png,shreveport.png,peoria.png,newhope.png,Fictional,6824ca9431d5202089ce433d,young
,directmemory_phase,gatlinburg.png,,0.0,racine.png,westpalmbeach.png,peoria.png,racine.png,peoria.png,westpalmbeach.png,Fictional,6824ca9431d5202089ce433d,young
2570.0,directmemory_phase,westpalmbeach.png,49.0,0.0,racine.png,hanover.png,carmel.png,carmel.png,hanover.png,racine.png,Fictional,6824ca9431d5202089ce433d,young
3510.0,directmemory_phase,hanover.png,50.0,0.0,gatlinburg.png,shreveport.png,carmel.png,gatlinburg.png,carmel.png,shreveport.png,Fictional,6824ca9431d5202089ce433d,young
4023.0,directmemory_phase,westpalmbeach.png,50.0,1.0,shreveport.png,boulder.png,huntsville.png,boulder.png,shreveport.png,huntsville.png,Fictional,6824ca9431d5202089ce433d,young
3153.0,directmemory_phase,gatlinburg.png,51.0,1.0,shreveport.png,leesburg.png,huntsville.png,huntsville.png,leesburg.png,shreveport.png,Fictional,6824ca9431d5202089ce433d,young
3378.0,directmemory_phase,carmel.png,50.0,1.0,peoria.png,boulder.png,newhope.png,boulder.png,peoria.png,newhope.png,Fictional,6824ca9431d5202089ce433d,young
557.0,directmemory_phase,cornwall.png,50.0,0.0,newhope.png,shreveport.png,westpalmbeach.png,westpalmbeach.png,shreveport.png,newhope.png,Fictional,6824ca9431d5202089ce433d,young
2272.0,directmemory_phase,shreveport.png,49.0,1.0,carmel.png,newhope.png,westpalmbeach.png,carmel.png,westpalmbeach.png,newhope.png,Fictional,6824ca9431d5202089ce433d,young
2126.0,directmemory_phase,hanover.png,51.0,0.0,peoria.png,cornwall.png,huntsville.png,peoria.png,huntsville.png,cornwall.png,Fictional,6824ca9431d5202089ce433d,young
3142.0,directmemory_phase,carmel.png,49.0,0.0,huntsville.png,hotsprings.png,westpalmbeach.png,westpalmbeach.png,hotsprings.png,huntsville.png,Fictional,6824ca9431d5202089ce433d,young
3550.0,directmemory_phase,gatlinburg.png,51.0,0.0,hanover.png,westpalmbeach.png,boulder.png,hanover.png,boulder.png,westpalmbeach.png,Fictional,6824ca9431d5202089ce433d,young
