rt,trial_type,stimulus,key_press,stimulus_left,stimulus_right,accuracy,stimulus_correct,condition,specific_pairs,city_type,partid,age
,shortestpath_phase,hanover.png,,newhope.png,boulder.png,0.0,newhope.png,Two Edge Diff,Two Edge Four Edge,Fictional,676c956bbeee4e4356eb085b,old
4233.600000023842,shortestpath_phase,gatlinburg.png,49.0,shreveport.png,huntsville.png,1.0,shreveport.png,One Edge Diff,Two Edge Three Edge,Fictional,676c956bbeee4e4356eb085b,old
7119.200000017881,shortestpath_phase,peoria.png,50.0,gatlinburg.png,cornwall.png,1.0,cornwall.png,Three Edge Diff,Three Edge Six Edge,Fictional,676c956bbeee4e4356eb085b,old
,shortestpath_phase,racine.png,,hotsprings.png,peoria.png,0.0,hotsprings.png,One Edge Diff,Three Edge Four Edge,Fictional,676c956bbeee4e4356eb085b,old
,shortestpath_phase,boulder.png,,hanover.png,huntsville.png,0.0,huntsville.png,One Edge Diff,Three Edge Four Edge,Fictional,676c956bbeee4e4356eb085b,old
2267.7999999821186,shortestpath_phase,westpalmbeach.png,50.0,hotsprings.png,gatlinburg.png,0.0,hotsprings.png,Four Edge Diff,Two Edge Six Edge,Fictional,676c956bbeee4e4356eb085b,old
1742.899999976158,shortestpath_phase,boulder.png,50.0,westpalmbeach.png,hanover.png,1.0,hanover.png,Two Edge Diff,Four Edge Six Edge,Fictional,676c956bbeee4e4356eb085b,old
1947.5999999940395,shortestpath_phase,leesburg.png,50.0,peoria.png,gatlinburg.png,1.0,gatlinburg.png,Three Edge Diff,Three Edge Six Edge,Fictional,676c956bbeee4e4356eb085b,old
554.9000000059605,shortestpath_phase,westpalmbeach.png,50.0,hanover.png,gatlinburg.png,0.0,hanover.png,Four Edge Diff,Two Edge Six Edge,Fictional,676c956bbeee4e4356eb085b,old
,shortestpath_phase,boulder.png,,hotsprings.png,racine.png,0.0,racine.png,Three Edge Diff,Two Edge Five Edge,Fictional,676c956bbeee4e4356eb085b,old
5659.800000011921,shortestpath_phase,cornwall.png,50.0,boulder.png,peoria.png,1.0,peoria.png,Three Edge Diff,Two Edge Five Edge,Fictional,676c956bbeee4e4356eb085b,old
3433.0,shortestpath_phase,gatlinburg.png,50.0,cornwall.png,leesburg.png,1.0,leesburg.png,Three Edge Diff,Three Edge Six Edge,Fictional,676c956bbeee4e4356eb085b,old
3088.800000011921,shortestpath_phase,peoria.png,49.0,racine.png,gatlinburg.png,1.0,racine.png,One Edge Diff,Four Edge Five Edge,Fictional,676c956bbeee4e4356eb085b,old
3282.0999999940395,shortestpath_phase,carmel.png,50.0,westpalmbeach.png,hotsprings.png,1.0,hotsprings.png,Two Edge Diff,Three Edge Five Edge,Fictional,676c956bbeee4e4356eb085b,old
3119.300000011921,shortestpath_phase,gatlinburg.png,50.0,cornwall.png,racine.png,1.0,racine.png,Three Edge Diff,Two Edge Five Edge,Fictional,676c956bbeee4e4356eb085b,old
3447.0999999940395,shortestpath_phase,cornwall.png,50.0,boulder.png,peoria.png,1.0,peoria.png,Three Edge Diff,Three Edge Six Edge,Fictional,676c956bbeee4e4356eb085b,old
3280.5,shortestpath_phase,westpalmbeach.png,49.0,boulder.png,racine.png,0.0,racine.png,Two Edge Diff,Four Edge Six Edge,Fictional,676c956bbeee4e4356eb085b,old
3574.0,shortestpath_phase,boulder.png,49.0,gatlinburg.png,hotsprings.png,1.0,gatlinburg.png,Two Edge Diff,Three Edge Five Edge,Fictional,676c956bbeee4e4356eb085b,old
3992.199999988079,shortestpath_phase,peoria.png,50.0,carmel.png,gatlinburg.png,0.0,carmel.png,One Edge Diff,Four Edge Five Edge,Fictional,676c956bbeee4e4356eb085b,old
3351.0999999940395,shortestpath_phase,gatlinburg.png,50.0,cornwall.png,westpalmbeach.png,0.0,cornwall.png,One Edge Diff,Five Edge Six Edge,Fictional,676c956bbeee4e4356eb085b,old
3469.4000000059605,shortestpath_phase,carmel.png,50.0,cornwall.png,hanover.png,1.0,hanover.png,One Edge Diff,Three Edge Four Edge,Fictional,676c956bbeee4e4356eb085b,old
3637.099999994039,shortestpath_phase,boulder.png,49.0,westpalmbeach.png,cornwall.png,0.0,cornwall.png,One Edge Diff,Five Edge Six Edge,Fictional,676c956bbeee4e4356eb085b,old
3708.900000005961,shortestpath_phase,hanover.png,49.0,newhope.png,peoria.png,1.0,newhope.png,One Edge Diff,Two Edge Three Edge,Fictional,676c956bbeee4e4356eb085b,old
3197.7000000178814,shortestpath_phase,westpalmbeach.png,49.0,gatlinburg.png,leesburg.png,0.0,leesburg.png,One Edge Diff,Five Edge Six Edge,Fictional,676c956bbeee4e4356eb085b,old
2988.0,shortestpath_phase,boulder.png,49.0,hanover.png,hotsprings.png,1.0,hanover.png,One Edge Diff,Four Edge Five Edge,Fictional,676c956bbeee4e4356eb085b,old
2890.699999988079,shortestpath_phase,gatlinburg.png,50.0,peoria.png,leesburg.png,1.0,leesburg.png,Three Edge Diff,Two Edge Five Edge,Fictional,676c956bbeee4e4356eb085b,old
3125.2000000178814,shortestpath_phase,westpalmbeach.png,50.0,hanover.png,leesburg.png,0.0,hanover.png,Three Edge Diff,Three Edge Six Edge,Fictional,676c956bbeee4e4356eb085b,old
3272.5999999940395,shortestpath_phase,carmel.png,50.0,westpalmbeach.png,newhope.png,1.0,newhope.png,Three Edge Diff,Two Edge Five Edge,Fictional,676c956bbeee4e4356eb085b,old
3856.2000000178814,shortestpath_phase,racine.png,50.0,hanover.png,peoria.png,0.0,hanover.png,Two Edge Diff,Two Edge Four Edge,Fictional,676c956bbeee4e4356eb085b,old
2733.4000000059605,shortestpath_phase,gatlinburg.png,49.0,leesburg.png,westpalmbeach.png,1.0,leesburg.png,Four Edge Diff,Two Edge Six Edge,Fictional,676c956bbeee4e4356eb085b,old
3511.2999999821186,shortestpath_phase,newhope.png,50.0,boulder.png,hanover.png,1.0,hanover.png,Two Edge Diff,Two Edge Four Edge,Fictional,676c956bbeee4e4356eb085b,old
3872.599999994039,shortestpath_phase,westpalmbeach.png,50.0,racine.png,leesburg.png,0.0,racine.png,One Edge Diff,Four Edge Five Edge,Fictional,676c956bbeee4e4356eb085b,old
2815.2999999821186,shortestpath_phase,hanover.png,49.0,shreveport.png,gatlinburg.png,1.0,shreveport.png,One Edge Diff,Three Edge Four Edge,Fictional,676c956bbeee4e4356eb085b,old
2955.5999999940395,shortestpath_phase,cornwall.png,50.0,boulder.png,huntsville.png,1.0,huntsville.png,Three Edge Diff,Two Edge Five Edge,Fictional,676c956bbeee4e4356eb085b,old
3261.4000000059605,shortestpath_phase,westpalmbeach.png,50.0,carmel.png,hotsprings.png,1.0,hotsprings.png,Three Edge Diff,Two Edge Five Edge,Fictional,676c956bbeee4e4356eb085b,old
3470.5,shortestpath_phase,cornwall.png,49.0,boulder.png,shreveport.png,0.0,shreveport.png,Two Edge Diff,Three Edge Five Edge,Fictional,676c956bbeee4e4356eb085b,old
2669.5,shortestpath_phase,leesburg.png,50.0,hotsprings.png,westpalmbeach.png,0.0,hotsprings.png,One Edge Diff,Four Edge Five Edge,Fictional,676c956bbeee4e4356eb085b,old
3522.5999999940395,shortestpath_phase,westpalmbeach.png,49.0,hanover.png,racine.png,1.0,hanover.png,Two Edge Diff,Two Edge Four Edge,Fictional,676c956bbeee4e4356eb085b,old
2967.899999976158,shortestpath_phase,cornwall.png,49.0,peoria.png,gatlinburg.png,1.0,peoria.png,Three Edge Diff,Three Edge Six Edge,Fictional,676c956bbeee4e4356eb085b,old
3076.7999999821186,shortestpath_phase,gatlinburg.png,49.0,westpalmbeach.png,racine.png,0.0,racine.png,Four Edge Diff,Two Edge Six Edge,Fictional,676c956bbeee4e4356eb085b,old
3235.0999999940395,shortestpath_phase,peoria.png,50.0,boulder.png,cornwall.png,1.0,cornwall.png,Four Edge Diff,Two Edge Six Edge,Fictional,676c956bbeee4e4356eb085b,old
3712.7000000178814,shortestpath_phase,westpalmbeach.png,49.0,newhope.png,shreveport.png,1.0,newhope.png,One Edge Diff,Three Edge Four Edge,Fictional,676c956bbeee4e4356eb085b,old
3010.2000000178814,shortestpath_phase,peoria.png,49.0,huntsville.png,gatlinburg.png,1.0,huntsville.png,Two Edge Diff,Three Edge Five Edge,Fictional,676c956bbeee4e4356eb085b,old
3058.300000011921,shortestpath_phase,westpalmbeach.png,50.0,hanover.png,carmel.png,0.0,hanover.png,Three Edge Diff,Two Edge Five Edge,Fictional,676c956bbeee4e4356eb085b,old
3363.5999999940395,shortestpath_phase,boulder.png,50.0,westpalmbeach.png,racine.png,1.0,racine.png,Four Edge Diff,Two Edge Six Edge,Fictional,676c956bbeee4e4356eb085b,old
2851.0999999940395,shortestpath_phase,gatlinburg.png,49.0,westpalmbeach.png,hotsprings.png,0.0,hotsprings.png,Two Edge Diff,Four Edge Six Edge,Fictional,676c956bbeee4e4356eb085b,old
3051.0,shortestpath_phase,cornwall.png,50.0,gatlinburg.png,newhope.png,1.0,newhope.png,Three Edge Diff,Two Edge Five Edge,Fictional,676c956bbeee4e4356eb085b,old
3625.7999999821186,shortestpath_phase,gatlinburg.png,50.0,shreveport.png,westpalmbeach.png,0.0,shreveport.png,Four Edge Diff,Two Edge Six Edge,Fictional,676c956bbeee4e4356eb085b,old
3248.5999999940395,shortestpath_phase,carmel.png,49.0,hanover.png,peoria.png,1.0,hanover.png,One Edge Diff,Three Edge Four Edge,Fictional,676c956bbeee4e4356eb085b,old
3259.699999988079,shortestpath_phase,racine.png,50.0,westpalmbeach.png,newhope.png,1.0,newhope.png,Two Edge Diff,Two Edge Four Edge,Fictional,676c956bbeee4e4356eb085b,old
3427.4000000059605,shortestpath_phase,boulder.png,50.0,peoria.png,carmel.png,1.0,carmel.png,Four Edge Diff,Two Edge Six Edge,Fictional,676c956bbeee4e4356eb085b,old
3412.699999988079,shortestpath_phase,gatlinburg.png,49.0,peoria.png,racine.png,0.0,racine.png,Three Edge Diff,Three Edge Six Edge,Fictional,676c956bbeee4e4356eb085b,old
3599.199999988079,shortestpath_phase,peoria.png,49.0,newhope.png,boulder.png,1.0,newhope.png,Four Edge Diff,Two Edge Six Edge,Fictional,676c956bbeee4e4356eb085b,old
3654.0,shortestpath_phase,gatlinburg.png,50.0,cornwall.png,huntsville.png,1.0,huntsville.png,Two Edge Diff,Three Edge Five Edge,Fictional,676c956bbeee4e4356eb085b,old
3233.4000000059605,shortestpath_phase,cornwall.png,49.0,gatlinburg.png,carmel.png,0.0,carmel.png,One Edge Diff,Four Edge Five Edge,Fictional,676c956bbeee4e4356eb085b,old
4056.5,shortestpath_phase,boulder.png,50.0,racine.png,peoria.png,0.0,racine.png,Four Edge Diff,Two Edge Six Edge,Fictional,676c956bbeee4e4356eb085b,old
2654.0999999940395,shortestpath_phase,leesburg.png,50.0,gatlinburg.png,newhope.png,0.0,gatlinburg.png,One Edge Diff,Two Edge Three Edge,Fictional,676c956bbeee4e4356eb085b,old
3097.7000000178814,shortestpath_phase,carmel.png,49.0,newhope.png,westpalmbeach.png,1.0,newhope.png,Three Edge Diff,Three Edge Six Edge,Fictional,676c956bbeee4e4356eb085b,old
3181.5,shortestpath_phase,peoria.png,49.0,boulder.png,gatlinburg.png,0.0,gatlinburg.png,One Edge Diff,Five Edge Six Edge,Fictional,676c956bbeee4e4356eb085b,old
2649.4000000059605,shortestpath_phase,carmel.png,50.0,hanover.png,newhope.png,1.0,newhope.png,One Edge Diff,Two Edge Three Edge,Fictional,676c956bbeee4e4356eb085b,old
3135.0,shortestpath_phase,westpalmbeach.png,50.0,carmel.png,hotsprings.png,1.0,hotsprings.png,Three Edge Diff,Three Edge Six Edge,Fictional,676c956bbeee4e4356eb085b,old
3276.7000000178814,shortestpath_phase,boulder.png,49.0,westpalmbeach.png,newhope.png,0.0,newhope.png,Two Edge Diff,Four Edge Six Edge,Fictional,676c956bbeee4e4356eb085b,old
3448.399999976158,shortestpath_phase,racine.png,50.0,peoria.png,gatlinburg.png,1.0,gatlinburg.png,Two Edge Diff,Two Edge Four Edge,Fictional,676c956bbeee4e4356eb085b,old
2873.300000011921,shortestpath_phase,boulder.png,50.0,peoria.png,newhope.png,1.0,newhope.png,Two Edge Diff,Four Edge Six Edge,Fictional,676c956bbeee4e4356eb085b,old
2531.699999988079,shortestpath_phase,shreveport.png,49.0,hanover.png,gatlinburg.png,0.0,gatlinburg.png,One Edge Diff,Two Edge Three Edge,Fictional,676c956bbeee4e4356eb085b,old
2614.699999988079,shortestpath_phase,hanover.png,49.0,newhope.png,gatlinburg.png,1.0,newhope.png,Two Edge Diff,Two Edge Four Edge,Fictional,676c956bbeee4e4356eb085b,old
3114.7000000178814,shortestpath_phase,peoria.png,49.0,boulder.png,carmel.png,0.0,carmel.png,Two Edge Diff,Four Edge Six Edge,Fictional,676c956bbeee4e4356eb085b,old
3245.0999999940395,shortestpath_phase,westpalmbeach.png,49.0,boulder.png,hotsprings.png,0.0,hotsprings.png,Four Edge Diff,Two Edge Six Edge,Fictional,676c956bbeee4e4356eb085b,old
2841.0,shortestpath_phase,cornwall.png,50.0,gatlinburg.png,peoria.png,1.0,peoria.png,Three Edge Diff,Two Edge Five Edge,Fictional,676c956bbeee4e4356eb085b,old
3551.199999988079,shortestpath_phase,boulder.png,50.0,cornwall.png,racine.png,1.0,racine.png,Three Edge Diff,Two Edge Five Edge,Fictional,676c956bbeee4e4356eb085b,old
3014.7999999821186,shortestpath_phase,westpalmbeach.png,50.0,leesburg.png,huntsville.png,1.0,huntsville.png,Two Edge Diff,Three Edge Five Edge,Fictional,676c956bbeee4e4356eb085b,old
2945.100000023842,shortestpath_phase,boulder.png,50.0,racine.png,hotsprings.png,0.0,racine.png,Three Edge Diff,Three Edge Six Edge,Fictional,676c956bbeee4e4356eb085b,old
2917.0999999940395,shortestpath_phase,westpalmbeach.png,50.0,carmel.png,boulder.png,0.0,carmel.png,One Edge Diff,Five Edge Six Edge,Fictional,676c956bbeee4e4356eb085b,old
2653.199999988079,shortestpath_phase,hanover.png,49.0,racine.png,carmel.png,1.0,racine.png,One Edge Diff,Two Edge Three Edge,Fictional,676c956bbeee4e4356eb085b,old
3462.9000000059605,shortestpath_phase,hotsprings.png,49.0,boulder.png,westpalmbeach.png,0.0,westpalmbeach.png,Three Edge Diff,Three Edge Six Edge,Fictional,676c956bbeee4e4356eb085b,old
2861.699999988079,shortestpath_phase,leesburg.png,50.0,westpalmbeach.png,gatlinburg.png,1.0,gatlinburg.png,Three Edge Diff,Two Edge Five Edge,Fictional,676c956bbeee4e4356eb085b,old
3193.600000023842,shortestpath_phase,westpalmbeach.png,50.0,hanover.png,boulder.png,0.0,hanover.png,Four Edge Diff,Two Edge Six Edge,Fictional,676c956bbeee4e4356eb085b,old
3185.0999999940395,shortestpath_phase,peoria.png,49.0,leesburg.png,boulder.png,1.0,leesburg.png,One Edge Diff,Five Edge Six Edge,Fictional,676c956bbeee4e4356eb085b,old
3074.0999999940395,shortestpath_phase,gatlinburg.png,49.0,huntsville.png,peoria.png,1.0,huntsville.png,Two Edge Diff,Three Edge Five Edge,Fictional,676c956bbeee4e4356eb085b,old
2982.7999999821186,shortestpath_phase,leesburg.png,50.0,shreveport.png,westpalmbeach.png,0.0,shreveport.png,Three Edge Diff,Three Edge Six Edge,Fictional,676c956bbeee4e4356eb085b,old
2426.2999999821186,shortestpath_phase,boulder.png,49.0,hotsprings.png,huntsville.png,0.0,huntsville.png,Two Edge Diff,Three Edge Five Edge,Fictional,676c956bbeee4e4356eb085b,old
2804.7000000178814,shortestpath_phase,peoria.png,50.0,boulder.png,racine.png,1.0,racine.png,Two Edge Diff,Four Edge Six Edge,Fictional,676c956bbeee4e4356eb085b,old
2932.0999999940395,shortestpath_phase,gatlinburg.png,49.0,westpalmbeach.png,hanover.png,0.0,hanover.png,Two Edge Diff,Four Edge Six Edge,Fictional,676c956bbeee4e4356eb085b,old
2544.2999999821186,shortestpath_phase,hotsprings.png,49.0,leesburg.png,huntsville.png,0.0,huntsville.png,Two Edge Diff,Two Edge Four Edge,Fictional,676c956bbeee4e4356eb085b,old
2499.29999999702,shortestpath_phase,boulder.png,49.0,newhope.png,hotsprings.png,1.0,newhope.png,Three Edge Diff,Three Edge Six Edge,Fictional,62ceeffea6d9872b4adeee6f,young
2757.0,shortestpath_phase,carmel.png,49.0,hotsprings.png,peoria.png,1.0,hotsprings.png,Three Edge Diff,Two Edge Five Edge,Fictional,62ceeffea6d9872b4adeee6f,young
1729.2999999970198,shortestpath_phase,cornwall.png,50.0,peoria.png,shreveport.png,1.0,shreveport.png,Two Edge Diff,Two Edge Four Edge,Fictional,62ceeffea6d9872b4adeee6f,young
3521.0,shortestpath_phase,boulder.png,49.0,shreveport.png,huntsville.png,0.0,huntsville.png,Two Edge Diff,Two Edge Four Edge,Fictional,62ceeffea6d9872b4adeee6f,young
2285.20000000298,shortestpath_phase,westpalmbeach.png,50.0,boulder.png,cornwall.png,1.0,cornwall.png,Three Edge Diff,Two Edge Five Edge,Fictional,62ceeffea6d9872b4adeee6f,young
2993.60000000149,shortestpath_phase,hanover.png,49.0,westpalmbeach.png,shreveport.png,0.0,shreveport.png,One Edge Diff,Three Edge Four Edge,Fictional,62ceeffea6d9872b4adeee6f,young
2592.89999999851,shortestpath_phase,huntsville.png,50.0,leesburg.png,peoria.png,0.0,leesburg.png,One Edge Diff,Two Edge Three Edge,Fictional,62ceeffea6d9872b4adeee6f,young
1845.10000000149,shortestpath_phase,shreveport.png,50.0,huntsville.png,cornwall.png,1.0,cornwall.png,Three Edge Diff,Three Edge Six Edge,Fictional,62ceeffea6d9872b4adeee6f,young
5080.5,shortestpath_phase,peoria.png,49.0,racine.png,hotsprings.png,1.0,racine.png,Four Edge Diff,Two Edge Six Edge,Fictional,62ceeffea6d9872b4adeee6f,young
3829.10000000149,shortestpath_phase,hotsprings.png,50.0,peoria.png,hanover.png,1.0,hanover.png,Two Edge Diff,Four Edge Six Edge,Fictional,62ceeffea6d9872b4adeee6f,young
2911.89999999851,shortestpath_phase,peoria.png,49.0,racine.png,gatlinburg.png,1.0,racine.png,Two Edge Diff,Two Edge Four Edge,Fictional,62ceeffea6d9872b4adeee6f,young
3035.5,shortestpath_phase,hotsprings.png,49.0,hanover.png,huntsville.png,1.0,hanover.png,Two Edge Diff,Four Edge Six Edge,Fictional,62ceeffea6d9872b4adeee6f,young
3901.10000000149,shortestpath_phase,huntsville.png,50.0,shreveport.png,peoria.png,1.0,peoria.png,Two Edge Diff,Three Edge Five Edge,Fictional,62ceeffea6d9872b4adeee6f,young
5243.79999999702,shortestpath_phase,racine.png,49.0,shreveport.png,carmel.png,0.0,carmel.png,One Edge Diff,Three Edge Four Edge,Fictional,62ceeffea6d9872b4adeee6f,young
3357.8000000044703,shortestpath_phase,huntsville.png,50.0,shreveport.png,leesburg.png,1.0,leesburg.png,Three Edge Diff,Three Edge Six Edge,Fictional,62ceeffea6d9872b4adeee6f,young
4065.20000000298,shortestpath_phase,hotsprings.png,49.0,hanover.png,gatlinburg.png,0.0,gatlinburg.png,Two Edge Diff,Two Edge Four Edge,Fictional,62ceeffea6d9872b4adeee6f,young
2020.89999999851,shortestpath_phase,peoria.png,50.0,carmel.png,leesburg.png,1.0,leesburg.png,Two Edge Diff,Three Edge Five Edge,Fictional,62ceeffea6d9872b4adeee6f,young
5789.39999999851,shortestpath_phase,hotsprings.png,50.0,huntsville.png,gatlinburg.png,1.0,gatlinburg.png,Four Edge Diff,Two Edge Six Edge,Fictional,62ceeffea6d9872b4adeee6f,young
5479.70000000298,shortestpath_phase,westpalmbeach.png,50.0,huntsville.png,shreveport.png,1.0,shreveport.png,Three Edge Diff,Two Edge Five Edge,Fictional,62ceeffea6d9872b4adeee6f,young
2533.89999999851,shortestpath_phase,peoria.png,49.0,racine.png,westpalmbeach.png,1.0,racine.png,Four Edge Diff,Two Edge Six Edge,Fictional,62ceeffea6d9872b4adeee6f,young
2832.79999999702,shortestpath_phase,westpalmbeach.png,50.0,gatlinburg.png,peoria.png,0.0,gatlinburg.png,Four Edge Diff,Two Edge Six Edge,Fictional,62ceeffea6d9872b4adeee6f,young
4344.80000000447,shortestpath_phase,peoria.png,49.0,hotsprings.png,cornwall.png,0.0,cornwall.png,Two Edge Diff,Four Edge Six Edge,Fictional,62ceeffea6d9872b4adeee6f,young
4486.0999999940395,shortestpath_phase,boulder.png,50.0,westpalmbeach.png,leesburg.png,1.0,leesburg.png,Three Edge Diff,Three Edge Six Edge,Fictional,62ceeffea6d9872b4adeee6f,young
,shortestpath_phase,westpalmbeach.png,,cornwall.png,racine.png,0.0,cornwall.png,Two Edge Diff,Two Edge Four Edge,Fictional,62ceeffea6d9872b4adeee6f,young
1171.7999999970198,shortestpath_phase,hotsprings.png,49.0,racine.png,carmel.png,0.0,carmel.png,Three Edge Diff,Three Edge Six Edge,Fictional,62ceeffea6d9872b4adeee6f,young
1677.7999999970198,shortestpath_phase,westpalmbeach.png,50.0,peoria.png,hanover.png,1.0,hanover.png,Two Edge Diff,Four Edge Six Edge,Fictional,62ceeffea6d9872b4adeee6f,young
2361.70000000298,shortestpath_phase,huntsville.png,49.0,hotsprings.png,gatlinburg.png,0.0,gatlinburg.png,Two Edge Diff,Four Edge Six Edge,Fictional,62ceeffea6d9872b4adeee6f,young
2669.3000000044703,shortestpath_phase,shreveport.png,50.0,huntsville.png,cornwall.png,1.0,cornwall.png,Three Edge Diff,Two Edge Five Edge,Fictional,62ceeffea6d9872b4adeee6f,young
1916.8000000044703,shortestpath_phase,peoria.png,49.0,westpalmbeach.png,gatlinburg.png,0.0,gatlinburg.png,Two Edge Diff,Four Edge Six Edge,Fictional,62ceeffea6d9872b4adeee6f,young
2442.10000000149,shortestpath_phase,racine.png,50.0,hotsprings.png,westpalmbeach.png,1.0,westpalmbeach.png,One Edge Diff,Four Edge Five Edge,Fictional,62ceeffea6d9872b4adeee6f,young
2677.9000000059605,shortestpath_phase,hotsprings.png,49.0,carmel.png,huntsville.png,1.0,carmel.png,Four Edge Diff,Two Edge Six Edge,Fictional,62ceeffea6d9872b4adeee6f,young
3983.79999999702,shortestpath_phase,racine.png,49.0,westpalmbeach.png,gatlinburg.png,0.0,gatlinburg.png,One Edge Diff,Three Edge Four Edge,Fictional,62ceeffea6d9872b4adeee6f,young
2381.3000000044703,shortestpath_phase,leesburg.png,50.0,hotsprings.png,huntsville.png,1.0,huntsville.png,Two Edge Diff,Two Edge Four Edge,Fictional,62ceeffea6d9872b4adeee6f,young
2216.89999999851,shortestpath_phase,racine.png,49.0,cornwall.png,hotsprings.png,1.0,cornwall.png,Three Edge Diff,Three Edge Six Edge,Fictional,62ceeffea6d9872b4adeee6f,young
4240.89999999851,shortestpath_phase,hotsprings.png,50.0,peoria.png,leesburg.png,1.0,leesburg.png,Two Edge Diff,Four Edge Six Edge,Fictional,62ceeffea6d9872b4adeee6f,young
2591.5999999940395,shortestpath_phase,westpalmbeach.png,49.0,boulder.png,racine.png,0.0,racine.png,One Edge Diff,Four Edge Five Edge,Fictional,62ceeffea6d9872b4adeee6f,young
3232.0,shortestpath_phase,huntsville.png,50.0,cornwall.png,westpalmbeach.png,0.0,cornwall.png,Two Edge Diff,Three Edge Five Edge,Fictional,62ceeffea6d9872b4adeee6f,young
3113.4000000059605,shortestpath_phase,hotsprings.png,49.0,huntsville.png,racine.png,0.0,racine.png,One Edge Diff,Five Edge Six Edge,Fictional,62ceeffea6d9872b4adeee6f,young
1389.8000000044703,shortestpath_phase,shreveport.png,49.0,boulder.png,peoria.png,1.0,boulder.png,One Edge Diff,Four Edge Five Edge,Fictional,62ceeffea6d9872b4adeee6f,young
2110.39999999851,shortestpath_phase,hotsprings.png,49.0,westpalmbeach.png,racine.png,1.0,westpalmbeach.png,Two Edge Diff,Three Edge Five Edge,Fictional,62ceeffea6d9872b4adeee6f,young
2007.20000000298,shortestpath_phase,huntsville.png,49.0,hotsprings.png,boulder.png,0.0,boulder.png,Four Edge Diff,Two Edge Six Edge,Fictional,62ceeffea6d9872b4adeee6f,young
2454.79999999702,shortestpath_phase,westpalmbeach.png,50.0,hotsprings.png,boulder.png,0.0,hotsprings.png,Two Edge Diff,Three Edge Five Edge,Fictional,62ceeffea6d9872b4adeee6f,young
3304.60000000149,shortestpath_phase,carmel.png,50.0,peoria.png,leesburg.png,1.0,leesburg.png,Three Edge Diff,Two Edge Five Edge,Fictional,62ceeffea6d9872b4adeee6f,young
3435.9000000059605,shortestpath_phase,westpalmbeach.png,49.0,huntsville.png,cornwall.png,0.0,cornwall.png,Three Edge Diff,Three Edge Six Edge,Fictional,62ceeffea6d9872b4adeee6f,young
3179.5,shortestpath_phase,hotsprings.png,50.0,peoria.png,carmel.png,1.0,carmel.png,Four Edge Diff,Two Edge Six Edge,Fictional,62ceeffea6d9872b4adeee6f,young
1848.5,shortestpath_phase,hanover.png,49.0,peoria.png,westpalmbeach.png,1.0,peoria.png,Two Edge Diff,Two Edge Four Edge,Fictional,62ceeffea6d9872b4adeee6f,young
1823.89999999851,shortestpath_phase,westpalmbeach.png,49.0,peoria.png,cornwall.png,0.0,cornwall.png,Four Edge Diff,Two Edge Six Edge,Fictional,62ceeffea6d9872b4adeee6f,young
4235.29999999702,shortestpath_phase,carmel.png,50.0,hanover.png,boulder.png,0.0,hanover.png,One Edge Diff,Three Edge Four Edge,Fictional,62ceeffea6d9872b4adeee6f,young
4243.20000000298,shortestpath_phase,hotsprings.png,50.0,boulder.png,westpalmbeach.png,1.0,westpalmbeach.png,Two Edge Diff,Three Edge Five Edge,Fictional,62ceeffea6d9872b4adeee6f,young
1690.2999999970198,shortestpath_phase,carmel.png,49.0,newhope.png,peoria.png,1.0,newhope.png,Three Edge Diff,Two Edge Five Edge,Fictional,62ceeffea6d9872b4adeee6f,young
4170.9000000059605,shortestpath_phase,westpalmbeach.png,49.0,shreveport.png,huntsville.png,1.0,shreveport.png,Three Edge Diff,Three Edge Six Edge,Fictional,62ceeffea6d9872b4adeee6f,young
1729.8000000044703,shortestpath_phase,huntsville.png,49.0,leesburg.png,westpalmbeach.png,1.0,leesburg.png,Three Edge Diff,Two Edge Five Edge,Fictional,62ceeffea6d9872b4adeee6f,young
2111.70000000298,shortestpath_phase,cornwall.png,50.0,boulder.png,racine.png,1.0,racine.png,One Edge Diff,Two Edge Three Edge,Fictional,62ceeffea6d9872b4adeee6f,young
1788.89999999851,shortestpath_phase,leesburg.png,49.0,gatlinburg.png,peoria.png,1.0,gatlinburg.png,One Edge Diff,Two Edge Three Edge,Fictional,62ceeffea6d9872b4adeee6f,young
1775.10000000149,shortestpath_phase,hotsprings.png,50.0,huntsville.png,boulder.png,1.0,boulder.png,One Edge Diff,Five Edge Six Edge,Fictional,62ceeffea6d9872b4adeee6f,young
2027.89999999851,shortestpath_phase,hanover.png,49.0,cornwall.png,gatlinburg.png,0.0,gatlinburg.png,One Edge Diff,Two Edge Three Edge,Fictional,62ceeffea6d9872b4adeee6f,young
2858.60000000149,shortestpath_phase,peoria.png,49.0,carmel.png,cornwall.png,0.0,cornwall.png,One Edge Diff,Four Edge Five Edge,Fictional,62ceeffea6d9872b4adeee6f,young
1881.89999999851,shortestpath_phase,huntsville.png,50.0,hotsprings.png,leesburg.png,1.0,leesburg.png,Four Edge Diff,Two Edge Six Edge,Fictional,62ceeffea6d9872b4adeee6f,young
2202.39999999851,shortestpath_phase,cornwall.png,50.0,hotsprings.png,shreveport.png,1.0,shreveport.png,One Edge Diff,Two Edge Three Edge,Fictional,62ceeffea6d9872b4adeee6f,young
3636.70000000298,shortestpath_phase,huntsville.png,49.0,leesburg.png,westpalmbeach.png,1.0,leesburg.png,Three Edge Diff,Three Edge Six Edge,Fictional,62ceeffea6d9872b4adeee6f,young
2700.60000000149,shortestpath_phase,boulder.png,50.0,westpalmbeach.png,newhope.png,1.0,newhope.png,Three Edge Diff,Two Edge Five Edge,Fictional,62ceeffea6d9872b4adeee6f,young
2730.8000000044703,shortestpath_phase,westpalmbeach.png,50.0,cornwall.png,leesburg.png,0.0,cornwall.png,One Edge Diff,Two Edge Three Edge,Fictional,62ceeffea6d9872b4adeee6f,young
2814.79999999702,shortestpath_phase,boulder.png,50.0,huntsville.png,westpalmbeach.png,0.0,huntsville.png,Three Edge Diff,Two Edge Five Edge,Fictional,62ceeffea6d9872b4adeee6f,young
1760.10000000149,shortestpath_phase,westpalmbeach.png,49.0,shreveport.png,peoria.png,1.0,shreveport.png,Four Edge Diff,Two Edge Six Edge,Fictional,62ceeffea6d9872b4adeee6f,young
1739.4000000059605,shortestpath_phase,hotsprings.png,49.0,racine.png,gatlinburg.png,0.0,gatlinburg.png,Three Edge Diff,Three Edge Six Edge,Fictional,62ceeffea6d9872b4adeee6f,young
2382.6999999955297,shortestpath_phase,shreveport.png,50.0,westpalmbeach.png,peoria.png,0.0,westpalmbeach.png,Three Edge Diff,Two Edge Five Edge,Fictional,62ceeffea6d9872b4adeee6f,young
2011.10000000149,shortestpath_phase,hotsprings.png,49.0,leesburg.png,cornwall.png,0.0,cornwall.png,One Edge Diff,Three Edge Four Edge,Fictional,62ceeffea6d9872b4adeee6f,young
2884.20000000298,shortestpath_phase,peoria.png,49.0,westpalmbeach.png,shreveport.png,0.0,shreveport.png,One Edge Diff,Five Edge Six Edge,Fictional,62ceeffea6d9872b4adeee6f,young
1929.60000000149,shortestpath_phase,huntsville.png,50.0,westpalmbeach.png,hotsprings.png,0.0,westpalmbeach.png,One Edge Diff,Five Edge Six Edge,Fictional,62ceeffea6d9872b4adeee6f,young
2223.79999999702,shortestpath_phase,shreveport.png,49.0,newhope.png,huntsville.png,1.0,newhope.png,Three Edge Diff,Three Edge Six Edge,Fictional,62ceeffea6d9872b4adeee6f,young
1525.5,shortestpath_phase,carmel.png,49.0,boulder.png,peoria.png,1.0,boulder.png,One Edge Diff,Four Edge Five Edge,Fictional,62ceeffea6d9872b4adeee6f,young
2513.70000000298,shortestpath_phase,shreveport.png,50.0,huntsville.png,westpalmbeach.png,1.0,westpalmbeach.png,Three Edge Diff,Two Edge Five Edge,Fictional,62ceeffea6d9872b4adeee6f,young
1778.5,shortestpath_phase,boulder.png,49.0,hotsprings.png,newhope.png,0.0,newhope.png,Three Edge Diff,Two Edge Five Edge,Fictional,62ceeffea6d9872b4adeee6f,young
3216.20000000298,shortestpath_phase,peoria.png,50.0,hotsprings.png,shreveport.png,1.0,shreveport.png,One Edge Diff,Five Edge Six Edge,Fictional,62ceeffea6d9872b4adeee6f,young
1424.5,shortestpath_phase,cornwall.png,49.0,racine.png,peoria.png,1.0,racine.png,Two Edge Diff,Two Edge Four Edge,Fictional,62ceeffea6d9872b4adeee6f,young
1619.39999999851,shortestpath_phase,shreveport.png,50.0,huntsville.png,leesburg.png,1.0,leesburg.png,Two Edge Diff,Three Edge Five Edge,Fictional,62ceeffea6d9872b4adeee6f,young
1971.0,shortestpath_phase,peoria.png,50.0,westpalmbeach.png,hanover.png,1.0,hanover.png,Four Edge Diff,Two Edge Six Edge,Fictional,62ceeffea6d9872b4adeee6f,young
3861.89999999851,shortestpath_phase,boulder.png,50.0,hotsprings.png,shreveport.png,1.0,shreveport.png,One Edge Diff,Four Edge Five Edge,Fictional,62ceeffea6d9872b4adeee6f,young
2091.6999999955297,shortestpath_phase,hotsprings.png,50.0,gatlinburg.png,peoria.png,0.0,gatlinburg.png,Four Edge Diff,Two Edge Six Edge,Fictional,62ceeffea6d9872b4adeee6f,young
3292.8000000044703,shortestpath_phase,huntsville.png,50.0,westpalmbeach.png,boulder.png,1.0,boulder.png,Three Edge Diff,Three Edge Six Edge,Fictional,62ceeffea6d9872b4adeee6f,young
1517.0,shortestpath_phase,racine.png,49.0,gatlinburg.png,hotsprings.png,1.0,gatlinburg.png,Two Edge Diff,Three Edge Five Edge,Fictional,62ceeffea6d9872b4adeee6f,young
3375.60000000149,shortestpath_phase,huntsville.png,49.0,carmel.png,hotsprings.png,1.0,carmel.png,Two Edge Diff,Four Edge Six Edge,Fictional,62ceeffea6d9872b4adeee6f,young
2019.39999999851,shortestpath_phase,boulder.png,50.0,gatlinburg.png,shreveport.png,0.0,gatlinburg.png,One Edge Diff,Three Edge Four Edge,Fictional,62ceeffea6d9872b4adeee6f,young
1779.9000000059605,shortestpath_phase,huntsville.png,50.0,hotsprings.png,shreveport.png,1.0,shreveport.png,One Edge Diff,Five Edge Six Edge,Fictional,62ceeffea6d9872b4adeee6f,young
3568.699999988079,shortestpath_phase,hotsprings.png,50.0,leesburg.png,huntsville.png,1.0,huntsville.png,Four Edge Diff,Two Edge Six Edge,Fictional,63af557b3d4f219c3226b7d6,young
3922.299999952316,shortestpath_phase,boulder.png,50.0,gatlinburg.png,carmel.png,1.0,carmel.png,Three Edge Diff,Two Edge Five Edge,Fictional,63af557b3d4f219c3226b7d6,young
3276.300000011921,shortestpath_phase,leesburg.png,49.0,peoria.png,hotsprings.png,1.0,peoria.png,Four Edge Diff,Two Edge Six Edge,Fictional,63af557b3d4f219c3226b7d6,young
5854.199999988079,shortestpath_phase,cornwall.png,49.0,hanover.png,racine.png,0.0,racine.png,One Edge Diff,Three Edge Four Edge,Fictional,63af557b3d4f219c3226b7d6,young
5043.599999964237,shortestpath_phase,gatlinburg.png,49.0,carmel.png,newhope.png,1.0,carmel.png,Two Edge Diff,Three Edge Five Edge,Fictional,63af557b3d4f219c3226b7d6,young
2040.600000023842,shortestpath_phase,hotsprings.png,50.0,gatlinburg.png,huntsville.png,1.0,huntsville.png,Four Edge Diff,Two Edge Six Edge,Fictional,63af557b3d4f219c3226b7d6,young
5882.699999988079,shortestpath_phase,leesburg.png,50.0,carmel.png,boulder.png,0.0,carmel.png,Two Edge Diff,Three Edge Five Edge,Fictional,63af557b3d4f219c3226b7d6,young
3868.400000035763,shortestpath_phase,hanover.png,50.0,boulder.png,gatlinburg.png,1.0,gatlinburg.png,Two Edge Diff,Two Edge Four Edge,Fictional,63af557b3d4f219c3226b7d6,young
3362.400000035763,shortestpath_phase,leesburg.png,49.0,peoria.png,boulder.png,1.0,peoria.png,Three Edge Diff,Two Edge Five Edge,Fictional,63af557b3d4f219c3226b7d6,young
,shortestpath_phase,hotsprings.png,,cornwall.png,westpalmbeach.png,0.0,cornwall.png,Two Edge Diff,Two Edge Four Edge,Fictional,63af557b3d4f219c3226b7d6,young
2300.399999976158,shortestpath_phase,leesburg.png,49.0,boulder.png,hotsprings.png,1.0,boulder.png,One Edge Diff,Five Edge Six Edge,Fictional,63af557b3d4f219c3226b7d6,young
3052.100000023842,shortestpath_phase,hanover.png,50.0,newhope.png,huntsville.png,1.0,huntsville.png,Two Edge Diff,Three Edge Five Edge,Fictional,63af557b3d4f219c3226b7d6,young
3355.699999988079,shortestpath_phase,cornwall.png,50.0,carmel.png,leesburg.png,0.0,carmel.png,Three Edge Diff,Three Edge Six Edge,Fictional,63af557b3d4f219c3226b7d6,young
2921.600000023842,shortestpath_phase,hanover.png,50.0,hotsprings.png,westpalmbeach.png,1.0,westpalmbeach.png,Three Edge Diff,Two Edge Five Edge,Fictional,63af557b3d4f219c3226b7d6,young
3366.699999988079,shortestpath_phase,gatlinburg.png,49.0,cornwall.png,hotsprings.png,1.0,cornwall.png,Two Edge Diff,Four Edge Six Edge,Fictional,63af557b3d4f219c3226b7d6,young
4449.100000023842,shortestpath_phase,newhope.png,49.0,hanover.png,hotsprings.png,0.0,hotsprings.png,Two Edge Diff,Three Edge Five Edge,Fictional,63af557b3d4f219c3226b7d6,young
4059.699999988079,shortestpath_phase,racine.png,49.0,newhope.png,cornwall.png,0.0,cornwall.png,One Edge Diff,Three Edge Four Edge,Fictional,63af557b3d4f219c3226b7d6,young
4053.699999988079,shortestpath_phase,gatlinburg.png,49.0,carmel.png,boulder.png,1.0,carmel.png,Two Edge Diff,Three Edge Five Edge,Fictional,63af557b3d4f219c3226b7d6,young
2325.199999988079,shortestpath_phase,hotsprings.png,50.0,racine.png,huntsville.png,1.0,huntsville.png,Three Edge Diff,Three Edge Six Edge,Fictional,63af557b3d4f219c3226b7d6,young
3083.0,shortestpath_phase,gatlinburg.png,50.0,newhope.png,westpalmbeach.png,1.0,westpalmbeach.png,Three Edge Diff,Two Edge Five Edge,Fictional,63af557b3d4f219c3226b7d6,young
3165.900000035763,shortestpath_phase,carmel.png,49.0,cornwall.png,gatlinburg.png,1.0,cornwall.png,One Edge Diff,Two Edge Three Edge,Fictional,63af557b3d4f219c3226b7d6,young
2595.300000011921,shortestpath_phase,leesburg.png,50.0,gatlinburg.png,boulder.png,0.0,gatlinburg.png,Two Edge Diff,Three Edge Five Edge,Fictional,63af557b3d4f219c3226b7d6,young
4592.199999988079,shortestpath_phase,hanover.png,50.0,cornwall.png,hotsprings.png,0.0,cornwall.png,One Edge Diff,Four Edge Five Edge,Fictional,63af557b3d4f219c3226b7d6,young
4115.0,shortestpath_phase,leesburg.png,49.0,cornwall.png,huntsville.png,0.0,huntsville.png,One Edge Diff,Four Edge Five Edge,Fictional,63af557b3d4f219c3226b7d6,young
4199.900000035763,shortestpath_phase,boulder.png,49.0,shreveport.png,leesburg.png,1.0,shreveport.png,Three Edge Diff,Three Edge Six Edge,Fictional,63af557b3d4f219c3226b7d6,young
3080.300000011921,shortestpath_phase,westpalmbeach.png,49.0,cornwall.png,hotsprings.png,1.0,cornwall.png,Two Edge Diff,Two Edge Four Edge,Fictional,63af557b3d4f219c3226b7d6,young
1524.699999988079,shortestpath_phase,boulder.png,50.0,gatlinburg.png,racine.png,1.0,racine.png,One Edge Diff,Four Edge Five Edge,Fictional,63af557b3d4f219c3226b7d6,young
1455.600000023842,shortestpath_phase,newhope.png,49.0,shreveport.png,hanover.png,1.0,shreveport.png,Three Edge Diff,Two Edge Five Edge,Fictional,63af557b3d4f219c3226b7d6,young
3470.699999988079,shortestpath_phase,gatlinburg.png,49.0,boulder.png,huntsville.png,0.0,huntsville.png,One Edge Diff,Four Edge Five Edge,Fictional,63af557b3d4f219c3226b7d6,young
3239.800000011921,shortestpath_phase,newhope.png,50.0,leesburg.png,boulder.png,1.0,boulder.png,Four Edge Diff,Two Edge Six Edge,Fictional,63af557b3d4f219c3226b7d6,young
3084.599999964237,shortestpath_phase,leesburg.png,49.0,racine.png,hotsprings.png,1.0,racine.png,Four Edge Diff,Two Edge Six Edge,Fictional,63af557b3d4f219c3226b7d6,young
4373.300000011921,shortestpath_phase,boulder.png,50.0,leesburg.png,carmel.png,1.0,carmel.png,Three Edge Diff,Two Edge Five Edge,Fictional,63af557b3d4f219c3226b7d6,young
1830.300000011921,shortestpath_phase,newhope.png,50.0,leesburg.png,shreveport.png,1.0,shreveport.png,Four Edge Diff,Two Edge Six Edge,Fictional,63af557b3d4f219c3226b7d6,young
2933.5,shortestpath_phase,gatlinburg.png,50.0,hotsprings.png,boulder.png,1.0,boulder.png,One Edge Diff,Five Edge Six Edge,Fictional,63af557b3d4f219c3226b7d6,young
3464.099999964237,shortestpath_phase,newhope.png,49.0,leesburg.png,racine.png,0.0,racine.png,Two Edge Diff,Four Edge Six Edge,Fictional,63af557b3d4f219c3226b7d6,young
4999.199999988079,shortestpath_phase,hotsprings.png,50.0,peoria.png,shreveport.png,1.0,shreveport.png,One Edge Diff,Three Edge Four Edge,Fictional,63af557b3d4f219c3226b7d6,young
3026.399999976158,shortestpath_phase,hanover.png,50.0,newhope.png,westpalmbeach.png,1.0,westpalmbeach.png,Three Edge Diff,Three Edge Six Edge,Fictional,63af557b3d4f219c3226b7d6,young
1534.0999999642372,shortestpath_phase,leesburg.png,49.0,racine.png,newhope.png,1.0,racine.png,Four Edge Diff,Two Edge Six Edge,Fictional,63af557b3d4f219c3226b7d6,young
1643.199999988079,shortestpath_phase,gatlinburg.png,49.0,peoria.png,hotsprings.png,1.0,peoria.png,Four Edge Diff,Two Edge Six Edge,Fictional,63af557b3d4f219c3226b7d6,young
3591.199999988079,shortestpath_phase,westpalmbeach.png,50.0,hotsprings.png,leesburg.png,1.0,leesburg.png,One Edge Diff,Three Edge Four Edge,Fictional,63af557b3d4f219c3226b7d6,young
1546.699999988079,shortestpath_phase,newhope.png,50.0,hanover.png,shreveport.png,1.0,shreveport.png,Three Edge Diff,Three Edge Six Edge,Fictional,63af557b3d4f219c3226b7d6,young
1910.899999976158,shortestpath_phase,leesburg.png,49.0,cornwall.png,hotsprings.png,1.0,cornwall.png,One Edge Diff,Five Edge Six Edge,Fictional,63af557b3d4f219c3226b7d6,young
2861.5,shortestpath_phase,hotsprings.png,49.0,leesburg.png,hanover.png,0.0,hanover.png,One Edge Diff,Five Edge Six Edge,Fictional,63af557b3d4f219c3226b7d6,young
3134.699999988079,shortestpath_phase,cornwall.png,50.0,westpalmbeach.png,hanover.png,0.0,westpalmbeach.png,Two Edge Diff,Two Edge Four Edge,Fictional,63af557b3d4f219c3226b7d6,young
2505.0,shortestpath_phase,leesburg.png,50.0,huntsville.png,hotsprings.png,0.0,huntsville.png,Two Edge Diff,Four Edge Six Edge,Fictional,63af557b3d4f219c3226b7d6,young
2070.5,shortestpath_phase,cornwall.png,49.0,leesburg.png,hotsprings.png,0.0,hotsprings.png,Three Edge Diff,Two Edge Five Edge,Fictional,63af557b3d4f219c3226b7d6,young
1567.5,shortestpath_phase,gatlinburg.png,49.0,hanover.png,hotsprings.png,1.0,hanover.png,Four Edge Diff,Two Edge Six Edge,Fictional,63af557b3d4f219c3226b7d6,young
1702.0,shortestpath_phase,boulder.png,49.0,leesburg.png,shreveport.png,0.0,shreveport.png,Three Edge Diff,Two Edge Five Edge,Fictional,63af557b3d4f219c3226b7d6,young
2942.699999988079,shortestpath_phase,hotsprings.png,50.0,peoria.png,hanover.png,0.0,peoria.png,One Edge Diff,Four Edge Five Edge,Fictional,63af557b3d4f219c3226b7d6,young
3547.400000035763,shortestpath_phase,newhope.png,50.0,gatlinburg.png,boulder.png,1.0,boulder.png,Three Edge Diff,Three Edge Six Edge,Fictional,63af557b3d4f219c3226b7d6,young
3630.700000047684,shortestpath_phase,peoria.png,49.0,huntsville.png,boulder.png,1.0,huntsville.png,One Edge Diff,Two Edge Three Edge,Fictional,63af557b3d4f219c3226b7d6,young
2650.2000000476837,shortestpath_phase,boulder.png,49.0,newhope.png,gatlinburg.png,1.0,newhope.png,Three Edge Diff,Three Edge Six Edge,Fictional,63af557b3d4f219c3226b7d6,young
2353.399999976158,shortestpath_phase,cornwall.png,49.0,leesburg.png,gatlinburg.png,0.0,gatlinburg.png,One Edge Diff,Four Edge Five Edge,Fictional,63af557b3d4f219c3226b7d6,young
2488.599999964237,shortestpath_phase,boulder.png,50.0,leesburg.png,peoria.png,1.0,peoria.png,Two Edge Diff,Three Edge Five Edge,Fictional,63af557b3d4f219c3226b7d6,young
3711.599999964237,shortestpath_phase,hotsprings.png,49.0,cornwall.png,gatlinburg.png,1.0,cornwall.png,Four Edge Diff,Two Edge Six Edge,Fictional,63af557b3d4f219c3226b7d6,young
3195.400000035763,shortestpath_phase,westpalmbeach.png,49.0,boulder.png,hotsprings.png,1.0,boulder.png,One Edge Diff,Three Edge Four Edge,Fictional,63af557b3d4f219c3226b7d6,young
2079.199999988079,shortestpath_phase,racine.png,49.0,carmel.png,hotsprings.png,1.0,carmel.png,Three Edge Diff,Three Edge Six Edge,Fictional,63af557b3d4f219c3226b7d6,young
4149.800000011921,shortestpath_phase,boulder.png,50.0,westpalmbeach.png,racine.png,0.0,westpalmbeach.png,One Edge Diff,Three Edge Four Edge,Fictional,63af557b3d4f219c3226b7d6,young
2024.100000023842,shortestpath_phase,hanover.png,50.0,hotsprings.png,gatlinburg.png,1.0,gatlinburg.png,Three Edge Diff,Three Edge Six Edge,Fictional,63af557b3d4f219c3226b7d6,young
3086.300000011921,shortestpath_phase,hotsprings.png,49.0,leesburg.png,westpalmbeach.png,0.0,westpalmbeach.png,Two Edge Diff,Four Edge Six Edge,Fictional,63af557b3d4f219c3226b7d6,young
1536.199999988079,shortestpath_phase,leesburg.png,49.0,boulder.png,peoria.png,0.0,peoria.png,Three Edge Diff,Three Edge Six Edge,Fictional,63af557b3d4f219c3226b7d6,young
2163.800000011921,shortestpath_phase,westpalmbeach.png,50.0,hotsprings.png,carmel.png,1.0,carmel.png,Two Edge Diff,Two Edge Four Edge,Fictional,63af557b3d4f219c3226b7d6,young
1770.0,shortestpath_phase,leesburg.png,50.0,cornwall.png,racine.png,1.0,racine.png,Three Edge Diff,Three Edge Six Edge,Fictional,63af557b3d4f219c3226b7d6,young
2808.900000035763,shortestpath_phase,carmel.png,50.0,gatlinburg.png,westpalmbeach.png,1.0,westpalmbeach.png,One Edge Diff,Two Edge Three Edge,Fictional,63af557b3d4f219c3226b7d6,young
2514.199999988079,shortestpath_phase,hotsprings.png,50.0,cornwall.png,leesburg.png,0.0,cornwall.png,Four Edge Diff,Two Edge Six Edge,Fictional,63af557b3d4f219c3226b7d6,young
895.8000000119209,shortestpath_phase,leesburg.png,50.0,cornwall.png,westpalmbeach.png,1.0,westpalmbeach.png,Two Edge Diff,Three Edge Five Edge,Fictional,63af557b3d4f219c3226b7d6,young
1493.5,shortestpath_phase,racine.png,49.0,carmel.png,newhope.png,1.0,carmel.png,Two Edge Diff,Two Edge Four Edge,Fictional,63af557b3d4f219c3226b7d6,young
2000.600000023842,shortestpath_phase,leesburg.png,50.0,newhope.png,shreveport.png,1.0,shreveport.png,Two Edge Diff,Four Edge Six Edge,Fictional,63af557b3d4f219c3226b7d6,young
4465.800000011921,shortestpath_phase,hanover.png,49.0,carmel.png,boulder.png,1.0,carmel.png,Two Edge Diff,Two Edge Four Edge,Fictional,63af557b3d4f219c3226b7d6,young
1550.800000011921,shortestpath_phase,gatlinburg.png,49.0,westpalmbeach.png,boulder.png,1.0,westpalmbeach.png,Three Edge Diff,Two Edge Five Edge,Fictional,63af557b3d4f219c3226b7d6,young
1248.2999999523165,shortestpath_phase,hanover.png,49.0,carmel.png,newhope.png,1.0,carmel.png,Three Edge Diff,Two Edge Five Edge,Fictional,63af557b3d4f219c3226b7d6,young
1930.0,shortestpath_phase,leesburg.png,50.0,boulder.png,racine.png,1.0,racine.png,Three Edge Diff,Two Edge Five Edge,Fictional,63af557b3d4f219c3226b7d6,young
2009.899999976158,shortestpath_phase,cornwall.png,49.0,carmel.png,racine.png,1.0,carmel.png,One Edge Diff,Two Edge Three Edge,Fictional,63af557b3d4f219c3226b7d6,young
2325.0,shortestpath_phase,boulder.png,49.0,westpalmbeach.png,shreveport.png,0.0,shreveport.png,One Edge Diff,Two Edge Three Edge,Fictional,63af557b3d4f219c3226b7d6,young
2464.0,shortestpath_phase,newhope.png,49.0,peoria.png,leesburg.png,1.0,peoria.png,Two Edge Diff,Four Edge Six Edge,Fictional,63af557b3d4f219c3226b7d6,young
2840.699999988079,shortestpath_phase,leesburg.png,50.0,shreveport.png,hotsprings.png,0.0,shreveport.png,Two Edge Diff,Four Edge Six Edge,Fictional,63af557b3d4f219c3226b7d6,young
1172.5999999642372,shortestpath_phase,gatlinburg.png,49.0,westpalmbeach.png,hotsprings.png,1.0,westpalmbeach.png,Four Edge Diff,Two Edge Six Edge,Fictional,63af557b3d4f219c3226b7d6,young
1378.0,shortestpath_phase,shreveport.png,49.0,newhope.png,leesburg.png,1.0,newhope.png,Two Edge Diff,Two Edge Four Edge,Fictional,63af557b3d4f219c3226b7d6,young
2220.100000023842,shortestpath_phase,racine.png,50.0,cornwall.png,carmel.png,1.0,carmel.png,One Edge Diff,Two Edge Three Edge,Fictional,63af557b3d4f219c3226b7d6,young
3147.0,shortestpath_phase,hotsprings.png,50.0,gatlinburg.png,hanover.png,1.0,hanover.png,One Edge Diff,Five Edge Six Edge,Fictional,63af557b3d4f219c3226b7d6,young
1423.100000023842,shortestpath_phase,boulder.png,50.0,leesburg.png,carmel.png,1.0,carmel.png,Three Edge Diff,Three Edge Six Edge,Fictional,63af557b3d4f219c3226b7d6,young
1643.4000000357628,shortestpath_phase,hotsprings.png,50.0,gatlinburg.png,westpalmbeach.png,1.0,westpalmbeach.png,Two Edge Diff,Four Edge Six Edge,Fictional,63af557b3d4f219c3226b7d6,young
1639.699999988079,shortestpath_phase,hanover.png,49.0,gatlinburg.png,newhope.png,1.0,gatlinburg.png,Three Edge Diff,Two Edge Five Edge,Fictional,63af557b3d4f219c3226b7d6,young
1932.0,shortestpath_phase,hotsprings.png,50.0,racine.png,leesburg.png,0.0,racine.png,One Edge Diff,Five Edge Six Edge,Fictional,63af557b3d4f219c3226b7d6,young
,shortestpath_phase,huntsville.png,,gatlinburg.png,carmel.png,0.0,gatlinburg.png,Four Edge Diff,Two Edge Six Edge,Fictional,5d2e3cdf6835130001aa16f0,old
2486.699999999255,shortestpath_phase,racine.png,50.0,leesburg.png,westpalmbeach.png,1.0,westpalmbeach.png,One Edge Diff,Two Edge Three Edge,Fictional,5d2e3cdf6835130001aa16f0,old
3138.5,shortestpath_phase,gatlinburg.png,50.0,boulder.png,newhope.png,1.0,newhope.png,One Edge Diff,Three Edge Four Edge,Fictional,5d2e3cdf6835130001aa16f0,old
2465.7000000001863,shortestpath_phase,cornwall.png,49.0,huntsville.png,carmel.png,0.0,carmel.png,Two Edge Diff,Three Edge Five Edge,Fictional,5d2e3cdf6835130001aa16f0,old
2759.2999999998137,shortestpath_phase,gatlinburg.png,49.0,westpalmbeach.png,cornwall.png,1.0,westpalmbeach.png,Three Edge Diff,Two Edge Five Edge,Fictional,5d2e3cdf6835130001aa16f0,old
2766.5,shortestpath_phase,boulder.png,49.0,peoria.png,hotsprings.png,1.0,peoria.png,Three Edge Diff,Three Edge Six Edge,Fictional,5d2e3cdf6835130001aa16f0,old
1905.2999999998135,shortestpath_phase,gatlinburg.png,49.0,carmel.png,huntsville.png,0.0,huntsville.png,Three Edge Diff,Three Edge Six Edge,Fictional,5d2e3cdf6835130001aa16f0,old
2610.7999999998137,shortestpath_phase,leesburg.png,50.0,newhope.png,hotsprings.png,0.0,newhope.png,Three Edge Diff,Three Edge Six Edge,Fictional,5d2e3cdf6835130001aa16f0,old
2765.600000000559,shortestpath_phase,gatlinburg.png,49.0,peoria.png,cornwall.png,1.0,peoria.png,Three Edge Diff,Two Edge Five Edge,Fictional,5d2e3cdf6835130001aa16f0,old
1687.7999999998135,shortestpath_phase,huntsville.png,50.0,cornwall.png,carmel.png,0.0,cornwall.png,One Edge Diff,Five Edge Six Edge,Fictional,5d2e3cdf6835130001aa16f0,old
1868.7999999998135,shortestpath_phase,hotsprings.png,49.0,shreveport.png,boulder.png,1.0,shreveport.png,Three Edge Diff,Two Edge Five Edge,Fictional,5d2e3cdf6835130001aa16f0,old
2583.199999999255,shortestpath_phase,huntsville.png,49.0,carmel.png,westpalmbeach.png,0.0,westpalmbeach.png,Four Edge Diff,Two Edge Six Edge,Fictional,5d2e3cdf6835130001aa16f0,old
3093.7000000001863,shortestpath_phase,cornwall.png,50.0,hotsprings.png,leesburg.png,1.0,leesburg.png,Four Edge Diff,Two Edge Six Edge,Fictional,5d2e3cdf6835130001aa16f0,old
1687.2000000001865,shortestpath_phase,gatlinburg.png,49.0,westpalmbeach.png,carmel.png,1.0,westpalmbeach.png,Three Edge Diff,Two Edge Five Edge,Fictional,5d2e3cdf6835130001aa16f0,old
2754.7999999998137,shortestpath_phase,hotsprings.png,49.0,leesburg.png,carmel.png,1.0,leesburg.png,One Edge Diff,Five Edge Six Edge,Fictional,5d2e3cdf6835130001aa16f0,old
2054.2000000001863,shortestpath_phase,shreveport.png,50.0,boulder.png,leesburg.png,0.0,boulder.png,One Edge Diff,Three Edge Four Edge,Fictional,5d2e3cdf6835130001aa16f0,old
2516.0,shortestpath_phase,carmel.png,50.0,gatlinburg.png,hanover.png,1.0,hanover.png,Three Edge Diff,Two Edge Five Edge,Fictional,5d2e3cdf6835130001aa16f0,old
2202.399999999441,shortestpath_phase,hotsprings.png,50.0,cornwall.png,shreveport.png,1.0,shreveport.png,Four Edge Diff,Two Edge Six Edge,Fictional,5d2e3cdf6835130001aa16f0,old
2801.5999999996275,shortestpath_phase,carmel.png,50.0,westpalmbeach.png,shreveport.png,0.0,westpalmbeach.png,One Edge Diff,Four Edge Five Edge,Fictional,5d2e3cdf6835130001aa16f0,old
1963.1000000005588,shortestpath_phase,gatlinburg.png,50.0,carmel.png,hanover.png,1.0,hanover.png,Two Edge Diff,Three Edge Five Edge,Fictional,5d2e3cdf6835130001aa16f0,old
1807.7999999998135,shortestpath_phase,hotsprings.png,49.0,boulder.png,cornwall.png,1.0,boulder.png,One Edge Diff,Five Edge Six Edge,Fictional,5d2e3cdf6835130001aa16f0,old
1966.4000000003723,shortestpath_phase,newhope.png,49.0,cornwall.png,carmel.png,1.0,cornwall.png,One Edge Diff,Two Edge Three Edge,Fictional,5d2e3cdf6835130001aa16f0,old
2512.0999999996275,shortestpath_phase,hotsprings.png,49.0,leesburg.png,cornwall.png,1.0,leesburg.png,One Edge Diff,Five Edge Six Edge,Fictional,5d2e3cdf6835130001aa16f0,old
2073.600000000559,shortestpath_phase,huntsville.png,50.0,cornwall.png,westpalmbeach.png,1.0,westpalmbeach.png,Three Edge Diff,Two Edge Five Edge,Fictional,5d2e3cdf6835130001aa16f0,old
2410.0,shortestpath_phase,shreveport.png,49.0,boulder.png,peoria.png,0.0,peoria.png,One Edge Diff,Two Edge Three Edge,Fictional,5d2e3cdf6835130001aa16f0,old
2223.5,shortestpath_phase,hanover.png,49.0,hotsprings.png,westpalmbeach.png,0.0,westpalmbeach.png,Two Edge Diff,Two Edge Four Edge,Fictional,5d2e3cdf6835130001aa16f0,old
2403.899999999441,shortestpath_phase,shreveport.png,49.0,peoria.png,cornwall.png,1.0,peoria.png,Two Edge Diff,Two Edge Four Edge,Fictional,5d2e3cdf6835130001aa16f0,old
1459.0,shortestpath_phase,cornwall.png,49.0,huntsville.png,newhope.png,0.0,newhope.png,Three Edge Diff,Three Edge Six Edge,Fictional,5d2e3cdf6835130001aa16f0,old
1275.0,shortestpath_phase,leesburg.png,50.0,huntsville.png,peoria.png,1.0,peoria.png,Three Edge Diff,Three Edge Six Edge,Fictional,5d2e3cdf6835130001aa16f0,old
1567.6000000005588,shortestpath_phase,shreveport.png,50.0,cornwall.png,hotsprings.png,1.0,hotsprings.png,Two Edge Diff,Two Edge Four Edge,Fictional,5d2e3cdf6835130001aa16f0,old
2429.7000000001863,shortestpath_phase,huntsville.png,49.0,gatlinburg.png,leesburg.png,1.0,gatlinburg.png,Three Edge Diff,Two Edge Five Edge,Fictional,5d2e3cdf6835130001aa16f0,old
2379.7999999998137,shortestpath_phase,hotsprings.png,50.0,cornwall.png,hanover.png,1.0,hanover.png,Two Edge Diff,Four Edge Six Edge,Fictional,5d2e3cdf6835130001aa16f0,old
1661.9000000003723,shortestpath_phase,gatlinburg.png,49.0,boulder.png,cornwall.png,1.0,boulder.png,One Edge Diff,Four Edge Five Edge,Fictional,5d2e3cdf6835130001aa16f0,old
1960.0999999996277,shortestpath_phase,cornwall.png,49.0,racine.png,hotsprings.png,1.0,racine.png,Two Edge Diff,Four Edge Six Edge,Fictional,5d2e3cdf6835130001aa16f0,old
2339.0999999996275,shortestpath_phase,hotsprings.png,49.0,newhope.png,cornwall.png,1.0,newhope.png,Two Edge Diff,Four Edge Six Edge,Fictional,5d2e3cdf6835130001aa16f0,old
2440.0,shortestpath_phase,carmel.png,49.0,hanover.png,huntsville.png,1.0,hanover.png,Four Edge Diff,Two Edge Six Edge,Fictional,5d2e3cdf6835130001aa16f0,old
1745.2999999998135,shortestpath_phase,leesburg.png,50.0,huntsville.png,westpalmbeach.png,1.0,westpalmbeach.png,Two Edge Diff,Three Edge Five Edge,Fictional,5d2e3cdf6835130001aa16f0,old
2125.5,shortestpath_phase,carmel.png,50.0,racine.png,huntsville.png,0.0,racine.png,Two Edge Diff,Four Edge Six Edge,Fictional,5d2e3cdf6835130001aa16f0,old
1871.7999999998135,shortestpath_phase,hotsprings.png,49.0,carmel.png,hanover.png,0.0,hanover.png,Two Edge Diff,Four Edge Six Edge,Fictional,5d2e3cdf6835130001aa16f0,old
2556.199999999255,shortestpath_phase,carmel.png,50.0,racine.png,hotsprings.png,0.0,racine.png,Two Edge Diff,Four Edge Six Edge,Fictional,5d2e3cdf6835130001aa16f0,old
2776.7999999998137,shortestpath_phase,huntsville.png,50.0,cornwall.png,westpalmbeach.png,1.0,westpalmbeach.png,Three Edge Diff,Three Edge Six Edge,Fictional,5d2e3cdf6835130001aa16f0,old
2824.7999999998137,shortestpath_phase,hotsprings.png,49.0,boulder.png,racine.png,0.0,racine.png,Three Edge Diff,Three Edge Six Edge,Fictional,5d2e3cdf6835130001aa16f0,old
2377.7000000001863,shortestpath_phase,cornwall.png,49.0,shreveport.png,gatlinburg.png,1.0,shreveport.png,One Edge Diff,Four Edge Five Edge,Fictional,5d2e3cdf6835130001aa16f0,old
1845.7000000001865,shortestpath_phase,leesburg.png,50.0,hotsprings.png,racine.png,1.0,racine.png,Two Edge Diff,Three Edge Five Edge,Fictional,5d2e3cdf6835130001aa16f0,old
2270.2999999998137,shortestpath_phase,carmel.png,50.0,hotsprings.png,hanover.png,1.0,hanover.png,Four Edge Diff,Two Edge Six Edge,Fictional,5d2e3cdf6835130001aa16f0,old
2196.0,shortestpath_phase,hotsprings.png,49.0,cornwall.png,racine.png,0.0,racine.png,Four Edge Diff,Two Edge Six Edge,Fictional,5d2e3cdf6835130001aa16f0,old
2414.899999999441,shortestpath_phase,huntsville.png,49.0,carmel.png,hanover.png,0.0,hanover.png,Two Edge Diff,Four Edge Six Edge,Fictional,5d2e3cdf6835130001aa16f0,old
1897.7000000001865,shortestpath_phase,cornwall.png,49.0,huntsville.png,peoria.png,0.0,peoria.png,Two Edge Diff,Three Edge Five Edge,Fictional,5d2e3cdf6835130001aa16f0,old
2578.7999999998137,shortestpath_phase,gatlinburg.png,49.0,huntsville.png,leesburg.png,1.0,huntsville.png,Two Edge Diff,Two Edge Four Edge,Fictional,5d2e3cdf6835130001aa16f0,old
1812.9000000003723,shortestpath_phase,cornwall.png,49.0,newhope.png,hotsprings.png,1.0,newhope.png,Four Edge Diff,Two Edge Six Edge,Fictional,5d2e3cdf6835130001aa16f0,old
2189.7000000001863,shortestpath_phase,boulder.png,50.0,huntsville.png,peoria.png,1.0,peoria.png,Two Edge Diff,Two Edge Four Edge,Fictional,5d2e3cdf6835130001aa16f0,old
2056.5,shortestpath_phase,leesburg.png,50.0,hotsprings.png,cornwall.png,1.0,cornwall.png,Three Edge Diff,Two Edge Five Edge,Fictional,5d2e3cdf6835130001aa16f0,old
1362.6000000005588,shortestpath_phase,shreveport.png,50.0,boulder.png,hotsprings.png,1.0,hotsprings.png,One Edge Diff,Two Edge Three Edge,Fictional,5d2e3cdf6835130001aa16f0,old
1420.0,shortestpath_phase,gatlinburg.png,49.0,westpalmbeach.png,cornwall.png,1.0,westpalmbeach.png,Three Edge Diff,Three Edge Six Edge,Fictional,5d2e3cdf6835130001aa16f0,old
1918.0,shortestpath_phase,carmel.png,49.0,shreveport.png,huntsville.png,1.0,shreveport.png,One Edge Diff,Five Edge Six Edge,Fictional,5d2e3cdf6835130001aa16f0,old
2001.5,shortestpath_phase,huntsville.png,50.0,boulder.png,peoria.png,1.0,peoria.png,One Edge Diff,Three Edge Four Edge,Fictional,5d2e3cdf6835130001aa16f0,old
1272.8999999994412,shortestpath_phase,shreveport.png,50.0,hotsprings.png,carmel.png,0.0,hotsprings.png,Three Edge Diff,Two Edge Five Edge,Fictional,5d2e3cdf6835130001aa16f0,old
1399.7999999998135,shortestpath_phase,leesburg.png,49.0,cornwall.png,huntsville.png,1.0,cornwall.png,Three Edge Diff,Three Edge Six Edge,Fictional,5d2e3cdf6835130001aa16f0,old
3182.0,shortestpath_phase,carmel.png,50.0,boulder.png,hotsprings.png,0.0,boulder.png,Four Edge Diff,Two Edge Six Edge,Fictional,5d2e3cdf6835130001aa16f0,old
1513.699999999255,shortestpath_phase,gatlinburg.png,49.0,newhope.png,carmel.png,1.0,newhope.png,Two Edge Diff,Three Edge Five Edge,Fictional,5d2e3cdf6835130001aa16f0,old
1949.7000000001865,shortestpath_phase,boulder.png,50.0,westpalmbeach.png,hotsprings.png,0.0,westpalmbeach.png,Three Edge Diff,Two Edge Five Edge,Fictional,5d2e3cdf6835130001aa16f0,old
1753.9000000003723,shortestpath_phase,leesburg.png,49.0,newhope.png,huntsville.png,1.0,newhope.png,Three Edge Diff,Two Edge Five Edge,Fictional,5d2e3cdf6835130001aa16f0,old
2120.0999999996275,shortestpath_phase,carmel.png,49.0,westpalmbeach.png,gatlinburg.png,1.0,westpalmbeach.png,One Edge Diff,Four Edge Five Edge,Fictional,5d2e3cdf6835130001aa16f0,old
1473.3999999994412,shortestpath_phase,huntsville.png,50.0,boulder.png,cornwall.png,0.0,boulder.png,One Edge Diff,Four Edge Five Edge,Fictional,5d2e3cdf6835130001aa16f0,old
1903.0,shortestpath_phase,cornwall.png,50.0,westpalmbeach.png,racine.png,0.0,westpalmbeach.png,One Edge Diff,Three Edge Four Edge,Fictional,5d2e3cdf6835130001aa16f0,old
1555.7000000001865,shortestpath_phase,racine.png,49.0,hanover.png,huntsville.png,1.0,hanover.png,One Edge Diff,Two Edge Three Edge,Fictional,5d2e3cdf6835130001aa16f0,old
1987.9000000003723,shortestpath_phase,boulder.png,50.0,westpalmbeach.png,hotsprings.png,0.0,westpalmbeach.png,Three Edge Diff,Three Edge Six Edge,Fictional,5d2e3cdf6835130001aa16f0,old
2617.2999999998137,shortestpath_phase,carmel.png,49.0,westpalmbeach.png,cornwall.png,0.0,cornwall.png,One Edge Diff,Three Edge Four Edge,Fictional,5d2e3cdf6835130001aa16f0,old
1282.7999999998135,shortestpath_phase,leesburg.png,50.0,huntsville.png,newhope.png,1.0,newhope.png,Three Edge Diff,Three Edge Six Edge,Fictional,5d2e3cdf6835130001aa16f0,old
1228.5,shortestpath_phase,cornwall.png,50.0,hanover.png,gatlinburg.png,0.0,hanover.png,Three Edge Diff,Three Edge Six Edge,Fictional,5d2e3cdf6835130001aa16f0,old
2058.7000000001863,shortestpath_phase,hotsprings.png,49.0,leesburg.png,peoria.png,0.0,peoria.png,Two Edge Diff,Three Edge Five Edge,Fictional,5d2e3cdf6835130001aa16f0,old
1625.5,shortestpath_phase,carmel.png,49.0,boulder.png,huntsville.png,1.0,boulder.png,Four Edge Diff,Two Edge Six Edge,Fictional,5d2e3cdf6835130001aa16f0,old
2021.3999999994412,shortestpath_phase,westpalmbeach.png,50.0,carmel.png,hotsprings.png,1.0,hotsprings.png,One Edge Diff,Three Edge Four Edge,Fictional,5d2e3cdf6835130001aa16f0,old
2449.9000000003725,shortestpath_phase,boulder.png,50.0,hotsprings.png,peoria.png,1.0,peoria.png,Three Edge Diff,Two Edge Five Edge,Fictional,5d2e3cdf6835130001aa16f0,old
1966.5999999996277,shortestpath_phase,carmel.png,49.0,westpalmbeach.png,hanover.png,0.0,hanover.png,Two Edge Diff,Two Edge Four Edge,Fictional,5d2e3cdf6835130001aa16f0,old
3410.0,shortestpath_phase,leesburg.png,50.0,huntsville.png,shreveport.png,1.0,shreveport.png,One Edge Diff,Four Edge Five Edge,Fictional,5d2e3cdf6835130001aa16f0,old
1598.7999999998135,shortestpath_phase,boulder.png,49.0,gatlinburg.png,westpalmbeach.png,0.0,westpalmbeach.png,Two Edge Diff,Two Edge Four Edge,Fictional,5d2e3cdf6835130001aa16f0,old
1748.7000000001865,shortestpath_phase,peoria.png,50.0,cornwall.png,shreveport.png,1.0,shreveport.png,One Edge Diff,Two Edge Three Edge,Fictional,5d2e3cdf6835130001aa16f0,old
2139.7000000001863,shortestpath_phase,cornwall.png,49.0,racine.png,leesburg.png,0.0,leesburg.png,Two Edge Diff,Two Edge Four Edge,Fictional,5d2e3cdf6835130001aa16f0,old
2188.899999999441,shortestpath_phase,huntsville.png,49.0,leesburg.png,racine.png,0.0,racine.png,Two Edge Diff,Three Edge Five Edge,Fictional,5d2e3cdf6835130001aa16f0,old
2491.2000000001863,shortestpath_phase,cornwall.png,49.0,hanover.png,hotsprings.png,1.0,hanover.png,Four Edge Diff,Two Edge Six Edge,Fictional,5d2e3cdf6835130001aa16f0,old
2070.2999999998137,shortestpath_phase,huntsville.png,49.0,carmel.png,leesburg.png,0.0,leesburg.png,One Edge Diff,Five Edge Six Edge,Fictional,5d2e3cdf6835130001aa16f0,old
2272.600000000559,shortestpath_phase,hotsprings.png,49.0,shreveport.png,carmel.png,1.0,shreveport.png,Four Edge Diff,Two Edge Six Edge,Fictional,5d2e3cdf6835130001aa16f0,old
1547.2999999998135,shortestpath_phase,huntsville.png,50.0,carmel.png,boulder.png,1.0,boulder.png,Two Edge Diff,Four Edge Six Edge,Fictional,5d2e3cdf6835130001aa16f0,old
7195.300000000279,shortestpath_phase,cornwall.png,49.0,boulder.png,racine.png,1.0,boulder.png,Two Edge Diff,Three Edge Five Edge,Fictional,5b8c611e4cd6dd0001bec307,young
7415.200000000186,shortestpath_phase,carmel.png,49.0,huntsville.png,hanover.png,1.0,huntsville.png,One Edge Diff,Three Edge Four Edge,Fictional,5b8c611e4cd6dd0001bec307,young
5339.700000000186,shortestpath_phase,shreveport.png,50.0,hanover.png,newhope.png,1.0,newhope.png,Three Edge Diff,Three Edge Six Edge,Fictional,5b8c611e4cd6dd0001bec307,young
,shortestpath_phase,westpalmbeach.png,,peoria.png,huntsville.png,0.0,peoria.png,One Edge Diff,Four Edge Five Edge,Fictional,5b8c611e4cd6dd0001bec307,young
2503.899999999907,shortestpath_phase,newhope.png,49.0,hanover.png,racine.png,1.0,hanover.png,One Edge Diff,Three Edge Four Edge,Fictional,5b8c611e4cd6dd0001bec307,young
3243.600000000093,shortestpath_phase,westpalmbeach.png,50.0,racine.png,boulder.png,1.0,boulder.png,One Edge Diff,Five Edge Six Edge,Fictional,5b8c611e4cd6dd0001bec307,young
2178.2000000001863,shortestpath_phase,hanover.png,50.0,westpalmbeach.png,huntsville.png,1.0,huntsville.png,Four Edge Diff,Two Edge Six Edge,Fictional,5b8c611e4cd6dd0001bec307,young
3202.600000000093,shortestpath_phase,westpalmbeach.png,50.0,hanover.png,cornwall.png,1.0,cornwall.png,Four Edge Diff,Two Edge Six Edge,Fictional,5b8c611e4cd6dd0001bec307,young
1639.1000000000931,shortestpath_phase,shreveport.png,50.0,racine.png,boulder.png,1.0,boulder.png,Two Edge Diff,Four Edge Six Edge,Fictional,5b8c611e4cd6dd0001bec307,young
3591.7999999998137,shortestpath_phase,westpalmbeach.png,50.0,huntsville.png,hanover.png,0.0,huntsville.png,One Edge Diff,Five Edge Six Edge,Fictional,5b8c611e4cd6dd0001bec307,young
2339.100000000093,shortestpath_phase,racine.png,49.0,hotsprings.png,leesburg.png,0.0,leesburg.png,Two Edge Diff,Three Edge Five Edge,Fictional,5b8c611e4cd6dd0001bec307,young
2985.5,shortestpath_phase,peoria.png,50.0,shreveport.png,cornwall.png,1.0,cornwall.png,One Edge Diff,Three Edge Four Edge,Fictional,5b8c611e4cd6dd0001bec307,young
2494.8000000002794,shortestpath_phase,hotsprings.png,50.0,leesburg.png,newhope.png,1.0,newhope.png,One Edge Diff,Two Edge Three Edge,Fictional,5b8c611e4cd6dd0001bec307,young
2739.0999999996275,shortestpath_phase,racine.png,50.0,westpalmbeach.png,peoria.png,1.0,peoria.png,Four Edge Diff,Two Edge Six Edge,Fictional,5b8c611e4cd6dd0001bec307,young
2078.0,shortestpath_phase,westpalmbeach.png,50.0,racine.png,cornwall.png,1.0,cornwall.png,Four Edge Diff,Two Edge Six Edge,Fictional,5b8c611e4cd6dd0001bec307,young
1732.1000000000931,shortestpath_phase,hanover.png,49.0,hotsprings.png,peoria.png,0.0,peoria.png,Three Edge Diff,Three Edge Six Edge,Fictional,5b8c611e4cd6dd0001bec307,young
2893.899999999907,shortestpath_phase,racine.png,50.0,boulder.png,shreveport.png,0.0,boulder.png,Four Edge Diff,Two Edge Six Edge,Fictional,5b8c611e4cd6dd0001bec307,young
1959.5,shortestpath_phase,cornwall.png,49.0,peoria.png,racine.png,1.0,peoria.png,Two Edge Diff,Three Edge Five Edge,Fictional,5b8c611e4cd6dd0001bec307,young
3003.1999999997206,shortestpath_phase,hotsprings.png,50.0,boulder.png,racine.png,0.0,boulder.png,One Edge Diff,Four Edge Five Edge,Fictional,5b8c611e4cd6dd0001bec307,young
2136.600000000093,shortestpath_phase,hanover.png,50.0,cornwall.png,westpalmbeach.png,0.0,cornwall.png,Two Edge Diff,Four Edge Six Edge,Fictional,5b8c611e4cd6dd0001bec307,young
1807.8000000002792,shortestpath_phase,gatlinburg.png,49.0,shreveport.png,leesburg.png,0.0,leesburg.png,One Edge Diff,Two Edge Three Edge,Fictional,5b8c611e4cd6dd0001bec307,young
1600.2000000001865,shortestpath_phase,racine.png,49.0,westpalmbeach.png,newhope.png,0.0,newhope.png,Two Edge Diff,Four Edge Six Edge,Fictional,5b8c611e4cd6dd0001bec307,young
1808.7000000001865,shortestpath_phase,carmel.png,50.0,peoria.png,shreveport.png,0.0,peoria.png,One Edge Diff,Two Edge Three Edge,Fictional,5b8c611e4cd6dd0001bec307,young
1677.8000000002794,shortestpath_phase,huntsville.png,49.0,gatlinburg.png,westpalmbeach.png,1.0,gatlinburg.png,Three Edge Diff,Three Edge Six Edge,Fictional,5b8c611e4cd6dd0001bec307,young
1717.1000000000931,shortestpath_phase,racine.png,49.0,shreveport.png,newhope.png,0.0,newhope.png,Two Edge Diff,Four Edge Six Edge,Fictional,5b8c611e4cd6dd0001bec307,young
2455.3000000002794,shortestpath_phase,huntsville.png,50.0,shreveport.png,carmel.png,1.0,carmel.png,Two Edge Diff,Three Edge Five Edge,Fictional,5b8c611e4cd6dd0001bec307,young
2616.399999999907,shortestpath_phase,hanover.png,50.0,westpalmbeach.png,peoria.png,1.0,peoria.png,Four Edge Diff,Two Edge Six Edge,Fictional,5b8c611e4cd6dd0001bec307,young
2896.899999999907,shortestpath_phase,shreveport.png,50.0,hanover.png,leesburg.png,1.0,leesburg.png,Two Edge Diff,Three Edge Five Edge,Fictional,5b8c611e4cd6dd0001bec307,young
2533.100000000093,shortestpath_phase,racine.png,50.0,hotsprings.png,westpalmbeach.png,0.0,hotsprings.png,One Edge Diff,Five Edge Six Edge,Fictional,5b8c611e4cd6dd0001bec307,young
2353.1999999997206,shortestpath_phase,westpalmbeach.png,50.0,huntsville.png,carmel.png,1.0,carmel.png,Three Edge Diff,Three Edge Six Edge,Fictional,5b8c611e4cd6dd0001bec307,young
2450.2999999998137,shortestpath_phase,shreveport.png,50.0,huntsville.png,hotsprings.png,1.0,hotsprings.png,Three Edge Diff,Three Edge Six Edge,Fictional,5b8c611e4cd6dd0001bec307,young
1599.8999999999069,shortestpath_phase,huntsville.png,49.0,westpalmbeach.png,leesburg.png,0.0,leesburg.png,Three Edge Diff,Three Edge Six Edge,Fictional,5b8c611e4cd6dd0001bec307,young
3015.0999999996275,shortestpath_phase,shreveport.png,50.0,gatlinburg.png,huntsville.png,0.0,gatlinburg.png,Two Edge Diff,Three Edge Five Edge,Fictional,5b8c611e4cd6dd0001bec307,young
1805.2000000001865,shortestpath_phase,huntsville.png,49.0,hanover.png,westpalmbeach.png,1.0,hanover.png,Three Edge Diff,Three Edge Six Edge,Fictional,5b8c611e4cd6dd0001bec307,young
1829.7999999998135,shortestpath_phase,cornwall.png,49.0,gatlinburg.png,racine.png,1.0,gatlinburg.png,Three Edge Diff,Two Edge Five Edge,Fictional,5b8c611e4cd6dd0001bec307,young
2492.100000000093,shortestpath_phase,boulder.png,49.0,shreveport.png,westpalmbeach.png,1.0,shreveport.png,One Edge Diff,Four Edge Five Edge,Fictional,5b8c611e4cd6dd0001bec307,young
1882.3999999999069,shortestpath_phase,carmel.png,49.0,peoria.png,racine.png,1.0,peoria.png,Two Edge Diff,Two Edge Four Edge,Fictional,5b8c611e4cd6dd0001bec307,young
1535.1999999997206,shortestpath_phase,shreveport.png,50.0,peoria.png,newhope.png,1.0,newhope.png,Two Edge Diff,Two Edge Four Edge,Fictional,5b8c611e4cd6dd0001bec307,young
2161.0999999996275,shortestpath_phase,racine.png,50.0,westpalmbeach.png,boulder.png,1.0,boulder.png,Four Edge Diff,Two Edge Six Edge,Fictional,5b8c611e4cd6dd0001bec307,young
2047.1999999997208,shortestpath_phase,cornwall.png,50.0,racine.png,hanover.png,1.0,hanover.png,One Edge Diff,Four Edge Five Edge,Fictional,5b8c611e4cd6dd0001bec307,young
2481.7000000001863,shortestpath_phase,racine.png,50.0,leesburg.png,newhope.png,0.0,leesburg.png,One Edge Diff,Three Edge Four Edge,Fictional,5b8c611e4cd6dd0001bec307,young
1392.1999999997206,shortestpath_phase,boulder.png,49.0,gatlinburg.png,westpalmbeach.png,1.0,gatlinburg.png,Three Edge Diff,Three Edge Six Edge,Fictional,5b8c611e4cd6dd0001bec307,young
1512.3000000002794,shortestpath_phase,racine.png,49.0,shreveport.png,cornwall.png,0.0,cornwall.png,One Edge Diff,Five Edge Six Edge,Fictional,5b8c611e4cd6dd0001bec307,young
1997.0,shortestpath_phase,newhope.png,49.0,peoria.png,racine.png,1.0,peoria.png,Two Edge Diff,Two Edge Four Edge,Fictional,5b8c611e4cd6dd0001bec307,young
1741.6999999997206,shortestpath_phase,racine.png,49.0,shreveport.png,carmel.png,0.0,carmel.png,Two Edge Diff,Four Edge Six Edge,Fictional,5b8c611e4cd6dd0001bec307,young
1588.2999999998135,shortestpath_phase,hotsprings.png,50.0,racine.png,gatlinburg.png,1.0,gatlinburg.png,Three Edge Diff,Three Edge Six Edge,Fictional,5b8c611e4cd6dd0001bec307,young
2175.6999999997206,shortestpath_phase,hanover.png,49.0,leesburg.png,newhope.png,1.0,leesburg.png,One Edge Diff,Two Edge Three Edge,Fictional,5b8c611e4cd6dd0001bec307,young
1622.5,shortestpath_phase,hotsprings.png,50.0,racine.png,huntsville.png,1.0,huntsville.png,One Edge Diff,Four Edge Five Edge,Fictional,5b8c611e4cd6dd0001bec307,young
1603.5999999996277,shortestpath_phase,westpalmbeach.png,50.0,leesburg.png,hanover.png,0.0,leesburg.png,Two Edge Diff,Four Edge Six Edge,Fictional,5b8c611e4cd6dd0001bec307,young
1834.5,shortestpath_phase,huntsville.png,50.0,hotsprings.png,hanover.png,1.0,hanover.png,Two Edge Diff,Two Edge Four Edge,Fictional,5b8c611e4cd6dd0001bec307,young
2275.2000000001863,shortestpath_phase,newhope.png,50.0,hanover.png,carmel.png,1.0,carmel.png,One Edge Diff,Two Edge Three Edge,Fictional,5b8c611e4cd6dd0001bec307,young
1839.1999999997208,shortestpath_phase,cornwall.png,49.0,westpalmbeach.png,racine.png,1.0,westpalmbeach.png,Three Edge Diff,Three Edge Six Edge,Fictional,5b8c611e4cd6dd0001bec307,young
1098.2000000001865,shortestpath_phase,huntsville.png,49.0,newhope.png,gatlinburg.png,0.0,gatlinburg.png,One Edge Diff,Two Edge Three Edge,Fictional,5b8c611e4cd6dd0001bec307,young
1869.3000000002792,shortestpath_phase,racine.png,49.0,westpalmbeach.png,cornwall.png,0.0,cornwall.png,One Edge Diff,Five Edge Six Edge,Fictional,5b8c611e4cd6dd0001bec307,young
1334.5,shortestpath_phase,hanover.png,50.0,leesburg.png,westpalmbeach.png,0.0,leesburg.png,Four Edge Diff,Two Edge Six Edge,Fictional,5b8c611e4cd6dd0001bec307,young
1672.0,shortestpath_phase,shreveport.png,49.0,hotsprings.png,racine.png,1.0,hotsprings.png,Four Edge Diff,Two Edge Six Edge,Fictional,5b8c611e4cd6dd0001bec307,young
2065.600000000093,shortestpath_phase,westpalmbeach.png,50.0,newhope.png,huntsville.png,0.0,newhope.png,Two Edge Diff,Three Edge Five Edge,Fictional,5b8c611e4cd6dd0001bec307,young
2073.100000000093,shortestpath_phase,hotsprings.png,49.0,hanover.png,shreveport.png,0.0,shreveport.png,Three Edge Diff,Two Edge Five Edge,Fictional,5b8c611e4cd6dd0001bec307,young
1954.8000000002792,shortestpath_phase,hanover.png,50.0,shreveport.png,leesburg.png,1.0,leesburg.png,Three Edge Diff,Two Edge Five Edge,Fictional,5b8c611e4cd6dd0001bec307,young
1485.0,shortestpath_phase,westpalmbeach.png,49.0,boulder.png,hanover.png,1.0,boulder.png,One Edge Diff,Five Edge Six Edge,Fictional,5b8c611e4cd6dd0001bec307,young
1728.2999999998135,shortestpath_phase,hanover.png,49.0,huntsville.png,shreveport.png,1.0,huntsville.png,Three Edge Diff,Two Edge Five Edge,Fictional,5b8c611e4cd6dd0001bec307,young
1753.5,shortestpath_phase,westpalmbeach.png,50.0,carmel.png,hanover.png,0.0,carmel.png,Four Edge Diff,Two Edge Six Edge,Fictional,5b8c611e4cd6dd0001bec307,young
1712.3999999999069,shortestpath_phase,hotsprings.png,49.0,newhope.png,huntsville.png,1.0,newhope.png,Two Edge Diff,Two Edge Four Edge,Fictional,5b8c611e4cd6dd0001bec307,young
1973.9000000003723,shortestpath_phase,westpalmbeach.png,50.0,racine.png,carmel.png,1.0,carmel.png,Four Edge Diff,Two Edge Six Edge,Fictional,5b8c611e4cd6dd0001bec307,young
1950.6000000000931,shortestpath_phase,hotsprings.png,50.0,newhope.png,boulder.png,0.0,newhope.png,Two Edge Diff,Two Edge Four Edge,Fictional,5b8c611e4cd6dd0001bec307,young
1855.2000000001865,shortestpath_phase,westpalmbeach.png,50.0,carmel.png,boulder.png,0.0,carmel.png,Three Edge Diff,Two Edge Five Edge,Fictional,5b8c611e4cd6dd0001bec307,young
1777.8000000002794,shortestpath_phase,boulder.png,50.0,westpalmbeach.png,gatlinburg.png,1.0,gatlinburg.png,Three Edge Diff,Two Edge Five Edge,Fictional,5b8c611e4cd6dd0001bec307,young
3049.600000000093,shortestpath_phase,shreveport.png,50.0,hotsprings.png,hanover.png,0.0,hotsprings.png,Three Edge Diff,Two Edge Five Edge,Fictional,5b8c611e4cd6dd0001bec307,young
2119.899999999907,shortestpath_phase,cornwall.png,49.0,carmel.png,hanover.png,1.0,carmel.png,Two Edge Diff,Two Edge Four Edge,Fictional,5b8c611e4cd6dd0001bec307,young
2296.100000000093,shortestpath_phase,shreveport.png,50.0,westpalmbeach.png,hanover.png,0.0,westpalmbeach.png,Two Edge Diff,Three Edge Five Edge,Fictional,5b8c611e4cd6dd0001bec307,young
2214.5999999996275,shortestpath_phase,hotsprings.png,49.0,gatlinburg.png,hanover.png,1.0,gatlinburg.png,Three Edge Diff,Three Edge Six Edge,Fictional,5b8c611e4cd6dd0001bec307,young
1378.3999999999069,shortestpath_phase,shreveport.png,49.0,newhope.png,racine.png,1.0,newhope.png,Four Edge Diff,Two Edge Six Edge,Fictional,5b8c611e4cd6dd0001bec307,young
2013.8999999999069,shortestpath_phase,hotsprings.png,50.0,racine.png,gatlinburg.png,1.0,gatlinburg.png,Three Edge Diff,Two Edge Five Edge,Fictional,5b8c611e4cd6dd0001bec307,young
2131.1999999997206,shortestpath_phase,huntsville.png,49.0,leesburg.png,westpalmbeach.png,1.0,leesburg.png,Three Edge Diff,Two Edge Five Edge,Fictional,5b8c611e4cd6dd0001bec307,young
1262.6000000000931,shortestpath_phase,shreveport.png,49.0,huntsville.png,newhope.png,0.0,newhope.png,Three Edge Diff,Two Edge Five Edge,Fictional,5b8c611e4cd6dd0001bec307,young
2678.399999999907,shortestpath_phase,westpalmbeach.png,49.0,boulder.png,leesburg.png,0.0,leesburg.png,One Edge Diff,Four Edge Five Edge,Fictional,5b8c611e4cd6dd0001bec307,young
2061.600000000093,shortestpath_phase,cornwall.png,50.0,racine.png,gatlinburg.png,1.0,gatlinburg.png,Three Edge Diff,Three Edge Six Edge,Fictional,5b8c611e4cd6dd0001bec307,young
1810.2999999998135,shortestpath_phase,westpalmbeach.png,49.0,leesburg.png,racine.png,1.0,leesburg.png,Two Edge Diff,Four Edge Six Edge,Fictional,5b8c611e4cd6dd0001bec307,young
1064.0,shortestpath_phase,carmel.png,50.0,hanover.png,shreveport.png,1.0,shreveport.png,One Edge Diff,Three Edge Four Edge,Fictional,5b8c611e4cd6dd0001bec307,young
1558.1000000000931,shortestpath_phase,boulder.png,50.0,westpalmbeach.png,newhope.png,1.0,newhope.png,Three Edge Diff,Two Edge Five Edge,Fictional,5b8c611e4cd6dd0001bec307,young
1116.5,shortestpath_phase,leesburg.png,50.0,westpalmbeach.png,hanover.png,1.0,hanover.png,Two Edge Diff,Two Edge Four Edge,Fictional,5b8c611e4cd6dd0001bec307,young
1722.1000000000931,shortestpath_phase,westpalmbeach.png,50.0,racine.png,peoria.png,1.0,peoria.png,Two Edge Diff,Four Edge Six Edge,Fictional,5b8c611e4cd6dd0001bec307,young
1536.7999999998135,shortestpath_phase,carmel.png,49.0,leesburg.png,racine.png,1.0,leesburg.png,One Edge Diff,Three Edge Four Edge,Fictional,5b8c611e4cd6dd0001bec307,young
1455.0,shortestpath_phase,hanover.png,50.0,shreveport.png,peoria.png,1.0,peoria.png,Three Edge Diff,Two Edge Five Edge,Fictional,5b8c611e4cd6dd0001bec307,young
2127.0,shortestpath_phase,shreveport.png,50.0,racine.png,hotsprings.png,0.0,racine.png,Two Edge Diff,Two Edge Four Edge,Fictional,652d3c440e9e1391e8840a53,old
2238.5,shortestpath_phase,westpalmbeach.png,49.0,hanover.png,hotsprings.png,0.0,hotsprings.png,Three Edge Diff,Three Edge Six Edge,Fictional,652d3c440e9e1391e8840a53,old
2468.7999999523163,shortestpath_phase,boulder.png,49.0,cornwall.png,carmel.png,0.0,carmel.png,One Edge Diff,Five Edge Six Edge,Fictional,652d3c440e9e1391e8840a53,old
2595.399999856949,shortestpath_phase,hanover.png,49.0,boulder.png,hotsprings.png,0.0,hotsprings.png,One Edge Diff,Five Edge Six Edge,Fictional,652d3c440e9e1391e8840a53,old
1069.2999999523165,shortestpath_phase,boulder.png,50.0,hanover.png,leesburg.png,1.0,leesburg.png,Four Edge Diff,Two Edge Six Edge,Fictional,652d3c440e9e1391e8840a53,old
1890.0999999046328,shortestpath_phase,hotsprings.png,50.0,hanover.png,gatlinburg.png,1.0,gatlinburg.png,Three Edge Diff,Two Edge Five Edge,Fictional,652d3c440e9e1391e8840a53,old
1625.5,shortestpath_phase,shreveport.png,49.0,westpalmbeach.png,boulder.png,1.0,westpalmbeach.png,One Edge Diff,Four Edge Five Edge,Fictional,652d3c440e9e1391e8840a53,old
1739.9000000953674,shortestpath_phase,hotsprings.png,50.0,cornwall.png,gatlinburg.png,1.0,gatlinburg.png,Four Edge Diff,Two Edge Six Edge,Fictional,652d3c440e9e1391e8840a53,old
1285.6999998092651,shortestpath_phase,cornwall.png,50.0,racine.png,westpalmbeach.png,0.0,racine.png,Three Edge Diff,Two Edge Five Edge,Fictional,652d3c440e9e1391e8840a53,old
769.1000001430511,shortestpath_phase,westpalmbeach.png,49.0,hotsprings.png,hanover.png,1.0,hotsprings.png,Three Edge Diff,Two Edge Five Edge,Fictional,652d3c440e9e1391e8840a53,old
687.3999998569489,shortestpath_phase,cornwall.png,50.0,westpalmbeach.png,huntsville.png,1.0,huntsville.png,Two Edge Diff,Three Edge Five Edge,Fictional,652d3c440e9e1391e8840a53,old
923.0999999046326,shortestpath_phase,hotsprings.png,49.0,shreveport.png,hanover.png,1.0,shreveport.png,One Edge Diff,Four Edge Five Edge,Fictional,652d3c440e9e1391e8840a53,old
701.5,shortestpath_phase,cornwall.png,49.0,westpalmbeach.png,peoria.png,0.0,peoria.png,Two Edge Diff,Three Edge Five Edge,Fictional,652d3c440e9e1391e8840a53,old
1479.4000000953674,shortestpath_phase,carmel.png,50.0,boulder.png,huntsville.png,1.0,huntsville.png,Three Edge Diff,Three Edge Six Edge,Fictional,652d3c440e9e1391e8840a53,old
1443.7000000476835,shortestpath_phase,peoria.png,50.0,westpalmbeach.png,hanover.png,0.0,westpalmbeach.png,One Edge Diff,Two Edge Three Edge,Fictional,652d3c440e9e1391e8840a53,old
1122.2999999523165,shortestpath_phase,hanover.png,50.0,newhope.png,hotsprings.png,0.0,newhope.png,One Edge Diff,Four Edge Five Edge,Fictional,652d3c440e9e1391e8840a53,old
1902.8999998569489,shortestpath_phase,gatlinburg.png,50.0,cornwall.png,peoria.png,1.0,peoria.png,Two Edge Diff,Two Edge Four Edge,Fictional,652d3c440e9e1391e8840a53,old
1602.7000000476835,shortestpath_phase,hotsprings.png,49.0,hanover.png,cornwall.png,1.0,hanover.png,One Edge Diff,Five Edge Six Edge,Fictional,652d3c440e9e1391e8840a53,old
1596.4000000953674,shortestpath_phase,boulder.png,50.0,cornwall.png,leesburg.png,1.0,leesburg.png,Four Edge Diff,Two Edge Six Edge,Fictional,652d3c440e9e1391e8840a53,old
2065.900000095367,shortestpath_phase,hanover.png,50.0,huntsville.png,boulder.png,0.0,huntsville.png,Four Edge Diff,Two Edge Six Edge,Fictional,652d3c440e9e1391e8840a53,old
1937.4000000953672,shortestpath_phase,racine.png,49.0,newhope.png,hotsprings.png,1.0,newhope.png,Two Edge Diff,Two Edge Four Edge,Fictional,652d3c440e9e1391e8840a53,old
1602.5,shortestpath_phase,cornwall.png,49.0,leesburg.png,hanover.png,0.0,hanover.png,Two Edge Diff,Three Edge Five Edge,Fictional,652d3c440e9e1391e8840a53,old
1672.0,shortestpath_phase,boulder.png,50.0,hanover.png,racine.png,1.0,racine.png,Two Edge Diff,Four Edge Six Edge,Fictional,652d3c440e9e1391e8840a53,old
2342.2999999523163,shortestpath_phase,hanover.png,49.0,cornwall.png,westpalmbeach.png,1.0,cornwall.png,Two Edge Diff,Three Edge Five Edge,Fictional,652d3c440e9e1391e8840a53,old
1601.9000000953674,shortestpath_phase,carmel.png,49.0,newhope.png,leesburg.png,1.0,newhope.png,One Edge Diff,Three Edge Four Edge,Fictional,652d3c440e9e1391e8840a53,old
1504.5,shortestpath_phase,hanover.png,49.0,leesburg.png,boulder.png,1.0,leesburg.png,Two Edge Diff,Four Edge Six Edge,Fictional,652d3c440e9e1391e8840a53,old
2059.099999904633,shortestpath_phase,cornwall.png,49.0,leesburg.png,racine.png,0.0,racine.png,Three Edge Diff,Two Edge Five Edge,Fictional,652d3c440e9e1391e8840a53,old
1860.7000000476835,shortestpath_phase,carmel.png,50.0,peoria.png,hotsprings.png,0.0,peoria.png,Three Edge Diff,Three Edge Six Edge,Fictional,652d3c440e9e1391e8840a53,old
1525.7999999523165,shortestpath_phase,hotsprings.png,49.0,carmel.png,westpalmbeach.png,0.0,westpalmbeach.png,Three Edge Diff,Two Edge Five Edge,Fictional,652d3c440e9e1391e8840a53,old
1651.7999999523165,shortestpath_phase,boulder.png,49.0,carmel.png,leesburg.png,0.0,leesburg.png,Three Edge Diff,Three Edge Six Edge,Fictional,652d3c440e9e1391e8840a53,old
1228.0999999046326,shortestpath_phase,cornwall.png,50.0,racine.png,gatlinburg.png,0.0,racine.png,Two Edge Diff,Two Edge Four Edge,Fictional,652d3c440e9e1391e8840a53,old
1449.0,shortestpath_phase,carmel.png,50.0,westpalmbeach.png,hotsprings.png,0.0,westpalmbeach.png,One Edge Diff,Four Edge Five Edge,Fictional,652d3c440e9e1391e8840a53,old
1515.5,shortestpath_phase,cornwall.png,50.0,leesburg.png,shreveport.png,1.0,shreveport.png,Three Edge Diff,Three Edge Six Edge,Fictional,652d3c440e9e1391e8840a53,old
1159.7000000476835,shortestpath_phase,hotsprings.png,49.0,carmel.png,westpalmbeach.png,0.0,westpalmbeach.png,Three Edge Diff,Three Edge Six Edge,Fictional,652d3c440e9e1391e8840a53,old
1109.7000000476835,shortestpath_phase,newhope.png,50.0,carmel.png,hanover.png,0.0,carmel.png,One Edge Diff,Three Edge Four Edge,Fictional,652d3c440e9e1391e8840a53,old
1437.0999999046326,shortestpath_phase,shreveport.png,49.0,racine.png,boulder.png,1.0,racine.png,Three Edge Diff,Two Edge Five Edge,Fictional,652d3c440e9e1391e8840a53,old
1129.0,shortestpath_phase,hotsprings.png,49.0,newhope.png,hanover.png,1.0,newhope.png,Three Edge Diff,Three Edge Six Edge,Fictional,652d3c440e9e1391e8840a53,old
920.5,shortestpath_phase,hanover.png,50.0,carmel.png,newhope.png,0.0,carmel.png,Two Edge Diff,Two Edge Four Edge,Fictional,652d3c440e9e1391e8840a53,old
1318.6999998092651,shortestpath_phase,hotsprings.png,49.0,shreveport.png,peoria.png,0.0,peoria.png,One Edge Diff,Three Edge Four Edge,Fictional,652d3c440e9e1391e8840a53,old
1246.2999999523165,shortestpath_phase,carmel.png,50.0,hanover.png,newhope.png,0.0,hanover.png,One Edge Diff,Two Edge Three Edge,Fictional,652d3c440e9e1391e8840a53,old
1169.1000001430511,shortestpath_phase,boulder.png,49.0,newhope.png,carmel.png,1.0,newhope.png,Three Edge Diff,Three Edge Six Edge,Fictional,652d3c440e9e1391e8840a53,old
1199.7000000476835,shortestpath_phase,hanover.png,50.0,boulder.png,carmel.png,1.0,carmel.png,Four Edge Diff,Two Edge Six Edge,Fictional,652d3c440e9e1391e8840a53,old
1436.0999999046326,shortestpath_phase,hotsprings.png,50.0,carmel.png,newhope.png,1.0,newhope.png,Three Edge Diff,Two Edge Five Edge,Fictional,652d3c440e9e1391e8840a53,old
1317.6000001430511,shortestpath_phase,hanover.png,50.0,westpalmbeach.png,huntsville.png,1.0,huntsville.png,Three Edge Diff,Two Edge Five Edge,Fictional,652d3c440e9e1391e8840a53,old
1198.8999998569489,shortestpath_phase,hotsprings.png,49.0,gatlinburg.png,racine.png,1.0,gatlinburg.png,Two Edge Diff,Two Edge Four Edge,Fictional,652d3c440e9e1391e8840a53,old
1420.2000000476835,shortestpath_phase,hanover.png,49.0,newhope.png,boulder.png,1.0,newhope.png,Two Edge Diff,Four Edge Six Edge,Fictional,652d3c440e9e1391e8840a53,old
1238.6999998092651,shortestpath_phase,westpalmbeach.png,50.0,cornwall.png,gatlinburg.png,1.0,gatlinburg.png,Three Edge Diff,Two Edge Five Edge,Fictional,652d3c440e9e1391e8840a53,old
1546.0999999046326,shortestpath_phase,huntsville.png,50.0,westpalmbeach.png,leesburg.png,1.0,leesburg.png,One Edge Diff,Two Edge Three Edge,Fictional,652d3c440e9e1391e8840a53,old
1128.2999999523165,shortestpath_phase,hanover.png,50.0,cornwall.png,carmel.png,1.0,carmel.png,One Edge Diff,Two Edge Three Edge,Fictional,652d3c440e9e1391e8840a53,old
789.2999999523163,shortestpath_phase,cornwall.png,49.0,huntsville.png,leesburg.png,1.0,huntsville.png,Two Edge Diff,Three Edge Five Edge,Fictional,652d3c440e9e1391e8840a53,old
1646.0999999046326,shortestpath_phase,hotsprings.png,49.0,newhope.png,cornwall.png,1.0,newhope.png,Four Edge Diff,Two Edge Six Edge,Fictional,652d3c440e9e1391e8840a53,old
2094.5,shortestpath_phase,huntsville.png,49.0,carmel.png,hotsprings.png,1.0,carmel.png,One Edge Diff,Two Edge Three Edge,Fictional,652d3c440e9e1391e8840a53,old
780.0,shortestpath_phase,westpalmbeach.png,49.0,gatlinburg.png,cornwall.png,1.0,gatlinburg.png,Three Edge Diff,Three Edge Six Edge,Fictional,652d3c440e9e1391e8840a53,old
917.4000000953674,shortestpath_phase,boulder.png,49.0,shreveport.png,newhope.png,0.0,newhope.png,Three Edge Diff,Two Edge Five Edge,Fictional,652d3c440e9e1391e8840a53,old
1285.6000001430511,shortestpath_phase,cornwall.png,49.0,leesburg.png,boulder.png,1.0,leesburg.png,One Edge Diff,Five Edge Six Edge,Fictional,652d3c440e9e1391e8840a53,old
1042.0,shortestpath_phase,boulder.png,50.0,hotsprings.png,shreveport.png,0.0,hotsprings.png,Two Edge Diff,Three Edge Five Edge,Fictional,652d3c440e9e1391e8840a53,old
1772.9000000953674,shortestpath_phase,cornwall.png,49.0,racine.png,westpalmbeach.png,1.0,racine.png,Three Edge Diff,Three Edge Six Edge,Fictional,652d3c440e9e1391e8840a53,old
976.2000000476836,shortestpath_phase,boulder.png,50.0,hanover.png,carmel.png,1.0,carmel.png,One Edge Diff,Five Edge Six Edge,Fictional,652d3c440e9e1391e8840a53,old
1479.2999999523165,shortestpath_phase,racine.png,50.0,hanover.png,boulder.png,0.0,hanover.png,One Edge Diff,Three Edge Four Edge,Fictional,652d3c440e9e1391e8840a53,old
1149.1000001430511,shortestpath_phase,boulder.png,50.0,hotsprings.png,carmel.png,0.0,hotsprings.png,Two Edge Diff,Three Edge Five Edge,Fictional,652d3c440e9e1391e8840a53,old
1561.3999998569489,shortestpath_phase,cornwall.png,49.0,racine.png,boulder.png,1.0,racine.png,Four Edge Diff,Two Edge Six Edge,Fictional,652d3c440e9e1391e8840a53,old
1873.8999998569489,shortestpath_phase,gatlinburg.png,50.0,boulder.png,cornwall.png,0.0,boulder.png,One Edge Diff,Three Edge Four Edge,Fictional,652d3c440e9e1391e8840a53,old
1559.7999999523165,shortestpath_phase,hotsprings.png,50.0,cornwall.png,racine.png,1.0,racine.png,Two Edge Diff,Four Edge Six Edge,Fictional,652d3c440e9e1391e8840a53,old
805.0,shortestpath_phase,cornwall.png,50.0,huntsville.png,gatlinburg.png,0.0,huntsville.png,One Edge Diff,Three Edge Four Edge,Fictional,652d3c440e9e1391e8840a53,old
1756.3999998569489,shortestpath_phase,boulder.png,49.0,cornwall.png,racine.png,0.0,racine.png,Two Edge Diff,Four Edge Six Edge,Fictional,652d3c440e9e1391e8840a53,old
1327.0999999046326,shortestpath_phase,hotsprings.png,49.0,westpalmbeach.png,cornwall.png,1.0,westpalmbeach.png,Four Edge Diff,Two Edge Six Edge,Fictional,652d3c440e9e1391e8840a53,old
791.7000000476837,shortestpath_phase,cornwall.png,49.0,racine.png,hotsprings.png,1.0,racine.png,Four Edge Diff,Two Edge Six Edge,Fictional,652d3c440e9e1391e8840a53,old
826.2000000476837,shortestpath_phase,boulder.png,49.0,huntsville.png,cornwall.png,1.0,huntsville.png,Two Edge Diff,Four Edge Six Edge,Fictional,652d3c440e9e1391e8840a53,old
790.0,shortestpath_phase,leesburg.png,50.0,hanover.png,peoria.png,1.0,peoria.png,Two Edge Diff,Two Edge Four Edge,Fictional,652d3c440e9e1391e8840a53,old
1197.2000000476835,shortestpath_phase,cornwall.png,50.0,hotsprings.png,newhope.png,1.0,newhope.png,Two Edge Diff,Four Edge Six Edge,Fictional,652d3c440e9e1391e8840a53,old
1168.2000000476835,shortestpath_phase,westpalmbeach.png,50.0,cornwall.png,carmel.png,1.0,carmel.png,One Edge Diff,Four Edge Five Edge,Fictional,652d3c440e9e1391e8840a53,old
1179.4000000953674,shortestpath_phase,cornwall.png,50.0,hotsprings.png,shreveport.png,1.0,shreveport.png,Four Edge Diff,Two Edge Six Edge,Fictional,652d3c440e9e1391e8840a53,old
727.9000000953674,shortestpath_phase,boulder.png,49.0,newhope.png,hanover.png,1.0,newhope.png,Four Edge Diff,Two Edge Six Edge,Fictional,652d3c440e9e1391e8840a53,old
905.7999999523164,shortestpath_phase,cornwall.png,49.0,leesburg.png,hotsprings.png,1.0,leesburg.png,One Edge Diff,Five Edge Six Edge,Fictional,652d3c440e9e1391e8840a53,old
854.0999999046326,shortestpath_phase,boulder.png,50.0,cornwall.png,newhope.png,1.0,newhope.png,Four Edge Diff,Two Edge Six Edge,Fictional,652d3c440e9e1391e8840a53,old
651.5999999046326,shortestpath_phase,cornwall.png,50.0,racine.png,leesburg.png,0.0,racine.png,Three Edge Diff,Three Edge Six Edge,Fictional,652d3c440e9e1391e8840a53,old
623.6999998092651,shortestpath_phase,hotsprings.png,49.0,westpalmbeach.png,racine.png,1.0,westpalmbeach.png,Two Edge Diff,Two Edge Four Edge,Fictional,652d3c440e9e1391e8840a53,old
815.2999999523163,shortestpath_phase,cornwall.png,49.0,huntsville.png,racine.png,0.0,racine.png,One Edge Diff,Two Edge Three Edge,Fictional,652d3c440e9e1391e8840a53,old
1313.0,shortestpath_phase,hotsprings.png,50.0,hanover.png,huntsville.png,1.0,huntsville.png,Two Edge Diff,Three Edge Five Edge,Fictional,652d3c440e9e1391e8840a53,old
980.0999999046326,shortestpath_phase,cornwall.png,50.0,boulder.png,gatlinburg.png,1.0,gatlinburg.png,Two Edge Diff,Four Edge Six Edge,Fictional,652d3c440e9e1391e8840a53,old
827.0,shortestpath_phase,boulder.png,50.0,carmel.png,huntsville.png,1.0,huntsville.png,One Edge Diff,Four Edge Five Edge,Fictional,652d3c440e9e1391e8840a53,old
1287.8999998569489,shortestpath_phase,shreveport.png,49.0,cornwall.png,boulder.png,1.0,cornwall.png,Three Edge Diff,Two Edge Five Edge,Fictional,652d3c440e9e1391e8840a53,old
900.2999999523163,shortestpath_phase,hotsprings.png,50.0,hanover.png,newhope.png,1.0,newhope.png,Three Edge Diff,Two Edge Five Edge,Fictional,652d3c440e9e1391e8840a53,old
915.1000001430511,shortestpath_phase,boulder.png,49.0,leesburg.png,shreveport.png,1.0,leesburg.png,Three Edge Diff,Three Edge Six Edge,Fictional,652d3c440e9e1391e8840a53,old
,shortestpath_phase,shreveport.png,,peoria.png,gatlinburg.png,0.0,peoria.png,One Edge Diff,Two Edge Three Edge,Fictional,5e1e5c3c80e02e1c36679187,old
2778.0,shortestpath_phase,newhope.png,49.0,westpalmbeach.png,hanover.png,0.0,hanover.png,Two Edge Diff,Four Edge Six Edge,Fictional,5e1e5c3c80e02e1c36679187,old
4346.600000008941,shortestpath_phase,westpalmbeach.png,50.0,shreveport.png,hotsprings.png,1.0,hotsprings.png,Three Edge Diff,Three Edge Six Edge,Fictional,5e1e5c3c80e02e1c36679187,old
,shortestpath_phase,boulder.png,,huntsville.png,racine.png,0.0,racine.png,One Edge Diff,Four Edge Five Edge,Fictional,5e1e5c3c80e02e1c36679187,old
4293.100000008941,shortestpath_phase,huntsville.png,50.0,carmel.png,peoria.png,0.0,carmel.png,One Edge Diff,Four Edge Five Edge,Fictional,5e1e5c3c80e02e1c36679187,old
3769.79999999702,shortestpath_phase,westpalmbeach.png,50.0,newhope.png,peoria.png,1.0,peoria.png,One Edge Diff,Five Edge Six Edge,Fictional,5e1e5c3c80e02e1c36679187,old
4907.70000000298,shortestpath_phase,shreveport.png,50.0,carmel.png,huntsville.png,0.0,carmel.png,Four Edge Diff,Two Edge Six Edge,Fictional,5e1e5c3c80e02e1c36679187,old
4791.79999999702,shortestpath_phase,newhope.png,50.0,huntsville.png,hanover.png,1.0,hanover.png,Two Edge Diff,Four Edge Six Edge,Fictional,5e1e5c3c80e02e1c36679187,old
3727.5,shortestpath_phase,boulder.png,50.0,westpalmbeach.png,leesburg.png,1.0,leesburg.png,One Edge Diff,Three Edge Four Edge,Fictional,5e1e5c3c80e02e1c36679187,old
3175.79999999702,shortestpath_phase,newhope.png,49.0,cornwall.png,huntsville.png,1.0,cornwall.png,Four Edge Diff,Two Edge Six Edge,Fictional,5e1e5c3c80e02e1c36679187,old
3265.70000000298,shortestpath_phase,westpalmbeach.png,49.0,hanover.png,carmel.png,1.0,hanover.png,One Edge Diff,Two Edge Three Edge,Fictional,5e1e5c3c80e02e1c36679187,old
3514.5,shortestpath_phase,newhope.png,49.0,hotsprings.png,gatlinburg.png,0.0,gatlinburg.png,One Edge Diff,Three Edge Four Edge,Fictional,5e1e5c3c80e02e1c36679187,old
2045.6000000089407,shortestpath_phase,boulder.png,50.0,huntsville.png,hotsprings.png,1.0,hotsprings.png,Three Edge Diff,Three Edge Six Edge,Fictional,5e1e5c3c80e02e1c36679187,old
4457.70000000298,shortestpath_phase,huntsville.png,49.0,carmel.png,newhope.png,1.0,carmel.png,Two Edge Diff,Four Edge Six Edge,Fictional,5e1e5c3c80e02e1c36679187,old
3268.3999999910593,shortestpath_phase,leesburg.png,50.0,boulder.png,peoria.png,0.0,boulder.png,One Edge Diff,Three Edge Four Edge,Fictional,5e1e5c3c80e02e1c36679187,old
4424.399999991059,shortestpath_phase,newhope.png,50.0,shreveport.png,racine.png,0.0,shreveport.png,Two Edge Diff,Three Edge Five Edge,Fictional,5e1e5c3c80e02e1c36679187,old
2576.5,shortestpath_phase,racine.png,49.0,boulder.png,shreveport.png,1.0,boulder.png,One Edge Diff,Four Edge Five Edge,Fictional,5e1e5c3c80e02e1c36679187,old
2516.5999999940395,shortestpath_phase,shreveport.png,49.0,huntsville.png,hanover.png,0.0,hanover.png,Two Edge Diff,Four Edge Six Edge,Fictional,5e1e5c3c80e02e1c36679187,old
2217.20000000298,shortestpath_phase,racine.png,49.0,westpalmbeach.png,carmel.png,1.0,westpalmbeach.png,One Edge Diff,Two Edge Three Edge,Fictional,5e1e5c3c80e02e1c36679187,old
2350.20000000298,shortestpath_phase,hanover.png,49.0,carmel.png,shreveport.png,1.0,carmel.png,Two Edge Diff,Two Edge Four Edge,Fictional,5e1e5c3c80e02e1c36679187,old
4066.20000000298,shortestpath_phase,shreveport.png,49.0,hotsprings.png,racine.png,1.0,hotsprings.png,Two Edge Diff,Three Edge Five Edge,Fictional,5e1e5c3c80e02e1c36679187,old
2286.5,shortestpath_phase,westpalmbeach.png,49.0,hanover.png,shreveport.png,1.0,hanover.png,Three Edge Diff,Two Edge Five Edge,Fictional,5e1e5c3c80e02e1c36679187,old
2252.70000000298,shortestpath_phase,leesburg.png,49.0,carmel.png,peoria.png,1.0,carmel.png,Two Edge Diff,Two Edge Four Edge,Fictional,5e1e5c3c80e02e1c36679187,old
1851.3999999910593,shortestpath_phase,peoria.png,49.0,shreveport.png,huntsville.png,1.0,shreveport.png,Three Edge Diff,Three Edge Six Edge,Fictional,5e1e5c3c80e02e1c36679187,old
2863.0,shortestpath_phase,leesburg.png,50.0,newhope.png,carmel.png,1.0,carmel.png,Three Edge Diff,Three Edge Six Edge,Fictional,5e1e5c3c80e02e1c36679187,old
2423.3999999910593,shortestpath_phase,shreveport.png,49.0,westpalmbeach.png,peoria.png,0.0,peoria.png,Three Edge Diff,Two Edge Five Edge,Fictional,5e1e5c3c80e02e1c36679187,old
3026.20000000298,shortestpath_phase,westpalmbeach.png,50.0,newhope.png,hanover.png,1.0,hanover.png,Four Edge Diff,Two Edge Six Edge,Fictional,5e1e5c3c80e02e1c36679187,old
3120.0999999940395,shortestpath_phase,shreveport.png,49.0,leesburg.png,huntsville.png,1.0,leesburg.png,Two Edge Diff,Four Edge Six Edge,Fictional,5e1e5c3c80e02e1c36679187,old
4136.9000000059605,shortestpath_phase,peoria.png,50.0,carmel.png,leesburg.png,0.0,carmel.png,Two Edge Diff,Two Edge Four Edge,Fictional,5e1e5c3c80e02e1c36679187,old
2786.8999999910593,shortestpath_phase,shreveport.png,50.0,westpalmbeach.png,gatlinburg.png,1.0,gatlinburg.png,Two Edge Diff,Three Edge Five Edge,Fictional,5e1e5c3c80e02e1c36679187,old
2615.0999999940395,shortestpath_phase,huntsville.png,50.0,peoria.png,hanover.png,1.0,hanover.png,Three Edge Diff,Three Edge Six Edge,Fictional,5e1e5c3c80e02e1c36679187,old
1740.9000000059605,shortestpath_phase,carmel.png,50.0,shreveport.png,huntsville.png,0.0,shreveport.png,Two Edge Diff,Two Edge Four Edge,Fictional,5e1e5c3c80e02e1c36679187,old
2087.79999999702,shortestpath_phase,peoria.png,50.0,huntsville.png,racine.png,1.0,racine.png,One Edge Diff,Four Edge Five Edge,Fictional,5e1e5c3c80e02e1c36679187,old
1988.70000000298,shortestpath_phase,shreveport.png,50.0,gatlinburg.png,hanover.png,0.0,gatlinburg.png,One Edge Diff,Three Edge Four Edge,Fictional,5e1e5c3c80e02e1c36679187,old
2334.0,shortestpath_phase,newhope.png,50.0,cornwall.png,leesburg.png,0.0,cornwall.png,Three Edge Diff,Three Edge Six Edge,Fictional,5e1e5c3c80e02e1c36679187,old
2027.20000000298,shortestpath_phase,westpalmbeach.png,50.0,peoria.png,hotsprings.png,1.0,hotsprings.png,Three Edge Diff,Three Edge Six Edge,Fictional,5e1e5c3c80e02e1c36679187,old
2844.5,shortestpath_phase,shreveport.png,50.0,racine.png,peoria.png,1.0,peoria.png,Three Edge Diff,Two Edge Five Edge,Fictional,5e1e5c3c80e02e1c36679187,old
1855.5,shortestpath_phase,racine.png,49.0,hotsprings.png,shreveport.png,1.0,hotsprings.png,Three Edge Diff,Three Edge Six Edge,Fictional,5e1e5c3c80e02e1c36679187,old
2249.29999999702,shortestpath_phase,carmel.png,50.0,hanover.png,racine.png,0.0,hanover.png,One Edge Diff,Two Edge Three Edge,Fictional,5e1e5c3c80e02e1c36679187,old
2672.79999999702,shortestpath_phase,racine.png,50.0,cornwall.png,shreveport.png,0.0,cornwall.png,Two Edge Diff,Three Edge Five Edge,Fictional,5e1e5c3c80e02e1c36679187,old
1568.5999999940395,shortestpath_phase,westpalmbeach.png,49.0,hotsprings.png,newhope.png,1.0,hotsprings.png,Four Edge Diff,Two Edge Six Edge,Fictional,5e1e5c3c80e02e1c36679187,old
1757.7999999970198,shortestpath_phase,peoria.png,50.0,huntsville.png,carmel.png,1.0,carmel.png,Three Edge Diff,Two Edge Five Edge,Fictional,5e1e5c3c80e02e1c36679187,old
2367.29999999702,shortestpath_phase,cornwall.png,50.0,huntsville.png,shreveport.png,1.0,shreveport.png,One Edge Diff,Three Edge Four Edge,Fictional,5e1e5c3c80e02e1c36679187,old
1719.0,shortestpath_phase,racine.png,49.0,westpalmbeach.png,shreveport.png,1.0,westpalmbeach.png,Three Edge Diff,Two Edge Five Edge,Fictional,5e1e5c3c80e02e1c36679187,old
2317.0999999940395,shortestpath_phase,huntsville.png,50.0,leesburg.png,peoria.png,0.0,leesburg.png,Three Edge Diff,Three Edge Six Edge,Fictional,5e1e5c3c80e02e1c36679187,old
2056.5,shortestpath_phase,shreveport.png,50.0,huntsville.png,peoria.png,1.0,peoria.png,Four Edge Diff,Two Edge Six Edge,Fictional,5e1e5c3c80e02e1c36679187,old
2718.20000000298,shortestpath_phase,westpalmbeach.png,50.0,boulder.png,shreveport.png,0.0,boulder.png,One Edge Diff,Four Edge Five Edge,Fictional,5e1e5c3c80e02e1c36679187,old
2744.0,shortestpath_phase,peoria.png,50.0,carmel.png,westpalmbeach.png,0.0,carmel.png,Three Edge Diff,Two Edge Five Edge,Fictional,5e1e5c3c80e02e1c36679187,old
1994.79999999702,shortestpath_phase,cornwall.png,50.0,huntsville.png,newhope.png,1.0,newhope.png,Two Edge Diff,Two Edge Four Edge,Fictional,5e1e5c3c80e02e1c36679187,old
1861.79999999702,shortestpath_phase,huntsville.png,50.0,hanover.png,newhope.png,0.0,hanover.png,Four Edge Diff,Two Edge Six Edge,Fictional,5e1e5c3c80e02e1c36679187,old
1986.0999999940395,shortestpath_phase,newhope.png,50.0,boulder.png,huntsville.png,0.0,boulder.png,Four Edge Diff,Two Edge Six Edge,Fictional,5e1e5c3c80e02e1c36679187,old
1304.5,shortestpath_phase,huntsville.png,50.0,boulder.png,hotsprings.png,1.0,hotsprings.png,Two Edge Diff,Three Edge Five Edge,Fictional,5e1e5c3c80e02e1c36679187,old
2341.5,shortestpath_phase,leesburg.png,50.0,newhope.png,gatlinburg.png,1.0,gatlinburg.png,Three Edge Diff,Two Edge Five Edge,Fictional,5e1e5c3c80e02e1c36679187,old
1392.9000000059605,shortestpath_phase,huntsville.png,50.0,hanover.png,shreveport.png,0.0,hanover.png,Four Edge Diff,Two Edge Six Edge,Fictional,5e1e5c3c80e02e1c36679187,old
1450.6000000089407,shortestpath_phase,newhope.png,50.0,westpalmbeach.png,cornwall.png,1.0,cornwall.png,Four Edge Diff,Two Edge Six Edge,Fictional,5e1e5c3c80e02e1c36679187,old
1537.0,shortestpath_phase,westpalmbeach.png,50.0,newhope.png,racine.png,1.0,racine.png,Four Edge Diff,Two Edge Six Edge,Fictional,5e1e5c3c80e02e1c36679187,old
1922.79999999702,shortestpath_phase,newhope.png,50.0,hotsprings.png,westpalmbeach.png,0.0,hotsprings.png,Two Edge Diff,Four Edge Six Edge,Fictional,5e1e5c3c80e02e1c36679187,old
1634.3999999910593,shortestpath_phase,westpalmbeach.png,50.0,newhope.png,shreveport.png,1.0,shreveport.png,One Edge Diff,Five Edge Six Edge,Fictional,5e1e5c3c80e02e1c36679187,old
1462.5,shortestpath_phase,huntsville.png,50.0,boulder.png,newhope.png,0.0,boulder.png,One Edge Diff,Five Edge Six Edge,Fictional,5e1e5c3c80e02e1c36679187,old
1653.7000000029802,shortestpath_phase,racine.png,50.0,shreveport.png,carmel.png,1.0,carmel.png,Two Edge Diff,Three Edge Five Edge,Fictional,5e1e5c3c80e02e1c36679187,old
1480.9000000059605,shortestpath_phase,huntsville.png,50.0,gatlinburg.png,boulder.png,0.0,gatlinburg.png,Two Edge Diff,Three Edge Five Edge,Fictional,5e1e5c3c80e02e1c36679187,old
1778.7000000029802,shortestpath_phase,shreveport.png,50.0,carmel.png,racine.png,0.0,carmel.png,Three Edge Diff,Two Edge Five Edge,Fictional,5e1e5c3c80e02e1c36679187,old
1182.0,shortestpath_phase,huntsville.png,50.0,leesburg.png,shreveport.png,0.0,leesburg.png,Four Edge Diff,Two Edge Six Edge,Fictional,5e1e5c3c80e02e1c36679187,old
1525.7000000029802,shortestpath_phase,shreveport.png,50.0,huntsville.png,westpalmbeach.png,1.0,westpalmbeach.png,One Edge Diff,Five Edge Six Edge,Fictional,5e1e5c3c80e02e1c36679187,old
1883.79999999702,shortestpath_phase,hanover.png,50.0,shreveport.png,huntsville.png,1.0,huntsville.png,Two Edge Diff,Two Edge Four Edge,Fictional,5e1e5c3c80e02e1c36679187,old
2194.79999999702,shortestpath_phase,westpalmbeach.png,50.0,peoria.png,racine.png,1.0,racine.png,Three Edge Diff,Two Edge Five Edge,Fictional,5e1e5c3c80e02e1c36679187,old
1457.9000000059605,shortestpath_phase,huntsville.png,49.0,leesburg.png,newhope.png,1.0,leesburg.png,Four Edge Diff,Two Edge Six Edge,Fictional,5e1e5c3c80e02e1c36679187,old
1762.5,shortestpath_phase,cornwall.png,50.0,westpalmbeach.png,hanover.png,1.0,hanover.png,Two Edge Diff,Two Edge Four Edge,Fictional,5e1e5c3c80e02e1c36679187,old
2013.6000000089407,shortestpath_phase,huntsville.png,49.0,boulder.png,shreveport.png,1.0,boulder.png,One Edge Diff,Five Edge Six Edge,Fictional,5e1e5c3c80e02e1c36679187,old
1446.0999999940395,shortestpath_phase,carmel.png,50.0,leesburg.png,racine.png,0.0,leesburg.png,One Edge Diff,Two Edge Three Edge,Fictional,5e1e5c3c80e02e1c36679187,old
2027.6000000089407,shortestpath_phase,newhope.png,50.0,westpalmbeach.png,racine.png,1.0,racine.png,One Edge Diff,Five Edge Six Edge,Fictional,5e1e5c3c80e02e1c36679187,old
2082.4000000059605,shortestpath_phase,huntsville.png,50.0,leesburg.png,peoria.png,0.0,leesburg.png,Three Edge Diff,Two Edge Five Edge,Fictional,5e1e5c3c80e02e1c36679187,old
2452.1000000089407,shortestpath_phase,peoria.png,49.0,racine.png,shreveport.png,0.0,shreveport.png,Two Edge Diff,Two Edge Four Edge,Fictional,5e1e5c3c80e02e1c36679187,old
1706.3999999910593,shortestpath_phase,newhope.png,50.0,hotsprings.png,huntsville.png,0.0,hotsprings.png,Two Edge Diff,Four Edge Six Edge,Fictional,5e1e5c3c80e02e1c36679187,old
1663.5,shortestpath_phase,leesburg.png,50.0,cornwall.png,carmel.png,1.0,carmel.png,One Edge Diff,Two Edge Three Edge,Fictional,5e1e5c3c80e02e1c36679187,old
1485.5999999940395,shortestpath_phase,peoria.png,50.0,huntsville.png,gatlinburg.png,1.0,gatlinburg.png,Three Edge Diff,Two Edge Five Edge,Fictional,5e1e5c3c80e02e1c36679187,old
2120.0999999940395,shortestpath_phase,westpalmbeach.png,50.0,peoria.png,hotsprings.png,1.0,hotsprings.png,Three Edge Diff,Two Edge Five Edge,Fictional,5e1e5c3c80e02e1c36679187,old
