,rt,trial_type,time_elapsed,sequence,stimulus,key_press,accuracy,cumulative_accuracy,stimulus_down_left,stimulus_down_mid,stimulus_down_right,stimulus_correct,stimulus_short,stimulus_far,weighted_accuracy,missedtrial,partid
690,2541.0999999940395,directmemory_phase,960293,interleaved,GW/racine.png,51.0,1.0,1.0,GW/leesburg.png,GW/hanover.png,GW/gatlinburg.png,GW/gatlinburg.png,GW/hanover.png,GW/leesburg.png,1.0,,5faefcc22be93b11829e84df
692,1934.5,directmemory_phase,963234,interleaved,GW/newhope.png,51.0,1.0,1.0,GW/westpalmbeach.png,GW/leesburg.png,GW/cornwall.png,GW/cornwall.png,GW/leesburg.png,GW/westpalmbeach.png,1.0,,5faefcc22be93b11829e84df
694,2211.0,directmemory_phase,966453,interleaved,GW/racine.png,51.0,1.0,1.0,GW/leesburg.png,GW/hanover.png,GW/peoria.png,GW/peoria.png,GW/hanover.png,GW/leesburg.png,1.0,,5faefcc22be93b11829e84df
696,2466.0,directmemory_phase,969926,interleaved,GW/hotsprings.png,49.0,1.0,1.0,GW/newhope.png,GW/gatlinburg.png,GW/huntsville.png,GW/newhope.png,GW/huntsville.png,GW/gatlinburg.png,1.0,,5faefcc22be93b11829e84df
698,1382.6999999955297,directmemory_phase,972315,interleaved,GW/shreveport.png,50.0,1.0,1.0,GW/westpalmbeach.png,GW/cornwall.png,GW/gatlinburg.png,GW/cornwall.png,GW/westpalmbeach.png,GW/gatlinburg.png,1.0,,5faefcc22be93b11829e84df
700,1378.7999999970198,directmemory_phase,974700,interleaved,GW/carmel.png,51.0,1.0,1.0,GW/hanover.png,GW/gatlinburg.png,GW/racine.png,GW/racine.png,GW/gatlinburg.png,GW/hanover.png,1.0,,5faefcc22be93b11829e84df
702,1701.7000000029802,directmemory_phase,977407,interleaved,GW/shreveport.png,51.0,1.0,1.0,GW/peoria.png,GW/boulder.png,GW/hotsprings.png,GW/hotsprings.png,GW/boulder.png,GW/peoria.png,1.0,,5faefcc22be93b11829e84df
704,1060.8000000044703,directmemory_phase,979474,interleaved,GW/peoria.png,49.0,1.0,1.0,GW/hanover.png,GW/huntsville.png,GW/gatlinburg.png,GW/hanover.png,GW/gatlinburg.png,GW/huntsville.png,1.0,,5faefcc22be93b11829e84df
706,2150.20000000298,directmemory_phase,982631,interleaved,GW/huntsville.png,51.0,1.0,1.0,GW/carmel.png,GW/cornwall.png,GW/boulder.png,GW/boulder.png,GW/cornwall.png,GW/carmel.png,1.0,,5faefcc22be93b11829e84df
708,1006.6999999955297,directmemory_phase,984646,interleaved,GW/gatlinburg.png,51.0,1.0,1.0,GW/newhope.png,GW/peoria.png,GW/racine.png,GW/racine.png,GW/peoria.png,GW/newhope.png,1.0,,5faefcc22be93b11829e84df
710,3335.89999999851,directmemory_phase,988988,interleaved,GW/peoria.png,49.0,0.0,0.9090909090909092,GW/hotsprings.png,GW/newhope.png,GW/huntsville.png,GW/newhope.png,GW/hotsprings.png,GW/huntsville.png,0.5,closer,5faefcc22be93b11829e84df
712,2206.10000000149,directmemory_phase,992203,interleaved,GW/hotsprings.png,49.0,1.0,0.9166666666666666,GW/shreveport.png,GW/boulder.png,GW/racine.png,GW/shreveport.png,GW/racine.png,GW/boulder.png,1.0,,5faefcc22be93b11829e84df
714,1890.10000000149,directmemory_phase,995099,interleaved,GW/cornwall.png,49.0,1.0,0.9230769230769232,GW/newhope.png,GW/boulder.png,GW/hotsprings.png,GW/newhope.png,GW/hotsprings.png,GW/boulder.png,1.0,,5faefcc22be93b11829e84df
716,4300.0,directmemory_phase,1000407,interleaved,GW/huntsville.png,51.0,1.0,0.9285714285714286,GW/racine.png,GW/hotsprings.png,GW/leesburg.png,GW/leesburg.png,GW/hotsprings.png,GW/racine.png,1.0,,5faefcc22be93b11829e84df
718,1046.9000000059605,directmemory_phase,1002461,interleaved,GW/hanover.png,50.0,1.0,0.9333333333333332,GW/newhope.png,GW/peoria.png,GW/gatlinburg.png,GW/peoria.png,GW/newhope.png,GW/gatlinburg.png,1.0,,5faefcc22be93b11829e84df
720,2705.39999999851,directmemory_phase,1006173,interleaved,GW/boulder.png,51.0,1.0,0.9375,GW/westpalmbeach.png,GW/leesburg.png,GW/huntsville.png,GW/huntsville.png,GW/leesburg.png,GW/westpalmbeach.png,1.0,,5faefcc22be93b11829e84df
722,1253.10000000149,directmemory_phase,1008433,interleaved,GW/cornwall.png,49.0,1.0,0.9411764705882352,GW/shreveport.png,GW/boulder.png,GW/hotsprings.png,GW/shreveport.png,GW/hotsprings.png,GW/boulder.png,1.0,,5faefcc22be93b11829e84df
724,2944.5,directmemory_phase,1012384,interleaved,GW/leesburg.png,51.0,1.0,0.9444444444444444,GW/racine.png,GW/hotsprings.png,GW/huntsville.png,GW/huntsville.png,GW/hotsprings.png,GW/racine.png,1.0,,5faefcc22be93b11829e84df
726,1687.2999999970198,directmemory_phase,1015079,interleaved,GW/peoria.png,50.0,1.0,0.9473684210526316,GW/gatlinburg.png,GW/racine.png,GW/huntsville.png,GW/racine.png,GW/gatlinburg.png,GW/huntsville.png,1.0,,5faefcc22be93b11829e84df
728,3696.89999999851,directmemory_phase,1019784,interleaved,GW/shreveport.png,49.0,1.0,0.95,GW/leesburg.png,GW/racine.png,GW/westpalmbeach.png,GW/leesburg.png,GW/westpalmbeach.png,GW/racine.png,1.0,,5faefcc22be93b11829e84df
730,1060.10000000149,directmemory_phase,1021850,interleaved,GW/racine.png,51.0,1.0,0.9523809523809524,GW/huntsville.png,GW/newhope.png,GW/carmel.png,GW/carmel.png,GW/newhope.png,GW/huntsville.png,1.0,,5faefcc22be93b11829e84df
732,1834.0,directmemory_phase,1024691,interleaved,GW/leesburg.png,49.0,1.0,0.9545454545454546,GW/shreveport.png,GW/hanover.png,GW/boulder.png,GW/shreveport.png,GW/boulder.png,GW/hanover.png,1.0,,5faefcc22be93b11829e84df
734,1103.39999999851,directmemory_phase,1026803,interleaved,GW/newhope.png,49.0,1.0,0.9565217391304348,GW/hotsprings.png,GW/huntsville.png,GW/shreveport.png,GW/hotsprings.png,GW/shreveport.png,GW/huntsville.png,1.0,,5faefcc22be93b11829e84df
736,3479.0999999940395,directmemory_phase,1031290,interleaved,GW/huntsville.png,51.0,1.0,0.9583333333333334,GW/carmel.png,GW/cornwall.png,GW/shreveport.png,GW/shreveport.png,GW/cornwall.png,GW/carmel.png,1.0,,5faefcc22be93b11829e84df
738,2868.0999999940395,directmemory_phase,1035164,interleaved,GW/cornwall.png,49.0,1.0,0.96,GW/leesburg.png,GW/racine.png,GW/hotsprings.png,GW/leesburg.png,GW/hotsprings.png,GW/racine.png,1.0,,5faefcc22be93b11829e84df
740,1998.9000000059605,directmemory_phase,1038171,interleaved,GW/hotsprings.png,49.0,1.0,0.9615384615384616,GW/carmel.png,GW/westpalmbeach.png,GW/racine.png,GW/carmel.png,GW/racine.png,GW/westpalmbeach.png,1.0,,5faefcc22be93b11829e84df
742,2862.60000000149,directmemory_phase,1042041,interleaved,GW/westpalmbeach.png,50.0,1.0,0.9629629629629628,GW/cornwall.png,GW/leesburg.png,GW/hotsprings.png,GW/leesburg.png,GW/cornwall.png,GW/hotsprings.png,1.0,,5faefcc22be93b11829e84df
744,1394.2000000029802,directmemory_phase,1044441,interleaved,GW/newhope.png,49.0,1.0,0.9642857142857144,GW/peoria.png,GW/huntsville.png,GW/carmel.png,GW/peoria.png,GW/carmel.png,GW/huntsville.png,1.0,,5faefcc22be93b11829e84df
746,2805.20000000298,directmemory_phase,1048254,interleaved,GW/leesburg.png,49.0,1.0,0.9655172413793104,GW/cornwall.png,GW/hanover.png,GW/hotsprings.png,GW/cornwall.png,GW/hotsprings.png,GW/hanover.png,1.0,,5faefcc22be93b11829e84df
748,2326.79999999702,directmemory_phase,1051589,interleaved,GW/shreveport.png,49.0,1.0,0.9666666666666668,GW/huntsville.png,GW/gatlinburg.png,GW/newhope.png,GW/huntsville.png,GW/newhope.png,GW/gatlinburg.png,1.0,,5faefcc22be93b11829e84df
750,2232.4000000059605,directmemory_phase,1054828,interleaved,GW/leesburg.png,51.0,1.0,0.967741935483871,GW/racine.png,GW/hotsprings.png,GW/westpalmbeach.png,GW/westpalmbeach.png,GW/hotsprings.png,GW/racine.png,1.0,,5faefcc22be93b11829e84df
752,792.2999999970198,directmemory_phase,1056628,interleaved,GW/carmel.png,50.0,1.0,0.96875,GW/gatlinburg.png,GW/hotsprings.png,GW/hanover.png,GW/hotsprings.png,GW/gatlinburg.png,GW/hanover.png,1.0,,5faefcc22be93b11829e84df
1671,4083.0,directmemory_phase,1021685,interleaved,GW/peoria.png,50.0,1.0,1.0,GW/newhope.png,GW/huntsville.png,GW/gatlinburg.png,GW/huntsville.png,GW/newhope.png,GW/gatlinburg.png,1.0,,5b09f4f1d282ff00015b536d
1673,2049.5999999940395,directmemory_phase,1024749,interleaved,GW/boulder.png,51.0,1.0,1.0,GW/westpalmbeach.png,GW/hotsprings.png,GW/carmel.png,GW/carmel.png,GW/hotsprings.png,GW/westpalmbeach.png,1.0,,5b09f4f1d282ff00015b536d
1675,1432.5999999940395,directmemory_phase,1027186,interleaved,GW/shreveport.png,50.0,0.0,0.6666666666666666,GW/hotsprings.png,GW/leesburg.png,GW/racine.png,GW/hotsprings.png,GW/racine.png,GW/leesburg.png,0.5,closer,5b09f4f1d282ff00015b536d
1677,2439.300000011921,directmemory_phase,1030629,interleaved,GW/leesburg.png,50.0,0.0,0.5,GW/cornwall.png,GW/westpalmbeach.png,GW/peoria.png,GW/peoria.png,GW/westpalmbeach.png,GW/cornwall.png,0.5,closer,5b09f4f1d282ff00015b536d
1679,2907.4000000059605,directmemory_phase,1034541,interleaved,GW/boulder.png,51.0,0.0,0.4,GW/hotsprings.png,GW/newhope.png,GW/westpalmbeach.png,GW/newhope.png,GW/hotsprings.png,GW/westpalmbeach.png,0.5,closer,5b09f4f1d282ff00015b536d
1681,2537.800000011921,directmemory_phase,1038081,interleaved,GW/huntsville.png,51.0,0.0,0.3333333333333333,GW/leesburg.png,GW/shreveport.png,GW/hanover.png,GW/leesburg.png,GW/hanover.png,GW/shreveport.png,0.5,closer,5b09f4f1d282ff00015b536d
1683,1942.5999999940395,directmemory_phase,1041028,interleaved,GW/carmel.png,51.0,1.0,0.4285714285714285,GW/cornwall.png,GW/newhope.png,GW/boulder.png,GW/boulder.png,GW/newhope.png,GW/cornwall.png,1.0,,5b09f4f1d282ff00015b536d
1685,2407.9000000059605,directmemory_phase,1044440,interleaved,GW/leesburg.png,50.0,0.0,0.375,GW/newhope.png,GW/shreveport.png,GW/hanover.png,GW/newhope.png,GW/hanover.png,GW/shreveport.png,0.5,closer,5b09f4f1d282ff00015b536d
1687,2185.4000000059605,directmemory_phase,1047630,interleaved,GW/boulder.png,50.0,1.0,0.4444444444444444,GW/hotsprings.png,GW/gatlinburg.png,GW/huntsville.png,GW/gatlinburg.png,GW/hotsprings.png,GW/huntsville.png,1.0,,5b09f4f1d282ff00015b536d
1689,2003.5,directmemory_phase,1050638,interleaved,GW/shreveport.png,49.0,0.0,0.4,GW/carmel.png,GW/boulder.png,GW/cornwall.png,GW/cornwall.png,GW/boulder.png,GW/carmel.png,0.5,closer,5b09f4f1d282ff00015b536d
1691,1948.0,directmemory_phase,1053590,interleaved,GW/newhope.png,51.0,1.0,0.4545454545454545,GW/cornwall.png,GW/gatlinburg.png,GW/leesburg.png,GW/leesburg.png,GW/gatlinburg.png,GW/cornwall.png,1.0,,5b09f4f1d282ff00015b536d
1693,2506.7999999821186,directmemory_phase,1057101,interleaved,GW/gatlinburg.png,50.0,0.0,0.4166666666666667,GW/leesburg.png,GW/carmel.png,GW/shreveport.png,GW/shreveport.png,GW/carmel.png,GW/leesburg.png,0.5,closer,5b09f4f1d282ff00015b536d
1695,1260.7000000178814,directmemory_phase,1059366,interleaved,GW/westpalmbeach.png,50.0,0.0,0.3846153846153846,GW/huntsville.png,GW/hotsprings.png,GW/peoria.png,GW/huntsville.png,GW/peoria.png,GW/hotsprings.png,0.5,closer,5b09f4f1d282ff00015b536d
1697,1057.5999999940395,directmemory_phase,1061427,interleaved,GW/newhope.png,49.0,1.0,0.4285714285714285,GW/hotsprings.png,GW/westpalmbeach.png,GW/huntsville.png,GW/hotsprings.png,GW/huntsville.png,GW/westpalmbeach.png,1.0,,5b09f4f1d282ff00015b536d
1699,1100.0999999940395,directmemory_phase,1063532,interleaved,GW/peoria.png,51.0,0.0,0.4,GW/newhope.png,GW/hanover.png,GW/gatlinburg.png,GW/hanover.png,GW/newhope.png,GW/gatlinburg.png,0.5,closer,5b09f4f1d282ff00015b536d
1701,692.2999999821186,directmemory_phase,1065229,interleaved,GW/gatlinburg.png,50.0,1.0,0.4375,GW/hotsprings.png,GW/boulder.png,GW/huntsville.png,GW/boulder.png,GW/hotsprings.png,GW/huntsville.png,1.0,,5b09f4f1d282ff00015b536d
1703,750.2999999821186,directmemory_phase,1066983,interleaved,GW/carmel.png,51.0,0.0,0.4117647058823529,GW/peoria.png,GW/westpalmbeach.png,GW/huntsville.png,GW/peoria.png,GW/huntsville.png,GW/westpalmbeach.png,0.5,closer,5b09f4f1d282ff00015b536d
1705,466.699999988079,directmemory_phase,1068454,interleaved,GW/leesburg.png,49.0,1.0,0.4444444444444444,GW/huntsville.png,GW/racine.png,GW/hotsprings.png,GW/huntsville.png,GW/hotsprings.png,GW/racine.png,1.0,,5b09f4f1d282ff00015b536d
1707,426.5,directmemory_phase,1069885,interleaved,GW/hotsprings.png,50.0,1.0,0.4736842105263157,GW/cornwall.png,GW/shreveport.png,GW/huntsville.png,GW/shreveport.png,GW/cornwall.png,GW/huntsville.png,1.0,,5b09f4f1d282ff00015b536d
1709,404.5,directmemory_phase,1071293,interleaved,GW/leesburg.png,49.0,0.0,0.45,GW/westpalmbeach.png,GW/carmel.png,GW/racine.png,GW/carmel.png,GW/westpalmbeach.png,GW/racine.png,0.5,closer,5b09f4f1d282ff00015b536d
1711,535.6000000238419,directmemory_phase,1072832,interleaved,GW/cornwall.png,51.0,1.0,0.4761904761904761,GW/leesburg.png,GW/hotsprings.png,GW/shreveport.png,GW/shreveport.png,GW/hotsprings.png,GW/leesburg.png,1.0,,5b09f4f1d282ff00015b536d
1713,489.5,directmemory_phase,1074326,interleaved,GW/peoria.png,50.0,1.0,0.5,GW/newhope.png,GW/carmel.png,GW/racine.png,GW/carmel.png,GW/newhope.png,GW/racine.png,1.0,,5b09f4f1d282ff00015b536d
1715,596.1999999880791,directmemory_phase,1075926,interleaved,GW/gatlinburg.png,49.0,0.0,0.4782608695652174,GW/cornwall.png,GW/racine.png,GW/huntsville.png,GW/racine.png,GW/cornwall.png,GW/huntsville.png,0.5,closer,5b09f4f1d282ff00015b536d
1717,1005.4000000059604,directmemory_phase,1077935,interleaved,GW/peoria.png,50.0,0.0,0.4583333333333333,GW/leesburg.png,GW/racine.png,GW/westpalmbeach.png,GW/leesburg.png,GW/westpalmbeach.png,GW/racine.png,0.5,closer,5b09f4f1d282ff00015b536d
1719,1334.399999976158,directmemory_phase,1080273,interleaved,GW/newhope.png,49.0,0.0,0.44,GW/shreveport.png,GW/boulder.png,GW/westpalmbeach.png,GW/boulder.png,GW/shreveport.png,GW/westpalmbeach.png,0.5,closer,5b09f4f1d282ff00015b536d
1721,862.0,directmemory_phase,1082138,interleaved,GW/carmel.png,50.0,1.0,0.4615384615384615,GW/hanover.png,GW/leesburg.png,GW/racine.png,GW/leesburg.png,GW/hanover.png,GW/racine.png,1.0,,5b09f4f1d282ff00015b536d
1723,1119.7999999821186,directmemory_phase,1084260,interleaved,GW/hotsprings.png,49.0,0.0,0.4444444444444444,GW/hanover.png,GW/leesburg.png,GW/newhope.png,GW/newhope.png,GW/leesburg.png,GW/hanover.png,0.5,closer,5b09f4f1d282ff00015b536d
1725,804.8000000119209,directmemory_phase,1086069,interleaved,GW/shreveport.png,51.0,0.0,0.4285714285714285,GW/racine.png,GW/gatlinburg.png,GW/carmel.png,GW/gatlinburg.png,GW/racine.png,GW/carmel.png,0.5,closer,5b09f4f1d282ff00015b536d
1727,465.2999999821186,directmemory_phase,1087538,interleaved,GW/hanover.png,49.0,1.0,0.4482758620689655,GW/peoria.png,GW/hotsprings.png,GW/huntsville.png,GW/peoria.png,GW/huntsville.png,GW/hotsprings.png,1.0,,5b09f4f1d282ff00015b536d
1729,445.09999999403954,directmemory_phase,1088986,interleaved,GW/huntsville.png,50.0,1.0,0.4666666666666667,GW/hanover.png,GW/westpalmbeach.png,GW/shreveport.png,GW/westpalmbeach.png,GW/hanover.png,GW/shreveport.png,1.0,,5b09f4f1d282ff00015b536d
1731,341.30000001192093,directmemory_phase,1090330,interleaved,GW/racine.png,51.0,1.0,0.4838709677419355,GW/peoria.png,GW/shreveport.png,GW/gatlinburg.png,GW/gatlinburg.png,GW/shreveport.png,GW/peoria.png,1.0,,5b09f4f1d282ff00015b536d
1733,307.09999999403954,directmemory_phase,1091641,interleaved,GW/huntsville.png,49.0,1.0,0.5,GW/peoria.png,GW/shreveport.png,GW/carmel.png,GW/peoria.png,GW/carmel.png,GW/shreveport.png,1.0,,5b09f4f1d282ff00015b536d
4604,6379.69999999553,directmemory_phase,1618156,interleaved,GW/huntsville.png,50.0,1.0,1.0,GW/newhope.png,GW/hotsprings.png,GW/boulder.png,GW/hotsprings.png,GW/newhope.png,GW/boulder.png,1.0,,5e34325430e5263f0bebb32d
4606,2078.9000000059605,directmemory_phase,1621237,interleaved,GW/leesburg.png,49.0,1.0,1.0,GW/shreveport.png,GW/hotsprings.png,GW/peoria.png,GW/shreveport.png,GW/peoria.png,GW/hotsprings.png,1.0,,5e34325430e5263f0bebb32d
4608,2437.6999999955297,directmemory_phase,1624677,interleaved,GW/huntsville.png,51.0,1.0,1.0,GW/leesburg.png,GW/peoria.png,GW/carmel.png,GW/carmel.png,GW/peoria.png,GW/leesburg.png,1.0,,5e34325430e5263f0bebb32d
4610,1862.10000000149,directmemory_phase,1627541,interleaved,GW/peoria.png,49.0,1.0,1.0,GW/hotsprings.png,GW/cornwall.png,GW/huntsville.png,GW/hotsprings.png,GW/huntsville.png,GW/cornwall.png,1.0,,5e34325430e5263f0bebb32d
4612,6039.20000000298,directmemory_phase,1634582,interleaved,GW/hanover.png,50.0,0.0,0.8,GW/huntsville.png,GW/racine.png,GW/newhope.png,GW/huntsville.png,GW/newhope.png,GW/racine.png,0.5,closer,5e34325430e5263f0bebb32d
4614,5341.5,directmemory_phase,1640927,interleaved,GW/peoria.png,49.0,1.0,0.8333333333333334,GW/boulder.png,GW/carmel.png,GW/huntsville.png,GW/boulder.png,GW/huntsville.png,GW/carmel.png,1.0,,5e34325430e5263f0bebb32d
4616,1430.7000000029802,directmemory_phase,1643359,interleaved,GW/gatlinburg.png,49.0,1.0,0.8571428571428571,GW/hanover.png,GW/westpalmbeach.png,GW/hotsprings.png,GW/hanover.png,GW/hotsprings.png,GW/westpalmbeach.png,1.0,,5e34325430e5263f0bebb32d
4618,1509.5,directmemory_phase,1645871,interleaved,GW/hotsprings.png,51.0,1.0,0.875,GW/leesburg.png,GW/westpalmbeach.png,GW/peoria.png,GW/peoria.png,GW/westpalmbeach.png,GW/leesburg.png,1.0,,5e34325430e5263f0bebb32d
4620,1797.7999999970198,directmemory_phase,1648672,interleaved,GW/leesburg.png,51.0,1.0,0.8888888888888888,GW/hotsprings.png,GW/newhope.png,GW/boulder.png,GW/boulder.png,GW/newhope.png,GW/hotsprings.png,1.0,,5e34325430e5263f0bebb32d
4622,1518.7999999970198,directmemory_phase,1651192,interleaved,GW/westpalmbeach.png,50.0,1.0,0.9,GW/cornwall.png,GW/racine.png,GW/shreveport.png,GW/racine.png,GW/cornwall.png,GW/shreveport.png,1.0,,5e34325430e5263f0bebb32d
4624,1550.0,directmemory_phase,1653744,interleaved,GW/boulder.png,50.0,0.0,0.8181818181818182,GW/cornwall.png,GW/westpalmbeach.png,GW/peoria.png,GW/peoria.png,GW/westpalmbeach.png,GW/cornwall.png,0.5,closer,5e34325430e5263f0bebb32d
4626,2235.29999999702,directmemory_phase,1656985,interleaved,GW/carmel.png,51.0,1.0,0.8333333333333334,GW/gatlinburg.png,GW/hotsprings.png,GW/huntsville.png,GW/huntsville.png,GW/hotsprings.png,GW/gatlinburg.png,1.0,,5e34325430e5263f0bebb32d
4628,,directmemory_phase,1664488,interleaved,GW/peoria.png,,0.0,0.7692307692307693,GW/racine.png,GW/newhope.png,GW/hanover.png,GW/hanover.png,GW/newhope.png,GW/racine.png,0.0,,5e34325430e5263f0bebb32d
4631,1789.5,directmemory_phase,1670283,interleaved,GW/newhope.png,50.0,1.0,0.7857142857142857,GW/racine.png,GW/hotsprings.png,GW/shreveport.png,GW/hotsprings.png,GW/racine.png,GW/shreveport.png,1.0,,5e34325430e5263f0bebb32d
4633,2277.6999999955297,directmemory_phase,1673562,interleaved,GW/huntsville.png,50.0,0.0,0.7333333333333333,GW/hanover.png,GW/westpalmbeach.png,GW/gatlinburg.png,GW/hanover.png,GW/gatlinburg.png,GW/westpalmbeach.png,0.5,closer,5e34325430e5263f0bebb32d
4635,1493.89999999851,directmemory_phase,1676059,interleaved,GW/shreveport.png,51.0,1.0,0.75,GW/hanover.png,GW/racine.png,GW/leesburg.png,GW/leesburg.png,GW/racine.png,GW/hanover.png,1.0,,5e34325430e5263f0bebb32d
4637,1614.2000000029802,directmemory_phase,1678675,interleaved,GW/hotsprings.png,49.0,1.0,0.7647058823529411,GW/newhope.png,GW/racine.png,GW/westpalmbeach.png,GW/newhope.png,GW/westpalmbeach.png,GW/racine.png,1.0,,5e34325430e5263f0bebb32d
4639,2238.89999999851,directmemory_phase,1681916,interleaved,GW/racine.png,51.0,1.0,0.7777777777777778,GW/hotsprings.png,GW/shreveport.png,GW/cornwall.png,GW/cornwall.png,GW/shreveport.png,GW/hotsprings.png,1.0,,5e34325430e5263f0bebb32d
4641,1678.2999999970198,directmemory_phase,1684596,interleaved,GW/hotsprings.png,51.0,1.0,0.7894736842105263,GW/leesburg.png,GW/westpalmbeach.png,GW/huntsville.png,GW/huntsville.png,GW/westpalmbeach.png,GW/leesburg.png,1.0,,5e34325430e5263f0bebb32d
4643,1046.0,directmemory_phase,1686644,interleaved,GW/cornwall.png,51.0,1.0,0.8,GW/shreveport.png,GW/leesburg.png,GW/racine.png,GW/racine.png,GW/leesburg.png,GW/shreveport.png,1.0,,5e34325430e5263f0bebb32d
4645,1493.7000000029802,directmemory_phase,1689140,interleaved,GW/hotsprings.png,51.0,1.0,0.8095238095238095,GW/shreveport.png,GW/carmel.png,GW/hanover.png,GW/hanover.png,GW/carmel.png,GW/shreveport.png,1.0,,5e34325430e5263f0bebb32d
4647,1926.39999999851,directmemory_phase,1692069,interleaved,GW/racine.png,49.0,1.0,0.8181818181818182,GW/leesburg.png,GW/peoria.png,GW/newhope.png,GW/leesburg.png,GW/newhope.png,GW/peoria.png,1.0,,5e34325430e5263f0bebb32d
4649,2128.79999999702,directmemory_phase,1695214,interleaved,GW/newhope.png,51.0,0.0,0.782608695652174,GW/westpalmbeach.png,GW/carmel.png,GW/leesburg.png,GW/westpalmbeach.png,GW/leesburg.png,GW/carmel.png,0.5,closer,5e34325430e5263f0bebb32d
4651,2126.29999999702,directmemory_phase,1698342,interleaved,GW/boulder.png,49.0,1.0,0.7916666666666666,GW/leesburg.png,GW/cornwall.png,GW/hotsprings.png,GW/leesburg.png,GW/hotsprings.png,GW/cornwall.png,1.0,,5e34325430e5263f0bebb32d
4653,2486.6999999955297,directmemory_phase,1701830,interleaved,GW/westpalmbeach.png,50.0,0.0,0.76,GW/gatlinburg.png,GW/boulder.png,GW/newhope.png,GW/newhope.png,GW/boulder.png,GW/gatlinburg.png,0.5,closer,5e34325430e5263f0bebb32d
4655,2197.5,directmemory_phase,1705030,interleaved,GW/leesburg.png,49.0,1.0,0.7692307692307693,GW/racine.png,GW/hotsprings.png,GW/cornwall.png,GW/racine.png,GW/cornwall.png,GW/hotsprings.png,1.0,,5e34325430e5263f0bebb32d
4657,1487.1999999955297,directmemory_phase,1707519,interleaved,GW/hanover.png,51.0,1.0,0.7777777777777778,GW/racine.png,GW/newhope.png,GW/gatlinburg.png,GW/gatlinburg.png,GW/newhope.png,GW/racine.png,1.0,,5e34325430e5263f0bebb32d
4659,1093.7000000029802,directmemory_phase,1709615,interleaved,GW/racine.png,49.0,1.0,0.7857142857142857,GW/westpalmbeach.png,GW/huntsville.png,GW/newhope.png,GW/westpalmbeach.png,GW/newhope.png,GW/huntsville.png,1.0,,5e34325430e5263f0bebb32d
4661,1942.1999999955297,directmemory_phase,1712560,interleaved,GW/hanover.png,51.0,0.0,0.7586206896551724,GW/peoria.png,GW/shreveport.png,GW/boulder.png,GW/peoria.png,GW/boulder.png,GW/shreveport.png,0.5,closer,5e34325430e5263f0bebb32d
4663,1743.10000000149,directmemory_phase,1715304,interleaved,GW/newhope.png,50.0,0.0,0.7333333333333333,GW/carmel.png,GW/hanover.png,GW/boulder.png,GW/boulder.png,GW/hanover.png,GW/carmel.png,0.5,closer,5e34325430e5263f0bebb32d
4665,2326.29999999702,directmemory_phase,1718632,interleaved,GW/hanover.png,50.0,0.0,0.7096774193548387,GW/shreveport.png,GW/boulder.png,GW/hotsprings.png,GW/hotsprings.png,GW/boulder.png,GW/shreveport.png,0.5,closer,5e34325430e5263f0bebb32d
4667,1733.2999999970198,directmemory_phase,1721368,interleaved,GW/boulder.png,50.0,0.0,0.6875,GW/huntsville.png,GW/racine.png,GW/newhope.png,GW/newhope.png,GW/racine.png,GW/huntsville.png,0.5,closer,5e34325430e5263f0bebb32d
5580,4085.400000005961,directmemory_phase,1135708,interleaved,GW/westpalmbeach.png,49.0,1.0,1.0,GW/hanover.png,GW/leesburg.png,GW/racine.png,GW/hanover.png,GW/racine.png,GW/leesburg.png,1.0,,661045b87d3e3a9bda51b367
5582,3082.3999999910593,directmemory_phase,1139797,interleaved,GW/newhope.png,51.0,1.0,1.0,GW/shreveport.png,GW/racine.png,GW/cornwall.png,GW/cornwall.png,GW/racine.png,GW/shreveport.png,1.0,,661045b87d3e3a9bda51b367
5584,2765.5,directmemory_phase,1143571,interleaved,GW/hanover.png,51.0,1.0,1.0,GW/newhope.png,GW/gatlinburg.png,GW/carmel.png,GW/carmel.png,GW/gatlinburg.png,GW/newhope.png,1.0,,661045b87d3e3a9bda51b367
5586,2812.6000000089407,directmemory_phase,1147391,interleaved,GW/racine.png,51.0,1.0,1.0,GW/boulder.png,GW/newhope.png,GW/leesburg.png,GW/leesburg.png,GW/newhope.png,GW/boulder.png,1.0,,661045b87d3e3a9bda51b367
5588,2379.9000000059605,directmemory_phase,1150779,interleaved,GW/huntsville.png,49.0,1.0,1.0,GW/newhope.png,GW/westpalmbeach.png,GW/cornwall.png,GW/newhope.png,GW/cornwall.png,GW/westpalmbeach.png,1.0,,661045b87d3e3a9bda51b367
5590,2116.0,directmemory_phase,1153902,interleaved,GW/gatlinburg.png,50.0,1.0,1.0,GW/hanover.png,GW/hotsprings.png,GW/cornwall.png,GW/hotsprings.png,GW/hanover.png,GW/cornwall.png,1.0,,661045b87d3e3a9bda51b367
5592,3318.5999999940395,directmemory_phase,1158228,interleaved,GW/leesburg.png,50.0,1.0,1.0,GW/newhope.png,GW/huntsville.png,GW/gatlinburg.png,GW/huntsville.png,GW/newhope.png,GW/gatlinburg.png,1.0,,661045b87d3e3a9bda51b367
5594,3904.29999999702,directmemory_phase,1163140,interleaved,GW/westpalmbeach.png,51.0,0.0,0.875,GW/cornwall.png,GW/boulder.png,GW/shreveport.png,GW/cornwall.png,GW/shreveport.png,GW/boulder.png,0.5,closer,661045b87d3e3a9bda51b367
5596,2818.0,directmemory_phase,1166966,interleaved,GW/hanover.png,50.0,1.0,0.8888888888888888,GW/gatlinburg.png,GW/hotsprings.png,GW/boulder.png,GW/hotsprings.png,GW/gatlinburg.png,GW/boulder.png,1.0,,661045b87d3e3a9bda51b367
5598,4137.70000000298,directmemory_phase,1172112,interleaved,GW/cornwall.png,51.0,1.0,0.9,GW/boulder.png,GW/leesburg.png,GW/newhope.png,GW/newhope.png,GW/leesburg.png,GW/boulder.png,1.0,,661045b87d3e3a9bda51b367
5600,3418.79999999702,directmemory_phase,1176539,interleaved,GW/westpalmbeach.png,51.0,1.0,0.9090909090909092,GW/leesburg.png,GW/hotsprings.png,GW/carmel.png,GW/carmel.png,GW/hotsprings.png,GW/leesburg.png,1.0,,661045b87d3e3a9bda51b367
5602,3691.29999999702,directmemory_phase,1181238,interleaved,GW/hotsprings.png,49.0,1.0,0.9166666666666666,GW/gatlinburg.png,GW/cornwall.png,GW/shreveport.png,GW/gatlinburg.png,GW/shreveport.png,GW/cornwall.png,1.0,,661045b87d3e3a9bda51b367
5604,2253.4000000059605,directmemory_phase,1184500,interleaved,GW/newhope.png,49.0,1.0,0.9230769230769232,GW/peoria.png,GW/carmel.png,GW/racine.png,GW/peoria.png,GW/racine.png,GW/carmel.png,1.0,,661045b87d3e3a9bda51b367
5606,2748.70000000298,directmemory_phase,1188256,interleaved,GW/hotsprings.png,51.0,1.0,0.9285714285714286,GW/huntsville.png,GW/shreveport.png,GW/carmel.png,GW/carmel.png,GW/shreveport.png,GW/huntsville.png,1.0,,661045b87d3e3a9bda51b367
5608,3223.0,directmemory_phase,1192487,interleaved,GW/hanover.png,51.0,1.0,0.9333333333333332,GW/boulder.png,GW/gatlinburg.png,GW/westpalmbeach.png,GW/westpalmbeach.png,GW/gatlinburg.png,GW/boulder.png,1.0,,661045b87d3e3a9bda51b367
5610,4275.70000000298,directmemory_phase,1197771,interleaved,GW/cornwall.png,51.0,1.0,0.9375,GW/gatlinburg.png,GW/carmel.png,GW/racine.png,GW/racine.png,GW/carmel.png,GW/gatlinburg.png,1.0,,661045b87d3e3a9bda51b367
5612,3989.400000005961,directmemory_phase,1202768,interleaved,GW/carmel.png,51.0,1.0,0.9411764705882352,GW/peoria.png,GW/cornwall.png,GW/hotsprings.png,GW/hotsprings.png,GW/cornwall.png,GW/peoria.png,1.0,,661045b87d3e3a9bda51b367
5614,4758.20000000298,directmemory_phase,1208534,interleaved,GW/cornwall.png,49.0,1.0,0.9444444444444444,GW/westpalmbeach.png,GW/boulder.png,GW/leesburg.png,GW/westpalmbeach.png,GW/leesburg.png,GW/boulder.png,1.0,,661045b87d3e3a9bda51b367
5616,2448.0999999940395,directmemory_phase,1211990,interleaved,GW/newhope.png,51.0,1.0,0.9473684210526316,GW/carmel.png,GW/leesburg.png,GW/huntsville.png,GW/huntsville.png,GW/leesburg.png,GW/carmel.png,1.0,,661045b87d3e3a9bda51b367
5618,3758.599999994039,directmemory_phase,1216756,interleaved,GW/racine.png,51.0,0.0,0.9,GW/cornwall.png,GW/peoria.png,GW/carmel.png,GW/cornwall.png,GW/carmel.png,GW/peoria.png,0.5,closer,661045b87d3e3a9bda51b367
5620,4068.0,directmemory_phase,1221831,interleaved,GW/huntsville.png,49.0,1.0,0.9047619047619048,GW/leesburg.png,GW/hotsprings.png,GW/cornwall.png,GW/leesburg.png,GW/cornwall.png,GW/hotsprings.png,1.0,,661045b87d3e3a9bda51b367
5622,4177.20000000298,directmemory_phase,1227014,interleaved,GW/carmel.png,49.0,1.0,0.9090909090909092,GW/hanover.png,GW/newhope.png,GW/racine.png,GW/hanover.png,GW/racine.png,GW/newhope.png,1.0,,661045b87d3e3a9bda51b367
5624,3822.8999999910593,directmemory_phase,1231843,interleaved,GW/leesburg.png,49.0,1.0,0.9130434782608696,GW/racine.png,GW/westpalmbeach.png,GW/newhope.png,GW/racine.png,GW/newhope.png,GW/westpalmbeach.png,1.0,,661045b87d3e3a9bda51b367
5626,4156.0999999940395,directmemory_phase,1237007,interleaved,GW/huntsville.png,49.0,1.0,0.9166666666666666,GW/boulder.png,GW/hotsprings.png,GW/cornwall.png,GW/boulder.png,GW/cornwall.png,GW/hotsprings.png,1.0,,661045b87d3e3a9bda51b367
5628,4604.5,directmemory_phase,1242618,interleaved,GW/racine.png,50.0,1.0,0.92,GW/huntsville.png,GW/hanover.png,GW/gatlinburg.png,GW/hanover.png,GW/huntsville.png,GW/gatlinburg.png,1.0,,661045b87d3e3a9bda51b367
5630,4518.5,directmemory_phase,1248142,interleaved,GW/carmel.png,51.0,1.0,0.9230769230769232,GW/huntsville.png,GW/gatlinburg.png,GW/shreveport.png,GW/shreveport.png,GW/gatlinburg.png,GW/huntsville.png,1.0,,661045b87d3e3a9bda51b367
5632,2893.5,directmemory_phase,1252043,interleaved,GW/peoria.png,49.0,0.0,0.8888888888888888,GW/huntsville.png,GW/newhope.png,GW/westpalmbeach.png,GW/newhope.png,GW/huntsville.png,GW/westpalmbeach.png,0.5,closer,661045b87d3e3a9bda51b367
5634,3411.5,directmemory_phase,1256461,interleaved,GW/carmel.png,51.0,1.0,0.8928571428571429,GW/peoria.png,GW/cornwall.png,GW/westpalmbeach.png,GW/westpalmbeach.png,GW/cornwall.png,GW/peoria.png,1.0,,661045b87d3e3a9bda51b367
5636,4193.300000011921,directmemory_phase,1261660,interleaved,GW/hotsprings.png,49.0,1.0,0.896551724137931,GW/hanover.png,GW/leesburg.png,GW/westpalmbeach.png,GW/hanover.png,GW/westpalmbeach.png,GW/leesburg.png,1.0,,661045b87d3e3a9bda51b367
5638,2699.5999999940395,directmemory_phase,1265367,interleaved,GW/boulder.png,51.0,1.0,0.9,GW/racine.png,GW/leesburg.png,GW/huntsville.png,GW/huntsville.png,GW/leesburg.png,GW/racine.png,1.0,,661045b87d3e3a9bda51b367
5640,2579.5,directmemory_phase,1268953,interleaved,GW/shreveport.png,50.0,1.0,0.9032258064516128,GW/hotsprings.png,GW/carmel.png,GW/racine.png,GW/carmel.png,GW/hotsprings.png,GW/racine.png,1.0,,661045b87d3e3a9bda51b367
5642,3709.1000000089407,directmemory_phase,1273670,interleaved,GW/hanover.png,51.0,1.0,0.90625,GW/huntsville.png,GW/gatlinburg.png,GW/racine.png,GW/racine.png,GW/gatlinburg.png,GW/huntsville.png,1.0,,661045b87d3e3a9bda51b367
7532,3098.399999999907,directmemory_phase,1288378,interleaved,GW/huntsville.png,49.0,1.0,1.0,GW/shreveport.png,GW/boulder.png,GW/carmel.png,GW/shreveport.png,GW/carmel.png,GW/boulder.png,1.0,,5ba5d8b960f3d50001697104
7534,2040.8999999999069,directmemory_phase,1291425,interleaved,GW/cornwall.png,51.0,1.0,1.0,GW/boulder.png,GW/racine.png,GW/hotsprings.png,GW/hotsprings.png,GW/racine.png,GW/boulder.png,1.0,,5ba5d8b960f3d50001697104
7536,1815.5,directmemory_phase,1294250,interleaved,GW/peoria.png,50.0,1.0,1.0,GW/hotsprings.png,GW/shreveport.png,GW/racine.png,GW/shreveport.png,GW/hotsprings.png,GW/racine.png,1.0,,5ba5d8b960f3d50001697104
7538,3347.4000000003725,directmemory_phase,1298608,interleaved,GW/leesburg.png,51.0,1.0,1.0,GW/hanover.png,GW/shreveport.png,GW/huntsville.png,GW/huntsville.png,GW/shreveport.png,GW/hanover.png,1.0,,5ba5d8b960f3d50001697104
7540,1892.5,directmemory_phase,1301509,interleaved,GW/shreveport.png,49.0,1.0,1.0,GW/hotsprings.png,GW/carmel.png,GW/leesburg.png,GW/hotsprings.png,GW/leesburg.png,GW/carmel.png,1.0,,5ba5d8b960f3d50001697104
7542,2222.8000000002794,directmemory_phase,1304747,interleaved,GW/peoria.png,51.0,1.0,1.0,GW/racine.png,GW/hotsprings.png,GW/huntsville.png,GW/huntsville.png,GW/hotsprings.png,GW/racine.png,1.0,,5ba5d8b960f3d50001697104
7544,3582.899999999907,directmemory_phase,1309341,interleaved,GW/racine.png,49.0,1.0,1.0,GW/carmel.png,GW/huntsville.png,GW/newhope.png,GW/carmel.png,GW/newhope.png,GW/huntsville.png,1.0,,5ba5d8b960f3d50001697104
7546,1924.0,directmemory_phase,1312274,interleaved,GW/huntsville.png,49.0,1.0,1.0,GW/leesburg.png,GW/boulder.png,GW/carmel.png,GW/leesburg.png,GW/carmel.png,GW/boulder.png,1.0,,5ba5d8b960f3d50001697104
7548,2314.399999999907,directmemory_phase,1315598,interleaved,GW/shreveport.png,49.0,1.0,1.0,GW/peoria.png,GW/racine.png,GW/leesburg.png,GW/peoria.png,GW/leesburg.png,GW/racine.png,1.0,,5ba5d8b960f3d50001697104
7550,3210.8000000002794,directmemory_phase,1319824,interleaved,GW/hotsprings.png,51.0,1.0,1.0,GW/carmel.png,GW/leesburg.png,GW/huntsville.png,GW/huntsville.png,GW/leesburg.png,GW/carmel.png,1.0,,5ba5d8b960f3d50001697104
7552,1958.6000000000931,directmemory_phase,1322792,interleaved,GW/westpalmbeach.png,51.0,1.0,1.0,GW/leesburg.png,GW/shreveport.png,GW/peoria.png,GW/peoria.png,GW/shreveport.png,GW/leesburg.png,1.0,,5ba5d8b960f3d50001697104
7554,2148.9000000003725,directmemory_phase,1325955,interleaved,GW/hotsprings.png,49.0,1.0,1.0,GW/shreveport.png,GW/newhope.png,GW/gatlinburg.png,GW/shreveport.png,GW/gatlinburg.png,GW/newhope.png,1.0,,5ba5d8b960f3d50001697104
7556,3248.7999999998137,directmemory_phase,1330213,interleaved,GW/leesburg.png,50.0,1.0,1.0,GW/hotsprings.png,GW/cornwall.png,GW/newhope.png,GW/cornwall.png,GW/hotsprings.png,GW/newhope.png,1.0,,5ba5d8b960f3d50001697104
7558,1794.5,directmemory_phase,1333014,interleaved,GW/newhope.png,50.0,1.0,1.0,GW/cornwall.png,GW/gatlinburg.png,GW/carmel.png,GW/gatlinburg.png,GW/cornwall.png,GW/carmel.png,1.0,,5ba5d8b960f3d50001697104
7560,1929.8000000002792,directmemory_phase,1335948,interleaved,GW/cornwall.png,49.0,1.0,1.0,GW/leesburg.png,GW/westpalmbeach.png,GW/shreveport.png,GW/leesburg.png,GW/shreveport.png,GW/westpalmbeach.png,1.0,,5ba5d8b960f3d50001697104
7562,2190.899999999907,directmemory_phase,1339145,interleaved,GW/racine.png,49.0,1.0,1.0,GW/gatlinburg.png,GW/shreveport.png,GW/cornwall.png,GW/gatlinburg.png,GW/cornwall.png,GW/shreveport.png,1.0,,5ba5d8b960f3d50001697104
7564,3087.1999999997206,directmemory_phase,1343246,interleaved,GW/huntsville.png,50.0,1.0,1.0,GW/cornwall.png,GW/peoria.png,GW/boulder.png,GW/peoria.png,GW/cornwall.png,GW/boulder.png,1.0,,5ba5d8b960f3d50001697104
7566,2146.7000000001863,directmemory_phase,1346404,interleaved,GW/racine.png,49.0,1.0,1.0,GW/boulder.png,GW/shreveport.png,GW/newhope.png,GW/boulder.png,GW/newhope.png,GW/shreveport.png,1.0,,5ba5d8b960f3d50001697104
7568,1954.7000000001865,directmemory_phase,1349370,interleaved,GW/shreveport.png,50.0,1.0,1.0,GW/westpalmbeach.png,GW/huntsville.png,GW/newhope.png,GW/huntsville.png,GW/westpalmbeach.png,GW/newhope.png,1.0,,5ba5d8b960f3d50001697104
7570,1586.1999999997206,directmemory_phase,1351968,interleaved,GW/gatlinburg.png,51.0,1.0,1.0,GW/hanover.png,GW/carmel.png,GW/racine.png,GW/racine.png,GW/carmel.png,GW/hanover.png,1.0,,5ba5d8b960f3d50001697104
7572,1725.6000000000931,directmemory_phase,1354708,interleaved,GW/huntsville.png,50.0,1.0,1.0,GW/carmel.png,GW/hotsprings.png,GW/newhope.png,GW/hotsprings.png,GW/carmel.png,GW/newhope.png,1.0,,5ba5d8b960f3d50001697104
7574,2514.5,directmemory_phase,1358233,interleaved,GW/cornwall.png,51.0,1.0,1.0,GW/hanover.png,GW/racine.png,GW/gatlinburg.png,GW/gatlinburg.png,GW/racine.png,GW/hanover.png,1.0,,5ba5d8b960f3d50001697104
7576,1389.6000000000931,directmemory_phase,1360636,interleaved,GW/hanover.png,50.0,1.0,1.0,GW/hotsprings.png,GW/shreveport.png,GW/leesburg.png,GW/shreveport.png,GW/hotsprings.png,GW/leesburg.png,1.0,,5ba5d8b960f3d50001697104
7578,1856.0,directmemory_phase,1363500,interleaved,GW/boulder.png,51.0,1.0,1.0,GW/huntsville.png,GW/gatlinburg.png,GW/racine.png,GW/racine.png,GW/gatlinburg.png,GW/huntsville.png,1.0,,5ba5d8b960f3d50001697104
7580,1563.5,directmemory_phase,1366073,interleaved,GW/leesburg.png,49.0,1.0,1.0,GW/carmel.png,GW/hanover.png,GW/shreveport.png,GW/carmel.png,GW/shreveport.png,GW/hanover.png,1.0,,5ba5d8b960f3d50001697104
7582,1534.8999999999069,directmemory_phase,1368618,interleaved,GW/shreveport.png,49.0,1.0,1.0,GW/hanover.png,GW/carmel.png,GW/westpalmbeach.png,GW/hanover.png,GW/westpalmbeach.png,GW/carmel.png,1.0,,5ba5d8b960f3d50001697104
7584,2394.5,directmemory_phase,1372023,interleaved,GW/carmel.png,49.0,1.0,1.0,GW/racine.png,GW/hotsprings.png,GW/boulder.png,GW/racine.png,GW/boulder.png,GW/hotsprings.png,1.0,,5ba5d8b960f3d50001697104
7586,2310.7000000001863,directmemory_phase,1375339,interleaved,GW/gatlinburg.png,51.0,1.0,1.0,GW/hanover.png,GW/carmel.png,GW/cornwall.png,GW/cornwall.png,GW/carmel.png,GW/hanover.png,1.0,,5ba5d8b960f3d50001697104
7588,1846.6999999997208,directmemory_phase,1378195,interleaved,GW/carmel.png,49.0,1.0,1.0,GW/leesburg.png,GW/hotsprings.png,GW/cornwall.png,GW/leesburg.png,GW/cornwall.png,GW/hotsprings.png,1.0,,5ba5d8b960f3d50001697104
7590,2748.899999999907,directmemory_phase,1381954,interleaved,GW/gatlinburg.png,51.0,1.0,1.0,GW/peoria.png,GW/hotsprings.png,GW/newhope.png,GW/newhope.png,GW/hotsprings.png,GW/peoria.png,1.0,,5ba5d8b960f3d50001697104
7592,1744.0,directmemory_phase,1384711,interleaved,GW/hotsprings.png,50.0,1.0,1.0,GW/hanover.png,GW/cornwall.png,GW/westpalmbeach.png,GW/cornwall.png,GW/hanover.png,GW/westpalmbeach.png,1.0,,5ba5d8b960f3d50001697104
7594,2192.399999999907,directmemory_phase,1387911,interleaved,GW/peoria.png,50.0,0.0,0.96875,GW/racine.png,GW/hotsprings.png,GW/westpalmbeach.png,GW/westpalmbeach.png,GW/hotsprings.png,GW/racine.png,0.5,closer,5ba5d8b960f3d50001697104
11436,1690.5,directmemory_phase,1018260,interleaved,GW/hotsprings.png,50.0,1.0,1.0,GW/hanover.png,GW/carmel.png,GW/leesburg.png,GW/carmel.png,GW/hanover.png,GW/leesburg.png,1.0,,574ce0a57fd0ec000db73aa6
11438,1675.2999997138977,directmemory_phase,1020937,interleaved,GW/gatlinburg.png,51.0,1.0,1.0,GW/hanover.png,GW/racine.png,GW/cornwall.png,GW/cornwall.png,GW/racine.png,GW/hanover.png,1.0,,574ce0a57fd0ec000db73aa6
11440,2741.5,directmemory_phase,1024681,interleaved,GW/leesburg.png,51.0,1.0,1.0,GW/hanover.png,GW/boulder.png,GW/westpalmbeach.png,GW/westpalmbeach.png,GW/boulder.png,GW/hanover.png,1.0,,574ce0a57fd0ec000db73aa6
11442,1264.0,directmemory_phase,1026948,interleaved,GW/carmel.png,49.0,1.0,1.0,GW/hotsprings.png,GW/hanover.png,GW/shreveport.png,GW/hotsprings.png,GW/shreveport.png,GW/hanover.png,1.0,,574ce0a57fd0ec000db73aa6
11444,1869.5999999046328,directmemory_phase,1029820,interleaved,GW/leesburg.png,49.0,1.0,1.0,GW/newhope.png,GW/carmel.png,GW/shreveport.png,GW/newhope.png,GW/shreveport.png,GW/carmel.png,1.0,,574ce0a57fd0ec000db73aa6
11446,3010.800000190735,directmemory_phase,1033834,interleaved,GW/huntsville.png,49.0,1.0,1.0,GW/westpalmbeach.png,GW/shreveport.png,GW/boulder.png,GW/westpalmbeach.png,GW/boulder.png,GW/shreveport.png,1.0,,574ce0a57fd0ec000db73aa6
11448,1636.8000001907349,directmemory_phase,1036473,interleaved,GW/shreveport.png,51.0,1.0,1.0,GW/huntsville.png,GW/carmel.png,GW/newhope.png,GW/newhope.png,GW/carmel.png,GW/huntsville.png,1.0,,574ce0a57fd0ec000db73aa6
11450,1433.0999999046326,directmemory_phase,1038910,interleaved,GW/boulder.png,49.0,1.0,1.0,GW/westpalmbeach.png,GW/shreveport.png,GW/racine.png,GW/westpalmbeach.png,GW/racine.png,GW/shreveport.png,1.0,,574ce0a57fd0ec000db73aa6
11452,2206.0,directmemory_phase,1042119,interleaved,GW/newhope.png,50.0,1.0,1.0,GW/hotsprings.png,GW/cornwall.png,GW/huntsville.png,GW/cornwall.png,GW/hotsprings.png,GW/huntsville.png,1.0,,574ce0a57fd0ec000db73aa6
11454,1703.5,directmemory_phase,1044832,interleaved,GW/racine.png,49.0,1.0,1.0,GW/leesburg.png,GW/carmel.png,GW/peoria.png,GW/leesburg.png,GW/peoria.png,GW/carmel.png,1.0,,574ce0a57fd0ec000db73aa6
11456,1356.3000001907349,directmemory_phase,1047191,interleaved,GW/hotsprings.png,51.0,1.0,1.0,GW/leesburg.png,GW/cornwall.png,GW/gatlinburg.png,GW/gatlinburg.png,GW/cornwall.png,GW/leesburg.png,1.0,,574ce0a57fd0ec000db73aa6
11458,1104.5,directmemory_phase,1049298,interleaved,GW/peoria.png,50.0,1.0,1.0,GW/westpalmbeach.png,GW/huntsville.png,GW/gatlinburg.png,GW/huntsville.png,GW/westpalmbeach.png,GW/gatlinburg.png,1.0,,574ce0a57fd0ec000db73aa6
11460,1261.1999998092651,directmemory_phase,1051563,interleaved,GW/cornwall.png,50.0,1.0,1.0,GW/hotsprings.png,GW/gatlinburg.png,GW/hanover.png,GW/gatlinburg.png,GW/hotsprings.png,GW/hanover.png,1.0,,574ce0a57fd0ec000db73aa6
11462,1706.7000002861023,directmemory_phase,1054272,interleaved,GW/hotsprings.png,51.0,1.0,1.0,GW/huntsville.png,GW/cornwall.png,GW/shreveport.png,GW/shreveport.png,GW/cornwall.png,GW/huntsville.png,1.0,,574ce0a57fd0ec000db73aa6
11464,1889.7000002861023,directmemory_phase,1057165,interleaved,GW/cornwall.png,49.0,1.0,1.0,GW/racine.png,GW/carmel.png,GW/shreveport.png,GW/racine.png,GW/shreveport.png,GW/carmel.png,1.0,,574ce0a57fd0ec000db73aa6
11466,1301.6999998092651,directmemory_phase,1059469,interleaved,GW/huntsville.png,51.0,1.0,1.0,GW/shreveport.png,GW/boulder.png,GW/peoria.png,GW/peoria.png,GW/boulder.png,GW/shreveport.png,1.0,,574ce0a57fd0ec000db73aa6
11468,2259.400000095367,directmemory_phase,1062730,interleaved,GW/racine.png,49.0,1.0,1.0,GW/westpalmbeach.png,GW/shreveport.png,GW/boulder.png,GW/westpalmbeach.png,GW/boulder.png,GW/shreveport.png,1.0,,574ce0a57fd0ec000db73aa6
11470,1179.9000000953674,directmemory_phase,1064912,interleaved,GW/shreveport.png,50.0,1.0,1.0,GW/leesburg.png,GW/hotsprings.png,GW/huntsville.png,GW/hotsprings.png,GW/leesburg.png,GW/huntsville.png,1.0,,574ce0a57fd0ec000db73aa6
11472,4484.299999713898,directmemory_phase,1070399,interleaved,GW/huntsville.png,50.0,1.0,1.0,GW/cornwall.png,GW/racine.png,GW/hotsprings.png,GW/racine.png,GW/cornwall.png,GW/hotsprings.png,1.0,,574ce0a57fd0ec000db73aa6
11474,2192.8999996185303,directmemory_phase,1073594,interleaved,GW/newhope.png,49.0,1.0,1.0,GW/shreveport.png,GW/boulder.png,GW/gatlinburg.png,GW/shreveport.png,GW/gatlinburg.png,GW/boulder.png,1.0,,574ce0a57fd0ec000db73aa6
11476,2140.2999997138977,directmemory_phase,1076737,interleaved,GW/racine.png,49.0,1.0,1.0,GW/huntsville.png,GW/carmel.png,GW/gatlinburg.png,GW/huntsville.png,GW/gatlinburg.png,GW/carmel.png,1.0,,574ce0a57fd0ec000db73aa6
11478,1780.0,directmemory_phase,1079534,interleaved,GW/westpalmbeach.png,51.0,1.0,1.0,GW/hotsprings.png,GW/cornwall.png,GW/boulder.png,GW/boulder.png,GW/cornwall.png,GW/hotsprings.png,1.0,,574ce0a57fd0ec000db73aa6
11480,1394.4000000953674,directmemory_phase,1081931,interleaved,GW/shreveport.png,51.0,1.0,1.0,GW/westpalmbeach.png,GW/leesburg.png,GW/hanover.png,GW/hanover.png,GW/leesburg.png,GW/westpalmbeach.png,1.0,,574ce0a57fd0ec000db73aa6
11482,2248.400000095367,directmemory_phase,1085182,interleaved,GW/westpalmbeach.png,51.0,1.0,1.0,GW/gatlinburg.png,GW/newhope.png,GW/racine.png,GW/racine.png,GW/newhope.png,GW/gatlinburg.png,1.0,,574ce0a57fd0ec000db73aa6
11484,1909.6999998092651,directmemory_phase,1088094,interleaved,GW/hanover.png,51.0,1.0,1.0,GW/cornwall.png,GW/hotsprings.png,GW/shreveport.png,GW/shreveport.png,GW/hotsprings.png,GW/cornwall.png,1.0,,574ce0a57fd0ec000db73aa6
11486,1336.9000000953674,directmemory_phase,1090433,interleaved,GW/newhope.png,49.0,1.0,1.0,GW/leesburg.png,GW/boulder.png,GW/hotsprings.png,GW/leesburg.png,GW/hotsprings.png,GW/boulder.png,1.0,,574ce0a57fd0ec000db73aa6
11488,1256.4000000953674,directmemory_phase,1092693,interleaved,GW/racine.png,49.0,1.0,1.0,GW/cornwall.png,GW/hanover.png,GW/peoria.png,GW/cornwall.png,GW/peoria.png,GW/hanover.png,1.0,,574ce0a57fd0ec000db73aa6
11490,2723.7000002861023,directmemory_phase,1096420,interleaved,GW/westpalmbeach.png,51.0,1.0,1.0,GW/hanover.png,GW/peoria.png,GW/leesburg.png,GW/leesburg.png,GW/peoria.png,GW/hanover.png,1.0,,574ce0a57fd0ec000db73aa6
11492,1661.3999996185305,directmemory_phase,1099093,interleaved,GW/cornwall.png,50.0,1.0,1.0,GW/huntsville.png,GW/newhope.png,GW/carmel.png,GW/newhope.png,GW/huntsville.png,GW/carmel.png,1.0,,574ce0a57fd0ec000db73aa6
11494,1260.4000000953674,directmemory_phase,1101356,interleaved,GW/gatlinburg.png,49.0,1.0,1.0,GW/hotsprings.png,GW/peoria.png,GW/racine.png,GW/hotsprings.png,GW/racine.png,GW/peoria.png,1.0,,574ce0a57fd0ec000db73aa6
11496,1604.0999999046326,directmemory_phase,1103963,interleaved,GW/leesburg.png,49.0,1.0,1.0,GW/racine.png,GW/gatlinburg.png,GW/huntsville.png,GW/racine.png,GW/huntsville.png,GW/gatlinburg.png,1.0,,574ce0a57fd0ec000db73aa6
11498,2680.199999809265,directmemory_phase,1107646,interleaved,GW/westpalmbeach.png,49.0,1.0,1.0,GW/huntsville.png,GW/hotsprings.png,GW/newhope.png,GW/huntsville.png,GW/newhope.png,GW/hotsprings.png,1.0,,574ce0a57fd0ec000db73aa6
13409,3229.0,directmemory_phase,1157001,interleaved,GW/cornwall.png,50.0,1.0,1.0,GW/huntsville.png,GW/shreveport.png,GW/carmel.png,GW/shreveport.png,GW/huntsville.png,GW/carmel.png,1.0,,5f7be1818da8861e3c3fcae8
13411,2008.399999976158,directmemory_phase,1160013,interleaved,GW/hotsprings.png,49.0,1.0,1.0,GW/peoria.png,GW/hanover.png,GW/cornwall.png,GW/peoria.png,GW/cornwall.png,GW/hanover.png,1.0,,5f7be1818da8861e3c3fcae8
13413,2314.8000000715256,directmemory_phase,1163330,interleaved,GW/shreveport.png,49.0,1.0,1.0,GW/gatlinburg.png,GW/leesburg.png,GW/hanover.png,GW/gatlinburg.png,GW/hanover.png,GW/leesburg.png,1.0,,5f7be1818da8861e3c3fcae8
13415,1935.6999999284744,directmemory_phase,1166268,interleaved,GW/carmel.png,49.0,1.0,1.0,GW/boulder.png,GW/hanover.png,GW/peoria.png,GW/boulder.png,GW/peoria.png,GW/hanover.png,1.0,,5f7be1818da8861e3c3fcae8
13417,2363.0,directmemory_phase,1169633,interleaved,GW/hanover.png,50.0,1.0,1.0,GW/westpalmbeach.png,GW/gatlinburg.png,GW/carmel.png,GW/gatlinburg.png,GW/westpalmbeach.png,GW/carmel.png,1.0,,5f7be1818da8861e3c3fcae8
13419,3244.600000023842,directmemory_phase,1173880,interleaved,GW/boulder.png,50.0,1.0,1.0,GW/racine.png,GW/carmel.png,GW/hanover.png,GW/carmel.png,GW/racine.png,GW/hanover.png,1.0,,5f7be1818da8861e3c3fcae8
13421,1997.100000023842,directmemory_phase,1176880,interleaved,GW/huntsville.png,51.0,1.0,1.0,GW/shreveport.png,GW/cornwall.png,GW/hanover.png,GW/hanover.png,GW/cornwall.png,GW/shreveport.png,1.0,,5f7be1818da8861e3c3fcae8
13423,1636.1999999284744,directmemory_phase,1179518,interleaved,GW/peoria.png,51.0,1.0,1.0,GW/leesburg.png,GW/carmel.png,GW/hotsprings.png,GW/hotsprings.png,GW/carmel.png,GW/leesburg.png,1.0,,5f7be1818da8861e3c3fcae8
13425,1977.899999976158,directmemory_phase,1182498,interleaved,GW/carmel.png,51.0,1.0,1.0,GW/shreveport.png,GW/peoria.png,GW/newhope.png,GW/newhope.png,GW/peoria.png,GW/shreveport.png,1.0,,5f7be1818da8861e3c3fcae8
13427,1928.5,directmemory_phase,1185429,interleaved,GW/gatlinburg.png,49.0,1.0,1.0,GW/peoria.png,GW/racine.png,GW/westpalmbeach.png,GW/peoria.png,GW/westpalmbeach.png,GW/racine.png,1.0,,5f7be1818da8861e3c3fcae8
13429,1430.100000023842,directmemory_phase,1187861,interleaved,GW/racine.png,50.0,1.0,1.0,GW/boulder.png,GW/carmel.png,GW/shreveport.png,GW/carmel.png,GW/boulder.png,GW/shreveport.png,1.0,,5f7be1818da8861e3c3fcae8
13431,1565.3000000715256,directmemory_phase,1190429,interleaved,GW/cornwall.png,51.0,1.0,1.0,GW/leesburg.png,GW/huntsville.png,GW/hanover.png,GW/hanover.png,GW/huntsville.png,GW/leesburg.png,1.0,,5f7be1818da8861e3c3fcae8
13433,2104.7000000476837,directmemory_phase,1193536,interleaved,GW/boulder.png,49.0,1.0,1.0,GW/peoria.png,GW/huntsville.png,GW/hotsprings.png,GW/peoria.png,GW/hotsprings.png,GW/huntsville.png,1.0,,5f7be1818da8861e3c3fcae8
13435,1550.899999976158,directmemory_phase,1196090,interleaved,GW/hanover.png,51.0,1.0,1.0,GW/newhope.png,GW/westpalmbeach.png,GW/cornwall.png,GW/cornwall.png,GW/westpalmbeach.png,GW/newhope.png,1.0,,5f7be1818da8861e3c3fcae8
13437,1506.1999999284744,directmemory_phase,1198599,interleaved,GW/peoria.png,51.0,1.0,1.0,GW/racine.png,GW/carmel.png,GW/gatlinburg.png,GW/gatlinburg.png,GW/carmel.png,GW/racine.png,1.0,,5f7be1818da8861e3c3fcae8
13439,1311.7000000476835,directmemory_phase,1200913,interleaved,GW/carmel.png,50.0,1.0,1.0,GW/leesburg.png,GW/racine.png,GW/shreveport.png,GW/racine.png,GW/leesburg.png,GW/shreveport.png,1.0,,5f7be1818da8861e3c3fcae8
13441,1569.399999976158,directmemory_phase,1203495,interleaved,GW/gatlinburg.png,51.0,1.0,1.0,GW/leesburg.png,GW/huntsville.png,GW/cornwall.png,GW/cornwall.png,GW/huntsville.png,GW/leesburg.png,1.0,,5f7be1818da8861e3c3fcae8
13443,3547.399999976158,directmemory_phase,1208045,interleaved,GW/peoria.png,50.0,1.0,1.0,GW/cornwall.png,GW/boulder.png,GW/huntsville.png,GW/boulder.png,GW/cornwall.png,GW/huntsville.png,1.0,,5f7be1818da8861e3c3fcae8
13445,1834.8000000715256,directmemory_phase,1210882,interleaved,GW/gatlinburg.png,49.0,1.0,1.0,GW/hanover.png,GW/leesburg.png,GW/huntsville.png,GW/hanover.png,GW/huntsville.png,GW/leesburg.png,1.0,,5f7be1818da8861e3c3fcae8
13447,1642.899999976158,directmemory_phase,1213527,interleaved,GW/hotsprings.png,49.0,1.0,1.0,GW/newhope.png,GW/westpalmbeach.png,GW/cornwall.png,GW/newhope.png,GW/cornwall.png,GW/westpalmbeach.png,1.0,,5f7be1818da8861e3c3fcae8
13449,1659.3000000715256,directmemory_phase,1216189,interleaved,GW/shreveport.png,51.0,1.0,1.0,GW/carmel.png,GW/westpalmbeach.png,GW/cornwall.png,GW/cornwall.png,GW/westpalmbeach.png,GW/carmel.png,1.0,,5f7be1818da8861e3c3fcae8
13451,1687.2000000476835,directmemory_phase,1218879,interleaved,GW/leesburg.png,50.0,1.0,1.0,GW/carmel.png,GW/newhope.png,GW/cornwall.png,GW/newhope.png,GW/carmel.png,GW/cornwall.png,1.0,,5f7be1818da8861e3c3fcae8
13453,1531.899999976158,directmemory_phase,1221413,interleaved,GW/cornwall.png,51.0,1.0,1.0,GW/newhope.png,GW/huntsville.png,GW/gatlinburg.png,GW/gatlinburg.png,GW/huntsville.png,GW/newhope.png,1.0,,5f7be1818da8861e3c3fcae8
13455,1930.0,directmemory_phase,1224345,interleaved,GW/newhope.png,50.0,1.0,1.0,GW/racine.png,GW/leesburg.png,GW/gatlinburg.png,GW/leesburg.png,GW/racine.png,GW/gatlinburg.png,1.0,,5f7be1818da8861e3c3fcae8
13457,1773.100000023842,directmemory_phase,1227121,interleaved,GW/gatlinburg.png,51.0,1.0,1.0,GW/leesburg.png,GW/boulder.png,GW/shreveport.png,GW/shreveport.png,GW/boulder.png,GW/leesburg.png,1.0,,5f7be1818da8861e3c3fcae8
13459,1962.600000023842,directmemory_phase,1230085,interleaved,GW/cornwall.png,51.0,1.0,1.0,GW/boulder.png,GW/huntsville.png,GW/westpalmbeach.png,GW/westpalmbeach.png,GW/huntsville.png,GW/boulder.png,1.0,,5f7be1818da8861e3c3fcae8
13461,2286.0,directmemory_phase,1233374,interleaved,GW/shreveport.png,51.0,1.0,1.0,GW/racine.png,GW/newhope.png,GW/hotsprings.png,GW/hotsprings.png,GW/newhope.png,GW/racine.png,1.0,,5f7be1818da8861e3c3fcae8
13463,1673.4000000953674,directmemory_phase,1236053,interleaved,GW/westpalmbeach.png,50.0,1.0,1.0,GW/gatlinburg.png,GW/cornwall.png,GW/huntsville.png,GW/cornwall.png,GW/gatlinburg.png,GW/huntsville.png,1.0,,5f7be1818da8861e3c3fcae8
13465,1462.7999999523165,directmemory_phase,1238518,interleaved,GW/newhope.png,49.0,1.0,1.0,GW/hotsprings.png,GW/westpalmbeach.png,GW/boulder.png,GW/hotsprings.png,GW/boulder.png,GW/westpalmbeach.png,1.0,,5f7be1818da8861e3c3fcae8
13467,3232.599999904633,directmemory_phase,1242753,interleaved,GW/hanover.png,51.0,1.0,1.0,GW/carmel.png,GW/shreveport.png,GW/huntsville.png,GW/huntsville.png,GW/shreveport.png,GW/carmel.png,1.0,,5f7be1818da8861e3c3fcae8
13469,1596.0,directmemory_phase,1245351,interleaved,GW/hotsprings.png,49.0,1.0,1.0,GW/shreveport.png,GW/racine.png,GW/boulder.png,GW/shreveport.png,GW/boulder.png,GW/racine.png,1.0,,5f7be1818da8861e3c3fcae8
13471,2240.0,directmemory_phase,1248594,interleaved,GW/newhope.png,51.0,1.0,1.0,GW/westpalmbeach.png,GW/racine.png,GW/carmel.png,GW/carmel.png,GW/racine.png,GW/westpalmbeach.png,1.0,,5f7be1818da8861e3c3fcae8
14386,2922.9000000059605,directmemory_phase,1043947,interleaved,GW/huntsville.png,50.0,1.0,1.0,GW/carmel.png,GW/cornwall.png,GW/westpalmbeach.png,GW/cornwall.png,GW/carmel.png,GW/westpalmbeach.png,1.0,,663bc31529719b8501c52820
14388,1445.4000000059605,directmemory_phase,1046396,interleaved,GW/leesburg.png,51.0,1.0,1.0,GW/boulder.png,GW/hotsprings.png,GW/carmel.png,GW/carmel.png,GW/hotsprings.png,GW/boulder.png,1.0,,663bc31529719b8501c52820
14390,1621.7000000178814,directmemory_phase,1049021,interleaved,GW/boulder.png,51.0,1.0,1.0,GW/leesburg.png,GW/westpalmbeach.png,GW/huntsville.png,GW/huntsville.png,GW/westpalmbeach.png,GW/leesburg.png,1.0,,663bc31529719b8501c52820
14392,2418.5,directmemory_phase,1052444,interleaved,GW/shreveport.png,51.0,1.0,1.0,GW/racine.png,GW/gatlinburg.png,GW/cornwall.png,GW/cornwall.png,GW/gatlinburg.png,GW/racine.png,1.0,,663bc31529719b8501c52820
14394,1395.0999999940395,directmemory_phase,1054842,interleaved,GW/racine.png,49.0,1.0,1.0,GW/peoria.png,GW/shreveport.png,GW/leesburg.png,GW/peoria.png,GW/leesburg.png,GW/shreveport.png,1.0,,663bc31529719b8501c52820
14396,2233.5,directmemory_phase,1058079,interleaved,GW/boulder.png,51.0,1.0,1.0,GW/carmel.png,GW/westpalmbeach.png,GW/shreveport.png,GW/shreveport.png,GW/westpalmbeach.png,GW/carmel.png,1.0,,663bc31529719b8501c52820
14398,1494.2999999821186,directmemory_phase,1060578,interleaved,GW/newhope.png,49.0,1.0,1.0,GW/hotsprings.png,GW/leesburg.png,GW/huntsville.png,GW/hotsprings.png,GW/huntsville.png,GW/leesburg.png,1.0,,663bc31529719b8501c52820
14400,1600.7000000178814,directmemory_phase,1063182,interleaved,GW/boulder.png,49.0,1.0,1.0,GW/cornwall.png,GW/carmel.png,GW/newhope.png,GW/cornwall.png,GW/newhope.png,GW/carmel.png,1.0,,663bc31529719b8501c52820
14402,1714.800000011921,directmemory_phase,1065900,interleaved,GW/peoria.png,51.0,1.0,1.0,GW/cornwall.png,GW/carmel.png,GW/racine.png,GW/racine.png,GW/carmel.png,GW/cornwall.png,1.0,,663bc31529719b8501c52820
14404,1642.9000000059605,directmemory_phase,1068545,interleaved,GW/gatlinburg.png,51.0,1.0,1.0,GW/newhope.png,GW/shreveport.png,GW/boulder.png,GW/boulder.png,GW/shreveport.png,GW/newhope.png,1.0,,663bc31529719b8501c52820
14406,1158.699999988079,directmemory_phase,1070707,interleaved,GW/hanover.png,49.0,1.0,1.0,GW/racine.png,GW/gatlinburg.png,GW/peoria.png,GW/racine.png,GW/peoria.png,GW/gatlinburg.png,1.0,,663bc31529719b8501c52820
14408,1789.5999999940395,directmemory_phase,1073500,interleaved,GW/cornwall.png,49.0,1.0,1.0,GW/shreveport.png,GW/racine.png,GW/hotsprings.png,GW/shreveport.png,GW/hotsprings.png,GW/racine.png,1.0,,663bc31529719b8501c52820
14410,1260.2000000178814,directmemory_phase,1075763,interleaved,GW/carmel.png,51.0,1.0,1.0,GW/boulder.png,GW/peoria.png,GW/racine.png,GW/racine.png,GW/peoria.png,GW/boulder.png,1.0,,663bc31529719b8501c52820
14412,1890.0999999940395,directmemory_phase,1078657,interleaved,GW/huntsville.png,51.0,1.0,1.0,GW/racine.png,GW/gatlinburg.png,GW/hotsprings.png,GW/hotsprings.png,GW/gatlinburg.png,GW/racine.png,1.0,,663bc31529719b8501c52820
14414,2580.699999988079,directmemory_phase,1082240,interleaved,GW/cornwall.png,49.0,1.0,1.0,GW/newhope.png,GW/racine.png,GW/hotsprings.png,GW/newhope.png,GW/hotsprings.png,GW/racine.png,1.0,,663bc31529719b8501c52820
14416,2199.5999999940395,directmemory_phase,1085451,interleaved,GW/westpalmbeach.png,51.0,1.0,1.0,GW/newhope.png,GW/cornwall.png,GW/shreveport.png,GW/shreveport.png,GW/cornwall.png,GW/newhope.png,1.0,,663bc31529719b8501c52820
14418,2007.699999988079,directmemory_phase,1088461,interleaved,GW/cornwall.png,51.0,1.0,1.0,GW/leesburg.png,GW/hanover.png,GW/boulder.png,GW/boulder.png,GW/hanover.png,GW/leesburg.png,1.0,,663bc31529719b8501c52820
14420,2179.2999999821186,directmemory_phase,1091643,interleaved,GW/carmel.png,51.0,1.0,1.0,GW/cornwall.png,GW/peoria.png,GW/leesburg.png,GW/leesburg.png,GW/peoria.png,GW/cornwall.png,1.0,,663bc31529719b8501c52820
14422,1347.7000000178814,directmemory_phase,1093994,interleaved,GW/huntsville.png,49.0,1.0,1.0,GW/boulder.png,GW/hanover.png,GW/gatlinburg.png,GW/boulder.png,GW/gatlinburg.png,GW/hanover.png,1.0,,663bc31529719b8501c52820
14424,2937.5,directmemory_phase,1097935,interleaved,GW/carmel.png,49.0,1.0,1.0,GW/hotsprings.png,GW/boulder.png,GW/hanover.png,GW/hotsprings.png,GW/hanover.png,GW/boulder.png,1.0,,663bc31529719b8501c52820
14426,4991.700000017881,directmemory_phase,1103931,interleaved,GW/cornwall.png,51.0,1.0,1.0,GW/carmel.png,GW/hotsprings.png,GW/huntsville.png,GW/huntsville.png,GW/hotsprings.png,GW/carmel.png,1.0,,663bc31529719b8501c52820
14428,2073.100000023842,directmemory_phase,1107008,interleaved,GW/racine.png,51.0,1.0,1.0,GW/huntsville.png,GW/leesburg.png,GW/carmel.png,GW/carmel.png,GW/leesburg.png,GW/huntsville.png,1.0,,663bc31529719b8501c52820
14430,3849.400000005961,directmemory_phase,1111859,interleaved,GW/hotsprings.png,51.0,1.0,1.0,GW/gatlinburg.png,GW/racine.png,GW/newhope.png,GW/newhope.png,GW/racine.png,GW/gatlinburg.png,1.0,,663bc31529719b8501c52820
14432,1827.7999999821184,directmemory_phase,1114691,interleaved,GW/boulder.png,51.0,0.0,0.9583333333333334,GW/gatlinburg.png,GW/leesburg.png,GW/newhope.png,GW/gatlinburg.png,GW/newhope.png,GW/leesburg.png,0.5,closer,663bc31529719b8501c52820
14434,2613.300000011921,directmemory_phase,1118308,interleaved,GW/shreveport.png,50.0,1.0,0.96,GW/gatlinburg.png,GW/westpalmbeach.png,GW/hanover.png,GW/westpalmbeach.png,GW/gatlinburg.png,GW/hanover.png,1.0,,663bc31529719b8501c52820
14436,3763.400000005961,directmemory_phase,1123075,interleaved,GW/newhope.png,50.0,0.0,0.9230769230769232,GW/leesburg.png,GW/huntsville.png,GW/cornwall.png,GW/cornwall.png,GW/huntsville.png,GW/leesburg.png,0.5,closer,663bc31529719b8501c52820
14438,3746.900000005961,directmemory_phase,1127825,interleaved,GW/racine.png,50.0,1.0,0.925925925925926,GW/leesburg.png,GW/hanover.png,GW/huntsville.png,GW/hanover.png,GW/leesburg.png,GW/huntsville.png,1.0,,663bc31529719b8501c52820
14440,1931.0,directmemory_phase,1130758,interleaved,GW/hotsprings.png,51.0,1.0,0.9285714285714286,GW/peoria.png,GW/racine.png,GW/huntsville.png,GW/huntsville.png,GW/racine.png,GW/peoria.png,1.0,,663bc31529719b8501c52820
14442,3488.300000011921,directmemory_phase,1135250,interleaved,GW/newhope.png,51.0,1.0,0.9310344827586208,GW/westpalmbeach.png,GW/carmel.png,GW/hanover.png,GW/hanover.png,GW/carmel.png,GW/westpalmbeach.png,1.0,,663bc31529719b8501c52820
14444,2510.2999999821186,directmemory_phase,1138763,interleaved,GW/shreveport.png,50.0,1.0,0.9333333333333332,GW/newhope.png,GW/boulder.png,GW/carmel.png,GW/boulder.png,GW/newhope.png,GW/carmel.png,1.0,,663bc31529719b8501c52820
14446,2895.0999999940395,directmemory_phase,1142661,interleaved,GW/hotsprings.png,50.0,1.0,0.935483870967742,GW/racine.png,GW/carmel.png,GW/gatlinburg.png,GW/carmel.png,GW/racine.png,GW/gatlinburg.png,1.0,,663bc31529719b8501c52820
14448,2242.800000011921,directmemory_phase,1145907,interleaved,GW/hanover.png,50.0,1.0,0.9375,GW/carmel.png,GW/newhope.png,GW/shreveport.png,GW/newhope.png,GW/carmel.png,GW/shreveport.png,1.0,,663bc31529719b8501c52820
15362,3847.5,directmemory_phase,1214693,interleaved,GW/huntsville.png,50.0,1.0,1.0,GW/boulder.png,GW/leesburg.png,GW/hotsprings.png,GW/leesburg.png,GW/boulder.png,GW/hotsprings.png,1.0,,5c03975936230300012948ba
15364,3521.0999999940395,directmemory_phase,1219221,interleaved,GW/carmel.png,50.0,0.0,0.5,GW/gatlinburg.png,GW/newhope.png,GW/shreveport.png,GW/shreveport.png,GW/newhope.png,GW/gatlinburg.png,0.5,closer,5c03975936230300012948ba
15366,3154.70000000298,directmemory_phase,1223381,interleaved,GW/leesburg.png,50.0,0.0,0.3333333333333333,GW/gatlinburg.png,GW/peoria.png,GW/racine.png,GW/racine.png,GW/peoria.png,GW/gatlinburg.png,0.5,closer,5c03975936230300012948ba
15368,2274.79999999702,directmemory_phase,1226661,interleaved,GW/carmel.png,50.0,1.0,0.5,GW/peoria.png,GW/huntsville.png,GW/westpalmbeach.png,GW/huntsville.png,GW/peoria.png,GW/westpalmbeach.png,1.0,,5c03975936230300012948ba
15370,3906.70000000298,directmemory_phase,1231573,interleaved,GW/peoria.png,51.0,0.0,0.4,GW/hotsprings.png,GW/huntsville.png,GW/leesburg.png,GW/hotsprings.png,GW/leesburg.png,GW/huntsville.png,0.5,closer,5c03975936230300012948ba
15372,3219.0,directmemory_phase,1235797,interleaved,GW/shreveport.png,50.0,1.0,0.5,GW/hotsprings.png,GW/carmel.png,GW/boulder.png,GW/carmel.png,GW/hotsprings.png,GW/boulder.png,1.0,,5c03975936230300012948ba
15374,4050.0,directmemory_phase,1240853,interleaved,GW/hanover.png,49.0,0.0,0.4285714285714285,GW/racine.png,GW/leesburg.png,GW/cornwall.png,GW/cornwall.png,GW/leesburg.png,GW/racine.png,0.5,closer,5c03975936230300012948ba
15376,3522.70000000298,directmemory_phase,1245381,interleaved,GW/racine.png,51.0,1.0,0.5,GW/westpalmbeach.png,GW/huntsville.png,GW/hotsprings.png,GW/hotsprings.png,GW/huntsville.png,GW/westpalmbeach.png,1.0,,5c03975936230300012948ba
15378,3169.5999999940395,directmemory_phase,1249557,interleaved,GW/carmel.png,50.0,1.0,0.5555555555555556,GW/leesburg.png,GW/hanover.png,GW/westpalmbeach.png,GW/hanover.png,GW/leesburg.png,GW/westpalmbeach.png,1.0,,5c03975936230300012948ba
15380,2370.29999999702,directmemory_phase,1252933,interleaved,GW/westpalmbeach.png,51.0,1.0,0.6,GW/carmel.png,GW/shreveport.png,GW/peoria.png,GW/peoria.png,GW/shreveport.png,GW/carmel.png,1.0,,5c03975936230300012948ba
15382,2322.5,directmemory_phase,1256261,interleaved,GW/newhope.png,51.0,1.0,0.6363636363636364,GW/racine.png,GW/cornwall.png,GW/huntsville.png,GW/huntsville.png,GW/cornwall.png,GW/racine.png,1.0,,5c03975936230300012948ba
15384,3794.70000000298,directmemory_phase,1261061,interleaved,GW/racine.png,51.0,1.0,0.6666666666666666,GW/newhope.png,GW/shreveport.png,GW/leesburg.png,GW/leesburg.png,GW/shreveport.png,GW/newhope.png,1.0,,5c03975936230300012948ba
15386,5282.5,directmemory_phase,1267349,interleaved,GW/newhope.png,49.0,1.0,0.6923076923076923,GW/hanover.png,GW/racine.png,GW/carmel.png,GW/hanover.png,GW/carmel.png,GW/racine.png,1.0,,5c03975936230300012948ba
15388,2994.699999988079,directmemory_phase,1271349,interleaved,GW/huntsville.png,49.0,1.0,0.7142857142857143,GW/carmel.png,GW/gatlinburg.png,GW/racine.png,GW/carmel.png,GW/racine.png,GW/gatlinburg.png,1.0,,5c03975936230300012948ba
15390,2242.20000000298,directmemory_phase,1274597,interleaved,GW/boulder.png,51.0,1.0,0.7333333333333333,GW/carmel.png,GW/hanover.png,GW/newhope.png,GW/newhope.png,GW/hanover.png,GW/carmel.png,1.0,,5c03975936230300012948ba
15392,2913.699999988079,directmemory_phase,1278517,interleaved,GW/shreveport.png,49.0,1.0,0.75,GW/peoria.png,GW/gatlinburg.png,GW/hanover.png,GW/peoria.png,GW/hanover.png,GW/gatlinburg.png,1.0,,5c03975936230300012948ba
15394,4116.29999999702,directmemory_phase,1283638,interleaved,GW/hanover.png,49.0,0.0,0.7058823529411765,GW/boulder.png,GW/newhope.png,GW/hotsprings.png,GW/newhope.png,GW/boulder.png,GW/hotsprings.png,0.5,closer,5c03975936230300012948ba
15396,4112.29999999702,directmemory_phase,1288757,interleaved,GW/leesburg.png,51.0,0.0,0.6666666666666666,GW/huntsville.png,GW/boulder.png,GW/hanover.png,GW/huntsville.png,GW/hanover.png,GW/boulder.png,0.5,closer,5c03975936230300012948ba
15398,1906.4000000059605,directmemory_phase,1291668,interleaved,GW/peoria.png,49.0,1.0,0.6842105263157895,GW/shreveport.png,GW/huntsville.png,GW/carmel.png,GW/shreveport.png,GW/carmel.png,GW/huntsville.png,1.0,,5c03975936230300012948ba
15400,3332.29999999702,directmemory_phase,1296005,interleaved,GW/hanover.png,51.0,1.0,0.7,GW/racine.png,GW/shreveport.png,GW/huntsville.png,GW/huntsville.png,GW/shreveport.png,GW/racine.png,1.0,,5c03975936230300012948ba
15402,4305.0,directmemory_phase,1301317,interleaved,GW/hotsprings.png,51.0,1.0,0.7142857142857143,GW/huntsville.png,GW/shreveport.png,GW/peoria.png,GW/peoria.png,GW/shreveport.png,GW/huntsville.png,1.0,,5c03975936230300012948ba
15404,4162.70000000298,directmemory_phase,1306485,interleaved,GW/huntsville.png,49.0,1.0,0.7272727272727273,GW/newhope.png,GW/hotsprings.png,GW/boulder.png,GW/newhope.png,GW/boulder.png,GW/hotsprings.png,1.0,,5c03975936230300012948ba
15406,1650.2000000029802,directmemory_phase,1309141,interleaved,GW/peoria.png,50.0,1.0,0.7391304347826086,GW/gatlinburg.png,GW/westpalmbeach.png,GW/hanover.png,GW/westpalmbeach.png,GW/gatlinburg.png,GW/hanover.png,1.0,,5c03975936230300012948ba
15408,3074.5,directmemory_phase,1313221,interleaved,GW/shreveport.png,49.0,1.0,0.75,GW/leesburg.png,GW/boulder.png,GW/hotsprings.png,GW/leesburg.png,GW/hotsprings.png,GW/boulder.png,1.0,,5c03975936230300012948ba
15410,5684.29999999702,directmemory_phase,1319909,interleaved,GW/cornwall.png,49.0,1.0,0.76,GW/hanover.png,GW/shreveport.png,GW/carmel.png,GW/hanover.png,GW/carmel.png,GW/shreveport.png,1.0,,5c03975936230300012948ba
15412,2240.5,directmemory_phase,1323157,interleaved,GW/hotsprings.png,51.0,1.0,0.7692307692307693,GW/hanover.png,GW/shreveport.png,GW/gatlinburg.png,GW/gatlinburg.png,GW/shreveport.png,GW/hanover.png,1.0,,5c03975936230300012948ba
15414,3234.5,directmemory_phase,1327397,interleaved,GW/leesburg.png,50.0,1.0,0.7777777777777778,GW/hotsprings.png,GW/shreveport.png,GW/boulder.png,GW/shreveport.png,GW/hotsprings.png,GW/boulder.png,1.0,,5c03975936230300012948ba
15416,2658.3999999910593,directmemory_phase,1331060,interleaved,GW/hotsprings.png,51.0,1.0,0.7857142857142857,GW/huntsville.png,GW/leesburg.png,GW/racine.png,GW/racine.png,GW/leesburg.png,GW/huntsville.png,1.0,,5c03975936230300012948ba
15418,2051.29999999702,directmemory_phase,1334117,interleaved,GW/newhope.png,49.0,1.0,0.7931034482758621,GW/boulder.png,GW/peoria.png,GW/cornwall.png,GW/boulder.png,GW/cornwall.png,GW/peoria.png,1.0,,5c03975936230300012948ba
15420,3278.79999999702,directmemory_phase,1338405,interleaved,GW/huntsville.png,49.0,1.0,0.8,GW/hanover.png,GW/peoria.png,GW/boulder.png,GW/hanover.png,GW/boulder.png,GW/peoria.png,1.0,,5c03975936230300012948ba
15422,1747.0,directmemory_phase,1341157,interleaved,GW/gatlinburg.png,49.0,1.0,0.8064516129032258,GW/hotsprings.png,GW/carmel.png,GW/racine.png,GW/hotsprings.png,GW/racine.png,GW/carmel.png,1.0,,5c03975936230300012948ba
15424,2466.3999999910593,directmemory_phase,1344629,interleaved,GW/hanover.png,49.0,1.0,0.8125,GW/carmel.png,GW/racine.png,GW/shreveport.png,GW/carmel.png,GW/shreveport.png,GW/racine.png,1.0,,5c03975936230300012948ba
17311,2896.699999988079,directmemory_phase,862043,interleaved,GW/racine.png,49.0,1.0,1.0,GW/carmel.png,GW/westpalmbeach.png,GW/hanover.png,GW/carmel.png,GW/hanover.png,GW/westpalmbeach.png,1.0,,5fd955152dc9172302e1d605
17313,2184.6000000089407,directmemory_phase,865234,interleaved,GW/shreveport.png,51.0,1.0,1.0,GW/hanover.png,GW/newhope.png,GW/huntsville.png,GW/huntsville.png,GW/newhope.png,GW/hanover.png,1.0,,5fd955152dc9172302e1d605
17315,1964.5,directmemory_phase,868204,interleaved,GW/gatlinburg.png,50.0,1.0,1.0,GW/carmel.png,GW/racine.png,GW/peoria.png,GW/racine.png,GW/carmel.png,GW/peoria.png,1.0,,5fd955152dc9172302e1d605
17317,2339.6000000089407,directmemory_phase,871550,interleaved,GW/cornwall.png,51.0,1.0,1.0,GW/racine.png,GW/westpalmbeach.png,GW/boulder.png,GW/boulder.png,GW/westpalmbeach.png,GW/racine.png,1.0,,5fd955152dc9172302e1d605
17319,1709.0999999940395,directmemory_phase,874265,interleaved,GW/hotsprings.png,49.0,1.0,1.0,GW/westpalmbeach.png,GW/shreveport.png,GW/racine.png,GW/westpalmbeach.png,GW/racine.png,GW/shreveport.png,1.0,,5fd955152dc9172302e1d605
17321,1994.0,directmemory_phase,877265,interleaved,GW/boulder.png,50.0,1.0,1.0,GW/racine.png,GW/cornwall.png,GW/newhope.png,GW/cornwall.png,GW/racine.png,GW/newhope.png,1.0,,5fd955152dc9172302e1d605
17323,1627.5,directmemory_phase,879899,interleaved,GW/huntsville.png,51.0,1.0,1.0,GW/gatlinburg.png,GW/carmel.png,GW/shreveport.png,GW/shreveport.png,GW/carmel.png,GW/gatlinburg.png,1.0,,5fd955152dc9172302e1d605
17325,3163.699999988079,directmemory_phase,884067,interleaved,GW/boulder.png,51.0,1.0,1.0,GW/leesburg.png,GW/racine.png,GW/hotsprings.png,GW/hotsprings.png,GW/racine.png,GW/leesburg.png,1.0,,5fd955152dc9172302e1d605
17327,2639.20000000298,directmemory_phase,887712,interleaved,GW/hanover.png,49.0,1.0,1.0,GW/leesburg.png,GW/carmel.png,GW/racine.png,GW/leesburg.png,GW/racine.png,GW/carmel.png,1.0,,5fd955152dc9172302e1d605
17329,5363.9000000059605,directmemory_phase,894081,interleaved,GW/hotsprings.png,49.0,1.0,1.0,GW/boulder.png,GW/hanover.png,GW/carmel.png,GW/boulder.png,GW/carmel.png,GW/hanover.png,1.0,,5fd955152dc9172302e1d605
17331,3064.79999999702,directmemory_phase,898151,interleaved,GW/leesburg.png,51.0,1.0,1.0,GW/hotsprings.png,GW/gatlinburg.png,GW/racine.png,GW/racine.png,GW/gatlinburg.png,GW/hotsprings.png,1.0,,5fd955152dc9172302e1d605
17333,3267.79999999702,directmemory_phase,902424,interleaved,GW/westpalmbeach.png,51.0,1.0,1.0,GW/racine.png,GW/boulder.png,GW/hotsprings.png,GW/hotsprings.png,GW/boulder.png,GW/racine.png,1.0,,5fd955152dc9172302e1d605
17335,1701.300000011921,directmemory_phase,905131,interleaved,GW/carmel.png,49.0,1.0,1.0,GW/racine.png,GW/hanover.png,GW/cornwall.png,GW/racine.png,GW/cornwall.png,GW/hanover.png,1.0,,5fd955152dc9172302e1d605
17337,3369.5,directmemory_phase,909504,interleaved,GW/hotsprings.png,49.0,1.0,1.0,GW/cornwall.png,GW/huntsville.png,GW/carmel.png,GW/cornwall.png,GW/carmel.png,GW/huntsville.png,1.0,,5fd955152dc9172302e1d605
17339,3679.70000000298,directmemory_phase,914189,interleaved,GW/huntsville.png,51.0,1.0,1.0,GW/gatlinburg.png,GW/hanover.png,GW/leesburg.png,GW/leesburg.png,GW/hanover.png,GW/gatlinburg.png,1.0,,5fd955152dc9172302e1d605
17341,1159.2000000029802,directmemory_phase,916353,interleaved,GW/peoria.png,51.0,1.0,1.0,GW/carmel.png,GW/hotsprings.png,GW/cornwall.png,GW/cornwall.png,GW/hotsprings.png,GW/carmel.png,1.0,,5fd955152dc9172302e1d605
17343,3800.5,directmemory_phase,921159,interleaved,GW/racine.png,51.0,1.0,1.0,GW/westpalmbeach.png,GW/shreveport.png,GW/gatlinburg.png,GW/gatlinburg.png,GW/shreveport.png,GW/westpalmbeach.png,1.0,,5fd955152dc9172302e1d605
17345,1225.4000000059605,directmemory_phase,923390,interleaved,GW/cornwall.png,49.0,1.0,1.0,GW/peoria.png,GW/huntsville.png,GW/gatlinburg.png,GW/peoria.png,GW/gatlinburg.png,GW/huntsville.png,1.0,,5fd955152dc9172302e1d605
17347,2009.70000000298,directmemory_phase,926405,interleaved,GW/gatlinburg.png,51.0,1.0,1.0,GW/shreveport.png,GW/carmel.png,GW/boulder.png,GW/boulder.png,GW/carmel.png,GW/shreveport.png,1.0,,5fd955152dc9172302e1d605
17349,2567.5999999940395,directmemory_phase,929977,interleaved,GW/cornwall.png,51.0,1.0,1.0,GW/huntsville.png,GW/gatlinburg.png,GW/hotsprings.png,GW/hotsprings.png,GW/gatlinburg.png,GW/huntsville.png,1.0,,5fd955152dc9172302e1d605
17351,2668.5999999940395,directmemory_phase,933652,interleaved,GW/carmel.png,51.0,1.0,1.0,GW/hanover.png,GW/cornwall.png,GW/boulder.png,GW/boulder.png,GW/cornwall.png,GW/hanover.png,1.0,,5fd955152dc9172302e1d605
17353,2615.0999999940395,directmemory_phase,937272,interleaved,GW/leesburg.png,51.0,1.0,1.0,GW/westpalmbeach.png,GW/gatlinburg.png,GW/huntsville.png,GW/huntsville.png,GW/gatlinburg.png,GW/westpalmbeach.png,1.0,,5fd955152dc9172302e1d605
17355,1556.0,directmemory_phase,939833,interleaved,GW/carmel.png,51.0,1.0,1.0,GW/newhope.png,GW/hotsprings.png,GW/shreveport.png,GW/shreveport.png,GW/hotsprings.png,GW/newhope.png,1.0,,5fd955152dc9172302e1d605
17357,2616.5,directmemory_phase,943455,interleaved,GW/hotsprings.png,49.0,1.0,1.0,GW/gatlinburg.png,GW/leesburg.png,GW/carmel.png,GW/gatlinburg.png,GW/carmel.png,GW/leesburg.png,1.0,,5fd955152dc9172302e1d605
17359,2186.0,directmemory_phase,946646,interleaved,GW/boulder.png,49.0,1.0,1.0,GW/carmel.png,GW/leesburg.png,GW/peoria.png,GW/carmel.png,GW/peoria.png,GW/leesburg.png,1.0,,5fd955152dc9172302e1d605
17361,1437.6000000089407,directmemory_phase,949089,interleaved,GW/gatlinburg.png,51.0,1.0,1.0,GW/shreveport.png,GW/carmel.png,GW/hotsprings.png,GW/hotsprings.png,GW/carmel.png,GW/shreveport.png,1.0,,5fd955152dc9172302e1d605
17363,1373.7999999970198,directmemory_phase,951469,interleaved,GW/newhope.png,51.0,1.0,1.0,GW/racine.png,GW/leesburg.png,GW/huntsville.png,GW/huntsville.png,GW/leesburg.png,GW/racine.png,1.0,,5fd955152dc9172302e1d605
17365,1408.0,directmemory_phase,953882,interleaved,GW/boulder.png,49.0,1.0,1.0,GW/gatlinburg.png,GW/huntsville.png,GW/peoria.png,GW/gatlinburg.png,GW/peoria.png,GW/huntsville.png,1.0,,5fd955152dc9172302e1d605
17367,2061.29999999702,directmemory_phase,956951,interleaved,GW/shreveport.png,51.0,1.0,1.0,GW/hotsprings.png,GW/racine.png,GW/carmel.png,GW/carmel.png,GW/racine.png,GW/hotsprings.png,1.0,,5fd955152dc9172302e1d605
17369,2583.9000000059605,directmemory_phase,960541,interleaved,GW/leesburg.png,51.0,1.0,1.0,GW/boulder.png,GW/carmel.png,GW/hanover.png,GW/hanover.png,GW/carmel.png,GW/boulder.png,1.0,,5fd955152dc9172302e1d605
17371,1198.5999999940395,directmemory_phase,962746,interleaved,GW/huntsville.png,51.0,1.0,1.0,GW/boulder.png,GW/hanover.png,GW/newhope.png,GW/newhope.png,GW/hanover.png,GW/boulder.png,1.0,,5fd955152dc9172302e1d605
17373,2038.5999999940395,directmemory_phase,965791,interleaved,GW/racine.png,51.0,0.0,0.96875,GW/leesburg.png,GW/peoria.png,GW/shreveport.png,GW/leesburg.png,GW/shreveport.png,GW/peoria.png,0.5,closer,5fd955152dc9172302e1d605
19279,3354.699999999255,directmemory_phase,884621,interleaved,GW/leesburg.png,51.0,1.0,1.0,GW/huntsville.png,GW/westpalmbeach.png,GW/cornwall.png,GW/cornwall.png,GW/westpalmbeach.png,GW/huntsville.png,1.0,,5b5c3b266b25590001778ea1
19281,2869.2000000011176,directmemory_phase,888501,interleaved,GW/racine.png,51.0,1.0,1.0,GW/newhope.png,GW/leesburg.png,GW/hotsprings.png,GW/hotsprings.png,GW/leesburg.png,GW/newhope.png,1.0,,5b5c3b266b25590001778ea1
19283,2427.0999999996275,directmemory_phase,891936,interleaved,GW/shreveport.png,50.0,1.0,1.0,GW/newhope.png,GW/hanover.png,GW/racine.png,GW/hanover.png,GW/newhope.png,GW/racine.png,1.0,,5b5c3b266b25590001778ea1
19285,1070.699999999255,directmemory_phase,894013,interleaved,GW/huntsville.png,49.0,1.0,1.0,GW/racine.png,GW/hanover.png,GW/carmel.png,GW/racine.png,GW/carmel.png,GW/hanover.png,1.0,,5b5c3b266b25590001778ea1
19287,1263.0,directmemory_phase,896284,interleaved,GW/hotsprings.png,49.0,1.0,1.0,GW/leesburg.png,GW/gatlinburg.png,GW/hanover.png,GW/leesburg.png,GW/hanover.png,GW/gatlinburg.png,1.0,,5b5c3b266b25590001778ea1
19289,1871.4000000003723,directmemory_phase,899163,interleaved,GW/cornwall.png,51.0,1.0,1.0,GW/racine.png,GW/peoria.png,GW/shreveport.png,GW/shreveport.png,GW/peoria.png,GW/racine.png,1.0,,5b5c3b266b25590001778ea1
19291,2415.60000000149,directmemory_phase,902585,interleaved,GW/racine.png,49.0,1.0,1.0,GW/carmel.png,GW/newhope.png,GW/leesburg.png,GW/carmel.png,GW/leesburg.png,GW/newhope.png,1.0,,5b5c3b266b25590001778ea1
19293,1282.89999999851,directmemory_phase,904881,interleaved,GW/hanover.png,51.0,1.0,1.0,GW/boulder.png,GW/cornwall.png,GW/shreveport.png,GW/shreveport.png,GW/cornwall.png,GW/boulder.png,1.0,,5b5c3b266b25590001778ea1
19295,1043.7999999988824,directmemory_phase,906930,interleaved,GW/peoria.png,49.0,1.0,1.0,GW/newhope.png,GW/hotsprings.png,GW/cornwall.png,GW/newhope.png,GW/cornwall.png,GW/hotsprings.png,1.0,,5b5c3b266b25590001778ea1
19297,2468.5,directmemory_phase,910405,interleaved,GW/cornwall.png,50.0,1.0,1.0,GW/hotsprings.png,GW/leesburg.png,GW/huntsville.png,GW/leesburg.png,GW/hotsprings.png,GW/huntsville.png,1.0,,5b5c3b266b25590001778ea1
19299,3228.5,directmemory_phase,914639,interleaved,GW/westpalmbeach.png,50.0,0.0,0.9090909090909092,GW/shreveport.png,GW/carmel.png,GW/peoria.png,GW/shreveport.png,GW/peoria.png,GW/carmel.png,0.5,closer,5b5c3b266b25590001778ea1
19301,3169.4000000003725,directmemory_phase,918817,interleaved,GW/newhope.png,51.0,0.0,0.8333333333333334,GW/boulder.png,GW/cornwall.png,GW/carmel.png,GW/cornwall.png,GW/boulder.png,GW/carmel.png,0.5,closer,5b5c3b266b25590001778ea1
19303,1752.0999999996277,directmemory_phase,921579,interleaved,GW/carmel.png,51.0,1.0,0.8461538461538461,GW/boulder.png,GW/shreveport.png,GW/racine.png,GW/racine.png,GW/shreveport.png,GW/boulder.png,1.0,,5b5c3b266b25590001778ea1
19305,1760.4000000003723,directmemory_phase,924346,interleaved,GW/hanover.png,49.0,1.0,0.8571428571428571,GW/leesburg.png,GW/peoria.png,GW/gatlinburg.png,GW/leesburg.png,GW/gatlinburg.png,GW/peoria.png,1.0,,5b5c3b266b25590001778ea1
19307,1254.2000000011176,directmemory_phase,926607,interleaved,GW/boulder.png,50.0,1.0,0.8666666666666667,GW/shreveport.png,GW/westpalmbeach.png,GW/hanover.png,GW/westpalmbeach.png,GW/shreveport.png,GW/hanover.png,1.0,,5b5c3b266b25590001778ea1
19309,2340.5,directmemory_phase,929955,interleaved,GW/carmel.png,50.0,0.0,0.8125,GW/westpalmbeach.png,GW/leesburg.png,GW/hanover.png,GW/hanover.png,GW/leesburg.png,GW/westpalmbeach.png,0.5,closer,5b5c3b266b25590001778ea1
19311,3456.5,directmemory_phase,934419,interleaved,GW/leesburg.png,49.0,1.0,0.8235294117647058,GW/hotsprings.png,GW/huntsville.png,GW/westpalmbeach.png,GW/hotsprings.png,GW/westpalmbeach.png,GW/huntsville.png,1.0,,5b5c3b266b25590001778ea1
19313,1167.2000000011176,directmemory_phase,936593,interleaved,GW/westpalmbeach.png,50.0,1.0,0.8333333333333334,GW/hanover.png,GW/boulder.png,GW/hotsprings.png,GW/boulder.png,GW/hanover.png,GW/hotsprings.png,1.0,,5b5c3b266b25590001778ea1
19315,3281.10000000149,directmemory_phase,940879,interleaved,GW/hotsprings.png,51.0,1.0,0.8421052631578947,GW/peoria.png,GW/carmel.png,GW/racine.png,GW/racine.png,GW/carmel.png,GW/peoria.png,1.0,,5b5c3b266b25590001778ea1
19317,3579.2000000011176,directmemory_phase,945466,interleaved,GW/westpalmbeach.png,51.0,1.0,0.85,GW/carmel.png,GW/peoria.png,GW/cornwall.png,GW/cornwall.png,GW/peoria.png,GW/carmel.png,1.0,,5b5c3b266b25590001778ea1
19319,2187.300000000745,directmemory_phase,948659,interleaved,GW/leesburg.png,49.0,0.0,0.8095238095238095,GW/boulder.png,GW/newhope.png,GW/hanover.png,GW/hanover.png,GW/newhope.png,GW/boulder.png,0.5,closer,5b5c3b266b25590001778ea1
19321,1861.7999999988824,directmemory_phase,951528,interleaved,GW/cornwall.png,49.0,1.0,0.8181818181818182,GW/westpalmbeach.png,GW/huntsville.png,GW/boulder.png,GW/westpalmbeach.png,GW/boulder.png,GW/huntsville.png,1.0,,5b5c3b266b25590001778ea1
19323,2563.699999999255,directmemory_phase,955099,interleaved,GW/newhope.png,49.0,1.0,0.8260869565217391,GW/peoria.png,GW/racine.png,GW/shreveport.png,GW/peoria.png,GW/shreveport.png,GW/racine.png,1.0,,5b5c3b266b25590001778ea1
19325,1381.0,directmemory_phase,957486,interleaved,GW/gatlinburg.png,50.0,1.0,0.8333333333333334,GW/racine.png,GW/carmel.png,GW/shreveport.png,GW/carmel.png,GW/racine.png,GW/shreveport.png,1.0,,5b5c3b266b25590001778ea1
19327,1360.5,directmemory_phase,959854,interleaved,GW/westpalmbeach.png,50.0,0.0,0.8,GW/newhope.png,GW/hotsprings.png,GW/leesburg.png,GW/newhope.png,GW/leesburg.png,GW/hotsprings.png,0.5,closer,5b5c3b266b25590001778ea1
19329,1223.60000000149,directmemory_phase,962084,interleaved,GW/hanover.png,51.0,1.0,0.8076923076923077,GW/boulder.png,GW/cornwall.png,GW/carmel.png,GW/carmel.png,GW/cornwall.png,GW/boulder.png,1.0,,5b5c3b266b25590001778ea1
19331,2352.7999999988824,directmemory_phase,965458,interleaved,GW/newhope.png,50.0,1.0,0.8148148148148148,GW/leesburg.png,GW/westpalmbeach.png,GW/racine.png,GW/westpalmbeach.png,GW/leesburg.png,GW/racine.png,1.0,,5b5c3b266b25590001778ea1
19333,1407.0999999996277,directmemory_phase,967873,interleaved,GW/shreveport.png,49.0,1.0,0.8214285714285714,GW/cornwall.png,GW/racine.png,GW/newhope.png,GW/cornwall.png,GW/newhope.png,GW/racine.png,1.0,,5b5c3b266b25590001778ea1
19335,2376.0999999996275,directmemory_phase,971253,interleaved,GW/carmel.png,49.0,0.0,0.7931034482758621,GW/shreveport.png,GW/gatlinburg.png,GW/boulder.png,GW/gatlinburg.png,GW/shreveport.png,GW/boulder.png,0.5,closer,5b5c3b266b25590001778ea1
19337,2332.0,directmemory_phase,974591,interleaved,GW/shreveport.png,50.0,1.0,0.8,GW/boulder.png,GW/westpalmbeach.png,GW/racine.png,GW/westpalmbeach.png,GW/boulder.png,GW/racine.png,1.0,,5b5c3b266b25590001778ea1
19339,1834.300000000745,directmemory_phase,977433,interleaved,GW/racine.png,51.0,1.0,0.8064516129032258,GW/shreveport.png,GW/gatlinburg.png,GW/huntsville.png,GW/huntsville.png,GW/gatlinburg.png,GW/shreveport.png,1.0,,5b5c3b266b25590001778ea1
19341,2562.60000000149,directmemory_phase,981004,interleaved,GW/cornwall.png,50.0,0.0,0.78125,GW/newhope.png,GW/huntsville.png,GW/peoria.png,GW/newhope.png,GW/peoria.png,GW/huntsville.png,0.5,closer,5b5c3b266b25590001778ea1
21229,2680.5,directmemory_phase,1064638,interleaved,GW/hotsprings.png,49.0,1.0,1.0,GW/newhope.png,GW/westpalmbeach.png,GW/gatlinburg.png,GW/newhope.png,GW/gatlinburg.png,GW/westpalmbeach.png,1.0,,54e32a60fdf99b3eae9de85b
21231,2768.199999999255,directmemory_phase,1068424,interleaved,GW/peoria.png,49.0,1.0,1.0,GW/boulder.png,GW/carmel.png,GW/hanover.png,GW/boulder.png,GW/hanover.png,GW/carmel.png,1.0,,54e32a60fdf99b3eae9de85b
21233,2299.5999999996275,directmemory_phase,1071735,interleaved,GW/carmel.png,50.0,1.0,1.0,GW/leesburg.png,GW/cornwall.png,GW/hotsprings.png,GW/cornwall.png,GW/leesburg.png,GW/hotsprings.png,1.0,,54e32a60fdf99b3eae9de85b
21235,2692.5999999996275,directmemory_phase,1075441,interleaved,GW/peoria.png,49.0,1.0,1.0,GW/westpalmbeach.png,GW/newhope.png,GW/cornwall.png,GW/westpalmbeach.png,GW/cornwall.png,GW/newhope.png,1.0,,54e32a60fdf99b3eae9de85b
21237,1909.0999999996277,directmemory_phase,1078361,interleaved,GW/newhope.png,50.0,1.0,1.0,GW/shreveport.png,GW/gatlinburg.png,GW/westpalmbeach.png,GW/gatlinburg.png,GW/shreveport.png,GW/westpalmbeach.png,1.0,,54e32a60fdf99b3eae9de85b
21239,1899.4000000003723,directmemory_phase,1081275,interleaved,GW/hanover.png,49.0,1.0,1.0,GW/cornwall.png,GW/leesburg.png,GW/westpalmbeach.png,GW/cornwall.png,GW/westpalmbeach.png,GW/leesburg.png,1.0,,54e32a60fdf99b3eae9de85b
21241,3030.5,directmemory_phase,1085319,interleaved,GW/westpalmbeach.png,50.0,0.0,0.8571428571428571,GW/gatlinburg.png,GW/carmel.png,GW/shreveport.png,GW/shreveport.png,GW/carmel.png,GW/gatlinburg.png,0.5,closer,54e32a60fdf99b3eae9de85b
21243,2491.0,directmemory_phase,1088823,interleaved,GW/racine.png,49.0,1.0,0.875,GW/peoria.png,GW/huntsville.png,GW/boulder.png,GW/peoria.png,GW/boulder.png,GW/huntsville.png,1.0,,54e32a60fdf99b3eae9de85b
21245,2927.7000000011176,directmemory_phase,1092766,interleaved,GW/gatlinburg.png,49.0,1.0,0.8888888888888888,GW/leesburg.png,GW/peoria.png,GW/cornwall.png,GW/leesburg.png,GW/cornwall.png,GW/peoria.png,1.0,,54e32a60fdf99b3eae9de85b
21247,3497.7000000011176,directmemory_phase,1097277,interleaved,GW/peoria.png,49.0,0.0,0.8,GW/carmel.png,GW/huntsville.png,GW/shreveport.png,GW/shreveport.png,GW/huntsville.png,GW/carmel.png,0.5,closer,54e32a60fdf99b3eae9de85b
21249,2689.0,directmemory_phase,1100980,interleaved,GW/newhope.png,50.0,1.0,0.8181818181818182,GW/shreveport.png,GW/hanover.png,GW/racine.png,GW/hanover.png,GW/shreveport.png,GW/racine.png,1.0,,54e32a60fdf99b3eae9de85b
21251,2057.2999999988824,directmemory_phase,1104051,interleaved,GW/boulder.png,51.0,1.0,0.8333333333333334,GW/gatlinburg.png,GW/shreveport.png,GW/westpalmbeach.png,GW/westpalmbeach.png,GW/shreveport.png,GW/gatlinburg.png,1.0,,54e32a60fdf99b3eae9de85b
21253,3095.2999999988824,directmemory_phase,1108160,interleaved,GW/gatlinburg.png,49.0,1.0,0.8461538461538461,GW/newhope.png,GW/westpalmbeach.png,GW/hanover.png,GW/newhope.png,GW/hanover.png,GW/westpalmbeach.png,1.0,,54e32a60fdf99b3eae9de85b
21255,3410.5999999996275,directmemory_phase,1112584,interleaved,GW/shreveport.png,51.0,1.0,0.8571428571428571,GW/carmel.png,GW/boulder.png,GW/peoria.png,GW/peoria.png,GW/boulder.png,GW/carmel.png,1.0,,54e32a60fdf99b3eae9de85b
21257,1879.4000000003723,directmemory_phase,1115476,interleaved,GW/boulder.png,49.0,1.0,0.8666666666666667,GW/huntsville.png,GW/carmel.png,GW/racine.png,GW/huntsville.png,GW/racine.png,GW/carmel.png,1.0,,54e32a60fdf99b3eae9de85b
21259,1732.9000000003723,directmemory_phase,1118222,interleaved,GW/hanover.png,51.0,1.0,0.875,GW/leesburg.png,GW/westpalmbeach.png,GW/newhope.png,GW/newhope.png,GW/westpalmbeach.png,GW/leesburg.png,1.0,,54e32a60fdf99b3eae9de85b
21261,3299.0,directmemory_phase,1122536,interleaved,GW/carmel.png,51.0,1.0,0.8823529411764706,GW/hotsprings.png,GW/newhope.png,GW/gatlinburg.png,GW/gatlinburg.png,GW/newhope.png,GW/hotsprings.png,1.0,,54e32a60fdf99b3eae9de85b
21263,1777.10000000149,directmemory_phase,1125328,interleaved,GW/cornwall.png,51.0,1.0,0.8888888888888888,GW/huntsville.png,GW/shreveport.png,GW/hanover.png,GW/hanover.png,GW/shreveport.png,GW/huntsville.png,1.0,,54e32a60fdf99b3eae9de85b
21265,2173.800000000745,directmemory_phase,1128516,interleaved,GW/westpalmbeach.png,51.0,1.0,0.8947368421052632,GW/leesburg.png,GW/carmel.png,GW/boulder.png,GW/boulder.png,GW/carmel.png,GW/leesburg.png,1.0,,54e32a60fdf99b3eae9de85b
21267,1819.9000000003723,directmemory_phase,1131350,interleaved,GW/hanover.png,49.0,1.0,0.9,GW/shreveport.png,GW/racine.png,GW/hotsprings.png,GW/shreveport.png,GW/hotsprings.png,GW/racine.png,1.0,,54e32a60fdf99b3eae9de85b
21269,1960.699999999255,directmemory_phase,1134325,interleaved,GW/cornwall.png,49.0,1.0,0.9047619047619048,GW/carmel.png,GW/hotsprings.png,GW/newhope.png,GW/carmel.png,GW/newhope.png,GW/hotsprings.png,1.0,,54e32a60fdf99b3eae9de85b
21271,895.5999999996275,directmemory_phase,1136235,interleaved,GW/peoria.png,49.0,1.0,0.9090909090909092,GW/racine.png,GW/hotsprings.png,GW/hanover.png,GW/racine.png,GW/hanover.png,GW/hotsprings.png,1.0,,54e32a60fdf99b3eae9de85b
21273,2038.10000000149,directmemory_phase,1139285,interleaved,GW/cornwall.png,51.0,1.0,0.9130434782608696,GW/racine.png,GW/newhope.png,GW/westpalmbeach.png,GW/westpalmbeach.png,GW/newhope.png,GW/racine.png,1.0,,54e32a60fdf99b3eae9de85b
21275,1451.0,directmemory_phase,1141750,interleaved,GW/leesburg.png,51.0,1.0,0.9166666666666666,GW/cornwall.png,GW/newhope.png,GW/gatlinburg.png,GW/gatlinburg.png,GW/newhope.png,GW/cornwall.png,1.0,,54e32a60fdf99b3eae9de85b
21277,2980.7000000011176,directmemory_phase,1145745,interleaved,GW/westpalmbeach.png,50.0,1.0,0.92,GW/hanover.png,GW/peoria.png,GW/gatlinburg.png,GW/peoria.png,GW/hanover.png,GW/gatlinburg.png,1.0,,54e32a60fdf99b3eae9de85b
21279,2852.89999999851,directmemory_phase,1149613,interleaved,GW/newhope.png,49.0,1.0,0.9230769230769232,GW/hotsprings.png,GW/peoria.png,GW/cornwall.png,GW/hotsprings.png,GW/cornwall.png,GW/peoria.png,1.0,,54e32a60fdf99b3eae9de85b
21281,2049.699999999255,directmemory_phase,1152677,interleaved,GW/huntsville.png,50.0,1.0,0.925925925925926,GW/peoria.png,GW/boulder.png,GW/hanover.png,GW/boulder.png,GW/peoria.png,GW/hanover.png,1.0,,54e32a60fdf99b3eae9de85b
21283,2563.2000000011176,directmemory_phase,1156252,interleaved,GW/westpalmbeach.png,51.0,1.0,0.9285714285714286,GW/gatlinburg.png,GW/racine.png,GW/cornwall.png,GW/cornwall.png,GW/racine.png,GW/gatlinburg.png,1.0,,54e32a60fdf99b3eae9de85b
21285,2450.0,directmemory_phase,1159716,interleaved,GW/boulder.png,51.0,1.0,0.9310344827586208,GW/carmel.png,GW/shreveport.png,GW/peoria.png,GW/peoria.png,GW/shreveport.png,GW/carmel.png,1.0,,54e32a60fdf99b3eae9de85b
21287,1532.0,directmemory_phase,1162263,interleaved,GW/shreveport.png,50.0,1.0,0.9333333333333332,GW/racine.png,GW/hanover.png,GW/leesburg.png,GW/hanover.png,GW/racine.png,GW/leesburg.png,1.0,,54e32a60fdf99b3eae9de85b
21289,2243.699999999255,directmemory_phase,1165523,interleaved,GW/gatlinburg.png,51.0,1.0,0.935483870967742,GW/westpalmbeach.png,GW/cornwall.png,GW/carmel.png,GW/carmel.png,GW/cornwall.png,GW/westpalmbeach.png,1.0,,54e32a60fdf99b3eae9de85b
21291,2434.39999999851,directmemory_phase,1168972,interleaved,GW/shreveport.png,49.0,1.0,0.9375,GW/westpalmbeach.png,GW/leesburg.png,GW/boulder.png,GW/westpalmbeach.png,GW/boulder.png,GW/leesburg.png,1.0,,54e32a60fdf99b3eae9de85b
23182,2070.0,directmemory_phase,909244,interleaved,GW/peoria.png,50.0,1.0,1.0,GW/hanover.png,GW/huntsville.png,GW/leesburg.png,GW/huntsville.png,GW/hanover.png,GW/leesburg.png,1.0,,66885d217777eda6f3a9b8dd
23184,2845.2000000001863,directmemory_phase,913092,interleaved,GW/carmel.png,51.0,1.0,1.0,GW/peoria.png,GW/hotsprings.png,GW/hanover.png,GW/hanover.png,GW/hotsprings.png,GW/peoria.png,1.0,,66885d217777eda6f3a9b8dd
23186,3172.0,directmemory_phase,917268,interleaved,GW/hotsprings.png,51.0,1.0,1.0,GW/shreveport.png,GW/boulder.png,GW/westpalmbeach.png,GW/westpalmbeach.png,GW/boulder.png,GW/shreveport.png,1.0,,66885d217777eda6f3a9b8dd
23188,1885.5,directmemory_phase,920157,interleaved,GW/shreveport.png,51.0,1.0,1.0,GW/cornwall.png,GW/gatlinburg.png,GW/hanover.png,GW/hanover.png,GW/gatlinburg.png,GW/cornwall.png,1.0,,66885d217777eda6f3a9b8dd
23190,3405.199999999255,directmemory_phase,924565,interleaved,GW/carmel.png,51.0,0.0,0.8,GW/boulder.png,GW/peoria.png,GW/cornwall.png,GW/boulder.png,GW/cornwall.png,GW/peoria.png,0.5,closer,66885d217777eda6f3a9b8dd
23192,3900.7000000001863,directmemory_phase,929469,interleaved,GW/huntsville.png,50.0,0.0,0.6666666666666666,GW/boulder.png,GW/newhope.png,GW/shreveport.png,GW/shreveport.png,GW/newhope.png,GW/boulder.png,0.5,closer,66885d217777eda6f3a9b8dd
23194,2402.0999999996275,directmemory_phase,932877,interleaved,GW/hotsprings.png,49.0,1.0,0.7142857142857143,GW/cornwall.png,GW/hanover.png,GW/newhope.png,GW/cornwall.png,GW/newhope.png,GW/hanover.png,1.0,,66885d217777eda6f3a9b8dd
23196,4989.5999999996275,directmemory_phase,938869,interleaved,GW/boulder.png,50.0,0.0,0.625,GW/shreveport.png,GW/hotsprings.png,GW/carmel.png,GW/carmel.png,GW/hotsprings.png,GW/shreveport.png,0.5,closer,66885d217777eda6f3a9b8dd
23198,1805.3999999994412,directmemory_phase,941677,interleaved,GW/racine.png,51.0,1.0,0.6666666666666666,GW/gatlinburg.png,GW/hotsprings.png,GW/cornwall.png,GW/cornwall.png,GW/hotsprings.png,GW/gatlinburg.png,1.0,,66885d217777eda6f3a9b8dd
23200,3340.4000000003725,directmemory_phase,946021,interleaved,GW/gatlinburg.png,51.0,0.0,0.6,GW/cornwall.png,GW/carmel.png,GW/leesburg.png,GW/carmel.png,GW/cornwall.png,GW/leesburg.png,0.5,closer,66885d217777eda6f3a9b8dd
23202,2388.7000000001863,directmemory_phase,949413,interleaved,GW/boulder.png,50.0,0.0,0.5454545454545454,GW/leesburg.png,GW/hanover.png,GW/cornwall.png,GW/cornwall.png,GW/hanover.png,GW/leesburg.png,0.5,closer,66885d217777eda6f3a9b8dd
23204,1854.7999999998135,directmemory_phase,952269,interleaved,GW/hanover.png,50.0,1.0,0.5833333333333334,GW/gatlinburg.png,GW/shreveport.png,GW/racine.png,GW/shreveport.png,GW/gatlinburg.png,GW/racine.png,1.0,,66885d217777eda6f3a9b8dd
23206,2365.4000000003725,directmemory_phase,955637,interleaved,GW/newhope.png,49.0,0.0,0.5384615384615384,GW/peoria.png,GW/carmel.png,GW/gatlinburg.png,GW/gatlinburg.png,GW/carmel.png,GW/peoria.png,0.5,closer,66885d217777eda6f3a9b8dd
23208,1324.8999999994412,directmemory_phase,957965,interleaved,GW/westpalmbeach.png,49.0,1.0,0.5714285714285714,GW/hotsprings.png,GW/carmel.png,GW/gatlinburg.png,GW/hotsprings.png,GW/gatlinburg.png,GW/carmel.png,1.0,,66885d217777eda6f3a9b8dd
23210,1486.2000000001865,directmemory_phase,960454,interleaved,GW/shreveport.png,49.0,1.0,0.6,GW/newhope.png,GW/cornwall.png,GW/gatlinburg.png,GW/newhope.png,GW/gatlinburg.png,GW/cornwall.png,1.0,,66885d217777eda6f3a9b8dd
23212,1004.7999999998136,directmemory_phase,962462,interleaved,GW/huntsville.png,51.0,1.0,0.625,GW/cornwall.png,GW/newhope.png,GW/peoria.png,GW/peoria.png,GW/newhope.png,GW/cornwall.png,1.0,,66885d217777eda6f3a9b8dd
23214,2356.5,directmemory_phase,965822,interleaved,GW/hanover.png,51.0,0.0,0.5882352941176471,GW/boulder.png,GW/newhope.png,GW/hotsprings.png,GW/newhope.png,GW/boulder.png,GW/hotsprings.png,0.5,closer,66885d217777eda6f3a9b8dd
23216,3502.199999999255,directmemory_phase,970326,interleaved,GW/leesburg.png,49.0,0.0,0.5555555555555556,GW/hanover.png,GW/shreveport.png,GW/carmel.png,GW/shreveport.png,GW/hanover.png,GW/carmel.png,0.5,closer,66885d217777eda6f3a9b8dd
23218,3444.5,directmemory_phase,974774,interleaved,GW/hotsprings.png,51.0,0.0,0.5263157894736842,GW/gatlinburg.png,GW/leesburg.png,GW/carmel.png,GW/gatlinburg.png,GW/carmel.png,GW/leesburg.png,0.5,closer,66885d217777eda6f3a9b8dd
23220,4981.299999999814,directmemory_phase,980758,interleaved,GW/shreveport.png,50.0,0.0,0.5,GW/hotsprings.png,GW/carmel.png,GW/leesburg.png,GW/leesburg.png,GW/carmel.png,GW/hotsprings.png,0.5,closer,66885d217777eda6f3a9b8dd
23222,3084.5999999996275,directmemory_phase,984846,interleaved,GW/gatlinburg.png,49.0,0.0,0.4761904761904761,GW/leesburg.png,GW/westpalmbeach.png,GW/hotsprings.png,GW/hotsprings.png,GW/westpalmbeach.png,GW/leesburg.png,0.5,closer,66885d217777eda6f3a9b8dd
23224,2797.7999999998137,directmemory_phase,988647,interleaved,GW/hanover.png,50.0,0.0,0.4545454545454545,GW/westpalmbeach.png,GW/peoria.png,GW/huntsville.png,GW/huntsville.png,GW/peoria.png,GW/westpalmbeach.png,0.5,closer,66885d217777eda6f3a9b8dd
23226,3036.899999999441,directmemory_phase,992687,interleaved,GW/newhope.png,51.0,1.0,0.4782608695652174,GW/boulder.png,GW/hotsprings.png,GW/shreveport.png,GW/shreveport.png,GW/hotsprings.png,GW/boulder.png,1.0,,66885d217777eda6f3a9b8dd
23228,4445.200000000186,directmemory_phase,998135,interleaved,GW/huntsville.png,51.0,0.0,0.4583333333333333,GW/hanover.png,GW/hotsprings.png,GW/newhope.png,GW/hanover.png,GW/newhope.png,GW/hotsprings.png,0.5,closer,66885d217777eda6f3a9b8dd
23230,1380.2000000001865,directmemory_phase,1000518,interleaved,GW/cornwall.png,51.0,1.0,0.48,GW/shreveport.png,GW/westpalmbeach.png,GW/racine.png,GW/racine.png,GW/westpalmbeach.png,GW/shreveport.png,1.0,,66885d217777eda6f3a9b8dd
23232,1902.5,directmemory_phase,1003423,interleaved,GW/newhope.png,51.0,1.0,0.5,GW/boulder.png,GW/carmel.png,GW/hanover.png,GW/hanover.png,GW/carmel.png,GW/boulder.png,1.0,,66885d217777eda6f3a9b8dd
23234,3716.099999999627,directmemory_phase,1008143,interleaved,GW/cornwall.png,50.0,1.0,0.5185185185185185,GW/westpalmbeach.png,GW/hotsprings.png,GW/hanover.png,GW/hotsprings.png,GW/westpalmbeach.png,GW/hanover.png,1.0,,66885d217777eda6f3a9b8dd
23236,4702.299999999814,directmemory_phase,1013848,interleaved,GW/gatlinburg.png,50.0,1.0,0.5357142857142857,GW/hanover.png,GW/newhope.png,GW/racine.png,GW/newhope.png,GW/hanover.png,GW/racine.png,1.0,,66885d217777eda6f3a9b8dd
23238,4308.5,directmemory_phase,1019160,interleaved,GW/cornwall.png,51.0,1.0,0.5517241379310345,GW/shreveport.png,GW/westpalmbeach.png,GW/boulder.png,GW/boulder.png,GW/westpalmbeach.png,GW/shreveport.png,1.0,,66885d217777eda6f3a9b8dd
23240,3428.9000000003725,directmemory_phase,1023592,interleaved,GW/carmel.png,49.0,0.0,0.5333333333333333,GW/leesburg.png,GW/newhope.png,GW/gatlinburg.png,GW/gatlinburg.png,GW/newhope.png,GW/leesburg.png,0.5,closer,66885d217777eda6f3a9b8dd
23242,2820.0999999996275,directmemory_phase,1027415,interleaved,GW/shreveport.png,49.0,0.0,0.5161290322580645,GW/boulder.png,GW/gatlinburg.png,GW/huntsville.png,GW/huntsville.png,GW/gatlinburg.png,GW/boulder.png,0.5,closer,66885d217777eda6f3a9b8dd
23244,4734.4000000003725,directmemory_phase,1033152,interleaved,GW/hanover.png,49.0,1.0,0.53125,GW/carmel.png,GW/westpalmbeach.png,GW/boulder.png,GW/carmel.png,GW/boulder.png,GW/westpalmbeach.png,1.0,,66885d217777eda6f3a9b8dd
24157,2530.0999999996275,directmemory_phase,1127980.0,interleaved,GW/hanover.png,51.0,1.0,1.0,GW/hotsprings.png,GW/shreveport.png,GW/newhope.png,GW/newhope.png,GW/shreveport.png,GW/hotsprings.png,1.0,,67062295123561f8241f65fc
24159,1947.800000000745,directmemory_phase,1130931.0,interleaved,GW/hotsprings.png,51.0,1.0,1.0,GW/huntsville.png,GW/boulder.png,GW/carmel.png,GW/carmel.png,GW/boulder.png,GW/huntsville.png,1.0,,67062295123561f8241f65fc
24161,1143.2000000011176,directmemory_phase,1133079.0,interleaved,GW/peoria.png,51.0,1.0,1.0,GW/huntsville.png,GW/gatlinburg.png,GW/boulder.png,GW/boulder.png,GW/gatlinburg.png,GW/huntsville.png,1.0,,67062295123561f8241f65fc
24163,1363.7000000011176,directmemory_phase,1135446.0,interleaved,GW/carmel.png,51.0,1.0,1.0,GW/newhope.png,GW/peoria.png,GW/leesburg.png,GW/leesburg.png,GW/peoria.png,GW/newhope.png,1.0,,67062295123561f8241f65fc
24165,1843.0999999996277,directmemory_phase,1138291.0,interleaved,GW/gatlinburg.png,51.0,1.0,1.0,GW/racine.png,GW/hotsprings.png,GW/boulder.png,GW/boulder.png,GW/hotsprings.png,GW/racine.png,1.0,,67062295123561f8241f65fc
24167,1577.699999999255,directmemory_phase,1140872.0,interleaved,GW/newhope.png,50.0,1.0,1.0,GW/cornwall.png,GW/hanover.png,GW/carmel.png,GW/hanover.png,GW/cornwall.png,GW/carmel.png,1.0,,67062295123561f8241f65fc
24169,1323.0,directmemory_phase,1143200.0,interleaved,GW/carmel.png,51.0,1.0,1.0,GW/huntsville.png,GW/gatlinburg.png,GW/hotsprings.png,GW/hotsprings.png,GW/gatlinburg.png,GW/huntsville.png,1.0,,67062295123561f8241f65fc
24171,2052.2000000011176,directmemory_phase,1146255.0,interleaved,GW/huntsville.png,50.0,1.0,1.0,GW/boulder.png,GW/westpalmbeach.png,GW/hotsprings.png,GW/westpalmbeach.png,GW/boulder.png,GW/hotsprings.png,1.0,,67062295123561f8241f65fc
24173,1203.2000000011176,directmemory_phase,1148461.0,interleaved,GW/leesburg.png,51.0,1.0,1.0,GW/shreveport.png,GW/hotsprings.png,GW/carmel.png,GW/carmel.png,GW/hotsprings.png,GW/shreveport.png,1.0,,67062295123561f8241f65fc
24175,1368.0999999996277,directmemory_phase,1150834.0,interleaved,GW/cornwall.png,50.0,1.0,1.0,GW/huntsville.png,GW/shreveport.png,GW/leesburg.png,GW/shreveport.png,GW/huntsville.png,GW/leesburg.png,1.0,,67062295123561f8241f65fc
24177,2438.5999999996275,directmemory_phase,1154284.0,interleaved,GW/gatlinburg.png,51.0,1.0,1.0,GW/racine.png,GW/peoria.png,GW/huntsville.png,GW/huntsville.png,GW/peoria.png,GW/racine.png,1.0,,67062295123561f8241f65fc
24179,1931.4000000003723,directmemory_phase,1157218.0,interleaved,GW/boulder.png,50.0,1.0,1.0,GW/hotsprings.png,GW/peoria.png,GW/racine.png,GW/peoria.png,GW/hotsprings.png,GW/racine.png,1.0,,67062295123561f8241f65fc
24181,2638.0,directmemory_phase,1160860.0,interleaved,GW/shreveport.png,50.0,1.0,1.0,GW/hanover.png,GW/newhope.png,GW/leesburg.png,GW/newhope.png,GW/hanover.png,GW/leesburg.png,1.0,,67062295123561f8241f65fc
24183,1180.199999999255,directmemory_phase,1163042.0,interleaved,GW/hotsprings.png,50.0,1.0,1.0,GW/shreveport.png,GW/cornwall.png,GW/newhope.png,GW/cornwall.png,GW/shreveport.png,GW/newhope.png,1.0,,67062295123561f8241f65fc
24185,2222.0,directmemory_phase,1166268.0,interleaved,GW/shreveport.png,51.0,1.0,1.0,GW/peoria.png,GW/gatlinburg.png,GW/westpalmbeach.png,GW/westpalmbeach.png,GW/gatlinburg.png,GW/peoria.png,1.0,,67062295123561f8241f65fc
24187,1611.5999999996277,directmemory_phase,1168883.0,interleaved,GW/carmel.png,50.0,1.0,1.0,GW/gatlinburg.png,GW/boulder.png,GW/huntsville.png,GW/boulder.png,GW/gatlinburg.png,GW/huntsville.png,1.0,,67062295123561f8241f65fc
24189,2908.7999999988824,directmemory_phase,1172794.0,interleaved,GW/westpalmbeach.png,49.0,1.0,1.0,GW/huntsville.png,GW/hotsprings.png,GW/gatlinburg.png,GW/huntsville.png,GW/gatlinburg.png,GW/hotsprings.png,1.0,,67062295123561f8241f65fc
24191,1309.9000000003723,directmemory_phase,1175106.0,interleaved,GW/gatlinburg.png,51.0,1.0,1.0,GW/leesburg.png,GW/carmel.png,GW/cornwall.png,GW/cornwall.png,GW/carmel.png,GW/leesburg.png,1.0,,67062295123561f8241f65fc
24193,2788.5999999996275,directmemory_phase,1178899.0,interleaved,GW/westpalmbeach.png,51.0,1.0,1.0,GW/boulder.png,GW/gatlinburg.png,GW/newhope.png,GW/newhope.png,GW/gatlinburg.png,GW/boulder.png,1.0,,67062295123561f8241f65fc
24195,4144.300000000745,directmemory_phase,1184046.0,interleaved,GW/huntsville.png,51.0,1.0,1.0,GW/hanover.png,GW/boulder.png,GW/shreveport.png,GW/shreveport.png,GW/boulder.png,GW/hanover.png,1.0,,67062295123561f8241f65fc
24197,3702.2000000011176,directmemory_phase,1188751.0,interleaved,GW/westpalmbeach.png,49.0,1.0,1.0,GW/racine.png,GW/peoria.png,GW/cornwall.png,GW/racine.png,GW/cornwall.png,GW/peoria.png,1.0,,67062295123561f8241f65fc
24199,1681.2999999988824,directmemory_phase,1191436.0,interleaved,GW/shreveport.png,49.0,1.0,1.0,GW/huntsville.png,GW/peoria.png,GW/hanover.png,GW/huntsville.png,GW/hanover.png,GW/peoria.png,1.0,,67062295123561f8241f65fc
24201,3647.0,directmemory_phase,1196087.0,interleaved,GW/boulder.png,50.0,1.0,1.0,GW/leesburg.png,GW/gatlinburg.png,GW/racine.png,GW/gatlinburg.png,GW/leesburg.png,GW/racine.png,1.0,,67062295123561f8241f65fc
24203,1548.300000000745,directmemory_phase,1198637.0,interleaved,GW/newhope.png,51.0,1.0,1.0,GW/gatlinburg.png,GW/racine.png,GW/shreveport.png,GW/shreveport.png,GW/racine.png,GW/gatlinburg.png,1.0,,67062295123561f8241f65fc
24205,2629.2000000011176,directmemory_phase,1202270.0,interleaved,GW/boulder.png,51.0,1.0,1.0,GW/westpalmbeach.png,GW/leesburg.png,GW/carmel.png,GW/carmel.png,GW/leesburg.png,GW/westpalmbeach.png,1.0,,67062295123561f8241f65fc
24207,3053.0,directmemory_phase,1206326.0,interleaved,GW/westpalmbeach.png,50.0,1.0,1.0,GW/gatlinburg.png,GW/shreveport.png,GW/hotsprings.png,GW/shreveport.png,GW/gatlinburg.png,GW/hotsprings.png,1.0,,67062295123561f8241f65fc
24209,1802.7999999988824,directmemory_phase,1209132.0,interleaved,GW/cornwall.png,49.0,1.0,1.0,GW/hotsprings.png,GW/racine.png,GW/westpalmbeach.png,GW/hotsprings.png,GW/westpalmbeach.png,GW/racine.png,1.0,,67062295123561f8241f65fc
24211,1932.5999999996277,directmemory_phase,1212069.0,interleaved,GW/newhope.png,49.0,0.0,0.9642857142857144,GW/huntsville.png,GW/westpalmbeach.png,GW/carmel.png,GW/westpalmbeach.png,GW/huntsville.png,GW/carmel.png,0.5,closer,67062295123561f8241f65fc
24213,3375.5999999996275,directmemory_phase,1216447.0,interleaved,GW/cornwall.png,51.0,1.0,0.9655172413793104,GW/hanover.png,GW/carmel.png,GW/gatlinburg.png,GW/gatlinburg.png,GW/carmel.png,GW/hanover.png,1.0,,67062295123561f8241f65fc
