,rt,trial_type,time_elapsed,sequence,stimulus,key_press,stimulus_left,stimulus_right,accuracy,cumulative_accuracy,stimulus_correct,condition,specific_pairs,partid
762,,shortestpath_phase,1143347,interleaved,GW/gatlinburg.png,,GW/shreveport.png,GW/boulder.png,0.0,0.0,GW/shreveport.png,Two Edge Diff,Four Edge Six Edge,5faefcc22be93b11829e84df
765,2106.39999999851,shortestpath_phase,1149462,interleaved,GW/racine.png,49.0,GW/leesburg.png,GW/westpalmbeach.png,1.0,0.5,GW/leesburg.png,One Edge Diff,Four Edge Five Edge,5faefcc22be93b11829e84df
767,2926.1999999955297,shortestpath_phase,1153397,interleaved,GW/gatlinburg.png,49.0,GW/leesburg.png,GW/carmel.png,0.0,0.3333333333333333,GW/carmel.png,Three Edge Diff,Three Edge Six Edge,5faefcc22be93b11829e84df
769,3078.89999999851,shortestpath_phase,1157483,interleaved,GW/westpalmbeach.png,50.0,GW/gatlinburg.png,GW/hanover.png,1.0,0.5,GW/hanover.png,One Edge Diff,Five Edge Six Edge,5faefcc22be93b11829e84df
771,2531.4000000059605,shortestpath_phase,1161023,interleaved,GW/leesburg.png,50.0,GW/peoria.png,GW/hotsprings.png,1.0,0.6,GW/hotsprings.png,One Edge Diff,Two Edge Three Edge,5faefcc22be93b11829e84df
773,1803.0,shortestpath_phase,1163832,interleaved,GW/gatlinburg.png,50.0,GW/carmel.png,GW/boulder.png,0.0,0.5,GW/carmel.png,Four Edge Diff,Two Edge Six Edge,5faefcc22be93b11829e84df
775,1619.0,shortestpath_phase,1166460,interleaved,GW/hanover.png,50.0,GW/cornwall.png,GW/westpalmbeach.png,0.0,0.4285714285714285,GW/cornwall.png,Two Edge Diff,Three Edge Five Edge,5faefcc22be93b11829e84df
777,2473.5,shortestpath_phase,1169941,interleaved,GW/boulder.png,49.0,GW/leesburg.png,GW/hanover.png,1.0,0.5,GW/leesburg.png,Four Edge Diff,Two Edge Six Edge,5faefcc22be93b11829e84df
779,2086.60000000149,shortestpath_phase,1173033,interleaved,GW/westpalmbeach.png,49.0,GW/huntsville.png,GW/gatlinburg.png,1.0,0.5555555555555556,GW/huntsville.png,Four Edge Diff,Two Edge Six Edge,5faefcc22be93b11829e84df
781,2366.0,shortestpath_phase,1176408,interleaved,GW/leesburg.png,50.0,GW/gatlinburg.png,GW/newhope.png,1.0,0.6,GW/newhope.png,Three Edge Diff,Three Edge Six Edge,5faefcc22be93b11829e84df
783,2345.60000000149,shortestpath_phase,1179762,interleaved,GW/boulder.png,50.0,GW/carmel.png,GW/peoria.png,0.0,0.5454545454545454,GW/carmel.png,One Edge Diff,Four Edge Five Edge,5faefcc22be93b11829e84df
785,2039.20000000298,shortestpath_phase,1182808,interleaved,GW/leesburg.png,50.0,GW/racine.png,GW/gatlinburg.png,0.0,0.5,GW/racine.png,One Edge Diff,Four Edge Five Edge,5faefcc22be93b11829e84df
787,2433.8000000044703,shortestpath_phase,1186250,interleaved,GW/gatlinburg.png,49.0,GW/leesburg.png,GW/cornwall.png,0.0,0.4615384615384615,GW/cornwall.png,One Edge Diff,Four Edge Five Edge,5faefcc22be93b11829e84df
789,2650.0,shortestpath_phase,1189908,interleaved,GW/huntsville.png,50.0,GW/gatlinburg.png,GW/westpalmbeach.png,1.0,0.5,GW/westpalmbeach.png,Three Edge Diff,Three Edge Six Edge,5faefcc22be93b11829e84df
791,2216.4000000059605,shortestpath_phase,1193132,interleaved,GW/peoria.png,50.0,GW/hotsprings.png,GW/huntsville.png,0.0,0.4666666666666667,GW/hotsprings.png,Two Edge Diff,Two Edge Four Edge,5faefcc22be93b11829e84df
793,2275.39999999851,shortestpath_phase,1196414,interleaved,GW/boulder.png,50.0,GW/shreveport.png,GW/racine.png,0.0,0.4375,GW/shreveport.png,Three Edge Diff,Three Edge Six Edge,5faefcc22be93b11829e84df
795,1990.79999999702,shortestpath_phase,1199413,interleaved,GW/peoria.png,50.0,GW/boulder.png,GW/huntsville.png,1.0,0.4705882352941176,GW/huntsville.png,One Edge Diff,Four Edge Five Edge,5faefcc22be93b11829e84df
797,1751.5,shortestpath_phase,1202171,interleaved,GW/boulder.png,50.0,GW/gatlinburg.png,GW/carmel.png,1.0,0.5,GW/carmel.png,Two Edge Diff,Four Edge Six Edge,5faefcc22be93b11829e84df
799,1532.5999999940395,shortestpath_phase,1204711,interleaved,GW/westpalmbeach.png,49.0,GW/hanover.png,GW/cornwall.png,0.0,0.4736842105263157,GW/cornwall.png,Three Edge Diff,Three Edge Six Edge,5faefcc22be93b11829e84df
801,2148.39999999851,shortestpath_phase,1207868,interleaved,GW/huntsville.png,50.0,GW/carmel.png,GW/racine.png,0.0,0.45,GW/carmel.png,One Edge Diff,Three Edge Four Edge,5faefcc22be93b11829e84df
803,1870.6999999955297,shortestpath_phase,1210745,interleaved,GW/boulder.png,50.0,GW/gatlinburg.png,GW/leesburg.png,1.0,0.4761904761904761,GW/leesburg.png,Four Edge Diff,Two Edge Six Edge,5faefcc22be93b11829e84df
805,1785.39999999851,shortestpath_phase,1213538,interleaved,GW/westpalmbeach.png,50.0,GW/hanover.png,GW/carmel.png,1.0,0.5,GW/carmel.png,One Edge Diff,Four Edge Five Edge,5faefcc22be93b11829e84df
807,1941.39999999851,shortestpath_phase,1216487,interleaved,GW/leesburg.png,50.0,GW/racine.png,GW/boulder.png,1.0,0.5217391304347826,GW/boulder.png,Two Edge Diff,Two Edge Four Edge,5faefcc22be93b11829e84df
809,1912.79999999702,shortestpath_phase,1219407,interleaved,GW/carmel.png,50.0,GW/leesburg.png,GW/newhope.png,1.0,0.5416666666666666,GW/newhope.png,One Edge Diff,Two Edge Three Edge,5faefcc22be93b11829e84df
811,1688.10000000149,shortestpath_phase,1222103,interleaved,GW/westpalmbeach.png,49.0,GW/gatlinburg.png,GW/shreveport.png,0.0,0.52,GW/shreveport.png,Four Edge Diff,Two Edge Six Edge,5faefcc22be93b11829e84df
813,2040.4000000059605,shortestpath_phase,1225151,interleaved,GW/boulder.png,50.0,GW/carmel.png,GW/hanover.png,0.0,0.5,GW/carmel.png,Two Edge Diff,Four Edge Six Edge,5faefcc22be93b11829e84df
815,1746.7000000029802,shortestpath_phase,1227904,interleaved,GW/hanover.png,49.0,GW/newhope.png,GW/huntsville.png,1.0,0.5185185185185185,GW/newhope.png,Three Edge Diff,Three Edge Six Edge,5faefcc22be93b11829e84df
817,2086.79999999702,shortestpath_phase,1230999,interleaved,GW/westpalmbeach.png,49.0,GW/hanover.png,GW/huntsville.png,0.0,0.5,GW/huntsville.png,Three Edge Diff,Two Edge Five Edge,5faefcc22be93b11829e84df
819,2081.89999999851,shortestpath_phase,1234089,interleaved,GW/hanover.png,49.0,GW/shreveport.png,GW/carmel.png,0.0,0.4827586206896552,GW/carmel.png,One Edge Diff,Three Edge Four Edge,5faefcc22be93b11829e84df
821,1660.60000000149,shortestpath_phase,1236758,interleaved,GW/racine.png,50.0,GW/huntsville.png,GW/newhope.png,1.0,0.5,GW/newhope.png,Two Edge Diff,Two Edge Four Edge,5faefcc22be93b11829e84df
823,1881.5,shortestpath_phase,1239648,interleaved,GW/gatlinburg.png,50.0,GW/westpalmbeach.png,GW/carmel.png,1.0,0.5161290322580645,GW/carmel.png,Four Edge Diff,Two Edge Six Edge,5faefcc22be93b11829e84df
825,1963.20000000298,shortestpath_phase,1242619,interleaved,GW/westpalmbeach.png,50.0,GW/racine.png,GW/shreveport.png,1.0,0.53125,GW/shreveport.png,Three Edge Diff,Two Edge Five Edge,5faefcc22be93b11829e84df
827,2285.10000000149,shortestpath_phase,1245911,interleaved,GW/carmel.png,49.0,GW/newhope.png,GW/boulder.png,1.0,0.5454545454545454,GW/newhope.png,Two Edge Diff,Two Edge Four Edge,5faefcc22be93b11829e84df
829,2017.89999999851,shortestpath_phase,1248937,interleaved,GW/cornwall.png,50.0,GW/peoria.png,GW/gatlinburg.png,0.0,0.5294117647058824,GW/peoria.png,Two Edge Diff,Two Edge Four Edge,5faefcc22be93b11829e84df
831,1861.70000000298,shortestpath_phase,1251807,interleaved,GW/westpalmbeach.png,50.0,GW/gatlinburg.png,GW/carmel.png,1.0,0.5428571428571428,GW/carmel.png,Two Edge Diff,Four Edge Six Edge,5faefcc22be93b11829e84df
833,2205.89999999851,shortestpath_phase,1255018,interleaved,GW/boulder.png,49.0,GW/peoria.png,GW/gatlinburg.png,1.0,0.5555555555555556,GW/peoria.png,One Edge Diff,Five Edge Six Edge,5faefcc22be93b11829e84df
835,2292.0,shortestpath_phase,1258319,interleaved,GW/newhope.png,50.0,GW/gatlinburg.png,GW/boulder.png,0.0,0.5405405405405406,GW/gatlinburg.png,One Edge Diff,Three Edge Four Edge,5faefcc22be93b11829e84df
837,1952.10000000149,shortestpath_phase,1261278,interleaved,GW/westpalmbeach.png,49.0,GW/peoria.png,GW/gatlinburg.png,1.0,0.5526315789473685,GW/peoria.png,Two Edge Diff,Four Edge Six Edge,5faefcc22be93b11829e84df
839,2248.79999999702,shortestpath_phase,1264533,interleaved,GW/gatlinburg.png,49.0,GW/cornwall.png,GW/boulder.png,1.0,0.5641025641025641,GW/cornwall.png,Two Edge Diff,Four Edge Six Edge,5faefcc22be93b11829e84df
841,1501.10000000149,shortestpath_phase,1267042,interleaved,GW/racine.png,50.0,GW/hanover.png,GW/westpalmbeach.png,0.0,0.55,GW/hanover.png,Three Edge Diff,Two Edge Five Edge,5faefcc22be93b11829e84df
843,2427.3000000044703,shortestpath_phase,1270477,interleaved,GW/peoria.png,50.0,GW/westpalmbeach.png,GW/cornwall.png,1.0,0.5609756097560976,GW/cornwall.png,Two Edge Diff,Two Edge Four Edge,5faefcc22be93b11829e84df
845,2015.1999999955297,shortestpath_phase,1273500,interleaved,GW/racine.png,49.0,GW/boulder.png,GW/newhope.png,0.0,0.5476190476190477,GW/newhope.png,Three Edge Diff,Three Edge Six Edge,5faefcc22be93b11829e84df
847,1559.60000000149,shortestpath_phase,1276067,interleaved,GW/boulder.png,50.0,GW/peoria.png,GW/leesburg.png,1.0,0.5581395348837209,GW/leesburg.png,Three Edge Diff,Two Edge Five Edge,5faefcc22be93b11829e84df
849,2112.10000000149,shortestpath_phase,1279187,interleaved,GW/gatlinburg.png,49.0,GW/shreveport.png,GW/westpalmbeach.png,1.0,0.5681818181818182,GW/shreveport.png,Two Edge Diff,Four Edge Six Edge,5faefcc22be93b11829e84df
851,2099.70000000298,shortestpath_phase,1282293,interleaved,GW/leesburg.png,49.0,GW/gatlinburg.png,GW/boulder.png,0.0,0.5555555555555556,GW/boulder.png,Three Edge Diff,Two Edge Five Edge,5faefcc22be93b11829e84df
853,1783.2000000029802,shortestpath_phase,1285085,interleaved,GW/huntsville.png,50.0,GW/westpalmbeach.png,GW/racine.png,0.0,0.5434782608695652,GW/westpalmbeach.png,Two Edge Diff,Two Edge Four Edge,5faefcc22be93b11829e84df
855,2000.10000000149,shortestpath_phase,1288093,interleaved,GW/peoria.png,50.0,GW/boulder.png,GW/carmel.png,1.0,0.5531914893617021,GW/carmel.png,Three Edge Diff,Three Edge Six Edge,5faefcc22be93b11829e84df
857,2173.60000000149,shortestpath_phase,1291273,interleaved,GW/boulder.png,49.0,GW/shreveport.png,GW/hanover.png,1.0,0.5625,GW/shreveport.png,Four Edge Diff,Two Edge Six Edge,5faefcc22be93b11829e84df
859,2057.39999999851,shortestpath_phase,1294339,interleaved,GW/cornwall.png,49.0,GW/gatlinburg.png,GW/carmel.png,0.0,0.5510204081632653,GW/carmel.png,One Edge Diff,Three Edge Four Edge,5faefcc22be93b11829e84df
861,2150.6999999955297,shortestpath_phase,1297497,interleaved,GW/peoria.png,50.0,GW/shreveport.png,GW/boulder.png,0.0,0.54,GW/shreveport.png,Two Edge Diff,Three Edge Five Edge,5faefcc22be93b11829e84df
863,1818.4000000059605,shortestpath_phase,1300321,interleaved,GW/hanover.png,50.0,GW/gatlinburg.png,GW/huntsville.png,0.0,0.5294117647058824,GW/gatlinburg.png,Two Edge Diff,Three Edge Five Edge,5faefcc22be93b11829e84df
865,2069.10000000149,shortestpath_phase,1303397,interleaved,GW/boulder.png,50.0,GW/gatlinburg.png,GW/shreveport.png,1.0,0.5384615384615384,GW/shreveport.png,Four Edge Diff,Two Edge Six Edge,5faefcc22be93b11829e84df
867,1875.0,shortestpath_phase,1306279,interleaved,GW/hanover.png,49.0,GW/westpalmbeach.png,GW/boulder.png,1.0,0.5471698113207547,GW/westpalmbeach.png,One Edge Diff,Five Edge Six Edge,5faefcc22be93b11829e84df
869,2042.3000000044703,shortestpath_phase,1309328,interleaved,GW/boulder.png,49.0,GW/hotsprings.png,GW/newhope.png,1.0,0.5555555555555556,GW/hotsprings.png,One Edge Diff,Three Edge Four Edge,5faefcc22be93b11829e84df
871,2350.0,shortestpath_phase,1312686,interleaved,GW/westpalmbeach.png,50.0,GW/gatlinburg.png,GW/cornwall.png,1.0,0.5636363636363636,GW/cornwall.png,Four Edge Diff,Two Edge Six Edge,5faefcc22be93b11829e84df
873,1755.0,shortestpath_phase,1315450,interleaved,GW/peoria.png,49.0,GW/boulder.png,GW/gatlinburg.png,0.0,0.5535714285714286,GW/gatlinburg.png,Three Edge Diff,Two Edge Five Edge,5faefcc22be93b11829e84df
875,2352.10000000149,shortestpath_phase,1318810,interleaved,GW/westpalmbeach.png,49.0,GW/shreveport.png,GW/hanover.png,1.0,0.5614035087719298,GW/shreveport.png,Three Edge Diff,Two Edge Five Edge,5faefcc22be93b11829e84df
877,2385.0,shortestpath_phase,1322203,interleaved,GW/gatlinburg.png,50.0,GW/huntsville.png,GW/boulder.png,0.0,0.5517241379310345,GW/huntsville.png,One Edge Diff,Five Edge Six Edge,5faefcc22be93b11829e84df
879,2142.6999999955297,shortestpath_phase,1325353,interleaved,GW/boulder.png,49.0,GW/shreveport.png,GW/hotsprings.png,1.0,0.559322033898305,GW/shreveport.png,One Edge Diff,Two Edge Three Edge,5faefcc22be93b11829e84df
881,2428.70000000298,shortestpath_phase,1328789,interleaved,GW/gatlinburg.png,49.0,GW/huntsville.png,GW/westpalmbeach.png,1.0,0.5666666666666667,GW/huntsville.png,One Edge Diff,Five Edge Six Edge,5faefcc22be93b11829e84df
883,2438.10000000149,shortestpath_phase,1332236,interleaved,GW/hanover.png,49.0,GW/racine.png,GW/westpalmbeach.png,1.0,0.5737704918032787,GW/racine.png,Three Edge Diff,Two Edge Five Edge,5faefcc22be93b11829e84df
885,1272.5,shortestpath_phase,1334516,interleaved,GW/peoria.png,50.0,GW/gatlinburg.png,GW/huntsville.png,0.0,0.5645161290322581,GW/gatlinburg.png,Two Edge Diff,Two Edge Four Edge,5faefcc22be93b11829e84df
887,2004.29999999702,shortestpath_phase,1337527,interleaved,GW/westpalmbeach.png,50.0,GW/cornwall.png,GW/racine.png,0.0,0.5555555555555556,GW/cornwall.png,Three Edge Diff,Two Edge Five Edge,5faefcc22be93b11829e84df
889,1682.10000000149,shortestpath_phase,1340218,interleaved,GW/gatlinburg.png,49.0,GW/peoria.png,GW/leesburg.png,1.0,0.5625,GW/peoria.png,Three Edge Diff,Two Edge Five Edge,5faefcc22be93b11829e84df
891,2434.79999999702,shortestpath_phase,1343661,interleaved,GW/racine.png,49.0,GW/westpalmbeach.png,GW/newhope.png,0.0,0.5538461538461539,GW/newhope.png,Three Edge Diff,Three Edge Six Edge,5faefcc22be93b11829e84df
893,1950.9000000059605,shortestpath_phase,1346619,interleaved,GW/peoria.png,50.0,GW/boulder.png,GW/cornwall.png,1.0,0.5606060606060606,GW/cornwall.png,Three Edge Diff,Three Edge Six Edge,5faefcc22be93b11829e84df
895,2044.6999999955297,shortestpath_phase,1349671,interleaved,GW/boulder.png,49.0,GW/peoria.png,GW/westpalmbeach.png,0.0,0.5522388059701493,GW/westpalmbeach.png,Two Edge Diff,Three Edge Five Edge,5faefcc22be93b11829e84df
897,1874.0,shortestpath_phase,1352554,interleaved,GW/carmel.png,49.0,GW/peoria.png,GW/cornwall.png,1.0,0.5588235294117647,GW/peoria.png,One Edge Diff,Two Edge Three Edge,5faefcc22be93b11829e84df
899,1911.0,shortestpath_phase,1355470,interleaved,GW/boulder.png,49.0,GW/racine.png,GW/cornwall.png,0.0,0.5507246376811594,GW/cornwall.png,Two Edge Diff,Three Edge Five Edge,5faefcc22be93b11829e84df
901,2142.5,shortestpath_phase,1358621,interleaved,GW/gatlinburg.png,50.0,GW/boulder.png,GW/peoria.png,1.0,0.5571428571428572,GW/peoria.png,Four Edge Diff,Two Edge Six Edge,5faefcc22be93b11829e84df
903,2095.3000000044703,shortestpath_phase,1361725,interleaved,GW/boulder.png,50.0,GW/hanover.png,GW/racine.png,1.0,0.5633802816901409,GW/racine.png,One Edge Diff,Five Edge Six Edge,5faefcc22be93b11829e84df
905,2083.29999999702,shortestpath_phase,1364816,interleaved,GW/huntsville.png,49.0,GW/gatlinburg.png,GW/hotsprings.png,0.0,0.5555555555555556,GW/hotsprings.png,Three Edge Diff,Two Edge Five Edge,5faefcc22be93b11829e84df
907,2043.3000000044703,shortestpath_phase,1367868,interleaved,GW/hanover.png,49.0,GW/racine.png,GW/boulder.png,1.0,0.5616438356164384,GW/racine.png,Four Edge Diff,Two Edge Six Edge,5faefcc22be93b11829e84df
909,1956.79999999702,shortestpath_phase,1370833,interleaved,GW/boulder.png,50.0,GW/racine.png,GW/leesburg.png,1.0,0.5675675675675675,GW/leesburg.png,Three Edge Diff,Three Edge Six Edge,5faefcc22be93b11829e84df
911,2542.39999999851,shortestpath_phase,1374383,interleaved,GW/hanover.png,49.0,GW/hotsprings.png,GW/leesburg.png,1.0,0.5733333333333334,GW/hotsprings.png,One Edge Diff,Three Edge Four Edge,5faefcc22be93b11829e84df
913,2263.60000000149,shortestpath_phase,1377655,interleaved,GW/cornwall.png,50.0,GW/peoria.png,GW/boulder.png,0.0,0.5657894736842105,GW/peoria.png,One Edge Diff,Two Edge Three Edge,5faefcc22be93b11829e84df
915,1854.0,shortestpath_phase,1380518,interleaved,GW/hanover.png,50.0,GW/hotsprings.png,GW/westpalmbeach.png,0.0,0.5584415584415584,GW/hotsprings.png,Two Edge Diff,Three Edge Five Edge,5faefcc22be93b11829e84df
917,2616.29999999702,shortestpath_phase,1384142,interleaved,GW/racine.png,49.0,GW/cornwall.png,GW/boulder.png,1.0,0.5641025641025641,GW/cornwall.png,Two Edge Diff,Three Edge Five Edge,5faefcc22be93b11829e84df
919,1760.5,shortestpath_phase,1386910,interleaved,GW/peoria.png,50.0,GW/boulder.png,GW/hotsprings.png,1.0,0.569620253164557,GW/hotsprings.png,Three Edge Diff,Three Edge Six Edge,5faefcc22be93b11829e84df
921,2577.39999999851,shortestpath_phase,1390495,interleaved,GW/huntsville.png,50.0,GW/carmel.png,GW/gatlinburg.png,0.0,0.5625,GW/carmel.png,Two Edge Diff,Three Edge Five Edge,5faefcc22be93b11829e84df
923,2363.39999999851,shortestpath_phase,1393865,interleaved,GW/racine.png,49.0,GW/westpalmbeach.png,GW/hotsprings.png,0.0,0.5555555555555556,GW/hotsprings.png,Three Edge Diff,Two Edge Five Edge,5faefcc22be93b11829e84df
925,1900.39999999851,shortestpath_phase,1396773,interleaved,GW/hanover.png,50.0,GW/boulder.png,GW/shreveport.png,1.0,0.5609756097560976,GW/shreveport.png,Two Edge Diff,Four Edge Six Edge,5faefcc22be93b11829e84df
927,2408.60000000149,shortestpath_phase,1400190,interleaved,GW/cornwall.png,49.0,GW/huntsville.png,GW/boulder.png,1.0,0.5662650602409639,GW/huntsville.png,One Edge Diff,Two Edge Three Edge,5faefcc22be93b11829e84df
929,2281.79999999702,shortestpath_phase,1403478,interleaved,GW/hanover.png,49.0,GW/newhope.png,GW/boulder.png,1.0,0.5714285714285714,GW/newhope.png,Four Edge Diff,Two Edge Six Edge,5faefcc22be93b11829e84df
1743,3376.0999999940395,shortestpath_phase,1194563,interleaved,GW/racine.png,49.0,GW/hotsprings.png,GW/huntsville.png,1.0,1.0,GW/hotsprings.png,Two Edge Diff,Three Edge Five Edge,5b09f4f1d282ff00015b536d
1745,1526.0,shortestpath_phase,1197094,interleaved,GW/westpalmbeach.png,50.0,GW/racine.png,GW/peoria.png,1.0,1.0,GW/peoria.png,Four Edge Diff,Two Edge Six Edge,5b09f4f1d282ff00015b536d
1747,1441.2999999821186,shortestpath_phase,1199539,interleaved,GW/hotsprings.png,49.0,GW/peoria.png,GW/leesburg.png,0.0,0.6666666666666666,GW/leesburg.png,One Edge Diff,Two Edge Three Edge,5b09f4f1d282ff00015b536d
1749,1311.4000000059605,shortestpath_phase,1201855,interleaved,GW/hanover.png,49.0,GW/shreveport.png,GW/cornwall.png,1.0,0.75,GW/shreveport.png,One Edge Diff,Five Edge Six Edge,5b09f4f1d282ff00015b536d
1751,854.0,shortestpath_phase,1203713,interleaved,GW/racine.png,50.0,GW/huntsville.png,GW/leesburg.png,1.0,0.8,GW/leesburg.png,One Edge Diff,Four Edge Five Edge,5b09f4f1d282ff00015b536d
1753,825.5,shortestpath_phase,1205542,interleaved,GW/newhope.png,49.0,GW/hanover.png,GW/shreveport.png,0.0,0.6666666666666666,GW/shreveport.png,One Edge Diff,Two Edge Three Edge,5b09f4f1d282ff00015b536d
1755,781.3000000119209,shortestpath_phase,1207327,interleaved,GW/huntsville.png,50.0,GW/racine.png,GW/hanover.png,1.0,0.7142857142857143,GW/hanover.png,Three Edge Diff,Two Edge Five Edge,5b09f4f1d282ff00015b536d
1757,1227.5,shortestpath_phase,1209559,interleaved,GW/shreveport.png,49.0,GW/leesburg.png,GW/westpalmbeach.png,1.0,0.75,GW/leesburg.png,Two Edge Diff,Three Edge Five Edge,5b09f4f1d282ff00015b536d
1759,827.3999999761581,shortestpath_phase,1211390,interleaved,GW/cornwall.png,49.0,GW/peoria.png,GW/boulder.png,0.0,0.6666666666666666,GW/boulder.png,Two Edge Diff,Three Edge Five Edge,5b09f4f1d282ff00015b536d
1761,908.5999999940396,shortestpath_phase,1213302,interleaved,GW/shreveport.png,50.0,GW/hanover.png,GW/huntsville.png,1.0,0.7,GW/huntsville.png,One Edge Diff,Four Edge Five Edge,5b09f4f1d282ff00015b536d
1763,1090.9000000059605,shortestpath_phase,1215397,interleaved,GW/gatlinburg.png,49.0,GW/westpalmbeach.png,GW/carmel.png,0.0,0.6363636363636364,GW/carmel.png,Three Edge Diff,Two Edge Five Edge,5b09f4f1d282ff00015b536d
1765,873.0,shortestpath_phase,1217275,interleaved,GW/shreveport.png,50.0,GW/hanover.png,GW/boulder.png,1.0,0.6666666666666666,GW/boulder.png,Three Edge Diff,Three Edge Six Edge,5b09f4f1d282ff00015b536d
1767,905.3000000119208,shortestpath_phase,1219184,interleaved,GW/cornwall.png,50.0,GW/hanover.png,GW/huntsville.png,1.0,0.6923076923076923,GW/huntsville.png,One Edge Diff,Five Edge Six Edge,5b09f4f1d282ff00015b536d
1769,590.5,shortestpath_phase,1220778,interleaved,GW/gatlinburg.png,49.0,GW/huntsville.png,GW/peoria.png,0.0,0.6428571428571429,GW/peoria.png,One Edge Diff,Three Edge Four Edge,5b09f4f1d282ff00015b536d
1771,413.199999988079,shortestpath_phase,1222195,interleaved,GW/huntsville.png,49.0,GW/newhope.png,GW/cornwall.png,1.0,0.6666666666666666,GW/newhope.png,Three Edge Diff,Three Edge Six Edge,5b09f4f1d282ff00015b536d
1773,395.7999999821186,shortestpath_phase,1223594,interleaved,GW/hanover.png,50.0,GW/boulder.png,GW/shreveport.png,0.0,0.625,GW/boulder.png,Two Edge Diff,Three Edge Five Edge,5b09f4f1d282ff00015b536d
1775,351.0,shortestpath_phase,1224948,interleaved,GW/racine.png,50.0,GW/westpalmbeach.png,GW/huntsville.png,1.0,0.6470588235294118,GW/huntsville.png,One Edge Diff,Five Edge Six Edge,5b09f4f1d282ff00015b536d
1777,418.10000002384186,shortestpath_phase,1226371,interleaved,GW/cornwall.png,49.0,GW/peoria.png,GW/carmel.png,0.0,0.6111111111111112,GW/carmel.png,One Edge Diff,Four Edge Five Edge,5b09f4f1d282ff00015b536d
1779,402.90000000596046,shortestpath_phase,1227778,interleaved,GW/hanover.png,49.0,GW/racine.png,GW/gatlinburg.png,0.0,0.5789473684210527,GW/gatlinburg.png,One Edge Diff,Four Edge Five Edge,5b09f4f1d282ff00015b536d
1781,484.0,shortestpath_phase,1229266,interleaved,GW/boulder.png,50.0,GW/leesburg.png,GW/hanover.png,0.0,0.55,GW/leesburg.png,One Edge Diff,Two Edge Three Edge,5b09f4f1d282ff00015b536d
1783,523.6999999880791,shortestpath_phase,1230794,interleaved,GW/cornwall.png,50.0,GW/gatlinburg.png,GW/westpalmbeach.png,0.0,0.5238095238095238,GW/gatlinburg.png,Four Edge Diff,Two Edge Six Edge,5b09f4f1d282ff00015b536d
1785,680.8000000119209,shortestpath_phase,1232479,interleaved,GW/racine.png,49.0,GW/boulder.png,GW/peoria.png,1.0,0.5454545454545454,GW/boulder.png,Two Edge Diff,Two Edge Four Edge,5b09f4f1d282ff00015b536d
1787,488.40000000596046,shortestpath_phase,1233973,interleaved,GW/hotsprings.png,49.0,GW/hanover.png,GW/leesburg.png,0.0,0.5217391304347826,GW/leesburg.png,Two Edge Diff,Two Edge Four Edge,5b09f4f1d282ff00015b536d
1789,563.6000000238419,shortestpath_phase,1235541,interleaved,GW/racine.png,50.0,GW/huntsville.png,GW/shreveport.png,1.0,0.5416666666666666,GW/shreveport.png,Three Edge Diff,Three Edge Six Edge,5b09f4f1d282ff00015b536d
1791,531.6000000238419,shortestpath_phase,1237075,interleaved,GW/gatlinburg.png,50.0,GW/carmel.png,GW/westpalmbeach.png,0.0,0.52,GW/carmel.png,Three Edge Diff,Three Edge Six Edge,5b09f4f1d282ff00015b536d
1793,642.3999999761581,shortestpath_phase,1238721,interleaved,GW/shreveport.png,49.0,GW/boulder.png,GW/huntsville.png,1.0,0.5384615384615384,GW/boulder.png,Two Edge Diff,Two Edge Four Edge,5b09f4f1d282ff00015b536d
1795,821.3000000119209,shortestpath_phase,1240546,interleaved,GW/cornwall.png,49.0,GW/hotsprings.png,GW/westpalmbeach.png,1.0,0.5555555555555556,GW/hotsprings.png,Four Edge Diff,Two Edge Six Edge,5b09f4f1d282ff00015b536d
1797,798.5,shortestpath_phase,1242349,interleaved,GW/racine.png,49.0,GW/shreveport.png,GW/hanover.png,1.0,0.5714285714285714,GW/shreveport.png,Three Edge Diff,Two Edge Five Edge,5b09f4f1d282ff00015b536d
1799,1058.699999988079,shortestpath_phase,1244411,interleaved,GW/hanover.png,49.0,GW/huntsville.png,GW/racine.png,1.0,0.5862068965517241,GW/huntsville.png,Three Edge Diff,Three Edge Six Edge,5b09f4f1d282ff00015b536d
1801,1814.199999988079,shortestpath_phase,1247229,interleaved,GW/shreveport.png,50.0,GW/newhope.png,GW/hanover.png,0.0,0.5666666666666667,GW/newhope.png,Three Edge Diff,Three Edge Six Edge,5b09f4f1d282ff00015b536d
1803,899.5,shortestpath_phase,1249133,interleaved,GW/boulder.png,49.0,GW/racine.png,GW/hanover.png,1.0,0.5806451612903226,GW/racine.png,One Edge Diff,Two Edge Three Edge,5b09f4f1d282ff00015b536d
1805,1483.600000023842,shortestpath_phase,1251620,interleaved,GW/westpalmbeach.png,49.0,GW/cornwall.png,GW/peoria.png,0.0,0.5625,GW/peoria.png,Four Edge Diff,Two Edge Six Edge,5b09f4f1d282ff00015b536d
1807,1753.5,shortestpath_phase,1254378,interleaved,GW/racine.png,49.0,GW/newhope.png,GW/huntsville.png,1.0,0.5757575757575758,GW/newhope.png,Two Edge Diff,Three Edge Five Edge,5b09f4f1d282ff00015b536d
1809,1093.800000011921,shortestpath_phase,1256476,interleaved,GW/cornwall.png,49.0,GW/westpalmbeach.png,GW/carmel.png,0.0,0.5588235294117647,GW/carmel.png,Two Edge Diff,Four Edge Six Edge,5b09f4f1d282ff00015b536d
1811,965.1999999880792,shortestpath_phase,1258444,interleaved,GW/racine.png,49.0,GW/westpalmbeach.png,GW/peoria.png,0.0,0.5428571428571428,GW/peoria.png,Two Edge Diff,Four Edge Six Edge,5b09f4f1d282ff00015b536d
1813,1482.0999999940395,shortestpath_phase,1260930,interleaved,GW/huntsville.png,49.0,GW/carmel.png,GW/cornwall.png,1.0,0.5555555555555556,GW/carmel.png,Three Edge Diff,Two Edge Five Edge,5b09f4f1d282ff00015b536d
1815,1994.899999976158,shortestpath_phase,1263929,interleaved,GW/racine.png,50.0,GW/boulder.png,GW/westpalmbeach.png,0.0,0.5405405405405406,GW/boulder.png,Four Edge Diff,Two Edge Six Edge,5b09f4f1d282ff00015b536d
1817,1232.5,shortestpath_phase,1266166,interleaved,GW/hanover.png,50.0,GW/racine.png,GW/carmel.png,1.0,0.5526315789473685,GW/carmel.png,Three Edge Diff,Three Edge Six Edge,5b09f4f1d282ff00015b536d
1819,1872.0999999940395,shortestpath_phase,1269043,interleaved,GW/gatlinburg.png,50.0,GW/hotsprings.png,GW/westpalmbeach.png,0.0,0.5384615384615384,GW/hotsprings.png,Three Edge Diff,Three Edge Six Edge,5b09f4f1d282ff00015b536d
1821,1032.5,shortestpath_phase,1271080,interleaved,GW/hanover.png,49.0,GW/racine.png,GW/leesburg.png,0.0,0.525,GW/leesburg.png,Three Edge Diff,Two Edge Five Edge,5b09f4f1d282ff00015b536d
1823,1123.5999999940395,shortestpath_phase,1273207,interleaved,GW/hotsprings.png,49.0,GW/hanover.png,GW/carmel.png,0.0,0.5121951219512195,GW/carmel.png,One Edge Diff,Three Edge Four Edge,5b09f4f1d282ff00015b536d
1825,1006.6999999880792,shortestpath_phase,1275218,interleaved,GW/gatlinburg.png,50.0,GW/hanover.png,GW/westpalmbeach.png,0.0,0.5,GW/hanover.png,One Edge Diff,Four Edge Five Edge,5b09f4f1d282ff00015b536d
1827,1752.5,shortestpath_phase,1277974,interleaved,GW/leesburg.png,49.0,GW/westpalmbeach.png,GW/cornwall.png,1.0,0.5116279069767442,GW/westpalmbeach.png,Two Edge Diff,Two Edge Four Edge,5b09f4f1d282ff00015b536d
1829,1316.5,shortestpath_phase,1280295,interleaved,GW/cornwall.png,49.0,GW/gatlinburg.png,GW/hanover.png,1.0,0.5227272727272727,GW/gatlinburg.png,Four Edge Diff,Two Edge Six Edge,5b09f4f1d282ff00015b536d
1831,994.4000000059604,shortestpath_phase,1282294,interleaved,GW/westpalmbeach.png,49.0,GW/cornwall.png,GW/leesburg.png,0.0,0.5111111111111111,GW/leesburg.png,Four Edge Diff,Two Edge Six Edge,5b09f4f1d282ff00015b536d
1833,260.30000001192093,shortestpath_phase,1283558,interleaved,GW/hanover.png,49.0,GW/boulder.png,GW/racine.png,1.0,0.5217391304347826,GW/boulder.png,Two Edge Diff,Three Edge Five Edge,5b09f4f1d282ff00015b536d
1836,3597.0,shortestpath_phase,1298161,interleaved,GW/cornwall.png,50.0,GW/peoria.png,GW/gatlinburg.png,1.0,0.5319148936170213,GW/gatlinburg.png,Three Edge Diff,Two Edge Five Edge,5b09f4f1d282ff00015b536d
1838,1171.5,shortestpath_phase,1300337,interleaved,GW/shreveport.png,49.0,GW/westpalmbeach.png,GW/boulder.png,0.0,0.5208333333333334,GW/boulder.png,Three Edge Diff,Three Edge Six Edge,5b09f4f1d282ff00015b536d
1840,1778.0,shortestpath_phase,1303119,interleaved,GW/racine.png,49.0,GW/carmel.png,GW/huntsville.png,1.0,0.5306122448979592,GW/carmel.png,Two Edge Diff,Three Edge Five Edge,5b09f4f1d282ff00015b536d
1842,914.7999999821186,shortestpath_phase,1305038,interleaved,GW/westpalmbeach.png,50.0,GW/shreveport.png,GW/racine.png,0.0,0.52,GW/shreveport.png,One Edge Diff,Five Edge Six Edge,5b09f4f1d282ff00015b536d
1844,1811.300000011921,shortestpath_phase,1307854,interleaved,GW/cornwall.png,50.0,GW/hanover.png,GW/leesburg.png,1.0,0.5294117647058824,GW/leesburg.png,Two Edge Diff,Four Edge Six Edge,5b09f4f1d282ff00015b536d
1846,1202.699999988079,shortestpath_phase,1310060,interleaved,GW/boulder.png,50.0,GW/westpalmbeach.png,GW/huntsville.png,1.0,0.5384615384615384,GW/huntsville.png,One Edge Diff,Three Edge Four Edge,5b09f4f1d282ff00015b536d
1848,2743.5,shortestpath_phase,1313808,interleaved,GW/hanover.png,49.0,GW/gatlinburg.png,GW/cornwall.png,1.0,0.5471698113207547,GW/gatlinburg.png,Two Edge Diff,Four Edge Six Edge,5b09f4f1d282ff00015b536d
1850,995.1999999880792,shortestpath_phase,1315808,interleaved,GW/racine.png,50.0,GW/shreveport.png,GW/westpalmbeach.png,0.0,0.5370370370370371,GW/shreveport.png,Four Edge Diff,Two Edge Six Edge,5b09f4f1d282ff00015b536d
1852,851.0999999940395,shortestpath_phase,1317662,interleaved,GW/huntsville.png,49.0,GW/hanover.png,GW/shreveport.png,1.0,0.5454545454545454,GW/hanover.png,Two Edge Diff,Two Edge Four Edge,5b09f4f1d282ff00015b536d
1854,1403.899999976158,shortestpath_phase,1320071,interleaved,GW/gatlinburg.png,49.0,GW/westpalmbeach.png,GW/hotsprings.png,0.0,0.5357142857142857,GW/hotsprings.png,Three Edge Diff,Two Edge Five Edge,5b09f4f1d282ff00015b536d
1856,915.4000000059604,shortestpath_phase,1321990,interleaved,GW/huntsville.png,49.0,GW/hanover.png,GW/cornwall.png,1.0,0.543859649122807,GW/hanover.png,Three Edge Diff,Two Edge Five Edge,5b09f4f1d282ff00015b536d
1858,1687.9000000059605,shortestpath_phase,1324681,interleaved,GW/racine.png,50.0,GW/peoria.png,GW/cornwall.png,1.0,0.5517241379310345,GW/cornwall.png,One Edge Diff,Three Edge Four Edge,5b09f4f1d282ff00015b536d
1860,1111.699999988079,shortestpath_phase,1326797,interleaved,GW/hanover.png,49.0,GW/newhope.png,GW/huntsville.png,0.0,0.5423728813559322,GW/huntsville.png,One Edge Diff,Two Edge Three Edge,5b09f4f1d282ff00015b536d
1862,2526.600000023842,shortestpath_phase,1330329,interleaved,GW/racine.png,50.0,GW/cornwall.png,GW/shreveport.png,1.0,0.55,GW/shreveport.png,One Edge Diff,Two Edge Three Edge,5b09f4f1d282ff00015b536d
1864,794.5999999940395,shortestpath_phase,1332127,interleaved,GW/hanover.png,49.0,GW/carmel.png,GW/shreveport.png,1.0,0.5573770491803278,GW/carmel.png,Three Edge Diff,Three Edge Six Edge,5b09f4f1d282ff00015b536d
1866,459.09999999403954,shortestpath_phase,1333590,interleaved,GW/westpalmbeach.png,50.0,GW/boulder.png,GW/cornwall.png,0.0,0.5483870967741935,GW/boulder.png,Two Edge Diff,Four Edge Six Edge,5b09f4f1d282ff00015b536d
1868,410.09999999403954,shortestpath_phase,1335005,interleaved,GW/shreveport.png,50.0,GW/leesburg.png,GW/huntsville.png,0.0,0.5396825396825397,GW/leesburg.png,One Edge Diff,Three Edge Four Edge,5b09f4f1d282ff00015b536d
1870,349.2000000178814,shortestpath_phase,1336358,interleaved,GW/peoria.png,49.0,GW/cornwall.png,GW/westpalmbeach.png,0.0,0.53125,GW/westpalmbeach.png,Three Edge Diff,Two Edge Five Edge,5b09f4f1d282ff00015b536d
1872,670.1999999880791,shortestpath_phase,1338032,interleaved,GW/shreveport.png,50.0,GW/westpalmbeach.png,GW/newhope.png,1.0,0.5384615384615384,GW/newhope.png,Three Edge Diff,Three Edge Six Edge,5b09f4f1d282ff00015b536d
1874,491.40000000596046,shortestpath_phase,1339527,interleaved,GW/westpalmbeach.png,49.0,GW/gatlinburg.png,GW/racine.png,1.0,0.5454545454545454,GW/gatlinburg.png,One Edge Diff,Five Edge Six Edge,5b09f4f1d282ff00015b536d
1876,748.1999999880791,shortestpath_phase,1341279,interleaved,GW/leesburg.png,49.0,GW/cornwall.png,GW/hanover.png,0.0,0.5373134328358209,GW/hanover.png,Two Edge Diff,Two Edge Four Edge,5b09f4f1d282ff00015b536d
1878,802.7000000178814,shortestpath_phase,1343086,interleaved,GW/huntsville.png,50.0,GW/racine.png,GW/newhope.png,1.0,0.5441176470588235,GW/newhope.png,Three Edge Diff,Two Edge Five Edge,5b09f4f1d282ff00015b536d
1880,950.0999999940396,shortestpath_phase,1345040,interleaved,GW/peoria.png,50.0,GW/cornwall.png,GW/westpalmbeach.png,1.0,0.5507246376811594,GW/westpalmbeach.png,Three Edge Diff,Three Edge Six Edge,5b09f4f1d282ff00015b536d
1882,1036.100000023842,shortestpath_phase,1347078,interleaved,GW/cornwall.png,49.0,GW/hanover.png,GW/carmel.png,0.0,0.5428571428571428,GW/carmel.png,Two Edge Diff,Four Edge Six Edge,5b09f4f1d282ff00015b536d
1884,954.6999999880792,shortestpath_phase,1349038,interleaved,GW/huntsville.png,49.0,GW/gatlinburg.png,GW/boulder.png,0.0,0.5352112676056338,GW/boulder.png,One Edge Diff,Three Edge Four Edge,5b09f4f1d282ff00015b536d
1886,624.5,shortestpath_phase,1350666,interleaved,GW/cornwall.png,50.0,GW/westpalmbeach.png,GW/peoria.png,1.0,0.5416666666666666,GW/peoria.png,One Edge Diff,Five Edge Six Edge,5b09f4f1d282ff00015b536d
1888,619.5,shortestpath_phase,1352288,interleaved,GW/hanover.png,50.0,GW/carmel.png,GW/hotsprings.png,0.0,0.5342465753424658,GW/carmel.png,Two Edge Diff,Two Edge Four Edge,5b09f4f1d282ff00015b536d
1890,655.7999999821186,shortestpath_phase,1353949,interleaved,GW/westpalmbeach.png,50.0,GW/peoria.png,GW/gatlinburg.png,0.0,0.527027027027027,GW/peoria.png,Three Edge Diff,Two Edge Five Edge,5b09f4f1d282ff00015b536d
1892,505.10000002384186,shortestpath_phase,1355459,interleaved,GW/hotsprings.png,49.0,GW/hanover.png,GW/boulder.png,0.0,0.52,GW/boulder.png,Two Edge Diff,Two Edge Four Edge,5b09f4f1d282ff00015b536d
1894,495.800000011921,shortestpath_phase,1356959,interleaved,GW/hanover.png,49.0,GW/cornwall.png,GW/huntsville.png,0.0,0.5131578947368421,GW/huntsville.png,Four Edge Diff,Two Edge Six Edge,5b09f4f1d282ff00015b536d
1896,747.5,shortestpath_phase,1358709,interleaved,GW/gatlinburg.png,50.0,GW/newhope.png,GW/westpalmbeach.png,0.0,0.5064935064935064,GW/newhope.png,Three Edge Diff,Two Edge Five Edge,5b09f4f1d282ff00015b536d
1898,1110.699999988079,shortestpath_phase,1360825,interleaved,GW/hanover.png,50.0,GW/cornwall.png,GW/carmel.png,1.0,0.5128205128205128,GW/carmel.png,Four Edge Diff,Two Edge Six Edge,5b09f4f1d282ff00015b536d
1900,983.5,shortestpath_phase,1362813,interleaved,GW/racine.png,49.0,GW/leesburg.png,GW/westpalmbeach.png,1.0,0.5189873417721519,GW/leesburg.png,Two Edge Diff,Four Edge Six Edge,5b09f4f1d282ff00015b536d
1902,942.6999999880792,shortestpath_phase,1364760,interleaved,GW/peoria.png,50.0,GW/gatlinburg.png,GW/cornwall.png,0.0,0.5125,GW/gatlinburg.png,Two Edge Diff,Three Edge Five Edge,5b09f4f1d282ff00015b536d
1904,432.90000000596046,shortestpath_phase,1366197,interleaved,GW/westpalmbeach.png,50.0,GW/leesburg.png,GW/racine.png,0.0,0.5061728395061729,GW/leesburg.png,Four Edge Diff,Two Edge Six Edge,5b09f4f1d282ff00015b536d
1906,661.0999999940395,shortestpath_phase,1367862,interleaved,GW/cornwall.png,50.0,GW/hotsprings.png,GW/hanover.png,0.0,0.5,GW/hotsprings.png,Four Edge Diff,Two Edge Six Edge,5b09f4f1d282ff00015b536d
1908,73.59999999403954,shortestpath_phase,1368939,interleaved,GW/westpalmbeach.png,49.0,GW/boulder.png,GW/racine.png,1.0,0.5060240963855421,GW/boulder.png,Two Edge Diff,Four Edge Six Edge,5b09f4f1d282ff00015b536d
1911,4655.5,shortestpath_phase,1384602,interleaved,GW/cornwall.png,50.0,GW/leesburg.png,GW/peoria.png,0.0,0.5,GW/leesburg.png,One Edge Diff,Four Edge Five Edge,5b09f4f1d282ff00015b536d
4677,5663.9000000059605,shortestpath_phase,1893205,interleaved,GW/carmel.png,50.0,GW/leesburg.png,GW/shreveport.png,0.0,0.0,GW/leesburg.png,One Edge Diff,Five Edge Six Edge,5e34325430e5263f0bebb32d
4679,3293.60000000149,shortestpath_phase,1897502,interleaved,GW/gatlinburg.png,49.0,GW/hotsprings.png,GW/boulder.png,1.0,0.5,GW/hotsprings.png,One Edge Diff,Two Edge Three Edge,5e34325430e5263f0bebb32d
4681,3381.9000000059605,shortestpath_phase,1901886,interleaved,GW/carmel.png,49.0,GW/hanover.png,GW/cornwall.png,1.0,0.6666666666666666,GW/hanover.png,Four Edge Diff,Two Edge Six Edge,5e34325430e5263f0bebb32d
4683,4101.69999999553,shortestpath_phase,1906991,interleaved,GW/cornwall.png,49.0,GW/carmel.png,GW/westpalmbeach.png,0.0,0.5,GW/westpalmbeach.png,Four Edge Diff,Two Edge Six Edge,5e34325430e5263f0bebb32d
4685,7247.0,shortestpath_phase,1915240,interleaved,GW/carmel.png,50.0,GW/cornwall.png,GW/boulder.png,1.0,0.6,GW/boulder.png,Two Edge Diff,Four Edge Six Edge,5e34325430e5263f0bebb32d
4687,5390.0,shortestpath_phase,1921633,interleaved,GW/cornwall.png,49.0,GW/huntsville.png,GW/westpalmbeach.png,0.0,0.5,GW/westpalmbeach.png,Three Edge Diff,Three Edge Six Edge,5e34325430e5263f0bebb32d
4689,5431.0,shortestpath_phase,1928066,interleaved,GW/shreveport.png,50.0,GW/gatlinburg.png,GW/boulder.png,1.0,0.5714285714285714,GW/boulder.png,Three Edge Diff,Three Edge Six Edge,5e34325430e5263f0bebb32d
4691,4759.0999999940395,shortestpath_phase,1933827,interleaved,GW/cornwall.png,50.0,GW/leesburg.png,GW/carmel.png,0.0,0.5,GW/leesburg.png,Four Edge Diff,Two Edge Six Edge,5e34325430e5263f0bebb32d
4693,3228.3000000044703,shortestpath_phase,1938059,interleaved,GW/shreveport.png,50.0,GW/racine.png,GW/carmel.png,0.0,0.4444444444444444,GW/racine.png,Four Edge Diff,Two Edge Six Edge,5e34325430e5263f0bebb32d
4695,2630.1999999955297,shortestpath_phase,1941691,interleaved,GW/hotsprings.png,49.0,GW/shreveport.png,GW/boulder.png,0.0,0.4,GW/boulder.png,Two Edge Diff,Two Edge Four Edge,5e34325430e5263f0bebb32d
4697,1551.0,shortestpath_phase,1944244,interleaved,GW/carmel.png,50.0,GW/racine.png,GW/hanover.png,1.0,0.4545454545454545,GW/hanover.png,Three Edge Diff,Two Edge Five Edge,5e34325430e5263f0bebb32d
4699,1845.0,shortestpath_phase,1947091,interleaved,GW/gatlinburg.png,49.0,GW/leesburg.png,GW/boulder.png,0.0,0.4166666666666667,GW/boulder.png,One Edge Diff,Three Edge Four Edge,5e34325430e5263f0bebb32d
4701,2198.89999999851,shortestpath_phase,1950292,interleaved,GW/carmel.png,49.0,GW/hotsprings.png,GW/shreveport.png,1.0,0.4615384615384615,GW/hotsprings.png,Four Edge Diff,Two Edge Six Edge,5e34325430e5263f0bebb32d
4703,2150.60000000149,shortestpath_phase,1953445,interleaved,GW/cornwall.png,50.0,GW/peoria.png,GW/huntsville.png,0.0,0.4285714285714285,GW/peoria.png,One Edge Diff,Four Edge Five Edge,5e34325430e5263f0bebb32d
4705,2614.29999999702,shortestpath_phase,1957061,interleaved,GW/shreveport.png,49.0,GW/boulder.png,GW/huntsville.png,1.0,0.4666666666666667,GW/boulder.png,Three Edge Diff,Three Edge Six Edge,5e34325430e5263f0bebb32d
4707,2278.0,shortestpath_phase,1960341,interleaved,GW/cornwall.png,49.0,GW/gatlinburg.png,GW/peoria.png,0.0,0.4375,GW/peoria.png,Two Edge Diff,Four Edge Six Edge,5e34325430e5263f0bebb32d
4709,2503.0,shortestpath_phase,1963846,interleaved,GW/leesburg.png,50.0,GW/hotsprings.png,GW/carmel.png,0.0,0.4117647058823529,GW/hotsprings.png,Two Edge Diff,Three Edge Five Edge,5e34325430e5263f0bebb32d
4711,2812.4000000059605,shortestpath_phase,1967662,interleaved,GW/cornwall.png,50.0,GW/boulder.png,GW/hanover.png,0.0,0.3888888888888889,GW/boulder.png,Two Edge Diff,Three Edge Five Edge,5e34325430e5263f0bebb32d
4713,3061.60000000149,shortestpath_phase,1971727,interleaved,GW/racine.png,50.0,GW/huntsville.png,GW/hotsprings.png,1.0,0.4210526315789473,GW/hotsprings.png,One Edge Diff,Three Edge Four Edge,5e34325430e5263f0bebb32d
4715,4470.39999999851,shortestpath_phase,1977199,interleaved,GW/cornwall.png,50.0,GW/huntsville.png,GW/gatlinburg.png,0.0,0.4,GW/huntsville.png,One Edge Diff,Five Edge Six Edge,5e34325430e5263f0bebb32d
4717,5222.5,shortestpath_phase,1983424,interleaved,GW/carmel.png,50.0,GW/cornwall.png,GW/hotsprings.png,1.0,0.4285714285714285,GW/hotsprings.png,Four Edge Diff,Two Edge Six Edge,5e34325430e5263f0bebb32d
4719,4582.70000000298,shortestpath_phase,1989009,interleaved,GW/hanover.png,49.0,GW/boulder.png,GW/cornwall.png,1.0,0.4545454545454545,GW/boulder.png,Three Edge Diff,Two Edge Five Edge,5e34325430e5263f0bebb32d
4721,4943.10000000149,shortestpath_phase,1994954,interleaved,GW/shreveport.png,50.0,GW/hanover.png,GW/racine.png,1.0,0.4782608695652174,GW/racine.png,Two Edge Diff,Two Edge Four Edge,5e34325430e5263f0bebb32d
4723,1998.70000000298,shortestpath_phase,1997954,interleaved,GW/cornwall.png,49.0,GW/carmel.png,GW/huntsville.png,0.0,0.4583333333333333,GW/huntsville.png,One Edge Diff,Five Edge Six Edge,5e34325430e5263f0bebb32d
4725,3397.20000000298,shortestpath_phase,2002355,interleaved,GW/shreveport.png,50.0,GW/huntsville.png,GW/newhope.png,1.0,0.48,GW/newhope.png,Two Edge Diff,Three Edge Five Edge,5e34325430e5263f0bebb32d
4727,4062.0,shortestpath_phase,2007419,interleaved,GW/carmel.png,50.0,GW/leesburg.png,GW/cornwall.png,0.0,0.4615384615384615,GW/leesburg.png,One Edge Diff,Five Edge Six Edge,5e34325430e5263f0bebb32d
4729,4326.5,shortestpath_phase,2012748,interleaved,GW/cornwall.png,50.0,GW/hotsprings.png,GW/hanover.png,0.0,0.4444444444444444,GW/hotsprings.png,One Edge Diff,Four Edge Five Edge,5e34325430e5263f0bebb32d
4731,1453.89999999851,shortestpath_phase,2015204,interleaved,GW/hanover.png,49.0,GW/cornwall.png,GW/carmel.png,0.0,0.4285714285714285,GW/carmel.png,Three Edge Diff,Two Edge Five Edge,5e34325430e5263f0bebb32d
4733,3406.1999999955297,shortestpath_phase,2019613,interleaved,GW/hotsprings.png,50.0,GW/westpalmbeach.png,GW/cornwall.png,0.0,0.4137931034482758,GW/westpalmbeach.png,Two Edge Diff,Two Edge Four Edge,5e34325430e5263f0bebb32d
4735,2126.20000000298,shortestpath_phase,2022741,interleaved,GW/shreveport.png,50.0,GW/boulder.png,GW/carmel.png,0.0,0.4,GW/boulder.png,Four Edge Diff,Two Edge Six Edge,5e34325430e5263f0bebb32d
4737,3430.8000000044703,shortestpath_phase,2027173,interleaved,GW/leesburg.png,49.0,GW/gatlinburg.png,GW/peoria.png,0.0,0.3870967741935484,GW/peoria.png,Two Edge Diff,Two Edge Four Edge,5e34325430e5263f0bebb32d
4739,2814.1999999955297,shortestpath_phase,2030990,interleaved,GW/racine.png,50.0,GW/carmel.png,GW/hanover.png,1.0,0.40625,GW/hanover.png,One Edge Diff,Four Edge Five Edge,5e34325430e5263f0bebb32d
4741,1958.39999999851,shortestpath_phase,2033950,interleaved,GW/leesburg.png,49.0,GW/carmel.png,GW/peoria.png,0.0,0.3939393939393939,GW/peoria.png,Three Edge Diff,Three Edge Six Edge,5e34325430e5263f0bebb32d
4743,1822.89999999851,shortestpath_phase,2036775,interleaved,GW/cornwall.png,50.0,GW/peoria.png,GW/boulder.png,1.0,0.4117647058823529,GW/boulder.png,One Edge Diff,Three Edge Four Edge,5e34325430e5263f0bebb32d
4745,1982.10000000149,shortestpath_phase,2039759,interleaved,GW/gatlinburg.png,50.0,GW/peoria.png,GW/boulder.png,0.0,0.4,GW/peoria.png,One Edge Diff,Two Edge Three Edge,5e34325430e5263f0bebb32d
4747,2726.0999999940395,shortestpath_phase,2043488,interleaved,GW/shreveport.png,50.0,GW/hotsprings.png,GW/boulder.png,1.0,0.4166666666666667,GW/boulder.png,Two Edge Diff,Two Edge Four Edge,5e34325430e5263f0bebb32d
4749,4933.89999999851,shortestpath_phase,2049424,interleaved,GW/leesburg.png,50.0,GW/carmel.png,GW/cornwall.png,1.0,0.4324324324324324,GW/cornwall.png,Three Edge Diff,Three Edge Six Edge,5e34325430e5263f0bebb32d
4751,1334.60000000149,shortestpath_phase,2051761,interleaved,GW/gatlinburg.png,50.0,GW/hotsprings.png,GW/cornwall.png,0.0,0.4210526315789473,GW/hotsprings.png,Four Edge Diff,Two Edge Six Edge,5e34325430e5263f0bebb32d
4753,3653.10000000149,shortestpath_phase,2056417,interleaved,GW/shreveport.png,50.0,GW/huntsville.png,GW/cornwall.png,1.0,0.4358974358974359,GW/cornwall.png,Two Edge Diff,Three Edge Five Edge,5e34325430e5263f0bebb32d
4755,917.39999999851,shortestpath_phase,2058337,interleaved,GW/gatlinburg.png,49.0,GW/cornwall.png,GW/leesburg.png,0.0,0.425,GW/leesburg.png,Two Edge Diff,Four Edge Six Edge,5e34325430e5263f0bebb32d
4757,1101.6999999955297,shortestpath_phase,2060441,interleaved,GW/cornwall.png,49.0,GW/westpalmbeach.png,GW/huntsville.png,1.0,0.4390243902439024,GW/westpalmbeach.png,Three Edge Diff,Two Edge Five Edge,5e34325430e5263f0bebb32d
4759,4623.5,shortestpath_phase,2066066,interleaved,GW/racine.png,49.0,GW/shreveport.png,GW/carmel.png,1.0,0.4523809523809524,GW/shreveport.png,Three Edge Diff,Three Edge Six Edge,5e34325430e5263f0bebb32d
4761,1197.2999999970198,shortestpath_phase,2068267,interleaved,GW/cornwall.png,49.0,GW/gatlinburg.png,GW/leesburg.png,0.0,0.4418604651162791,GW/leesburg.png,Four Edge Diff,Two Edge Six Edge,5e34325430e5263f0bebb32d
4763,3950.60000000149,shortestpath_phase,2073219,interleaved,GW/huntsville.png,50.0,GW/shreveport.png,GW/gatlinburg.png,1.0,0.4545454545454545,GW/gatlinburg.png,Three Edge Diff,Two Edge Five Edge,5e34325430e5263f0bebb32d
4765,2013.8000000044703,shortestpath_phase,2076235,interleaved,GW/westpalmbeach.png,50.0,GW/gatlinburg.png,GW/cornwall.png,1.0,0.4666666666666667,GW/cornwall.png,Two Edge Diff,Two Edge Four Edge,5e34325430e5263f0bebb32d
4767,2062.0,shortestpath_phase,2079300,interleaved,GW/racine.png,49.0,GW/carmel.png,GW/huntsville.png,0.0,0.4565217391304347,GW/huntsville.png,One Edge Diff,Four Edge Five Edge,5e34325430e5263f0bebb32d
4769,1694.1999999955297,shortestpath_phase,2081996,interleaved,GW/cornwall.png,50.0,GW/westpalmbeach.png,GW/gatlinburg.png,0.0,0.4468085106382978,GW/westpalmbeach.png,Four Edge Diff,Two Edge Six Edge,5e34325430e5263f0bebb32d
4771,1957.8000000044703,shortestpath_phase,2084956,interleaved,GW/shreveport.png,50.0,GW/hanover.png,GW/carmel.png,0.0,0.4375,GW/hanover.png,Two Edge Diff,Four Edge Six Edge,5e34325430e5263f0bebb32d
4773,1133.9000000059605,shortestpath_phase,2087092,interleaved,GW/gatlinburg.png,49.0,GW/cornwall.png,GW/peoria.png,0.0,0.4285714285714285,GW/peoria.png,Four Edge Diff,Two Edge Six Edge,5e34325430e5263f0bebb32d
4775,2166.10000000149,shortestpath_phase,2090261,interleaved,GW/carmel.png,49.0,GW/racine.png,GW/hotsprings.png,0.0,0.42,GW/hotsprings.png,Three Edge Diff,Three Edge Six Edge,5e34325430e5263f0bebb32d
4777,1261.39999999851,shortestpath_phase,2092525,interleaved,GW/newhope.png,49.0,GW/peoria.png,GW/cornwall.png,1.0,0.4313725490196078,GW/peoria.png,One Edge Diff,Two Edge Three Edge,5e34325430e5263f0bebb32d
4779,1309.60000000149,shortestpath_phase,2094838,interleaved,GW/cornwall.png,49.0,GW/gatlinburg.png,GW/hotsprings.png,0.0,0.4230769230769231,GW/hotsprings.png,Two Edge Diff,Four Edge Six Edge,5e34325430e5263f0bebb32d
4781,2845.9000000059605,shortestpath_phase,2098686,interleaved,GW/carmel.png,50.0,GW/hanover.png,GW/leesburg.png,0.0,0.4150943396226415,GW/hanover.png,Three Edge Diff,Three Edge Six Edge,5e34325430e5263f0bebb32d
4783,1341.60000000149,shortestpath_phase,2101030,interleaved,GW/shreveport.png,50.0,GW/huntsville.png,GW/carmel.png,0.0,0.4074074074074074,GW/huntsville.png,One Edge Diff,Five Edge Six Edge,5e34325430e5263f0bebb32d
4785,2246.5,shortestpath_phase,2104279,interleaved,GW/hanover.png,50.0,GW/cornwall.png,GW/racine.png,1.0,0.4181818181818181,GW/racine.png,One Edge Diff,Four Edge Five Edge,5e34325430e5263f0bebb32d
4787,4158.20000000298,shortestpath_phase,2109439,interleaved,GW/carmel.png,49.0,GW/racine.png,GW/westpalmbeach.png,0.0,0.4107142857142857,GW/westpalmbeach.png,One Edge Diff,Four Edge Five Edge,5e34325430e5263f0bebb32d
4789,2029.5,shortestpath_phase,2112472,interleaved,GW/shreveport.png,50.0,GW/gatlinburg.png,GW/boulder.png,1.0,0.4210526315789473,GW/boulder.png,Three Edge Diff,Two Edge Five Edge,5e34325430e5263f0bebb32d
4791,3278.5,shortestpath_phase,2116752,interleaved,GW/hanover.png,50.0,GW/newhope.png,GW/cornwall.png,0.0,0.4137931034482758,GW/newhope.png,Three Edge Diff,Two Edge Five Edge,5e34325430e5263f0bebb32d
4793,1805.20000000298,shortestpath_phase,2119560,interleaved,GW/huntsville.png,50.0,GW/shreveport.png,GW/peoria.png,1.0,0.423728813559322,GW/peoria.png,Three Edge Diff,Three Edge Six Edge,5e34325430e5263f0bebb32d
4795,3870.70000000298,shortestpath_phase,2124433,interleaved,GW/cornwall.png,50.0,GW/newhope.png,GW/huntsville.png,0.0,0.4166666666666667,GW/newhope.png,Two Edge Diff,Three Edge Five Edge,5e34325430e5263f0bebb32d
4797,1735.2999999970198,shortestpath_phase,2127170,interleaved,GW/racine.png,49.0,GW/carmel.png,GW/boulder.png,0.0,0.4098360655737705,GW/boulder.png,Three Edge Diff,Three Edge Six Edge,5e34325430e5263f0bebb32d
4799,1837.5,shortestpath_phase,2130010,interleaved,GW/gatlinburg.png,50.0,GW/newhope.png,GW/racine.png,0.0,0.4032258064516129,GW/newhope.png,Two Edge Diff,Three Edge Five Edge,5e34325430e5263f0bebb32d
4801,3367.29999999702,shortestpath_phase,2134379,interleaved,GW/carmel.png,50.0,GW/leesburg.png,GW/peoria.png,1.0,0.4126984126984127,GW/peoria.png,Two Edge Diff,Three Edge Five Edge,5e34325430e5263f0bebb32d
4803,1605.8000000044703,shortestpath_phase,2136987,interleaved,GW/gatlinburg.png,50.0,GW/huntsville.png,GW/cornwall.png,0.0,0.40625,GW/huntsville.png,Four Edge Diff,Two Edge Six Edge,5e34325430e5263f0bebb32d
4805,2589.20000000298,shortestpath_phase,2140579,interleaved,GW/leesburg.png,49.0,GW/hotsprings.png,GW/huntsville.png,1.0,0.4153846153846154,GW/hotsprings.png,One Edge Diff,Three Edge Four Edge,5e34325430e5263f0bebb32d
4807,1854.29999999702,shortestpath_phase,2143435,interleaved,GW/gatlinburg.png,49.0,GW/racine.png,GW/peoria.png,0.0,0.4090909090909091,GW/peoria.png,Three Edge Diff,Two Edge Five Edge,5e34325430e5263f0bebb32d
4809,2517.20000000298,shortestpath_phase,2146955,interleaved,GW/racine.png,50.0,GW/newhope.png,GW/gatlinburg.png,0.0,0.4029850746268656,GW/newhope.png,Three Edge Diff,Three Edge Six Edge,5e34325430e5263f0bebb32d
4811,1765.8000000044703,shortestpath_phase,2149724,interleaved,GW/gatlinburg.png,49.0,GW/cornwall.png,GW/westpalmbeach.png,0.0,0.3970588235294117,GW/westpalmbeach.png,Two Edge Diff,Four Edge Six Edge,5e34325430e5263f0bebb32d
4813,1686.5,shortestpath_phase,2152413,interleaved,GW/shreveport.png,49.0,GW/westpalmbeach.png,GW/boulder.png,0.0,0.391304347826087,GW/boulder.png,One Edge Diff,Two Edge Three Edge,5e34325430e5263f0bebb32d
4815,3484.60000000149,shortestpath_phase,2156901,interleaved,GW/leesburg.png,49.0,GW/gatlinburg.png,GW/westpalmbeach.png,0.0,0.3857142857142857,GW/westpalmbeach.png,Two Edge Diff,Two Edge Four Edge,5e34325430e5263f0bebb32d
4817,3214.5,shortestpath_phase,2161118,interleaved,GW/gatlinburg.png,50.0,GW/shreveport.png,GW/hotsprings.png,1.0,0.3943661971830985,GW/hotsprings.png,Three Edge Diff,Two Edge Five Edge,5e34325430e5263f0bebb32d
4819,2925.6999999955297,shortestpath_phase,2165046,interleaved,GW/racine.png,49.0,GW/gatlinburg.png,GW/boulder.png,0.0,0.3888888888888889,GW/boulder.png,Three Edge Diff,Two Edge Five Edge,5e34325430e5263f0bebb32d
4821,3630.70000000298,shortestpath_phase,2169679,interleaved,GW/westpalmbeach.png,50.0,GW/shreveport.png,GW/carmel.png,0.0,0.3835616438356164,GW/shreveport.png,One Edge Diff,Three Edge Four Edge,5e34325430e5263f0bebb32d
4823,2414.5,shortestpath_phase,2173095,interleaved,GW/newhope.png,50.0,GW/racine.png,GW/shreveport.png,0.0,0.3783783783783784,GW/racine.png,One Edge Diff,Two Edge Three Edge,5e34325430e5263f0bebb32d
4825,2182.29999999702,shortestpath_phase,2176280,interleaved,GW/peoria.png,50.0,GW/gatlinburg.png,GW/shreveport.png,0.0,0.3733333333333333,GW/gatlinburg.png,One Edge Diff,Two Edge Three Edge,5e34325430e5263f0bebb32d
4827,2918.0,shortestpath_phase,2180200,interleaved,GW/shreveport.png,50.0,GW/racine.png,GW/gatlinburg.png,0.0,0.3684210526315789,GW/racine.png,Three Edge Diff,Two Edge Five Edge,5e34325430e5263f0bebb32d
4829,1349.0,shortestpath_phase,2182552,interleaved,GW/huntsville.png,49.0,GW/newhope.png,GW/racine.png,1.0,0.3766233766233766,GW/newhope.png,Two Edge Diff,Two Edge Four Edge,5e34325430e5263f0bebb32d
4831,1406.5,shortestpath_phase,2184960,interleaved,GW/cornwall.png,50.0,GW/peoria.png,GW/carmel.png,0.0,0.3717948717948718,GW/peoria.png,Two Edge Diff,Four Edge Six Edge,5e34325430e5263f0bebb32d
4833,1174.60000000149,shortestpath_phase,2187137,interleaved,GW/shreveport.png,49.0,GW/gatlinburg.png,GW/newhope.png,0.0,0.3670886075949367,GW/newhope.png,Two Edge Diff,Three Edge Five Edge,5e34325430e5263f0bebb32d
4835,885.3999999985099,shortestpath_phase,2189025,interleaved,GW/cornwall.png,49.0,GW/gatlinburg.png,GW/hanover.png,0.0,0.3625,GW/hanover.png,One Edge Diff,Five Edge Six Edge,5e34325430e5263f0bebb32d
4837,1325.2000000029802,shortestpath_phase,2191353,interleaved,GW/huntsville.png,50.0,GW/cornwall.png,GW/peoria.png,1.0,0.3703703703703703,GW/peoria.png,Three Edge Diff,Two Edge Five Edge,5e34325430e5263f0bebb32d
4839,1438.7000000029802,shortestpath_phase,2193794,interleaved,GW/carmel.png,49.0,GW/westpalmbeach.png,GW/newhope.png,0.0,0.3658536585365853,GW/newhope.png,One Edge Diff,Three Edge Four Edge,5e34325430e5263f0bebb32d
4841,1149.0,shortestpath_phase,2195946,interleaved,GW/gatlinburg.png,50.0,GW/peoria.png,GW/racine.png,0.0,0.3614457831325301,GW/peoria.png,Three Edge Diff,Three Edge Six Edge,5e34325430e5263f0bebb32d
4843,1270.10000000149,shortestpath_phase,2198218,interleaved,GW/carmel.png,49.0,GW/westpalmbeach.png,GW/shreveport.png,1.0,0.369047619047619,GW/westpalmbeach.png,Two Edge Diff,Four Edge Six Edge,5e34325430e5263f0bebb32d
5652,4470.4000000059605,shortestpath_phase,1501945,interleaved,GW/boulder.png,50.0,GW/gatlinburg.png,GW/westpalmbeach.png,1.0,1.0,GW/westpalmbeach.png,Two Edge Diff,Four Edge Six Edge,661045b87d3e3a9bda51b367
5654,4384.5,shortestpath_phase,1507340,interleaved,GW/cornwall.png,49.0,GW/hanover.png,GW/boulder.png,1.0,1.0,GW/hanover.png,One Edge Diff,Two Edge Three Edge,661045b87d3e3a9bda51b367
5656,4663.399999991059,shortestpath_phase,1513012,interleaved,GW/huntsville.png,50.0,GW/shreveport.png,GW/westpalmbeach.png,1.0,1.0,GW/westpalmbeach.png,Two Edge Diff,Three Edge Five Edge,661045b87d3e3a9bda51b367
5658,4180.600000008941,shortestpath_phase,1518201,interleaved,GW/boulder.png,49.0,GW/shreveport.png,GW/hotsprings.png,0.0,0.75,GW/hotsprings.png,One Edge Diff,Five Edge Six Edge,661045b87d3e3a9bda51b367
5660,4229.9000000059605,shortestpath_phase,1523439,interleaved,GW/newhope.png,49.0,GW/westpalmbeach.png,GW/gatlinburg.png,1.0,0.8,GW/westpalmbeach.png,Three Edge Diff,Two Edge Five Edge,661045b87d3e3a9bda51b367
5662,3988.0,shortestpath_phase,1528435,interleaved,GW/leesburg.png,49.0,GW/boulder.png,GW/shreveport.png,1.0,0.8333333333333334,GW/boulder.png,Two Edge Diff,Two Edge Four Edge,661045b87d3e3a9bda51b367
5664,3629.900000005961,shortestpath_phase,1533072,interleaved,GW/gatlinburg.png,50.0,GW/huntsville.png,GW/racine.png,1.0,0.8571428571428571,GW/racine.png,Two Edge Diff,Three Edge Five Edge,661045b87d3e3a9bda51b367
5666,3810.900000005961,shortestpath_phase,1537892,interleaved,GW/westpalmbeach.png,50.0,GW/huntsville.png,GW/shreveport.png,1.0,0.875,GW/shreveport.png,One Edge Diff,Two Edge Three Edge,661045b87d3e3a9bda51b367
5668,3174.79999999702,shortestpath_phase,1542076,interleaved,GW/huntsville.png,49.0,GW/cornwall.png,GW/gatlinburg.png,1.0,0.8888888888888888,GW/cornwall.png,Three Edge Diff,Two Edge Five Edge,661045b87d3e3a9bda51b367
5670,3217.9000000059605,shortestpath_phase,1546303,interleaved,GW/peoria.png,50.0,GW/carmel.png,GW/leesburg.png,1.0,0.9,GW/leesburg.png,One Edge Diff,Three Edge Four Edge,661045b87d3e3a9bda51b367
5672,5417.0,shortestpath_phase,1552728,interleaved,GW/gatlinburg.png,49.0,GW/leesburg.png,GW/shreveport.png,0.0,0.8181818181818182,GW/shreveport.png,One Edge Diff,Three Edge Four Edge,661045b87d3e3a9bda51b367
5674,3301.79999999702,shortestpath_phase,1557037,interleaved,GW/peoria.png,49.0,GW/cornwall.png,GW/shreveport.png,1.0,0.8333333333333334,GW/cornwall.png,Three Edge Diff,Two Edge Five Edge,661045b87d3e3a9bda51b367
5676,4942.29999999702,shortestpath_phase,1562986,interleaved,GW/hotsprings.png,50.0,GW/cornwall.png,GW/racine.png,1.0,0.8461538461538461,GW/racine.png,One Edge Diff,Two Edge Three Edge,661045b87d3e3a9bda51b367
5678,3951.300000011921,shortestpath_phase,1567945,interleaved,GW/peoria.png,50.0,GW/gatlinburg.png,GW/cornwall.png,1.0,0.8571428571428571,GW/cornwall.png,Four Edge Diff,Two Edge Six Edge,661045b87d3e3a9bda51b367
5680,5033.29999999702,shortestpath_phase,1573986,interleaved,GW/boulder.png,49.0,GW/hotsprings.png,GW/racine.png,0.0,0.8,GW/racine.png,Two Edge Diff,Three Edge Five Edge,661045b87d3e3a9bda51b367
5682,2928.5999999940395,shortestpath_phase,1577924,interleaved,GW/peoria.png,49.0,GW/huntsville.png,GW/gatlinburg.png,1.0,0.8125,GW/huntsville.png,Four Edge Diff,Two Edge Six Edge,661045b87d3e3a9bda51b367
5684,3899.5,shortestpath_phase,1582832,interleaved,GW/carmel.png,50.0,GW/newhope.png,GW/racine.png,1.0,0.8235294117647058,GW/racine.png,One Edge Diff,Two Edge Three Edge,661045b87d3e3a9bda51b367
5686,4214.4000000059605,shortestpath_phase,1588055,interleaved,GW/boulder.png,50.0,GW/newhope.png,GW/hotsprings.png,0.0,0.7777777777777778,GW/newhope.png,Three Edge Diff,Two Edge Five Edge,661045b87d3e3a9bda51b367
5688,3715.1000000089407,shortestpath_phase,1592778,interleaved,GW/huntsville.png,50.0,GW/racine.png,GW/hotsprings.png,0.0,0.7368421052631579,GW/racine.png,Two Edge Diff,Two Edge Four Edge,661045b87d3e3a9bda51b367
5690,2798.5,shortestpath_phase,1596585,interleaved,GW/shreveport.png,49.0,GW/hanover.png,GW/boulder.png,1.0,0.75,GW/hanover.png,Four Edge Diff,Two Edge Six Edge,661045b87d3e3a9bda51b367
5692,2576.300000011921,shortestpath_phase,1600170,interleaved,GW/gatlinburg.png,49.0,GW/newhope.png,GW/peoria.png,1.0,0.7619047619047619,GW/newhope.png,One Edge Diff,Five Edge Six Edge,661045b87d3e3a9bda51b367
5694,4070.70000000298,shortestpath_phase,1605249,interleaved,GW/shreveport.png,49.0,GW/leesburg.png,GW/huntsville.png,1.0,0.7727272727272727,GW/leesburg.png,One Edge Diff,Four Edge Five Edge,661045b87d3e3a9bda51b367
5696,5179.0,shortestpath_phase,1611438,interleaved,GW/newhope.png,49.0,GW/gatlinburg.png,GW/boulder.png,0.0,0.7391304347826086,GW/boulder.png,Three Edge Diff,Three Edge Six Edge,661045b87d3e3a9bda51b367
5698,2079.5,shortestpath_phase,1614526,interleaved,GW/gatlinburg.png,49.0,GW/hanover.png,GW/peoria.png,1.0,0.75,GW/hanover.png,Four Edge Diff,Two Edge Six Edge,661045b87d3e3a9bda51b367
5700,4137.0999999940395,shortestpath_phase,1619670,interleaved,GW/boulder.png,50.0,GW/hotsprings.png,GW/gatlinburg.png,0.0,0.72,GW/hotsprings.png,One Edge Diff,Five Edge Six Edge,661045b87d3e3a9bda51b367
5702,4093.099999994039,shortestpath_phase,1624773,interleaved,GW/newhope.png,50.0,GW/gatlinburg.png,GW/racine.png,1.0,0.7307692307692307,GW/racine.png,Three Edge Diff,Three Edge Six Edge,661045b87d3e3a9bda51b367
5704,4737.29999999702,shortestpath_phase,1630520,interleaved,GW/gatlinburg.png,49.0,GW/westpalmbeach.png,GW/huntsville.png,1.0,0.7407407407407407,GW/westpalmbeach.png,Two Edge Diff,Three Edge Five Edge,661045b87d3e3a9bda51b367
5706,3117.0,shortestpath_phase,1634645,interleaved,GW/shreveport.png,50.0,GW/leesburg.png,GW/hanover.png,1.0,0.75,GW/hanover.png,Two Edge Diff,Two Edge Four Edge,661045b87d3e3a9bda51b367
5708,5331.5,shortestpath_phase,1640986,interleaved,GW/leesburg.png,50.0,GW/gatlinburg.png,GW/westpalmbeach.png,1.0,0.7586206896551724,GW/westpalmbeach.png,One Edge Diff,Three Edge Four Edge,661045b87d3e3a9bda51b367
5710,6319.79999999702,shortestpath_phase,1648313,interleaved,GW/gatlinburg.png,50.0,GW/boulder.png,GW/cornwall.png,1.0,0.7666666666666667,GW/cornwall.png,Two Edge Diff,Four Edge Six Edge,661045b87d3e3a9bda51b367
5712,4703.79999999702,shortestpath_phase,1654026,interleaved,GW/huntsville.png,50.0,GW/shreveport.png,GW/carmel.png,1.0,0.7741935483870968,GW/carmel.png,One Edge Diff,Four Edge Five Edge,661045b87d3e3a9bda51b367
5714,4659.4000000059605,shortestpath_phase,1659693,interleaved,GW/gatlinburg.png,49.0,GW/boulder.png,GW/newhope.png,0.0,0.75,GW/newhope.png,One Edge Diff,Five Edge Six Edge,661045b87d3e3a9bda51b367
5716,7300.5,shortestpath_phase,1668001,interleaved,GW/boulder.png,50.0,GW/carmel.png,GW/leesburg.png,1.0,0.7575757575757576,GW/leesburg.png,Three Edge Diff,Two Edge Five Edge,661045b87d3e3a9bda51b367
5718,4058.8999999910593,shortestpath_phase,1673069,interleaved,GW/gatlinburg.png,50.0,GW/carmel.png,GW/newhope.png,0.0,0.7352941176470589,GW/carmel.png,Three Edge Diff,Three Edge Six Edge,661045b87d3e3a9bda51b367
5720,2697.79999999702,shortestpath_phase,1676776,interleaved,GW/newhope.png,50.0,GW/boulder.png,GW/gatlinburg.png,0.0,0.7142857142857143,GW/boulder.png,Three Edge Diff,Two Edge Five Edge,661045b87d3e3a9bda51b367
5722,3707.6000000089407,shortestpath_phase,1681492,interleaved,GW/shreveport.png,50.0,GW/boulder.png,GW/westpalmbeach.png,1.0,0.7222222222222222,GW/westpalmbeach.png,Four Edge Diff,Two Edge Six Edge,661045b87d3e3a9bda51b367
5724,2808.5,shortestpath_phase,1685310,interleaved,GW/newhope.png,50.0,GW/leesburg.png,GW/gatlinburg.png,0.0,0.7027027027027027,GW/leesburg.png,Three Edge Diff,Two Edge Five Edge,661045b87d3e3a9bda51b367
5726,4438.100000008941,shortestpath_phase,1690757,interleaved,GW/hotsprings.png,49.0,GW/boulder.png,GW/huntsville.png,0.0,0.6842105263157895,GW/huntsville.png,One Edge Diff,Four Edge Five Edge,661045b87d3e3a9bda51b367
5728,6282.5,shortestpath_phase,1698049,interleaved,GW/boulder.png,49.0,GW/newhope.png,GW/gatlinburg.png,1.0,0.6923076923076923,GW/newhope.png,Four Edge Diff,Two Edge Six Edge,661045b87d3e3a9bda51b367
5730,3868.8999999910593,shortestpath_phase,1702928,interleaved,GW/gatlinburg.png,50.0,GW/leesburg.png,GW/hanover.png,1.0,0.7,GW/hanover.png,Two Edge Diff,Two Edge Four Edge,661045b87d3e3a9bda51b367
5732,5375.20000000298,shortestpath_phase,1709312,interleaved,GW/shreveport.png,50.0,GW/newhope.png,GW/boulder.png,0.0,0.6829268292682927,GW/newhope.png,Two Edge Diff,Four Edge Six Edge,661045b87d3e3a9bda51b367
5734,4166.79999999702,shortestpath_phase,1714487,interleaved,GW/boulder.png,49.0,GW/hotsprings.png,GW/westpalmbeach.png,0.0,0.6666666666666666,GW/westpalmbeach.png,One Edge Diff,Four Edge Five Edge,661045b87d3e3a9bda51b367
5736,5051.5,shortestpath_phase,1720547,interleaved,GW/gatlinburg.png,49.0,GW/peoria.png,GW/carmel.png,0.0,0.6511627906976745,GW/carmel.png,Four Edge Diff,Two Edge Six Edge,661045b87d3e3a9bda51b367
5738,2361.4000000059605,shortestpath_phase,1723917,interleaved,GW/shreveport.png,50.0,GW/peoria.png,GW/hanover.png,1.0,0.6590909090909091,GW/hanover.png,Three Edge Diff,Two Edge Five Edge,661045b87d3e3a9bda51b367
5740,2246.29999999702,shortestpath_phase,1727171,interleaved,GW/hotsprings.png,50.0,GW/peoria.png,GW/westpalmbeach.png,1.0,0.6666666666666666,GW/westpalmbeach.png,Three Edge Diff,Two Edge Five Edge,661045b87d3e3a9bda51b367
5742,4133.9000000059605,shortestpath_phase,1732314,interleaved,GW/newhope.png,49.0,GW/gatlinburg.png,GW/shreveport.png,0.0,0.6521739130434783,GW/shreveport.png,One Edge Diff,Four Edge Five Edge,661045b87d3e3a9bda51b367
5744,4130.0999999940395,shortestpath_phase,1737453,interleaved,GW/cornwall.png,50.0,GW/gatlinburg.png,GW/peoria.png,1.0,0.6595744680851063,GW/peoria.png,Two Edge Diff,Two Edge Four Edge,661045b87d3e3a9bda51b367
5746,3356.79999999702,shortestpath_phase,1741819,interleaved,GW/huntsville.png,49.0,GW/hanover.png,GW/hotsprings.png,1.0,0.6666666666666666,GW/hanover.png,One Edge Diff,Three Edge Four Edge,661045b87d3e3a9bda51b367
5748,2914.6000000089407,shortestpath_phase,1745742,interleaved,GW/newhope.png,50.0,GW/hotsprings.png,GW/gatlinburg.png,0.0,0.6530612244897959,GW/hotsprings.png,One Edge Diff,Four Edge Five Edge,661045b87d3e3a9bda51b367
5750,2698.0,shortestpath_phase,1749451,interleaved,GW/gatlinburg.png,50.0,GW/boulder.png,GW/hanover.png,1.0,0.66,GW/hanover.png,Four Edge Diff,Two Edge Six Edge,661045b87d3e3a9bda51b367
5752,2499.70000000298,shortestpath_phase,1752959,interleaved,GW/huntsville.png,50.0,GW/carmel.png,GW/racine.png,1.0,0.6666666666666666,GW/racine.png,Two Edge Diff,Two Edge Four Edge,661045b87d3e3a9bda51b367
5754,3144.3999999910593,shortestpath_phase,1757113,interleaved,GW/hotsprings.png,50.0,GW/peoria.png,GW/westpalmbeach.png,1.0,0.6730769230769231,GW/westpalmbeach.png,Three Edge Diff,Three Edge Six Edge,661045b87d3e3a9bda51b367
5756,4411.20000000298,shortestpath_phase,1762533,interleaved,GW/peoria.png,50.0,GW/shreveport.png,GW/huntsville.png,1.0,0.6792452830188679,GW/huntsville.png,Three Edge Diff,Two Edge Five Edge,661045b87d3e3a9bda51b367
5758,3108.5,shortestpath_phase,1766650,interleaved,GW/gatlinburg.png,49.0,GW/boulder.png,GW/carmel.png,0.0,0.6666666666666666,GW/carmel.png,Four Edge Diff,Two Edge Six Edge,661045b87d3e3a9bda51b367
5760,4486.5,shortestpath_phase,1772145,interleaved,GW/shreveport.png,50.0,GW/huntsville.png,GW/boulder.png,0.0,0.6545454545454545,GW/huntsville.png,One Edge Diff,Five Edge Six Edge,661045b87d3e3a9bda51b367
5762,5581.5,shortestpath_phase,1778736,interleaved,GW/leesburg.png,49.0,GW/hotsprings.png,GW/gatlinburg.png,1.0,0.6607142857142857,GW/hotsprings.png,One Edge Diff,Three Edge Four Edge,661045b87d3e3a9bda51b367
5764,3820.599999994039,shortestpath_phase,1783566,interleaved,GW/huntsville.png,50.0,GW/shreveport.png,GW/racine.png,1.0,0.6666666666666666,GW/racine.png,Three Edge Diff,Two Edge Five Edge,661045b87d3e3a9bda51b367
5766,3404.79999999702,shortestpath_phase,1787978,interleaved,GW/shreveport.png,50.0,GW/huntsville.png,GW/hanover.png,1.0,0.6724137931034483,GW/hanover.png,Three Edge Diff,Three Edge Six Edge,661045b87d3e3a9bda51b367
5768,2910.29999999702,shortestpath_phase,1791897,interleaved,GW/carmel.png,50.0,GW/huntsville.png,GW/racine.png,1.0,0.6779661016949152,GW/racine.png,Two Edge Diff,Two Edge Four Edge,661045b87d3e3a9bda51b367
5770,4661.29999999702,shortestpath_phase,1797566,interleaved,GW/gatlinburg.png,50.0,GW/peoria.png,GW/cornwall.png,1.0,0.6833333333333333,GW/cornwall.png,Two Edge Diff,Four Edge Six Edge,661045b87d3e3a9bda51b367
5772,5315.4000000059605,shortestpath_phase,1803890,interleaved,GW/peoria.png,50.0,GW/gatlinburg.png,GW/hanover.png,1.0,0.6885245901639344,GW/hanover.png,Two Edge Diff,Four Edge Six Edge,661045b87d3e3a9bda51b367
5774,3547.70000000298,shortestpath_phase,1808446,interleaved,GW/huntsville.png,49.0,GW/racine.png,GW/shreveport.png,1.0,0.6935483870967742,GW/racine.png,Three Edge Diff,Three Edge Six Edge,661045b87d3e3a9bda51b367
5776,3302.5,shortestpath_phase,1812757,interleaved,GW/shreveport.png,50.0,GW/newhope.png,GW/westpalmbeach.png,1.0,0.6984126984126984,GW/westpalmbeach.png,Two Edge Diff,Two Edge Four Edge,661045b87d3e3a9bda51b367
5778,3736.5,shortestpath_phase,1817501,interleaved,GW/carmel.png,50.0,GW/leesburg.png,GW/boulder.png,0.0,0.6875,GW/leesburg.png,Two Edge Diff,Three Edge Five Edge,661045b87d3e3a9bda51b367
5780,5281.5,shortestpath_phase,1823792,interleaved,GW/peoria.png,50.0,GW/westpalmbeach.png,GW/carmel.png,0.0,0.676923076923077,GW/westpalmbeach.png,One Edge Diff,Three Edge Four Edge,661045b87d3e3a9bda51b367
5782,5799.399999991059,shortestpath_phase,1830600,interleaved,GW/shreveport.png,50.0,GW/peoria.png,GW/cornwall.png,1.0,0.6818181818181818,GW/cornwall.png,Two Edge Diff,Three Edge Five Edge,661045b87d3e3a9bda51b367
5784,3216.70000000298,shortestpath_phase,1834826,interleaved,GW/gatlinburg.png,49.0,GW/newhope.png,GW/racine.png,0.0,0.6716417910447762,GW/racine.png,Two Edge Diff,Three Edge Five Edge,661045b87d3e3a9bda51b367
5786,4741.70000000298,shortestpath_phase,1840576,interleaved,GW/boulder.png,49.0,GW/newhope.png,GW/shreveport.png,1.0,0.6764705882352942,GW/newhope.png,Four Edge Diff,Two Edge Six Edge,661045b87d3e3a9bda51b367
5788,5679.899999991059,shortestpath_phase,1847264,interleaved,GW/shreveport.png,50.0,GW/boulder.png,GW/hotsprings.png,1.0,0.6811594202898551,GW/hotsprings.png,Four Edge Diff,Two Edge Six Edge,661045b87d3e3a9bda51b367
5790,3039.20000000298,shortestpath_phase,1851312,interleaved,GW/boulder.png,49.0,GW/shreveport.png,GW/westpalmbeach.png,0.0,0.6714285714285714,GW/westpalmbeach.png,Two Edge Diff,Four Edge Six Edge,661045b87d3e3a9bda51b367
5792,3783.29999999702,shortestpath_phase,1856104,interleaved,GW/shreveport.png,50.0,GW/huntsville.png,GW/hotsprings.png,1.0,0.676056338028169,GW/hotsprings.png,Three Edge Diff,Three Edge Six Edge,661045b87d3e3a9bda51b367
5794,5040.300000011921,shortestpath_phase,1862152,interleaved,GW/peoria.png,50.0,GW/hotsprings.png,GW/huntsville.png,1.0,0.6805555555555556,GW/huntsville.png,Three Edge Diff,Three Edge Six Edge,661045b87d3e3a9bda51b367
5796,2616.79999999702,shortestpath_phase,1865777,interleaved,GW/hotsprings.png,49.0,GW/shreveport.png,GW/peoria.png,1.0,0.684931506849315,GW/shreveport.png,Three Edge Diff,Two Edge Five Edge,661045b87d3e3a9bda51b367
5798,3803.3999999910593,shortestpath_phase,1870589,interleaved,GW/gatlinburg.png,50.0,GW/peoria.png,GW/huntsville.png,1.0,0.6891891891891891,GW/huntsville.png,One Edge Diff,Five Edge Six Edge,661045b87d3e3a9bda51b367
5800,4793.800000011921,shortestpath_phase,1876392,interleaved,GW/boulder.png,50.0,GW/hotsprings.png,GW/newhope.png,1.0,0.6933333333333334,GW/newhope.png,Three Edge Diff,Three Edge Six Edge,661045b87d3e3a9bda51b367
5802,4799.20000000298,shortestpath_phase,1882200,interleaved,GW/gatlinburg.png,49.0,GW/huntsville.png,GW/carmel.png,0.0,0.6842105263157895,GW/carmel.png,Three Edge Diff,Three Edge Six Edge,661045b87d3e3a9bda51b367
5804,,shortestpath_phase,1890711,interleaved,GW/peoria.png,,GW/hotsprings.png,GW/racine.png,0.0,0.6753246753246753,GW/racine.png,Two Edge Diff,Three Edge Five Edge,661045b87d3e3a9bda51b367
5807,1087.2999999970198,shortestpath_phase,1895811,interleaved,GW/gatlinburg.png,50.0,GW/racine.png,GW/hanover.png,1.0,0.6794871794871795,GW/hanover.png,One Edge Diff,Two Edge Three Edge,661045b87d3e3a9bda51b367
5809,2890.0,shortestpath_phase,1899709,interleaved,GW/hotsprings.png,49.0,GW/racine.png,GW/peoria.png,1.0,0.6835443037974683,GW/racine.png,Three Edge Diff,Three Edge Six Edge,661045b87d3e3a9bda51b367
5811,3215.800000011921,shortestpath_phase,1903934,interleaved,GW/boulder.png,49.0,GW/leesburg.png,GW/shreveport.png,1.0,0.6875,GW/leesburg.png,Four Edge Diff,Two Edge Six Edge,661045b87d3e3a9bda51b367
5813,3145.20000000298,shortestpath_phase,1908087,interleaved,GW/carmel.png,49.0,GW/boulder.png,GW/gatlinburg.png,0.0,0.6790123456790124,GW/gatlinburg.png,Three Edge Diff,Three Edge Six Edge,661045b87d3e3a9bda51b367
5815,2114.1000000089407,shortestpath_phase,1911210,interleaved,GW/boulder.png,49.0,GW/gatlinburg.png,GW/hanover.png,0.0,0.6707317073170732,GW/hanover.png,Two Edge Diff,Four Edge Six Edge,661045b87d3e3a9bda51b367
5817,2087.5,shortestpath_phase,1914306,interleaved,GW/newhope.png,49.0,GW/hanover.png,GW/leesburg.png,0.0,0.6626506024096386,GW/leesburg.png,One Edge Diff,Two Edge Three Edge,661045b87d3e3a9bda51b367
5819,5231.79999999702,shortestpath_phase,1920546,interleaved,GW/peoria.png,49.0,GW/gatlinburg.png,GW/carmel.png,0.0,0.6547619047619048,GW/carmel.png,Two Edge Diff,Four Edge Six Edge,661045b87d3e3a9bda51b367
7604,,shortestpath_phase,1603201,interleaved,GW/newhope.png,,GW/huntsville.png,GW/hanover.png,0.0,0.0,GW/huntsville.png,One Edge Diff,Four Edge Five Edge,5ba5d8b960f3d50001697104
7607,2696.0,shortestpath_phase,1609910,interleaved,GW/hotsprings.png,50.0,GW/boulder.png,GW/hanover.png,1.0,0.5,GW/hanover.png,Two Edge Diff,Two Edge Four Edge,5ba5d8b960f3d50001697104
7609,2438.600000000093,shortestpath_phase,1613362,interleaved,GW/boulder.png,49.0,GW/huntsville.png,GW/hanover.png,1.0,0.6666666666666666,GW/huntsville.png,Two Edge Diff,Four Edge Six Edge,5ba5d8b960f3d50001697104
7611,2204.7000000001863,shortestpath_phase,1616577,interleaved,GW/hanover.png,49.0,GW/boulder.png,GW/peoria.png,0.0,0.5,GW/peoria.png,Four Edge Diff,Two Edge Six Edge,5ba5d8b960f3d50001697104
7613,1608.8999999999069,shortestpath_phase,1619196,interleaved,GW/westpalmbeach.png,50.0,GW/boulder.png,GW/shreveport.png,1.0,0.6,GW/shreveport.png,Four Edge Diff,Two Edge Six Edge,5ba5d8b960f3d50001697104
7615,1828.0,shortestpath_phase,1622034,interleaved,GW/carmel.png,50.0,GW/newhope.png,GW/huntsville.png,1.0,0.6666666666666666,GW/huntsville.png,One Edge Diff,Two Edge Three Edge,5ba5d8b960f3d50001697104
7617,1467.2999999998135,shortestpath_phase,1624512,interleaved,GW/hanover.png,50.0,GW/newhope.png,GW/peoria.png,1.0,0.7142857142857143,GW/peoria.png,Three Edge Diff,Two Edge Five Edge,5ba5d8b960f3d50001697104
7619,2015.1000000000931,shortestpath_phase,1627539,interleaved,GW/racine.png,49.0,GW/westpalmbeach.png,GW/newhope.png,0.0,0.625,GW/newhope.png,Three Edge Diff,Three Edge Six Edge,5ba5d8b960f3d50001697104
7621,1668.5,shortestpath_phase,1630217,interleaved,GW/peoria.png,50.0,GW/hanover.png,GW/boulder.png,0.0,0.5555555555555556,GW/hanover.png,Three Edge Diff,Two Edge Five Edge,5ba5d8b960f3d50001697104
7623,1613.1999999997206,shortestpath_phase,1632844,interleaved,GW/boulder.png,50.0,GW/westpalmbeach.png,GW/gatlinburg.png,1.0,0.6,GW/gatlinburg.png,Four Edge Diff,Two Edge Six Edge,5ba5d8b960f3d50001697104
7625,1703.8999999999069,shortestpath_phase,1635557,interleaved,GW/westpalmbeach.png,50.0,GW/hotsprings.png,GW/cornwall.png,0.0,0.5454545454545454,GW/hotsprings.png,One Edge Diff,Three Edge Four Edge,5ba5d8b960f3d50001697104
7627,1567.6000000000931,shortestpath_phase,1638132,interleaved,GW/gatlinburg.png,49.0,GW/carmel.png,GW/huntsville.png,1.0,0.5833333333333334,GW/carmel.png,One Edge Diff,Two Edge Three Edge,5ba5d8b960f3d50001697104
7629,1515.6000000000931,shortestpath_phase,1640657,interleaved,GW/peoria.png,50.0,GW/newhope.png,GW/leesburg.png,1.0,0.6153846153846154,GW/leesburg.png,Three Edge Diff,Three Edge Six Edge,5ba5d8b960f3d50001697104
7631,1326.1999999997206,shortestpath_phase,1642994,interleaved,GW/cornwall.png,50.0,GW/westpalmbeach.png,GW/shreveport.png,1.0,0.6428571428571429,GW/shreveport.png,Two Edge Diff,Two Edge Four Edge,5ba5d8b960f3d50001697104
7633,1747.1000000000931,shortestpath_phase,1645754,interleaved,GW/boulder.png,49.0,GW/newhope.png,GW/hotsprings.png,1.0,0.6666666666666666,GW/newhope.png,One Edge Diff,Three Edge Four Edge,5ba5d8b960f3d50001697104
7635,1613.5,shortestpath_phase,1648378,interleaved,GW/hotsprings.png,49.0,GW/gatlinburg.png,GW/westpalmbeach.png,1.0,0.6875,GW/gatlinburg.png,One Edge Diff,Two Edge Three Edge,5ba5d8b960f3d50001697104
7637,1168.0,shortestpath_phase,1650553,interleaved,GW/cornwall.png,50.0,GW/newhope.png,GW/westpalmbeach.png,0.0,0.6470588235294118,GW/newhope.png,Two Edge Diff,Two Edge Four Edge,5ba5d8b960f3d50001697104
7639,1677.0,shortestpath_phase,1653242,interleaved,GW/westpalmbeach.png,49.0,GW/gatlinburg.png,GW/boulder.png,1.0,0.6666666666666666,GW/gatlinburg.png,One Edge Diff,Five Edge Six Edge,5ba5d8b960f3d50001697104
7641,1639.7999999998135,shortestpath_phase,1655891,interleaved,GW/cornwall.png,49.0,GW/huntsville.png,GW/westpalmbeach.png,1.0,0.6842105263157895,GW/huntsville.png,Two Edge Diff,Two Edge Four Edge,5ba5d8b960f3d50001697104
7643,1339.2999999998135,shortestpath_phase,1658241,interleaved,GW/westpalmbeach.png,50.0,GW/racine.png,GW/shreveport.png,1.0,0.7,GW/shreveport.png,Three Edge Diff,Three Edge Six Edge,5ba5d8b960f3d50001697104
7645,1621.3000000002794,shortestpath_phase,1660873,interleaved,GW/gatlinburg.png,50.0,GW/boulder.png,GW/westpalmbeach.png,0.0,0.6666666666666666,GW/boulder.png,Three Edge Diff,Three Edge Six Edge,5ba5d8b960f3d50001697104
7647,1116.7000000001865,shortestpath_phase,1663000,interleaved,GW/westpalmbeach.png,49.0,GW/boulder.png,GW/huntsville.png,0.0,0.6363636363636364,GW/huntsville.png,Four Edge Diff,Two Edge Six Edge,5ba5d8b960f3d50001697104
7649,1612.1999999997206,shortestpath_phase,1665624,interleaved,GW/newhope.png,50.0,GW/westpalmbeach.png,GW/racine.png,1.0,0.6521739130434783,GW/racine.png,Four Edge Diff,Two Edge Six Edge,5ba5d8b960f3d50001697104
7651,1641.6000000000931,shortestpath_phase,1668278,interleaved,GW/carmel.png,50.0,GW/gatlinburg.png,GW/peoria.png,0.0,0.625,GW/gatlinburg.png,One Edge Diff,Two Edge Three Edge,5ba5d8b960f3d50001697104
7653,1383.1999999997206,shortestpath_phase,1670672,interleaved,GW/westpalmbeach.png,50.0,GW/newhope.png,GW/shreveport.png,1.0,0.64,GW/shreveport.png,Four Edge Diff,Two Edge Six Edge,5ba5d8b960f3d50001697104
7655,1682.5,shortestpath_phase,1673363,interleaved,GW/hanover.png,50.0,GW/huntsville.png,GW/racine.png,0.0,0.6153846153846154,GW/huntsville.png,Three Edge Diff,Three Edge Six Edge,5ba5d8b960f3d50001697104
7657,1428.3999999999069,shortestpath_phase,1675801,interleaved,GW/shreveport.png,50.0,GW/newhope.png,GW/cornwall.png,1.0,0.6296296296296297,GW/cornwall.png,Two Edge Diff,Two Edge Four Edge,5ba5d8b960f3d50001697104
7659,1310.0,shortestpath_phase,1678116,interleaved,GW/westpalmbeach.png,49.0,GW/huntsville.png,GW/gatlinburg.png,1.0,0.6428571428571429,GW/huntsville.png,Three Edge Diff,Three Edge Six Edge,5ba5d8b960f3d50001697104
7661,1291.2000000001865,shortestpath_phase,1680417,interleaved,GW/boulder.png,50.0,GW/peoria.png,GW/gatlinburg.png,1.0,0.6551724137931034,GW/gatlinburg.png,Three Edge Diff,Two Edge Five Edge,5ba5d8b960f3d50001697104
7663,1660.8000000002794,shortestpath_phase,1683091,interleaved,GW/newhope.png,49.0,GW/shreveport.png,GW/westpalmbeach.png,1.0,0.6666666666666666,GW/shreveport.png,Two Edge Diff,Four Edge Six Edge,5ba5d8b960f3d50001697104
7665,1401.5999999996277,shortestpath_phase,1685507,interleaved,GW/racine.png,49.0,GW/cornwall.png,GW/westpalmbeach.png,1.0,0.6774193548387096,GW/cornwall.png,Three Edge Diff,Two Edge Five Edge,5ba5d8b960f3d50001697104
7667,1360.8999999999069,shortestpath_phase,1687880,interleaved,GW/hanover.png,49.0,GW/peoria.png,GW/newhope.png,1.0,0.6875,GW/peoria.png,Three Edge Diff,Three Edge Six Edge,5ba5d8b960f3d50001697104
7669,1155.1000000000931,shortestpath_phase,1690041,interleaved,GW/newhope.png,50.0,GW/cornwall.png,GW/westpalmbeach.png,0.0,0.6666666666666666,GW/cornwall.png,Four Edge Diff,Two Edge Six Edge,5ba5d8b960f3d50001697104
7671,1193.8999999999069,shortestpath_phase,1692241,interleaved,GW/hanover.png,50.0,GW/newhope.png,GW/huntsville.png,1.0,0.6764705882352942,GW/huntsville.png,Three Edge Diff,Two Edge Five Edge,5ba5d8b960f3d50001697104
7673,1439.1000000000931,shortestpath_phase,1694685,interleaved,GW/peoria.png,50.0,GW/racine.png,GW/cornwall.png,1.0,0.6857142857142857,GW/cornwall.png,One Edge Diff,Three Edge Four Edge,5ba5d8b960f3d50001697104
7675,1424.0,shortestpath_phase,1697116,interleaved,GW/hanover.png,49.0,GW/boulder.png,GW/huntsville.png,0.0,0.6666666666666666,GW/huntsville.png,Four Edge Diff,Two Edge Six Edge,5ba5d8b960f3d50001697104
7677,1455.0,shortestpath_phase,1699579,interleaved,GW/peoria.png,49.0,GW/boulder.png,GW/carmel.png,0.0,0.6486486486486487,GW/carmel.png,Two Edge Diff,Three Edge Five Edge,5ba5d8b960f3d50001697104
7679,1351.7000000001865,shortestpath_phase,1701945,interleaved,GW/westpalmbeach.png,50.0,GW/huntsville.png,GW/newhope.png,0.0,0.631578947368421,GW/huntsville.png,Four Edge Diff,Two Edge Six Edge,5ba5d8b960f3d50001697104
7681,1220.1000000000931,shortestpath_phase,1704178,interleaved,GW/peoria.png,49.0,GW/gatlinburg.png,GW/newhope.png,1.0,0.6410256410256411,GW/gatlinburg.png,One Edge Diff,Four Edge Five Edge,5ba5d8b960f3d50001697104
7683,1206.0,shortestpath_phase,1706396,interleaved,GW/westpalmbeach.png,50.0,GW/hanover.png,GW/carmel.png,0.0,0.625,GW/hanover.png,One Edge Diff,Three Edge Four Edge,5ba5d8b960f3d50001697104
7685,1121.2000000001865,shortestpath_phase,1708527,interleaved,GW/racine.png,49.0,GW/cornwall.png,GW/westpalmbeach.png,1.0,0.6341463414634146,GW/cornwall.png,Three Edge Diff,Three Edge Six Edge,5ba5d8b960f3d50001697104
7687,952.8000000002794,shortestpath_phase,1710489,interleaved,GW/newhope.png,49.0,GW/westpalmbeach.png,GW/hanover.png,0.0,0.6190476190476191,GW/hanover.png,One Edge Diff,Five Edge Six Edge,5ba5d8b960f3d50001697104
7689,1073.7999999998135,shortestpath_phase,1712567,interleaved,GW/shreveport.png,50.0,GW/gatlinburg.png,GW/newhope.png,0.0,0.6046511627906976,GW/gatlinburg.png,One Edge Diff,Three Edge Four Edge,5ba5d8b960f3d50001697104
7691,1100.5,shortestpath_phase,1714674,interleaved,GW/racine.png,50.0,GW/newhope.png,GW/shreveport.png,0.0,0.5909090909090909,GW/newhope.png,Two Edge Diff,Two Edge Four Edge,5ba5d8b960f3d50001697104
7693,1495.2000000001865,shortestpath_phase,1717185,interleaved,GW/gatlinburg.png,50.0,GW/westpalmbeach.png,GW/shreveport.png,1.0,0.6,GW/shreveport.png,Two Edge Diff,Three Edge Five Edge,5ba5d8b960f3d50001697104
7695,1551.0999999996277,shortestpath_phase,1719742,interleaved,GW/hanover.png,50.0,GW/boulder.png,GW/hotsprings.png,1.0,0.6086956521739131,GW/hotsprings.png,Four Edge Diff,Two Edge Six Edge,5ba5d8b960f3d50001697104
7697,1238.5999999996277,shortestpath_phase,1721989,interleaved,GW/gatlinburg.png,49.0,GW/huntsville.png,GW/westpalmbeach.png,1.0,0.6170212765957447,GW/huntsville.png,Two Edge Diff,Three Edge Five Edge,5ba5d8b960f3d50001697104
7699,1474.0,shortestpath_phase,1724472,interleaved,GW/peoria.png,50.0,GW/newhope.png,GW/hotsprings.png,1.0,0.625,GW/hotsprings.png,Three Edge Diff,Two Edge Five Edge,5ba5d8b960f3d50001697104
7701,1461.0,shortestpath_phase,1726944,interleaved,GW/newhope.png,49.0,GW/carmel.png,GW/cornwall.png,0.0,0.6122448979591837,GW/cornwall.png,One Edge Diff,Two Edge Three Edge,5ba5d8b960f3d50001697104
7703,1061.1000000000931,shortestpath_phase,1729011,interleaved,GW/hanover.png,50.0,GW/hotsprings.png,GW/carmel.png,0.0,0.6,GW/hotsprings.png,Two Edge Diff,Two Edge Four Edge,5ba5d8b960f3d50001697104
7705,1319.0999999996277,shortestpath_phase,1731342,interleaved,GW/racine.png,50.0,GW/westpalmbeach.png,GW/leesburg.png,1.0,0.6078431372549019,GW/leesburg.png,Three Edge Diff,Two Edge Five Edge,5ba5d8b960f3d50001697104
7707,1258.7000000001865,shortestpath_phase,1733612,interleaved,GW/gatlinburg.png,50.0,GW/westpalmbeach.png,GW/carmel.png,1.0,0.6153846153846154,GW/carmel.png,Three Edge Diff,Two Edge Five Edge,5ba5d8b960f3d50001697104
7709,1006.1000000000932,shortestpath_phase,1735632,interleaved,GW/hanover.png,49.0,GW/racine.png,GW/boulder.png,1.0,0.6226415094339622,GW/racine.png,One Edge Diff,Five Edge Six Edge,5ba5d8b960f3d50001697104
7711,1370.7999999998135,shortestpath_phase,1738011,interleaved,GW/westpalmbeach.png,49.0,GW/newhope.png,GW/carmel.png,0.0,0.6111111111111112,GW/carmel.png,Two Edge Diff,Four Edge Six Edge,5ba5d8b960f3d50001697104
7713,1640.5,shortestpath_phase,1740657,interleaved,GW/newhope.png,50.0,GW/westpalmbeach.png,GW/peoria.png,1.0,0.6181818181818182,GW/peoria.png,One Edge Diff,Five Edge Six Edge,5ba5d8b960f3d50001697104
7715,1382.0,shortestpath_phase,1743044,interleaved,GW/boulder.png,49.0,GW/carmel.png,GW/hanover.png,1.0,0.625,GW/carmel.png,Four Edge Diff,Two Edge Six Edge,5ba5d8b960f3d50001697104
7717,1379.6999999997206,shortestpath_phase,1745440,interleaved,GW/newhope.png,49.0,GW/shreveport.png,GW/hanover.png,1.0,0.631578947368421,GW/shreveport.png,One Edge Diff,Four Edge Five Edge,5ba5d8b960f3d50001697104
7719,1187.2999999998135,shortestpath_phase,1747638,interleaved,GW/racine.png,50.0,GW/huntsville.png,GW/westpalmbeach.png,0.0,0.6206896551724138,GW/huntsville.png,Two Edge Diff,Three Edge Five Edge,5ba5d8b960f3d50001697104
7721,1087.5,shortestpath_phase,1749736,interleaved,GW/shreveport.png,49.0,GW/leesburg.png,GW/boulder.png,1.0,0.6271186440677966,GW/leesburg.png,Three Edge Diff,Three Edge Six Edge,5ba5d8b960f3d50001697104
7723,1303.1999999997206,shortestpath_phase,1752047,interleaved,GW/racine.png,50.0,GW/hotsprings.png,GW/hanover.png,0.0,0.6166666666666667,GW/hotsprings.png,Two Edge Diff,Three Edge Five Edge,5ba5d8b960f3d50001697104
7725,1209.6000000000931,shortestpath_phase,1754267,interleaved,GW/newhope.png,49.0,GW/huntsville.png,GW/peoria.png,1.0,0.6229508196721312,GW/huntsville.png,One Edge Diff,Four Edge Five Edge,5ba5d8b960f3d50001697104
7727,1100.7999999998135,shortestpath_phase,1756379,interleaved,GW/cornwall.png,50.0,GW/westpalmbeach.png,GW/hanover.png,1.0,0.6290322580645161,GW/hanover.png,One Edge Diff,Three Edge Four Edge,5ba5d8b960f3d50001697104
7729,1032.2000000001865,shortestpath_phase,1758416,interleaved,GW/newhope.png,49.0,GW/peoria.png,GW/shreveport.png,0.0,0.6190476190476191,GW/shreveport.png,One Edge Diff,Four Edge Five Edge,5ba5d8b960f3d50001697104
7731,1121.7999999998135,shortestpath_phase,1760547,interleaved,GW/boulder.png,50.0,GW/gatlinburg.png,GW/hanover.png,0.0,0.609375,GW/gatlinburg.png,Four Edge Diff,Two Edge Six Edge,5ba5d8b960f3d50001697104
7733,1371.3999999999069,shortestpath_phase,1762932,interleaved,GW/westpalmbeach.png,50.0,GW/racine.png,GW/cornwall.png,1.0,0.6153846153846154,GW/cornwall.png,One Edge Diff,Four Edge Five Edge,5ba5d8b960f3d50001697104
7735,1248.3999999999069,shortestpath_phase,1765191,interleaved,GW/boulder.png,50.0,GW/westpalmbeach.png,GW/shreveport.png,1.0,0.6212121212121212,GW/shreveport.png,One Edge Diff,Five Edge Six Edge,5ba5d8b960f3d50001697104
7737,1150.3999999999069,shortestpath_phase,1767351,interleaved,GW/hotsprings.png,49.0,GW/hanover.png,GW/westpalmbeach.png,1.0,0.6268656716417911,GW/hanover.png,One Edge Diff,Two Edge Three Edge,5ba5d8b960f3d50001697104
7739,1352.6000000000931,shortestpath_phase,1769713,interleaved,GW/westpalmbeach.png,49.0,GW/boulder.png,GW/cornwall.png,0.0,0.6176470588235294,GW/cornwall.png,Two Edge Diff,Four Edge Six Edge,5ba5d8b960f3d50001697104
7741,1166.3000000002794,shortestpath_phase,1771886,interleaved,GW/gatlinburg.png,50.0,GW/westpalmbeach.png,GW/hotsprings.png,1.0,0.6231884057971014,GW/hotsprings.png,Three Edge Diff,Three Edge Six Edge,5ba5d8b960f3d50001697104
7743,1321.1000000000931,shortestpath_phase,1774221,interleaved,GW/westpalmbeach.png,50.0,GW/gatlinburg.png,GW/huntsville.png,1.0,0.6285714285714286,GW/huntsville.png,Three Edge Diff,Two Edge Five Edge,5ba5d8b960f3d50001697104
7745,1224.5,shortestpath_phase,1776458,interleaved,GW/racine.png,50.0,GW/hanover.png,GW/leesburg.png,1.0,0.6338028169014085,GW/leesburg.png,Three Edge Diff,Two Edge Five Edge,5ba5d8b960f3d50001697104
7747,1338.2000000001865,shortestpath_phase,1778802,interleaved,GW/newhope.png,49.0,GW/huntsville.png,GW/westpalmbeach.png,1.0,0.6388888888888888,GW/huntsville.png,Two Edge Diff,Four Edge Six Edge,5ba5d8b960f3d50001697104
7749,1264.7999999998135,shortestpath_phase,1781073,interleaved,GW/hanover.png,50.0,GW/gatlinburg.png,GW/boulder.png,0.0,0.6301369863013698,GW/gatlinburg.png,Two Edge Diff,Four Edge Six Edge,5ba5d8b960f3d50001697104
7751,1287.4000000003723,shortestpath_phase,1783371,interleaved,GW/boulder.png,50.0,GW/carmel.png,GW/peoria.png,0.0,0.6216216216216216,GW/carmel.png,Three Edge Diff,Two Edge Five Edge,5ba5d8b960f3d50001697104
7753,951.6000000000932,shortestpath_phase,1785329,interleaved,GW/peoria.png,49.0,GW/boulder.png,GW/hanover.png,0.0,0.6133333333333333,GW/hanover.png,Three Edge Diff,Three Edge Six Edge,5ba5d8b960f3d50001697104
7755,1060.1000000000931,shortestpath_phase,1787398,interleaved,GW/boulder.png,50.0,GW/cornwall.png,GW/shreveport.png,0.0,0.6052631578947368,GW/cornwall.png,Two Edge Diff,Three Edge Five Edge,5ba5d8b960f3d50001697104
7757,1383.8999999999069,shortestpath_phase,1789796,interleaved,GW/hanover.png,50.0,GW/westpalmbeach.png,GW/racine.png,0.0,0.5974025974025974,GW/westpalmbeach.png,Two Edge Diff,Three Edge Five Edge,5ba5d8b960f3d50001697104
7759,1218.0,shortestpath_phase,1792026,interleaved,GW/shreveport.png,50.0,GW/racine.png,GW/cornwall.png,1.0,0.6025641025641025,GW/cornwall.png,Two Edge Diff,Two Edge Four Edge,5ba5d8b960f3d50001697104
7761,1154.6999999997206,shortestpath_phase,1794187,interleaved,GW/hanover.png,49.0,GW/carmel.png,GW/boulder.png,1.0,0.6075949367088608,GW/carmel.png,Two Edge Diff,Four Edge Six Edge,5ba5d8b960f3d50001697104
7763,1372.0,shortestpath_phase,1796565,interleaved,GW/westpalmbeach.png,49.0,GW/racine.png,GW/newhope.png,1.0,0.6125,GW/racine.png,One Edge Diff,Five Edge Six Edge,5ba5d8b960f3d50001697104
7765,822.9000000003725,shortestpath_phase,1798400,interleaved,GW/boulder.png,50.0,GW/peoria.png,GW/cornwall.png,1.0,0.6172839506172839,GW/cornwall.png,Two Edge Diff,Three Edge Five Edge,5ba5d8b960f3d50001697104
7767,1374.5,shortestpath_phase,1800786,interleaved,GW/hanover.png,50.0,GW/newhope.png,GW/hotsprings.png,1.0,0.6219512195121951,GW/hotsprings.png,Three Edge Diff,Two Edge Five Edge,5ba5d8b960f3d50001697104
7769,1014.8999999999068,shortestpath_phase,1802807,interleaved,GW/newhope.png,50.0,GW/hanover.png,GW/racine.png,1.0,0.6265060240963856,GW/racine.png,Three Edge Diff,Three Edge Six Edge,5ba5d8b960f3d50001697104
7771,1266.6999999997206,shortestpath_phase,1805079,interleaved,GW/boulder.png,50.0,GW/westpalmbeach.png,GW/hotsprings.png,1.0,0.6309523809523809,GW/hotsprings.png,Two Edge Diff,Four Edge Six Edge,5ba5d8b960f3d50001697104
11522,2235.2000002861023,shortestpath_phase,1246462,interleaved,GW/peoria.png,49.0,GW/newhope.png,GW/hanover.png,1.0,1.0,GW/newhope.png,Two Edge Diff,Four Edge Six Edge,574ce0a57fd0ec000db73aa6
11524,2557.5,shortestpath_phase,1250024,interleaved,GW/hanover.png,49.0,GW/hotsprings.png,GW/boulder.png,1.0,1.0,GW/hotsprings.png,Three Edge Diff,Three Edge Six Edge,574ce0a57fd0ec000db73aa6
11526,3221.800000190735,shortestpath_phase,1254248,interleaved,GW/peoria.png,49.0,GW/newhope.png,GW/hotsprings.png,1.0,1.0,GW/newhope.png,One Edge Diff,Four Edge Five Edge,574ce0a57fd0ec000db73aa6
11528,3629.2000002861023,shortestpath_phase,1258880,interleaved,GW/carmel.png,50.0,GW/cornwall.png,GW/westpalmbeach.png,0.0,0.75,GW/cornwall.png,Two Edge Diff,Three Edge Five Edge,574ce0a57fd0ec000db73aa6
11530,3680.900000095367,shortestpath_phase,1263564,interleaved,GW/peoria.png,50.0,GW/hanover.png,GW/racine.png,1.0,0.8,GW/racine.png,Four Edge Diff,Two Edge Six Edge,574ce0a57fd0ec000db73aa6
11532,2978.7000002861023,shortestpath_phase,1267545,interleaved,GW/shreveport.png,50.0,GW/cornwall.png,GW/racine.png,0.0,0.6666666666666666,GW/cornwall.png,One Edge Diff,Two Edge Three Edge,574ce0a57fd0ec000db73aa6
11534,2455.5,shortestpath_phase,1271003,interleaved,GW/racine.png,49.0,GW/shreveport.png,GW/peoria.png,0.0,0.5714285714285714,GW/peoria.png,One Edge Diff,Two Edge Three Edge,574ce0a57fd0ec000db73aa6
11536,3279.599999904633,shortestpath_phase,1275285,interleaved,GW/hanover.png,50.0,GW/huntsville.png,GW/hotsprings.png,1.0,0.625,GW/hotsprings.png,Three Edge Diff,Three Edge Six Edge,574ce0a57fd0ec000db73aa6
11538,2384.0,shortestpath_phase,1278672,interleaved,GW/peoria.png,50.0,GW/hanover.png,GW/westpalmbeach.png,1.0,0.6666666666666666,GW/westpalmbeach.png,Four Edge Diff,Two Edge Six Edge,574ce0a57fd0ec000db73aa6
11540,2869.6000003814697,shortestpath_phase,1282544,interleaved,GW/hotsprings.png,50.0,GW/huntsville.png,GW/hanover.png,1.0,0.7,GW/hanover.png,Two Edge Diff,Two Edge Four Edge,574ce0a57fd0ec000db73aa6
11542,2713.199999809265,shortestpath_phase,1286261,interleaved,GW/huntsville.png,50.0,GW/carmel.png,GW/shreveport.png,1.0,0.7272727272727273,GW/shreveport.png,One Edge Diff,Four Edge Five Edge,574ce0a57fd0ec000db73aa6
11544,1959.0999999046328,shortestpath_phase,1289224,interleaved,GW/westpalmbeach.png,50.0,GW/carmel.png,GW/peoria.png,1.0,0.75,GW/peoria.png,Three Edge Diff,Three Edge Six Edge,574ce0a57fd0ec000db73aa6
11546,2572.0,shortestpath_phase,1292798,interleaved,GW/shreveport.png,50.0,GW/cornwall.png,GW/peoria.png,0.0,0.6923076923076923,GW/cornwall.png,Three Edge Diff,Two Edge Five Edge,574ce0a57fd0ec000db73aa6
11548,3864.6000003814697,shortestpath_phase,1297665,interleaved,GW/hanover.png,49.0,GW/westpalmbeach.png,GW/peoria.png,1.0,0.7142857142857143,GW/westpalmbeach.png,Two Edge Diff,Four Edge Six Edge,574ce0a57fd0ec000db73aa6
11550,4377.099999904633,shortestpath_phase,1303046,interleaved,GW/peoria.png,49.0,GW/carmel.png,GW/gatlinburg.png,0.0,0.6666666666666666,GW/gatlinburg.png,Two Edge Diff,Four Edge Six Edge,574ce0a57fd0ec000db73aa6
11552,2186.7000002861023,shortestpath_phase,1306235,interleaved,GW/huntsville.png,49.0,GW/shreveport.png,GW/cornwall.png,0.0,0.625,GW/cornwall.png,Two Edge Diff,Two Edge Four Edge,574ce0a57fd0ec000db73aa6
11554,3118.900000095367,shortestpath_phase,1310357,interleaved,GW/westpalmbeach.png,50.0,GW/hotsprings.png,GW/peoria.png,1.0,0.6470588235294118,GW/peoria.png,Two Edge Diff,Two Edge Four Edge,574ce0a57fd0ec000db73aa6
11556,2723.2000002861023,shortestpath_phase,1314083,interleaved,GW/hanover.png,50.0,GW/peoria.png,GW/huntsville.png,1.0,0.6666666666666666,GW/huntsville.png,One Edge Diff,Five Edge Six Edge,574ce0a57fd0ec000db73aa6
11558,3518.7000002861023,shortestpath_phase,1318604,interleaved,GW/peoria.png,50.0,GW/gatlinburg.png,GW/hanover.png,0.0,0.631578947368421,GW/gatlinburg.png,Two Edge Diff,Four Edge Six Edge,574ce0a57fd0ec000db73aa6
11560,3542.0,shortestpath_phase,1323148,interleaved,GW/carmel.png,50.0,GW/leesburg.png,GW/cornwall.png,1.0,0.65,GW/cornwall.png,One Edge Diff,Three Edge Four Edge,574ce0a57fd0ec000db73aa6
11562,2325.0,shortestpath_phase,1326475,interleaved,GW/peoria.png,49.0,GW/westpalmbeach.png,GW/carmel.png,1.0,0.6666666666666666,GW/westpalmbeach.png,Four Edge Diff,Two Edge Six Edge,574ce0a57fd0ec000db73aa6
11564,2738.3999996185303,shortestpath_phase,1330226,interleaved,GW/hotsprings.png,50.0,GW/boulder.png,GW/cornwall.png,1.0,0.6818181818181818,GW/cornwall.png,Three Edge Diff,Three Edge Six Edge,574ce0a57fd0ec000db73aa6
11566,1865.2000002861023,shortestpath_phase,1333094,interleaved,GW/peoria.png,49.0,GW/newhope.png,GW/carmel.png,1.0,0.6956521739130435,GW/newhope.png,Two Edge Diff,Four Edge Six Edge,574ce0a57fd0ec000db73aa6
11568,2686.1000003814697,shortestpath_phase,1336786,interleaved,GW/boulder.png,49.0,GW/racine.png,GW/hotsprings.png,1.0,0.7083333333333334,GW/racine.png,Three Edge Diff,Three Edge Six Edge,574ce0a57fd0ec000db73aa6
11570,2056.1000003814697,shortestpath_phase,1339844,interleaved,GW/shreveport.png,49.0,GW/huntsville.png,GW/peoria.png,1.0,0.72,GW/huntsville.png,One Edge Diff,Four Edge Five Edge,574ce0a57fd0ec000db73aa6
11572,2967.300000190735,shortestpath_phase,1343815,interleaved,GW/boulder.png,49.0,GW/racine.png,GW/hotsprings.png,1.0,0.7307692307692307,GW/racine.png,Three Edge Diff,Two Edge Five Edge,574ce0a57fd0ec000db73aa6
11574,5204.5,shortestpath_phase,1350022,interleaved,GW/gatlinburg.png,49.0,GW/newhope.png,GW/leesburg.png,1.0,0.7407407407407407,GW/newhope.png,One Edge Diff,Two Edge Three Edge,574ce0a57fd0ec000db73aa6
11576,2488.6000003814697,shortestpath_phase,1353513,interleaved,GW/huntsville.png,50.0,GW/boulder.png,GW/hanover.png,0.0,0.7142857142857143,GW/boulder.png,Three Edge Diff,Two Edge Five Edge,574ce0a57fd0ec000db73aa6
11578,4419.699999809265,shortestpath_phase,1358944,interleaved,GW/peoria.png,50.0,GW/hotsprings.png,GW/cornwall.png,1.0,0.7241379310344828,GW/cornwall.png,Two Edge Diff,Three Edge Five Edge,574ce0a57fd0ec000db73aa6
11580,2063.199999809265,shortestpath_phase,1362009,interleaved,GW/boulder.png,49.0,GW/carmel.png,GW/gatlinburg.png,0.0,0.7,GW/gatlinburg.png,Two Edge Diff,Four Edge Six Edge,574ce0a57fd0ec000db73aa6
11582,3238.099999904633,shortestpath_phase,1366257,interleaved,GW/carmel.png,49.0,GW/leesburg.png,GW/huntsville.png,1.0,0.7096774193548387,GW/leesburg.png,One Edge Diff,Four Edge Five Edge,574ce0a57fd0ec000db73aa6
11584,1598.6000003814695,shortestpath_phase,1368859,interleaved,GW/boulder.png,50.0,GW/hanover.png,GW/racine.png,1.0,0.71875,GW/racine.png,Three Edge Diff,Two Edge Five Edge,574ce0a57fd0ec000db73aa6
11586,2336.0,shortestpath_phase,1372202,interleaved,GW/shreveport.png,49.0,GW/racine.png,GW/leesburg.png,0.0,0.696969696969697,GW/leesburg.png,One Edge Diff,Two Edge Three Edge,574ce0a57fd0ec000db73aa6
11588,2373.2999997138977,shortestpath_phase,1375590,interleaved,GW/carmel.png,50.0,GW/peoria.png,GW/racine.png,1.0,0.7058823529411765,GW/racine.png,Two Edge Diff,Four Edge Six Edge,574ce0a57fd0ec000db73aa6
11590,2646.2000002861023,shortestpath_phase,1379239,interleaved,GW/boulder.png,49.0,GW/newhope.png,GW/hanover.png,1.0,0.7142857142857143,GW/newhope.png,Two Edge Diff,Three Edge Five Edge,574ce0a57fd0ec000db73aa6
11592,2469.199999809265,shortestpath_phase,1382711,interleaved,GW/carmel.png,49.0,GW/gatlinburg.png,GW/boulder.png,1.0,0.7222222222222222,GW/gatlinburg.png,Four Edge Diff,Two Edge Six Edge,574ce0a57fd0ec000db73aa6
11594,1774.5999999046326,shortestpath_phase,1385490,interleaved,GW/hanover.png,50.0,GW/boulder.png,GW/peoria.png,0.0,0.7027027027027027,GW/boulder.png,One Edge Diff,Five Edge Six Edge,574ce0a57fd0ec000db73aa6
11596,2014.1999998092651,shortestpath_phase,1388507,interleaved,GW/newhope.png,49.0,GW/peoria.png,GW/hotsprings.png,0.0,0.6842105263157895,GW/hotsprings.png,Two Edge Diff,Two Edge Four Edge,574ce0a57fd0ec000db73aa6
11598,1004.9000000953674,shortestpath_phase,1390514,interleaved,GW/peoria.png,49.0,GW/newhope.png,GW/boulder.png,0.0,0.6666666666666666,GW/boulder.png,One Edge Diff,Three Edge Four Edge,574ce0a57fd0ec000db73aa6
11600,1679.1999998092651,shortestpath_phase,1393196,interleaved,GW/hanover.png,50.0,GW/peoria.png,GW/newhope.png,1.0,0.675,GW/newhope.png,Four Edge Diff,Two Edge Six Edge,574ce0a57fd0ec000db73aa6
11602,2260.199999809265,shortestpath_phase,1396458,interleaved,GW/peoria.png,50.0,GW/hanover.png,GW/hotsprings.png,1.0,0.6829268292682927,GW/hotsprings.png,One Edge Diff,Five Edge Six Edge,574ce0a57fd0ec000db73aa6
11604,3298.099999904633,shortestpath_phase,1400761,interleaved,GW/boulder.png,50.0,GW/hotsprings.png,GW/cornwall.png,1.0,0.6904761904761905,GW/cornwall.png,Two Edge Diff,Three Edge Five Edge,574ce0a57fd0ec000db73aa6
11606,1742.9000000953674,shortestpath_phase,1403507,interleaved,GW/carmel.png,49.0,GW/shreveport.png,GW/boulder.png,1.0,0.6976744186046512,GW/shreveport.png,Four Edge Diff,Two Edge Six Edge,574ce0a57fd0ec000db73aa6
11608,2522.699999809265,shortestpath_phase,1407032,interleaved,GW/westpalmbeach.png,50.0,GW/hanover.png,GW/newhope.png,1.0,0.7045454545454546,GW/newhope.png,Two Edge Diff,Two Edge Four Edge,574ce0a57fd0ec000db73aa6
11610,2009.2000002861023,shortestpath_phase,1410044,interleaved,GW/carmel.png,49.0,GW/huntsville.png,GW/gatlinburg.png,0.0,0.6888888888888889,GW/gatlinburg.png,Three Edge Diff,Two Edge Five Edge,574ce0a57fd0ec000db73aa6
11612,1793.8999996185305,shortestpath_phase,1412840,interleaved,GW/boulder.png,50.0,GW/carmel.png,GW/leesburg.png,1.0,0.6956521739130435,GW/leesburg.png,Four Edge Diff,Two Edge Six Edge,574ce0a57fd0ec000db73aa6
11614,1651.6999998092651,shortestpath_phase,1415494,interleaved,GW/racine.png,49.0,GW/gatlinburg.png,GW/carmel.png,1.0,0.7021276595744681,GW/gatlinburg.png,Two Edge Diff,Two Edge Four Edge,574ce0a57fd0ec000db73aa6
11616,2035.5999999046328,shortestpath_phase,1418533,interleaved,GW/hotsprings.png,50.0,GW/cornwall.png,GW/peoria.png,0.0,0.6875,GW/cornwall.png,Three Edge Diff,Three Edge Six Edge,574ce0a57fd0ec000db73aa6
11618,1947.7999997138977,shortestpath_phase,1421483,interleaved,GW/huntsville.png,50.0,GW/boulder.png,GW/carmel.png,0.0,0.673469387755102,GW/boulder.png,Three Edge Diff,Two Edge Five Edge,574ce0a57fd0ec000db73aa6
11620,3829.800000190735,shortestpath_phase,1426316,interleaved,GW/leesburg.png,49.0,GW/cornwall.png,GW/gatlinburg.png,1.0,0.68,GW/cornwall.png,One Edge Diff,Two Edge Three Edge,574ce0a57fd0ec000db73aa6
11622,3726.900000095367,shortestpath_phase,1431046,interleaved,GW/boulder.png,49.0,GW/huntsville.png,GW/shreveport.png,1.0,0.6862745098039216,GW/huntsville.png,Two Edge Diff,Two Edge Four Edge,574ce0a57fd0ec000db73aa6
11624,2177.0,shortestpath_phase,1434225,interleaved,GW/hotsprings.png,49.0,GW/cornwall.png,GW/leesburg.png,1.0,0.6923076923076923,GW/cornwall.png,One Edge Diff,Two Edge Three Edge,574ce0a57fd0ec000db73aa6
11626,1466.5,shortestpath_phase,1436695,interleaved,GW/newhope.png,49.0,GW/peoria.png,GW/boulder.png,0.0,0.6792452830188679,GW/boulder.png,One Edge Diff,Three Edge Four Edge,574ce0a57fd0ec000db73aa6
11628,2636.400000095367,shortestpath_phase,1440334,interleaved,GW/carmel.png,50.0,GW/peoria.png,GW/shreveport.png,1.0,0.6851851851851852,GW/shreveport.png,Four Edge Diff,Two Edge Six Edge,574ce0a57fd0ec000db73aa6
11630,1857.0,shortestpath_phase,1443195,interleaved,GW/boulder.png,50.0,GW/hotsprings.png,GW/huntsville.png,1.0,0.6909090909090909,GW/huntsville.png,Three Edge Diff,Three Edge Six Edge,574ce0a57fd0ec000db73aa6
11632,2047.5999999046328,shortestpath_phase,1446246,interleaved,GW/hotsprings.png,50.0,GW/boulder.png,GW/westpalmbeach.png,1.0,0.6964285714285714,GW/westpalmbeach.png,One Edge Diff,Four Edge Five Edge,574ce0a57fd0ec000db73aa6
11634,1198.5999999046326,shortestpath_phase,1448448,interleaved,GW/boulder.png,50.0,GW/hotsprings.png,GW/huntsville.png,1.0,0.7017543859649122,GW/huntsville.png,Three Edge Diff,Two Edge Five Edge,574ce0a57fd0ec000db73aa6
11636,1456.5999999046326,shortestpath_phase,1450907,interleaved,GW/westpalmbeach.png,50.0,GW/carmel.png,GW/newhope.png,1.0,0.7068965517241379,GW/newhope.png,Three Edge Diff,Two Edge Five Edge,574ce0a57fd0ec000db73aa6
