rt,trial_type,stimulus,key_press,accuracy,stimulus_down_left,stimulus_down_mid,stimulus_down_right,stimulus_correct,stimulus_short,stimulus_far,partid,age
2962.7000000476837,directmemory_phase,GW/camera.jpg,51.0,1.0,GW/barrel.jpg,GW/hat.jpg,GW/dustpan.jpg,GW/dustpan.jpg,GW/hat.jpg,GW/barrel.jpg,6679dc943f855ba978447c25,old
2573.7000000476837,directmemory_phase,GW/hat.jpg,51.0,1.0,GW/dustpan.jpg,GW/soldier.jpg,GW/jukebox.jpg,GW/jukebox.jpg,GW/soldier.jpg,GW/dustpan.jpg,6679dc943f855ba978447c25,old
1917.2000000476835,directmemory_phase,GW/paint.jpg,49.0,1.0,GW/wheelchair.jpg,GW/jukebox.jpg,GW/soldier.jpg,GW/wheelchair.jpg,GW/soldier.jpg,GW/jukebox.jpg,6679dc943f855ba978447c25,old
1749.0,directmemory_phase,GW/globe.jpg,49.0,1.0,GW/basket.jpg,GW/paint.jpg,GW/snail.jpg,GW/basket.jpg,GW/snail.jpg,GW/paint.jpg,6679dc943f855ba978447c25,old
1958.2999999523165,directmemory_phase,GW/soldier.jpg,51.0,1.0,GW/basket.jpg,GW/barrel.jpg,GW/teeth.jpg,GW/teeth.jpg,GW/barrel.jpg,GW/basket.jpg,6679dc943f855ba978447c25,old
2342.399999976158,directmemory_phase,GW/basket.jpg,50.0,1.0,GW/teeth.jpg,GW/snail.jpg,GW/camera.jpg,GW/snail.jpg,GW/teeth.jpg,GW/camera.jpg,6679dc943f855ba978447c25,old
2304.899999976158,directmemory_phase,GW/dustpan.jpg,51.0,1.0,GW/hat.jpg,GW/soldier.jpg,GW/camera.jpg,GW/camera.jpg,GW/soldier.jpg,GW/hat.jpg,6679dc943f855ba978447c25,old
2986.399999976158,directmemory_phase,GW/barrel.jpg,51.0,1.0,GW/hat.jpg,GW/paint.jpg,GW/basket.jpg,GW/basket.jpg,GW/paint.jpg,GW/hat.jpg,6679dc943f855ba978447c25,old
1569.9000000953674,directmemory_phase,GW/jukebox.jpg,49.0,1.0,GW/camera.jpg,GW/basket.jpg,GW/dustpan.jpg,GW/camera.jpg,GW/dustpan.jpg,GW/basket.jpg,6679dc943f855ba978447c25,old
4544.5,directmemory_phase,GW/barrel.jpg,49.0,0.0,GW/soldier.jpg,GW/teeth.jpg,GW/camera.jpg,GW/teeth.jpg,GW/soldier.jpg,GW/camera.jpg,6679dc943f855ba978447c25,old
3207.0,directmemory_phase,GW/basket.jpg,51.0,0.0,GW/globe.jpg,GW/hat.jpg,GW/gong.jpg,GW/globe.jpg,GW/gong.jpg,GW/hat.jpg,6679dc943f855ba978447c25,old
4270.400000095367,directmemory_phase,GW/jukebox.jpg,51.0,1.0,GW/globe.jpg,GW/dustpan.jpg,GW/soldier.jpg,GW/soldier.jpg,GW/dustpan.jpg,GW/globe.jpg,6679dc943f855ba978447c25,old
3631.200000047684,directmemory_phase,GW/basket.jpg,51.0,1.0,GW/camera.jpg,GW/paint.jpg,GW/barrel.jpg,GW/barrel.jpg,GW/paint.jpg,GW/camera.jpg,6679dc943f855ba978447c25,old
2056.2999999523163,directmemory_phase,GW/snail.jpg,49.0,1.0,GW/gong.jpg,GW/teeth.jpg,GW/barrel.jpg,GW/gong.jpg,GW/barrel.jpg,GW/teeth.jpg,6679dc943f855ba978447c25,old
2901.899999976158,directmemory_phase,GW/wheelchair.jpg,50.0,1.0,GW/basket.jpg,GW/soldier.jpg,GW/globe.jpg,GW/soldier.jpg,GW/basket.jpg,GW/globe.jpg,6679dc943f855ba978447c25,old
1640.399999976158,directmemory_phase,GW/camera.jpg,49.0,1.0,GW/jukebox.jpg,GW/paint.jpg,GW/hat.jpg,GW/jukebox.jpg,GW/hat.jpg,GW/paint.jpg,6679dc943f855ba978447c25,old
1989.7999999523165,directmemory_phase,GW/teeth.jpg,50.0,0.0,GW/snail.jpg,GW/wheelchair.jpg,GW/soldier.jpg,GW/soldier.jpg,GW/wheelchair.jpg,GW/snail.jpg,6679dc943f855ba978447c25,old
3219.6999999284744,directmemory_phase,GW/wheelchair.jpg,49.0,1.0,GW/barrel.jpg,GW/globe.jpg,GW/snail.jpg,GW/barrel.jpg,GW/snail.jpg,GW/globe.jpg,6679dc943f855ba978447c25,old
4200.700000047684,directmemory_phase,GW/camera.jpg,51.0,1.0,GW/paint.jpg,GW/wheelchair.jpg,GW/soldier.jpg,GW/soldier.jpg,GW/wheelchair.jpg,GW/paint.jpg,6679dc943f855ba978447c25,old
2588.099999904633,directmemory_phase,GW/paint.jpg,51.0,1.0,GW/dustpan.jpg,GW/soldier.jpg,GW/snail.jpg,GW/snail.jpg,GW/soldier.jpg,GW/dustpan.jpg,6679dc943f855ba978447c25,old
3121.399999976158,directmemory_phase,GW/soldier.jpg,51.0,0.0,GW/paint.jpg,GW/camera.jpg,GW/basket.jpg,GW/camera.jpg,GW/paint.jpg,GW/basket.jpg,6679dc943f855ba978447c25,old
3238.399999976158,directmemory_phase,GW/gong.jpg,51.0,1.0,GW/soldier.jpg,GW/basket.jpg,GW/snail.jpg,GW/snail.jpg,GW/basket.jpg,GW/soldier.jpg,6679dc943f855ba978447c25,old
2450.7999999523163,directmemory_phase,GW/soldier.jpg,51.0,1.0,GW/globe.jpg,GW/dustpan.jpg,GW/jukebox.jpg,GW/jukebox.jpg,GW/dustpan.jpg,GW/globe.jpg,6679dc943f855ba978447c25,old
3222.5,directmemory_phase,GW/wheelchair.jpg,50.0,0.0,GW/paint.jpg,GW/dustpan.jpg,GW/camera.jpg,GW/paint.jpg,GW/camera.jpg,GW/dustpan.jpg,6679dc943f855ba978447c25,old
3801.200000047684,directmemory_phase,GW/jukebox.jpg,49.0,1.0,GW/teeth.jpg,GW/paint.jpg,GW/dustpan.jpg,GW/teeth.jpg,GW/dustpan.jpg,GW/paint.jpg,6679dc943f855ba978447c25,old
2032.7999999523165,directmemory_phase,GW/soldier.jpg,49.0,0.0,GW/basket.jpg,GW/paint.jpg,GW/wheelchair.jpg,GW/wheelchair.jpg,GW/paint.jpg,GW/basket.jpg,6679dc943f855ba978447c25,old
3068.600000023842,directmemory_phase,GW/teeth.jpg,50.0,1.0,GW/basket.jpg,GW/jukebox.jpg,GW/snail.jpg,GW/jukebox.jpg,GW/basket.jpg,GW/snail.jpg,6679dc943f855ba978447c25,old
2526.1999999284744,directmemory_phase,GW/barrel.jpg,51.0,1.0,GW/camera.jpg,GW/jukebox.jpg,GW/wheelchair.jpg,GW/wheelchair.jpg,GW/jukebox.jpg,GW/camera.jpg,6679dc943f855ba978447c25,old
2658.5,directmemory_phase,GW/snail.jpg,49.0,1.0,GW/basket.jpg,GW/soldier.jpg,GW/wheelchair.jpg,GW/basket.jpg,GW/wheelchair.jpg,GW/soldier.jpg,6679dc943f855ba978447c25,old
4044.299999952316,directmemory_phase,GW/jukebox.jpg,50.0,1.0,GW/barrel.jpg,GW/hat.jpg,GW/basket.jpg,GW/hat.jpg,GW/barrel.jpg,GW/basket.jpg,6679dc943f855ba978447c25,old
2363.1999999284744,directmemory_phase,GW/teeth.jpg,51.0,1.0,GW/globe.jpg,GW/camera.jpg,GW/barrel.jpg,GW/barrel.jpg,GW/camera.jpg,GW/globe.jpg,6679dc943f855ba978447c25,old
2650.2000000476837,directmemory_phase,GW/snail.jpg,51.0,1.0,GW/teeth.jpg,GW/wheelchair.jpg,GW/paint.jpg,GW/paint.jpg,GW/wheelchair.jpg,GW/teeth.jpg,6679dc943f855ba978447c25,old
2911.2999999821186,directmemory_phase,GW/snail.jpg,50.0,1.0,GW/dustpan.jpg,GW/basket.jpg,GW/barrel.jpg,GW/basket.jpg,GW/dustpan.jpg,GW/barrel.jpg,66a02d45a7db35d93c9f6a81,young
1407.5999999940395,directmemory_phase,GW/paint.jpg,49.0,1.0,GW/barrel.jpg,GW/jukebox.jpg,GW/dustpan.jpg,GW/barrel.jpg,GW/dustpan.jpg,GW/jukebox.jpg,66a02d45a7db35d93c9f6a81,young
2530.5999999940395,directmemory_phase,GW/gong.jpg,51.0,1.0,GW/hat.jpg,GW/globe.jpg,GW/dustpan.jpg,GW/dustpan.jpg,GW/globe.jpg,GW/hat.jpg,66a02d45a7db35d93c9f6a81,young
1668.800000011921,directmemory_phase,GW/wheelchair.jpg,51.0,1.0,GW/snail.jpg,GW/dustpan.jpg,GW/teeth.jpg,GW/teeth.jpg,GW/dustpan.jpg,GW/snail.jpg,66a02d45a7db35d93c9f6a81,young
3691.400000005961,directmemory_phase,GW/paint.jpg,50.0,0.0,GW/gong.jpg,GW/jukebox.jpg,GW/camera.jpg,GW/gong.jpg,GW/camera.jpg,GW/jukebox.jpg,66a02d45a7db35d93c9f6a81,young
3879.2000000178814,directmemory_phase,GW/jukebox.jpg,51.0,1.0,GW/barrel.jpg,GW/soldier.jpg,GW/hat.jpg,GW/hat.jpg,GW/soldier.jpg,GW/barrel.jpg,66a02d45a7db35d93c9f6a81,young
5340.299999982119,directmemory_phase,GW/barrel.jpg,50.0,0.0,GW/wheelchair.jpg,GW/snail.jpg,GW/basket.jpg,GW/wheelchair.jpg,GW/basket.jpg,GW/snail.jpg,66a02d45a7db35d93c9f6a81,young
4897.5,directmemory_phase,GW/paint.jpg,50.0,1.0,GW/dustpan.jpg,GW/basket.jpg,GW/jukebox.jpg,GW/basket.jpg,GW/dustpan.jpg,GW/jukebox.jpg,66a02d45a7db35d93c9f6a81,young
4229.9000000059605,directmemory_phase,GW/wheelchair.jpg,49.0,1.0,GW/hat.jpg,GW/basket.jpg,GW/soldier.jpg,GW/hat.jpg,GW/soldier.jpg,GW/basket.jpg,66a02d45a7db35d93c9f6a81,young
1576.7000000178814,directmemory_phase,GW/barrel.jpg,51.0,1.0,GW/globe.jpg,GW/basket.jpg,GW/paint.jpg,GW/paint.jpg,GW/basket.jpg,GW/globe.jpg,66a02d45a7db35d93c9f6a81,young
4432.699999988079,directmemory_phase,GW/basket.jpg,51.0,1.0,GW/hat.jpg,GW/barrel.jpg,GW/snail.jpg,GW/snail.jpg,GW/barrel.jpg,GW/hat.jpg,66a02d45a7db35d93c9f6a81,young
,directmemory_phase,GW/dustpan.jpg,,0.0,GW/teeth.jpg,GW/paint.jpg,GW/barrel.jpg,GW/barrel.jpg,GW/paint.jpg,GW/teeth.jpg,66a02d45a7db35d93c9f6a81,young
1957.5999999940395,directmemory_phase,GW/hat.jpg,49.0,0.0,GW/gong.jpg,GW/dustpan.jpg,GW/jukebox.jpg,GW/jukebox.jpg,GW/dustpan.jpg,GW/gong.jpg,66a02d45a7db35d93c9f6a81,young
1434.5,directmemory_phase,GW/teeth.jpg,51.0,1.0,GW/gong.jpg,GW/hat.jpg,GW/wheelchair.jpg,GW/wheelchair.jpg,GW/hat.jpg,GW/gong.jpg,66a02d45a7db35d93c9f6a81,young
1576.0,directmemory_phase,GW/globe.jpg,50.0,1.0,GW/basket.jpg,GW/snail.jpg,GW/paint.jpg,GW/snail.jpg,GW/basket.jpg,GW/paint.jpg,66a02d45a7db35d93c9f6a81,young
1151.399999976158,directmemory_phase,GW/hat.jpg,51.0,1.0,GW/paint.jpg,GW/teeth.jpg,GW/wheelchair.jpg,GW/wheelchair.jpg,GW/teeth.jpg,GW/paint.jpg,66a02d45a7db35d93c9f6a81,young
1659.4000000059605,directmemory_phase,GW/gong.jpg,49.0,0.0,GW/teeth.jpg,GW/soldier.jpg,GW/basket.jpg,GW/basket.jpg,GW/soldier.jpg,GW/teeth.jpg,66a02d45a7db35d93c9f6a81,young
1893.2999999821184,directmemory_phase,GW/soldier.jpg,51.0,1.0,GW/paint.jpg,GW/barrel.jpg,GW/hat.jpg,GW/hat.jpg,GW/barrel.jpg,GW/paint.jpg,66a02d45a7db35d93c9f6a81,young
1925.600000023842,directmemory_phase,GW/wheelchair.jpg,51.0,0.0,GW/barrel.jpg,GW/basket.jpg,GW/paint.jpg,GW/barrel.jpg,GW/paint.jpg,GW/basket.jpg,66a02d45a7db35d93c9f6a81,young
1642.9000000059605,directmemory_phase,GW/camera.jpg,49.0,0.0,GW/wheelchair.jpg,GW/paint.jpg,GW/basket.jpg,GW/basket.jpg,GW/paint.jpg,GW/wheelchair.jpg,66a02d45a7db35d93c9f6a81,young
1833.899999976158,directmemory_phase,GW/barrel.jpg,51.0,0.0,GW/dustpan.jpg,GW/camera.jpg,GW/teeth.jpg,GW/dustpan.jpg,GW/teeth.jpg,GW/camera.jpg,66a02d45a7db35d93c9f6a81,young
2130.9000000059605,directmemory_phase,GW/gong.jpg,50.0,0.0,GW/hat.jpg,GW/globe.jpg,GW/snail.jpg,GW/snail.jpg,GW/globe.jpg,GW/hat.jpg,66a02d45a7db35d93c9f6a81,young
1716.5999999940395,directmemory_phase,GW/basket.jpg,50.0,1.0,GW/barrel.jpg,GW/camera.jpg,GW/hat.jpg,GW/camera.jpg,GW/barrel.jpg,GW/hat.jpg,66a02d45a7db35d93c9f6a81,young
1331.7999999821186,directmemory_phase,GW/dustpan.jpg,50.0,0.0,GW/soldier.jpg,GW/camera.jpg,GW/snail.jpg,GW/soldier.jpg,GW/snail.jpg,GW/camera.jpg,66a02d45a7db35d93c9f6a81,young
2038.5999999940395,directmemory_phase,GW/basket.jpg,50.0,0.0,GW/gong.jpg,GW/hat.jpg,GW/dustpan.jpg,GW/gong.jpg,GW/dustpan.jpg,GW/hat.jpg,66a02d45a7db35d93c9f6a81,young
1122.9000000059605,directmemory_phase,GW/soldier.jpg,49.0,0.0,GW/gong.jpg,GW/dustpan.jpg,GW/snail.jpg,GW/dustpan.jpg,GW/gong.jpg,GW/snail.jpg,66a02d45a7db35d93c9f6a81,young
1852.600000023842,directmemory_phase,GW/snail.jpg,49.0,1.0,GW/gong.jpg,GW/soldier.jpg,GW/dustpan.jpg,GW/gong.jpg,GW/dustpan.jpg,GW/soldier.jpg,66a02d45a7db35d93c9f6a81,young
1281.9000000059605,directmemory_phase,GW/basket.jpg,50.0,0.0,GW/paint.jpg,GW/soldier.jpg,GW/dustpan.jpg,GW/paint.jpg,GW/dustpan.jpg,GW/soldier.jpg,66a02d45a7db35d93c9f6a81,young
1587.199999988079,directmemory_phase,GW/snail.jpg,49.0,1.0,GW/globe.jpg,GW/barrel.jpg,GW/dustpan.jpg,GW/globe.jpg,GW/dustpan.jpg,GW/barrel.jpg,66a02d45a7db35d93c9f6a81,young
3502.5999999940395,directmemory_phase,GW/gong.jpg,50.0,0.0,GW/hat.jpg,GW/globe.jpg,GW/paint.jpg,GW/paint.jpg,GW/globe.jpg,GW/hat.jpg,66a02d45a7db35d93c9f6a81,young
2342.2000000178814,directmemory_phase,GW/hat.jpg,49.0,0.0,GW/teeth.jpg,GW/soldier.jpg,GW/basket.jpg,GW/soldier.jpg,GW/teeth.jpg,GW/basket.jpg,66a02d45a7db35d93c9f6a81,young
1291.5,directmemory_phase,GW/dustpan.jpg,49.0,1.0,GW/gong.jpg,GW/teeth.jpg,GW/hat.jpg,GW/gong.jpg,GW/hat.jpg,GW/teeth.jpg,66a02d45a7db35d93c9f6a81,young
,directmemory_phase,GW/basket.jpg,,0.0,GW/globe.jpg,GW/gong.jpg,GW/dustpan.jpg,GW/globe.jpg,GW/dustpan.jpg,GW/gong.jpg,65c017a404cde4687fdad22e,old
5715.799999952316,directmemory_phase,GW/soldier.jpg,51.0,1.0,GW/camera.jpg,GW/paint.jpg,GW/snail.jpg,GW/snail.jpg,GW/paint.jpg,GW/camera.jpg,65c017a404cde4687fdad22e,old
4780.900000095367,directmemory_phase,GW/paint.jpg,50.0,1.0,GW/jukebox.jpg,GW/teeth.jpg,GW/hat.jpg,GW/teeth.jpg,GW/jukebox.jpg,GW/hat.jpg,65c017a404cde4687fdad22e,old
3285.7000000476837,directmemory_phase,GW/basket.jpg,49.0,1.0,GW/hat.jpg,GW/paint.jpg,GW/snail.jpg,GW/hat.jpg,GW/snail.jpg,GW/paint.jpg,65c017a404cde4687fdad22e,old
2509.300000190735,directmemory_phase,GW/dustpan.jpg,50.0,1.0,GW/gong.jpg,GW/wheelchair.jpg,GW/snail.jpg,GW/wheelchair.jpg,GW/gong.jpg,GW/snail.jpg,65c017a404cde4687fdad22e,old
4237.599999904633,directmemory_phase,GW/basket.jpg,51.0,1.0,GW/gong.jpg,GW/dustpan.jpg,GW/soldier.jpg,GW/soldier.jpg,GW/dustpan.jpg,GW/gong.jpg,65c017a404cde4687fdad22e,old
1437.5,directmemory_phase,GW/wheelchair.jpg,49.0,1.0,GW/dustpan.jpg,GW/barrel.jpg,GW/teeth.jpg,GW/dustpan.jpg,GW/teeth.jpg,GW/barrel.jpg,65c017a404cde4687fdad22e,old
3300.900000095367,directmemory_phase,GW/globe.jpg,49.0,1.0,GW/basket.jpg,GW/dustpan.jpg,GW/hat.jpg,GW/basket.jpg,GW/hat.jpg,GW/dustpan.jpg,65c017a404cde4687fdad22e,old
4220.0,directmemory_phase,GW/wheelchair.jpg,51.0,1.0,GW/jukebox.jpg,GW/basket.jpg,GW/soldier.jpg,GW/soldier.jpg,GW/basket.jpg,GW/jukebox.jpg,65c017a404cde4687fdad22e,old
4405.800000190735,directmemory_phase,GW/dustpan.jpg,49.0,1.0,GW/hat.jpg,GW/barrel.jpg,GW/soldier.jpg,GW/hat.jpg,GW/soldier.jpg,GW/barrel.jpg,65c017a404cde4687fdad22e,old
2509.2000000476837,directmemory_phase,GW/wheelchair.jpg,49.0,0.0,GW/gong.jpg,GW/paint.jpg,GW/camera.jpg,GW/paint.jpg,GW/gong.jpg,GW/camera.jpg,65c017a404cde4687fdad22e,old
4157.099999904633,directmemory_phase,GW/jukebox.jpg,51.0,0.0,GW/teeth.jpg,GW/basket.jpg,GW/paint.jpg,GW/teeth.jpg,GW/paint.jpg,GW/basket.jpg,65c017a404cde4687fdad22e,old
2021.5,directmemory_phase,GW/gong.jpg,49.0,1.0,GW/camera.jpg,GW/basket.jpg,GW/barrel.jpg,GW/camera.jpg,GW/barrel.jpg,GW/basket.jpg,65c017a404cde4687fdad22e,old
2932.599999904633,directmemory_phase,GW/teeth.jpg,49.0,0.0,GW/snail.jpg,GW/hat.jpg,GW/jukebox.jpg,GW/jukebox.jpg,GW/hat.jpg,GW/snail.jpg,65c017a404cde4687fdad22e,old
3541.2000000476837,directmemory_phase,GW/hat.jpg,51.0,1.0,GW/jukebox.jpg,GW/globe.jpg,GW/basket.jpg,GW/basket.jpg,GW/globe.jpg,GW/jukebox.jpg,65c017a404cde4687fdad22e,old
3061.5,directmemory_phase,GW/teeth.jpg,49.0,1.0,GW/paint.jpg,GW/basket.jpg,GW/wheelchair.jpg,GW/paint.jpg,GW/wheelchair.jpg,GW/basket.jpg,65c017a404cde4687fdad22e,old
3157.2999999523163,directmemory_phase,GW/soldier.jpg,49.0,1.0,GW/basket.jpg,GW/jukebox.jpg,GW/dustpan.jpg,GW/basket.jpg,GW/dustpan.jpg,GW/jukebox.jpg,65c017a404cde4687fdad22e,old
4388.600000143051,directmemory_phase,GW/teeth.jpg,49.0,0.0,GW/globe.jpg,GW/wheelchair.jpg,GW/gong.jpg,GW/gong.jpg,GW/wheelchair.jpg,GW/globe.jpg,65c017a404cde4687fdad22e,old
2645.600000143051,directmemory_phase,GW/hat.jpg,49.0,0.0,GW/gong.jpg,GW/globe.jpg,GW/dustpan.jpg,GW/dustpan.jpg,GW/globe.jpg,GW/gong.jpg,65c017a404cde4687fdad22e,old
4188.600000143051,directmemory_phase,GW/jukebox.jpg,49.0,1.0,GW/gong.jpg,GW/hat.jpg,GW/camera.jpg,GW/gong.jpg,GW/camera.jpg,GW/hat.jpg,65c017a404cde4687fdad22e,old
3452.5,directmemory_phase,GW/teeth.jpg,51.0,1.0,GW/snail.jpg,GW/camera.jpg,GW/dustpan.jpg,GW/dustpan.jpg,GW/camera.jpg,GW/snail.jpg,65c017a404cde4687fdad22e,old
1653.2999999523165,directmemory_phase,GW/camera.jpg,51.0,1.0,GW/soldier.jpg,GW/jukebox.jpg,GW/gong.jpg,GW/gong.jpg,GW/jukebox.jpg,GW/soldier.jpg,65c017a404cde4687fdad22e,old
3932.700000047684,directmemory_phase,GW/dustpan.jpg,50.0,0.0,GW/barrel.jpg,GW/jukebox.jpg,GW/teeth.jpg,GW/teeth.jpg,GW/jukebox.jpg,GW/barrel.jpg,65c017a404cde4687fdad22e,old
3949.299999952316,directmemory_phase,GW/paint.jpg,49.0,0.0,GW/barrel.jpg,GW/dustpan.jpg,GW/gong.jpg,GW/gong.jpg,GW/dustpan.jpg,GW/barrel.jpg,65c017a404cde4687fdad22e,old
5173.700000047684,directmemory_phase,GW/jukebox.jpg,51.0,0.0,GW/barrel.jpg,GW/basket.jpg,GW/paint.jpg,GW/barrel.jpg,GW/paint.jpg,GW/basket.jpg,65c017a404cde4687fdad22e,old
2428.599999904633,directmemory_phase,GW/gong.jpg,49.0,0.0,GW/soldier.jpg,GW/wheelchair.jpg,GW/teeth.jpg,GW/teeth.jpg,GW/wheelchair.jpg,GW/soldier.jpg,65c017a404cde4687fdad22e,old
4325.0,directmemory_phase,GW/barrel.jpg,49.0,0.0,GW/dustpan.jpg,GW/gong.jpg,GW/jukebox.jpg,GW/jukebox.jpg,GW/gong.jpg,GW/dustpan.jpg,65c017a404cde4687fdad22e,old
3700.300000190735,directmemory_phase,GW/paint.jpg,49.0,0.0,GW/jukebox.jpg,GW/wheelchair.jpg,GW/globe.jpg,GW/wheelchair.jpg,GW/jukebox.jpg,GW/globe.jpg,65c017a404cde4687fdad22e,old
3828.799999952316,directmemory_phase,GW/gong.jpg,50.0,0.0,GW/jukebox.jpg,GW/soldier.jpg,GW/wheelchair.jpg,GW/jukebox.jpg,GW/wheelchair.jpg,GW/soldier.jpg,65c017a404cde4687fdad22e,old
3517.399999856949,directmemory_phase,GW/snail.jpg,51.0,0.0,GW/basket.jpg,GW/soldier.jpg,GW/dustpan.jpg,GW/soldier.jpg,GW/basket.jpg,GW/dustpan.jpg,65c017a404cde4687fdad22e,old
3571.7999999523163,directmemory_phase,GW/gong.jpg,50.0,0.0,GW/paint.jpg,GW/soldier.jpg,GW/barrel.jpg,GW/paint.jpg,GW/barrel.jpg,GW/soldier.jpg,65c017a404cde4687fdad22e,old
4797.200000047684,directmemory_phase,GW/soldier.jpg,51.0,0.0,GW/wheelchair.jpg,GW/jukebox.jpg,GW/dustpan.jpg,GW/wheelchair.jpg,GW/dustpan.jpg,GW/jukebox.jpg,65c017a404cde4687fdad22e,old
2040.800000011921,directmemory_phase,GW/jukebox.jpg,49.0,0.0,GW/camera.jpg,GW/snail.jpg,GW/globe.jpg,GW/globe.jpg,GW/snail.jpg,GW/camera.jpg,65958f57929aaa555306baf9,young
2260.399999976158,directmemory_phase,GW/teeth.jpg,50.0,0.0,GW/dustpan.jpg,GW/globe.jpg,GW/gong.jpg,GW/gong.jpg,GW/globe.jpg,GW/dustpan.jpg,65958f57929aaa555306baf9,young
2841.0,directmemory_phase,GW/basket.jpg,51.0,1.0,GW/barrel.jpg,GW/wheelchair.jpg,GW/dustpan.jpg,GW/dustpan.jpg,GW/wheelchair.jpg,GW/barrel.jpg,65958f57929aaa555306baf9,young
3268.100000023842,directmemory_phase,GW/gong.jpg,50.0,0.0,GW/snail.jpg,GW/soldier.jpg,GW/barrel.jpg,GW/barrel.jpg,GW/soldier.jpg,GW/snail.jpg,65958f57929aaa555306baf9,young
5367.5,directmemory_phase,GW/hat.jpg,49.0,0.0,GW/snail.jpg,GW/wheelchair.jpg,GW/camera.jpg,GW/wheelchair.jpg,GW/snail.jpg,GW/camera.jpg,65958f57929aaa555306baf9,young
,directmemory_phase,GW/gong.jpg,,0.0,GW/globe.jpg,GW/dustpan.jpg,GW/jukebox.jpg,GW/globe.jpg,GW/jukebox.jpg,GW/dustpan.jpg,65958f57929aaa555306baf9,young
1345.699999988079,directmemory_phase,GW/hat.jpg,49.0,1.0,GW/dustpan.jpg,GW/globe.jpg,GW/soldier.jpg,GW/dustpan.jpg,GW/soldier.jpg,GW/globe.jpg,65958f57929aaa555306baf9,young
3279.899999976158,directmemory_phase,GW/globe.jpg,49.0,0.0,GW/paint.jpg,GW/basket.jpg,GW/gong.jpg,GW/gong.jpg,GW/basket.jpg,GW/paint.jpg,65958f57929aaa555306baf9,young
,directmemory_phase,GW/hat.jpg,,0.0,GW/basket.jpg,GW/barrel.jpg,GW/jukebox.jpg,GW/basket.jpg,GW/jukebox.jpg,GW/barrel.jpg,65958f57929aaa555306baf9,young
1479.800000011921,directmemory_phase,GW/barrel.jpg,49.0,1.0,GW/camera.jpg,GW/jukebox.jpg,GW/soldier.jpg,GW/camera.jpg,GW/soldier.jpg,GW/jukebox.jpg,65958f57929aaa555306baf9,young
2377.600000023842,directmemory_phase,GW/wheelchair.jpg,51.0,0.0,GW/hat.jpg,GW/jukebox.jpg,GW/basket.jpg,GW/hat.jpg,GW/basket.jpg,GW/jukebox.jpg,65958f57929aaa555306baf9,young
3204.900000035763,directmemory_phase,GW/soldier.jpg,51.0,0.0,GW/jukebox.jpg,GW/basket.jpg,GW/wheelchair.jpg,GW/basket.jpg,GW/jukebox.jpg,GW/wheelchair.jpg,65958f57929aaa555306baf9,young
3473.699999988079,directmemory_phase,GW/dustpan.jpg,51.0,0.0,GW/wheelchair.jpg,GW/snail.jpg,GW/gong.jpg,GW/snail.jpg,GW/wheelchair.jpg,GW/gong.jpg,65958f57929aaa555306baf9,young
1769.5,directmemory_phase,GW/basket.jpg,49.0,0.0,GW/camera.jpg,GW/soldier.jpg,GW/barrel.jpg,GW/soldier.jpg,GW/camera.jpg,GW/barrel.jpg,65958f57929aaa555306baf9,young
2109.0,directmemory_phase,GW/camera.jpg,50.0,1.0,GW/basket.jpg,GW/barrel.jpg,GW/dustpan.jpg,GW/barrel.jpg,GW/basket.jpg,GW/dustpan.jpg,65958f57929aaa555306baf9,young
2837.699999988079,directmemory_phase,GW/snail.jpg,50.0,0.0,GW/wheelchair.jpg,GW/basket.jpg,GW/dustpan.jpg,GW/dustpan.jpg,GW/basket.jpg,GW/wheelchair.jpg,65958f57929aaa555306baf9,young
1536.399999976158,directmemory_phase,GW/camera.jpg,51.0,0.0,GW/gong.jpg,GW/soldier.jpg,GW/snail.jpg,GW/soldier.jpg,GW/gong.jpg,GW/snail.jpg,65958f57929aaa555306baf9,young
1322.5999999642372,directmemory_phase,GW/jukebox.jpg,51.0,0.0,GW/dustpan.jpg,GW/camera.jpg,GW/hat.jpg,GW/dustpan.jpg,GW/hat.jpg,GW/camera.jpg,65958f57929aaa555306baf9,young
1592.800000011921,directmemory_phase,GW/barrel.jpg,51.0,1.0,GW/dustpan.jpg,GW/globe.jpg,GW/gong.jpg,GW/gong.jpg,GW/globe.jpg,GW/dustpan.jpg,65958f57929aaa555306baf9,young
2069.800000011921,directmemory_phase,GW/globe.jpg,49.0,0.0,GW/paint.jpg,GW/basket.jpg,GW/jukebox.jpg,GW/jukebox.jpg,GW/basket.jpg,GW/paint.jpg,65958f57929aaa555306baf9,young
1217.600000023842,directmemory_phase,GW/dustpan.jpg,49.0,0.0,GW/gong.jpg,GW/soldier.jpg,GW/hat.jpg,GW/hat.jpg,GW/soldier.jpg,GW/gong.jpg,65958f57929aaa555306baf9,young
1905.0,directmemory_phase,GW/paint.jpg,50.0,0.0,GW/globe.jpg,GW/gong.jpg,GW/barrel.jpg,GW/barrel.jpg,GW/gong.jpg,GW/globe.jpg,65958f57929aaa555306baf9,young
2360.100000023842,directmemory_phase,GW/basket.jpg,51.0,1.0,GW/teeth.jpg,GW/camera.jpg,GW/hat.jpg,GW/hat.jpg,GW/camera.jpg,GW/teeth.jpg,65958f57929aaa555306baf9,young
1734.300000011921,directmemory_phase,GW/barrel.jpg,49.0,0.0,GW/soldier.jpg,GW/paint.jpg,GW/basket.jpg,GW/paint.jpg,GW/soldier.jpg,GW/basket.jpg,65958f57929aaa555306baf9,young
2201.899999976158,directmemory_phase,GW/globe.jpg,50.0,0.0,GW/paint.jpg,GW/basket.jpg,GW/soldier.jpg,GW/soldier.jpg,GW/basket.jpg,GW/paint.jpg,65958f57929aaa555306baf9,young
2179.300000011921,directmemory_phase,GW/dustpan.jpg,49.0,1.0,GW/jukebox.jpg,GW/gong.jpg,GW/soldier.jpg,GW/jukebox.jpg,GW/soldier.jpg,GW/gong.jpg,65958f57929aaa555306baf9,young
2033.199999988079,directmemory_phase,GW/gong.jpg,50.0,1.0,GW/soldier.jpg,GW/teeth.jpg,GW/basket.jpg,GW/teeth.jpg,GW/soldier.jpg,GW/basket.jpg,65958f57929aaa555306baf9,young
2497.7000000476837,directmemory_phase,GW/soldier.jpg,51.0,1.0,GW/snail.jpg,GW/gong.jpg,GW/camera.jpg,GW/camera.jpg,GW/gong.jpg,GW/snail.jpg,65958f57929aaa555306baf9,young
2973.800000011921,directmemory_phase,GW/dustpan.jpg,49.0,0.0,GW/globe.jpg,GW/basket.jpg,GW/teeth.jpg,GW/basket.jpg,GW/globe.jpg,GW/teeth.jpg,65958f57929aaa555306baf9,young
2944.600000023842,directmemory_phase,GW/soldier.jpg,49.0,0.0,GW/teeth.jpg,GW/dustpan.jpg,GW/globe.jpg,GW/globe.jpg,GW/dustpan.jpg,GW/teeth.jpg,65958f57929aaa555306baf9,young
1178.300000011921,directmemory_phase,GW/jukebox.jpg,50.0,0.0,GW/barrel.jpg,GW/snail.jpg,GW/basket.jpg,GW/basket.jpg,GW/snail.jpg,GW/barrel.jpg,65958f57929aaa555306baf9,young
1661.600000023842,directmemory_phase,,49.0,1.0,,,,,,,65958f57929aaa555306baf9,young
2641.9000000059605,directmemory_phase,GW/teeth.jpg,51.0,1.0,GW/hat.jpg,GW/gong.jpg,GW/snail.jpg,GW/snail.jpg,GW/gong.jpg,GW/hat.jpg,67dcc12657e2fe1375df7f89,young
2749.20000000298,directmemory_phase,GW/hat.jpg,51.0,0.0,GW/jukebox.jpg,GW/camera.jpg,GW/dustpan.jpg,GW/camera.jpg,GW/jukebox.jpg,GW/dustpan.jpg,67dcc12657e2fe1375df7f89,young
2410.0999999940395,directmemory_phase,GW/dustpan.jpg,50.0,1.0,GW/basket.jpg,GW/soldier.jpg,GW/gong.jpg,GW/soldier.jpg,GW/basket.jpg,GW/gong.jpg,67dcc12657e2fe1375df7f89,young
2559.5999999940395,directmemory_phase,GW/camera.jpg,49.0,1.0,GW/jukebox.jpg,GW/basket.jpg,GW/snail.jpg,GW/jukebox.jpg,GW/snail.jpg,GW/basket.jpg,67dcc12657e2fe1375df7f89,young
4452.0,directmemory_phase,GW/teeth.jpg,50.0,0.0,GW/wheelchair.jpg,GW/hat.jpg,GW/soldier.jpg,GW/wheelchair.jpg,GW/soldier.jpg,GW/hat.jpg,67dcc12657e2fe1375df7f89,young
6194.0,directmemory_phase,GW/soldier.jpg,49.0,0.0,GW/hat.jpg,GW/snail.jpg,GW/gong.jpg,GW/snail.jpg,GW/hat.jpg,GW/gong.jpg,67dcc12657e2fe1375df7f89,young
,directmemory_phase,GW/teeth.jpg,,0.0,GW/hat.jpg,GW/gong.jpg,GW/basket.jpg,GW/basket.jpg,GW/gong.jpg,GW/hat.jpg,67dcc12657e2fe1375df7f89,young
2022.8999999910593,directmemory_phase,GW/jukebox.jpg,51.0,1.0,GW/teeth.jpg,GW/hat.jpg,GW/globe.jpg,GW/globe.jpg,GW/hat.jpg,GW/teeth.jpg,67dcc12657e2fe1375df7f89,young
2478.5,directmemory_phase,GW/wheelchair.jpg,50.0,0.0,GW/snail.jpg,GW/jukebox.jpg,GW/soldier.jpg,GW/snail.jpg,GW/soldier.jpg,GW/jukebox.jpg,67dcc12657e2fe1375df7f89,young
2470.5,directmemory_phase,GW/dustpan.jpg,49.0,0.0,GW/jukebox.jpg,GW/globe.jpg,GW/hat.jpg,GW/globe.jpg,GW/jukebox.jpg,GW/hat.jpg,67dcc12657e2fe1375df7f89,young
2135.0999999940395,directmemory_phase,GW/camera.jpg,50.0,0.0,GW/wheelchair.jpg,GW/dustpan.jpg,GW/soldier.jpg,GW/soldier.jpg,GW/dustpan.jpg,GW/wheelchair.jpg,67dcc12657e2fe1375df7f89,young
1772.300000011921,directmemory_phase,GW/globe.jpg,50.0,0.0,GW/gong.jpg,GW/barrel.jpg,GW/dustpan.jpg,GW/dustpan.jpg,GW/barrel.jpg,GW/gong.jpg,67dcc12657e2fe1375df7f89,young
1935.20000000298,directmemory_phase,GW/wheelchair.jpg,51.0,1.0,GW/globe.jpg,GW/dustpan.jpg,GW/teeth.jpg,GW/teeth.jpg,GW/dustpan.jpg,GW/globe.jpg,67dcc12657e2fe1375df7f89,young
1771.2999999970198,directmemory_phase,GW/barrel.jpg,49.0,1.0,GW/jukebox.jpg,GW/teeth.jpg,GW/globe.jpg,GW/jukebox.jpg,GW/globe.jpg,GW/teeth.jpg,67dcc12657e2fe1375df7f89,young
2027.70000000298,directmemory_phase,GW/camera.jpg,50.0,0.0,GW/wheelchair.jpg,GW/barrel.jpg,GW/hat.jpg,GW/hat.jpg,GW/barrel.jpg,GW/wheelchair.jpg,67dcc12657e2fe1375df7f89,young
1672.2000000029802,directmemory_phase,GW/jukebox.jpg,49.0,1.0,GW/barrel.jpg,GW/teeth.jpg,GW/dustpan.jpg,GW/barrel.jpg,GW/dustpan.jpg,GW/teeth.jpg,67dcc12657e2fe1375df7f89,young
1597.7999999970198,directmemory_phase,GW/soldier.jpg,50.0,0.0,GW/camera.jpg,GW/paint.jpg,GW/jukebox.jpg,GW/camera.jpg,GW/jukebox.jpg,GW/paint.jpg,67dcc12657e2fe1375df7f89,young
1849.5,directmemory_phase,GW/basket.jpg,50.0,0.0,GW/paint.jpg,GW/jukebox.jpg,GW/dustpan.jpg,GW/paint.jpg,GW/dustpan.jpg,GW/jukebox.jpg,67dcc12657e2fe1375df7f89,young
1839.4000000059605,directmemory_phase,GW/jukebox.jpg,51.0,1.0,GW/basket.jpg,GW/dustpan.jpg,GW/camera.jpg,GW/camera.jpg,GW/dustpan.jpg,GW/basket.jpg,67dcc12657e2fe1375df7f89,young
1233.9000000059605,directmemory_phase,GW/snail.jpg,50.0,1.0,GW/gong.jpg,GW/teeth.jpg,GW/jukebox.jpg,GW/teeth.jpg,GW/gong.jpg,GW/jukebox.jpg,67dcc12657e2fe1375df7f89,young
1171.5999999940395,directmemory_phase,GW/gong.jpg,51.0,1.0,GW/globe.jpg,GW/teeth.jpg,GW/wheelchair.jpg,GW/wheelchair.jpg,GW/teeth.jpg,GW/globe.jpg,67dcc12657e2fe1375df7f89,young
1457.300000011921,directmemory_phase,GW/snail.jpg,49.0,0.0,GW/paint.jpg,GW/basket.jpg,GW/soldier.jpg,GW/soldier.jpg,GW/basket.jpg,GW/paint.jpg,67dcc12657e2fe1375df7f89,young
1370.0,directmemory_phase,GW/basket.jpg,50.0,0.0,GW/soldier.jpg,GW/gong.jpg,GW/wheelchair.jpg,GW/wheelchair.jpg,GW/gong.jpg,GW/soldier.jpg,67dcc12657e2fe1375df7f89,young
2121.20000000298,directmemory_phase,GW/globe.jpg,49.0,0.0,GW/snail.jpg,GW/barrel.jpg,GW/jukebox.jpg,GW/jukebox.jpg,GW/barrel.jpg,GW/snail.jpg,67dcc12657e2fe1375df7f89,young
1502.0999999940395,directmemory_phase,GW/wheelchair.jpg,50.0,1.0,GW/dustpan.jpg,GW/basket.jpg,GW/globe.jpg,GW/basket.jpg,GW/dustpan.jpg,GW/globe.jpg,67dcc12657e2fe1375df7f89,young
2407.6000000089407,directmemory_phase,GW/soldier.jpg,51.0,1.0,GW/barrel.jpg,GW/wheelchair.jpg,GW/dustpan.jpg,GW/dustpan.jpg,GW/wheelchair.jpg,GW/barrel.jpg,67dcc12657e2fe1375df7f89,young
1787.5999999940395,directmemory_phase,GW/paint.jpg,49.0,1.0,GW/basket.jpg,GW/globe.jpg,GW/teeth.jpg,GW/basket.jpg,GW/teeth.jpg,GW/globe.jpg,67dcc12657e2fe1375df7f89,young
1768.5999999940395,directmemory_phase,GW/dustpan.jpg,50.0,0.0,GW/teeth.jpg,GW/hat.jpg,GW/wheelchair.jpg,GW/teeth.jpg,GW/wheelchair.jpg,GW/hat.jpg,67dcc12657e2fe1375df7f89,young
2072.1000000089407,directmemory_phase,GW/wheelchair.jpg,49.0,0.0,GW/camera.jpg,GW/soldier.jpg,GW/gong.jpg,GW/gong.jpg,GW/soldier.jpg,GW/camera.jpg,67dcc12657e2fe1375df7f89,young
1742.7000000029802,directmemory_phase,GW/teeth.jpg,51.0,0.0,GW/gong.jpg,GW/dustpan.jpg,GW/camera.jpg,GW/dustpan.jpg,GW/gong.jpg,GW/camera.jpg,67dcc12657e2fe1375df7f89,young
2077.70000000298,directmemory_phase,GW/snail.jpg,50.0,0.0,GW/paint.jpg,GW/gong.jpg,GW/wheelchair.jpg,GW/wheelchair.jpg,GW/gong.jpg,GW/paint.jpg,67dcc12657e2fe1375df7f89,young
2443.9000000059605,directmemory_phase,GW/basket.jpg,50.0,0.0,GW/teeth.jpg,GW/jukebox.jpg,GW/dustpan.jpg,GW/teeth.jpg,GW/dustpan.jpg,GW/jukebox.jpg,67dcc12657e2fe1375df7f89,young
,directmemory_phase,GW/barrel.jpg,,0.0,GW/gong.jpg,GW/basket.jpg,GW/dustpan.jpg,GW/dustpan.jpg,GW/basket.jpg,GW/gong.jpg,67e42a7bdae7875a883eead0,young
2673.5,directmemory_phase,GW/soldier.jpg,50.0,1.0,GW/snail.jpg,GW/globe.jpg,GW/hat.jpg,GW/globe.jpg,GW/snail.jpg,GW/hat.jpg,67e42a7bdae7875a883eead0,young
2601.099999964237,directmemory_phase,GW/camera.jpg,50.0,0.0,GW/barrel.jpg,GW/gong.jpg,GW/snail.jpg,GW/snail.jpg,GW/gong.jpg,GW/barrel.jpg,67e42a7bdae7875a883eead0,young
2118.399999976158,directmemory_phase,GW/barrel.jpg,51.0,1.0,GW/teeth.jpg,GW/basket.jpg,GW/jukebox.jpg,GW/jukebox.jpg,GW/basket.jpg,GW/teeth.jpg,67e42a7bdae7875a883eead0,young
1981.300000011921,directmemory_phase,GW/camera.jpg,51.0,1.0,GW/dustpan.jpg,GW/paint.jpg,GW/teeth.jpg,GW/teeth.jpg,GW/paint.jpg,GW/dustpan.jpg,67e42a7bdae7875a883eead0,young
1861.7000000476835,directmemory_phase,GW/basket.jpg,49.0,1.0,GW/dustpan.jpg,GW/wheelchair.jpg,GW/snail.jpg,GW/dustpan.jpg,GW/snail.jpg,GW/wheelchair.jpg,67e42a7bdae7875a883eead0,young
2075.400000035763,directmemory_phase,GW/globe.jpg,49.0,1.0,GW/teeth.jpg,GW/basket.jpg,GW/gong.jpg,GW/teeth.jpg,GW/gong.jpg,GW/basket.jpg,67e42a7bdae7875a883eead0,young
1958.0,directmemory_phase,GW/paint.jpg,51.0,1.0,GW/jukebox.jpg,GW/camera.jpg,GW/basket.jpg,GW/basket.jpg,GW/camera.jpg,GW/jukebox.jpg,67e42a7bdae7875a883eead0,young
1711.600000023842,directmemory_phase,GW/snail.jpg,51.0,1.0,GW/dustpan.jpg,GW/basket.jpg,GW/teeth.jpg,GW/teeth.jpg,GW/basket.jpg,GW/dustpan.jpg,67e42a7bdae7875a883eead0,young
1646.7999999523165,directmemory_phase,GW/paint.jpg,49.0,1.0,GW/soldier.jpg,GW/hat.jpg,GW/dustpan.jpg,GW/soldier.jpg,GW/dustpan.jpg,GW/hat.jpg,67e42a7bdae7875a883eead0,young
1512.899999976158,directmemory_phase,GW/teeth.jpg,51.0,1.0,GW/basket.jpg,GW/paint.jpg,GW/gong.jpg,GW/gong.jpg,GW/paint.jpg,GW/basket.jpg,67e42a7bdae7875a883eead0,young
2095.599999964237,directmemory_phase,GW/globe.jpg,51.0,1.0,GW/basket.jpg,GW/camera.jpg,GW/snail.jpg,GW/snail.jpg,GW/camera.jpg,GW/basket.jpg,67e42a7bdae7875a883eead0,young
1862.899999976158,directmemory_phase,GW/gong.jpg,50.0,0.0,GW/paint.jpg,GW/globe.jpg,GW/teeth.jpg,GW/teeth.jpg,GW/globe.jpg,GW/paint.jpg,67e42a7bdae7875a883eead0,young
1489.199999988079,directmemory_phase,GW/jukebox.jpg,51.0,1.0,GW/teeth.jpg,GW/dustpan.jpg,GW/barrel.jpg,GW/barrel.jpg,GW/dustpan.jpg,GW/teeth.jpg,67e42a7bdae7875a883eead0,young
1373.399999976158,directmemory_phase,GW/basket.jpg,49.0,1.0,GW/paint.jpg,GW/globe.jpg,GW/hat.jpg,GW/paint.jpg,GW/hat.jpg,GW/globe.jpg,67e42a7bdae7875a883eead0,young
1124.100000023842,directmemory_phase,GW/wheelchair.jpg,51.0,1.0,GW/soldier.jpg,GW/snail.jpg,GW/camera.jpg,GW/camera.jpg,GW/snail.jpg,GW/soldier.jpg,67e42a7bdae7875a883eead0,young
2053.2999999523163,directmemory_phase,GW/globe.jpg,50.0,1.0,GW/barrel.jpg,GW/soldier.jpg,GW/hat.jpg,GW/soldier.jpg,GW/barrel.jpg,GW/hat.jpg,67e42a7bdae7875a883eead0,young
2246.100000023842,directmemory_phase,GW/snail.jpg,51.0,1.0,GW/hat.jpg,GW/basket.jpg,GW/paint.jpg,GW/paint.jpg,GW/basket.jpg,GW/hat.jpg,67e42a7bdae7875a883eead0,young
1287.100000023842,directmemory_phase,GW/camera.jpg,50.0,1.0,GW/globe.jpg,GW/wheelchair.jpg,GW/dustpan.jpg,GW/wheelchair.jpg,GW/globe.jpg,GW/dustpan.jpg,67e42a7bdae7875a883eead0,young
1977.0999999642372,directmemory_phase,GW/paint.jpg,51.0,1.0,GW/hat.jpg,GW/teeth.jpg,GW/snail.jpg,GW/snail.jpg,GW/teeth.jpg,GW/hat.jpg,67e42a7bdae7875a883eead0,young
2061.600000023842,directmemory_phase,GW/dustpan.jpg,49.0,0.0,GW/snail.jpg,GW/soldier.jpg,GW/hat.jpg,GW/hat.jpg,GW/soldier.jpg,GW/snail.jpg,67e42a7bdae7875a883eead0,young
2286.099999964237,directmemory_phase,GW/barrel.jpg,49.0,1.0,GW/soldier.jpg,GW/snail.jpg,GW/paint.jpg,GW/soldier.jpg,GW/paint.jpg,GW/snail.jpg,67e42a7bdae7875a883eead0,young
2444.399999976158,directmemory_phase,GW/snail.jpg,51.0,0.0,GW/soldier.jpg,GW/camera.jpg,GW/dustpan.jpg,GW/camera.jpg,GW/soldier.jpg,GW/dustpan.jpg,67e42a7bdae7875a883eead0,young
1736.5999999642372,directmemory_phase,GW/dustpan.jpg,51.0,1.0,GW/snail.jpg,GW/paint.jpg,GW/basket.jpg,GW/basket.jpg,GW/paint.jpg,GW/snail.jpg,67e42a7bdae7875a883eead0,young
2117.900000035763,directmemory_phase,GW/teeth.jpg,51.0,1.0,GW/barrel.jpg,GW/paint.jpg,GW/camera.jpg,GW/camera.jpg,GW/paint.jpg,GW/barrel.jpg,67e42a7bdae7875a883eead0,young
2236.300000011921,directmemory_phase,GW/soldier.jpg,51.0,1.0,GW/gong.jpg,GW/teeth.jpg,GW/paint.jpg,GW/paint.jpg,GW/teeth.jpg,GW/gong.jpg,67e42a7bdae7875a883eead0,young
1832.0999999642372,directmemory_phase,GW/snail.jpg,49.0,1.0,GW/globe.jpg,GW/dustpan.jpg,GW/soldier.jpg,GW/globe.jpg,GW/soldier.jpg,GW/dustpan.jpg,67e42a7bdae7875a883eead0,young
1905.5,directmemory_phase,GW/soldier.jpg,49.0,1.0,GW/barrel.jpg,GW/gong.jpg,GW/jukebox.jpg,GW/barrel.jpg,GW/jukebox.jpg,GW/gong.jpg,67e42a7bdae7875a883eead0,young
2222.0,directmemory_phase,GW/hat.jpg,51.0,1.0,GW/jukebox.jpg,GW/basket.jpg,GW/dustpan.jpg,GW/dustpan.jpg,GW/basket.jpg,GW/jukebox.jpg,67e42a7bdae7875a883eead0,young
2316.100000023842,directmemory_phase,GW/teeth.jpg,51.0,1.0,GW/barrel.jpg,GW/paint.jpg,GW/globe.jpg,GW/globe.jpg,GW/paint.jpg,GW/barrel.jpg,67e42a7bdae7875a883eead0,young
2236.599999964237,directmemory_phase,GW/dustpan.jpg,50.0,0.0,GW/barrel.jpg,GW/snail.jpg,GW/jukebox.jpg,GW/barrel.jpg,GW/jukebox.jpg,GW/snail.jpg,67e42a7bdae7875a883eead0,young
2577.699999988079,directmemory_phase,GW/teeth.jpg,49.0,1.0,GW/snail.jpg,GW/dustpan.jpg,GW/wheelchair.jpg,GW/snail.jpg,GW/wheelchair.jpg,GW/dustpan.jpg,67e42a7bdae7875a883eead0,young
2975.7999999523163,directmemory_phase,GW/gong.jpg,50.0,1.0,GW/basket.jpg,GW/jukebox.jpg,GW/soldier.jpg,GW/jukebox.jpg,GW/basket.jpg,GW/soldier.jpg,67ce1feb43ee9200186c94b3,old
5864.5,directmemory_phase,GW/dustpan.jpg,49.0,0.0,GW/jukebox.jpg,GW/basket.jpg,GW/camera.jpg,GW/camera.jpg,GW/basket.jpg,GW/jukebox.jpg,67ce1feb43ee9200186c94b3,old
5329.899999976158,directmemory_phase,GW/barrel.jpg,50.0,1.0,GW/teeth.jpg,GW/soldier.jpg,GW/camera.jpg,GW/soldier.jpg,GW/teeth.jpg,GW/camera.jpg,67ce1feb43ee9200186c94b3,old
3440.6999999284744,directmemory_phase,GW/camera.jpg,51.0,1.0,GW/barrel.jpg,GW/jukebox.jpg,GW/basket.jpg,GW/basket.jpg,GW/jukebox.jpg,GW/barrel.jpg,67ce1feb43ee9200186c94b3,old
4082.8000000715256,directmemory_phase,GW/soldier.jpg,51.0,1.0,GW/dustpan.jpg,GW/basket.jpg,GW/hat.jpg,GW/hat.jpg,GW/basket.jpg,GW/dustpan.jpg,67ce1feb43ee9200186c94b3,old
4576.899999976158,directmemory_phase,GW/jukebox.jpg,49.0,1.0,GW/gong.jpg,GW/teeth.jpg,GW/basket.jpg,GW/gong.jpg,GW/basket.jpg,GW/teeth.jpg,67ce1feb43ee9200186c94b3,old
4683.699999928474,directmemory_phase,GW/soldier.jpg,50.0,1.0,GW/snail.jpg,GW/barrel.jpg,GW/paint.jpg,GW/barrel.jpg,GW/snail.jpg,GW/paint.jpg,67ce1feb43ee9200186c94b3,old
3538.600000023842,directmemory_phase,GW/hat.jpg,50.0,0.0,GW/basket.jpg,GW/paint.jpg,GW/camera.jpg,GW/basket.jpg,GW/camera.jpg,GW/paint.jpg,67ce1feb43ee9200186c94b3,old
5152.800000071526,directmemory_phase,GW/globe.jpg,49.0,0.0,GW/hat.jpg,GW/wheelchair.jpg,GW/barrel.jpg,GW/barrel.jpg,GW/wheelchair.jpg,GW/hat.jpg,67ce1feb43ee9200186c94b3,old
,directmemory_phase,GW/camera.jpg,,0.0,GW/snail.jpg,GW/hat.jpg,GW/gong.jpg,GW/gong.jpg,GW/hat.jpg,GW/snail.jpg,67ce1feb43ee9200186c94b3,old
3547.6999999284744,directmemory_phase,GW/wheelchair.jpg,51.0,1.0,GW/camera.jpg,GW/basket.jpg,GW/teeth.jpg,GW/teeth.jpg,GW/basket.jpg,GW/camera.jpg,67ce1feb43ee9200186c94b3,old
3929.3000000715256,directmemory_phase,GW/hat.jpg,51.0,1.0,GW/paint.jpg,GW/barrel.jpg,GW/jukebox.jpg,GW/jukebox.jpg,GW/barrel.jpg,GW/paint.jpg,67ce1feb43ee9200186c94b3,old
5114.299999952316,directmemory_phase,GW/basket.jpg,51.0,0.0,GW/teeth.jpg,GW/paint.jpg,GW/gong.jpg,GW/teeth.jpg,GW/gong.jpg,GW/paint.jpg,67ce1feb43ee9200186c94b3,old
5647.300000071526,directmemory_phase,GW/wheelchair.jpg,50.0,0.0,GW/barrel.jpg,GW/gong.jpg,GW/globe.jpg,GW/barrel.jpg,GW/globe.jpg,GW/gong.jpg,67ce1feb43ee9200186c94b3,old
4355.899999976158,directmemory_phase,GW/teeth.jpg,50.0,0.0,GW/gong.jpg,GW/hat.jpg,GW/basket.jpg,GW/basket.jpg,GW/hat.jpg,GW/gong.jpg,67ce1feb43ee9200186c94b3,old
5583.600000023842,directmemory_phase,GW/hat.jpg,50.0,0.0,GW/soldier.jpg,GW/globe.jpg,GW/camera.jpg,GW/soldier.jpg,GW/camera.jpg,GW/globe.jpg,67ce1feb43ee9200186c94b3,old
4521.5,directmemory_phase,GW/teeth.jpg,51.0,1.0,GW/globe.jpg,GW/camera.jpg,GW/wheelchair.jpg,GW/wheelchair.jpg,GW/camera.jpg,GW/globe.jpg,67ce1feb43ee9200186c94b3,old
4535.600000023842,directmemory_phase,GW/basket.jpg,51.0,1.0,GW/snail.jpg,GW/dustpan.jpg,GW/hat.jpg,GW/hat.jpg,GW/dustpan.jpg,GW/snail.jpg,67ce1feb43ee9200186c94b3,old
4825.0,directmemory_phase,GW/barrel.jpg,49.0,0.0,GW/gong.jpg,GW/teeth.jpg,GW/wheelchair.jpg,GW/wheelchair.jpg,GW/teeth.jpg,GW/gong.jpg,67ce1feb43ee9200186c94b3,old
4258.5,directmemory_phase,GW/gong.jpg,51.0,1.0,GW/wheelchair.jpg,GW/hat.jpg,GW/paint.jpg,GW/paint.jpg,GW/hat.jpg,GW/wheelchair.jpg,67ce1feb43ee9200186c94b3,old
4622.899999976158,directmemory_phase,GW/barrel.jpg,51.0,1.0,GW/jukebox.jpg,GW/hat.jpg,GW/globe.jpg,GW/globe.jpg,GW/hat.jpg,GW/jukebox.jpg,67ce1feb43ee9200186c94b3,old
2760.0,directmemory_phase,GW/soldier.jpg,49.0,0.0,GW/paint.jpg,GW/basket.jpg,GW/wheelchair.jpg,GW/wheelchair.jpg,GW/basket.jpg,GW/paint.jpg,67ce1feb43ee9200186c94b3,old
3514.0,directmemory_phase,GW/jukebox.jpg,49.0,0.0,GW/snail.jpg,GW/paint.jpg,GW/hat.jpg,GW/hat.jpg,GW/paint.jpg,GW/snail.jpg,67ce1feb43ee9200186c94b3,old
3386.0,directmemory_phase,GW/teeth.jpg,51.0,0.0,GW/soldier.jpg,GW/gong.jpg,GW/hat.jpg,GW/soldier.jpg,GW/hat.jpg,GW/gong.jpg,67ce1feb43ee9200186c94b3,old
3864.399999976158,directmemory_phase,GW/paint.jpg,49.0,1.0,GW/gong.jpg,GW/basket.jpg,GW/camera.jpg,GW/gong.jpg,GW/camera.jpg,GW/basket.jpg,67ce1feb43ee9200186c94b3,old
4194.299999952316,directmemory_phase,GW/wheelchair.jpg,49.0,1.0,GW/snail.jpg,GW/gong.jpg,GW/basket.jpg,GW/snail.jpg,GW/basket.jpg,GW/gong.jpg,67ce1feb43ee9200186c94b3,old
3848.100000023842,directmemory_phase,GW/gong.jpg,49.0,0.0,GW/soldier.jpg,GW/hat.jpg,GW/camera.jpg,GW/camera.jpg,GW/hat.jpg,GW/soldier.jpg,67ce1feb43ee9200186c94b3,old
3185.0,directmemory_phase,GW/soldier.jpg,49.0,0.0,GW/gong.jpg,GW/basket.jpg,GW/teeth.jpg,GW/teeth.jpg,GW/basket.jpg,GW/gong.jpg,67ce1feb43ee9200186c94b3,old
3969.600000023842,directmemory_phase,GW/camera.jpg,50.0,0.0,GW/dustpan.jpg,GW/soldier.jpg,GW/jukebox.jpg,GW/dustpan.jpg,GW/jukebox.jpg,GW/soldier.jpg,67ce1feb43ee9200186c94b3,old
3364.600000023842,directmemory_phase,GW/wheelchair.jpg,49.0,0.0,GW/jukebox.jpg,GW/globe.jpg,GW/soldier.jpg,GW/soldier.jpg,GW/globe.jpg,GW/jukebox.jpg,67ce1feb43ee9200186c94b3,old
3873.100000023842,directmemory_phase,GW/basket.jpg,51.0,0.0,GW/dustpan.jpg,GW/camera.jpg,GW/barrel.jpg,GW/camera.jpg,GW/dustpan.jpg,GW/barrel.jpg,67ce1feb43ee9200186c94b3,old
3257.7999999523163,directmemory_phase,GW/snail.jpg,51.0,1.0,GW/jukebox.jpg,GW/soldier.jpg,GW/wheelchair.jpg,GW/wheelchair.jpg,GW/soldier.jpg,GW/jukebox.jpg,67ce1feb43ee9200186c94b3,old
2077.7999999988824,directmemory_phase,GW/jukebox.jpg,51.0,0.0,GW/snail.jpg,GW/globe.jpg,GW/barrel.jpg,GW/snail.jpg,GW/barrel.jpg,GW/globe.jpg,5bcc60b95c2b810001dc68e2,young
2533.89999999851,directmemory_phase,GW/teeth.jpg,49.0,0.0,GW/jukebox.jpg,GW/hat.jpg,GW/globe.jpg,GW/globe.jpg,GW/hat.jpg,GW/jukebox.jpg,5bcc60b95c2b810001dc68e2,young
2868.699999999255,directmemory_phase,GW/gong.jpg,49.0,1.0,GW/dustpan.jpg,GW/wheelchair.jpg,GW/paint.jpg,GW/dustpan.jpg,GW/paint.jpg,GW/wheelchair.jpg,5bcc60b95c2b810001dc68e2,young
1668.9000000003723,directmemory_phase,GW/barrel.jpg,50.0,0.0,GW/teeth.jpg,GW/snail.jpg,GW/paint.jpg,GW/paint.jpg,GW/snail.jpg,GW/teeth.jpg,5bcc60b95c2b810001dc68e2,young
2156.9000000003725,directmemory_phase,GW/gong.jpg,49.0,1.0,GW/snail.jpg,GW/camera.jpg,GW/globe.jpg,GW/snail.jpg,GW/globe.jpg,GW/camera.jpg,5bcc60b95c2b810001dc68e2,young
1301.5999999996277,directmemory_phase,GW/wheelchair.jpg,51.0,0.0,GW/barrel.jpg,GW/jukebox.jpg,GW/paint.jpg,GW/barrel.jpg,GW/paint.jpg,GW/jukebox.jpg,5bcc60b95c2b810001dc68e2,young
1274.800000000745,directmemory_phase,GW/dustpan.jpg,50.0,0.0,GW/basket.jpg,GW/globe.jpg,GW/teeth.jpg,GW/teeth.jpg,GW/globe.jpg,GW/basket.jpg,5bcc60b95c2b810001dc68e2,young
1363.2000000011176,directmemory_phase,GW/snail.jpg,50.0,0.0,GW/soldier.jpg,GW/dustpan.jpg,GW/gong.jpg,GW/gong.jpg,GW/dustpan.jpg,GW/soldier.jpg,5bcc60b95c2b810001dc68e2,young
854.2000000011176,directmemory_phase,GW/jukebox.jpg,50.0,0.0,GW/hat.jpg,GW/wheelchair.jpg,GW/paint.jpg,GW/hat.jpg,GW/paint.jpg,GW/wheelchair.jpg,5bcc60b95c2b810001dc68e2,young
1704.5999999996277,directmemory_phase,GW/gong.jpg,51.0,1.0,GW/wheelchair.jpg,GW/globe.jpg,GW/teeth.jpg,GW/teeth.jpg,GW/globe.jpg,GW/wheelchair.jpg,5bcc60b95c2b810001dc68e2,young
943.0,directmemory_phase,GW/snail.jpg,51.0,0.0,GW/paint.jpg,GW/soldier.jpg,GW/barrel.jpg,GW/paint.jpg,GW/barrel.jpg,GW/soldier.jpg,5bcc60b95c2b810001dc68e2,young
1704.9000000003723,directmemory_phase,GW/gong.jpg,49.0,0.0,GW/soldier.jpg,GW/hat.jpg,GW/basket.jpg,GW/hat.jpg,GW/soldier.jpg,GW/basket.jpg,5bcc60b95c2b810001dc68e2,young
1479.7000000011176,directmemory_phase,GW/barrel.jpg,50.0,0.0,GW/hat.jpg,GW/snail.jpg,GW/wheelchair.jpg,GW/wheelchair.jpg,GW/snail.jpg,GW/hat.jpg,5bcc60b95c2b810001dc68e2,young
2950.0,directmemory_phase,GW/dustpan.jpg,49.0,0.0,GW/jukebox.jpg,GW/gong.jpg,GW/basket.jpg,GW/gong.jpg,GW/jukebox.jpg,GW/basket.jpg,5bcc60b95c2b810001dc68e2,young
1371.2999999988824,directmemory_phase,GW/paint.jpg,50.0,1.0,GW/gong.jpg,GW/snail.jpg,GW/hat.jpg,GW/snail.jpg,GW/gong.jpg,GW/hat.jpg,5bcc60b95c2b810001dc68e2,young
1834.300000000745,directmemory_phase,GW/hat.jpg,51.0,1.0,GW/paint.jpg,GW/soldier.jpg,GW/dustpan.jpg,GW/dustpan.jpg,GW/soldier.jpg,GW/paint.jpg,5bcc60b95c2b810001dc68e2,young
3533.800000000745,directmemory_phase,GW/teeth.jpg,50.0,0.0,GW/barrel.jpg,GW/snail.jpg,GW/gong.jpg,GW/gong.jpg,GW/snail.jpg,GW/barrel.jpg,5bcc60b95c2b810001dc68e2,young
1991.5999999996277,directmemory_phase,GW/paint.jpg,49.0,0.0,GW/camera.jpg,GW/jukebox.jpg,GW/barrel.jpg,GW/barrel.jpg,GW/jukebox.jpg,GW/camera.jpg,5bcc60b95c2b810001dc68e2,young
2147.0999999996275,directmemory_phase,GW/dustpan.jpg,50.0,0.0,GW/camera.jpg,GW/snail.jpg,GW/soldier.jpg,GW/soldier.jpg,GW/snail.jpg,GW/camera.jpg,5bcc60b95c2b810001dc68e2,young
2636.199999999255,directmemory_phase,GW/camera.jpg,49.0,0.0,GW/barrel.jpg,GW/basket.jpg,GW/paint.jpg,GW/basket.jpg,GW/barrel.jpg,GW/paint.jpg,5bcc60b95c2b810001dc68e2,young
2580.2000000011176,directmemory_phase,GW/soldier.jpg,49.0,1.0,GW/dustpan.jpg,GW/basket.jpg,GW/gong.jpg,GW/dustpan.jpg,GW/gong.jpg,GW/basket.jpg,5bcc60b95c2b810001dc68e2,young
2668.60000000149,directmemory_phase,GW/hat.jpg,50.0,0.0,GW/gong.jpg,GW/camera.jpg,GW/soldier.jpg,GW/gong.jpg,GW/soldier.jpg,GW/camera.jpg,5bcc60b95c2b810001dc68e2,young
1851.0,directmemory_phase,GW/teeth.jpg,50.0,1.0,GW/snail.jpg,GW/dustpan.jpg,GW/jukebox.jpg,GW/dustpan.jpg,GW/snail.jpg,GW/jukebox.jpg,5bcc60b95c2b810001dc68e2,young
1023.0999999996276,directmemory_phase,GW/jukebox.jpg,50.0,1.0,GW/dustpan.jpg,GW/basket.jpg,GW/soldier.jpg,GW/basket.jpg,GW/dustpan.jpg,GW/soldier.jpg,5bcc60b95c2b810001dc68e2,young
2357.0,directmemory_phase,GW/dustpan.jpg,49.0,0.0,GW/barrel.jpg,GW/globe.jpg,GW/hat.jpg,GW/hat.jpg,GW/globe.jpg,GW/barrel.jpg,5bcc60b95c2b810001dc68e2,young
2528.4000000003725,directmemory_phase,GW/globe.jpg,51.0,0.0,GW/teeth.jpg,GW/snail.jpg,GW/dustpan.jpg,GW/teeth.jpg,GW/dustpan.jpg,GW/snail.jpg,5bcc60b95c2b810001dc68e2,young
1733.9000000003723,directmemory_phase,GW/hat.jpg,51.0,0.0,GW/jukebox.jpg,GW/wheelchair.jpg,GW/snail.jpg,GW/jukebox.jpg,GW/snail.jpg,GW/wheelchair.jpg,5bcc60b95c2b810001dc68e2,young
1773.10000000149,directmemory_phase,GW/basket.jpg,50.0,0.0,GW/gong.jpg,GW/snail.jpg,GW/camera.jpg,GW/camera.jpg,GW/snail.jpg,GW/gong.jpg,5bcc60b95c2b810001dc68e2,young
747.3000000007451,directmemory_phase,GW/snail.jpg,50.0,1.0,GW/basket.jpg,GW/jukebox.jpg,GW/camera.jpg,GW/jukebox.jpg,GW/basket.jpg,GW/camera.jpg,5bcc60b95c2b810001dc68e2,young
908.8000000007452,directmemory_phase,GW/barrel.jpg,50.0,0.0,GW/basket.jpg,GW/hat.jpg,GW/snail.jpg,GW/basket.jpg,GW/snail.jpg,GW/hat.jpg,5bcc60b95c2b810001dc68e2,young
1463.7999999988824,directmemory_phase,,50.0,1.0,,,,,,,5bcc60b95c2b810001dc68e2,young
1568.2999999988824,directmemory_phase,,49.0,1.0,,,,,,,5bcc60b95c2b810001dc68e2,young
2481.2999999523163,directmemory_phase,GW/gong.jpg,50.0,1.0,GW/barrel.jpg,GW/dustpan.jpg,GW/camera.jpg,GW/dustpan.jpg,GW/barrel.jpg,GW/camera.jpg,6550de88683355a74699844c,young
3829.0,directmemory_phase,GW/hat.jpg,51.0,1.0,GW/soldier.jpg,GW/jukebox.jpg,GW/teeth.jpg,GW/teeth.jpg,GW/jukebox.jpg,GW/soldier.jpg,6550de88683355a74699844c,young
1501.4000000953674,directmemory_phase,GW/soldier.jpg,49.0,1.0,GW/wheelchair.jpg,GW/hat.jpg,GW/snail.jpg,GW/wheelchair.jpg,GW/snail.jpg,GW/hat.jpg,6550de88683355a74699844c,young
3045.399999976158,directmemory_phase,GW/dustpan.jpg,49.0,1.0,GW/hat.jpg,GW/snail.jpg,GW/barrel.jpg,GW/hat.jpg,GW/barrel.jpg,GW/snail.jpg,6550de88683355a74699844c,young
2525.1999999284744,directmemory_phase,GW/snail.jpg,50.0,1.0,GW/paint.jpg,GW/barrel.jpg,GW/dustpan.jpg,GW/barrel.jpg,GW/paint.jpg,GW/dustpan.jpg,6550de88683355a74699844c,young
3211.899999976158,directmemory_phase,GW/gong.jpg,49.0,1.0,GW/hat.jpg,GW/snail.jpg,GW/globe.jpg,GW/hat.jpg,GW/globe.jpg,GW/snail.jpg,6550de88683355a74699844c,young
1588.100000023842,directmemory_phase,GW/globe.jpg,50.0,1.0,GW/hat.jpg,GW/dustpan.jpg,GW/paint.jpg,GW/dustpan.jpg,GW/hat.jpg,GW/paint.jpg,6550de88683355a74699844c,young
2758.5,directmemory_phase,GW/snail.jpg,49.0,0.0,GW/hat.jpg,GW/wheelchair.jpg,GW/dustpan.jpg,GW/wheelchair.jpg,GW/hat.jpg,GW/dustpan.jpg,6550de88683355a74699844c,young
1223.100000023842,directmemory_phase,GW/basket.jpg,49.0,1.0,GW/camera.jpg,GW/jukebox.jpg,GW/soldier.jpg,GW/camera.jpg,GW/soldier.jpg,GW/jukebox.jpg,6550de88683355a74699844c,young
2238.7999999523163,directmemory_phase,GW/barrel.jpg,50.0,0.0,GW/camera.jpg,GW/teeth.jpg,GW/snail.jpg,GW/snail.jpg,GW/teeth.jpg,GW/camera.jpg,6550de88683355a74699844c,young
3820.700000047684,directmemory_phase,GW/hat.jpg,51.0,1.0,GW/basket.jpg,GW/paint.jpg,GW/dustpan.jpg,GW/dustpan.jpg,GW/paint.jpg,GW/basket.jpg,6550de88683355a74699844c,young
3097.6999999284744,directmemory_phase,GW/basket.jpg,51.0,0.0,GW/teeth.jpg,GW/wheelchair.jpg,GW/hat.jpg,GW/wheelchair.jpg,GW/teeth.jpg,GW/hat.jpg,6550de88683355a74699844c,young
1388.7000000476835,directmemory_phase,GW/paint.jpg,49.0,1.0,GW/barrel.jpg,GW/soldier.jpg,GW/wheelchair.jpg,GW/barrel.jpg,GW/wheelchair.jpg,GW/soldier.jpg,6550de88683355a74699844c,young
1144.0,directmemory_phase,GW/wheelchair.jpg,51.0,1.0,GW/teeth.jpg,GW/camera.jpg,GW/soldier.jpg,GW/soldier.jpg,GW/camera.jpg,GW/teeth.jpg,6550de88683355a74699844c,young
1081.0,directmemory_phase,GW/dustpan.jpg,49.0,1.0,GW/globe.jpg,GW/snail.jpg,GW/teeth.jpg,GW/globe.jpg,GW/teeth.jpg,GW/snail.jpg,6550de88683355a74699844c,young
2929.7000000476837,directmemory_phase,GW/wheelchair.jpg,49.0,1.0,GW/snail.jpg,GW/hat.jpg,GW/camera.jpg,GW/snail.jpg,GW/camera.jpg,GW/hat.jpg,6550de88683355a74699844c,young
1286.3000000715256,directmemory_phase,GW/paint.jpg,51.0,1.0,GW/globe.jpg,GW/camera.jpg,GW/basket.jpg,GW/basket.jpg,GW/camera.jpg,GW/globe.jpg,6550de88683355a74699844c,young
2472.600000023842,directmemory_phase,GW/gong.jpg,49.0,1.0,GW/teeth.jpg,GW/snail.jpg,GW/barrel.jpg,GW/teeth.jpg,GW/barrel.jpg,GW/snail.jpg,6550de88683355a74699844c,young
1384.2999999523165,directmemory_phase,GW/barrel.jpg,49.0,1.0,GW/paint.jpg,GW/jukebox.jpg,GW/gong.jpg,GW/paint.jpg,GW/gong.jpg,GW/jukebox.jpg,6550de88683355a74699844c,young
2050.2000000476837,directmemory_phase,GW/jukebox.jpg,49.0,1.0,GW/gong.jpg,GW/paint.jpg,GW/hat.jpg,GW/gong.jpg,GW/hat.jpg,GW/paint.jpg,6550de88683355a74699844c,young
1342.2999999523165,directmemory_phase,GW/basket.jpg,51.0,1.0,GW/hat.jpg,GW/soldier.jpg,GW/paint.jpg,GW/paint.jpg,GW/soldier.jpg,GW/hat.jpg,6550de88683355a74699844c,young
3399.8000000715256,directmemory_phase,GW/barrel.jpg,51.0,0.0,GW/hat.jpg,GW/globe.jpg,GW/dustpan.jpg,GW/hat.jpg,GW/dustpan.jpg,GW/globe.jpg,6550de88683355a74699844c,young
3498.899999976158,directmemory_phase,GW/teeth.jpg,51.0,1.0,GW/snail.jpg,GW/jukebox.jpg,GW/gong.jpg,GW/gong.jpg,GW/jukebox.jpg,GW/snail.jpg,6550de88683355a74699844c,young
1234.5,directmemory_phase,GW/hat.jpg,51.0,1.0,GW/basket.jpg,GW/globe.jpg,GW/barrel.jpg,GW/barrel.jpg,GW/globe.jpg,GW/basket.jpg,6550de88683355a74699844c,young
2204.6999999284744,directmemory_phase,GW/wheelchair.jpg,49.0,0.0,GW/teeth.jpg,GW/camera.jpg,GW/basket.jpg,GW/basket.jpg,GW/camera.jpg,GW/teeth.jpg,6550de88683355a74699844c,young
1586.600000023842,directmemory_phase,GW/paint.jpg,49.0,0.0,GW/dustpan.jpg,GW/wheelchair.jpg,GW/teeth.jpg,GW/teeth.jpg,GW/wheelchair.jpg,GW/dustpan.jpg,6550de88683355a74699844c,young
4238.700000047684,directmemory_phase,GW/gong.jpg,51.0,0.0,GW/paint.jpg,GW/jukebox.jpg,GW/wheelchair.jpg,GW/jukebox.jpg,GW/paint.jpg,GW/wheelchair.jpg,6550de88683355a74699844c,young
2163.399999976158,directmemory_phase,GW/teeth.jpg,49.0,1.0,GW/paint.jpg,GW/soldier.jpg,GW/barrel.jpg,GW/paint.jpg,GW/barrel.jpg,GW/soldier.jpg,6550de88683355a74699844c,young
2688.100000023842,directmemory_phase,GW/hat.jpg,49.0,1.0,GW/gong.jpg,GW/camera.jpg,GW/globe.jpg,GW/gong.jpg,GW/globe.jpg,GW/camera.jpg,6550de88683355a74699844c,young
1345.100000023842,directmemory_phase,GW/camera.jpg,51.0,1.0,GW/hat.jpg,GW/wheelchair.jpg,GW/basket.jpg,GW/basket.jpg,GW/wheelchair.jpg,GW/hat.jpg,6550de88683355a74699844c,young
1443.7999999523165,directmemory_phase,GW/teeth.jpg,50.0,0.0,GW/hat.jpg,GW/soldier.jpg,GW/basket.jpg,GW/hat.jpg,GW/basket.jpg,GW/soldier.jpg,6550de88683355a74699844c,young
1735.4000000953674,directmemory_phase,GW/dustpan.jpg,49.0,1.0,GW/gong.jpg,GW/snail.jpg,GW/jukebox.jpg,GW/gong.jpg,GW/jukebox.jpg,GW/snail.jpg,6550de88683355a74699844c,young
,directmemory_phase,GW/hat.jpg,,0.0,GW/jukebox.jpg,GW/teeth.jpg,GW/wheelchair.jpg,GW/jukebox.jpg,GW/wheelchair.jpg,GW/teeth.jpg,67e2f86dfcb60829d2e451d3,old
,directmemory_phase,GW/globe.jpg,,0.0,GW/soldier.jpg,GW/hat.jpg,GW/barrel.jpg,GW/barrel.jpg,GW/hat.jpg,GW/soldier.jpg,67e2f86dfcb60829d2e451d3,old
1910.2999999523165,directmemory_phase,GW/dustpan.jpg,49.0,0.0,GW/jukebox.jpg,GW/hat.jpg,GW/wheelchair.jpg,GW/hat.jpg,GW/jukebox.jpg,GW/wheelchair.jpg,67e2f86dfcb60829d2e451d3,old
3558.5,directmemory_phase,GW/wheelchair.jpg,49.0,1.0,GW/barrel.jpg,GW/teeth.jpg,GW/paint.jpg,GW/barrel.jpg,GW/paint.jpg,GW/teeth.jpg,67e2f86dfcb60829d2e451d3,old
2111.100000023842,directmemory_phase,GW/snail.jpg,49.0,1.0,GW/dustpan.jpg,GW/wheelchair.jpg,GW/jukebox.jpg,GW/dustpan.jpg,GW/jukebox.jpg,GW/wheelchair.jpg,67e2f86dfcb60829d2e451d3,old
1887.7000000476835,directmemory_phase,GW/camera.jpg,49.0,1.0,GW/gong.jpg,GW/hat.jpg,GW/jukebox.jpg,GW/gong.jpg,GW/jukebox.jpg,GW/hat.jpg,67e2f86dfcb60829d2e451d3,old
1634.2999999523165,directmemory_phase,GW/dustpan.jpg,50.0,1.0,GW/jukebox.jpg,GW/basket.jpg,GW/camera.jpg,GW/basket.jpg,GW/jukebox.jpg,GW/camera.jpg,67e2f86dfcb60829d2e451d3,old
3005.1999999284744,directmemory_phase,GW/jukebox.jpg,50.0,0.0,GW/wheelchair.jpg,GW/paint.jpg,GW/camera.jpg,GW/wheelchair.jpg,GW/camera.jpg,GW/paint.jpg,67e2f86dfcb60829d2e451d3,old
1955.899999976158,directmemory_phase,GW/soldier.jpg,50.0,0.0,GW/gong.jpg,GW/snail.jpg,GW/barrel.jpg,GW/gong.jpg,GW/barrel.jpg,GW/snail.jpg,67e2f86dfcb60829d2e451d3,old
2715.100000023842,directmemory_phase,GW/barrel.jpg,51.0,1.0,GW/teeth.jpg,GW/jukebox.jpg,GW/globe.jpg,GW/globe.jpg,GW/jukebox.jpg,GW/teeth.jpg,67e2f86dfcb60829d2e451d3,old
2040.600000023842,directmemory_phase,GW/paint.jpg,50.0,0.0,GW/hat.jpg,GW/gong.jpg,GW/camera.jpg,GW/camera.jpg,GW/gong.jpg,GW/hat.jpg,67e2f86dfcb60829d2e451d3,old
1081.899999976158,directmemory_phase,GW/gong.jpg,51.0,0.0,GW/globe.jpg,GW/barrel.jpg,GW/snail.jpg,GW/barrel.jpg,GW/globe.jpg,GW/snail.jpg,67e2f86dfcb60829d2e451d3,old
1597.9000000953674,directmemory_phase,GW/jukebox.jpg,49.0,0.0,GW/soldier.jpg,GW/dustpan.jpg,GW/globe.jpg,GW/globe.jpg,GW/dustpan.jpg,GW/soldier.jpg,67e2f86dfcb60829d2e451d3,old
2668.399999976158,directmemory_phase,GW/gong.jpg,51.0,0.0,GW/camera.jpg,GW/dustpan.jpg,GW/paint.jpg,GW/camera.jpg,GW/paint.jpg,GW/dustpan.jpg,67e2f86dfcb60829d2e451d3,old
1247.2999999523165,directmemory_phase,GW/barrel.jpg,50.0,0.0,GW/teeth.jpg,GW/jukebox.jpg,GW/wheelchair.jpg,GW/wheelchair.jpg,GW/jukebox.jpg,GW/teeth.jpg,67e2f86dfcb60829d2e451d3,old
1863.2000000476835,directmemory_phase,GW/dustpan.jpg,50.0,0.0,GW/wheelchair.jpg,GW/globe.jpg,GW/snail.jpg,GW/snail.jpg,GW/globe.jpg,GW/wheelchair.jpg,67e2f86dfcb60829d2e451d3,old
1557.600000023842,directmemory_phase,GW/wheelchair.jpg,51.0,1.0,GW/basket.jpg,GW/paint.jpg,GW/camera.jpg,GW/camera.jpg,GW/paint.jpg,GW/basket.jpg,67e2f86dfcb60829d2e451d3,old
1864.100000023842,directmemory_phase,GW/globe.jpg,51.0,0.0,GW/snail.jpg,GW/paint.jpg,GW/dustpan.jpg,GW/snail.jpg,GW/dustpan.jpg,GW/paint.jpg,67e2f86dfcb60829d2e451d3,old
2140.7000000476837,directmemory_phase,GW/gong.jpg,49.0,0.0,GW/hat.jpg,GW/globe.jpg,GW/wheelchair.jpg,GW/wheelchair.jpg,GW/globe.jpg,GW/hat.jpg,67e2f86dfcb60829d2e451d3,old
2071.0,directmemory_phase,GW/jukebox.jpg,51.0,1.0,GW/paint.jpg,GW/barrel.jpg,GW/hat.jpg,GW/hat.jpg,GW/barrel.jpg,GW/paint.jpg,67e2f86dfcb60829d2e451d3,old
1477.2000000476835,directmemory_phase,GW/camera.jpg,51.0,1.0,GW/dustpan.jpg,GW/barrel.jpg,GW/wheelchair.jpg,GW/wheelchair.jpg,GW/barrel.jpg,GW/dustpan.jpg,67e2f86dfcb60829d2e451d3,old
2141.7000000476837,directmemory_phase,GW/snail.jpg,50.0,1.0,GW/basket.jpg,GW/teeth.jpg,GW/gong.jpg,GW/teeth.jpg,GW/basket.jpg,GW/gong.jpg,67e2f86dfcb60829d2e451d3,old
2284.399999976158,directmemory_phase,GW/camera.jpg,50.0,1.0,GW/barrel.jpg,GW/paint.jpg,GW/globe.jpg,GW/paint.jpg,GW/barrel.jpg,GW/globe.jpg,67e2f86dfcb60829d2e451d3,old
2459.600000023842,directmemory_phase,GW/wheelchair.jpg,51.0,1.0,GW/snail.jpg,GW/paint.jpg,GW/jukebox.jpg,GW/jukebox.jpg,GW/paint.jpg,GW/snail.jpg,67e2f86dfcb60829d2e451d3,old
1789.2000000476835,directmemory_phase,GW/teeth.jpg,50.0,0.0,GW/snail.jpg,GW/jukebox.jpg,GW/dustpan.jpg,GW/snail.jpg,GW/dustpan.jpg,GW/jukebox.jpg,67e2f86dfcb60829d2e451d3,old
2224.399999976158,directmemory_phase,GW/hat.jpg,49.0,1.0,GW/dustpan.jpg,GW/camera.jpg,GW/wheelchair.jpg,GW/dustpan.jpg,GW/wheelchair.jpg,GW/camera.jpg,67e2f86dfcb60829d2e451d3,old
1527.5,directmemory_phase,GW/snail.jpg,50.0,0.0,GW/camera.jpg,GW/barrel.jpg,GW/globe.jpg,GW/globe.jpg,GW/barrel.jpg,GW/camera.jpg,67e2f86dfcb60829d2e451d3,old
1712.2000000476835,directmemory_phase,GW/basket.jpg,51.0,0.0,GW/dustpan.jpg,GW/jukebox.jpg,GW/hat.jpg,GW/dustpan.jpg,GW/hat.jpg,GW/jukebox.jpg,67e2f86dfcb60829d2e451d3,old
1061.5,directmemory_phase,GW/gong.jpg,50.0,0.0,GW/snail.jpg,GW/paint.jpg,GW/soldier.jpg,GW/soldier.jpg,GW/paint.jpg,GW/snail.jpg,67e2f86dfcb60829d2e451d3,old
1207.1999999284744,directmemory_phase,GW/globe.jpg,51.0,0.0,GW/jukebox.jpg,GW/camera.jpg,GW/dustpan.jpg,GW/jukebox.jpg,GW/dustpan.jpg,GW/camera.jpg,67e2f86dfcb60829d2e451d3,old
1526.5,directmemory_phase,GW/barrel.jpg,50.0,0.0,GW/paint.jpg,GW/jukebox.jpg,GW/gong.jpg,GW/gong.jpg,GW/jukebox.jpg,GW/paint.jpg,67e2f86dfcb60829d2e451d3,old
,directmemory_phase,,,0.0,,,,,,,67e2f86dfcb60829d2e451d3,old
2279.0,directmemory_phase,GW/camera.jpg,51.0,1.0,GW/soldier.jpg,GW/dustpan.jpg,GW/globe.jpg,GW/globe.jpg,GW/dustpan.jpg,GW/soldier.jpg,6526f601bedbae17738408b1,old
1594.199999988079,directmemory_phase,GW/teeth.jpg,51.0,1.0,GW/camera.jpg,GW/jukebox.jpg,GW/hat.jpg,GW/hat.jpg,GW/jukebox.jpg,GW/camera.jpg,6526f601bedbae17738408b1,old
2074.5,directmemory_phase,GW/barrel.jpg,50.0,1.0,GW/camera.jpg,GW/globe.jpg,GW/wheelchair.jpg,GW/globe.jpg,GW/camera.jpg,GW/wheelchair.jpg,6526f601bedbae17738408b1,old
1088.0,directmemory_phase,GW/soldier.jpg,51.0,1.0,GW/camera.jpg,GW/barrel.jpg,GW/hat.jpg,GW/hat.jpg,GW/barrel.jpg,GW/camera.jpg,6526f601bedbae17738408b1,old
2446.400000035763,directmemory_phase,GW/globe.jpg,50.0,1.0,GW/jukebox.jpg,GW/barrel.jpg,GW/paint.jpg,GW/barrel.jpg,GW/jukebox.jpg,GW/paint.jpg,6526f601bedbae17738408b1,old
1411.100000023842,directmemory_phase,GW/basket.jpg,50.0,1.0,GW/camera.jpg,GW/dustpan.jpg,GW/teeth.jpg,GW/dustpan.jpg,GW/camera.jpg,GW/teeth.jpg,6526f601bedbae17738408b1,old
2113.199999988079,directmemory_phase,GW/camera.jpg,51.0,0.0,GW/jukebox.jpg,GW/teeth.jpg,GW/hat.jpg,GW/jukebox.jpg,GW/hat.jpg,GW/teeth.jpg,6526f601bedbae17738408b1,old
1062.100000023842,directmemory_phase,GW/dustpan.jpg,51.0,1.0,GW/wheelchair.jpg,GW/camera.jpg,GW/basket.jpg,GW/basket.jpg,GW/camera.jpg,GW/wheelchair.jpg,6526f601bedbae17738408b1,old
2147.399999976158,directmemory_phase,GW/teeth.jpg,51.0,1.0,GW/dustpan.jpg,GW/jukebox.jpg,GW/barrel.jpg,GW/barrel.jpg,GW/jukebox.jpg,GW/dustpan.jpg,6526f601bedbae17738408b1,old
1772.199999988079,directmemory_phase,GW/basket.jpg,51.0,1.0,GW/barrel.jpg,GW/camera.jpg,GW/snail.jpg,GW/snail.jpg,GW/camera.jpg,GW/barrel.jpg,6526f601bedbae17738408b1,old
2140.699999988079,directmemory_phase,GW/jukebox.jpg,51.0,0.0,GW/dustpan.jpg,GW/gong.jpg,GW/teeth.jpg,GW/dustpan.jpg,GW/teeth.jpg,GW/gong.jpg,6526f601bedbae17738408b1,old
1094.5,directmemory_phase,GW/snail.jpg,51.0,1.0,GW/teeth.jpg,GW/globe.jpg,GW/basket.jpg,GW/basket.jpg,GW/globe.jpg,GW/teeth.jpg,6526f601bedbae17738408b1,old
1810.399999976158,directmemory_phase,GW/globe.jpg,51.0,1.0,GW/basket.jpg,GW/snail.jpg,GW/hat.jpg,GW/hat.jpg,GW/snail.jpg,GW/basket.jpg,6526f601bedbae17738408b1,old
1230.899999976158,directmemory_phase,GW/snail.jpg,49.0,1.0,GW/wheelchair.jpg,GW/soldier.jpg,GW/gong.jpg,GW/wheelchair.jpg,GW/gong.jpg,GW/soldier.jpg,6526f601bedbae17738408b1,old
2430.399999976158,directmemory_phase,GW/globe.jpg,49.0,0.0,GW/soldier.jpg,GW/camera.jpg,GW/dustpan.jpg,GW/camera.jpg,GW/soldier.jpg,GW/dustpan.jpg,6526f601bedbae17738408b1,old
1831.199999988079,directmemory_phase,GW/hat.jpg,50.0,1.0,GW/jukebox.jpg,GW/soldier.jpg,GW/wheelchair.jpg,GW/soldier.jpg,GW/jukebox.jpg,GW/wheelchair.jpg,6526f601bedbae17738408b1,old
1352.899999976158,directmemory_phase,GW/barrel.jpg,50.0,1.0,GW/dustpan.jpg,GW/jukebox.jpg,GW/wheelchair.jpg,GW/jukebox.jpg,GW/dustpan.jpg,GW/wheelchair.jpg,6526f601bedbae17738408b1,old
1220.0,directmemory_phase,GW/teeth.jpg,51.0,1.0,GW/dustpan.jpg,GW/soldier.jpg,GW/paint.jpg,GW/paint.jpg,GW/soldier.jpg,GW/dustpan.jpg,6526f601bedbae17738408b1,old
1180.899999976158,directmemory_phase,GW/wheelchair.jpg,50.0,1.0,GW/camera.jpg,GW/snail.jpg,GW/gong.jpg,GW/snail.jpg,GW/camera.jpg,GW/gong.jpg,6526f601bedbae17738408b1,old
937.2000000476836,directmemory_phase,GW/paint.jpg,51.0,1.0,GW/dustpan.jpg,GW/barrel.jpg,GW/teeth.jpg,GW/teeth.jpg,GW/barrel.jpg,GW/dustpan.jpg,6526f601bedbae17738408b1,old
2261.400000035763,directmemory_phase,GW/camera.jpg,51.0,1.0,GW/gong.jpg,GW/wheelchair.jpg,GW/snail.jpg,GW/snail.jpg,GW/wheelchair.jpg,GW/gong.jpg,6526f601bedbae17738408b1,old
2274.899999976158,directmemory_phase,GW/hat.jpg,50.0,1.0,GW/jukebox.jpg,GW/teeth.jpg,GW/snail.jpg,GW/teeth.jpg,GW/jukebox.jpg,GW/snail.jpg,6526f601bedbae17738408b1,old
1131.399999976158,directmemory_phase,GW/snail.jpg,51.0,1.0,GW/barrel.jpg,GW/gong.jpg,GW/camera.jpg,GW/camera.jpg,GW/gong.jpg,GW/barrel.jpg,6526f601bedbae17738408b1,old
1022.6999999880792,directmemory_phase,GW/jukebox.jpg,49.0,1.0,GW/barrel.jpg,GW/soldier.jpg,GW/basket.jpg,GW/barrel.jpg,GW/basket.jpg,GW/soldier.jpg,6526f601bedbae17738408b1,old
1806.0,directmemory_phase,GW/basket.jpg,51.0,1.0,GW/globe.jpg,GW/wheelchair.jpg,GW/gong.jpg,GW/gong.jpg,GW/wheelchair.jpg,GW/globe.jpg,6526f601bedbae17738408b1,old
3302.599999964237,directmemory_phase,GW/barrel.jpg,49.0,0.0,GW/snail.jpg,GW/camera.jpg,GW/teeth.jpg,GW/teeth.jpg,GW/camera.jpg,GW/snail.jpg,6526f601bedbae17738408b1,old
1091.9000000357628,directmemory_phase,GW/gong.jpg,51.0,1.0,GW/jukebox.jpg,GW/dustpan.jpg,GW/basket.jpg,GW/basket.jpg,GW/dustpan.jpg,GW/jukebox.jpg,6526f601bedbae17738408b1,old
1959.300000011921,directmemory_phase,GW/hat.jpg,49.0,1.0,GW/globe.jpg,GW/wheelchair.jpg,GW/paint.jpg,GW/globe.jpg,GW/paint.jpg,GW/wheelchair.jpg,6526f601bedbae17738408b1,old
2830.800000011921,directmemory_phase,GW/jukebox.jpg,51.0,1.0,GW/soldier.jpg,GW/globe.jpg,GW/camera.jpg,GW/camera.jpg,GW/globe.jpg,GW/soldier.jpg,6526f601bedbae17738408b1,old
3770.100000023842,directmemory_phase,GW/hat.jpg,51.0,1.0,GW/dustpan.jpg,GW/paint.jpg,GW/barrel.jpg,GW/barrel.jpg,GW/paint.jpg,GW/dustpan.jpg,6526f601bedbae17738408b1,old
2197.0,directmemory_phase,GW/dustpan.jpg,50.0,1.0,GW/snail.jpg,GW/jukebox.jpg,GW/paint.jpg,GW/jukebox.jpg,GW/snail.jpg,GW/paint.jpg,6526f601bedbae17738408b1,old
2681.899999976158,directmemory_phase,GW/barrel.jpg,50.0,0.0,GW/basket.jpg,GW/dustpan.jpg,GW/hat.jpg,GW/hat.jpg,GW/dustpan.jpg,GW/basket.jpg,6526f601bedbae17738408b1,old
3451.399999976158,directmemory_phase,GW/soldier.jpg,51.0,1.0,GW/jukebox.jpg,GW/gong.jpg,GW/dustpan.jpg,GW/dustpan.jpg,GW/gong.jpg,GW/jukebox.jpg,66af82fe7c33867b3ed6efcb,young
2749.399999976158,directmemory_phase,GW/barrel.jpg,50.0,1.0,GW/soldier.jpg,GW/teeth.jpg,GW/globe.jpg,GW/teeth.jpg,GW/soldier.jpg,GW/globe.jpg,66af82fe7c33867b3ed6efcb,young
3563.7999999523163,directmemory_phase,GW/dustpan.jpg,51.0,1.0,GW/paint.jpg,GW/wheelchair.jpg,GW/soldier.jpg,GW/soldier.jpg,GW/wheelchair.jpg,GW/paint.jpg,66af82fe7c33867b3ed6efcb,young
2459.1999999284744,directmemory_phase,GW/gong.jpg,51.0,1.0,GW/barrel.jpg,GW/soldier.jpg,GW/camera.jpg,GW/camera.jpg,GW/soldier.jpg,GW/barrel.jpg,66af82fe7c33867b3ed6efcb,young
4137.300000071526,directmemory_phase,GW/snail.jpg,49.0,0.0,GW/hat.jpg,GW/soldier.jpg,GW/basket.jpg,GW/soldier.jpg,GW/hat.jpg,GW/basket.jpg,66af82fe7c33867b3ed6efcb,young
2881.899999976158,directmemory_phase,GW/wheelchair.jpg,50.0,1.0,GW/snail.jpg,GW/camera.jpg,GW/teeth.jpg,GW/camera.jpg,GW/snail.jpg,GW/teeth.jpg,66af82fe7c33867b3ed6efcb,young
2148.7000000476837,directmemory_phase,GW/basket.jpg,49.0,1.0,GW/gong.jpg,GW/snail.jpg,GW/globe.jpg,GW/gong.jpg,GW/globe.jpg,GW/snail.jpg,66af82fe7c33867b3ed6efcb,young
3159.8000000715256,directmemory_phase,GW/globe.jpg,51.0,1.0,GW/snail.jpg,GW/dustpan.jpg,GW/camera.jpg,GW/camera.jpg,GW/dustpan.jpg,GW/snail.jpg,66af82fe7c33867b3ed6efcb,young
2656.399999976158,directmemory_phase,GW/gong.jpg,49.0,1.0,GW/wheelchair.jpg,GW/teeth.jpg,GW/soldier.jpg,GW/wheelchair.jpg,GW/soldier.jpg,GW/teeth.jpg,66af82fe7c33867b3ed6efcb,young
2560.7999999523163,directmemory_phase,GW/globe.jpg,51.0,1.0,GW/snail.jpg,GW/basket.jpg,GW/jukebox.jpg,GW/jukebox.jpg,GW/basket.jpg,GW/snail.jpg,66af82fe7c33867b3ed6efcb,young
2561.600000023842,directmemory_phase,GW/wheelchair.jpg,51.0,1.0,GW/paint.jpg,GW/dustpan.jpg,GW/gong.jpg,GW/gong.jpg,GW/dustpan.jpg,GW/paint.jpg,66af82fe7c33867b3ed6efcb,young
2792.7999999523163,directmemory_phase,GW/barrel.jpg,51.0,1.0,GW/gong.jpg,GW/dustpan.jpg,GW/hat.jpg,GW/hat.jpg,GW/dustpan.jpg,GW/gong.jpg,66af82fe7c33867b3ed6efcb,young
2641.399999976158,directmemory_phase,GW/camera.jpg,51.0,1.0,GW/barrel.jpg,GW/teeth.jpg,GW/wheelchair.jpg,GW/wheelchair.jpg,GW/teeth.jpg,GW/barrel.jpg,66af82fe7c33867b3ed6efcb,young
2020.399999976158,directmemory_phase,GW/snail.jpg,49.0,1.0,GW/barrel.jpg,GW/camera.jpg,GW/teeth.jpg,GW/barrel.jpg,GW/teeth.jpg,GW/camera.jpg,66af82fe7c33867b3ed6efcb,young
2888.7000000476837,directmemory_phase,GW/globe.jpg,51.0,1.0,GW/soldier.jpg,GW/dustpan.jpg,GW/gong.jpg,GW/gong.jpg,GW/dustpan.jpg,GW/soldier.jpg,66af82fe7c33867b3ed6efcb,young
5393.699999928474,directmemory_phase,GW/hat.jpg,50.0,0.0,GW/barrel.jpg,GW/paint.jpg,GW/snail.jpg,GW/barrel.jpg,GW/snail.jpg,GW/paint.jpg,66af82fe7c33867b3ed6efcb,young
4773.299999952316,directmemory_phase,GW/soldier.jpg,49.0,1.0,GW/wheelchair.jpg,GW/basket.jpg,GW/paint.jpg,GW/wheelchair.jpg,GW/paint.jpg,GW/basket.jpg,66af82fe7c33867b3ed6efcb,young
2944.8000000715256,directmemory_phase,GW/gong.jpg,51.0,0.0,GW/globe.jpg,GW/teeth.jpg,GW/jukebox.jpg,GW/globe.jpg,GW/jukebox.jpg,GW/teeth.jpg,66af82fe7c33867b3ed6efcb,young
2627.7999999523163,directmemory_phase,GW/paint.jpg,50.0,1.0,GW/soldier.jpg,GW/snail.jpg,GW/teeth.jpg,GW/snail.jpg,GW/soldier.jpg,GW/teeth.jpg,66af82fe7c33867b3ed6efcb,young
5876.899999976158,directmemory_phase,GW/gong.jpg,50.0,1.0,GW/dustpan.jpg,GW/basket.jpg,GW/barrel.jpg,GW/basket.jpg,GW/dustpan.jpg,GW/barrel.jpg,66af82fe7c33867b3ed6efcb,young
2695.0,directmemory_phase,GW/jukebox.jpg,49.0,1.0,GW/globe.jpg,GW/teeth.jpg,GW/camera.jpg,GW/globe.jpg,GW/camera.jpg,GW/teeth.jpg,66af82fe7c33867b3ed6efcb,young
4928.0,directmemory_phase,GW/soldier.jpg,51.0,0.0,GW/paint.jpg,GW/snail.jpg,GW/basket.jpg,GW/snail.jpg,GW/paint.jpg,GW/basket.jpg,66af82fe7c33867b3ed6efcb,young
,directmemory_phase,GW/teeth.jpg,,0.0,GW/barrel.jpg,GW/gong.jpg,GW/hat.jpg,GW/barrel.jpg,GW/hat.jpg,GW/gong.jpg,66af82fe7c33867b3ed6efcb,young
3045.1999999284744,directmemory_phase,GW/dustpan.jpg,49.0,0.0,GW/basket.jpg,GW/gong.jpg,GW/camera.jpg,GW/camera.jpg,GW/gong.jpg,GW/basket.jpg,66af82fe7c33867b3ed6efcb,young
2145.5,directmemory_phase,GW/snail.jpg,50.0,1.0,GW/teeth.jpg,GW/paint.jpg,GW/globe.jpg,GW/paint.jpg,GW/teeth.jpg,GW/globe.jpg,66af82fe7c33867b3ed6efcb,young
2115.7999999523163,directmemory_phase,GW/camera.jpg,51.0,1.0,GW/barrel.jpg,GW/basket.jpg,GW/gong.jpg,GW/gong.jpg,GW/basket.jpg,GW/barrel.jpg,66af82fe7c33867b3ed6efcb,young
2593.600000023842,directmemory_phase,GW/teeth.jpg,51.0,1.0,GW/basket.jpg,GW/hat.jpg,GW/dustpan.jpg,GW/dustpan.jpg,GW/hat.jpg,GW/basket.jpg,66af82fe7c33867b3ed6efcb,young
2629.100000023842,directmemory_phase,GW/camera.jpg,49.0,1.0,GW/globe.jpg,GW/hat.jpg,GW/basket.jpg,GW/globe.jpg,GW/basket.jpg,GW/hat.jpg,66af82fe7c33867b3ed6efcb,young
2434.5,directmemory_phase,GW/dustpan.jpg,49.0,1.0,GW/teeth.jpg,GW/basket.jpg,GW/barrel.jpg,GW/teeth.jpg,GW/barrel.jpg,GW/basket.jpg,66af82fe7c33867b3ed6efcb,young
2379.0,directmemory_phase,GW/wheelchair.jpg,50.0,0.0,GW/soldier.jpg,GW/teeth.jpg,GW/snail.jpg,GW/soldier.jpg,GW/snail.jpg,GW/teeth.jpg,66af82fe7c33867b3ed6efcb,young
2033.5,directmemory_phase,GW/camera.jpg,51.0,0.0,GW/dustpan.jpg,GW/paint.jpg,GW/soldier.jpg,GW/dustpan.jpg,GW/soldier.jpg,GW/paint.jpg,66af82fe7c33867b3ed6efcb,young
3760.599999904633,directmemory_phase,GW/barrel.jpg,51.0,1.0,GW/globe.jpg,GW/paint.jpg,GW/snail.jpg,GW/snail.jpg,GW/paint.jpg,GW/globe.jpg,66af82fe7c33867b3ed6efcb,young
1958.199999988079,directmemory_phase,GW/hat.jpg,49.0,0.0,GW/basket.jpg,GW/jukebox.jpg,GW/soldier.jpg,GW/soldier.jpg,GW/jukebox.jpg,GW/basket.jpg,668c85c9f955972065292902,young
2007.800000011921,directmemory_phase,GW/camera.jpg,50.0,0.0,GW/globe.jpg,GW/snail.jpg,GW/gong.jpg,GW/globe.jpg,GW/gong.jpg,GW/snail.jpg,668c85c9f955972065292902,young
3523.100000023842,directmemory_phase,GW/hat.jpg,49.0,0.0,GW/snail.jpg,GW/jukebox.jpg,GW/dustpan.jpg,GW/dustpan.jpg,GW/jukebox.jpg,GW/snail.jpg,668c85c9f955972065292902,young
2032.300000011921,directmemory_phase,GW/teeth.jpg,51.0,1.0,GW/wheelchair.jpg,GW/hat.jpg,GW/basket.jpg,GW/basket.jpg,GW/hat.jpg,GW/wheelchair.jpg,668c85c9f955972065292902,young
1676.0999999642372,directmemory_phase,GW/hat.jpg,50.0,0.0,GW/basket.jpg,GW/teeth.jpg,GW/globe.jpg,GW/globe.jpg,GW/teeth.jpg,GW/basket.jpg,668c85c9f955972065292902,young
1706.5999999642372,directmemory_phase,GW/teeth.jpg,49.0,1.0,GW/camera.jpg,GW/wheelchair.jpg,GW/dustpan.jpg,GW/camera.jpg,GW/dustpan.jpg,GW/wheelchair.jpg,668c85c9f955972065292902,young
1702.9000000357628,directmemory_phase,GW/globe.jpg,51.0,0.0,GW/soldier.jpg,GW/jukebox.jpg,GW/gong.jpg,GW/jukebox.jpg,GW/soldier.jpg,GW/gong.jpg,668c85c9f955972065292902,young
1843.9000000357628,directmemory_phase,GW/camera.jpg,51.0,1.0,GW/paint.jpg,GW/soldier.jpg,GW/hat.jpg,GW/hat.jpg,GW/soldier.jpg,GW/paint.jpg,668c85c9f955972065292902,young
2277.100000023842,directmemory_phase,GW/snail.jpg,50.0,0.0,GW/paint.jpg,GW/camera.jpg,GW/gong.jpg,GW/paint.jpg,GW/gong.jpg,GW/camera.jpg,668c85c9f955972065292902,young
2341.399999976158,directmemory_phase,GW/dustpan.jpg,51.0,0.0,GW/teeth.jpg,GW/gong.jpg,GW/snail.jpg,GW/gong.jpg,GW/teeth.jpg,GW/snail.jpg,668c85c9f955972065292902,young
2542.199999988079,directmemory_phase,GW/barrel.jpg,49.0,0.0,GW/teeth.jpg,GW/wheelchair.jpg,GW/globe.jpg,GW/wheelchair.jpg,GW/teeth.jpg,GW/globe.jpg,668c85c9f955972065292902,young
2426.899999976158,directmemory_phase,GW/camera.jpg,50.0,0.0,GW/dustpan.jpg,GW/snail.jpg,GW/gong.jpg,GW/dustpan.jpg,GW/gong.jpg,GW/snail.jpg,668c85c9f955972065292902,young
1932.199999988079,directmemory_phase,GW/jukebox.jpg,49.0,1.0,GW/globe.jpg,GW/dustpan.jpg,GW/camera.jpg,GW/globe.jpg,GW/camera.jpg,GW/dustpan.jpg,668c85c9f955972065292902,young
2629.800000011921,directmemory_phase,GW/paint.jpg,49.0,1.0,GW/snail.jpg,GW/teeth.jpg,GW/basket.jpg,GW/snail.jpg,GW/basket.jpg,GW/teeth.jpg,668c85c9f955972065292902,young
1915.9000000357628,directmemory_phase,GW/globe.jpg,50.0,0.0,GW/hat.jpg,GW/basket.jpg,GW/teeth.jpg,GW/hat.jpg,GW/teeth.jpg,GW/basket.jpg,668c85c9f955972065292902,young
1911.699999988079,directmemory_phase,GW/wheelchair.jpg,49.0,1.0,GW/barrel.jpg,GW/camera.jpg,GW/snail.jpg,GW/barrel.jpg,GW/snail.jpg,GW/camera.jpg,668c85c9f955972065292902,young
1905.0,directmemory_phase,GW/gong.jpg,50.0,0.0,GW/globe.jpg,GW/basket.jpg,GW/teeth.jpg,GW/teeth.jpg,GW/basket.jpg,GW/globe.jpg,668c85c9f955972065292902,young
2564.800000011921,directmemory_phase,GW/hat.jpg,49.0,1.0,GW/camera.jpg,GW/barrel.jpg,GW/gong.jpg,GW/camera.jpg,GW/gong.jpg,GW/barrel.jpg,668c85c9f955972065292902,young
1841.199999988079,directmemory_phase,GW/basket.jpg,49.0,1.0,GW/teeth.jpg,GW/dustpan.jpg,GW/paint.jpg,GW/teeth.jpg,GW/paint.jpg,GW/dustpan.jpg,668c85c9f955972065292902,young
1737.0,directmemory_phase,GW/barrel.jpg,50.0,0.0,GW/gong.jpg,GW/hat.jpg,GW/teeth.jpg,GW/gong.jpg,GW/teeth.jpg,GW/hat.jpg,668c85c9f955972065292902,young
1446.899999976158,directmemory_phase,GW/camera.jpg,50.0,1.0,GW/gong.jpg,GW/teeth.jpg,GW/snail.jpg,GW/teeth.jpg,GW/gong.jpg,GW/snail.jpg,668c85c9f955972065292902,young
2343.300000011921,directmemory_phase,GW/snail.jpg,49.0,0.0,GW/hat.jpg,GW/teeth.jpg,GW/barrel.jpg,GW/barrel.jpg,GW/teeth.jpg,GW/hat.jpg,668c85c9f955972065292902,young
1607.199999988079,directmemory_phase,GW/dustpan.jpg,50.0,0.0,GW/paint.jpg,GW/teeth.jpg,GW/camera.jpg,GW/camera.jpg,GW/teeth.jpg,GW/paint.jpg,668c85c9f955972065292902,young
1829.699999988079,directmemory_phase,GW/gong.jpg,51.0,1.0,GW/globe.jpg,GW/camera.jpg,GW/barrel.jpg,GW/barrel.jpg,GW/camera.jpg,GW/globe.jpg,668c85c9f955972065292902,young
1873.5,directmemory_phase,GW/soldier.jpg,50.0,0.0,GW/gong.jpg,GW/dustpan.jpg,GW/hat.jpg,GW/hat.jpg,GW/dustpan.jpg,GW/gong.jpg,668c85c9f955972065292902,young
1390.300000011921,directmemory_phase,GW/gong.jpg,49.0,1.0,GW/dustpan.jpg,GW/paint.jpg,GW/camera.jpg,GW/dustpan.jpg,GW/camera.jpg,GW/paint.jpg,668c85c9f955972065292902,young
1858.300000011921,directmemory_phase,GW/snail.jpg,49.0,1.0,GW/basket.jpg,GW/globe.jpg,GW/teeth.jpg,GW/basket.jpg,GW/teeth.jpg,GW/globe.jpg,668c85c9f955972065292902,young
2082.199999988079,directmemory_phase,GW/teeth.jpg,50.0,0.0,GW/wheelchair.jpg,GW/barrel.jpg,GW/gong.jpg,GW/gong.jpg,GW/barrel.jpg,GW/wheelchair.jpg,668c85c9f955972065292902,young
1888.899999976158,directmemory_phase,GW/basket.jpg,49.0,1.0,GW/snail.jpg,GW/jukebox.jpg,GW/barrel.jpg,GW/snail.jpg,GW/barrel.jpg,GW/jukebox.jpg,668c85c9f955972065292902,young
1605.4000000357628,directmemory_phase,GW/dustpan.jpg,51.0,1.0,GW/wheelchair.jpg,GW/soldier.jpg,GW/hat.jpg,GW/hat.jpg,GW/soldier.jpg,GW/wheelchair.jpg,668c85c9f955972065292902,young
1511.7000000476835,directmemory_phase,GW/barrel.jpg,50.0,0.0,GW/camera.jpg,GW/teeth.jpg,GW/snail.jpg,GW/snail.jpg,GW/teeth.jpg,GW/camera.jpg,668c85c9f955972065292902,young
1677.2000000476835,directmemory_phase,GW/globe.jpg,50.0,0.0,GW/snail.jpg,GW/soldier.jpg,GW/camera.jpg,GW/camera.jpg,GW/soldier.jpg,GW/snail.jpg,668c85c9f955972065292902,young
6422.399999976158,directmemory_phase,GW/wheelchair.jpg,49.0,0.0,GW/barrel.jpg,GW/teeth.jpg,GW/hat.jpg,GW/hat.jpg,GW/teeth.jpg,GW/barrel.jpg,654d0bd1f4ba143e0503a02f,old
1872.899999976158,directmemory_phase,GW/snail.jpg,49.0,1.0,GW/jukebox.jpg,GW/soldier.jpg,GW/camera.jpg,GW/jukebox.jpg,GW/camera.jpg,GW/soldier.jpg,654d0bd1f4ba143e0503a02f,old
3845.899999976158,directmemory_phase,GW/hat.jpg,50.0,1.0,GW/jukebox.jpg,GW/gong.jpg,GW/dustpan.jpg,GW/gong.jpg,GW/jukebox.jpg,GW/dustpan.jpg,654d0bd1f4ba143e0503a02f,old
2459.100000023842,directmemory_phase,GW/barrel.jpg,49.0,0.0,GW/wheelchair.jpg,GW/dustpan.jpg,GW/camera.jpg,GW/camera.jpg,GW/dustpan.jpg,GW/wheelchair.jpg,654d0bd1f4ba143e0503a02f,old
4199.699999988079,directmemory_phase,GW/jukebox.jpg,50.0,0.0,GW/basket.jpg,GW/barrel.jpg,GW/gong.jpg,GW/gong.jpg,GW/barrel.jpg,GW/basket.jpg,654d0bd1f4ba143e0503a02f,old
3428.199999988079,directmemory_phase,GW/hat.jpg,51.0,1.0,GW/globe.jpg,GW/jukebox.jpg,GW/paint.jpg,GW/paint.jpg,GW/jukebox.jpg,GW/globe.jpg,654d0bd1f4ba143e0503a02f,old
3913.400000035763,directmemory_phase,GW/camera.jpg,51.0,1.0,GW/dustpan.jpg,GW/globe.jpg,GW/barrel.jpg,GW/barrel.jpg,GW/globe.jpg,GW/dustpan.jpg,654d0bd1f4ba143e0503a02f,old
2849.199999988079,directmemory_phase,GW/paint.jpg,51.0,1.0,GW/jukebox.jpg,GW/gong.jpg,GW/hat.jpg,GW/hat.jpg,GW/gong.jpg,GW/jukebox.jpg,654d0bd1f4ba143e0503a02f,old
3013.699999988079,directmemory_phase,GW/wheelchair.jpg,50.0,1.0,GW/paint.jpg,GW/soldier.jpg,GW/globe.jpg,GW/soldier.jpg,GW/paint.jpg,GW/globe.jpg,654d0bd1f4ba143e0503a02f,old
3594.600000023842,directmemory_phase,GW/gong.jpg,51.0,1.0,GW/globe.jpg,GW/paint.jpg,GW/jukebox.jpg,GW/jukebox.jpg,GW/paint.jpg,GW/globe.jpg,654d0bd1f4ba143e0503a02f,old
2814.599999964237,directmemory_phase,GW/basket.jpg,51.0,1.0,GW/snail.jpg,GW/dustpan.jpg,GW/globe.jpg,GW/globe.jpg,GW/dustpan.jpg,GW/snail.jpg,654d0bd1f4ba143e0503a02f,old
4302.100000023842,directmemory_phase,GW/gong.jpg,50.0,0.0,GW/wheelchair.jpg,GW/globe.jpg,GW/paint.jpg,GW/wheelchair.jpg,GW/paint.jpg,GW/globe.jpg,654d0bd1f4ba143e0503a02f,old
3873.800000011921,directmemory_phase,GW/dustpan.jpg,51.0,1.0,GW/hat.jpg,GW/basket.jpg,GW/teeth.jpg,GW/teeth.jpg,GW/basket.jpg,GW/hat.jpg,654d0bd1f4ba143e0503a02f,old
3198.899999976158,directmemory_phase,GW/jukebox.jpg,51.0,1.0,GW/paint.jpg,GW/hat.jpg,GW/wheelchair.jpg,GW/wheelchair.jpg,GW/hat.jpg,GW/paint.jpg,654d0bd1f4ba143e0503a02f,old
5499.399999976158,directmemory_phase,GW/globe.jpg,50.0,1.0,GW/snail.jpg,GW/barrel.jpg,GW/wheelchair.jpg,GW/barrel.jpg,GW/snail.jpg,GW/wheelchair.jpg,654d0bd1f4ba143e0503a02f,old
3314.800000011921,directmemory_phase,GW/wheelchair.jpg,51.0,1.0,GW/barrel.jpg,GW/teeth.jpg,GW/gong.jpg,GW/gong.jpg,GW/teeth.jpg,GW/barrel.jpg,654d0bd1f4ba143e0503a02f,old
4910.900000035763,directmemory_phase,GW/dustpan.jpg,49.0,1.0,GW/globe.jpg,GW/wheelchair.jpg,GW/basket.jpg,GW/globe.jpg,GW/basket.jpg,GW/wheelchair.jpg,654d0bd1f4ba143e0503a02f,old
3164.900000035763,directmemory_phase,GW/gong.jpg,51.0,0.0,GW/paint.jpg,GW/hat.jpg,GW/globe.jpg,GW/hat.jpg,GW/paint.jpg,GW/globe.jpg,654d0bd1f4ba143e0503a02f,old
4405.699999988079,directmemory_phase,GW/barrel.jpg,50.0,0.0,GW/globe.jpg,GW/wheelchair.jpg,GW/dustpan.jpg,GW/globe.jpg,GW/dustpan.jpg,GW/wheelchair.jpg,654d0bd1f4ba143e0503a02f,old
3037.800000011921,directmemory_phase,GW/soldier.jpg,49.0,1.0,GW/wheelchair.jpg,GW/barrel.jpg,GW/gong.jpg,GW/wheelchair.jpg,GW/gong.jpg,GW/barrel.jpg,654d0bd1f4ba143e0503a02f,old
3948.900000035763,directmemory_phase,GW/snail.jpg,49.0,1.0,GW/barrel.jpg,GW/soldier.jpg,GW/dustpan.jpg,GW/barrel.jpg,GW/dustpan.jpg,GW/soldier.jpg,654d0bd1f4ba143e0503a02f,old
4026.0,directmemory_phase,GW/globe.jpg,50.0,1.0,GW/teeth.jpg,GW/basket.jpg,GW/gong.jpg,GW/basket.jpg,GW/teeth.jpg,GW/gong.jpg,654d0bd1f4ba143e0503a02f,old
5010.900000035763,directmemory_phase,GW/jukebox.jpg,51.0,0.0,GW/snail.jpg,GW/basket.jpg,GW/soldier.jpg,GW/snail.jpg,GW/soldier.jpg,GW/basket.jpg,654d0bd1f4ba143e0503a02f,old
4090.600000023842,directmemory_phase,GW/hat.jpg,51.0,0.0,GW/wheelchair.jpg,GW/globe.jpg,GW/soldier.jpg,GW/wheelchair.jpg,GW/soldier.jpg,GW/globe.jpg,654d0bd1f4ba143e0503a02f,old
3370.699999988079,directmemory_phase,GW/teeth.jpg,49.0,1.0,GW/snail.jpg,GW/camera.jpg,GW/jukebox.jpg,GW/snail.jpg,GW/jukebox.jpg,GW/camera.jpg,654d0bd1f4ba143e0503a02f,old
4479.399999976158,directmemory_phase,GW/globe.jpg,49.0,0.0,GW/jukebox.jpg,GW/snail.jpg,GW/dustpan.jpg,GW/dustpan.jpg,GW/snail.jpg,GW/jukebox.jpg,654d0bd1f4ba143e0503a02f,old
2853.199999988079,directmemory_phase,GW/wheelchair.jpg,50.0,0.0,GW/dustpan.jpg,GW/teeth.jpg,GW/jukebox.jpg,GW/jukebox.jpg,GW/teeth.jpg,GW/dustpan.jpg,654d0bd1f4ba143e0503a02f,old
2681.599999964237,directmemory_phase,GW/teeth.jpg,50.0,0.0,GW/paint.jpg,GW/wheelchair.jpg,GW/dustpan.jpg,GW/dustpan.jpg,GW/wheelchair.jpg,GW/paint.jpg,654d0bd1f4ba143e0503a02f,old
3716.400000035763,directmemory_phase,GW/barrel.jpg,51.0,1.0,GW/hat.jpg,GW/jukebox.jpg,GW/snail.jpg,GW/snail.jpg,GW/jukebox.jpg,GW/hat.jpg,654d0bd1f4ba143e0503a02f,old
3497.400000035763,directmemory_phase,GW/gong.jpg,50.0,0.0,GW/teeth.jpg,GW/globe.jpg,GW/paint.jpg,GW/teeth.jpg,GW/paint.jpg,GW/globe.jpg,654d0bd1f4ba143e0503a02f,old
,directmemory_phase,,,0.0,,,,,,,654d0bd1f4ba143e0503a02f,old
,directmemory_phase,,,0.0,,,,,,,654d0bd1f4ba143e0503a02f,old
4390.699999928474,directmemory_phase,GW/barrel.jpg,49.0,0.0,GW/jukebox.jpg,GW/wheelchair.jpg,GW/globe.jpg,GW/globe.jpg,GW/wheelchair.jpg,GW/jukebox.jpg,67f24d9d37225c87ef8b09c4,young
2911.2000000476837,directmemory_phase,GW/wheelchair.jpg,51.0,1.0,GW/dustpan.jpg,GW/jukebox.jpg,GW/paint.jpg,GW/paint.jpg,GW/jukebox.jpg,GW/dustpan.jpg,67f24d9d37225c87ef8b09c4,young
2630.099999904633,directmemory_phase,GW/soldier.jpg,49.0,1.0,GW/barrel.jpg,GW/basket.jpg,GW/snail.jpg,GW/barrel.jpg,GW/snail.jpg,GW/basket.jpg,67f24d9d37225c87ef8b09c4,young
3562.600000023842,directmemory_phase,GW/hat.jpg,50.0,1.0,GW/camera.jpg,GW/snail.jpg,GW/globe.jpg,GW/snail.jpg,GW/camera.jpg,GW/globe.jpg,67f24d9d37225c87ef8b09c4,young
1941.6999999284744,directmemory_phase,GW/paint.jpg,49.0,1.0,GW/soldier.jpg,GW/basket.jpg,GW/barrel.jpg,GW/soldier.jpg,GW/barrel.jpg,GW/basket.jpg,67f24d9d37225c87ef8b09c4,young
1225.8000000715256,directmemory_phase,GW/wheelchair.jpg,49.0,1.0,GW/snail.jpg,GW/gong.jpg,GW/basket.jpg,GW/snail.jpg,GW/basket.jpg,GW/gong.jpg,67f24d9d37225c87ef8b09c4,young
2628.2999999523163,directmemory_phase,GW/barrel.jpg,49.0,0.0,GW/jukebox.jpg,GW/wheelchair.jpg,GW/soldier.jpg,GW/soldier.jpg,GW/wheelchair.jpg,GW/jukebox.jpg,67f24d9d37225c87ef8b09c4,young
2540.5,directmemory_phase,GW/snail.jpg,51.0,1.0,GW/gong.jpg,GW/soldier.jpg,GW/wheelchair.jpg,GW/wheelchair.jpg,GW/soldier.jpg,GW/gong.jpg,67f24d9d37225c87ef8b09c4,young
1839.100000023842,directmemory_phase,GW/hat.jpg,50.0,1.0,GW/camera.jpg,GW/teeth.jpg,GW/dustpan.jpg,GW/teeth.jpg,GW/camera.jpg,GW/dustpan.jpg,67f24d9d37225c87ef8b09c4,young
2287.1999999284744,directmemory_phase,GW/basket.jpg,51.0,1.0,GW/barrel.jpg,GW/hat.jpg,GW/jukebox.jpg,GW/jukebox.jpg,GW/hat.jpg,GW/barrel.jpg,67f24d9d37225c87ef8b09c4,young
3291.7999999523163,directmemory_phase,GW/teeth.jpg,51.0,1.0,GW/soldier.jpg,GW/paint.jpg,GW/wheelchair.jpg,GW/wheelchair.jpg,GW/paint.jpg,GW/soldier.jpg,67f24d9d37225c87ef8b09c4,young
1758.7999999523165,directmemory_phase,GW/gong.jpg,49.0,0.0,GW/barrel.jpg,GW/soldier.jpg,GW/globe.jpg,GW/soldier.jpg,GW/barrel.jpg,GW/globe.jpg,67f24d9d37225c87ef8b09c4,young
2611.6999999284744,directmemory_phase,GW/wheelchair.jpg,50.0,1.0,GW/soldier.jpg,GW/teeth.jpg,GW/dustpan.jpg,GW/teeth.jpg,GW/soldier.jpg,GW/dustpan.jpg,67f24d9d37225c87ef8b09c4,young
2145.899999976158,directmemory_phase,GW/soldier.jpg,49.0,1.0,GW/gong.jpg,GW/basket.jpg,GW/snail.jpg,GW/gong.jpg,GW/snail.jpg,GW/basket.jpg,67f24d9d37225c87ef8b09c4,young
1563.600000023842,directmemory_phase,GW/teeth.jpg,49.0,1.0,GW/hat.jpg,GW/barrel.jpg,GW/paint.jpg,GW/hat.jpg,GW/paint.jpg,GW/barrel.jpg,67f24d9d37225c87ef8b09c4,young
2249.100000023842,directmemory_phase,GW/snail.jpg,50.0,0.0,GW/barrel.jpg,GW/basket.jpg,GW/globe.jpg,GW/barrel.jpg,GW/globe.jpg,GW/basket.jpg,67f24d9d37225c87ef8b09c4,young
1622.899999976158,directmemory_phase,GW/jukebox.jpg,51.0,1.0,GW/globe.jpg,GW/dustpan.jpg,GW/teeth.jpg,GW/teeth.jpg,GW/dustpan.jpg,GW/globe.jpg,67f24d9d37225c87ef8b09c4,young
1267.2999999523165,directmemory_phase,GW/paint.jpg,51.0,1.0,GW/dustpan.jpg,GW/teeth.jpg,GW/wheelchair.jpg,GW/wheelchair.jpg,GW/teeth.jpg,GW/dustpan.jpg,67f24d9d37225c87ef8b09c4,young
1278.7000000476835,directmemory_phase,GW/camera.jpg,50.0,1.0,GW/hat.jpg,GW/jukebox.jpg,GW/snail.jpg,GW/jukebox.jpg,GW/hat.jpg,GW/snail.jpg,67f24d9d37225c87ef8b09c4,young
1443.100000023842,directmemory_phase,GW/basket.jpg,50.0,0.0,GW/soldier.jpg,GW/hat.jpg,GW/teeth.jpg,GW/teeth.jpg,GW/hat.jpg,GW/soldier.jpg,67f24d9d37225c87ef8b09c4,young
1683.100000023842,directmemory_phase,GW/barrel.jpg,49.0,0.0,GW/camera.jpg,GW/hat.jpg,GW/snail.jpg,GW/snail.jpg,GW/hat.jpg,GW/camera.jpg,67f24d9d37225c87ef8b09c4,young
2045.399999976158,directmemory_phase,GW/teeth.jpg,51.0,1.0,GW/globe.jpg,GW/paint.jpg,GW/jukebox.jpg,GW/jukebox.jpg,GW/paint.jpg,GW/globe.jpg,67f24d9d37225c87ef8b09c4,young
1806.3000000715256,directmemory_phase,GW/soldier.jpg,49.0,1.0,GW/paint.jpg,GW/hat.jpg,GW/snail.jpg,GW/paint.jpg,GW/snail.jpg,GW/hat.jpg,67f24d9d37225c87ef8b09c4,young
1093.2000000476835,directmemory_phase,GW/snail.jpg,49.0,1.0,GW/hat.jpg,GW/camera.jpg,GW/jukebox.jpg,GW/hat.jpg,GW/jukebox.jpg,GW/camera.jpg,67f24d9d37225c87ef8b09c4,young
921.9000000953674,directmemory_phase,GW/globe.jpg,49.0,1.0,GW/barrel.jpg,GW/wheelchair.jpg,GW/soldier.jpg,GW/barrel.jpg,GW/soldier.jpg,GW/wheelchair.jpg,67f24d9d37225c87ef8b09c4,young
2670.2999999523163,directmemory_phase,GW/basket.jpg,49.0,1.0,GW/dustpan.jpg,GW/paint.jpg,GW/camera.jpg,GW/dustpan.jpg,GW/camera.jpg,GW/paint.jpg,67f24d9d37225c87ef8b09c4,young
986.100000023842,directmemory_phase,GW/hat.jpg,51.0,0.0,GW/jukebox.jpg,GW/gong.jpg,GW/basket.jpg,GW/jukebox.jpg,GW/basket.jpg,GW/gong.jpg,67f24d9d37225c87ef8b09c4,young
1886.0,directmemory_phase,GW/teeth.jpg,51.0,1.0,GW/gong.jpg,GW/dustpan.jpg,GW/basket.jpg,GW/basket.jpg,GW/dustpan.jpg,GW/gong.jpg,67f24d9d37225c87ef8b09c4,young
1568.5,directmemory_phase,GW/jukebox.jpg,51.0,0.0,GW/dustpan.jpg,GW/camera.jpg,GW/barrel.jpg,GW/camera.jpg,GW/dustpan.jpg,GW/barrel.jpg,67f24d9d37225c87ef8b09c4,young
1054.7999999523165,directmemory_phase,GW/dustpan.jpg,51.0,1.0,GW/hat.jpg,GW/teeth.jpg,GW/basket.jpg,GW/basket.jpg,GW/teeth.jpg,GW/hat.jpg,67f24d9d37225c87ef8b09c4,young
2383.5,directmemory_phase,GW/jukebox.jpg,49.0,1.0,GW/hat.jpg,GW/paint.jpg,GW/wheelchair.jpg,GW/hat.jpg,GW/wheelchair.jpg,GW/paint.jpg,67f24d9d37225c87ef8b09c4,young
4689.100000023842,directmemory_phase,,51.0,1.0,,,,,,,67f24d9d37225c87ef8b09c4,young
3560.7000000476837,directmemory_phase,GW/hat.jpg,51.0,0.0,GW/basket.jpg,GW/jukebox.jpg,GW/barrel.jpg,GW/jukebox.jpg,GW/basket.jpg,GW/barrel.jpg,63c3118da7ffa9c9fa88a10e,old
2231.100000023842,directmemory_phase,GW/soldier.jpg,49.0,1.0,GW/dustpan.jpg,GW/camera.jpg,GW/globe.jpg,GW/dustpan.jpg,GW/globe.jpg,GW/camera.jpg,63c3118da7ffa9c9fa88a10e,old
2657.3000000715256,directmemory_phase,GW/snail.jpg,51.0,1.0,GW/wheelchair.jpg,GW/gong.jpg,GW/paint.jpg,GW/paint.jpg,GW/gong.jpg,GW/wheelchair.jpg,63c3118da7ffa9c9fa88a10e,old
3620.899999976158,directmemory_phase,GW/dustpan.jpg,51.0,1.0,GW/barrel.jpg,GW/wheelchair.jpg,GW/hat.jpg,GW/hat.jpg,GW/wheelchair.jpg,GW/barrel.jpg,63c3118da7ffa9c9fa88a10e,old
4327.099999904633,directmemory_phase,GW/globe.jpg,49.0,0.0,GW/jukebox.jpg,GW/teeth.jpg,GW/wheelchair.jpg,GW/teeth.jpg,GW/jukebox.jpg,GW/wheelchair.jpg,63c3118da7ffa9c9fa88a10e,old
2607.100000023842,directmemory_phase,GW/gong.jpg,49.0,1.0,GW/camera.jpg,GW/paint.jpg,GW/teeth.jpg,GW/camera.jpg,GW/teeth.jpg,GW/paint.jpg,63c3118da7ffa9c9fa88a10e,old
2211.600000023842,directmemory_phase,GW/teeth.jpg,49.0,1.0,GW/snail.jpg,GW/jukebox.jpg,GW/paint.jpg,GW/snail.jpg,GW/paint.jpg,GW/jukebox.jpg,63c3118da7ffa9c9fa88a10e,old
2927.600000023842,directmemory_phase,GW/hat.jpg,51.0,0.0,GW/globe.jpg,GW/camera.jpg,GW/teeth.jpg,GW/globe.jpg,GW/teeth.jpg,GW/camera.jpg,63c3118da7ffa9c9fa88a10e,old
3629.299999952316,directmemory_phase,GW/paint.jpg,49.0,1.0,GW/snail.jpg,GW/globe.jpg,GW/teeth.jpg,GW/snail.jpg,GW/teeth.jpg,GW/globe.jpg,63c3118da7ffa9c9fa88a10e,old
2260.100000023842,directmemory_phase,GW/soldier.jpg,51.0,1.0,GW/camera.jpg,GW/teeth.jpg,GW/hat.jpg,GW/hat.jpg,GW/teeth.jpg,GW/camera.jpg,63c3118da7ffa9c9fa88a10e,old
1949.2999999523165,directmemory_phase,GW/snail.jpg,50.0,0.0,GW/camera.jpg,GW/hat.jpg,GW/gong.jpg,GW/camera.jpg,GW/gong.jpg,GW/hat.jpg,63c3118da7ffa9c9fa88a10e,old
1440.3000000715256,directmemory_phase,GW/dustpan.jpg,49.0,1.0,GW/soldier.jpg,GW/camera.jpg,GW/snail.jpg,GW/soldier.jpg,GW/snail.jpg,GW/camera.jpg,63c3118da7ffa9c9fa88a10e,old
2079.7000000476837,directmemory_phase,GW/basket.jpg,49.0,0.0,GW/hat.jpg,GW/jukebox.jpg,GW/teeth.jpg,GW/jukebox.jpg,GW/hat.jpg,GW/teeth.jpg,63c3118da7ffa9c9fa88a10e,old
1670.0999999046326,directmemory_phase,GW/gong.jpg,49.0,1.0,GW/globe.jpg,GW/dustpan.jpg,GW/hat.jpg,GW/globe.jpg,GW/hat.jpg,GW/dustpan.jpg,63c3118da7ffa9c9fa88a10e,old
1848.399999976158,directmemory_phase,GW/jukebox.jpg,50.0,1.0,GW/wheelchair.jpg,GW/soldier.jpg,GW/teeth.jpg,GW/soldier.jpg,GW/wheelchair.jpg,GW/teeth.jpg,63c3118da7ffa9c9fa88a10e,old
1648.2000000476835,directmemory_phase,GW/camera.jpg,49.0,1.0,GW/barrel.jpg,GW/hat.jpg,GW/teeth.jpg,GW/barrel.jpg,GW/teeth.jpg,GW/hat.jpg,63c3118da7ffa9c9fa88a10e,old
3942.299999952316,directmemory_phase,GW/soldier.jpg,49.0,0.0,GW/basket.jpg,GW/jukebox.jpg,GW/gong.jpg,GW/jukebox.jpg,GW/basket.jpg,GW/gong.jpg,63c3118da7ffa9c9fa88a10e,old
2713.8000000715256,directmemory_phase,GW/camera.jpg,50.0,0.0,GW/dustpan.jpg,GW/teeth.jpg,GW/snail.jpg,GW/snail.jpg,GW/teeth.jpg,GW/dustpan.jpg,63c3118da7ffa9c9fa88a10e,old
2085.599999904633,directmemory_phase,GW/jukebox.jpg,51.0,1.0,GW/gong.jpg,GW/globe.jpg,GW/basket.jpg,GW/basket.jpg,GW/globe.jpg,GW/gong.jpg,63c3118da7ffa9c9fa88a10e,old
2027.6999999284744,directmemory_phase,GW/wheelchair.jpg,50.0,1.0,GW/jukebox.jpg,GW/soldier.jpg,GW/snail.jpg,GW/soldier.jpg,GW/jukebox.jpg,GW/snail.jpg,63c3118da7ffa9c9fa88a10e,old
2412.3000000715256,directmemory_phase,GW/jukebox.jpg,50.0,0.0,GW/camera.jpg,GW/dustpan.jpg,GW/hat.jpg,GW/hat.jpg,GW/dustpan.jpg,GW/camera.jpg,63c3118da7ffa9c9fa88a10e,old
2377.899999976158,directmemory_phase,GW/dustpan.jpg,49.0,1.0,GW/teeth.jpg,GW/basket.jpg,GW/jukebox.jpg,GW/teeth.jpg,GW/jukebox.jpg,GW/basket.jpg,63c3118da7ffa9c9fa88a10e,old
1678.399999976158,directmemory_phase,GW/globe.jpg,49.0,1.0,GW/hat.jpg,GW/paint.jpg,GW/camera.jpg,GW/hat.jpg,GW/camera.jpg,GW/paint.jpg,63c3118da7ffa9c9fa88a10e,old
2339.7999999523163,directmemory_phase,GW/teeth.jpg,51.0,0.0,GW/dustpan.jpg,GW/basket.jpg,GW/soldier.jpg,GW/dustpan.jpg,GW/soldier.jpg,GW/basket.jpg,63c3118da7ffa9c9fa88a10e,old
1388.399999976158,directmemory_phase,GW/hat.jpg,49.0,1.0,GW/soldier.jpg,GW/paint.jpg,GW/basket.jpg,GW/soldier.jpg,GW/basket.jpg,GW/paint.jpg,63c3118da7ffa9c9fa88a10e,old
1845.9000000953672,directmemory_phase,GW/teeth.jpg,51.0,1.0,GW/jukebox.jpg,GW/paint.jpg,GW/globe.jpg,GW/globe.jpg,GW/paint.jpg,GW/jukebox.jpg,63c3118da7ffa9c9fa88a10e,old
1595.899999976158,directmemory_phase,GW/hat.jpg,49.0,0.0,GW/paint.jpg,GW/gong.jpg,GW/dustpan.jpg,GW/dustpan.jpg,GW/gong.jpg,GW/paint.jpg,63c3118da7ffa9c9fa88a10e,old
2081.7000000476837,directmemory_phase,GW/snail.jpg,50.0,0.0,GW/jukebox.jpg,GW/dustpan.jpg,GW/teeth.jpg,GW/teeth.jpg,GW/dustpan.jpg,GW/jukebox.jpg,63c3118da7ffa9c9fa88a10e,old
2135.2999999523163,directmemory_phase,GW/camera.jpg,51.0,0.0,GW/globe.jpg,GW/gong.jpg,GW/hat.jpg,GW/gong.jpg,GW/globe.jpg,GW/hat.jpg,63c3118da7ffa9c9fa88a10e,old
1400.5,directmemory_phase,GW/soldier.jpg,49.0,1.0,GW/wheelchair.jpg,GW/gong.jpg,GW/basket.jpg,GW/wheelchair.jpg,GW/basket.jpg,GW/gong.jpg,63c3118da7ffa9c9fa88a10e,old
3073.1999999284744,directmemory_phase,GW/globe.jpg,50.0,0.0,GW/basket.jpg,GW/soldier.jpg,GW/gong.jpg,GW/gong.jpg,GW/soldier.jpg,GW/basket.jpg,63c3118da7ffa9c9fa88a10e,old
1762.899999976158,directmemory_phase,GW/barrel.jpg,50.0,0.0,GW/dustpan.jpg,GW/snail.jpg,GW/camera.jpg,GW/camera.jpg,GW/snail.jpg,GW/dustpan.jpg,63c3118da7ffa9c9fa88a10e,old
3807.8000000000466,directmemory_phase,GW/jukebox.jpg,51.0,1.0,GW/basket.jpg,GW/soldier.jpg,GW/paint.jpg,GW/paint.jpg,GW/soldier.jpg,GW/basket.jpg,6691809035e52ca9b2b0f39a,old
3248.3000000002794,directmemory_phase,GW/hat.jpg,51.0,0.0,GW/dustpan.jpg,GW/gong.jpg,GW/paint.jpg,GW/dustpan.jpg,GW/paint.jpg,GW/gong.jpg,6691809035e52ca9b2b0f39a,old
3113.8000000002794,directmemory_phase,GW/jukebox.jpg,49.0,1.0,GW/teeth.jpg,GW/basket.jpg,GW/soldier.jpg,GW/teeth.jpg,GW/soldier.jpg,GW/basket.jpg,6691809035e52ca9b2b0f39a,old
2112.399999999907,directmemory_phase,GW/dustpan.jpg,51.0,1.0,GW/basket.jpg,GW/wheelchair.jpg,GW/paint.jpg,GW/paint.jpg,GW/wheelchair.jpg,GW/basket.jpg,6691809035e52ca9b2b0f39a,old
2610.7999999998137,directmemory_phase,GW/jukebox.jpg,51.0,1.0,GW/globe.jpg,GW/soldier.jpg,GW/hat.jpg,GW/hat.jpg,GW/soldier.jpg,GW/globe.jpg,6691809035e52ca9b2b0f39a,old
3793.2000000001863,directmemory_phase,GW/basket.jpg,51.0,0.0,GW/globe.jpg,GW/hat.jpg,GW/wheelchair.jpg,GW/globe.jpg,GW/wheelchair.jpg,GW/hat.jpg,6691809035e52ca9b2b0f39a,old
1808.7000000001865,directmemory_phase,GW/teeth.jpg,51.0,1.0,GW/barrel.jpg,GW/paint.jpg,GW/jukebox.jpg,GW/jukebox.jpg,GW/paint.jpg,GW/barrel.jpg,6691809035e52ca9b2b0f39a,old
2888.100000000093,directmemory_phase,GW/globe.jpg,51.0,1.0,GW/hat.jpg,GW/gong.jpg,GW/basket.jpg,GW/basket.jpg,GW/gong.jpg,GW/hat.jpg,6691809035e52ca9b2b0f39a,old
3581.399999999907,directmemory_phase,GW/paint.jpg,49.0,0.0,GW/gong.jpg,GW/wheelchair.jpg,GW/camera.jpg,GW/wheelchair.jpg,GW/gong.jpg,GW/camera.jpg,6691809035e52ca9b2b0f39a,old
4727.800000000279,directmemory_phase,GW/basket.jpg,50.0,0.0,GW/hat.jpg,GW/wheelchair.jpg,GW/gong.jpg,GW/gong.jpg,GW/wheelchair.jpg,GW/hat.jpg,6691809035e52ca9b2b0f39a,old
3982.0,directmemory_phase,GW/barrel.jpg,49.0,0.0,GW/teeth.jpg,GW/basket.jpg,GW/wheelchair.jpg,GW/wheelchair.jpg,GW/basket.jpg,GW/teeth.jpg,6691809035e52ca9b2b0f39a,old
4377.5,directmemory_phase,GW/basket.jpg,49.0,0.0,GW/dustpan.jpg,GW/wheelchair.jpg,GW/snail.jpg,GW/snail.jpg,GW/wheelchair.jpg,GW/dustpan.jpg,6691809035e52ca9b2b0f39a,old
3481.5,directmemory_phase,GW/wheelchair.jpg,51.0,1.0,GW/snail.jpg,GW/camera.jpg,GW/paint.jpg,GW/paint.jpg,GW/camera.jpg,GW/snail.jpg,6691809035e52ca9b2b0f39a,old
3841.2999999998137,directmemory_phase,GW/hat.jpg,50.0,0.0,GW/soldier.jpg,GW/basket.jpg,GW/barrel.jpg,GW/soldier.jpg,GW/barrel.jpg,GW/basket.jpg,6691809035e52ca9b2b0f39a,old
2504.600000000093,directmemory_phase,GW/paint.jpg,49.0,1.0,GW/dustpan.jpg,GW/basket.jpg,GW/barrel.jpg,GW/dustpan.jpg,GW/barrel.jpg,GW/basket.jpg,6691809035e52ca9b2b0f39a,old
2666.0,directmemory_phase,GW/soldier.jpg,49.0,1.0,GW/hat.jpg,GW/wheelchair.jpg,GW/dustpan.jpg,GW/hat.jpg,GW/dustpan.jpg,GW/wheelchair.jpg,6691809035e52ca9b2b0f39a,old
3457.7000000001863,directmemory_phase,GW/dustpan.jpg,50.0,1.0,GW/soldier.jpg,GW/barrel.jpg,GW/gong.jpg,GW/barrel.jpg,GW/soldier.jpg,GW/gong.jpg,6691809035e52ca9b2b0f39a,old
3953.099999999627,directmemory_phase,GW/gong.jpg,49.0,1.0,GW/camera.jpg,GW/jukebox.jpg,GW/snail.jpg,GW/camera.jpg,GW/snail.jpg,GW/jukebox.jpg,6691809035e52ca9b2b0f39a,old
4401.200000000186,directmemory_phase,GW/dustpan.jpg,51.0,1.0,GW/gong.jpg,GW/soldier.jpg,GW/hat.jpg,GW/hat.jpg,GW/soldier.jpg,GW/gong.jpg,6691809035e52ca9b2b0f39a,old
5041.0,directmemory_phase,GW/gong.jpg,51.0,0.0,GW/barrel.jpg,GW/basket.jpg,GW/dustpan.jpg,GW/basket.jpg,GW/barrel.jpg,GW/dustpan.jpg,6691809035e52ca9b2b0f39a,old
4081.399999999907,directmemory_phase,GW/dustpan.jpg,50.0,0.0,GW/snail.jpg,GW/globe.jpg,GW/jukebox.jpg,GW/jukebox.jpg,GW/globe.jpg,GW/snail.jpg,6691809035e52ca9b2b0f39a,old
3345.100000000093,directmemory_phase,GW/wheelchair.jpg,50.0,0.0,GW/barrel.jpg,GW/hat.jpg,GW/dustpan.jpg,GW/barrel.jpg,GW/dustpan.jpg,GW/hat.jpg,6691809035e52ca9b2b0f39a,old
1617.4000000003723,directmemory_phase,GW/hat.jpg,50.0,0.0,GW/basket.jpg,GW/paint.jpg,GW/jukebox.jpg,GW/jukebox.jpg,GW/paint.jpg,GW/basket.jpg,6691809035e52ca9b2b0f39a,old
4011.0,directmemory_phase,GW/barrel.jpg,50.0,1.0,GW/basket.jpg,GW/dustpan.jpg,GW/soldier.jpg,GW/dustpan.jpg,GW/basket.jpg,GW/soldier.jpg,6691809035e52ca9b2b0f39a,old
3000.399999999907,directmemory_phase,GW/paint.jpg,49.0,1.0,GW/jukebox.jpg,GW/globe.jpg,GW/gong.jpg,GW/jukebox.jpg,GW/gong.jpg,GW/globe.jpg,6691809035e52ca9b2b0f39a,old
4523.4000000003725,directmemory_phase,GW/barrel.jpg,51.0,1.0,GW/camera.jpg,GW/jukebox.jpg,GW/globe.jpg,GW/globe.jpg,GW/jukebox.jpg,GW/camera.jpg,6691809035e52ca9b2b0f39a,old
4161.399999999907,directmemory_phase,GW/jukebox.jpg,51.0,1.0,GW/globe.jpg,GW/barrel.jpg,GW/dustpan.jpg,GW/dustpan.jpg,GW/barrel.jpg,GW/globe.jpg,6691809035e52ca9b2b0f39a,old
1721.7000000001865,directmemory_phase,GW/snail.jpg,51.0,0.0,GW/basket.jpg,GW/camera.jpg,GW/gong.jpg,GW/basket.jpg,GW/gong.jpg,GW/camera.jpg,6691809035e52ca9b2b0f39a,old
3529.600000000093,directmemory_phase,GW/gong.jpg,50.0,1.0,GW/barrel.jpg,GW/wheelchair.jpg,GW/teeth.jpg,GW/wheelchair.jpg,GW/barrel.jpg,GW/teeth.jpg,6691809035e52ca9b2b0f39a,old
3993.0,directmemory_phase,GW/globe.jpg,51.0,1.0,GW/jukebox.jpg,GW/dustpan.jpg,GW/barrel.jpg,GW/barrel.jpg,GW/dustpan.jpg,GW/jukebox.jpg,6691809035e52ca9b2b0f39a,old
2120.399999999907,directmemory_phase,GW/camera.jpg,49.0,1.0,GW/gong.jpg,GW/paint.jpg,GW/wheelchair.jpg,GW/gong.jpg,GW/wheelchair.jpg,GW/paint.jpg,6691809035e52ca9b2b0f39a,old
,directmemory_phase,,,0.0,,,,,,,6691809035e52ca9b2b0f39a,old
1904.0999994277952,directmemory_phase,GW/barrel.jpg,51.0,1.0,GW/jukebox.jpg,GW/wheelchair.jpg,GW/teeth.jpg,GW/teeth.jpg,GW/wheelchair.jpg,GW/jukebox.jpg,611b09935cd6e67f2b5e9ea2,old
1634.5,directmemory_phase,GW/globe.jpg,51.0,1.0,GW/jukebox.jpg,GW/snail.jpg,GW/dustpan.jpg,GW/dustpan.jpg,GW/snail.jpg,GW/jukebox.jpg,611b09935cd6e67f2b5e9ea2,old
2387.699999809265,directmemory_phase,GW/soldier.jpg,51.0,1.0,GW/paint.jpg,GW/dustpan.jpg,GW/gong.jpg,GW/gong.jpg,GW/dustpan.jpg,GW/paint.jpg,611b09935cd6e67f2b5e9ea2,old
1596.8999996185305,directmemory_phase,GW/dustpan.jpg,49.0,1.0,GW/globe.jpg,GW/wheelchair.jpg,GW/basket.jpg,GW/globe.jpg,GW/basket.jpg,GW/wheelchair.jpg,611b09935cd6e67f2b5e9ea2,old
2125.300000190735,directmemory_phase,GW/snail.jpg,50.0,0.0,GW/dustpan.jpg,GW/globe.jpg,GW/soldier.jpg,GW/soldier.jpg,GW/globe.jpg,GW/dustpan.jpg,611b09935cd6e67f2b5e9ea2,old
2373.5999994277954,directmemory_phase,GW/gong.jpg,50.0,1.0,GW/snail.jpg,GW/basket.jpg,GW/hat.jpg,GW/basket.jpg,GW/snail.jpg,GW/hat.jpg,611b09935cd6e67f2b5e9ea2,old
2748.5999994277954,directmemory_phase,GW/globe.jpg,51.0,1.0,GW/teeth.jpg,GW/camera.jpg,GW/soldier.jpg,GW/soldier.jpg,GW/camera.jpg,GW/teeth.jpg,611b09935cd6e67f2b5e9ea2,old
3121.9000005722046,directmemory_phase,GW/snail.jpg,51.0,1.0,GW/basket.jpg,GW/barrel.jpg,GW/camera.jpg,GW/camera.jpg,GW/barrel.jpg,GW/basket.jpg,611b09935cd6e67f2b5e9ea2,old
3953.4000005722046,directmemory_phase,GW/basket.jpg,51.0,0.0,GW/globe.jpg,GW/snail.jpg,GW/dustpan.jpg,GW/globe.jpg,GW/dustpan.jpg,GW/snail.jpg,611b09935cd6e67f2b5e9ea2,old
1983.0,directmemory_phase,GW/gong.jpg,51.0,1.0,GW/hat.jpg,GW/barrel.jpg,GW/soldier.jpg,GW/soldier.jpg,GW/barrel.jpg,GW/hat.jpg,611b09935cd6e67f2b5e9ea2,old
1505.3999996185305,directmemory_phase,GW/wheelchair.jpg,49.0,1.0,GW/jukebox.jpg,GW/basket.jpg,GW/barrel.jpg,GW/jukebox.jpg,GW/barrel.jpg,GW/basket.jpg,611b09935cd6e67f2b5e9ea2,old
1746.2999992370603,directmemory_phase,GW/gong.jpg,49.0,0.0,GW/jukebox.jpg,GW/dustpan.jpg,GW/globe.jpg,GW/globe.jpg,GW/dustpan.jpg,GW/jukebox.jpg,611b09935cd6e67f2b5e9ea2,old
1769.5,directmemory_phase,GW/paint.jpg,51.0,1.0,GW/snail.jpg,GW/gong.jpg,GW/basket.jpg,GW/basket.jpg,GW/gong.jpg,GW/snail.jpg,611b09935cd6e67f2b5e9ea2,old
2260.699999809265,directmemory_phase,GW/camera.jpg,49.0,0.0,GW/teeth.jpg,GW/gong.jpg,GW/jukebox.jpg,GW/gong.jpg,GW/teeth.jpg,GW/jukebox.jpg,611b09935cd6e67f2b5e9ea2,old
2583.1000003814697,directmemory_phase,GW/basket.jpg,49.0,0.0,GW/wheelchair.jpg,GW/soldier.jpg,GW/paint.jpg,GW/paint.jpg,GW/soldier.jpg,GW/wheelchair.jpg,611b09935cd6e67f2b5e9ea2,old
2563.800000190735,directmemory_phase,GW/camera.jpg,51.0,1.0,GW/paint.jpg,GW/teeth.jpg,GW/barrel.jpg,GW/barrel.jpg,GW/teeth.jpg,GW/paint.jpg,611b09935cd6e67f2b5e9ea2,old
2422.5,directmemory_phase,GW/basket.jpg,51.0,0.0,GW/camera.jpg,GW/gong.jpg,GW/wheelchair.jpg,GW/gong.jpg,GW/camera.jpg,GW/wheelchair.jpg,611b09935cd6e67f2b5e9ea2,old
3353.8999996185303,directmemory_phase,GW/soldier.jpg,49.0,0.0,GW/wheelchair.jpg,GW/snail.jpg,GW/paint.jpg,GW/snail.jpg,GW/wheelchair.jpg,GW/paint.jpg,611b09935cd6e67f2b5e9ea2,old
2878.1000003814697,directmemory_phase,GW/globe.jpg,51.0,1.0,GW/wheelchair.jpg,GW/paint.jpg,GW/basket.jpg,GW/basket.jpg,GW/paint.jpg,GW/wheelchair.jpg,611b09935cd6e67f2b5e9ea2,old
1951.3000001907349,directmemory_phase,GW/camera.jpg,50.0,1.0,GW/globe.jpg,GW/snail.jpg,GW/dustpan.jpg,GW/snail.jpg,GW/globe.jpg,GW/dustpan.jpg,611b09935cd6e67f2b5e9ea2,old
2214.800000190735,directmemory_phase,GW/teeth.jpg,51.0,1.0,GW/gong.jpg,GW/jukebox.jpg,GW/hat.jpg,GW/hat.jpg,GW/jukebox.jpg,GW/gong.jpg,611b09935cd6e67f2b5e9ea2,old
2922.3999996185303,directmemory_phase,GW/snail.jpg,50.0,1.0,GW/jukebox.jpg,GW/wheelchair.jpg,GW/hat.jpg,GW/wheelchair.jpg,GW/jukebox.jpg,GW/hat.jpg,611b09935cd6e67f2b5e9ea2,old
1805.8000001907349,directmemory_phase,GW/barrel.jpg,51.0,0.0,GW/gong.jpg,GW/camera.jpg,GW/soldier.jpg,GW/camera.jpg,GW/gong.jpg,GW/soldier.jpg,611b09935cd6e67f2b5e9ea2,old
2928.6000003814697,directmemory_phase,GW/globe.jpg,49.0,1.0,GW/gong.jpg,GW/teeth.jpg,GW/paint.jpg,GW/gong.jpg,GW/paint.jpg,GW/teeth.jpg,611b09935cd6e67f2b5e9ea2,old
1806.0,directmemory_phase,GW/teeth.jpg,49.0,1.0,GW/barrel.jpg,GW/basket.jpg,GW/snail.jpg,GW/barrel.jpg,GW/snail.jpg,GW/basket.jpg,611b09935cd6e67f2b5e9ea2,old
3562.3999996185303,directmemory_phase,GW/wheelchair.jpg,51.0,0.0,GW/barrel.jpg,GW/snail.jpg,GW/basket.jpg,GW/snail.jpg,GW/barrel.jpg,GW/basket.jpg,611b09935cd6e67f2b5e9ea2,old
3304.3999996185303,directmemory_phase,GW/soldier.jpg,51.0,0.0,GW/globe.jpg,GW/teeth.jpg,GW/camera.jpg,GW/globe.jpg,GW/camera.jpg,GW/teeth.jpg,611b09935cd6e67f2b5e9ea2,old
1969.3000001907349,directmemory_phase,GW/jukebox.jpg,50.0,1.0,GW/teeth.jpg,GW/wheelchair.jpg,GW/camera.jpg,GW/wheelchair.jpg,GW/teeth.jpg,GW/camera.jpg,611b09935cd6e67f2b5e9ea2,old
3114.2999992370605,directmemory_phase,GW/gong.jpg,49.0,1.0,GW/camera.jpg,GW/wheelchair.jpg,GW/snail.jpg,GW/camera.jpg,GW/snail.jpg,GW/wheelchair.jpg,611b09935cd6e67f2b5e9ea2,old
3688.0999994277954,directmemory_phase,GW/wheelchair.jpg,50.0,1.0,GW/barrel.jpg,GW/teeth.jpg,GW/basket.jpg,GW/teeth.jpg,GW/barrel.jpg,GW/basket.jpg,611b09935cd6e67f2b5e9ea2,old
3733.4000005722046,directmemory_phase,,50.0,1.0,,,,,,,611b09935cd6e67f2b5e9ea2,old
,directmemory_phase,,,0.0,,,,,,,611b09935cd6e67f2b5e9ea2,old
3566.899999976158,directmemory_phase,GW/snail.jpg,49.0,1.0,GW/camera.jpg,GW/paint.jpg,GW/barrel.jpg,GW/camera.jpg,GW/barrel.jpg,GW/paint.jpg,66660a053b08e2a34f9b945c,young
2941.600000023842,directmemory_phase,GW/globe.jpg,51.0,1.0,GW/teeth.jpg,GW/wheelchair.jpg,GW/soldier.jpg,GW/soldier.jpg,GW/wheelchair.jpg,GW/teeth.jpg,66660a053b08e2a34f9b945c,young
2878.1999999284744,directmemory_phase,GW/gong.jpg,51.0,1.0,GW/jukebox.jpg,GW/teeth.jpg,GW/camera.jpg,GW/camera.jpg,GW/teeth.jpg,GW/jukebox.jpg,66660a053b08e2a34f9b945c,young
1812.2999999523165,directmemory_phase,GW/basket.jpg,50.0,1.0,GW/hat.jpg,GW/teeth.jpg,GW/globe.jpg,GW/teeth.jpg,GW/hat.jpg,GW/globe.jpg,66660a053b08e2a34f9b945c,young
2622.1999999284744,directmemory_phase,GW/gong.jpg,49.0,1.0,GW/soldier.jpg,GW/paint.jpg,GW/globe.jpg,GW/soldier.jpg,GW/globe.jpg,GW/paint.jpg,66660a053b08e2a34f9b945c,young
2101.899999976158,directmemory_phase,GW/paint.jpg,51.0,1.0,GW/globe.jpg,GW/wheelchair.jpg,GW/barrel.jpg,GW/barrel.jpg,GW/wheelchair.jpg,GW/globe.jpg,66660a053b08e2a34f9b945c,young
4853.699999928474,directmemory_phase,GW/gong.jpg,50.0,1.0,GW/globe.jpg,GW/basket.jpg,GW/jukebox.jpg,GW/basket.jpg,GW/globe.jpg,GW/jukebox.jpg,66660a053b08e2a34f9b945c,young
1677.7000000476835,directmemory_phase,GW/snail.jpg,51.0,1.0,GW/jukebox.jpg,GW/barrel.jpg,GW/wheelchair.jpg,GW/wheelchair.jpg,GW/barrel.jpg,GW/jukebox.jpg,66660a053b08e2a34f9b945c,young
1350.7000000476835,directmemory_phase,GW/hat.jpg,51.0,1.0,GW/globe.jpg,GW/snail.jpg,GW/camera.jpg,GW/camera.jpg,GW/snail.jpg,GW/globe.jpg,66660a053b08e2a34f9b945c,young
2722.399999976158,directmemory_phase,GW/soldier.jpg,51.0,1.0,GW/hat.jpg,GW/barrel.jpg,GW/gong.jpg,GW/gong.jpg,GW/barrel.jpg,GW/hat.jpg,66660a053b08e2a34f9b945c,young
3469.900000095367,directmemory_phase,GW/globe.jpg,49.0,1.0,GW/jukebox.jpg,GW/teeth.jpg,GW/barrel.jpg,GW/jukebox.jpg,GW/barrel.jpg,GW/teeth.jpg,66660a053b08e2a34f9b945c,young
1597.399999976158,directmemory_phase,GW/wheelchair.jpg,51.0,1.0,GW/dustpan.jpg,GW/gong.jpg,GW/soldier.jpg,GW/soldier.jpg,GW/gong.jpg,GW/dustpan.jpg,66660a053b08e2a34f9b945c,young
