rt,trial_type,stimulus,key_press,accuracy,stimulus_down_left,stimulus_down_mid,stimulus_down_right,stimulus_correct,stimulus_short,stimulus_far,partid,age,stimulus_left,stimulus_right,condition,specific_pairs
2641.9000000059605,directmemory_phase,node9,51.0,1.0,node1,node13,node6,node6,node13,node1,67dcc12657e2fe1375df7f89,young,,,,
2749.20000000298,directmemory_phase,node1,51.0,0.0,node4,node2,node11,node2,node4,node11,67dcc12657e2fe1375df7f89,young,,,,
2410.0999999940395,directmemory_phase,node11,50.0,1.0,node8,node3,node13,node3,node8,node13,67dcc12657e2fe1375df7f89,young,,,,
2559.5999999940395,directmemory_phase,node2,49.0,1.0,node4,node8,node6,node4,node6,node8,67dcc12657e2fe1375df7f89,young,,,,
4452.0,directmemory_phase,node9,50.0,0.0,node7,node1,node3,node7,node3,node1,67dcc12657e2fe1375df7f89,young,,,,
6194.0,directmemory_phase,node3,49.0,0.0,node1,node6,node13,node6,node1,node13,67dcc12657e2fe1375df7f89,young,,,,
,directmemory_phase,node9,,,node1,node13,node8,node8,node13,node1,67dcc12657e2fe1375df7f89,young,,,,
2022.8999999910595,directmemory_phase,node4,51.0,1.0,node9,node1,node12,node12,node1,node9,67dcc12657e2fe1375df7f89,young,,,,
2478.5,directmemory_phase,node7,50.0,0.0,node6,node4,node3,node6,node3,node4,67dcc12657e2fe1375df7f89,young,,,,
2470.5,directmemory_phase,node11,49.0,0.0,node4,node12,node1,node12,node4,node1,67dcc12657e2fe1375df7f89,young,,,,
2135.0999999940395,directmemory_phase,node2,50.0,0.0,node7,node11,node3,node3,node11,node7,67dcc12657e2fe1375df7f89,young,,,,
1772.300000011921,directmemory_phase,node12,50.0,0.0,node13,node5,node11,node11,node5,node13,67dcc12657e2fe1375df7f89,young,,,,
1935.20000000298,directmemory_phase,node7,51.0,1.0,node12,node11,node9,node9,node11,node12,67dcc12657e2fe1375df7f89,young,,,,
1771.2999999970198,directmemory_phase,node5,49.0,1.0,node4,node9,node12,node4,node12,node9,67dcc12657e2fe1375df7f89,young,,,,
2027.70000000298,directmemory_phase,node2,50.0,0.0,node7,node5,node1,node1,node5,node7,67dcc12657e2fe1375df7f89,young,,,,
1672.2000000029802,directmemory_phase,node4,49.0,1.0,node5,node9,node11,node5,node11,node9,67dcc12657e2fe1375df7f89,young,,,,
1597.7999999970198,directmemory_phase,node3,50.0,0.0,node2,node10,node4,node2,node4,node10,67dcc12657e2fe1375df7f89,young,,,,
1849.5,directmemory_phase,node8,50.0,0.0,node10,node4,node11,node10,node11,node4,67dcc12657e2fe1375df7f89,young,,,,
1839.4000000059605,directmemory_phase,node4,51.0,1.0,node8,node11,node2,node2,node11,node8,67dcc12657e2fe1375df7f89,young,,,,
1233.9000000059605,directmemory_phase,node6,50.0,1.0,node13,node9,node4,node9,node13,node4,67dcc12657e2fe1375df7f89,young,,,,
1171.5999999940395,directmemory_phase,node13,51.0,1.0,node12,node9,node7,node7,node9,node12,67dcc12657e2fe1375df7f89,young,,,,
1457.300000011921,directmemory_phase,node6,49.0,0.0,node10,node8,node3,node3,node8,node10,67dcc12657e2fe1375df7f89,young,,,,
1370.0,directmemory_phase,node8,50.0,0.0,node3,node13,node7,node7,node13,node3,67dcc12657e2fe1375df7f89,young,,,,
2121.20000000298,directmemory_phase,node12,49.0,0.0,node6,node5,node4,node4,node5,node6,67dcc12657e2fe1375df7f89,young,,,,
1502.0999999940395,directmemory_phase,node7,50.0,1.0,node11,node8,node12,node8,node11,node12,67dcc12657e2fe1375df7f89,young,,,,
2407.6000000089407,directmemory_phase,node3,51.0,1.0,node5,node7,node11,node11,node7,node5,67dcc12657e2fe1375df7f89,young,,,,
1787.5999999940395,directmemory_phase,node10,49.0,1.0,node8,node12,node9,node8,node9,node12,67dcc12657e2fe1375df7f89,young,,,,
1768.5999999940395,directmemory_phase,node11,50.0,0.0,node9,node1,node7,node9,node7,node1,67dcc12657e2fe1375df7f89,young,,,,
2072.1000000089407,directmemory_phase,node7,49.0,0.0,node2,node3,node13,node13,node3,node2,67dcc12657e2fe1375df7f89,young,,,,
1742.7000000029802,directmemory_phase,node9,51.0,0.0,node13,node11,node2,node11,node13,node2,67dcc12657e2fe1375df7f89,young,,,,
2077.70000000298,directmemory_phase,node6,50.0,0.0,node10,node13,node7,node7,node13,node10,67dcc12657e2fe1375df7f89,young,,,,
2443.9000000059605,directmemory_phase,node8,50.0,0.0,node9,node4,node11,node9,node11,node4,67dcc12657e2fe1375df7f89,young,,,,
2975.7999999523163,directmemory_phase,node4,50.0,1.0,node3,node12,node9,node12,node3,node9,67ce1feb43ee9200186c94b3,old,,,,
5864.5,directmemory_phase,node1,49.0,0.0,node12,node3,node2,node2,node3,node12,67ce1feb43ee9200186c94b3,old,,,,
5329.899999976158,directmemory_phase,node8,50.0,1.0,node6,node9,node2,node9,node6,node2,67ce1feb43ee9200186c94b3,old,,,,
3440.6999999284744,directmemory_phase,node2,51.0,1.0,node8,node12,node3,node3,node12,node8,67ce1feb43ee9200186c94b3,old,,,,
4082.8000000715256,directmemory_phase,node9,51.0,1.0,node1,node3,node11,node11,node3,node1,67ce1feb43ee9200186c94b3,old,,,,
4576.899999976158,directmemory_phase,node12,49.0,1.0,node4,node6,node3,node4,node3,node6,67ce1feb43ee9200186c94b3,old,,,,
4683.699999928474,directmemory_phase,node9,50.0,1.0,node13,node8,node5,node8,node13,node5,67ce1feb43ee9200186c94b3,old,,,,
3538.600000023842,directmemory_phase,node11,50.0,0.0,node3,node5,node2,node3,node2,node5,67ce1feb43ee9200186c94b3,old,,,,
5152.800000071526,directmemory_phase,node10,49.0,0.0,node11,node7,node8,node8,node7,node11,67ce1feb43ee9200186c94b3,old,,,,
,directmemory_phase,node2,,,node13,node11,node4,node4,node11,node13,67ce1feb43ee9200186c94b3,old,,,,
3547.6999999284744,directmemory_phase,node7,51.0,1.0,node2,node3,node6,node6,node3,node2,67ce1feb43ee9200186c94b3,old,,,,
3929.3000000715256,directmemory_phase,node11,51.0,1.0,node5,node8,node12,node12,node8,node5,67ce1feb43ee9200186c94b3,old,,,,
5114.299999952316,directmemory_phase,node3,51.0,0.0,node6,node5,node4,node6,node4,node5,67ce1feb43ee9200186c94b3,old,,,,
5647.300000071526,directmemory_phase,node7,50.0,0.0,node8,node4,node10,node8,node10,node4,67ce1feb43ee9200186c94b3,old,,,,
4355.899999976158,directmemory_phase,node6,50.0,0.0,node4,node11,node3,node3,node11,node4,67ce1feb43ee9200186c94b3,old,,,,
5583.600000023842,directmemory_phase,node11,50.0,0.0,node9,node10,node2,node9,node2,node10,67ce1feb43ee9200186c94b3,old,,,,
4521.5,directmemory_phase,node6,51.0,1.0,node10,node2,node7,node7,node2,node10,67ce1feb43ee9200186c94b3,old,,,,
4535.600000023842,directmemory_phase,node3,51.0,1.0,node13,node1,node11,node11,node1,node13,67ce1feb43ee9200186c94b3,old,,,,
4825.0,directmemory_phase,node8,49.0,0.0,node4,node6,node7,node7,node6,node4,67ce1feb43ee9200186c94b3,old,,,,
4258.5,directmemory_phase,node4,51.0,1.0,node7,node11,node5,node5,node11,node7,67ce1feb43ee9200186c94b3,old,,,,
4622.899999976158,directmemory_phase,node8,51.0,1.0,node12,node11,node10,node10,node11,node12,67ce1feb43ee9200186c94b3,old,,,,
2760.0,directmemory_phase,node9,49.0,0.0,node5,node3,node7,node7,node3,node5,67ce1feb43ee9200186c94b3,old,,,,
3514.0,directmemory_phase,node12,49.0,0.0,node13,node5,node11,node11,node5,node13,67ce1feb43ee9200186c94b3,old,,,,
3386.0,directmemory_phase,node6,51.0,0.0,node9,node4,node11,node9,node11,node4,67ce1feb43ee9200186c94b3,old,,,,
3864.399999976158,directmemory_phase,node5,49.0,1.0,node4,node3,node2,node4,node2,node3,67ce1feb43ee9200186c94b3,old,,,,
4194.299999952316,directmemory_phase,node7,49.0,1.0,node13,node4,node3,node13,node3,node4,67ce1feb43ee9200186c94b3,old,,,,
3848.100000023842,directmemory_phase,node4,49.0,0.0,node9,node11,node2,node2,node11,node9,67ce1feb43ee9200186c94b3,old,,,,
3185.0,directmemory_phase,node9,49.0,0.0,node4,node3,node6,node6,node3,node4,67ce1feb43ee9200186c94b3,old,,,,
3969.600000023842,directmemory_phase,node2,50.0,0.0,node1,node9,node12,node1,node12,node9,67ce1feb43ee9200186c94b3,old,,,,
3364.600000023842,directmemory_phase,node7,49.0,0.0,node12,node10,node9,node9,node10,node12,67ce1feb43ee9200186c94b3,old,,,,
3873.100000023842,directmemory_phase,node3,51.0,0.0,node1,node2,node8,node2,node1,node8,67ce1feb43ee9200186c94b3,old,,,,
3257.7999999523163,directmemory_phase,node13,51.0,1.0,node12,node9,node7,node7,node9,node12,67ce1feb43ee9200186c94b3,old,,,,
2077.7999999988824,directmemory_phase,node3,51.0,0.0,node11,node10,node4,node11,node4,node10,5bcc60b95c2b810001dc68e2,young,,,,
2533.89999999851,directmemory_phase,node8,49.0,0.0,node3,node6,node10,node10,node6,node3,5bcc60b95c2b810001dc68e2,young,,,,
2868.699999999255,directmemory_phase,node9,49.0,1.0,node7,node5,node12,node7,node12,node5,5bcc60b95c2b810001dc68e2,young,,,,
1668.9000000003723,directmemory_phase,node4,50.0,0.0,node8,node11,node12,node12,node11,node8,5bcc60b95c2b810001dc68e2,young,,,,
2156.9000000003725,directmemory_phase,node9,49.0,1.0,node11,node1,node10,node11,node10,node1,5bcc60b95c2b810001dc68e2,young,,,,
1301.5999999996277,directmemory_phase,node5,51.0,0.0,node4,node3,node12,node4,node12,node3,5bcc60b95c2b810001dc68e2,young,,,,
1274.800000000745,directmemory_phase,node7,50.0,0.0,node2,node10,node8,node8,node10,node2,5bcc60b95c2b810001dc68e2,young,,,,
1363.2000000011176,directmemory_phase,node11,50.0,0.0,node13,node7,node9,node9,node7,node13,5bcc60b95c2b810001dc68e2,young,,,,
854.2000000011176,directmemory_phase,node3,50.0,0.0,node6,node5,node12,node6,node12,node5,5bcc60b95c2b810001dc68e2,young,,,,
1704.5999999996277,directmemory_phase,node9,51.0,1.0,node5,node10,node8,node8,node10,node5,5bcc60b95c2b810001dc68e2,young,,,,
943.0,directmemory_phase,node11,51.0,0.0,node12,node13,node4,node12,node4,node13,5bcc60b95c2b810001dc68e2,young,,,,
1704.9000000003723,directmemory_phase,node9,49.0,0.0,node13,node6,node2,node6,node13,node2,5bcc60b95c2b810001dc68e2,young,,,,
1479.7000000011176,directmemory_phase,node4,50.0,0.0,node6,node11,node5,node5,node11,node6,5bcc60b95c2b810001dc68e2,young,,,,
2950.0,directmemory_phase,node7,49.0,0.0,node3,node9,node2,node9,node3,node2,5bcc60b95c2b810001dc68e2,young,,,,
1371.2999999988824,directmemory_phase,node12,50.0,1.0,node9,node11,node6,node11,node9,node6,5bcc60b95c2b810001dc68e2,young,,,,
1834.300000000745,directmemory_phase,node6,51.0,1.0,node12,node13,node7,node7,node13,node12,5bcc60b95c2b810001dc68e2,young,,,,
3533.800000000745,directmemory_phase,node8,50.0,0.0,node4,node11,node9,node9,node11,node4,5bcc60b95c2b810001dc68e2,young,,,,
1991.599999999628,directmemory_phase,node12,49.0,0.0,node1,node3,node4,node4,node3,node1,5bcc60b95c2b810001dc68e2,young,,,,
2147.0999999996275,directmemory_phase,node7,50.0,0.0,node1,node11,node13,node13,node11,node1,5bcc60b95c2b810001dc68e2,young,,,,
2636.199999999255,directmemory_phase,node1,49.0,0.0,node4,node2,node12,node2,node4,node12,5bcc60b95c2b810001dc68e2,young,,,,
2580.2000000011176,directmemory_phase,node13,49.0,1.0,node7,node2,node9,node7,node9,node2,5bcc60b95c2b810001dc68e2,young,,,,
2668.60000000149,directmemory_phase,node6,50.0,0.0,node9,node1,node13,node9,node13,node1,5bcc60b95c2b810001dc68e2,young,,,,
1851.0,directmemory_phase,node8,50.0,1.0,node11,node7,node3,node7,node11,node3,5bcc60b95c2b810001dc68e2,young,,,,
1023.0999999996276,directmemory_phase,node3,50.0,1.0,node7,node2,node13,node2,node7,node13,5bcc60b95c2b810001dc68e2,young,,,,
2357.0,directmemory_phase,node7,49.0,0.0,node4,node10,node6,node6,node10,node4,5bcc60b95c2b810001dc68e2,young,,,,
2528.4000000003725,directmemory_phase,node10,51.0,0.0,node8,node11,node7,node8,node7,node11,5bcc60b95c2b810001dc68e2,young,,,,
1733.9000000003723,directmemory_phase,node6,51.0,0.0,node3,node5,node11,node3,node11,node5,5bcc60b95c2b810001dc68e2,young,,,,
1773.10000000149,directmemory_phase,node2,50.0,0.0,node9,node11,node1,node1,node11,node9,5bcc60b95c2b810001dc68e2,young,,,,
747.3000000007451,directmemory_phase,node11,50.0,1.0,node2,node3,node1,node3,node2,node1,5bcc60b95c2b810001dc68e2,young,,,,
908.8000000007452,directmemory_phase,node4,50.0,0.0,node2,node6,node11,node2,node11,node6,5bcc60b95c2b810001dc68e2,young,,,,
1463.7999999988824,directmemory_phase,,50.0,,,,,,,,5bcc60b95c2b810001dc68e2,young,,,,
1568.2999999988824,directmemory_phase,,49.0,,,,,,,,5bcc60b95c2b810001dc68e2,young,,,,
2481.2999999523163,directmemory_phase,node7,50.0,1.0,node11,node8,node1,node8,node11,node1,6550de88683355a74699844c,young,,,,
3829.0,directmemory_phase,node9,51.0,1.0,node5,node13,node6,node6,node13,node5,6550de88683355a74699844c,young,,,,
1501.4000000953674,directmemory_phase,node5,49.0,1.0,node4,node9,node12,node4,node12,node9,6550de88683355a74699844c,young,,,,
3045.399999976158,directmemory_phase,node8,49.0,1.0,node9,node12,node11,node9,node11,node12,6550de88683355a74699844c,young,,,,
2525.1999999284744,directmemory_phase,node12,50.0,1.0,node3,node11,node8,node11,node3,node8,6550de88683355a74699844c,young,,,,
3211.899999976158,directmemory_phase,node7,49.0,1.0,node9,node12,node10,node9,node10,node12,6550de88683355a74699844c,young,,,,
1588.100000023842,directmemory_phase,node10,50.0,1.0,node9,node8,node3,node8,node9,node3,6550de88683355a74699844c,young,,,,
2758.5,directmemory_phase,node12,49.0,0.0,node9,node4,node8,node4,node9,node8,6550de88683355a74699844c,young,,,,
1223.100000023842,directmemory_phase,node2,49.0,1.0,node1,node13,node5,node1,node5,node13,6550de88683355a74699844c,young,,,,
2238.7999999523163,directmemory_phase,node11,50.0,0.0,node1,node6,node12,node12,node6,node1,6550de88683355a74699844c,young,,,,
3820.700000047684,directmemory_phase,node9,51.0,1.0,node2,node3,node8,node8,node3,node2,6550de88683355a74699844c,young,,,,
3097.6999999284744,directmemory_phase,node2,51.0,0.0,node6,node4,node9,node4,node6,node9,6550de88683355a74699844c,young,,,,
1388.7000000476835,directmemory_phase,node3,49.0,1.0,node11,node5,node4,node11,node4,node5,6550de88683355a74699844c,young,,,,
1144.0,directmemory_phase,node4,51.0,1.0,node6,node1,node5,node5,node1,node6,6550de88683355a74699844c,young,,,,
1081.0,directmemory_phase,node8,49.0,1.0,node10,node12,node6,node10,node6,node12,6550de88683355a74699844c,young,,,,
2929.700000047684,directmemory_phase,node4,49.0,1.0,node12,node9,node1,node12,node1,node9,6550de88683355a74699844c,young,,,,
1286.3000000715256,directmemory_phase,node3,51.0,1.0,node10,node1,node2,node2,node1,node10,6550de88683355a74699844c,young,,,,
2472.600000023842,directmemory_phase,node7,49.0,1.0,node6,node12,node11,node6,node11,node12,6550de88683355a74699844c,young,,,,
1384.2999999523165,directmemory_phase,node11,49.0,1.0,node3,node13,node7,node3,node7,node13,6550de88683355a74699844c,young,,,,
2050.200000047684,directmemory_phase,node13,49.0,1.0,node7,node3,node9,node7,node9,node3,6550de88683355a74699844c,young,,,,
1342.2999999523165,directmemory_phase,node2,51.0,1.0,node9,node5,node3,node3,node5,node9,6550de88683355a74699844c,young,,,,
3399.8000000715256,directmemory_phase,node11,51.0,0.0,node9,node10,node8,node9,node8,node10,6550de88683355a74699844c,young,,,,
3498.899999976158,directmemory_phase,node6,51.0,1.0,node12,node13,node7,node7,node13,node12,6550de88683355a74699844c,young,,,,
1234.5,directmemory_phase,node9,51.0,1.0,node2,node10,node11,node11,node10,node2,6550de88683355a74699844c,young,,,,
2204.6999999284744,directmemory_phase,node4,49.0,0.0,node6,node1,node2,node2,node1,node6,6550de88683355a74699844c,young,,,,
1586.600000023842,directmemory_phase,node3,49.0,0.0,node8,node4,node6,node6,node4,node8,6550de88683355a74699844c,young,,,,
4238.700000047684,directmemory_phase,node7,51.0,0.0,node3,node13,node4,node13,node3,node4,6550de88683355a74699844c,young,,,,
2163.399999976158,directmemory_phase,node6,49.0,1.0,node3,node5,node11,node3,node11,node5,6550de88683355a74699844c,young,,,,
2688.100000023842,directmemory_phase,node9,49.0,1.0,node7,node1,node10,node7,node10,node1,6550de88683355a74699844c,young,,,,
1345.100000023842,directmemory_phase,node1,51.0,1.0,node9,node4,node2,node2,node4,node9,6550de88683355a74699844c,young,,,,
1443.7999999523165,directmemory_phase,node6,50.0,0.0,node9,node5,node2,node9,node2,node5,6550de88683355a74699844c,young,,,,
1735.4000000953674,directmemory_phase,node8,49.0,1.0,node7,node12,node13,node7,node13,node12,6550de88683355a74699844c,young,,,,
2279.0,directmemory_phase,node3,51.0,1.0,node13,node12,node6,node6,node12,node13,6526f601bedbae17738408b1,old,,,,
1594.199999988079,directmemory_phase,node8,51.0,1.0,node3,node11,node7,node7,node11,node3,6526f601bedbae17738408b1,old,,,,
2074.5,directmemory_phase,node9,50.0,1.0,node3,node6,node1,node6,node3,node1,6526f601bedbae17738408b1,old,,,,
1088.0,directmemory_phase,node13,51.0,1.0,node3,node9,node7,node7,node9,node3,6526f601bedbae17738408b1,old,,,,
2446.400000035763,directmemory_phase,node6,50.0,1.0,node11,node9,node10,node9,node11,node10,6526f601bedbae17738408b1,old,,,,
1411.100000023842,directmemory_phase,node4,50.0,1.0,node3,node12,node8,node12,node3,node8,6526f601bedbae17738408b1,old,,,,
2113.199999988079,directmemory_phase,node3,51.0,0.0,node11,node8,node7,node11,node7,node8,6526f601bedbae17738408b1,old,,,,
1062.100000023842,directmemory_phase,node12,51.0,1.0,node1,node3,node4,node4,node3,node1,6526f601bedbae17738408b1,old,,,,
2147.399999976158,directmemory_phase,node8,51.0,1.0,node12,node11,node9,node9,node11,node12,6526f601bedbae17738408b1,old,,,,
1772.199999988079,directmemory_phase,node4,51.0,1.0,node9,node3,node2,node2,node3,node9,6526f601bedbae17738408b1,old,,,,
2140.699999988079,directmemory_phase,node11,51.0,0.0,node12,node5,node8,node12,node8,node5,6526f601bedbae17738408b1,old,,,,
1094.5,directmemory_phase,node2,51.0,1.0,node8,node6,node4,node4,node6,node8,6526f601bedbae17738408b1,old,,,,
1810.399999976158,directmemory_phase,node6,51.0,1.0,node4,node2,node7,node7,node2,node4,6526f601bedbae17738408b1,old,,,,
1230.899999976158,directmemory_phase,node2,49.0,1.0,node1,node13,node5,node1,node5,node13,6526f601bedbae17738408b1,old,,,,
2430.399999976158,directmemory_phase,node6,49.0,0.0,node13,node3,node12,node3,node13,node12,6526f601bedbae17738408b1,old,,,,
1831.199999988079,directmemory_phase,node7,50.0,1.0,node11,node13,node1,node13,node11,node1,6526f601bedbae17738408b1,old,,,,
1352.899999976158,directmemory_phase,node9,50.0,1.0,node12,node11,node1,node11,node12,node1,6526f601bedbae17738408b1,old,,,,
1220.0,directmemory_phase,node8,51.0,1.0,node12,node13,node10,node10,node13,node12,6526f601bedbae17738408b1,old,,,,
1180.899999976158,directmemory_phase,node1,50.0,1.0,node3,node2,node5,node2,node3,node5,6526f601bedbae17738408b1,old,,,,
937.2000000476836,directmemory_phase,node10,51.0,1.0,node12,node9,node8,node8,node9,node12,6526f601bedbae17738408b1,old,,,,
2261.400000035763,directmemory_phase,node3,51.0,1.0,node5,node1,node2,node2,node1,node5,6526f601bedbae17738408b1,old,,,,
2274.899999976158,directmemory_phase,node7,50.0,1.0,node11,node8,node2,node8,node11,node2,6526f601bedbae17738408b1,old,,,,
1131.399999976158,directmemory_phase,node2,51.0,1.0,node9,node5,node3,node3,node5,node9,6526f601bedbae17738408b1,old,,,,
1022.6999999880792,directmemory_phase,node11,49.0,1.0,node9,node13,node4,node9,node4,node13,6526f601bedbae17738408b1,old,,,,
1806.0,directmemory_phase,node4,51.0,1.0,node6,node1,node5,node5,node1,node6,6526f601bedbae17738408b1,old,,,,
3302.599999964237,directmemory_phase,node9,49.0,0.0,node2,node3,node8,node8,node3,node2,6526f601bedbae17738408b1,old,,,,
1091.9000000357628,directmemory_phase,node5,51.0,1.0,node11,node12,node4,node4,node12,node11,6526f601bedbae17738408b1,old,,,,
1959.300000011921,directmemory_phase,node7,49.0,1.0,node6,node1,node10,node6,node10,node1,6526f601bedbae17738408b1,old,,,,
2830.800000011921,directmemory_phase,node11,51.0,1.0,node13,node6,node3,node3,node6,node13,6526f601bedbae17738408b1,old,,,,
3770.100000023842,directmemory_phase,node7,51.0,1.0,node12,node10,node9,node9,node10,node12,6526f601bedbae17738408b1,old,,,,
2197.0,directmemory_phase,node12,50.0,1.0,node2,node11,node10,node11,node2,node10,6526f601bedbae17738408b1,old,,,,
2681.899999976158,directmemory_phase,node9,50.0,0.0,node4,node12,node7,node7,node12,node4,6526f601bedbae17738408b1,old,,,,
3451.399999976158,directmemory_phase,node3,51.0,1.0,node10,node7,node11,node11,node7,node10,66af82fe7c33867b3ed6efcb,young,,,,
2749.399999976158,directmemory_phase,node4,50.0,1.0,node3,node12,node8,node12,node3,node8,66af82fe7c33867b3ed6efcb,young,,,,
3563.7999999523163,directmemory_phase,node11,51.0,1.0,node1,node6,node3,node3,node6,node1,66af82fe7c33867b3ed6efcb,young,,,,
2459.1999999284744,directmemory_phase,node7,51.0,1.0,node4,node3,node9,node9,node3,node4,66af82fe7c33867b3ed6efcb,young,,,,
4137.300000071526,directmemory_phase,node2,49.0,0.0,node5,node3,node13,node3,node5,node13,66af82fe7c33867b3ed6efcb,young,,,,
2881.899999976158,directmemory_phase,node6,50.0,1.0,node2,node9,node12,node9,node2,node12,66af82fe7c33867b3ed6efcb,young,,,,
2148.700000047684,directmemory_phase,node13,49.0,1.0,node7,node2,node8,node7,node8,node2,66af82fe7c33867b3ed6efcb,young,,,,
3159.8000000715256,directmemory_phase,node8,51.0,1.0,node2,node11,node9,node9,node11,node2,66af82fe7c33867b3ed6efcb,young,,,,
2656.399999976158,directmemory_phase,node7,49.0,1.0,node6,node12,node3,node6,node3,node12,66af82fe7c33867b3ed6efcb,young,,,,
2560.7999999523163,directmemory_phase,node8,51.0,1.0,node2,node13,node10,node10,node13,node2,66af82fe7c33867b3ed6efcb,young,,,,
2561.600000023842,directmemory_phase,node6,51.0,1.0,node1,node11,node7,node7,node11,node1,66af82fe7c33867b3ed6efcb,young,,,,
2792.7999999523163,directmemory_phase,node4,51.0,1.0,node7,node11,node5,node5,node11,node7,66af82fe7c33867b3ed6efcb,young,,,,
2641.399999976158,directmemory_phase,node9,51.0,1.0,node4,node12,node6,node6,node12,node4,66af82fe7c33867b3ed6efcb,young,,,,
2020.399999976158,directmemory_phase,node2,49.0,1.0,node4,node9,node12,node4,node12,node9,66af82fe7c33867b3ed6efcb,young,,,,
2888.700000047684,directmemory_phase,node8,51.0,1.0,node3,node11,node7,node7,node11,node3,66af82fe7c33867b3ed6efcb,young,,,,
5393.699999928474,directmemory_phase,node5,50.0,0.0,node4,node1,node2,node4,node2,node1,66af82fe7c33867b3ed6efcb,young,,,,
4773.299999952316,directmemory_phase,node3,49.0,1.0,node6,node13,node1,node6,node1,node13,66af82fe7c33867b3ed6efcb,young,,,,
2944.8000000715256,directmemory_phase,node7,51.0,0.0,node8,node12,node10,node8,node10,node12,66af82fe7c33867b3ed6efcb,young,,,,
2627.7999999523163,directmemory_phase,node1,50.0,1.0,node3,node2,node12,node2,node3,node12,66af82fe7c33867b3ed6efcb,young,,,,
5876.899999976158,directmemory_phase,node7,50.0,1.0,node11,node13,node4,node13,node11,node4,66af82fe7c33867b3ed6efcb,young,,,,
2695.0,directmemory_phase,node10,49.0,1.0,node8,node12,node9,node8,node9,node12,66af82fe7c33867b3ed6efcb,young,,,,
4928.0,directmemory_phase,node3,51.0,0.0,node1,node2,node13,node2,node1,node13,66af82fe7c33867b3ed6efcb,young,,,,
,directmemory_phase,node12,,,node4,node7,node5,node4,node5,node7,66af82fe7c33867b3ed6efcb,young,,,,
3045.1999999284744,directmemory_phase,node11,49.0,0.0,node13,node7,node9,node9,node7,node13,66af82fe7c33867b3ed6efcb,young,,,,
2145.5,directmemory_phase,node2,50.0,1.0,node12,node1,node8,node1,node12,node8,66af82fe7c33867b3ed6efcb,young,,,,
2115.7999999523163,directmemory_phase,node9,51.0,1.0,node4,node13,node7,node7,node13,node4,66af82fe7c33867b3ed6efcb,young,,,,
2593.600000023842,directmemory_phase,node12,51.0,1.0,node13,node5,node11,node11,node5,node13,66af82fe7c33867b3ed6efcb,young,,,,
2629.100000023842,directmemory_phase,node9,49.0,1.0,node8,node5,node13,node8,node13,node5,66af82fe7c33867b3ed6efcb,young,,,,
2434.5,directmemory_phase,node11,49.0,1.0,node12,node13,node4,node12,node4,node13,66af82fe7c33867b3ed6efcb,young,,,,
2379.0,directmemory_phase,node6,50.0,0.0,node3,node12,node2,node3,node2,node12,66af82fe7c33867b3ed6efcb,young,,,,
2033.5,directmemory_phase,node9,51.0,0.0,node11,node1,node3,node11,node3,node1,66af82fe7c33867b3ed6efcb,young,,,,
3760.599999904633,directmemory_phase,node4,51.0,1.0,node8,node1,node2,node2,node1,node8,66af82fe7c33867b3ed6efcb,young,,,,
1958.199999988079,directmemory_phase,node7,49.0,0.0,node12,node10,node13,node13,node10,node12,668c85c9f955972065292902,young,,,,
2007.800000011921,directmemory_phase,node9,50.0,0.0,node8,node4,node3,node8,node3,node4,668c85c9f955972065292902,young,,,,
3523.100000023842,directmemory_phase,node7,49.0,0.0,node4,node10,node6,node6,node10,node4,668c85c9f955972065292902,young,,,,
2032.300000011921,directmemory_phase,node11,51.0,1.0,node1,node7,node12,node12,node7,node1,668c85c9f955972065292902,young,,,,
1676.0999999642372,directmemory_phase,node7,50.0,0.0,node12,node11,node8,node8,node11,node12,668c85c9f955972065292902,young,,,,
1706.5999999642372,directmemory_phase,node11,49.0,1.0,node9,node1,node6,node9,node6,node1,668c85c9f955972065292902,young,,,,
1702.9000000357628,directmemory_phase,node8,51.0,0.0,node13,node10,node3,node10,node13,node3,668c85c9f955972065292902,young,,,,
1843.9000000357628,directmemory_phase,node9,51.0,1.0,node5,node13,node7,node7,node13,node5,668c85c9f955972065292902,young,,,,
2277.100000023842,directmemory_phase,node4,50.0,0.0,node5,node9,node3,node5,node3,node9,668c85c9f955972065292902,young,,,,
2341.399999976158,directmemory_phase,node6,51.0,0.0,node11,node3,node4,node3,node11,node4,668c85c9f955972065292902,young,,,,
2542.199999988079,directmemory_phase,node2,49.0,0.0,node11,node1,node8,node1,node11,node8,668c85c9f955972065292902,young,,,,
2426.899999976158,directmemory_phase,node9,50.0,0.0,node6,node4,node3,node6,node3,node4,668c85c9f955972065292902,young,,,,
1932.199999988079,directmemory_phase,node10,49.0,1.0,node8,node6,node9,node8,node9,node6,668c85c9f955972065292902,young,,,,
2629.800000011921,directmemory_phase,node5,49.0,1.0,node4,node11,node12,node4,node12,node11,668c85c9f955972065292902,young,,,,
1915.9000000357628,directmemory_phase,node8,50.0,0.0,node7,node12,node11,node7,node11,node12,668c85c9f955972065292902,young,,,,
1911.699999988079,directmemory_phase,node1,49.0,1.0,node2,node9,node4,node2,node4,node9,668c85c9f955972065292902,young,,,,
1905.0,directmemory_phase,node3,50.0,0.0,node8,node12,node11,node11,node12,node8,668c85c9f955972065292902,young,,,,
2564.800000011921,directmemory_phase,node7,49.0,1.0,node9,node2,node3,node9,node3,node2,668c85c9f955972065292902,young,,,,
1841.199999988079,directmemory_phase,node12,49.0,1.0,node11,node6,node5,node11,node5,node6,668c85c9f955972065292902,young,,,,
1737.0,directmemory_phase,node2,50.0,0.0,node3,node7,node11,node3,node11,node7,668c85c9f955972065292902,young,,,,
1446.899999976158,directmemory_phase,node9,50.0,1.0,node3,node11,node4,node11,node3,node4,668c85c9f955972065292902,young,,,,
2343.300000011921,directmemory_phase,node4,49.0,0.0,node7,node11,node2,node2,node11,node7,668c85c9f955972065292902,young,,,,
1607.199999988079,directmemory_phase,node6,50.0,0.0,node5,node11,node9,node9,node11,node5,668c85c9f955972065292902,young,,,,
1829.699999988079,directmemory_phase,node3,51.0,1.0,node8,node9,node2,node2,node9,node8,668c85c9f955972065292902,young,,,,
1873.5,directmemory_phase,node13,50.0,0.0,node3,node6,node7,node7,node6,node3,668c85c9f955972065292902,young,,,,
1390.300000011921,directmemory_phase,node3,49.0,1.0,node6,node5,node9,node6,node9,node5,668c85c9f955972065292902,young,,,,
1858.300000011921,directmemory_phase,node4,49.0,1.0,node12,node8,node11,node12,node11,node8,668c85c9f955972065292902,young,,,,
2082.199999988079,directmemory_phase,node11,50.0,0.0,node1,node2,node3,node3,node2,node1,668c85c9f955972065292902,young,,,,
1888.899999976158,directmemory_phase,node12,49.0,1.0,node4,node10,node2,node4,node2,node10,668c85c9f955972065292902,young,,,,
1605.4000000357628,directmemory_phase,node6,51.0,1.0,node1,node13,node7,node7,node13,node1,668c85c9f955972065292902,young,,,,
1511.7000000476835,directmemory_phase,node2,50.0,0.0,node9,node11,node4,node4,node11,node9,668c85c9f955972065292902,young,,,,
1677.2000000476835,directmemory_phase,node8,50.0,0.0,node4,node13,node9,node9,node13,node4,668c85c9f955972065292902,young,,,,
4390.699999928474,directmemory_phase,node2,49.0,0.0,node7,node11,node1,node1,node11,node7,67f24d9d37225c87ef8b09c4,young,,,,
2911.200000047684,directmemory_phase,node11,51.0,1.0,node10,node7,node12,node12,node7,node10,67f24d9d37225c87ef8b09c4,young,,,,
2630.099999904633,directmemory_phase,node4,49.0,1.0,node2,node8,node3,node2,node3,node8,67f24d9d37225c87ef8b09c4,young,,,,
3562.600000023842,directmemory_phase,node6,50.0,1.0,node13,node3,node1,node3,node13,node1,67f24d9d37225c87ef8b09c4,young,,,,
1941.6999999284744,directmemory_phase,node12,49.0,1.0,node4,node8,node2,node4,node2,node8,67f24d9d37225c87ef8b09c4,young,,,,
1225.8000000715256,directmemory_phase,node11,49.0,1.0,node3,node5,node8,node3,node8,node5,67f24d9d37225c87ef8b09c4,young,,,,
2628.2999999523163,directmemory_phase,node2,49.0,0.0,node7,node11,node4,node4,node11,node7,67f24d9d37225c87ef8b09c4,young,,,,
2540.5,directmemory_phase,node3,51.0,1.0,node5,node4,node11,node11,node4,node5,67f24d9d37225c87ef8b09c4,young,,,,
1839.100000023842,directmemory_phase,node6,50.0,1.0,node13,node9,node10,node9,node13,node10,67f24d9d37225c87ef8b09c4,young,,,,
2287.1999999284744,directmemory_phase,node8,51.0,1.0,node2,node6,node7,node7,node6,node2,67f24d9d37225c87ef8b09c4,young,,,,
3291.7999999523163,directmemory_phase,node9,51.0,1.0,node4,node12,node11,node11,node12,node4,67f24d9d37225c87ef8b09c4,young,,,,
1758.7999999523165,directmemory_phase,node5,49.0,0.0,node2,node4,node1,node4,node2,node1,67f24d9d37225c87ef8b09c4,young,,,,
2611.6999999284744,directmemory_phase,node11,50.0,1.0,node4,node9,node10,node9,node4,node10,67f24d9d37225c87ef8b09c4,young,,,,
2145.899999976158,directmemory_phase,node4,49.0,1.0,node5,node8,node3,node5,node3,node8,67f24d9d37225c87ef8b09c4,young,,,,
1563.600000023842,directmemory_phase,node9,49.0,1.0,node6,node2,node12,node6,node12,node2,67f24d9d37225c87ef8b09c4,young,,,,
2249.100000023842,directmemory_phase,node3,50.0,0.0,node2,node8,node1,node2,node1,node8,67f24d9d37225c87ef8b09c4,young,,,,
1622.899999976158,directmemory_phase,node7,51.0,1.0,node1,node10,node9,node9,node10,node1,67f24d9d37225c87ef8b09c4,young,,,,
1267.2999999523165,directmemory_phase,node12,51.0,1.0,node10,node9,node11,node11,node9,node10,67f24d9d37225c87ef8b09c4,young,,,,
1278.7000000476835,directmemory_phase,node13,50.0,1.0,node6,node7,node3,node7,node6,node3,67f24d9d37225c87ef8b09c4,young,,,,
1443.100000023842,directmemory_phase,node8,50.0,0.0,node4,node6,node9,node9,node6,node4,67f24d9d37225c87ef8b09c4,young,,,,
1683.100000023842,directmemory_phase,node2,49.0,0.0,node13,node6,node3,node3,node6,node13,67f24d9d37225c87ef8b09c4,young,,,,
2045.399999976158,directmemory_phase,node9,51.0,1.0,node1,node12,node7,node7,node12,node1,67f24d9d37225c87ef8b09c4,young,,,,
1806.3000000715256,directmemory_phase,node4,49.0,1.0,node12,node6,node3,node12,node3,node6,67f24d9d37225c87ef8b09c4,young,,,,
1093.2000000476835,directmemory_phase,node3,49.0,1.0,node6,node13,node7,node6,node7,node13,67f24d9d37225c87ef8b09c4,young,,,,
921.9000000953674,directmemory_phase,node1,49.0,1.0,node2,node11,node4,node2,node4,node11,67f24d9d37225c87ef8b09c4,young,,,,
2670.2999999523163,directmemory_phase,node8,49.0,1.0,node10,node12,node13,node10,node13,node12,67f24d9d37225c87ef8b09c4,young,,,,
986.100000023842,directmemory_phase,node6,51.0,0.0,node7,node5,node8,node7,node8,node5,67f24d9d37225c87ef8b09c4,young,,,,
1886.0,directmemory_phase,node9,51.0,1.0,node5,node10,node8,node8,node10,node5,67f24d9d37225c87ef8b09c4,young,,,,
1568.5,directmemory_phase,node7,51.0,0.0,node10,node13,node2,node13,node10,node2,67f24d9d37225c87ef8b09c4,young,,,,
1054.7999999523165,directmemory_phase,node10,51.0,1.0,node6,node9,node8,node8,node9,node6,67f24d9d37225c87ef8b09c4,young,,,,
2383.5,directmemory_phase,node7,49.0,1.0,node6,node12,node11,node6,node11,node12,67f24d9d37225c87ef8b09c4,young,,,,
4689.100000023842,directmemory_phase,,51.0,,,,,,,,67f24d9d37225c87ef8b09c4,young,,,,
3560.700000047684,directmemory_phase,node9,51.0,0.0,node10,node8,node5,node8,node10,node5,63c3118da7ffa9c9fa88a10e,old,,,,
2231.100000023842,directmemory_phase,node7,49.0,1.0,node6,node4,node11,node6,node11,node4,63c3118da7ffa9c9fa88a10e,old,,,,
2657.3000000715256,directmemory_phase,node2,51.0,1.0,node13,node12,node1,node1,node12,node13,63c3118da7ffa9c9fa88a10e,old,,,,
3620.899999976158,directmemory_phase,node6,51.0,1.0,node5,node13,node9,node9,node13,node5,63c3118da7ffa9c9fa88a10e,old,,,,
4327.099999904633,directmemory_phase,node11,49.0,0.0,node8,node3,node13,node3,node8,node13,63c3118da7ffa9c9fa88a10e,old,,,,
2607.100000023842,directmemory_phase,node12,49.0,1.0,node4,node1,node3,node4,node3,node1,63c3118da7ffa9c9fa88a10e,old,,,,
2211.600000023842,directmemory_phase,node3,49.0,1.0,node2,node8,node1,node2,node1,node8,63c3118da7ffa9c9fa88a10e,old,,,,
2927.600000023842,directmemory_phase,node9,51.0,0.0,node11,node4,node3,node11,node3,node4,63c3118da7ffa9c9fa88a10e,old,,,,
3629.299999952316,directmemory_phase,node1,49.0,1.0,node2,node11,node3,node2,node3,node11,63c3118da7ffa9c9fa88a10e,old,,,,
2260.100000023842,directmemory_phase,node7,51.0,1.0,node4,node3,node9,node9,node3,node4,63c3118da7ffa9c9fa88a10e,old,,,,
1949.2999999523165,directmemory_phase,node2,50.0,0.0,node4,node9,node12,node4,node12,node9,63c3118da7ffa9c9fa88a10e,old,,,,
1440.3000000715256,directmemory_phase,node6,49.0,1.0,node7,node4,node2,node7,node2,node4,63c3118da7ffa9c9fa88a10e,old,,,,
2079.700000047684,directmemory_phase,node10,49.0,0.0,node9,node8,node3,node8,node9,node3,63c3118da7ffa9c9fa88a10e,old,,,,
1670.0999999046326,directmemory_phase,node12,49.0,1.0,node11,node6,node9,node11,node9,node6,63c3118da7ffa9c9fa88a10e,old,,,,
1848.399999976158,directmemory_phase,node8,50.0,1.0,node13,node7,node3,node7,node13,node3,63c3118da7ffa9c9fa88a10e,old,,,,
1648.2000000476835,directmemory_phase,node4,49.0,1.0,node5,node9,node3,node5,node3,node9,63c3118da7ffa9c9fa88a10e,old,,,,
3942.299999952316,directmemory_phase,node7,49.0,0.0,node10,node8,node12,node8,node10,node12,63c3118da7ffa9c9fa88a10e,old,,,,
2713.8000000715256,directmemory_phase,node4,50.0,0.0,node6,node3,node2,node2,node3,node6,63c3118da7ffa9c9fa88a10e,old,,,,
2085.599999904633,directmemory_phase,node8,51.0,1.0,node12,node11,node10,node10,node11,node12,63c3118da7ffa9c9fa88a10e,old,,,,
2027.6999999284744,directmemory_phase,node13,50.0,1.0,node8,node7,node2,node7,node8,node2,63c3118da7ffa9c9fa88a10e,old,,,,
2412.3000000715256,directmemory_phase,node8,50.0,0.0,node4,node6,node9,node9,node6,node4,63c3118da7ffa9c9fa88a10e,old,,,,
2377.899999976158,directmemory_phase,node6,49.0,1.0,node3,node10,node8,node3,node8,node10,63c3118da7ffa9c9fa88a10e,old,,,,
1678.399999976158,directmemory_phase,node11,49.0,1.0,node9,node1,node4,node9,node4,node1,63c3118da7ffa9c9fa88a10e,old,,,,
2339.7999999523163,directmemory_phase,node3,51.0,0.0,node6,node10,node7,node6,node7,node10,63c3118da7ffa9c9fa88a10e,old,,,,
1388.399999976158,directmemory_phase,node9,49.0,1.0,node7,node1,node10,node7,node10,node1,63c3118da7ffa9c9fa88a10e,old,,,,
1845.9000000953672,directmemory_phase,node3,51.0,1.0,node8,node1,node11,node11,node1,node8,63c3118da7ffa9c9fa88a10e,old,,,,
1595.899999976158,directmemory_phase,node9,49.0,0.0,node1,node12,node6,node6,node12,node1,63c3118da7ffa9c9fa88a10e,old,,,,
2081.700000047684,directmemory_phase,node2,50.0,0.0,node8,node6,node3,node3,node6,node8,63c3118da7ffa9c9fa88a10e,old,,,,
2135.2999999523163,directmemory_phase,node4,51.0,0.0,node11,node12,node9,node12,node11,node9,63c3118da7ffa9c9fa88a10e,old,,,,
1400.5,directmemory_phase,node7,49.0,1.0,node13,node12,node10,node13,node10,node12,63c3118da7ffa9c9fa88a10e,old,,,,
3073.1999999284744,directmemory_phase,node11,50.0,0.0,node10,node7,node12,node12,node7,node10,63c3118da7ffa9c9fa88a10e,old,,,,
1762.899999976158,directmemory_phase,node5,50.0,0.0,node6,node2,node4,node4,node2,node6,63c3118da7ffa9c9fa88a10e,old,,,,
3566.899999976158,directmemory_phase,node6,49.0,1.0,node7,node1,node2,node7,node2,node1,66660a053b08e2a34f9b945c,young,,,,
2941.600000023842,directmemory_phase,node12,51.0,1.0,node10,node3,node11,node11,node3,node10,66660a053b08e2a34f9b945c,young,,,,
2878.1999999284744,directmemory_phase,node9,51.0,1.0,node4,node10,node7,node7,node10,node4,66660a053b08e2a34f9b945c,young,,,,
1812.2999999523165,directmemory_phase,node8,50.0,1.0,node13,node10,node12,node10,node13,node12,66660a053b08e2a34f9b945c,young,,,,
2622.1999999284744,directmemory_phase,node9,49.0,1.0,node11,node1,node12,node11,node12,node1,66660a053b08e2a34f9b945c,young,,,,
2101.899999976158,directmemory_phase,node1,51.0,1.0,node12,node3,node2,node2,node3,node12,66660a053b08e2a34f9b945c,young,,,,
4853.699999928474,directmemory_phase,node9,50.0,1.0,node12,node8,node4,node8,node12,node4,66660a053b08e2a34f9b945c,young,,,,
1677.7000000476835,directmemory_phase,node6,51.0,1.0,node4,node2,node3,node3,node2,node4,66660a053b08e2a34f9b945c,young,,,,
1350.7000000476835,directmemory_phase,node13,51.0,1.0,node12,node6,node7,node7,node6,node12,66660a053b08e2a34f9b945c,young,,,,
2722.399999976158,directmemory_phase,node11,51.0,1.0,node13,node2,node9,node9,node2,node13,66660a053b08e2a34f9b945c,young,,,,
3469.900000095367,directmemory_phase,node12,49.0,1.0,node4,node10,node2,node4,node2,node10,66660a053b08e2a34f9b945c,young,,,,
1597.399999976158,directmemory_phase,node3,51.0,1.0,node5,node9,node11,node11,node9,node5,66660a053b08e2a34f9b945c,young,,,,
2509.600000023842,directmemory_phase,node9,51.0,1.0,node1,node13,node6,node6,node13,node1,66660a053b08e2a34f9b945c,young,,,,
3749.799999952316,directmemory_phase,node2,50.0,1.0,node11,node3,node13,node3,node11,node13,66660a053b08e2a34f9b945c,young,,,,
3087.7999999523163,directmemory_phase,node11,49.0,1.0,node12,node1,node4,node12,node4,node1,66660a053b08e2a34f9b945c,young,,,,
1595.7999999523165,directmemory_phase,node5,51.0,1.0,node9,node2,node4,node4,node2,node9,66660a053b08e2a34f9b945c,young,,,,
2551.0,directmemory_phase,node11,49.0,1.0,node3,node5,node2,node3,node2,node5,66660a053b08e2a34f9b945c,young,,,,
2782.100000023842,directmemory_phase,node8,51.0,1.0,node4,node11,node9,node9,node11,node4,66660a053b08e2a34f9b945c,young,,,,
3181.1999999284744,directmemory_phase,node3,51.0,1.0,node13,node7,node2,node2,node7,node13,66660a053b08e2a34f9b945c,young,,,,
6013.0,directmemory_phase,node7,50.0,1.0,node11,node13,node12,node13,node11,node12,66660a053b08e2a34f9b945c,young,,,,
2484.2999999523163,directmemory_phase,node10,51.0,1.0,node6,node9,node8,node8,node9,node6,66660a053b08e2a34f9b945c,young,,,,
2957.599999904633,directmemory_phase,node2,51.0,1.0,node7,node11,node4,node4,node11,node7,66660a053b08e2a34f9b945c,young,,,,
1854.0,directmemory_phase,node3,50.0,1.0,node9,node6,node10,node6,node9,node10,66660a053b08e2a34f9b945c,young,,,,
5388.100000023842,directmemory_phase,node4,50.0,1.0,node3,node2,node9,node2,node3,node9,66660a053b08e2a34f9b945c,young,,,,
1950.600000023842,directmemory_phase,node7,51.0,1.0,node12,node3,node6,node6,node3,node12,66660a053b08e2a34f9b945c,young,,,,
2869.700000047684,directmemory_phase,node2,49.0,1.0,node1,node7,node11,node1,node11,node7,66660a053b08e2a34f9b945c,young,,,,
,directmemory_phase,node7,,,node2,node10,node8,node8,node10,node2,66660a053b08e2a34f9b945c,young,,,,
3485.399999976158,directmemory_phase,node4,51.0,1.0,node7,node1,node12,node12,node1,node7,66660a053b08e2a34f9b945c,young,,,,
3892.399999976158,directmemory_phase,node7,49.0,0.0,node3,node9,node1,node9,node3,node1,66660a053b08e2a34f9b945c,young,,,,
1333.899999976158,directmemory_phase,node4,50.0,1.0,node1,node5,node6,node5,node1,node6,66660a053b08e2a34f9b945c,young,,,,
2708.600000023842,directmemory_phase,node8,51.0,1.0,node12,node11,node7,node7,node11,node12,66660a053b08e2a34f9b945c,young,,,,
2862.200000047684,directmemory_phase,node6,51.0,1.0,node1,node2,node9,node9,node2,node1,66660a053b08e2a34f9b945c,young,,,,
2899.099999964237,directmemory_phase,node4,51.0,1.0,node8,node11,node5,node5,node11,node8,5fc521555cd05b000cfe0998,young,,,,
1487.300000011921,directmemory_phase,node3,51.0,1.0,node8,node12,node2,node2,node12,node8,5fc521555cd05b000cfe0998,young,,,,
2265.100000023842,directmemory_phase,node11,49.0,1.0,node12,node10,node8,node12,node8,node10,5fc521555cd05b000cfe0998,young,,,,
1072.0999999642372,directmemory_phase,node2,50.0,1.0,node11,node1,node9,node1,node11,node9,5fc521555cd05b000cfe0998,young,,,,
848.6999999880791,directmemory_phase,node10,51.0,1.0,node3,node9,node8,node8,node9,node3,5fc521555cd05b000cfe0998,young,,,,
1708.300000011921,directmemory_phase,node4,51.0,1.0,node8,node1,node2,node2,node1,node8,5fc521555cd05b000cfe0998,young,,,,
2133.300000011921,directmemory_phase,node8,51.0,1.0,node4,node13,node9,node9,node13,node4,5fc521555cd05b000cfe0998,young,,,,
1551.7000000476835,directmemory_phase,node1,49.0,1.0,node2,node11,node3,node2,node3,node11,5fc521555cd05b000cfe0998,young,,,,
1169.5999999642372,directmemory_phase,node9,50.0,1.0,node13,node6,node1,node6,node13,node1,5fc521555cd05b000cfe0998,young,,,,
2269.800000011921,directmemory_phase,node4,49.0,0.0,node9,node11,node12,node12,node11,node9,5fc521555cd05b000cfe0998,young,,,,
1493.5,directmemory_phase,node9,49.0,0.0,node5,node13,node11,node11,node13,node5,5fc521555cd05b000cfe0998,young,,,,
841.1000000238419,directmemory_phase,node8,50.0,1.0,node11,node10,node4,node10,node11,node4,5fc521555cd05b000cfe0998,young,,,,
885.2000000476837,directmemory_phase,node5,50.0,1.0,node12,node4,node9,node4,node12,node9,5fc521555cd05b000cfe0998,young,,,,
2337.800000011921,directmemory_phase,node6,51.0,0.0,node3,node4,node8,node3,node8,node4,5fc521555cd05b000cfe0998,young,,,,
2008.0,directmemory_phase,node7,51.0,1.0,node2,node10,node13,node13,node10,node2,5fc521555cd05b000cfe0998,young,,,,
2826.5,directmemory_phase,node3,50.0,0.0,node6,node8,node4,node6,node4,node8,5fc521555cd05b000cfe0998,young,,,,
1717.699999988079,directmemory_phase,node12,49.0,1.0,node11,node1,node5,node11,node5,node1,5fc521555cd05b000cfe0998,young,,,,
1562.5,directmemory_phase,node2,51.0,1.0,node13,node6,node4,node4,node6,node13,5fc521555cd05b000cfe0998,young,,,,
1628.0,directmemory_phase,node11,51.0,1.0,node5,node7,node9,node9,node7,node5,5fc521555cd05b000cfe0998,young,,,,
1791.399999976158,directmemory_phase,node13,50.0,1.0,node6,node7,node2,node7,node6,node2,5fc521555cd05b000cfe0998,young,,,,
1064.100000023842,directmemory_phase,node11,51.0,1.0,node5,node8,node3,node3,node8,node5,5fc521555cd05b000cfe0998,young,,,,
1567.199999988079,directmemory_phase,node6,49.0,1.0,node9,node1,node2,node9,node2,node1,5fc521555cd05b000cfe0998,young,,,,
1179.0,directmemory_phase,node3,51.0,1.0,node8,node9,node11,node11,node9,node8,5fc521555cd05b000cfe0998,young,,,,
2036.100000023842,directmemory_phase,node9,49.0,1.0,node7,node4,node10,node7,node10,node4,5fc521555cd05b000cfe0998,young,,,,
2165.899999976158,directmemory_phase,node12,50.0,0.0,node4,node8,node9,node4,node9,node8,5fc521555cd05b000cfe0998,young,,,,
2263.600000023842,directmemory_phase,node7,49.0,1.0,node6,node12,node10,node6,node10,node12,5fc521555cd05b000cfe0998,young,,,,
2580.5,directmemory_phase,node9,51.0,0.0,node12,node8,node5,node8,node12,node5,5fc521555cd05b000cfe0998,young,,,,
2923.5,directmemory_phase,node2,51.0,1.0,node7,node5,node3,node3,node5,node7,5fc521555cd05b000cfe0998,young,,,,
2702.300000011921,directmemory_phase,node7,49.0,1.0,node9,node2,node10,node9,node10,node2,5fc521555cd05b000cfe0998,young,,,,
2108.599999964237,directmemory_phase,,50.0,,,,,,,,5fc521555cd05b000cfe0998,young,,,,
1207.800000011921,directmemory_phase,,50.0,,,,,,,,5fc521555cd05b000cfe0998,young,,,,
1904.9000000357628,directmemory_phase,,49.0,,,,,,,,5fc521555cd05b000cfe0998,young,,,,
3387.899999976158,directmemory_phase,node7,50.0,1.0,node11,node13,node12,node13,node11,node12,5685850c333cbd000d4e042f,young,,,,
2575.100000023842,directmemory_phase,node12,49.0,1.0,node11,node1,node3,node11,node3,node1,5685850c333cbd000d4e042f,young,,,,
1289.5,directmemory_phase,node4,50.0,1.0,node3,node5,node8,node5,node3,node8,5685850c333cbd000d4e042f,young,,,,
3090.199999988079,directmemory_phase,node11,51.0,1.0,node10,node7,node3,node3,node7,node10,5685850c333cbd000d4e042f,young,,,,
2064.399999976158,directmemory_phase,node7,49.0,1.0,node8,node12,node3,node8,node3,node12,5685850c333cbd000d4e042f,young,,,,
1711.800000011921,directmemory_phase,node9,50.0,1.0,node10,node11,node5,node11,node10,node5,5685850c333cbd000d4e042f,young,,,,
1068.100000023842,directmemory_phase,node2,51.0,1.0,node8,node12,node1,node1,node12,node8,5685850c333cbd000d4e042f,young,,,,
2303.699999988079,directmemory_phase,node9,49.0,1.0,node8,node1,node3,node8,node3,node1,5685850c333cbd000d4e042f,young,,,,
1589.4000000357628,directmemory_phase,node6,49.0,1.0,node3,node12,node2,node3,node2,node12,5685850c333cbd000d4e042f,young,,,,
2547.400000035763,directmemory_phase,node4,50.0,1.0,node1,node12,node8,node12,node1,node8,5685850c333cbd000d4e042f,young,,,,
2180.400000035763,directmemory_phase,node7,51.0,1.0,node4,node3,node9,node9,node3,node4,5685850c333cbd000d4e042f,young,,,,
2864.199999988079,directmemory_phase,node3,49.0,1.0,node11,node5,node4,node11,node4,node5,5685850c333cbd000d4e042f,young,,,,
1461.0,directmemory_phase,node2,51.0,1.0,node8,node11,node4,node4,node11,node8,5685850c333cbd000d4e042f,young,,,,
1208.0999999642372,directmemory_phase,node6,50.0,1.0,node13,node9,node5,node9,node13,node5,5685850c333cbd000d4e042f,young,,,,
2246.599999964237,directmemory_phase,node13,51.0,1.0,node11,node8,node7,node7,node8,node11,5685850c333cbd000d4e042f,young,,,,
942.5,directmemory_phase,node12,50.0,1.0,node3,node4,node8,node4,node3,node8,5685850c333cbd000d4e042f,young,,,,
1961.100000023842,directmemory_phase,node9,51.0,1.0,node5,node3,node7,node7,node3,node5,5685850c333cbd000d4e042f,young,,,,
3099.399999976158,directmemory_phase,node4,51.0,1.0,node9,node1,node2,node2,node1,node9,5685850c333cbd000d4e042f,young,,,,
1390.699999988079,directmemory_phase,node8,51.0,1.0,node4,node13,node10,node10,node13,node4,5685850c333cbd000d4e042f,young,,,,
1301.300000011921,directmemory_phase,node11,50.0,1.0,node2,node9,node10,node9,node2,node10,5685850c333cbd000d4e042f,young,,,,
831.0,directmemory_phase,node10,51.0,1.0,node6,node9,node8,node8,node9,node6,5685850c333cbd000d4e042f,young,,,,
3760.300000011921,directmemory_phase,node1,51.0,1.0,node11,node4,node2,node2,node4,node11,5685850c333cbd000d4e042f,young,,,,
2071.300000011921,directmemory_phase,node8,50.0,1.0,node6,node9,node12,node9,node6,node12,5685850c333cbd000d4e042f,young,,,,
2004.899999976158,directmemory_phase,node7,50.0,1.0,node10,node6,node1,node6,node10,node1,5685850c333cbd000d4e042f,young,,,,
1815.2999999523165,directmemory_phase,node5,51.0,1.0,node11,node2,node4,node4,node2,node11,5685850c333cbd000d4e042f,young,,,,
2226.800000011921,directmemory_phase,node3,49.0,1.0,node2,node8,node12,node2,node12,node8,5685850c333cbd000d4e042f,young,,,,
3329.199999988079,directmemory_phase,node8,51.0,1.0,node12,node6,node7,node7,node6,node12,5685850c333cbd000d4e042f,young,,,,
1373.5999999642372,directmemory_phase,node3,51.0,1.0,node5,node7,node6,node6,node7,node5,5685850c333cbd000d4e042f,young,,,,
2806.600000023842,directmemory_phase,node11,51.0,1.0,node13,node4,node12,node12,node4,node13,5685850c333cbd000d4e042f,young,,,,
4545.700000047684,directmemory_phase,node9,50.0,1.0,node13,node6,node2,node6,node13,node2,5685850c333cbd000d4e042f,young,,,,
2566.5,directmemory_phase,node2,51.0,1.0,node8,node12,node3,node3,node12,node8,5685850c333cbd000d4e042f,young,,,,
2303.699999988079,directmemory_phase,node6,51.0,1.0,node10,node8,node7,node7,node8,node10,5685850c333cbd000d4e042f,young,,,,
1546.4000000953674,directmemory_phase,node7,49.0,0.0,node3,node9,node4,node9,node3,node4,67db09c719a34f37f3f38e0a,old,,,,
1445.6999999284744,directmemory_phase,node4,50.0,0.0,node7,node11,node5,node5,node11,node7,67db09c719a34f37f3f38e0a,old,,,,
1831.100000023842,directmemory_phase,node9,51.0,0.0,node11,node5,node10,node11,node10,node5,67db09c719a34f37f3f38e0a,old,,,,
2037.5,directmemory_phase,node6,50.0,1.0,node2,node7,node10,node7,node2,node10,67db09c719a34f37f3f38e0a,old,,,,
1472.2999999523165,directmemory_phase,node3,51.0,1.0,node5,node4,node11,node11,node4,node5,67db09c719a34f37f3f38e0a,old,,,,
1632.2000000476835,directmemory_phase,node5,50.0,0.0,node4,node3,node2,node4,node2,node3,67db09c719a34f37f3f38e0a,old,,,,
1477.600000023842,directmemory_phase,node7,49.0,1.0,node8,node4,node10,node8,node10,node4,67db09c719a34f37f3f38e0a,old,,,,
1532.6999999284744,directmemory_phase,node6,50.0,0.0,node5,node8,node3,node3,node8,node5,67db09c719a34f37f3f38e0a,old,,,,
1685.399999976158,directmemory_phase,node8,51.0,1.0,node3,node13,node10,node10,node13,node3,67db09c719a34f37f3f38e0a,old,,,,
1687.5,directmemory_phase,node12,49.0,1.0,node11,node8,node5,node11,node5,node8,67db09c719a34f37f3f38e0a,old,,,,
1892.2000000476835,directmemory_phase,node9,50.0,0.0,node7,node5,node13,node7,node13,node5,67db09c719a34f37f3f38e0a,old,,,,
1529.0999999046326,directmemory_phase,node11,51.0,0.0,node12,node5,node2,node12,node2,node5,67db09c719a34f37f3f38e0a,old,,,,
1911.5,directmemory_phase,node8,50.0,0.0,node4,node11,node9,node9,node11,node4,67db09c719a34f37f3f38e0a,old,,,,
2140.0,directmemory_phase,node7,50.0,0.0,node13,node4,node3,node13,node3,node4,67db09c719a34f37f3f38e0a,old,,,,
2271.7999999523163,directmemory_phase,node9,49.0,1.0,node8,node5,node12,node8,node12,node5,67db09c719a34f37f3f38e0a,old,,,,
1866.7000000476835,directmemory_phase,node4,51.0,1.0,node6,node1,node12,node12,node1,node6,67db09c719a34f37f3f38e0a,old,,,,
1940.100000023842,directmemory_phase,node9,49.0,0.0,node3,node6,node1,node6,node3,node1,67db09c719a34f37f3f38e0a,old,,,,
1834.5,directmemory_phase,node8,50.0,0.0,node7,node3,node11,node7,node11,node3,67db09c719a34f37f3f38e0a,old,,,,
2171.1999999284744,directmemory_phase,node1,51.0,0.0,node2,node9,node4,node2,node4,node9,67db09c719a34f37f3f38e0a,old,,,,
1841.899999976158,directmemory_phase,node6,50.0,0.0,node5,node13,node9,node9,node13,node5,67db09c719a34f37f3f38e0a,old,,,,
2588.8000000715256,directmemory_phase,node4,50.0,0.0,node6,node3,node2,node2,node3,node6,67db09c719a34f37f3f38e0a,old,,,,
2275.200000047684,directmemory_phase,node11,49.0,0.0,node1,node7,node3,node3,node7,node1,67db09c719a34f37f3f38e0a,old,,,,
2080.100000023842,directmemory_phase,node7,50.0,0.0,node4,node10,node6,node6,node10,node4,67db09c719a34f37f3f38e0a,old,,,,
1725.7999999523165,directmemory_phase,node2,51.0,1.0,node7,node5,node3,node3,node5,node7,67db09c719a34f37f3f38e0a,old,,,,
2146.399999976158,directmemory_phase,node11,50.0,1.0,node6,node9,node10,node9,node6,node10,67db09c719a34f37f3f38e0a,old,,,,
1648.3000000715256,directmemory_phase,node10,49.0,1.0,node8,node11,node9,node8,node9,node11,67db09c719a34f37f3f38e0a,old,,,,
2165.399999976158,directmemory_phase,node3,50.0,1.0,node9,node6,node5,node6,node9,node5,67db09c719a34f37f3f38e0a,old,,,,
1996.6999999284744,directmemory_phase,node2,49.0,0.0,node8,node5,node1,node1,node5,node8,67db09c719a34f37f3f38e0a,old,,,,
1936.0,directmemory_phase,node12,50.0,1.0,node9,node4,node6,node4,node9,node6,67db09c719a34f37f3f38e0a,old,,,,
1836.2999999523165,directmemory_phase,node3,51.0,0.0,node2,node10,node4,node2,node4,node10,67db09c719a34f37f3f38e0a,old,,,,
2733.700000047684,directmemory_phase,node13,49.0,0.0,node12,node9,node7,node7,node9,node12,67db09c719a34f37f3f38e0a,old,,,,
2478.2999999523163,directmemory_phase,node2,51.0,0.0,node4,node9,node5,node4,node5,node9,67db09c719a34f37f3f38e0a,old,,,,
1503.1999999284744,directmemory_phase,node11,49.0,0.0,node8,node3,node1,node3,node8,node1,67db5618164a0fc0678e84d6,old,,,,
1615.4000000953674,directmemory_phase,node6,50.0,0.0,node7,node12,node2,node7,node2,node12,67db5618164a0fc0678e84d6,old,,,,
1804.7000000476835,directmemory_phase,node8,49.0,0.0,node12,node6,node9,node9,node6,node12,67db5618164a0fc0678e84d6,old,,,,
1665.399999976158,directmemory_phase,node3,51.0,0.0,node7,node2,node13,node2,node7,node13,67db5618164a0fc0678e84d6,old,,,,
1488.3000000715256,directmemory_phase,node5,50.0,0.0,node4,node11,node2,node4,node2,node11,67db5618164a0fc0678e84d6,old,,,,
1580.600000023842,directmemory_phase,node2,49.0,0.0,node8,node11,node3,node3,node11,node8,67db5618164a0fc0678e84d6,old,,,,
1705.1999999284744,directmemory_phase,node12,49.0,1.0,node4,node10,node2,node4,node2,node10,67db5618164a0fc0678e84d6,old,,,,
1885.5,directmemory_phase,node8,49.0,1.0,node10,node4,node13,node10,node13,node4,67db5618164a0fc0678e84d6,old,,,,
1850.6999999284744,directmemory_phase,node3,50.0,0.0,node5,node9,node6,node6,node9,node5,67db5618164a0fc0678e84d6,old,,,,
1545.8000000715256,directmemory_phase,node9,51.0,0.0,node8,node1,node3,node8,node3,node1,67db5618164a0fc0678e84d6,old,,,,
2298.700000047684,directmemory_phase,node12,51.0,0.0,node11,node13,node5,node11,node5,node13,67db5618164a0fc0678e84d6,old,,,,
1602.600000023842,directmemory_phase,node8,50.0,0.0,node2,node6,node7,node7,node6,node2,67db5618164a0fc0678e84d6,old,,,,
1563.1999999284744,directmemory_phase,node11,49.0,1.0,node9,node10,node8,node9,node8,node10,67db5618164a0fc0678e84d6,old,,,,
1303.100000023842,directmemory_phase,node2,50.0,0.0,node13,node11,node4,node4,node11,node13,67db5618164a0fc0678e84d6,old,,,,
1977.2999999523165,directmemory_phase,node6,51.0,1.0,node1,node8,node9,node9,node8,node1,67db5618164a0fc0678e84d6,old,,,,
2267.5,directmemory_phase,node2,50.0,0.0,node1,node7,node11,node1,node11,node7,67db5618164a0fc0678e84d6,old,,,,
1545.399999976158,directmemory_phase,node10,49.0,0.0,node12,node9,node8,node8,node9,node12,67db5618164a0fc0678e84d6,old,,,,
2122.7999999523163,directmemory_phase,node1,49.0,0.0,node3,node2,node12,node2,node3,node12,67db5618164a0fc0678e84d6,old,,,,
2485.700000047684,directmemory_phase,node4,50.0,0.0,node12,node6,node11,node12,node11,node6,67db5618164a0fc0678e84d6,old,,,,
1973.1999999284744,directmemory_phase,node9,51.0,1.0,node1,node13,node6,node6,node13,node1,67db5618164a0fc0678e84d6,old,,,,
2080.0,directmemory_phase,node4,49.0,1.0,node5,node8,node3,node5,node3,node8,67db5618164a0fc0678e84d6,old,,,,
2059.5,directmemory_phase,node13,50.0,1.0,node8,node7,node3,node7,node8,node3,67db5618164a0fc0678e84d6,old,,,,
1536.7999999523165,directmemory_phase,node6,49.0,0.0,node4,node13,node3,node3,node13,node4,67db5618164a0fc0678e84d6,old,,,,
1638.6999999284744,directmemory_phase,node7,50.0,1.0,node3,node9,node12,node9,node3,node12,67db5618164a0fc0678e84d6,old,,,,
1203.399999976158,directmemory_phase,node4,51.0,1.0,node6,node3,node2,node2,node3,node6,67db5618164a0fc0678e84d6,old,,,,
1377.0,directmemory_phase,node3,50.0,0.0,node8,node9,node11,node11,node9,node8,67db5618164a0fc0678e84d6,old,,,,
1039.1999999284744,directmemory_phase,node7,51.0,1.0,node4,node3,node6,node6,node3,node4,67db5618164a0fc0678e84d6,old,,,,
1178.3000000715256,directmemory_phase,node9,49.0,0.0,node1,node3,node11,node11,node3,node1,67db5618164a0fc0678e84d6,old,,,,
1605.7000000476835,directmemory_phase,node7,50.0,0.0,node2,node11,node13,node13,node11,node2,67db5618164a0fc0678e84d6,old,,,,
1836.1999999284744,directmemory_phase,node11,51.0,0.0,node12,node5,node4,node12,node4,node5,67db5618164a0fc0678e84d6,old,,,,
2275.0,directmemory_phase,node7,49.0,0.0,node1,node10,node8,node8,node10,node1,67db5618164a0fc0678e84d6,old,,,,
3903.899999976158,directmemory_phase,,50.0,,,,,,,,67db5618164a0fc0678e84d6,old,,,,
2800.0,directmemory_phase,node9,51.0,0.0,node8,node2,node12,node8,node12,node2,65631b21aff167a83105c476,old,,,,
3494.6999999284744,directmemory_phase,node7,49.0,0.0,node3,node6,node1,node6,node3,node1,65631b21aff167a83105c476,old,,,,
4045.899999976158,directmemory_phase,node11,50.0,1.0,node2,node9,node13,node9,node2,node13,65631b21aff167a83105c476,old,,,,
2662.8000000715256,directmemory_phase,node6,49.0,0.0,node10,node2,node7,node7,node2,node10,65631b21aff167a83105c476,old,,,,
2482.399999976158,directmemory_phase,node11,51.0,1.0,node13,node7,node12,node12,node7,node13,65631b21aff167a83105c476,old,,,,
3283.899999976158,directmemory_phase,node9,49.0,1.0,node6,node4,node13,node6,node13,node4,65631b21aff167a83105c476,old,,,,
3040.899999976158,directmemory_phase,node7,50.0,0.0,node8,node4,node10,node8,node10,node4,65631b21aff167a83105c476,old,,,,
3211.6999999284744,directmemory_phase,node12,49.0,1.0,node4,node6,node2,node4,node2,node6,65631b21aff167a83105c476,old,,,,
3294.7999999523163,directmemory_phase,node8,51.0,1.0,node4,node11,node7,node7,node11,node4,65631b21aff167a83105c476,old,,,,
4364.599999904633,directmemory_phase,node3,50.0,1.0,node1,node6,node13,node6,node1,node13,65631b21aff167a83105c476,old,,,,
3239.399999976158,directmemory_phase,node8,51.0,1.0,node12,node6,node10,node10,node6,node12,65631b21aff167a83105c476,old,,,,
4449.0,directmemory_phase,node7,50.0,0.0,node12,node10,node9,node9,node10,node12,65631b21aff167a83105c476,old,,,,
2578.5,directmemory_phase,node3,49.0,1.0,node2,node10,node4,node2,node4,node10,65631b21aff167a83105c476,old,,,,
2532.100000023842,directmemory_phase,node9,49.0,1.0,node11,node5,node3,node11,node3,node5,65631b21aff167a83105c476,old,,,,
3246.5,directmemory_phase,node2,49.0,1.0,node3,node13,node5,node3,node5,node13,65631b21aff167a83105c476,old,,,,
3648.399999976158,directmemory_phase,node4,50.0,0.0,node9,node3,node5,node5,node3,node9,65631b21aff167a83105c476,old,,,,
2936.600000023842,directmemory_phase,node1,49.0,0.0,node6,node4,node2,node2,node4,node6,65631b21aff167a83105c476,old,,,,
4538.100000023842,directmemory_phase,node3,51.0,0.0,node4,node11,node5,node11,node4,node5,65631b21aff167a83105c476,old,,,,
4196.5,directmemory_phase,node9,49.0,0.0,node3,node7,node5,node7,node3,node5,65631b21aff167a83105c476,old,,,,
4616.899999976158,directmemory_phase,node11,50.0,0.0,node3,node5,node7,node3,node7,node5,65631b21aff167a83105c476,old,,,,
4700.799999952316,directmemory_phase,node8,50.0,0.0,node4,node6,node9,node9,node6,node4,65631b21aff167a83105c476,old,,,,
3878.599999904633,directmemory_phase,node2,51.0,1.0,node13,node6,node4,node4,node6,node13,65631b21aff167a83105c476,old,,,,
5560.200000047684,directmemory_phase,node6,51.0,1.0,node5,node11,node9,node9,node11,node5,65631b21aff167a83105c476,old,,,,
6084.299999952316,directmemory_phase,node5,51.0,0.0,node4,node9,node2,node4,node2,node9,65631b21aff167a83105c476,old,,,,
3722.0,directmemory_phase,node2,51.0,1.0,node13,node5,node1,node1,node5,node13,65631b21aff167a83105c476,old,,,,
5583.299999952316,directmemory_phase,node6,50.0,0.0,node3,node1,node8,node3,node8,node1,65631b21aff167a83105c476,old,,,,
2941.0,directmemory_phase,node4,49.0,1.0,node2,node7,node3,node2,node3,node7,65631b21aff167a83105c476,old,,,,
3553.7999999523163,directmemory_phase,node7,49.0,1.0,node13,node1,node10,node13,node10,node1,65631b21aff167a83105c476,old,,,,
3768.600000023842,directmemory_phase,node10,49.0,0.0,node3,node9,node8,node8,node9,node3,65631b21aff167a83105c476,old,,,,
2003.899999976158,directmemory_phase,node13,51.0,1.0,node3,node6,node7,node7,node6,node3,65631b21aff167a83105c476,old,,,,
3838.6999999284735,directmemory_phase,node12,50.0,1.0,node3,node11,node10,node11,node3,node10,65631b21aff167a83105c476,old,,,,
,directmemory_phase,,,,,,,,,,65631b21aff167a83105c476,old,,,,
,directmemory_phase,node9,,,node13,node11,node1,node11,node13,node1,66436e0c091888a5fc85584e,old,,,,
2505.5,directmemory_phase,node6,50.0,0.0,node4,node13,node3,node3,node13,node4,66436e0c091888a5fc85584e,old,,,,
2228.600000023842,directmemory_phase,node8,50.0,0.0,node12,node6,node10,node10,node6,node12,66436e0c091888a5fc85584e,old,,,,
2795.400000095367,directmemory_phase,node5,50.0,0.0,node11,node2,node4,node4,node2,node11,66436e0c091888a5fc85584e,old,,,,
3549.899999976158,directmemory_phase,node7,49.0,1.0,node13,node2,node11,node13,node11,node2,66436e0c091888a5fc85584e,old,,,,
2511.8000000715256,directmemory_phase,node11,49.0,0.0,node7,node12,node10,node12,node7,node10,66436e0c091888a5fc85584e,old,,,,
2150.099999904633,directmemory_phase,node6,50.0,0.0,node1,node13,node9,node9,node13,node1,66436e0c091888a5fc85584e,old,,,,
2514.0,directmemory_phase,node4,51.0,0.0,node2,node8,node11,node2,node11,node8,66436e0c091888a5fc85584e,old,,,,
2661.1999999284744,directmemory_phase,node6,50.0,0.0,node7,node5,node2,node7,node2,node5,66436e0c091888a5fc85584e,old,,,,
2738.1999999284744,directmemory_phase,node4,51.0,1.0,node8,node1,node12,node12,node1,node8,66436e0c091888a5fc85584e,old,,,,
2408.6999999284744,directmemory_phase,node8,50.0,1.0,node6,node9,node2,node9,node6,node2,66436e0c091888a5fc85584e,old,,,,
2621.5,directmemory_phase,node4,51.0,1.0,node9,node1,node5,node5,node1,node9,66436e0c091888a5fc85584e,old,,,,
2058.600000023842,directmemory_phase,node10,50.0,1.0,node9,node8,node12,node8,node9,node12,66436e0c091888a5fc85584e,old,,,,
1790.2000000476835,directmemory_phase,node9,50.0,1.0,node3,node6,node4,node6,node3,node4,66436e0c091888a5fc85584e,old,,,,
2729.600000023842,directmemory_phase,node12,49.0,1.0,node11,node6,node9,node11,node9,node6,66436e0c091888a5fc85584e,old,,,,
2047.5,directmemory_phase,node2,49.0,1.0,node1,node7,node5,node1,node5,node7,66436e0c091888a5fc85584e,old,,,,
1990.100000023842,directmemory_phase,node11,49.0,1.0,node9,node5,node7,node9,node7,node5,66436e0c091888a5fc85584e,old,,,,
1406.899999976158,directmemory_phase,node13,49.0,1.0,node7,node10,node9,node7,node9,node10,66436e0c091888a5fc85584e,old,,,,
1392.1999999284744,directmemory_phase,node1,49.0,1.0,node2,node6,node4,node2,node4,node6,66436e0c091888a5fc85584e,old,,,,
2057.899999976158,directmemory_phase,node9,49.0,1.0,node7,node2,node10,node7,node10,node2,66436e0c091888a5fc85584e,old,,,,
2310.5,directmemory_phase,node2,49.0,1.0,node3,node8,node5,node3,node5,node8,66436e0c091888a5fc85584e,old,,,,
2354.2999999523163,directmemory_phase,node7,50.0,0.0,node12,node11,node6,node6,node11,node12,66436e0c091888a5fc85584e,old,,,,
2234.700000047684,directmemory_phase,node3,49.0,0.0,node13,node12,node11,node11,node12,node13,66436e0c091888a5fc85584e,old,,,,
4218.100000023842,directmemory_phase,node9,50.0,1.0,node10,node8,node2,node8,node10,node2,66436e0c091888a5fc85584e,old,,,,
3001.899999976158,directmemory_phase,node3,49.0,1.0,node6,node10,node9,node6,node9,node10,66436e0c091888a5fc85584e,old,,,,
2064.5,directmemory_phase,node2,49.0,1.0,node4,node8,node12,node4,node12,node8,66436e0c091888a5fc85584e,old,,,,
1417.8000000715256,directmemory_phase,node11,49.0,1.0,node3,node10,node2,node3,node2,node10,66436e0c091888a5fc85584e,old,,,,
3578.5,directmemory_phase,node12,51.0,0.0,node5,node4,node8,node4,node5,node8,66436e0c091888a5fc85584e,old,,,,
2942.200000047684,directmemory_phase,node7,51.0,0.0,node10,node9,node12,node9,node10,node12,66436e0c091888a5fc85584e,old,,,,
2403.0,directmemory_phase,node3,50.0,0.0,node13,node9,node2,node2,node9,node13,66436e0c091888a5fc85584e,old,,,,
2194.600000023842,directmemory_phase,node8,49.0,1.0,node7,node2,node11,node7,node11,node2,66436e0c091888a5fc85584e,old,,,,
,directmemory_phase,,,,,,,,,,66436e0c091888a5fc85584e,old,,,,
1581.699999988079,shortestpath_phase,node5,49.0,0.0,,,,node6,,,67dcc12657e2fe1375df7f89,young,node13,node6,Two Edge Diff,Four Edge Six Edge
1325.5999999940395,shortestpath_phase,node1,49.0,0.0,,,,node3,,,67dcc12657e2fe1375df7f89,young,node13,node3,Three Edge Diff,Two Edge Five Edge
1476.800000011921,shortestpath_phase,node10,49.0,1.0,,,,node12,,,67dcc12657e2fe1375df7f89,young,node12,node2,One Edge Diff,Four Edge Five Edge
1651.699999988079,shortestpath_phase,node13,50.0,0.0,,,,node9,,,67dcc12657e2fe1375df7f89,young,node9,node5,Four Edge Diff,Two Edge Six Edge
1197.9000000059605,shortestpath_phase,node8,50.0,1.0,,,,node11,,,67dcc12657e2fe1375df7f89,young,node1,node11,Three Edge Diff,Three Edge Six Edge
955.8999999910592,shortestpath_phase,node10,50.0,1.0,,,,node9,,,67dcc12657e2fe1375df7f89,young,node2,node9,Three Edge Diff,Two Edge Five Edge
1578.2000000029802,shortestpath_phase,node5,50.0,0.0,,,,node12,,,67dcc12657e2fe1375df7f89,young,node12,node13,Four Edge Diff,Two Edge Six Edge
1743.3999999910593,shortestpath_phase,node6,49.0,0.0,,,,node8,,,67dcc12657e2fe1375df7f89,young,node10,node8,One Edge Diff,Two Edge Three Edge
1125.0,shortestpath_phase,node5,50.0,1.0,,,,node7,,,67dcc12657e2fe1375df7f89,young,node10,node7,One Edge Diff,Five Edge Six Edge
1960.199999988079,shortestpath_phase,node13,49.0,0.0,,,,node9,,,67dcc12657e2fe1375df7f89,young,node1,node9,Three Edge Diff,Two Edge Five Edge
1450.5999999940395,shortestpath_phase,node5,50.0,0.0,,,,node8,,,67dcc12657e2fe1375df7f89,young,node8,node13,One Edge Diff,Five Edge Six Edge
1774.2999999970198,shortestpath_phase,node2,50.0,0.0,,,,node9,,,67dcc12657e2fe1375df7f89,young,node9,node13,One Edge Diff,Three Edge Four Edge
1803.29999999702,shortestpath_phase,node1,49.0,0.0,,,,node12,,,67dcc12657e2fe1375df7f89,young,node8,node12,Two Edge Diff,Three Edge Five Edge
1585.0,shortestpath_phase,node10,49.0,0.0,,,,node9,,,67dcc12657e2fe1375df7f89,young,node1,node9,Four Edge Diff,Two Edge Six Edge
1195.7999999970198,shortestpath_phase,node5,50.0,1.0,,,,node12,,,67dcc12657e2fe1375df7f89,young,node10,node12,Four Edge Diff,Two Edge Six Edge
1840.8999999910595,shortestpath_phase,node13,49.0,0.0,,,,node8,,,67dcc12657e2fe1375df7f89,young,node2,node8,Two Edge Diff,Two Edge Four Edge
1247.2999999970198,shortestpath_phase,node5,50.0,1.0,,,,node9,,,67dcc12657e2fe1375df7f89,young,node10,node9,Two Edge Diff,Four Edge Six Edge
1260.2999999970198,shortestpath_phase,node1,49.0,0.0,,,,node13,,,67dcc12657e2fe1375df7f89,young,node10,node13,One Edge Diff,Five Edge Six Edge
1378.9000000059605,shortestpath_phase,node5,49.0,0.0,,,,node2,,,67dcc12657e2fe1375df7f89,young,node7,node2,Three Edge Diff,Three Edge Six Edge
1799.7000000029802,shortestpath_phase,node13,49.0,0.0,,,,node8,,,67dcc12657e2fe1375df7f89,young,node1,node8,Three Edge Diff,Three Edge Six Edge
1099.9000000059605,shortestpath_phase,node3,50.0,0.0,,,,node5,,,67dcc12657e2fe1375df7f89,young,node5,node10,One Edge Diff,Three Edge Four Edge
1208.0,shortestpath_phase,node11,50.0,1.0,,,,node8,,,67dcc12657e2fe1375df7f89,young,node13,node8,One Edge Diff,Two Edge Three Edge
1663.1000000089407,shortestpath_phase,node7,50.0,1.0,,,,node10,,,67dcc12657e2fe1375df7f89,young,node1,node10,Two Edge Diff,Two Edge Four Edge
1420.7999999970198,shortestpath_phase,node5,49.0,0.0,,,,node1,,,67dcc12657e2fe1375df7f89,young,node7,node1,Two Edge Diff,Three Edge Five Edge
1559.2000000029802,shortestpath_phase,node10,50.0,0.0,,,,node3,,,67dcc12657e2fe1375df7f89,young,node3,node2,One Edge Diff,Four Edge Five Edge
1952.29999999702,shortestpath_phase,node2,50.0,0.0,,,,node12,,,67dcc12657e2fe1375df7f89,young,node12,node7,One Edge Diff,Two Edge Three Edge
1164.7999999970198,shortestpath_phase,node9,49.0,0.0,,,,node13,,,67dcc12657e2fe1375df7f89,young,node1,node13,Two Edge Diff,Two Edge Four Edge
2101.20000000298,shortestpath_phase,node5,49.0,1.0,,,,node1,,,67dcc12657e2fe1375df7f89,young,node1,node8,Two Edge Diff,Three Edge Five Edge
1209.6000000089407,shortestpath_phase,node12,50.0,0.0,,,,node7,,,67dcc12657e2fe1375df7f89,young,node7,node10,One Edge Diff,Three Edge Four Edge
1603.5,shortestpath_phase,node5,50.0,0.0,,,,node11,,,67dcc12657e2fe1375df7f89,young,node11,node6,One Edge Diff,Three Edge Four Edge
2177.1000000089407,shortestpath_phase,node10,49.0,0.0,,,,node7,,,67dcc12657e2fe1375df7f89,young,node5,node7,Four Edge Diff,Two Edge Six Edge
2020.4000000059605,shortestpath_phase,node5,50.0,0.0,,,,node9,,,67dcc12657e2fe1375df7f89,young,node9,node13,Two Edge Diff,Four Edge Six Edge
1372.7000000029802,shortestpath_phase,node10,49.0,1.0,,,,node12,,,67dcc12657e2fe1375df7f89,young,node12,node4,One Edge Diff,Four Edge Five Edge
1932.6000000089407,shortestpath_phase,node5,50.0,0.0,,,,node2,,,67dcc12657e2fe1375df7f89,young,node2,node10,Four Edge Diff,Two Edge Six Edge
3413.199999988079,shortestpath_phase,node8,50.0,0.0,,,,node3,,,67dcc12657e2fe1375df7f89,young,node3,node1,Two Edge Diff,Three Edge Five Edge
1440.7999999970198,shortestpath_phase,node10,50.0,1.0,,,,node7,,,67dcc12657e2fe1375df7f89,young,node2,node7,Three Edge Diff,Three Edge Six Edge
1179.1000000089407,shortestpath_phase,node13,49.0,0.0,,,,node9,,,67dcc12657e2fe1375df7f89,young,node4,node9,Three Edge Diff,Three Edge Six Edge
1406.0,shortestpath_phase,node11,49.0,0.0,,,,node2,,,67dcc12657e2fe1375df7f89,young,node1,node2,One Edge Diff,Two Edge Three Edge
1932.199999988079,shortestpath_phase,node1,49.0,0.0,,,,node7,,,67dcc12657e2fe1375df7f89,young,node8,node7,One Edge Diff,Four Edge Five Edge
1534.7000000029802,shortestpath_phase,node10,49.0,1.0,,,,node3,,,67dcc12657e2fe1375df7f89,young,node3,node5,Two Edge Diff,Four Edge Six Edge
1524.199999988079,shortestpath_phase,node4,50.0,1.0,,,,node1,,,67dcc12657e2fe1375df7f89,young,node10,node1,Three Edge Diff,Two Edge Five Edge
2657.0,shortestpath_phase,node10,49.0,1.0,,,,node9,,,67dcc12657e2fe1375df7f89,young,node9,node5,Four Edge Diff,Two Edge Six Edge
1872.8999999910595,shortestpath_phase,node8,50.0,1.0,,,,node2,,,67dcc12657e2fe1375df7f89,young,node5,node2,One Edge Diff,Four Edge Five Edge
1856.800000011921,shortestpath_phase,node10,49.0,0.0,,,,node4,,,67dcc12657e2fe1375df7f89,young,node1,node4,One Edge Diff,Five Edge Six Edge
1664.2999999970198,shortestpath_phase,node1,50.0,0.0,,,,node9,,,67dcc12657e2fe1375df7f89,young,node9,node10,Two Edge Diff,Four Edge Six Edge
1257.5,shortestpath_phase,node10,49.0,0.0,,,,node13,,,67dcc12657e2fe1375df7f89,young,node3,node13,One Edge Diff,Three Edge Four Edge
1963.70000000298,shortestpath_phase,node1,49.0,0.0,,,,node7,,,67dcc12657e2fe1375df7f89,young,node10,node7,Two Edge Diff,Four Edge Six Edge
1955.70000000298,shortestpath_phase,node13,50.0,0.0,,,,node10,,,67dcc12657e2fe1375df7f89,young,node10,node2,One Edge Diff,Three Edge Four Edge
1350.4000000059605,shortestpath_phase,node9,49.0,1.0,,,,node2,,,67dcc12657e2fe1375df7f89,young,node2,node1,One Edge Diff,Three Edge Four Edge
2002.8999999910595,shortestpath_phase,node1,50.0,0.0,,,,node4,,,67dcc12657e2fe1375df7f89,young,node4,node10,Four Edge Diff,Two Edge Six Edge
1545.0,shortestpath_phase,node11,50.0,1.0,,,,node6,,,67dcc12657e2fe1375df7f89,young,node1,node6,One Edge Diff,Two Edge Three Edge
1663.300000011921,shortestpath_phase,node1,49.0,1.0,,,,node3,,,67dcc12657e2fe1375df7f89,young,node3,node7,Two Edge Diff,Two Edge Four Edge
1272.9000000059605,shortestpath_phase,node13,49.0,0.0,,,,node11,,,67dcc12657e2fe1375df7f89,young,node4,node11,Two Edge Diff,Three Edge Five Edge
1884.4000000059605,shortestpath_phase,node1,50.0,1.0,,,,node4,,,67dcc12657e2fe1375df7f89,young,node7,node4,Two Edge Diff,Two Edge Four Edge
1695.199999988079,shortestpath_phase,node2,49.0,1.0,,,,node5,,,67dcc12657e2fe1375df7f89,young,node5,node10,Three Edge Diff,Two Edge Five Edge
2360.9000000059605,shortestpath_phase,node12,49.0,1.0,,,,node1,,,67dcc12657e2fe1375df7f89,young,node1,node10,One Edge Diff,Three Edge Four Edge
1405.2000000029802,shortestpath_phase,node13,49.0,0.0,,,,node2,,,67dcc12657e2fe1375df7f89,young,node5,node2,Two Edge Diff,Four Edge Six Edge
1229.6000000089407,shortestpath_phase,node1,49.0,1.0,,,,node11,,,67dcc12657e2fe1375df7f89,young,node11,node9,One Edge Diff,Three Edge Four Edge
1418.7000000029802,shortestpath_phase,node6,50.0,0.0,,,,node12,,,67dcc12657e2fe1375df7f89,young,node12,node5,One Edge Diff,Three Edge Four Edge
930.3999999910592,shortestpath_phase,node8,49.0,1.0,,,,node11,,,67dcc12657e2fe1375df7f89,young,node11,node5,Three Edge Diff,Two Edge Five Edge
1497.2000000029802,shortestpath_phase,node5,50.0,1.0,,,,node6,,,67dcc12657e2fe1375df7f89,young,node10,node6,Two Edge Diff,Four Edge Six Edge
1198.5,shortestpath_phase,node1,49.0,1.0,,,,node8,,,67dcc12657e2fe1375df7f89,young,node8,node10,One Edge Diff,Five Edge Six Edge
1553.0999999940395,shortestpath_phase,node6,49.0,1.0,,,,node13,,,67dcc12657e2fe1375df7f89,young,node13,node5,Two Edge Diff,Two Edge Four Edge
1350.5999999940395,shortestpath_phase,node10,50.0,1.0,,,,node4,,,67dcc12657e2fe1375df7f89,young,node5,node4,One Edge Diff,Five Edge Six Edge
1266.3999999910593,shortestpath_phase,node13,50.0,0.0,,,,node8,,,67dcc12657e2fe1375df7f89,young,node8,node5,Four Edge Diff,Two Edge Six Edge
1532.9000000059605,shortestpath_phase,node10,49.0,0.0,,,,node12,,,67dcc12657e2fe1375df7f89,young,node5,node12,Two Edge Diff,Four Edge Six Edge
940.0999999940396,shortestpath_phase,node13,49.0,0.0,,,,node4,,,67dcc12657e2fe1375df7f89,young,node5,node4,One Edge Diff,Five Edge Six Edge
1264.0999999940395,shortestpath_phase,node10,49.0,0.0,,,,node7,,,67dcc12657e2fe1375df7f89,young,node1,node7,Four Edge Diff,Two Edge Six Edge
1939.5999999940395,shortestpath_phase,node2,49.0,1.0,,,,node11,,,67dcc12657e2fe1375df7f89,young,node11,node10,Three Edge Diff,Three Edge Six Edge
1303.6000000089407,shortestpath_phase,node9,50.0,1.0,,,,node13,,,67dcc12657e2fe1375df7f89,young,node4,node13,One Edge Diff,Two Edge Three Edge
2456.0,shortestpath_phase,node12,49.0,1.0,,,,node8,,,67dcc12657e2fe1375df7f89,young,node8,node10,One Edge Diff,Three Edge Four Edge
1495.2999999970198,shortestpath_phase,node4,50.0,0.0,,,,node3,,,67dcc12657e2fe1375df7f89,young,node3,node13,Three Edge Diff,Two Edge Five Edge
1905.4000000059605,shortestpath_phase,node7,50.0,1.0,,,,node1,,,67dcc12657e2fe1375df7f89,young,node5,node1,One Edge Diff,Four Edge Five Edge
1397.5,shortestpath_phase,node10,49.0,1.0,,,,node13,,,67dcc12657e2fe1375df7f89,young,node13,node2,Two Edge Diff,Three Edge Five Edge
1253.5,shortestpath_phase,node7,50.0,0.0,,,,node3,,,67dcc12657e2fe1375df7f89,young,node3,node5,Three Edge Diff,Three Edge Six Edge
1072.0,shortestpath_phase,node1,49.0,1.0,,,,node6,,,67dcc12657e2fe1375df7f89,young,node6,node13,Two Edge Diff,Three Edge Five Edge
1079.5,shortestpath_phase,node11,49.0,0.0,,,,node2,,,67dcc12657e2fe1375df7f89,young,node10,node2,One Edge Diff,Two Edge Three Edge
1253.2000000029802,shortestpath_phase,node1,49.0,0.0,,,,node3,,,67dcc12657e2fe1375df7f89,young,node10,node3,Four Edge Diff,Two Edge Six Edge
1327.2000000029802,shortestpath_phase,node8,50.0,0.0,,,,node2,,,67dcc12657e2fe1375df7f89,young,node2,node1,One Edge Diff,Four Edge Five Edge
1858.5,shortestpath_phase,node12,50.0,1.0,,,,node3,,,67dcc12657e2fe1375df7f89,young,node13,node3,Two Edge Diff,Two Edge Four Edge
2303.0,shortestpath_phase,node4,50.0,0.0,,,,node11,,,67dcc12657e2fe1375df7f89,young,node11,node13,Three Edge Diff,Two Edge Five Edge
1453.5999999940395,shortestpath_phase,node3,50.0,1.0,,,,node1,,,67dcc12657e2fe1375df7f89,young,node13,node1,One Edge Diff,Two Edge Three Edge
1040.1000000089407,shortestpath_phase,node10,49.0,0.0,,,,node2,,,67dcc12657e2fe1375df7f89,young,node1,node2,One Edge Diff,Five Edge Six Edge
1709.0,shortestpath_phase,node13,49.0,1.0,,,,node3,,,67dcc12657e2fe1375df7f89,young,node3,node2,One Edge Diff,Three Edge Four Edge
1607.7999999970198,shortestpath_phase,node1,50.0,0.0,,,,node4,,,67dcc12657e2fe1375df7f89,young,node4,node13,Three Edge Diff,Three Edge Six Edge
1164.0,shortestpath_phase,node10,49.0,1.0,,,,node12,,,67dcc12657e2fe1375df7f89,young,node12,node1,Two Edge Diff,Four Edge Six Edge
2537.5,shortestpath_phase,node4,49.0,1.0,,,,node1,,,67dcc12657e2fe1375df7f89,young,node1,node10,Three Edge Diff,Three Edge Six Edge
1936.29999999702,shortestpath_phase,node5,50.0,1.0,,,,node8,,,67dcc12657e2fe1375df7f89,young,node10,node8,One Edge Diff,Five Edge Six Edge
1785.9000000059605,shortestpath_phase,node1,49.0,0.0,,,,node3,,,67dcc12657e2fe1375df7f89,young,node13,node3,Three Edge Diff,Three Edge Six Edge
1133.0,shortestpath_phase,node8,50.0,1.0,,,,node13,,,67dcc12657e2fe1375df7f89,young,node2,node13,Two Edge Diff,Two Edge Four Edge
1466.7999999970198,shortestpath_phase,node5,49.0,0.0,,,,node2,,,67dcc12657e2fe1375df7f89,young,node7,node2,Three Edge Diff,Two Edge Five Edge
1523.0,shortestpath_phase,node13,50.0,0.0,,,,node1,,,67dcc12657e2fe1375df7f89,young,node1,node5,One Edge Diff,Five Edge Six Edge
1603.7999999970198,shortestpath_phase,node10,49.0,0.0,,,,node3,,,67dcc12657e2fe1375df7f89,young,node4,node3,One Edge Diff,Four Edge Five Edge
1596.5,shortestpath_phase,node13,50.0,0.0,,,,node12,,,67dcc12657e2fe1375df7f89,young,node12,node1,One Edge Diff,Four Edge Five Edge
2167.5,shortestpath_phase,node10,50.0,0.0,,,,node3,,,67dcc12657e2fe1375df7f89,young,node3,node1,Two Edge Diff,Four Edge Six Edge
1097.4000000059605,shortestpath_phase,node5,49.0,1.0,,,,node7,,,67dcc12657e2fe1375df7f89,young,node7,node13,One Edge Diff,Five Edge Six Edge
1151.5999999940395,shortestpath_phase,node12,49.0,0.0,,,,node3,,,67dcc12657e2fe1375df7f89,young,node1,node3,One Edge Diff,Two Edge Three Edge
1299.1000000089407,shortestpath_phase,node7,50.0,0.0,,,,node11,,,67dcc12657e2fe1375df7f89,young,node11,node2,One Edge Diff,Two Edge Three Edge
1434.5,shortestpath_phase,node12,49.0,0.0,,,,node3,,,67dcc12657e2fe1375df7f89,young,node10,node3,Two Edge Diff,Two Edge Four Edge
1838.79999999702,shortestpath_phase,node4,49.0,0.0,,,,node1,,,67dcc12657e2fe1375df7f89,young,node13,node1,Three Edge Diff,Three Edge Six Edge
1155.0,shortestpath_phase,node12,50.0,0.0,,,,node2,,,67dcc12657e2fe1375df7f89,young,node2,node10,Two Edge Diff,Two Edge Four Edge
1491.5999999940395,shortestpath_phase,node3,50.0,0.0,,,,node4,,,67dcc12657e2fe1375df7f89,young,node4,node5,One Edge Diff,Two Edge Three Edge
1220.2000000029802,shortestpath_phase,node2,49.0,1.0,,,,node6,,,67dcc12657e2fe1375df7f89,young,node6,node10,Three Edge Diff,Three Edge Six Edge
1419.5999999940395,shortestpath_phase,node8,50.0,1.0,,,,node4,,,67dcc12657e2fe1375df7f89,young,node5,node4,One Edge Diff,Four Edge Five Edge
1397.1000000089407,shortestpath_phase,node13,49.0,0.0,,,,node6,,,67dcc12657e2fe1375df7f89,young,node5,node6,Four Edge Diff,Two Edge Six Edge
1609.5,shortestpath_phase,node5,49.0,1.0,,,,node3,,,67dcc12657e2fe1375df7f89,young,node3,node8,Two Edge Diff,Three Edge Five Edge
1377.0,shortestpath_phase,node10,50.0,1.0,,,,node2,,,67dcc12657e2fe1375df7f89,young,node5,node2,One Edge Diff,Five Edge Six Edge
1730.5999999940395,shortestpath_phase,node1,49.0,0.0,,,,node11,,,67dcc12657e2fe1375df7f89,young,node8,node11,Two Edge Diff,Three Edge Five Edge
1522.2999999970198,shortestpath_phase,node13,50.0,0.0,,,,node10,,,67dcc12657e2fe1375df7f89,young,node10,node1,Two Edge Diff,Three Edge Five Edge
1553.5,shortestpath_phase,node1,49.0,1.0,,,,node9,,,67dcc12657e2fe1375df7f89,young,node9,node13,One Edge Diff,Four Edge Five Edge
1237.2999999970198,shortestpath_phase,node2,49.0,0.0,,,,node11,,,67dcc12657e2fe1375df7f89,young,node7,node11,One Edge Diff,Two Edge Three Edge
1301.8999999910593,shortestpath_phase,node13,50.0,0.0,,,,node6,,,67dcc12657e2fe1375df7f89,young,node6,node4,Three Edge Diff,Two Edge Five Edge
1086.0,shortestpath_phase,node7,49.0,0.0,,,,node12,,,67dcc12657e2fe1375df7f89,young,node5,node12,Two Edge Diff,Three Edge Five Edge
1535.7000000029802,shortestpath_phase,node5,49.0,1.0,,,,node2,,,67dcc12657e2fe1375df7f89,young,node2,node13,Four Edge Diff,Two Edge Six Edge
1056.4000000059605,shortestpath_phase,node13,50.0,0.0,,,,node12,,,67dcc12657e2fe1375df7f89,young,node12,node5,Two Edge Diff,Four Edge Six Edge
1322.8999999910593,shortestpath_phase,node4,50.0,1.0,,,,node11,,,67dcc12657e2fe1375df7f89,young,node10,node11,Three Edge Diff,Two Edge Five Edge
1236.8999999910593,shortestpath_phase,node13,50.0,1.0,,,,node2,,,67dcc12657e2fe1375df7f89,young,node1,node2,One Edge Diff,Four Edge Five Edge
1109.7000000029802,shortestpath_phase,node4,50.0,0.0,,,,node11,,,67dcc12657e2fe1375df7f89,young,node11,node7,Two Edge Diff,Two Edge Four Edge
1864.3999999910595,shortestpath_phase,node13,49.0,1.0,,,,node6,,,67dcc12657e2fe1375df7f89,young,node6,node1,Three Edge Diff,Two Edge Five Edge
1250.3999999910593,shortestpath_phase,node2,50.0,0.0,,,,node11,,,67dcc12657e2fe1375df7f89,young,node11,node13,Two Edge Diff,Two Edge Four Edge
2326.5999999940395,shortestpath_phase,,49.0,1.0,,,,,,,67dcc12657e2fe1375df7f89,young,,,Two Edge Diff,Three Edge Five Edge
6175.5,shortestpath_phase,node5,49.0,0.0,,,,node12,,,67ce1feb43ee9200186c94b3,old,node13,node12,Four Edge Diff,Two Edge Six Edge
6849.899999976158,shortestpath_phase,node10,49.0,1.0,,,,node4,,,67ce1feb43ee9200186c94b3,old,node4,node1,One Edge Diff,Five Edge Six Edge
5079.699999928474,shortestpath_phase,node1,49.0,1.0,,,,node13,,,67ce1feb43ee9200186c94b3,old,node13,node10,One Edge Diff,Five Edge Six Edge
,shortestpath_phase,node7,,0.0,,,,node4,,,67ce1feb43ee9200186c94b3,old,node5,node4,One Edge Diff,Four Edge Five Edge
,shortestpath_phase,node5,,0.0,,,,node11,,,67ce1feb43ee9200186c94b3,old,node6,node11,One Edge Diff,Three Edge Four Edge
6087.200000047684,shortestpath_phase,node10,50.0,0.0,,,,node9,,,67ce1feb43ee9200186c94b3,old,node9,node5,Four Edge Diff,Two Edge Six Edge
5280.799999952316,shortestpath_phase,node1,49.0,1.0,,,,node11,,,67ce1feb43ee9200186c94b3,old,node11,node8,Two Edge Diff,Three Edge Five Edge
4112.5,shortestpath_phase,node5,49.0,1.0,,,,node9,,,67ce1feb43ee9200186c94b3,old,node9,node13,Two Edge Diff,Four Edge Six Edge
3707.899999976158,shortestpath_phase,node4,49.0,0.0,,,,node11,,,67ce1feb43ee9200186c94b3,old,node13,node11,Three Edge Diff,Three Edge Six Edge
2808.899999976158,shortestpath_phase,node5,49.0,0.0,,,,node6,,,67ce1feb43ee9200186c94b3,old,node10,node6,Two Edge Diff,Four Edge Six Edge
3985.899999976158,shortestpath_phase,node13,50.0,1.0,,,,node11,,,67ce1feb43ee9200186c94b3,old,node1,node11,Two Edge Diff,Three Edge Five Edge
4698.0,shortestpath_phase,node1,50.0,1.0,,,,node8,,,67ce1feb43ee9200186c94b3,old,node10,node8,One Edge Diff,Five Edge Six Edge
4457.700000047684,shortestpath_phase,node5,49.0,1.0,,,,node7,,,67ce1feb43ee9200186c94b3,old,node7,node13,One Edge Diff,Five Edge Six Edge
5160.699999928474,shortestpath_phase,node8,50.0,1.0,,,,node11,,,67ce1feb43ee9200186c94b3,old,node2,node11,Two Edge Diff,Two Edge Four Edge
4129.300000071526,shortestpath_phase,node10,49.0,1.0,,,,node7,,,67ce1feb43ee9200186c94b3,old,node7,node4,Three Edge Diff,Three Edge Six Edge
4226.399999976158,shortestpath_phase,node11,50.0,0.0,,,,node6,,,67ce1feb43ee9200186c94b3,old,node6,node13,One Edge Diff,Two Edge Three Edge
3361.600000023842,shortestpath_phase,node5,49.0,1.0,,,,node8,,,67ce1feb43ee9200186c94b3,old,node8,node10,One Edge Diff,Five Edge Six Edge
2993.3000000715256,shortestpath_phase,node1,49.0,0.0,,,,node7,,,67ce1feb43ee9200186c94b3,old,node8,node7,One Edge Diff,Four Edge Five Edge
2927.2999999523163,shortestpath_phase,node13,50.0,1.0,,,,node8,,,67ce1feb43ee9200186c94b3,old,node12,node8,Two Edge Diff,Two Edge Four Edge
3917.799999952316,shortestpath_phase,node7,50.0,1.0,,,,node11,,,67ce1feb43ee9200186c94b3,old,node4,node11,Two Edge Diff,Two Edge Four Edge
3698.299999952316,shortestpath_phase,node2,49.0,1.0,,,,node9,,,67ce1feb43ee9200186c94b3,old,node9,node10,Two Edge Diff,Three Edge Five Edge
4617.200000047684,shortestpath_phase,node8,50.0,0.0,,,,node6,,,67ce1feb43ee9200186c94b3,old,node6,node5,Three Edge Diff,Two Edge Five Edge
2625.200000047684,shortestpath_phase,node1,49.0,0.0,,,,node7,,,67ce1feb43ee9200186c94b3,old,node10,node7,Two Edge Diff,Four Edge Six Edge
4418.299999952316,shortestpath_phase,node13,50.0,0.0,,,,node6,,,67ce1feb43ee9200186c94b3,old,node6,node5,Four Edge Diff,Two Edge Six Edge
3968.3000000715256,shortestpath_phase,node4,50.0,1.0,,,,node1,,,67ce1feb43ee9200186c94b3,old,node10,node1,Three Edge Diff,Three Edge Six Edge
3984.399999976158,shortestpath_phase,node13,49.0,0.0,,,,node12,,,67ce1feb43ee9200186c94b3,old,node5,node12,Two Edge Diff,Four Edge Six Edge
2945.899999976158,shortestpath_phase,node10,50.0,1.0,,,,node7,,,67ce1feb43ee9200186c94b3,old,node2,node7,Three Edge Diff,Three Edge Six Edge
3549.0,shortestpath_phase,node13,50.0,1.0,,,,node9,,,67ce1feb43ee9200186c94b3,old,node1,node9,Three Edge Diff,Three Edge Six Edge
4380.800000071526,shortestpath_phase,node8,50.0,0.0,,,,node3,,,67ce1feb43ee9200186c94b3,old,node3,node1,Two Edge Diff,Three Edge Five Edge
4833.0,shortestpath_phase,node6,49.0,1.0,,,,node13,,,67ce1feb43ee9200186c94b3,old,node13,node10,One Edge Diff,Two Edge Three Edge
3185.0,shortestpath_phase,node2,49.0,1.0,,,,node5,,,67ce1feb43ee9200186c94b3,old,node5,node10,Three Edge Diff,Two Edge Five Edge
2632.600000023842,shortestpath_phase,node13,50.0,0.0,,,,node9,,,67ce1feb43ee9200186c94b3,old,node9,node1,Three Edge Diff,Two Edge Five Edge
4046.099999904633,shortestpath_phase,node6,50.0,1.0,,,,node11,,,67ce1feb43ee9200186c94b3,old,node4,node11,One Edge Diff,Two Edge Three Edge
3023.1999999284744,shortestpath_phase,node12,50.0,0.0,,,,node2,,,67ce1feb43ee9200186c94b3,old,node2,node1,One Edge Diff,Two Edge Three Edge
2633.100000023842,shortestpath_phase,node13,49.0,1.0,,,,node6,,,67ce1feb43ee9200186c94b3,old,node6,node1,Three Edge Diff,Two Edge Five Edge
3153.100000023842,shortestpath_phase,node7,49.0,0.0,,,,node12,,,67ce1feb43ee9200186c94b3,old,node5,node12,Two Edge Diff,Three Edge Five Edge
4267.200000047684,shortestpath_phase,node13,50.0,0.0,,,,node6,,,67ce1feb43ee9200186c94b3,old,node6,node12,Two Edge Diff,Two Edge Four Edge
3257.399999976158,shortestpath_phase,node10,49.0,0.0,,,,node7,,,67ce1feb43ee9200186c94b3,old,node1,node7,Four Edge Diff,Two Edge Six Edge
3617.299999952316,shortestpath_phase,node5,50.0,0.0,,,,node1,,,67ce1feb43ee9200186c94b3,old,node1,node6,One Edge Diff,Three Edge Four Edge
2153.6999999284744,shortestpath_phase,node7,49.0,0.0,,,,node10,,,67ce1feb43ee9200186c94b3,old,node5,node10,Three Edge Diff,Two Edge Five Edge
1592.7999999523165,shortestpath_phase,node1,49.0,1.0,,,,node11,,,67ce1feb43ee9200186c94b3,old,node11,node7,One Edge Diff,Three Edge Four Edge
2304.2999999523163,shortestpath_phase,node6,49.0,0.0,,,,node12,,,67ce1feb43ee9200186c94b3,old,node5,node12,One Edge Diff,Three Edge Four Edge
2461.3000000715256,shortestpath_phase,node11,49.0,0.0,,,,node7,,,67ce1feb43ee9200186c94b3,old,node10,node7,One Edge Diff,Two Edge Three Edge
3306.399999976158,shortestpath_phase,node3,50.0,0.0,,,,node4,,,67ce1feb43ee9200186c94b3,old,node4,node8,One Edge Diff,Two Edge Three Edge
2304.2999999523163,shortestpath_phase,node6,49.0,0.0,,,,node1,,,67ce1feb43ee9200186c94b3,old,node5,node1,One Edge Diff,Three Edge Four Edge
2259.0,shortestpath_phase,node13,49.0,0.0,,,,node12,,,67ce1feb43ee9200186c94b3,old,node1,node12,One Edge Diff,Four Edge Five Edge
3136.7999999523163,shortestpath_phase,node10,50.0,0.0,,,,node3,,,67ce1feb43ee9200186c94b3,old,node3,node1,Two Edge Diff,Four Edge Six Edge
3305.7999999523163,shortestpath_phase,node1,49.0,0.0,,,,node12,,,67ce1feb43ee9200186c94b3,old,node13,node12,Two Edge Diff,Three Edge Five Edge
3378.600000023842,shortestpath_phase,node2,49.0,1.0,,,,node11,,,67ce1feb43ee9200186c94b3,old,node11,node10,Three Edge Diff,Three Edge Six Edge
2360.0,shortestpath_phase,node5,50.0,0.0,,,,node3,,,67ce1feb43ee9200186c94b3,old,node3,node8,Two Edge Diff,Three Edge Five Edge
5233.799999952316,shortestpath_phase,node13,50.0,1.0,,,,node4,,,67ce1feb43ee9200186c94b3,old,node5,node4,One Edge Diff,Five Edge Six Edge
3634.0,shortestpath_phase,node2,50.0,0.0,,,,node7,,,67ce1feb43ee9200186c94b3,old,node7,node13,One Edge Diff,Three Edge Four Edge
3322.0,shortestpath_phase,node4,49.0,0.0,,,,node11,,,67ce1feb43ee9200186c94b3,old,node10,node11,Three Edge Diff,Three Edge Six Edge
3819.5,shortestpath_phase,node12,49.0,1.0,,,,node7,,,67ce1feb43ee9200186c94b3,old,node7,node10,One Edge Diff,Three Edge Four Edge
4338.200000047684,shortestpath_phase,node10,50.0,1.0,,,,node4,,,67ce1feb43ee9200186c94b3,old,node5,node4,One Edge Diff,Five Edge Six Edge
2329.0,shortestpath_phase,node2,50.0,0.0,,,,node6,,,67ce1feb43ee9200186c94b3,old,node6,node8,Two Edge Diff,Two Edge Four Edge
1521.6999999284744,shortestpath_phase,node1,49.0,0.0,,,,node4,,,67ce1feb43ee9200186c94b3,old,node8,node4,Three Edge Diff,Two Edge Five Edge
2372.2999999523163,shortestpath_phase,node8,50.0,0.0,,,,node13,,,67ce1feb43ee9200186c94b3,old,node13,node1,Three Edge Diff,Two Edge Five Edge
2673.5,shortestpath_phase,node1,49.0,0.0,,,,node4,,,67ce1feb43ee9200186c94b3,old,node10,node4,Four Edge Diff,Two Edge Six Edge
3400.700000047684,shortestpath_phase,node2,50.0,0.0,,,,node8,,,67ce1feb43ee9200186c94b3,old,node8,node10,One Edge Diff,Four Edge Five Edge
3058.3000000715256,shortestpath_phase,node4,50.0,1.0,,,,node7,,,67ce1feb43ee9200186c94b3,old,node10,node7,One Edge Diff,Four Edge Five Edge
2018.2000000476835,shortestpath_phase,node12,49.0,1.0,,,,node9,,,67ce1feb43ee9200186c94b3,old,node9,node10,Two Edge Diff,Two Edge Four Edge
2399.7999999523163,shortestpath_phase,node1,50.0,0.0,,,,node4,,,67ce1feb43ee9200186c94b3,old,node4,node5,One Edge Diff,Two Edge Three Edge
2088.1999999284744,shortestpath_phase,node7,49.0,0.0,,,,node11,,,67ce1feb43ee9200186c94b3,old,node1,node11,Two Edge Diff,Two Edge Four Edge
5880.799999952316,shortestpath_phase,node13,49.0,0.0,,,,node1,,,67ce1feb43ee9200186c94b3,old,node5,node1,One Edge Diff,Five Edge Six Edge
2976.099999904633,shortestpath_phase,node4,49.0,1.0,,,,node9,,,67ce1feb43ee9200186c94b3,old,node9,node10,Two Edge Diff,Three Edge Five Edge
3433.099999904633,shortestpath_phase,node10,50.0,1.0,,,,node12,,,67ce1feb43ee9200186c94b3,old,node4,node12,One Edge Diff,Four Edge Five Edge
3937.299999952316,shortestpath_phase,node13,50.0,0.0,,,,node9,,,67ce1feb43ee9200186c94b3,old,node9,node5,Four Edge Diff,Two Edge Six Edge
2231.0,shortestpath_phase,node5,49.0,0.0,,,,node12,,,67ce1feb43ee9200186c94b3,old,node8,node12,Three Edge Diff,Two Edge Five Edge
3938.700000047684,shortestpath_phase,node10,50.0,1.0,,,,node9,,,67ce1feb43ee9200186c94b3,old,node2,node9,Three Edge Diff,Three Edge Six Edge
3617.0,shortestpath_phase,node12,49.0,0.0,,,,node3,,,67ce1feb43ee9200186c94b3,old,node10,node3,Two Edge Diff,Two Edge Four Edge
4856.699999928474,shortestpath_phase,node5,49.0,0.0,,,,node11,,,67ce1feb43ee9200186c94b3,old,node8,node11,Two Edge Diff,Three Edge Five Edge
2178.400000095367,shortestpath_phase,node13,50.0,0.0,,,,node3,,,67ce1feb43ee9200186c94b3,old,node3,node1,Two Edge Diff,Three Edge Five Edge
6203.400000095367,shortestpath_phase,node5,50.0,1.0,,,,node12,,,67ce1feb43ee9200186c94b3,old,node10,node12,Four Edge Diff,Two Edge Six Edge
2639.3000000715256,shortestpath_phase,node1,49.0,0.0,,,,node9,,,67ce1feb43ee9200186c94b3,old,node10,node9,Two Edge Diff,Four Edge Six Edge
5035.0,shortestpath_phase,node6,50.0,0.0,,,,node8,,,67ce1feb43ee9200186c94b3,old,node8,node12,One Edge Diff,Two Edge Three Edge
2581.100000023842,shortestpath_phase,node10,50.0,0.0,,,,node3,,,67ce1feb43ee9200186c94b3,old,node3,node5,Two Edge Diff,Four Edge Six Edge
4632.0,shortestpath_phase,node1,49.0,1.0,,,,node6,,,67ce1feb43ee9200186c94b3,old,node6,node7,One Edge Diff,Three Edge Four Edge
4784.899999976158,shortestpath_phase,node5,50.0,0.0,,,,node2,,,67ce1feb43ee9200186c94b3,old,node2,node10,Four Edge Diff,Two Edge Six Edge
2792.400000095367,shortestpath_phase,node10,49.0,0.0,,,,node6,,,67ce1feb43ee9200186c94b3,old,node12,node6,One Edge Diff,Three Edge Four Edge
3688.900000095367,shortestpath_phase,node9,49.0,0.0,,,,node3,,,67ce1feb43ee9200186c94b3,old,node5,node3,Two Edge Diff,Two Edge Four Edge
3859.0,shortestpath_phase,node8,50.0,1.0,,,,node6,,,67ce1feb43ee9200186c94b3,old,node3,node6,One Edge Diff,Two Edge Three Edge
2112.599999904633,shortestpath_phase,node1,50.0,0.0,,,,node3,,,67ce1feb43ee9200186c94b3,old,node3,node8,Three Edge Diff,Two Edge Five Edge
2985.2999999523163,shortestpath_phase,node13,49.0,0.0,,,,node9,,,67ce1feb43ee9200186c94b3,old,node4,node9,Three Edge Diff,Three Edge Six Edge
2497.7999999523163,shortestpath_phase,node10,50.0,0.0,,,,node2,,,67ce1feb43ee9200186c94b3,old,node2,node5,One Edge Diff,Five Edge Six Edge
3820.200000047684,shortestpath_phase,node5,50.0,1.0,,,,node7,,,67ce1feb43ee9200186c94b3,old,node10,node7,One Edge Diff,Five Edge Six Edge
4654.599999904633,shortestpath_phase,node4,50.0,0.0,,,,node3,,,67ce1feb43ee9200186c94b3,old,node3,node13,Three Edge Diff,Two Edge Five Edge
1870.899999976158,shortestpath_phase,node11,49.0,1.0,,,,node8,,,67ce1feb43ee9200186c94b3,old,node8,node5,One Edge Diff,Two Edge Three Edge
2899.700000047684,shortestpath_phase,node10,50.0,0.0,,,,node12,,,67ce1feb43ee9200186c94b3,old,node12,node5,Two Edge Diff,Four Edge Six Edge
2314.399999976158,shortestpath_phase,node5,50.0,1.0,,,,node9,,,67ce1feb43ee9200186c94b3,old,node10,node9,Two Edge Diff,Four Edge Six Edge
3360.7999999523163,shortestpath_phase,node10,50.0,0.0,,,,node2,,,67ce1feb43ee9200186c94b3,old,node2,node1,One Edge Diff,Five Edge Six Edge
2296.8000000715256,shortestpath_phase,node5,49.0,0.0,,,,node1,,,67ce1feb43ee9200186c94b3,old,node9,node1,One Edge Diff,Three Edge Four Edge
4009.3000000715256,shortestpath_phase,node8,50.0,0.0,,,,node12,,,67ce1feb43ee9200186c94b3,old,node12,node2,One Edge Diff,Three Edge Four Edge
1938.9000000953672,shortestpath_phase,node1,49.0,0.0,,,,node3,,,67ce1feb43ee9200186c94b3,old,node10,node3,Four Edge Diff,Two Edge Six Edge
3144.8000000715256,shortestpath_phase,node10,49.0,1.0,,,,node9,,,67ce1feb43ee9200186c94b3,old,node9,node1,Four Edge Diff,Two Edge Six Edge
2449.600000023842,shortestpath_phase,node1,50.0,0.0,,,,node4,,,67ce1feb43ee9200186c94b3,old,node4,node8,Three Edge Diff,Three Edge Six Edge
3080.700000047684,shortestpath_phase,node10,49.0,0.0,,,,node3,,,67ce1feb43ee9200186c94b3,old,node4,node3,One Edge Diff,Four Edge Five Edge
3152.900000095367,shortestpath_phase,node1,49.0,0.0,,,,node9,,,67ce1feb43ee9200186c94b3,old,node13,node9,One Edge Diff,Four Edge Five Edge
3827.400000095367,shortestpath_phase,node2,50.0,0.0,,,,node11,,,67ce1feb43ee9200186c94b3,old,node11,node7,One Edge Diff,Two Edge Three Edge
3448.8000000715256,shortestpath_phase,node9,49.0,1.0,,,,node10,,,67ce1feb43ee9200186c94b3,old,node10,node1,Two Edge Diff,Two Edge Four Edge
3688.8000000715256,shortestpath_phase,node13,50.0,0.0,,,,node2,,,67ce1feb43ee9200186c94b3,old,node2,node5,Two Edge Diff,Four Edge Six Edge
3577.899999976158,shortestpath_phase,node7,50.0,0.0,,,,node1,,,67ce1feb43ee9200186c94b3,old,node1,node5,One Edge Diff,Four Edge Five Edge
1703.9000000953674,shortestpath_phase,node13,49.0,1.0,,,,node8,,,67ce1feb43ee9200186c94b3,old,node8,node5,Four Edge Diff,Two Edge Six Edge
2692.900000095367,shortestpath_phase,node2,49.0,0.0,,,,node11,,,67ce1feb43ee9200186c94b3,old,node9,node11,One Edge Diff,Two Edge Three Edge
4377.5,shortestpath_phase,node5,50.0,0.0,,,,node6,,,67ce1feb43ee9200186c94b3,old,node6,node13,Two Edge Diff,Four Edge Six Edge
2834.600000023842,shortestpath_phase,node9,49.0,0.0,,,,node13,,,67ce1feb43ee9200186c94b3,old,node5,node13,Two Edge Diff,Two Edge Four Edge
3207.899999976158,shortestpath_phase,node5,49.0,1.0,,,,node12,,,67ce1feb43ee9200186c94b3,old,node12,node7,Three Edge Diff,Two Edge Five Edge
3427.700000047684,shortestpath_phase,node13,49.0,1.0,,,,node2,,,67ce1feb43ee9200186c94b3,old,node2,node1,One Edge Diff,Four Edge Five Edge
2288.8000000715256,shortestpath_phase,node10,50.0,0.0,,,,node12,,,67ce1feb43ee9200186c94b3,old,node12,node1,Two Edge Diff,Four Edge Six Edge
1824.5,shortestpath_phase,node8,49.0,0.0,,,,node6,,,67ce1feb43ee9200186c94b3,old,node5,node6,Three Edge Diff,Three Edge Six Edge
3857.5,shortestpath_phase,node4,49.0,1.0,,,,node11,,,67ce1feb43ee9200186c94b3,old,node11,node10,Three Edge Diff,Two Edge Five Edge
2904.2999999523163,shortestpath_phase,node5,49.0,0.0,,,,node2,,,67ce1feb43ee9200186c94b3,old,node13,node2,Four Edge Diff,Two Edge Six Edge
2801.100000023842,shortestpath_phase,node6,49.0,0.0,,,,node8,,,67ce1feb43ee9200186c94b3,old,node5,node8,Two Edge Diff,Two Edge Four Edge
2945.3000000715256,shortestpath_phase,node5,50.0,1.0,,,,node11,,,67ce1feb43ee9200186c94b3,old,node7,node11,Two Edge Diff,Three Edge Five Edge
2943.399999976158,shortestpath_phase,node4,49.0,0.0,,,,node9,,,67ce1feb43ee9200186c94b3,old,node13,node9,Two Edge Diff,Three Edge Five Edge
2551.5,shortestpath_phase,node5,49.0,1.0,,,,node8,,,67ce1feb43ee9200186c94b3,old,node8,node13,One Edge Diff,Five Edge Six Edge
2996.899999976158,shortestpath_phase,node10,49.0,0.0,,,,node7,,,67ce1feb43ee9200186c94b3,old,node5,node7,Four Edge Diff,Two Edge Six Edge
1840.2000000476835,shortestpath_phase,node8,49.0,0.0,,,,node2,,,67ce1feb43ee9200186c94b3,old,node1,node2,One Edge Diff,Four Edge Five Edge
,shortestpath_phase,,,0.0,,,,,,,67ce1feb43ee9200186c94b3,old,,,One Edge Diff,Four Edge Five Edge
2646.700000047684,shortestpath_phase,,50.0,1.0,,,,,,,67ce1feb43ee9200186c94b3,old,,,Three Edge Diff,Three Edge Six Edge
1560.2000000476835,shortestpath_phase,,49.0,1.0,,,,,,,67ce1feb43ee9200186c94b3,old,,,One Edge Diff,Three Edge Four Edge
1334.699999999255,shortestpath_phase,node8,50.0,1.0,,,,node13,,,5bcc60b95c2b810001dc68e2,young,node2,node13,Two Edge Diff,Two Edge Four Edge
1573.9000000003723,shortestpath_phase,node5,50.0,1.0,,,,node12,,,5bcc60b95c2b810001dc68e2,young,node8,node12,Three Edge Diff,Three Edge Six Edge
1741.699999999255,shortestpath_phase,node2,50.0,1.0,,,,node9,,,5bcc60b95c2b810001dc68e2,young,node10,node9,Two Edge Diff,Three Edge Five Edge
1448.2000000011176,shortestpath_phase,node5,50.0,0.0,,,,node7,,,5bcc60b95c2b810001dc68e2,young,node7,node13,One Edge Diff,Five Edge Six Edge
1169.0999999996277,shortestpath_phase,node3,50.0,0.0,,,,node12,,,5bcc60b95c2b810001dc68e2,young,node12,node10,Two Edge Diff,Two Edge Four Edge
1347.2999999988824,shortestpath_phase,node1,49.0,1.0,,,,node4,,,5bcc60b95c2b810001dc68e2,young,node4,node8,Three Edge Diff,Two Edge Five Edge
774.5,shortestpath_phase,node5,50.0,1.0,,,,node12,,,5bcc60b95c2b810001dc68e2,young,node9,node12,Two Edge Diff,Two Edge Four Edge
784.0,shortestpath_phase,node8,50.0,1.0,,,,node11,,,5bcc60b95c2b810001dc68e2,young,node4,node11,Two Edge Diff,Two Edge Four Edge
454.0,shortestpath_phase,node10,50.0,0.0,,,,node3,,,5bcc60b95c2b810001dc68e2,young,node3,node5,Two Edge Diff,Four Edge Six Edge
989.3000000007452,shortestpath_phase,node13,50.0,1.0,,,,node6,,,5bcc60b95c2b810001dc68e2,young,node4,node6,Three Edge Diff,Three Edge Six Edge
549.5999999996275,shortestpath_phase,node10,50.0,0.0,,,,node2,,,5bcc60b95c2b810001dc68e2,young,node2,node5,One Edge Diff,Five Edge Six Edge
1078.300000000745,shortestpath_phase,node6,49.0,1.0,,,,node1,,,5bcc60b95c2b810001dc68e2,young,node1,node5,One Edge Diff,Three Edge Four Edge
1677.5,shortestpath_phase,node10,49.0,1.0,,,,node13,,,5bcc60b95c2b810001dc68e2,young,node13,node2,Two Edge Diff,Three Edge Five Edge
973.0,shortestpath_phase,node5,49.0,0.0,,,,node12,,,5bcc60b95c2b810001dc68e2,young,node7,node12,Three Edge Diff,Three Edge Six Edge
1551.7000000011176,shortestpath_phase,node8,49.0,1.0,,,,node4,,,5bcc60b95c2b810001dc68e2,young,node4,node5,One Edge Diff,Four Edge Five Edge
1554.2000000011176,shortestpath_phase,node12,49.0,1.0,,,,node2,,,5bcc60b95c2b810001dc68e2,young,node2,node13,Two Edge Diff,Two Edge Four Edge
2530.39999999851,shortestpath_phase,node5,49.0,0.0,,,,node7,,,5bcc60b95c2b810001dc68e2,young,node10,node7,One Edge Diff,Five Edge Six Edge
1993.800000000745,shortestpath_phase,node1,49.0,0.0,,,,node11,,,5bcc60b95c2b810001dc68e2,young,node13,node11,Two Edge Diff,Three Edge Five Edge
2297.699999999255,shortestpath_phase,node8,49.0,1.0,,,,node6,,,5bcc60b95c2b810001dc68e2,young,node6,node12,One Edge Diff,Two Edge Three Edge
3442.7000000011176,shortestpath_phase,node10,49.0,1.0,,,,node11,,,5bcc60b95c2b810001dc68e2,young,node11,node3,One Edge Diff,Three Edge Four Edge
3286.9000000003725,shortestpath_phase,node5,49.0,0.0,,,,node8,,,5bcc60b95c2b810001dc68e2,young,node10,node8,One Edge Diff,Five Edge Six Edge
2802.4000000003725,shortestpath_phase,node2,49.0,0.0,,,,node11,,,5bcc60b95c2b810001dc68e2,young,node10,node11,Three Edge Diff,Two Edge Five Edge
1238.0999999996277,shortestpath_phase,node13,50.0,1.0,,,,node1,,,5bcc60b95c2b810001dc68e2,young,node5,node1,One Edge Diff,Five Edge Six Edge
2747.5,shortestpath_phase,node10,50.0,1.0,,,,node9,,,5bcc60b95c2b810001dc68e2,young,node5,node9,Four Edge Diff,Two Edge Six Edge
1897.9000000003723,shortestpath_phase,node13,49.0,0.0,,,,node2,,,5bcc60b95c2b810001dc68e2,young,node1,node2,One Edge Diff,Four Edge Five Edge
2464.10000000149,shortestpath_phase,node5,49.0,0.0,,,,node12,,,5bcc60b95c2b810001dc68e2,young,node6,node12,Two Edge Diff,Two Edge Four Edge
692.9000000003725,shortestpath_phase,node13,49.0,0.0,,,,node11,,,5bcc60b95c2b810001dc68e2,young,node1,node11,Two Edge Diff,Three Edge Five Edge
2344.10000000149,shortestpath_phase,node1,49.0,1.0,,,,node4,,,5bcc60b95c2b810001dc68e2,young,node4,node13,Three Edge Diff,Three Edge Six Edge
1935.599999999628,shortestpath_phase,node5,49.0,0.0,,,,node6,,,5bcc60b95c2b810001dc68e2,young,node13,node6,Two Edge Diff,Four Edge Six Edge
