rt,trial_type,stimulus,key_press,stimulus_left,stimulus_right,accuracy,stimulus_correct,condition,specific_pairs,partid,age
3523.6999999284744,shortestpath_phase,GW/jukebox.jpg,49.0,GW/barrel.jpg,GW/gong.jpg,1.0,GW/barrel.jpg,Three Edge Diff,Three Edge Six Edge,6679dc943f855ba978447c25,old
2183.0,shortestpath_phase,GW/dustpan.jpg,49.0,GW/soldier.jpg,GW/gong.jpg,1.0,GW/soldier.jpg,Four Edge Diff,Two Edge Six Edge,6679dc943f855ba978447c25,old
2533.899999976158,shortestpath_phase,GW/hat.jpg,50.0,GW/snail.jpg,GW/camera.jpg,1.0,GW/camera.jpg,Three Edge Diff,Three Edge Six Edge,6679dc943f855ba978447c25,old
2052.7999999523163,shortestpath_phase,GW/wheelchair.jpg,49.0,GW/teeth.jpg,GW/globe.jpg,1.0,GW/teeth.jpg,One Edge Diff,Two Edge Three Edge,6679dc943f855ba978447c25,old
2658.0,shortestpath_phase,GW/snail.jpg,49.0,GW/dustpan.jpg,GW/barrel.jpg,0.0,GW/barrel.jpg,Three Edge Diff,Two Edge Five Edge,6679dc943f855ba978447c25,old
2350.899999976158,shortestpath_phase,GW/gong.jpg,49.0,GW/globe.jpg,GW/camera.jpg,1.0,GW/globe.jpg,Two Edge Diff,Three Edge Five Edge,6679dc943f855ba978447c25,old
3089.7000000476837,shortestpath_phase,GW/paint.jpg,49.0,GW/dustpan.jpg,GW/teeth.jpg,0.0,GW/teeth.jpg,One Edge Diff,Three Edge Four Edge,6679dc943f855ba978447c25,old
3001.399999976158,shortestpath_phase,GW/globe.jpg,50.0,GW/snail.jpg,GW/dustpan.jpg,0.0,GW/snail.jpg,Four Edge Diff,Two Edge Six Edge,6679dc943f855ba978447c25,old
2434.8000000715256,shortestpath_phase,GW/paint.jpg,49.0,GW/basket.jpg,GW/hat.jpg,1.0,GW/basket.jpg,Two Edge Diff,Two Edge Four Edge,6679dc943f855ba978447c25,old
2574.399999976158,shortestpath_phase,GW/gong.jpg,49.0,GW/dustpan.jpg,GW/teeth.jpg,0.0,GW/teeth.jpg,Two Edge Diff,Four Edge Six Edge,6679dc943f855ba978447c25,old
3751.100000023842,shortestpath_phase,GW/dustpan.jpg,50.0,GW/soldier.jpg,GW/paint.jpg,0.0,GW/soldier.jpg,Two Edge Diff,Two Edge Four Edge,6679dc943f855ba978447c25,old
2456.2999999523163,shortestpath_phase,GW/basket.jpg,50.0,GW/paint.jpg,GW/soldier.jpg,0.0,GW/paint.jpg,One Edge Diff,Two Edge Three Edge,6679dc943f855ba978447c25,old
4340.699999928474,shortestpath_phase,GW/gong.jpg,49.0,GW/globe.jpg,GW/jukebox.jpg,1.0,GW/globe.jpg,Two Edge Diff,Three Edge Five Edge,6679dc943f855ba978447c25,old
4144.300000071526,shortestpath_phase,GW/hat.jpg,49.0,GW/basket.jpg,GW/globe.jpg,1.0,GW/basket.jpg,One Edge Diff,Four Edge Five Edge,6679dc943f855ba978447c25,old
3280.2999999523163,shortestpath_phase,GW/wheelchair.jpg,49.0,GW/camera.jpg,GW/gong.jpg,1.0,GW/camera.jpg,One Edge Diff,Two Edge Three Edge,6679dc943f855ba978447c25,old
3556.399999976158,shortestpath_phase,GW/hat.jpg,49.0,GW/basket.jpg,GW/soldier.jpg,0.0,GW/soldier.jpg,Two Edge Diff,Two Edge Four Edge,6679dc943f855ba978447c25,old
1927.0,shortestpath_phase,GW/dustpan.jpg,50.0,GW/gong.jpg,GW/barrel.jpg,1.0,GW/barrel.jpg,Two Edge Diff,Four Edge Six Edge,6679dc943f855ba978447c25,old
2772.2000000476837,shortestpath_phase,GW/globe.jpg,50.0,GW/soldier.jpg,GW/paint.jpg,1.0,GW/paint.jpg,One Edge Diff,Three Edge Four Edge,6679dc943f855ba978447c25,old
3672.100000023842,shortestpath_phase,GW/dustpan.jpg,50.0,GW/barrel.jpg,GW/snail.jpg,0.0,GW/barrel.jpg,One Edge Diff,Four Edge Five Edge,6679dc943f855ba978447c25,old
3014.100000023842,shortestpath_phase,GW/globe.jpg,50.0,GW/jukebox.jpg,GW/dustpan.jpg,0.0,GW/jukebox.jpg,Two Edge Diff,Four Edge Six Edge,6679dc943f855ba978447c25,old
2169.5,shortestpath_phase,GW/dustpan.jpg,50.0,GW/gong.jpg,GW/paint.jpg,1.0,GW/paint.jpg,Two Edge Diff,Four Edge Six Edge,6679dc943f855ba978447c25,old
2084.399999976158,shortestpath_phase,GW/teeth.jpg,49.0,GW/hat.jpg,GW/dustpan.jpg,1.0,GW/hat.jpg,One Edge Diff,Two Edge Three Edge,6679dc943f855ba978447c25,old
3507.5,shortestpath_phase,GW/camera.jpg,49.0,GW/barrel.jpg,GW/wheelchair.jpg,0.0,GW/wheelchair.jpg,One Edge Diff,Two Edge Three Edge,6679dc943f855ba978447c25,old
4157.700000047684,shortestpath_phase,GW/hat.jpg,50.0,GW/wheelchair.jpg,GW/teeth.jpg,1.0,GW/teeth.jpg,One Edge Diff,Two Edge Three Edge,6679dc943f855ba978447c25,old
2535.5,shortestpath_phase,GW/gong.jpg,50.0,GW/dustpan.jpg,GW/basket.jpg,1.0,GW/basket.jpg,Four Edge Diff,Two Edge Six Edge,6679dc943f855ba978447c25,old
1890.600000023842,shortestpath_phase,GW/dustpan.jpg,50.0,GW/snail.jpg,GW/paint.jpg,1.0,GW/paint.jpg,One Edge Diff,Four Edge Five Edge,6679dc943f855ba978447c25,old
1771.0999999046326,shortestpath_phase,GW/hat.jpg,49.0,GW/basket.jpg,GW/gong.jpg,1.0,GW/basket.jpg,Two Edge Diff,Four Edge Six Edge,6679dc943f855ba978447c25,old
2416.6999999284744,shortestpath_phase,GW/globe.jpg,49.0,GW/barrel.jpg,GW/camera.jpg,1.0,GW/barrel.jpg,Three Edge Diff,Two Edge Five Edge,6679dc943f855ba978447c25,old
2977.7000000476837,shortestpath_phase,GW/dustpan.jpg,49.0,GW/basket.jpg,GW/gong.jpg,1.0,GW/basket.jpg,One Edge Diff,Five Edge Six Edge,6679dc943f855ba978447c25,old
2592.100000023842,shortestpath_phase,GW/globe.jpg,50.0,GW/jukebox.jpg,GW/wheelchair.jpg,1.0,GW/wheelchair.jpg,One Edge Diff,Three Edge Four Edge,6679dc943f855ba978447c25,old
4494.200000047684,shortestpath_phase,GW/hat.jpg,50.0,GW/globe.jpg,GW/dustpan.jpg,1.0,GW/dustpan.jpg,Two Edge Diff,Three Edge Five Edge,6679dc943f855ba978447c25,old
2551.7999999523163,shortestpath_phase,GW/basket.jpg,49.0,GW/dustpan.jpg,GW/wheelchair.jpg,0.0,GW/wheelchair.jpg,Three Edge Diff,Three Edge Six Edge,6679dc943f855ba978447c25,old
5840.800000071526,shortestpath_phase,GW/globe.jpg,50.0,GW/jukebox.jpg,GW/teeth.jpg,1.0,GW/teeth.jpg,One Edge Diff,Three Edge Four Edge,6679dc943f855ba978447c25,old
1666.7999999523165,shortestpath_phase,GW/dustpan.jpg,49.0,GW/snail.jpg,GW/wheelchair.jpg,0.0,GW/wheelchair.jpg,Two Edge Diff,Three Edge Five Edge,6679dc943f855ba978447c25,old
4393.399999976158,shortestpath_phase,GW/hat.jpg,50.0,GW/globe.jpg,GW/gong.jpg,0.0,GW/globe.jpg,One Edge Diff,Five Edge Six Edge,6679dc943f855ba978447c25,old
2156.2000000476837,shortestpath_phase,GW/basket.jpg,49.0,GW/hat.jpg,GW/gong.jpg,0.0,GW/gong.jpg,Two Edge Diff,Two Edge Four Edge,6679dc943f855ba978447c25,old
3041.7999999523163,shortestpath_phase,GW/hat.jpg,50.0,GW/camera.jpg,GW/gong.jpg,0.0,GW/camera.jpg,Four Edge Diff,Two Edge Six Edge,6679dc943f855ba978447c25,old
3534.7999999523163,shortestpath_phase,GW/gong.jpg,50.0,GW/hat.jpg,GW/paint.jpg,1.0,GW/paint.jpg,Four Edge Diff,Two Edge Six Edge,6679dc943f855ba978447c25,old
2372.399999976158,shortestpath_phase,GW/basket.jpg,49.0,GW/teeth.jpg,GW/dustpan.jpg,1.0,GW/teeth.jpg,Three Edge Diff,Two Edge Five Edge,6679dc943f855ba978447c25,old
4017.200000047684,shortestpath_phase,GW/camera.jpg,49.0,GW/gong.jpg,GW/paint.jpg,0.0,GW/paint.jpg,Two Edge Diff,Three Edge Five Edge,6679dc943f855ba978447c25,old
2677.1999999284744,shortestpath_phase,GW/globe.jpg,49.0,GW/soldier.jpg,GW/teeth.jpg,0.0,GW/teeth.jpg,One Edge Diff,Three Edge Four Edge,6679dc943f855ba978447c25,old
2733.3000000715256,shortestpath_phase,GW/hat.jpg,49.0,GW/basket.jpg,GW/wheelchair.jpg,0.0,GW/wheelchair.jpg,One Edge Diff,Three Edge Four Edge,6679dc943f855ba978447c25,old
2105.8000000715256,shortestpath_phase,GW/globe.jpg,50.0,GW/soldier.jpg,GW/hat.jpg,0.0,GW/soldier.jpg,One Edge Diff,Four Edge Five Edge,6679dc943f855ba978447c25,old
1858.2999999523165,shortestpath_phase,GW/dustpan.jpg,49.0,GW/snail.jpg,GW/gong.jpg,1.0,GW/snail.jpg,One Edge Diff,Five Edge Six Edge,6679dc943f855ba978447c25,old
2845.7000000476837,shortestpath_phase,GW/gong.jpg,49.0,GW/camera.jpg,GW/soldier.jpg,0.0,GW/soldier.jpg,One Edge Diff,Four Edge Five Edge,6679dc943f855ba978447c25,old
2967.7000000476837,shortestpath_phase,GW/camera.jpg,50.0,GW/basket.jpg,GW/globe.jpg,0.0,GW/basket.jpg,One Edge Diff,Four Edge Five Edge,6679dc943f855ba978447c25,old
4104.399999976158,shortestpath_phase,GW/soldier.jpg,49.0,GW/snail.jpg,GW/globe.jpg,1.0,GW/snail.jpg,One Edge Diff,Three Edge Four Edge,6679dc943f855ba978447c25,old
1977.3000000715256,shortestpath_phase,GW/globe.jpg,50.0,GW/gong.jpg,GW/hat.jpg,0.0,GW/gong.jpg,Two Edge Diff,Three Edge Five Edge,6679dc943f855ba978447c25,old
1662.899999976158,shortestpath_phase,GW/hat.jpg,50.0,GW/camera.jpg,GW/dustpan.jpg,0.0,GW/camera.jpg,One Edge Diff,Two Edge Three Edge,6679dc943f855ba978447c25,old
1528.6999999284744,shortestpath_phase,GW/dustpan.jpg,50.0,GW/jukebox.jpg,GW/snail.jpg,0.0,GW/jukebox.jpg,Three Edge Diff,Three Edge Six Edge,6679dc943f855ba978447c25,old
3568.0,shortestpath_phase,GW/hat.jpg,50.0,GW/snail.jpg,GW/teeth.jpg,1.0,GW/teeth.jpg,Three Edge Diff,Two Edge Five Edge,6679dc943f855ba978447c25,old
4317.5,shortestpath_phase,GW/dustpan.jpg,49.0,GW/globe.jpg,GW/jukebox.jpg,0.0,GW/jukebox.jpg,Four Edge Diff,Two Edge Six Edge,6679dc943f855ba978447c25,old
2957.400000095367,shortestpath_phase,GW/hat.jpg,49.0,GW/globe.jpg,GW/soldier.jpg,0.0,GW/soldier.jpg,Three Edge Diff,Two Edge Five Edge,6679dc943f855ba978447c25,old
3964.1999999284744,shortestpath_phase,GW/gong.jpg,50.0,GW/camera.jpg,GW/barrel.jpg,1.0,GW/barrel.jpg,Two Edge Diff,Three Edge Five Edge,6679dc943f855ba978447c25,old
3866.1999999284744,shortestpath_phase,GW/globe.jpg,50.0,GW/dustpan.jpg,GW/hat.jpg,1.0,GW/hat.jpg,One Edge Diff,Five Edge Six Edge,6679dc943f855ba978447c25,old
2822.2000000476837,shortestpath_phase,GW/gong.jpg,49.0,GW/wheelchair.jpg,GW/jukebox.jpg,1.0,GW/wheelchair.jpg,Two Edge Diff,Three Edge Five Edge,6679dc943f855ba978447c25,old
2247.899999976158,shortestpath_phase,GW/camera.jpg,49.0,GW/globe.jpg,GW/hat.jpg,0.0,GW/hat.jpg,Three Edge Diff,Two Edge Five Edge,6679dc943f855ba978447c25,old
2858.399999976158,shortestpath_phase,GW/gong.jpg,49.0,GW/paint.jpg,GW/jukebox.jpg,1.0,GW/paint.jpg,Three Edge Diff,Three Edge Six Edge,6679dc943f855ba978447c25,old
2321.600000023842,shortestpath_phase,GW/teeth.jpg,49.0,GW/wheelchair.jpg,GW/snail.jpg,1.0,GW/wheelchair.jpg,One Edge Diff,Two Edge Three Edge,6679dc943f855ba978447c25,old
2322.2999999523163,shortestpath_phase,GW/gong.jpg,50.0,GW/dustpan.jpg,GW/soldier.jpg,1.0,GW/soldier.jpg,Two Edge Diff,Four Edge Six Edge,6679dc943f855ba978447c25,old
2458.0,shortestpath_phase,GW/hat.jpg,49.0,GW/basket.jpg,GW/dustpan.jpg,0.0,GW/dustpan.jpg,One Edge Diff,Three Edge Four Edge,6679dc943f855ba978447c25,old
3049.100000023842,shortestpath_phase,GW/gong.jpg,49.0,GW/teeth.jpg,GW/hat.jpg,1.0,GW/teeth.jpg,Two Edge Diff,Four Edge Six Edge,6679dc943f855ba978447c25,old
1516.1999999284744,shortestpath_phase,GW/dustpan.jpg,50.0,GW/globe.jpg,GW/snail.jpg,1.0,GW/snail.jpg,One Edge Diff,Five Edge Six Edge,6679dc943f855ba978447c25,old
1268.2999999523165,shortestpath_phase,GW/paint.jpg,49.0,GW/dustpan.jpg,GW/gong.jpg,0.0,GW/gong.jpg,Two Edge Diff,Two Edge Four Edge,6679dc943f855ba978447c25,old
3123.5,shortestpath_phase,GW/wheelchair.jpg,49.0,GW/camera.jpg,GW/globe.jpg,1.0,GW/camera.jpg,One Edge Diff,Two Edge Three Edge,6679dc943f855ba978447c25,old
2427.400000095367,shortestpath_phase,GW/gong.jpg,50.0,GW/globe.jpg,GW/basket.jpg,1.0,GW/basket.jpg,One Edge Diff,Two Edge Three Edge,6679dc943f855ba978447c25,old
1679.0,shortestpath_phase,GW/hat.jpg,50.0,GW/teeth.jpg,GW/snail.jpg,0.0,GW/teeth.jpg,Three Edge Diff,Three Edge Six Edge,6679dc943f855ba978447c25,old
2273.399999976158,shortestpath_phase,GW/gong.jpg,49.0,GW/paint.jpg,GW/dustpan.jpg,1.0,GW/paint.jpg,Four Edge Diff,Two Edge Six Edge,6679dc943f855ba978447c25,old
3172.099999904633,shortestpath_phase,GW/globe.jpg,49.0,GW/soldier.jpg,GW/snail.jpg,0.0,GW/snail.jpg,Two Edge Diff,Two Edge Four Edge,6679dc943f855ba978447c25,old
2893.2000000476837,shortestpath_phase,GW/dustpan.jpg,49.0,GW/barrel.jpg,GW/jukebox.jpg,0.0,GW/jukebox.jpg,Two Edge Diff,Two Edge Four Edge,6679dc943f855ba978447c25,old
1769.6999999284744,shortestpath_phase,GW/hat.jpg,50.0,GW/gong.jpg,GW/soldier.jpg,1.0,GW/soldier.jpg,Four Edge Diff,Two Edge Six Edge,6679dc943f855ba978447c25,old
1855.100000023842,shortestpath_phase,GW/camera.jpg,49.0,GW/teeth.jpg,GW/globe.jpg,1.0,GW/teeth.jpg,Three Edge Diff,Three Edge Six Edge,6679dc943f855ba978447c25,old
3461.7000000476837,shortestpath_phase,GW/paint.jpg,50.0,GW/globe.jpg,GW/hat.jpg,0.0,GW/globe.jpg,One Edge Diff,Three Edge Four Edge,6679dc943f855ba978447c25,old
2690.599999904633,shortestpath_phase,GW/hat.jpg,49.0,GW/barrel.jpg,GW/snail.jpg,1.0,GW/barrel.jpg,Two Edge Diff,Three Edge Five Edge,6679dc943f855ba978447c25,old
1792.899999976158,shortestpath_phase,GW/globe.jpg,50.0,GW/dustpan.jpg,GW/soldier.jpg,1.0,GW/soldier.jpg,Two Edge Diff,Four Edge Six Edge,6679dc943f855ba978447c25,old
5072.299999952316,shortestpath_phase,GW/hat.jpg,50.0,GW/globe.jpg,GW/paint.jpg,1.0,GW/paint.jpg,One Edge Diff,Four Edge Five Edge,6679dc943f855ba978447c25,old
2221.2999999523163,shortestpath_phase,GW/dustpan.jpg,50.0,GW/soldier.jpg,GW/barrel.jpg,0.0,GW/soldier.jpg,Two Edge Diff,Two Edge Four Edge,6679dc943f855ba978447c25,old
3191.0,shortestpath_phase,GW/gong.jpg,49.0,GW/hat.jpg,GW/jukebox.jpg,0.0,GW/jukebox.jpg,One Edge Diff,Five Edge Six Edge,6679dc943f855ba978447c25,old
2380.1999999284744,shortestpath_phase,GW/soldier.jpg,50.0,GW/basket.jpg,GW/globe.jpg,0.0,GW/basket.jpg,One Edge Diff,Three Edge Four Edge,6679dc943f855ba978447c25,old
1937.3000000715256,shortestpath_phase,GW/dustpan.jpg,49.0,GW/gong.jpg,GW/jukebox.jpg,0.0,GW/jukebox.jpg,Four Edge Diff,Two Edge Six Edge,6679dc943f855ba978447c25,old
1829.399999976158,shortestpath_phase,GW/gong.jpg,50.0,GW/jukebox.jpg,GW/soldier.jpg,1.0,GW/soldier.jpg,One Edge Diff,Four Edge Five Edge,6679dc943f855ba978447c25,old
2771.1999999284744,shortestpath_phase,GW/dustpan.jpg,49.0,GW/paint.jpg,GW/basket.jpg,1.0,GW/paint.jpg,One Edge Diff,Four Edge Five Edge,6679dc943f855ba978447c25,old
4926.0,shortestpath_phase,GW/gong.jpg,50.0,GW/basket.jpg,GW/hat.jpg,0.0,GW/basket.jpg,Four Edge Diff,Two Edge Six Edge,6679dc943f855ba978447c25,old
2499.2999999523163,shortestpath_phase,GW/hat.jpg,49.0,GW/gong.jpg,GW/paint.jpg,0.0,GW/paint.jpg,Two Edge Diff,Four Edge Six Edge,6679dc943f855ba978447c25,old
3832.700000047684,shortestpath_phase,GW/dustpan.jpg,49.0,GW/barrel.jpg,GW/globe.jpg,1.0,GW/barrel.jpg,Two Edge Diff,Four Edge Six Edge,6679dc943f855ba978447c25,old
3137.600000023842,shortestpath_phase,GW/gong.jpg,49.0,GW/teeth.jpg,GW/camera.jpg,1.0,GW/teeth.jpg,One Edge Diff,Four Edge Five Edge,6679dc943f855ba978447c25,old
1776.0999999046326,shortestpath_phase,GW/dustpan.jpg,49.0,GW/basket.jpg,GW/jukebox.jpg,0.0,GW/jukebox.jpg,Three Edge Diff,Three Edge Six Edge,6679dc943f855ba978447c25,old
3741.3000000715256,shortestpath_phase,GW/snail.jpg,50.0,GW/teeth.jpg,GW/dustpan.jpg,0.0,GW/teeth.jpg,Two Edge Diff,Three Edge Five Edge,6679dc943f855ba978447c25,old
1823.399999976158,shortestpath_phase,GW/gong.jpg,50.0,GW/hat.jpg,GW/camera.jpg,1.0,GW/camera.jpg,One Edge Diff,Five Edge Six Edge,6679dc943f855ba978447c25,old
3521.2000000476837,shortestpath_phase,GW/hat.jpg,50.0,GW/gong.jpg,GW/teeth.jpg,1.0,GW/teeth.jpg,Four Edge Diff,Two Edge Six Edge,6679dc943f855ba978447c25,old
2941.5,shortestpath_phase,GW/globe.jpg,49.0,GW/hat.jpg,GW/barrel.jpg,0.0,GW/barrel.jpg,Three Edge Diff,Two Edge Five Edge,6679dc943f855ba978447c25,old
3744.6999999284744,shortestpath_phase,GW/gong.jpg,49.0,GW/hat.jpg,GW/soldier.jpg,0.0,GW/soldier.jpg,Two Edge Diff,Four Edge Six Edge,6679dc943f855ba978447c25,old
1694.399999976158,shortestpath_phase,GW/snail.jpg,50.0,GW/barrel.jpg,GW/dustpan.jpg,0.0,GW/barrel.jpg,Three Edge Diff,Three Edge Six Edge,6679dc943f855ba978447c25,old
2496.600000023842,shortestpath_phase,GW/hat.jpg,49.0,GW/teeth.jpg,GW/globe.jpg,1.0,GW/teeth.jpg,Three Edge Diff,Two Edge Five Edge,6679dc943f855ba978447c25,old
1488.2999999523165,shortestpath_phase,GW/paint.jpg,50.0,GW/barrel.jpg,GW/dustpan.jpg,0.0,GW/barrel.jpg,Two Edge Diff,Two Edge Four Edge,6679dc943f855ba978447c25,old
3102.899999976158,shortestpath_phase,GW/teeth.jpg,49.0,GW/paint.jpg,GW/basket.jpg,0.0,GW/basket.jpg,One Edge Diff,Two Edge Three Edge,6679dc943f855ba978447c25,old
3459.3000000715256,shortestpath_phase,GW/gong.jpg,49.0,GW/globe.jpg,GW/teeth.jpg,1.0,GW/globe.jpg,One Edge Diff,Three Edge Four Edge,6679dc943f855ba978447c25,old
1934.2000000476835,shortestpath_phase,GW/soldier.jpg,49.0,GW/hat.jpg,GW/gong.jpg,1.0,GW/hat.jpg,Two Edge Diff,Two Edge Four Edge,6679dc943f855ba978447c25,old
1767.2999999523165,shortestpath_phase,GW/dustpan.jpg,49.0,GW/basket.jpg,GW/globe.jpg,1.0,GW/basket.jpg,One Edge Diff,Five Edge Six Edge,6679dc943f855ba978447c25,old
3160.3000000715256,shortestpath_phase,GW/gong.jpg,50.0,GW/paint.jpg,GW/camera.jpg,0.0,GW/paint.jpg,Three Edge Diff,Two Edge Five Edge,6679dc943f855ba978447c25,old
1793.2999999523165,shortestpath_phase,GW/dustpan.jpg,49.0,GW/soldier.jpg,GW/globe.jpg,1.0,GW/soldier.jpg,Four Edge Diff,Two Edge Six Edge,6679dc943f855ba978447c25,old
4251.899999976158,shortestpath_phase,GW/basket.jpg,50.0,GW/wheelchair.jpg,GW/dustpan.jpg,0.0,GW/wheelchair.jpg,Three Edge Diff,Two Edge Five Edge,6679dc943f855ba978447c25,old
3112.899999976158,shortestpath_phase,GW/gong.jpg,49.0,GW/jukebox.jpg,GW/dustpan.jpg,1.0,GW/jukebox.jpg,One Edge Diff,Five Edge Six Edge,6679dc943f855ba978447c25,old
1302.2999999523165,shortestpath_phase,GW/hat.jpg,49.0,GW/soldier.jpg,GW/globe.jpg,1.0,GW/soldier.jpg,Three Edge Diff,Three Edge Six Edge,6679dc943f855ba978447c25,old
2634.899999976158,shortestpath_phase,GW/globe.jpg,49.0,GW/wheelchair.jpg,GW/snail.jpg,0.0,GW/snail.jpg,One Edge Diff,Two Edge Three Edge,6679dc943f855ba978447c25,old
2398.399999976158,shortestpath_phase,GW/hat.jpg,49.0,GW/basket.jpg,GW/snail.jpg,1.0,GW/basket.jpg,One Edge Diff,Four Edge Five Edge,6679dc943f855ba978447c25,old
1644.1999999284744,shortestpath_phase,GW/gong.jpg,50.0,GW/dustpan.jpg,GW/camera.jpg,1.0,GW/camera.jpg,One Edge Diff,Five Edge Six Edge,6679dc943f855ba978447c25,old
1483.5,shortestpath_phase,GW/dustpan.jpg,49.0,GW/paint.jpg,GW/globe.jpg,1.0,GW/paint.jpg,Two Edge Diff,Four Edge Six Edge,6679dc943f855ba978447c25,old
2313.2999999523163,shortestpath_phase,GW/gong.jpg,49.0,GW/jukebox.jpg,GW/basket.jpg,0.0,GW/basket.jpg,Three Edge Diff,Three Edge Six Edge,6679dc943f855ba978447c25,old
2583.100000023842,shortestpath_phase,GW/globe.jpg,49.0,GW/hat.jpg,GW/wheelchair.jpg,0.0,GW/wheelchair.jpg,Two Edge Diff,Three Edge Five Edge,6679dc943f855ba978447c25,old
1884.7000000476835,shortestpath_phase,GW/hat.jpg,50.0,GW/snail.jpg,GW/soldier.jpg,1.0,GW/soldier.jpg,Three Edge Diff,Two Edge Five Edge,6679dc943f855ba978447c25,old
2854.600000023842,shortestpath_phase,GW/globe.jpg,49.0,GW/dustpan.jpg,GW/barrel.jpg,0.0,GW/barrel.jpg,Four Edge Diff,Two Edge Six Edge,6679dc943f855ba978447c25,old
2323.0,shortestpath_phase,GW/camera.jpg,50.0,GW/paint.jpg,GW/globe.jpg,0.0,GW/paint.jpg,Two Edge Diff,Three Edge Five Edge,6679dc943f855ba978447c25,old
3737.299999952316,shortestpath_phase,GW/jukebox.jpg,49.0,GW/gong.jpg,GW/snail.jpg,0.0,GW/snail.jpg,One Edge Diff,Four Edge Five Edge,6679dc943f855ba978447c25,old
3197.0,shortestpath_phase,GW/globe.jpg,50.0,GW/dustpan.jpg,GW/camera.jpg,1.0,GW/camera.jpg,One Edge Diff,Five Edge Six Edge,6679dc943f855ba978447c25,old
1629.600000023842,shortestpath_phase,GW/hat.jpg,49.0,GW/snail.jpg,GW/gong.jpg,1.0,GW/snail.jpg,One Edge Diff,Five Edge Six Edge,6679dc943f855ba978447c25,old
2433.2000000476837,shortestpath_phase,GW/teeth.jpg,49.0,GW/camera.jpg,GW/gong.jpg,1.0,GW/camera.jpg,Two Edge Diff,Two Edge Four Edge,6679dc943f855ba978447c25,old
1605.399999976158,shortestpath_phase,GW/jukebox.jpg,49.0,GW/gong.jpg,GW/barrel.jpg,0.0,GW/barrel.jpg,Three Edge Diff,Two Edge Five Edge,6679dc943f855ba978447c25,old
2088.7999999523163,shortestpath_phase,GW/gong.jpg,49.0,GW/teeth.jpg,GW/basket.jpg,0.0,GW/basket.jpg,Two Edge Diff,Two Edge Four Edge,6679dc943f855ba978447c25,old
3697.5,shortestpath_phase,GW/globe.jpg,49.0,GW/paint.jpg,GW/jukebox.jpg,1.0,GW/paint.jpg,One Edge Diff,Three Edge Four Edge,6679dc943f855ba978447c25,old
2362.900000095367,shortestpath_phase,GW/basket.jpg,50.0,GW/gong.jpg,GW/dustpan.jpg,0.0,GW/gong.jpg,Three Edge Diff,Three Edge Six Edge,6679dc943f855ba978447c25,old
2401.800000011921,shortestpath_phase,GW/jukebox.jpg,49.0,GW/globe.jpg,GW/soldier.jpg,0.0,GW/soldier.jpg,Four Edge Diff,Two Edge Six Edge,66a02d45a7db35d93c9f6a81,young
2439.800000011921,shortestpath_phase,GW/hat.jpg,50.0,GW/globe.jpg,GW/teeth.jpg,1.0,GW/teeth.jpg,Three Edge Diff,Three Edge Six Edge,66a02d45a7db35d93c9f6a81,young
2147.199999988079,shortestpath_phase,GW/camera.jpg,49.0,GW/hat.jpg,GW/soldier.jpg,0.0,GW/soldier.jpg,One Edge Diff,Four Edge Five Edge,66a02d45a7db35d93c9f6a81,young
1841.899999976158,shortestpath_phase,GW/jukebox.jpg,50.0,GW/paint.jpg,GW/teeth.jpg,1.0,GW/teeth.jpg,One Edge Diff,Three Edge Four Edge,66a02d45a7db35d93c9f6a81,young
1735.2999999821186,shortestpath_phase,GW/wheelchair.jpg,49.0,GW/camera.jpg,GW/gong.jpg,0.0,GW/gong.jpg,One Edge Diff,Three Edge Four Edge,66a02d45a7db35d93c9f6a81,young
2492.7000000178814,shortestpath_phase,GW/barrel.jpg,49.0,GW/globe.jpg,GW/basket.jpg,0.0,GW/basket.jpg,Two Edge Diff,Two Edge Four Edge,66a02d45a7db35d93c9f6a81,young
1661.5999999940395,shortestpath_phase,GW/teeth.jpg,50.0,GW/globe.jpg,GW/gong.jpg,1.0,GW/gong.jpg,Two Edge Diff,Four Edge Six Edge,66a02d45a7db35d93c9f6a81,young
2202.5,shortestpath_phase,GW/globe.jpg,49.0,GW/teeth.jpg,GW/hat.jpg,0.0,GW/hat.jpg,One Edge Diff,Five Edge Six Edge,66a02d45a7db35d93c9f6a81,young
2503.7000000178814,shortestpath_phase,GW/camera.jpg,49.0,GW/teeth.jpg,GW/paint.jpg,0.0,GW/paint.jpg,Three Edge Diff,Two Edge Five Edge,66a02d45a7db35d93c9f6a81,young
1888.399999976158,shortestpath_phase,GW/hat.jpg,49.0,GW/globe.jpg,GW/barrel.jpg,0.0,GW/barrel.jpg,Three Edge Diff,Two Edge Five Edge,66a02d45a7db35d93c9f6a81,young
1241.5999999940395,shortestpath_phase,GW/globe.jpg,50.0,GW/gong.jpg,GW/teeth.jpg,0.0,GW/gong.jpg,Four Edge Diff,Two Edge Six Edge,66a02d45a7db35d93c9f6a81,young
1378.199999988079,shortestpath_phase,GW/hat.jpg,49.0,GW/dustpan.jpg,GW/snail.jpg,1.0,GW/dustpan.jpg,Two Edge Diff,Two Edge Four Edge,66a02d45a7db35d93c9f6a81,young
1062.0,shortestpath_phase,GW/globe.jpg,49.0,GW/basket.jpg,GW/soldier.jpg,1.0,GW/basket.jpg,Two Edge Diff,Two Edge Four Edge,66a02d45a7db35d93c9f6a81,young
1196.300000011921,shortestpath_phase,GW/hat.jpg,49.0,GW/snail.jpg,GW/camera.jpg,1.0,GW/snail.jpg,One Edge Diff,Four Edge Five Edge,66a02d45a7db35d93c9f6a81,young
1441.9000000059605,shortestpath_phase,GW/globe.jpg,50.0,GW/teeth.jpg,GW/wheelchair.jpg,1.0,GW/wheelchair.jpg,One Edge Diff,Five Edge Six Edge,66a02d45a7db35d93c9f6a81,young
1771.2999999821186,shortestpath_phase,GW/camera.jpg,50.0,GW/jukebox.jpg,GW/hat.jpg,1.0,GW/hat.jpg,One Edge Diff,Five Edge Six Edge,66a02d45a7db35d93c9f6a81,young
1158.0999999940395,shortestpath_phase,GW/wheelchair.jpg,49.0,GW/jukebox.jpg,GW/globe.jpg,1.0,GW/jukebox.jpg,Three Edge Diff,Three Edge Six Edge,66a02d45a7db35d93c9f6a81,young
1634.5999999940395,shortestpath_phase,GW/globe.jpg,49.0,GW/hat.jpg,GW/camera.jpg,0.0,GW/camera.jpg,Two Edge Diff,Three Edge Five Edge,66a02d45a7db35d93c9f6a81,young
1284.2999999821186,shortestpath_phase,GW/wheelchair.jpg,50.0,GW/camera.jpg,GW/paint.jpg,1.0,GW/paint.jpg,Two Edge Diff,Two Edge Four Edge,66a02d45a7db35d93c9f6a81,young
1685.5999999940395,shortestpath_phase,GW/globe.jpg,50.0,GW/hat.jpg,GW/dustpan.jpg,1.0,GW/dustpan.jpg,Two Edge Diff,Three Edge Five Edge,66a02d45a7db35d93c9f6a81,young
1953.4000000059605,shortestpath_phase,GW/hat.jpg,50.0,GW/camera.jpg,GW/barrel.jpg,1.0,GW/barrel.jpg,Three Edge Diff,Two Edge Five Edge,66a02d45a7db35d93c9f6a81,young
1415.5999999940395,shortestpath_phase,GW/snail.jpg,49.0,GW/teeth.jpg,GW/paint.jpg,0.0,GW/paint.jpg,Three Edge Diff,Two Edge Five Edge,66a02d45a7db35d93c9f6a81,young
1647.0,shortestpath_phase,GW/hat.jpg,50.0,GW/camera.jpg,GW/gong.jpg,1.0,GW/gong.jpg,Two Edge Diff,Three Edge Five Edge,66a02d45a7db35d93c9f6a81,young
1526.7999999821186,shortestpath_phase,GW/jukebox.jpg,49.0,GW/barrel.jpg,GW/basket.jpg,1.0,GW/barrel.jpg,Two Edge Diff,Three Edge Five Edge,66a02d45a7db35d93c9f6a81,young
668.0999999940395,shortestpath_phase,GW/hat.jpg,49.0,GW/globe.jpg,GW/snail.jpg,0.0,GW/snail.jpg,One Edge Diff,Four Edge Five Edge,66a02d45a7db35d93c9f6a81,young
659.5,shortestpath_phase,GW/teeth.jpg,49.0,GW/jukebox.jpg,GW/snail.jpg,1.0,GW/jukebox.jpg,Two Edge Diff,Three Edge Five Edge,66a02d45a7db35d93c9f6a81,young
1046.4000000059605,shortestpath_phase,GW/soldier.jpg,49.0,GW/camera.jpg,GW/wheelchair.jpg,0.0,GW/wheelchair.jpg,Two Edge Diff,Two Edge Four Edge,66a02d45a7db35d93c9f6a81,young
1216.300000011921,shortestpath_phase,GW/jukebox.jpg,49.0,GW/globe.jpg,GW/paint.jpg,0.0,GW/paint.jpg,Two Edge Diff,Four Edge Six Edge,66a02d45a7db35d93c9f6a81,young
1086.2999999821186,shortestpath_phase,GW/basket.jpg,49.0,GW/hat.jpg,GW/wheelchair.jpg,0.0,GW/wheelchair.jpg,One Edge Diff,Three Edge Four Edge,66a02d45a7db35d93c9f6a81,young
629.7999999821186,shortestpath_phase,GW/jukebox.jpg,49.0,GW/basket.jpg,GW/soldier.jpg,0.0,GW/soldier.jpg,Three Edge Diff,Two Edge Five Edge,66a02d45a7db35d93c9f6a81,young
882.5,shortestpath_phase,GW/globe.jpg,50.0,GW/jukebox.jpg,GW/wheelchair.jpg,1.0,GW/wheelchair.jpg,One Edge Diff,Five Edge Six Edge,66a02d45a7db35d93c9f6a81,young
765.6000000238419,shortestpath_phase,GW/jukebox.jpg,49.0,GW/basket.jpg,GW/camera.jpg,1.0,GW/basket.jpg,One Edge Diff,Five Edge Six Edge,66a02d45a7db35d93c9f6a81,young
657.4000000059605,shortestpath_phase,GW/camera.jpg,49.0,GW/dustpan.jpg,GW/teeth.jpg,1.0,GW/dustpan.jpg,Two Edge Diff,Three Edge Five Edge,66a02d45a7db35d93c9f6a81,young
1259.7000000178814,shortestpath_phase,GW/teeth.jpg,50.0,GW/barrel.jpg,GW/globe.jpg,0.0,GW/barrel.jpg,Four Edge Diff,Two Edge Six Edge,66a02d45a7db35d93c9f6a81,young
710.0999999940395,shortestpath_phase,GW/globe.jpg,49.0,GW/teeth.jpg,GW/basket.jpg,0.0,GW/basket.jpg,Four Edge Diff,Two Edge Six Edge,66a02d45a7db35d93c9f6a81,young
1412.800000011921,shortestpath_phase,GW/soldier.jpg,49.0,GW/barrel.jpg,GW/snail.jpg,1.0,GW/barrel.jpg,One Edge Diff,Two Edge Three Edge,66a02d45a7db35d93c9f6a81,young
1044.300000011921,shortestpath_phase,GW/jukebox.jpg,49.0,GW/globe.jpg,GW/basket.jpg,0.0,GW/basket.jpg,One Edge Diff,Five Edge Six Edge,66a02d45a7db35d93c9f6a81,young
1016.7000000178814,shortestpath_phase,GW/wheelchair.jpg,49.0,GW/soldier.jpg,GW/snail.jpg,1.0,GW/soldier.jpg,Two Edge Diff,Two Edge Four Edge,66a02d45a7db35d93c9f6a81,young
1272.0,shortestpath_phase,GW/jukebox.jpg,49.0,GW/snail.jpg,GW/globe.jpg,1.0,GW/snail.jpg,One Edge Diff,Five Edge Six Edge,66a02d45a7db35d93c9f6a81,young
1453.5,shortestpath_phase,GW/globe.jpg,50.0,GW/soldier.jpg,GW/teeth.jpg,0.0,GW/soldier.jpg,Two Edge Diff,Four Edge Six Edge,66a02d45a7db35d93c9f6a81,young
1037.800000011921,shortestpath_phase,GW/jukebox.jpg,49.0,GW/wheelchair.jpg,GW/basket.jpg,1.0,GW/wheelchair.jpg,Three Edge Diff,Two Edge Five Edge,66a02d45a7db35d93c9f6a81,young
2867.0,shortestpath_phase,GW/soldier.jpg,49.0,GW/globe.jpg,GW/paint.jpg,0.0,GW/paint.jpg,One Edge Diff,Three Edge Four Edge,66a02d45a7db35d93c9f6a81,young
1188.0999999940395,shortestpath_phase,GW/teeth.jpg,49.0,GW/camera.jpg,GW/globe.jpg,1.0,GW/camera.jpg,One Edge Diff,Five Edge Six Edge,66a02d45a7db35d93c9f6a81,young
1486.0,shortestpath_phase,GW/jukebox.jpg,50.0,GW/globe.jpg,GW/gong.jpg,1.0,GW/gong.jpg,Two Edge Diff,Four Edge Six Edge,66a02d45a7db35d93c9f6a81,young
912.0,shortestpath_phase,GW/camera.jpg,49.0,GW/teeth.jpg,GW/jukebox.jpg,1.0,GW/teeth.jpg,One Edge Diff,Five Edge Six Edge,66a02d45a7db35d93c9f6a81,young
1108.800000011921,shortestpath_phase,GW/snail.jpg,50.0,GW/dustpan.jpg,GW/barrel.jpg,0.0,GW/dustpan.jpg,One Edge Diff,Two Edge Three Edge,66a02d45a7db35d93c9f6a81,young
1695.0,shortestpath_phase,GW/camera.jpg,49.0,GW/soldier.jpg,GW/jukebox.jpg,1.0,GW/soldier.jpg,Two Edge Diff,Four Edge Six Edge,66a02d45a7db35d93c9f6a81,young
1021.2000000178814,shortestpath_phase,GW/wheelchair.jpg,50.0,GW/globe.jpg,GW/gong.jpg,1.0,GW/gong.jpg,Two Edge Diff,Three Edge Five Edge,66a02d45a7db35d93c9f6a81,young
961.6999999880792,shortestpath_phase,GW/globe.jpg,50.0,GW/wheelchair.jpg,GW/dustpan.jpg,1.0,GW/dustpan.jpg,Two Edge Diff,Three Edge Five Edge,66a02d45a7db35d93c9f6a81,young
564.7000000178814,shortestpath_phase,GW/camera.jpg,49.0,GW/hat.jpg,GW/gong.jpg,0.0,GW/gong.jpg,Three Edge Diff,Three Edge Six Edge,66a02d45a7db35d93c9f6a81,young
1495.899999976158,shortestpath_phase,GW/basket.jpg,50.0,GW/hat.jpg,GW/jukebox.jpg,0.0,GW/hat.jpg,One Edge Diff,Four Edge Five Edge,66a02d45a7db35d93c9f6a81,young
1165.600000023842,shortestpath_phase,GW/wheelchair.jpg,50.0,GW/snail.jpg,GW/gong.jpg,1.0,GW/gong.jpg,One Edge Diff,Three Edge Four Edge,66a02d45a7db35d93c9f6a81,young
1133.0999999940395,shortestpath_phase,GW/camera.jpg,49.0,GW/hat.jpg,GW/snail.jpg,0.0,GW/snail.jpg,Three Edge Diff,Two Edge Five Edge,66a02d45a7db35d93c9f6a81,young
917.0999999940396,shortestpath_phase,GW/teeth.jpg,50.0,GW/dustpan.jpg,GW/hat.jpg,1.0,GW/hat.jpg,One Edge Diff,Two Edge Three Edge,66a02d45a7db35d93c9f6a81,young
1619.7999999821186,shortestpath_phase,GW/camera.jpg,49.0,GW/gong.jpg,GW/jukebox.jpg,1.0,GW/gong.jpg,Four Edge Diff,Two Edge Six Edge,66a02d45a7db35d93c9f6a81,young
1896.5,shortestpath_phase,GW/snail.jpg,49.0,GW/jukebox.jpg,GW/dustpan.jpg,0.0,GW/dustpan.jpg,Three Edge Diff,Three Edge Six Edge,66a02d45a7db35d93c9f6a81,young
1215.699999988079,shortestpath_phase,GW/camera.jpg,50.0,GW/jukebox.jpg,GW/wheelchair.jpg,1.0,GW/wheelchair.jpg,Two Edge Diff,Four Edge Six Edge,66a02d45a7db35d93c9f6a81,young
1897.4000000059605,shortestpath_phase,GW/globe.jpg,49.0,GW/jukebox.jpg,GW/hat.jpg,0.0,GW/hat.jpg,One Edge Diff,Five Edge Six Edge,66a02d45a7db35d93c9f6a81,young
2748.199999988079,shortestpath_phase,GW/camera.jpg,50.0,GW/dustpan.jpg,GW/hat.jpg,0.0,GW/dustpan.jpg,Two Edge Diff,Three Edge Five Edge,66a02d45a7db35d93c9f6a81,young
2762.5,shortestpath_phase,GW/teeth.jpg,49.0,GW/hat.jpg,GW/globe.jpg,1.0,GW/hat.jpg,Four Edge Diff,Two Edge Six Edge,66a02d45a7db35d93c9f6a81,young
1377.9000000059605,shortestpath_phase,GW/jukebox.jpg,50.0,GW/paint.jpg,GW/camera.jpg,0.0,GW/paint.jpg,Two Edge Diff,Four Edge Six Edge,66a02d45a7db35d93c9f6a81,young
3744.5,shortestpath_phase,GW/teeth.jpg,50.0,GW/gong.jpg,GW/camera.jpg,0.0,GW/gong.jpg,One Edge Diff,Four Edge Five Edge,66a02d45a7db35d93c9f6a81,young
1090.600000023842,shortestpath_phase,GW/jukebox.jpg,50.0,GW/snail.jpg,GW/wheelchair.jpg,1.0,GW/wheelchair.jpg,Three Edge Diff,Three Edge Six Edge,66a02d45a7db35d93c9f6a81,young
1331.5999999940395,shortestpath_phase,GW/basket.jpg,50.0,GW/barrel.jpg,GW/jukebox.jpg,0.0,GW/barrel.jpg,Three Edge Diff,Three Edge Six Edge,66a02d45a7db35d93c9f6a81,young
879.3000000119209,shortestpath_phase,GW/camera.jpg,49.0,GW/gong.jpg,GW/teeth.jpg,1.0,GW/gong.jpg,Three Edge Diff,Two Edge Five Edge,66a02d45a7db35d93c9f6a81,young
1579.4000000059605,shortestpath_phase,GW/globe.jpg,49.0,GW/jukebox.jpg,GW/barrel.jpg,0.0,GW/barrel.jpg,Two Edge Diff,Four Edge Six Edge,66a02d45a7db35d93c9f6a81,young
1342.899999976158,shortestpath_phase,GW/jukebox.jpg,49.0,GW/camera.jpg,GW/gong.jpg,0.0,GW/gong.jpg,Two Edge Diff,Four Edge Six Edge,66a02d45a7db35d93c9f6a81,young
1650.0,shortestpath_phase,GW/soldier.jpg,49.0,GW/globe.jpg,GW/snail.jpg,0.0,GW/snail.jpg,One Edge Diff,Three Edge Four Edge,66a02d45a7db35d93c9f6a81,young
564.0999999940395,shortestpath_phase,GW/jukebox.jpg,49.0,GW/paint.jpg,GW/barrel.jpg,0.0,GW/barrel.jpg,One Edge Diff,Three Edge Four Edge,66a02d45a7db35d93c9f6a81,young
897.5,shortestpath_phase,GW/hat.jpg,50.0,GW/snail.jpg,GW/gong.jpg,1.0,GW/gong.jpg,One Edge Diff,Three Edge Four Edge,66a02d45a7db35d93c9f6a81,young
898.0,shortestpath_phase,GW/camera.jpg,50.0,GW/hat.jpg,GW/wheelchair.jpg,1.0,GW/wheelchair.jpg,One Edge Diff,Four Edge Five Edge,66a02d45a7db35d93c9f6a81,young
713.2999999821186,shortestpath_phase,GW/dustpan.jpg,49.0,GW/hat.jpg,GW/globe.jpg,1.0,GW/hat.jpg,One Edge Diff,Two Edge Three Edge,66a02d45a7db35d93c9f6a81,young
1180.9000000059605,shortestpath_phase,GW/globe.jpg,49.0,GW/gong.jpg,GW/jukebox.jpg,1.0,GW/gong.jpg,Four Edge Diff,Two Edge Six Edge,66a02d45a7db35d93c9f6a81,young
1047.0999999940395,shortestpath_phase,GW/teeth.jpg,49.0,GW/globe.jpg,GW/snail.jpg,0.0,GW/snail.jpg,One Edge Diff,Five Edge Six Edge,66a02d45a7db35d93c9f6a81,young
1938.5,shortestpath_phase,GW/basket.jpg,50.0,GW/jukebox.jpg,GW/globe.jpg,1.0,GW/globe.jpg,Three Edge Diff,Three Edge Six Edge,66a02d45a7db35d93c9f6a81,young
2749.5999999940395,shortestpath_phase,GW/camera.jpg,49.0,GW/paint.jpg,GW/jukebox.jpg,1.0,GW/paint.jpg,Four Edge Diff,Two Edge Six Edge,66a02d45a7db35d93c9f6a81,young
1358.0,shortestpath_phase,GW/basket.jpg,50.0,GW/soldier.jpg,GW/teeth.jpg,0.0,GW/soldier.jpg,One Edge Diff,Three Edge Four Edge,66a02d45a7db35d93c9f6a81,young
1080.0999999940395,shortestpath_phase,GW/teeth.jpg,49.0,GW/gong.jpg,GW/snail.jpg,1.0,GW/gong.jpg,One Edge Diff,Four Edge Five Edge,66a02d45a7db35d93c9f6a81,young
2064.300000011921,shortestpath_phase,GW/globe.jpg,50.0,GW/soldier.jpg,GW/wheelchair.jpg,0.0,GW/soldier.jpg,One Edge Diff,Four Edge Five Edge,66a02d45a7db35d93c9f6a81,young
941.0999999940396,shortestpath_phase,GW/basket.jpg,49.0,GW/barrel.jpg,GW/jukebox.jpg,1.0,GW/barrel.jpg,Three Edge Diff,Two Edge Five Edge,66a02d45a7db35d93c9f6a81,young
902.899999976158,shortestpath_phase,GW/globe.jpg,50.0,GW/soldier.jpg,GW/camera.jpg,1.0,GW/camera.jpg,One Edge Diff,Three Edge Four Edge,66a02d45a7db35d93c9f6a81,young
1474.2000000178814,shortestpath_phase,GW/hat.jpg,50.0,GW/basket.jpg,GW/camera.jpg,0.0,GW/basket.jpg,One Edge Diff,Four Edge Five Edge,66a02d45a7db35d93c9f6a81,young
929.7999999821186,shortestpath_phase,GW/snail.jpg,49.0,GW/camera.jpg,GW/jukebox.jpg,1.0,GW/camera.jpg,Three Edge Diff,Two Edge Five Edge,66a02d45a7db35d93c9f6a81,young
1367.699999988079,shortestpath_phase,GW/hat.jpg,49.0,GW/gong.jpg,GW/teeth.jpg,0.0,GW/teeth.jpg,One Edge Diff,Two Edge Three Edge,66a02d45a7db35d93c9f6a81,young
1916.0,shortestpath_phase,GW/globe.jpg,50.0,GW/basket.jpg,GW/wheelchair.jpg,0.0,GW/basket.jpg,Three Edge Diff,Three Edge Six Edge,66a02d45a7db35d93c9f6a81,young
1112.7999999821186,shortestpath_phase,GW/soldier.jpg,49.0,GW/teeth.jpg,GW/barrel.jpg,0.0,GW/barrel.jpg,One Edge Diff,Two Edge Three Edge,66a02d45a7db35d93c9f6a81,young
1146.7999999821186,shortestpath_phase,GW/teeth.jpg,49.0,GW/basket.jpg,GW/globe.jpg,1.0,GW/basket.jpg,Two Edge Diff,Four Edge Six Edge,66a02d45a7db35d93c9f6a81,young
960.899999976158,shortestpath_phase,GW/jukebox.jpg,50.0,GW/camera.jpg,GW/soldier.jpg,1.0,GW/soldier.jpg,Four Edge Diff,Two Edge Six Edge,66a02d45a7db35d93c9f6a81,young
1969.0999999940395,shortestpath_phase,GW/dustpan.jpg,49.0,GW/jukebox.jpg,GW/hat.jpg,0.0,GW/hat.jpg,One Edge Diff,Two Edge Three Edge,66a02d45a7db35d93c9f6a81,young
712.9000000059605,shortestpath_phase,GW/jukebox.jpg,49.0,GW/globe.jpg,GW/wheelchair.jpg,0.0,GW/wheelchair.jpg,Four Edge Diff,Two Edge Six Edge,66a02d45a7db35d93c9f6a81,young
547.9000000059605,shortestpath_phase,GW/teeth.jpg,49.0,GW/hat.jpg,GW/camera.jpg,1.0,GW/hat.jpg,Three Edge Diff,Three Edge Six Edge,66a02d45a7db35d93c9f6a81,young
805.5,shortestpath_phase,GW/paint.jpg,50.0,GW/wheelchair.jpg,GW/jukebox.jpg,0.0,GW/wheelchair.jpg,Two Edge Diff,Two Edge Four Edge,66a02d45a7db35d93c9f6a81,young
1088.600000023842,shortestpath_phase,GW/barrel.jpg,50.0,GW/hat.jpg,GW/globe.jpg,0.0,GW/hat.jpg,Two Edge Diff,Two Edge Four Edge,66a02d45a7db35d93c9f6a81,young
585.5999999940395,shortestpath_phase,GW/wheelchair.jpg,49.0,GW/paint.jpg,GW/globe.jpg,1.0,GW/paint.jpg,Three Edge Diff,Three Edge Six Edge,66a02d45a7db35d93c9f6a81,young
1037.4000000059605,shortestpath_phase,GW/camera.jpg,50.0,GW/jukebox.jpg,GW/snail.jpg,1.0,GW/snail.jpg,Four Edge Diff,Two Edge Six Edge,66a02d45a7db35d93c9f6a81,young
522.7000000178814,shortestpath_phase,GW/jukebox.jpg,49.0,GW/wheelchair.jpg,GW/basket.jpg,1.0,GW/wheelchair.jpg,Three Edge Diff,Three Edge Six Edge,66a02d45a7db35d93c9f6a81,young
781.0,shortestpath_phase,GW/dustpan.jpg,50.0,GW/camera.jpg,GW/snail.jpg,1.0,GW/snail.jpg,One Edge Diff,Two Edge Three Edge,66a02d45a7db35d93c9f6a81,young
898.5,shortestpath_phase,GW/wheelchair.jpg,49.0,GW/globe.jpg,GW/jukebox.jpg,0.0,GW/jukebox.jpg,Three Edge Diff,Two Edge Five Edge,66a02d45a7db35d93c9f6a81,young
701.4000000059605,shortestpath_phase,GW/teeth.jpg,50.0,GW/barrel.jpg,GW/camera.jpg,0.0,GW/barrel.jpg,Three Edge Diff,Two Edge Five Edge,66a02d45a7db35d93c9f6a81,young
566.9000000059605,shortestpath_phase,GW/snail.jpg,49.0,GW/jukebox.jpg,GW/wheelchair.jpg,0.0,GW/wheelchair.jpg,One Edge Diff,Four Edge Five Edge,66a02d45a7db35d93c9f6a81,young
1003.6999999880792,shortestpath_phase,GW/jukebox.jpg,50.0,GW/snail.jpg,GW/barrel.jpg,1.0,GW/barrel.jpg,Two Edge Diff,Three Edge Five Edge,66a02d45a7db35d93c9f6a81,young
693.0999999940395,shortestpath_phase,GW/globe.jpg,49.0,GW/jukebox.jpg,GW/basket.jpg,0.0,GW/basket.jpg,Four Edge Diff,Two Edge Six Edge,66a02d45a7db35d93c9f6a81,young
1166.4000000059605,shortestpath_phase,GW/jukebox.jpg,50.0,GW/camera.jpg,GW/wheelchair.jpg,1.0,GW/wheelchair.jpg,Four Edge Diff,Two Edge Six Edge,66a02d45a7db35d93c9f6a81,young
638.1999999880791,shortestpath_phase,GW/globe.jpg,49.0,GW/jukebox.jpg,GW/soldier.jpg,0.0,GW/soldier.jpg,Two Edge Diff,Four Edge Six Edge,66a02d45a7db35d93c9f6a81,young
776.0999999940395,shortestpath_phase,GW/jukebox.jpg,50.0,GW/snail.jpg,GW/camera.jpg,0.0,GW/snail.jpg,One Edge Diff,Five Edge Six Edge,66a02d45a7db35d93c9f6a81,young
2115.5999999940395,shortestpath_phase,GW/wheelchair.jpg,49.0,GW/camera.jpg,GW/soldier.jpg,0.0,GW/soldier.jpg,Two Edge Diff,Two Edge Four Edge,66a02d45a7db35d93c9f6a81,young
793.5,shortestpath_phase,GW/basket.jpg,50.0,GW/hat.jpg,GW/dustpan.jpg,1.0,GW/dustpan.jpg,Two Edge Diff,Two Edge Four Edge,66a02d45a7db35d93c9f6a81,young
619.3000000119209,shortestpath_phase,GW/jukebox.jpg,49.0,GW/teeth.jpg,GW/snail.jpg,1.0,GW/teeth.jpg,Two Edge Diff,Three Edge Five Edge,66a02d45a7db35d93c9f6a81,young
630.3999999761581,shortestpath_phase,GW/globe.jpg,50.0,GW/teeth.jpg,GW/barrel.jpg,1.0,GW/barrel.jpg,Two Edge Diff,Four Edge Six Edge,66a02d45a7db35d93c9f6a81,young
859.9000000059605,shortestpath_phase,GW/snail.jpg,50.0,GW/soldier.jpg,GW/dustpan.jpg,1.0,GW/dustpan.jpg,One Edge Diff,Two Edge Three Edge,66a02d45a7db35d93c9f6a81,young
916.5999999940396,shortestpath_phase,GW/soldier.jpg,50.0,GW/barrel.jpg,GW/paint.jpg,0.0,GW/barrel.jpg,One Edge Diff,Two Edge Three Edge,66a02d45a7db35d93c9f6a81,young
898.0,shortestpath_phase,GW/globe.jpg,49.0,GW/camera.jpg,GW/wheelchair.jpg,1.0,GW/camera.jpg,Two Edge Diff,Three Edge Five Edge,66a02d45a7db35d93c9f6a81,young
858.4000000059605,shortestpath_phase,GW/teeth.jpg,49.0,GW/hat.jpg,GW/snail.jpg,1.0,GW/hat.jpg,Three Edge Diff,Three Edge Six Edge,66a02d45a7db35d93c9f6a81,young
731.8000000119209,shortestpath_phase,GW/globe.jpg,50.0,GW/barrel.jpg,GW/wheelchair.jpg,0.0,GW/barrel.jpg,One Edge Diff,Four Edge Five Edge,66a02d45a7db35d93c9f6a81,young
684.7000000178814,shortestpath_phase,GW/teeth.jpg,50.0,GW/basket.jpg,GW/soldier.jpg,1.0,GW/soldier.jpg,One Edge Diff,Three Edge Four Edge,66a02d45a7db35d93c9f6a81,young
545.7999999821186,shortestpath_phase,GW/hat.jpg,49.0,GW/dustpan.jpg,GW/gong.jpg,1.0,GW/dustpan.jpg,One Edge Diff,Two Edge Three Edge,66a02d45a7db35d93c9f6a81,young
580.2999999821186,shortestpath_phase,GW/teeth.jpg,50.0,GW/basket.jpg,GW/jukebox.jpg,1.0,GW/jukebox.jpg,One Edge Diff,Three Edge Four Edge,66a02d45a7db35d93c9f6a81,young
489.5,shortestpath_phase,GW/snail.jpg,49.0,GW/wheelchair.jpg,GW/dustpan.jpg,0.0,GW/dustpan.jpg,Two Edge Diff,Two Edge Four Edge,66a02d45a7db35d93c9f6a81,young
1337.2999999821186,shortestpath_phase,GW/basket.jpg,49.0,GW/jukebox.jpg,GW/teeth.jpg,0.0,GW/teeth.jpg,One Edge Diff,Four Edge Five Edge,66a02d45a7db35d93c9f6a81,young
818.4000000059605,shortestpath_phase,GW/soldier.jpg,49.0,GW/basket.jpg,GW/jukebox.jpg,0.0,GW/jukebox.jpg,One Edge Diff,Two Edge Three Edge,66a02d45a7db35d93c9f6a81,young
895.7000000178814,shortestpath_phase,GW/paint.jpg,49.0,GW/jukebox.jpg,GW/snail.jpg,0.0,GW/snail.jpg,Two Edge Diff,Two Edge Four Edge,66a02d45a7db35d93c9f6a81,young
4228.199999809265,shortestpath_phase,GW/teeth.jpg,50.0,GW/globe.jpg,GW/wheelchair.jpg,1.0,GW/wheelchair.jpg,Two Edge Diff,Two Edge Four Edge,65c017a404cde4687fdad22e,old
3292.2999999523163,shortestpath_phase,GW/globe.jpg,49.0,GW/barrel.jpg,GW/hat.jpg,0.0,GW/hat.jpg,Four Edge Diff,Two Edge Six Edge,65c017a404cde4687fdad22e,old
1901.2000000476835,shortestpath_phase,GW/jukebox.jpg,50.0,GW/globe.jpg,GW/camera.jpg,1.0,GW/camera.jpg,Three Edge Diff,Two Edge Five Edge,65c017a404cde4687fdad22e,old
4172.5,shortestpath_phase,GW/globe.jpg,50.0,GW/dustpan.jpg,GW/teeth.jpg,0.0,GW/dustpan.jpg,One Edge Diff,Three Edge Four Edge,65c017a404cde4687fdad22e,old
2405.5,shortestpath_phase,GW/teeth.jpg,50.0,GW/barrel.jpg,GW/snail.jpg,0.0,GW/barrel.jpg,Two Edge Diff,Two Edge Four Edge,65c017a404cde4687fdad22e,old
2189.2999999523163,shortestpath_phase,GW/camera.jpg,49.0,GW/globe.jpg,GW/snail.jpg,0.0,GW/snail.jpg,One Edge Diff,Five Edge Six Edge,65c017a404cde4687fdad22e,old
2564.600000143051,shortestpath_phase,GW/barrel.jpg,49.0,GW/snail.jpg,GW/hat.jpg,0.0,GW/hat.jpg,Two Edge Diff,Four Edge Six Edge,65c017a404cde4687fdad22e,old
2901.100000143051,shortestpath_phase,GW/snail.jpg,50.0,GW/hat.jpg,GW/wheelchair.jpg,1.0,GW/wheelchair.jpg,One Edge Diff,Two Edge Three Edge,65c017a404cde4687fdad22e,old
1877.7999999523165,shortestpath_phase,GW/globe.jpg,49.0,GW/barrel.jpg,GW/jukebox.jpg,0.0,GW/jukebox.jpg,One Edge Diff,Five Edge Six Edge,65c017a404cde4687fdad22e,old
1813.0,shortestpath_phase,GW/gong.jpg,49.0,GW/snail.jpg,GW/hat.jpg,0.0,GW/hat.jpg,One Edge Diff,Three Edge Four Edge,65c017a404cde4687fdad22e,old
2060.2000000476837,shortestpath_phase,GW/paint.jpg,50.0,GW/globe.jpg,GW/jukebox.jpg,1.0,GW/jukebox.jpg,Two Edge Diff,Two Edge Four Edge,65c017a404cde4687fdad22e,old
2533.399999856949,shortestpath_phase,GW/hat.jpg,50.0,GW/soldier.jpg,GW/barrel.jpg,0.0,GW/soldier.jpg,Two Edge Diff,Two Edge Four Edge,65c017a404cde4687fdad22e,old
2253.7000000476837,shortestpath_phase,GW/snail.jpg,49.0,GW/jukebox.jpg,GW/paint.jpg,0.0,GW/paint.jpg,Two Edge Diff,Three Edge Five Edge,65c017a404cde4687fdad22e,old
2028.5,shortestpath_phase,GW/barrel.jpg,50.0,GW/teeth.jpg,GW/snail.jpg,0.0,GW/teeth.jpg,Four Edge Diff,Two Edge Six Edge,65c017a404cde4687fdad22e,old
2501.2000000476837,shortestpath_phase,GW/globe.jpg,49.0,GW/barrel.jpg,GW/paint.jpg,0.0,GW/paint.jpg,Two Edge Diff,Four Edge Six Edge,65c017a404cde4687fdad22e,old
1965.5999999046328,shortestpath_phase,GW/gong.jpg,49.0,GW/basket.jpg,GW/hat.jpg,0.0,GW/hat.jpg,One Edge Diff,Three Edge Four Edge,65c017a404cde4687fdad22e,old
3349.599999904633,shortestpath_phase,GW/basket.jpg,50.0,GW/dustpan.jpg,GW/barrel.jpg,0.0,GW/dustpan.jpg,Three Edge Diff,Two Edge Five Edge,65c017a404cde4687fdad22e,old
1845.0,shortestpath_phase,GW/camera.jpg,49.0,GW/basket.jpg,GW/paint.jpg,0.0,GW/paint.jpg,Three Edge Diff,Three Edge Six Edge,65c017a404cde4687fdad22e,old
1567.6000001430511,shortestpath_phase,GW/dustpan.jpg,49.0,GW/gong.jpg,GW/barrel.jpg,1.0,GW/gong.jpg,One Edge Diff,Two Edge Three Edge,65c017a404cde4687fdad22e,old
2618.699999809265,shortestpath_phase,GW/jukebox.jpg,49.0,GW/globe.jpg,GW/hat.jpg,0.0,GW/hat.jpg,Two Edge Diff,Three Edge Five Edge,65c017a404cde4687fdad22e,old
3293.0,shortestpath_phase,GW/camera.jpg,49.0,GW/snail.jpg,GW/soldier.jpg,0.0,GW/soldier.jpg,One Edge Diff,Four Edge Five Edge,65c017a404cde4687fdad22e,old
1556.5,shortestpath_phase,GW/snail.jpg,50.0,GW/hat.jpg,GW/teeth.jpg,0.0,GW/hat.jpg,One Edge Diff,Three Edge Four Edge,65c017a404cde4687fdad22e,old
1508.7999999523165,shortestpath_phase,GW/barrel.jpg,50.0,GW/basket.jpg,GW/globe.jpg,0.0,GW/basket.jpg,One Edge Diff,Five Edge Six Edge,65c017a404cde4687fdad22e,old
2813.599999904633,shortestpath_phase,GW/teeth.jpg,50.0,GW/hat.jpg,GW/globe.jpg,0.0,GW/hat.jpg,Two Edge Diff,Two Edge Four Edge,65c017a404cde4687fdad22e,old
2185.2999999523163,shortestpath_phase,GW/globe.jpg,49.0,GW/soldier.jpg,GW/camera.jpg,1.0,GW/soldier.jpg,Four Edge Diff,Two Edge Six Edge,65c017a404cde4687fdad22e,old
4184.599999904633,shortestpath_phase,GW/camera.jpg,49.0,GW/globe.jpg,GW/paint.jpg,0.0,GW/paint.jpg,Four Edge Diff,Two Edge Six Edge,65c017a404cde4687fdad22e,old
1789.6000001430511,shortestpath_phase,GW/jukebox.jpg,50.0,GW/soldier.jpg,GW/hat.jpg,1.0,GW/hat.jpg,One Edge Diff,Three Edge Four Edge,65c017a404cde4687fdad22e,old
2380.7000000476837,shortestpath_phase,GW/camera.jpg,49.0,GW/basket.jpg,GW/teeth.jpg,0.0,GW/teeth.jpg,Three Edge Diff,Three Edge Six Edge,65c017a404cde4687fdad22e,old
1724.4000000953674,shortestpath_phase,GW/barrel.jpg,50.0,GW/basket.jpg,GW/paint.jpg,1.0,GW/paint.jpg,Two Edge Diff,Three Edge Five Edge,65c017a404cde4687fdad22e,old
2276.599999904633,shortestpath_phase,GW/camera.jpg,49.0,GW/hat.jpg,GW/globe.jpg,1.0,GW/hat.jpg,Two Edge Diff,Four Edge Six Edge,65c017a404cde4687fdad22e,old
2509.099999904633,shortestpath_phase,GW/barrel.jpg,50.0,GW/wheelchair.jpg,GW/paint.jpg,1.0,GW/paint.jpg,One Edge Diff,Three Edge Four Edge,65c017a404cde4687fdad22e,old
2188.900000095367,shortestpath_phase,GW/hat.jpg,50.0,GW/wheelchair.jpg,GW/camera.jpg,0.0,GW/wheelchair.jpg,Two Edge Diff,Two Edge Four Edge,65c017a404cde4687fdad22e,old
3244.5,shortestpath_phase,GW/jukebox.jpg,50.0,GW/globe.jpg,GW/basket.jpg,1.0,GW/basket.jpg,One Edge Diff,Four Edge Five Edge,65c017a404cde4687fdad22e,old
1796.9000000953674,shortestpath_phase,GW/globe.jpg,49.0,GW/hat.jpg,GW/camera.jpg,1.0,GW/hat.jpg,Four Edge Diff,Two Edge Six Edge,65c017a404cde4687fdad22e,old
3116.599999904633,shortestpath_phase,GW/camera.jpg,49.0,GW/basket.jpg,GW/globe.jpg,1.0,GW/basket.jpg,One Edge Diff,Five Edge Six Edge,65c017a404cde4687fdad22e,old
1749.1999998092651,shortestpath_phase,GW/hat.jpg,50.0,GW/jukebox.jpg,GW/teeth.jpg,1.0,GW/teeth.jpg,One Edge Diff,Two Edge Three Edge,65c017a404cde4687fdad22e,old
2485.400000095367,shortestpath_phase,GW/camera.jpg,50.0,GW/dustpan.jpg,GW/paint.jpg,1.0,GW/paint.jpg,One Edge Diff,Two Edge Three Edge,65c017a404cde4687fdad22e,old
3413.2999999523163,shortestpath_phase,GW/jukebox.jpg,49.0,GW/basket.jpg,GW/wheelchair.jpg,0.0,GW/wheelchair.jpg,One Edge Diff,Three Edge Four Edge,65c017a404cde4687fdad22e,old
1676.5,shortestpath_phase,GW/camera.jpg,50.0,GW/globe.jpg,GW/soldier.jpg,1.0,GW/soldier.jpg,Two Edge Diff,Four Edge Six Edge,65c017a404cde4687fdad22e,old
2900.0,shortestpath_phase,GW/barrel.jpg,50.0,GW/gong.jpg,GW/soldier.jpg,0.0,GW/gong.jpg,Three Edge Diff,Two Edge Five Edge,65c017a404cde4687fdad22e,old
1733.1999998092651,shortestpath_phase,GW/camera.jpg,49.0,GW/snail.jpg,GW/jukebox.jpg,0.0,GW/jukebox.jpg,Three Edge Diff,Three Edge Six Edge,65c017a404cde4687fdad22e,old
1821.3999998569489,shortestpath_phase,GW/barrel.jpg,50.0,GW/wheelchair.jpg,GW/globe.jpg,0.0,GW/wheelchair.jpg,Two Edge Diff,Four Edge Six Edge,65c017a404cde4687fdad22e,old
3053.2999999523163,shortestpath_phase,GW/globe.jpg,49.0,GW/hat.jpg,GW/gong.jpg,1.0,GW/hat.jpg,Three Edge Diff,Two Edge Five Edge,65c017a404cde4687fdad22e,old
2045.0,shortestpath_phase,GW/barrel.jpg,49.0,GW/snail.jpg,GW/wheelchair.jpg,0.0,GW/wheelchair.jpg,Two Edge Diff,Four Edge Six Edge,65c017a404cde4687fdad22e,old
3061.5,shortestpath_phase,GW/snail.jpg,49.0,GW/barrel.jpg,GW/gong.jpg,0.0,GW/gong.jpg,Two Edge Diff,Four Edge Six Edge,65c017a404cde4687fdad22e,old
1812.3000001907349,shortestpath_phase,GW/globe.jpg,50.0,GW/gong.jpg,GW/teeth.jpg,1.0,GW/teeth.jpg,One Edge Diff,Four Edge Five Edge,65c017a404cde4687fdad22e,old
2364.7000000476837,shortestpath_phase,GW/wheelchair.jpg,50.0,GW/barrel.jpg,GW/basket.jpg,1.0,GW/basket.jpg,Two Edge Diff,Two Edge Four Edge,65c017a404cde4687fdad22e,old
2116.7000000476837,shortestpath_phase,GW/globe.jpg,49.0,GW/soldier.jpg,GW/barrel.jpg,1.0,GW/soldier.jpg,Four Edge Diff,Two Edge Six Edge,65c017a404cde4687fdad22e,old
1469.0999999046326,shortestpath_phase,GW/snail.jpg,50.0,GW/barrel.jpg,GW/basket.jpg,1.0,GW/basket.jpg,Four Edge Diff,Two Edge Six Edge,65c017a404cde4687fdad22e,old
2037.5,shortestpath_phase,GW/barrel.jpg,49.0,GW/soldier.jpg,GW/snail.jpg,1.0,GW/soldier.jpg,One Edge Diff,Five Edge Six Edge,65c017a404cde4687fdad22e,old
3924.599999904633,shortestpath_phase,GW/snail.jpg,49.0,GW/jukebox.jpg,GW/wheelchair.jpg,0.0,GW/wheelchair.jpg,Three Edge Diff,Two Edge Five Edge,65c017a404cde4687fdad22e,old
1700.5,shortestpath_phase,GW/globe.jpg,49.0,GW/soldier.jpg,GW/jukebox.jpg,1.0,GW/soldier.jpg,Three Edge Diff,Two Edge Five Edge,65c017a404cde4687fdad22e,old
1421.1000001430511,shortestpath_phase,GW/snail.jpg,50.0,GW/barrel.jpg,GW/wheelchair.jpg,1.0,GW/wheelchair.jpg,Four Edge Diff,Two Edge Six Edge,65c017a404cde4687fdad22e,old
2637.2000000476837,shortestpath_phase,GW/soldier.jpg,49.0,GW/barrel.jpg,GW/paint.jpg,0.0,GW/paint.jpg,Three Edge Diff,Two Edge Five Edge,65c017a404cde4687fdad22e,old
2492.2999999523163,shortestpath_phase,GW/globe.jpg,50.0,GW/camera.jpg,GW/teeth.jpg,1.0,GW/teeth.jpg,Two Edge Diff,Four Edge Six Edge,65c017a404cde4687fdad22e,old
2157.300000190735,shortestpath_phase,GW/jukebox.jpg,50.0,GW/paint.jpg,GW/snail.jpg,0.0,GW/paint.jpg,Three Edge Diff,Three Edge Six Edge,65c017a404cde4687fdad22e,old
2708.699999809265,shortestpath_phase,GW/globe.jpg,50.0,GW/jukebox.jpg,GW/dustpan.jpg,1.0,GW/dustpan.jpg,Two Edge Diff,Three Edge Five Edge,65c017a404cde4687fdad22e,old
1908.7999999523165,shortestpath_phase,GW/paint.jpg,49.0,GW/jukebox.jpg,GW/snail.jpg,1.0,GW/jukebox.jpg,One Edge Diff,Two Edge Three Edge,65c017a404cde4687fdad22e,old
1821.2999999523165,shortestpath_phase,GW/globe.jpg,50.0,GW/soldier.jpg,GW/gong.jpg,0.0,GW/soldier.jpg,Three Edge Diff,Three Edge Six Edge,65c017a404cde4687fdad22e,old
1532.8999998569489,shortestpath_phase,GW/hat.jpg,50.0,GW/jukebox.jpg,GW/camera.jpg,0.0,GW/jukebox.jpg,One Edge Diff,Three Edge Four Edge,65c017a404cde4687fdad22e,old
1940.7999999523165,shortestpath_phase,GW/globe.jpg,49.0,GW/soldier.jpg,GW/snail.jpg,1.0,GW/soldier.jpg,One Edge Diff,Two Edge Three Edge,65c017a404cde4687fdad22e,old
3341.0,shortestpath_phase,GW/jukebox.jpg,49.0,GW/dustpan.jpg,GW/snail.jpg,1.0,GW/dustpan.jpg,Three Edge Diff,Three Edge Six Edge,65c017a404cde4687fdad22e,old
4269.100000143051,shortestpath_phase,GW/barrel.jpg,50.0,GW/hat.jpg,GW/globe.jpg,0.0,GW/hat.jpg,Two Edge Diff,Four Edge Six Edge,65c017a404cde4687fdad22e,old
1628.7999999523165,shortestpath_phase,GW/globe.jpg,49.0,GW/jukebox.jpg,GW/camera.jpg,1.0,GW/jukebox.jpg,One Edge Diff,Five Edge Six Edge,65c017a404cde4687fdad22e,old
1733.6000001430511,shortestpath_phase,GW/camera.jpg,50.0,GW/soldier.jpg,GW/teeth.jpg,1.0,GW/teeth.jpg,Two Edge Diff,Two Edge Four Edge,65c017a404cde4687fdad22e,old
2412.800000190735,shortestpath_phase,GW/jukebox.jpg,50.0,GW/wheelchair.jpg,GW/globe.jpg,0.0,GW/wheelchair.jpg,Two Edge Diff,Three Edge Five Edge,65c017a404cde4687fdad22e,old
3276.5,shortestpath_phase,GW/barrel.jpg,49.0,GW/camera.jpg,GW/basket.jpg,1.0,GW/camera.jpg,Two Edge Diff,Three Edge Five Edge,65c017a404cde4687fdad22e,old
2396.7999999523163,shortestpath_phase,GW/globe.jpg,49.0,GW/jukebox.jpg,GW/wheelchair.jpg,0.0,GW/wheelchair.jpg,Two Edge Diff,Three Edge Five Edge,65c017a404cde4687fdad22e,old
1572.7000000476835,shortestpath_phase,GW/camera.jpg,50.0,GW/jukebox.jpg,GW/snail.jpg,0.0,GW/jukebox.jpg,Three Edge Diff,Two Edge Five Edge,65c017a404cde4687fdad22e,old
2061.2999999523163,shortestpath_phase,GW/barrel.jpg,50.0,GW/gong.jpg,GW/basket.jpg,0.0,GW/gong.jpg,Three Edge Diff,Three Edge Six Edge,65c017a404cde4687fdad22e,old
2004.9000000953672,shortestpath_phase,GW/hat.jpg,49.0,GW/globe.jpg,GW/jukebox.jpg,1.0,GW/globe.jpg,One Edge Diff,Two Edge Three Edge,65c017a404cde4687fdad22e,old
2653.399999856949,shortestpath_phase,GW/gong.jpg,50.0,GW/globe.jpg,GW/snail.jpg,1.0,GW/snail.jpg,One Edge Diff,Four Edge Five Edge,65c017a404cde4687fdad22e,old
2308.2000000476837,shortestpath_phase,GW/jukebox.jpg,49.0,GW/wheelchair.jpg,GW/snail.jpg,1.0,GW/wheelchair.jpg,Two Edge Diff,Three Edge Five Edge,65c017a404cde4687fdad22e,old
1796.9000000953674,shortestpath_phase,GW/snail.jpg,50.0,GW/barrel.jpg,GW/camera.jpg,1.0,GW/camera.jpg,One Edge Diff,Five Edge Six Edge,65c017a404cde4687fdad22e,old
3117.099999904633,shortestpath_phase,GW/basket.jpg,49.0,GW/camera.jpg,GW/gong.jpg,0.0,GW/gong.jpg,One Edge Diff,Four Edge Five Edge,65c017a404cde4687fdad22e,old
1540.7999999523165,shortestpath_phase,GW/hat.jpg,50.0,GW/soldier.jpg,GW/gong.jpg,0.0,GW/soldier.jpg,One Edge Diff,Two Edge Three Edge,65c017a404cde4687fdad22e,old
2284.5,shortestpath_phase,GW/basket.jpg,50.0,GW/snail.jpg,GW/barrel.jpg,0.0,GW/snail.jpg,Three Edge Diff,Two Edge Five Edge,65c017a404cde4687fdad22e,old
1859.6000001430511,shortestpath_phase,GW/hat.jpg,49.0,GW/barrel.jpg,GW/paint.jpg,0.0,GW/paint.jpg,One Edge Diff,Three Edge Four Edge,65c017a404cde4687fdad22e,old
1452.7999999523165,shortestpath_phase,GW/snail.jpg,50.0,GW/wheelchair.jpg,GW/camera.jpg,0.0,GW/wheelchair.jpg,Three Edge Diff,Three Edge Six Edge,65c017a404cde4687fdad22e,old
2452.0,shortestpath_phase,GW/globe.jpg,50.0,GW/gong.jpg,GW/barrel.jpg,0.0,GW/gong.jpg,One Edge Diff,Five Edge Six Edge,65c017a404cde4687fdad22e,old
1317.2999999523165,shortestpath_phase,GW/barrel.jpg,49.0,GW/basket.jpg,GW/wheelchair.jpg,0.0,GW/wheelchair.jpg,One Edge Diff,Four Edge Five Edge,65c017a404cde4687fdad22e,old
2836.2000000476837,shortestpath_phase,GW/dustpan.jpg,50.0,GW/gong.jpg,GW/snail.jpg,0.0,GW/gong.jpg,One Edge Diff,Two Edge Three Edge,65c017a404cde4687fdad22e,old
2116.7999999523163,shortestpath_phase,GW/barrel.jpg,49.0,GW/soldier.jpg,GW/hat.jpg,0.0,GW/hat.jpg,One Edge Diff,Four Edge Five Edge,65c017a404cde4687fdad22e,old
2316.2000000476837,shortestpath_phase,GW/jukebox.jpg,50.0,GW/globe.jpg,GW/dustpan.jpg,1.0,GW/dustpan.jpg,Three Edge Diff,Three Edge Six Edge,65c017a404cde4687fdad22e,old
2813.2000000476837,shortestpath_phase,GW/barrel.jpg,49.0,GW/snail.jpg,GW/gong.jpg,0.0,GW/gong.jpg,Four Edge Diff,Two Edge Six Edge,65c017a404cde4687fdad22e,old
2581.099999904633,shortestpath_phase,GW/dustpan.jpg,50.0,GW/jukebox.jpg,GW/snail.jpg,0.0,GW/jukebox.jpg,One Edge Diff,Two Edge Three Edge,65c017a404cde4687fdad22e,old
2843.7000000476837,shortestpath_phase,GW/camera.jpg,49.0,GW/wheelchair.jpg,GW/hat.jpg,1.0,GW/wheelchair.jpg,One Edge Diff,Three Edge Four Edge,65c017a404cde4687fdad22e,old
1677.5,shortestpath_phase,GW/globe.jpg,50.0,GW/snail.jpg,GW/jukebox.jpg,0.0,GW/snail.jpg,Two Edge Diff,Three Edge Five Edge,65c017a404cde4687fdad22e,old
3573.199999809265,shortestpath_phase,GW/jukebox.jpg,49.0,GW/snail.jpg,GW/soldier.jpg,0.0,GW/soldier.jpg,One Edge Diff,Four Edge Five Edge,65c017a404cde4687fdad22e,old
1692.7000000476835,shortestpath_phase,GW/snail.jpg,49.0,GW/jukebox.jpg,GW/hat.jpg,0.0,GW/hat.jpg,Two Edge Diff,Three Edge Five Edge,65c017a404cde4687fdad22e,old
2853.2999999523163,shortestpath_phase,GW/barrel.jpg,50.0,GW/wheelchair.jpg,GW/gong.jpg,1.0,GW/gong.jpg,Two Edge Diff,Two Edge Four Edge,65c017a404cde4687fdad22e,old
3021.7000000476837,shortestpath_phase,GW/camera.jpg,49.0,GW/dustpan.jpg,GW/jukebox.jpg,0.0,GW/jukebox.jpg,One Edge Diff,Two Edge Three Edge,65c017a404cde4687fdad22e,old
1963.6000001430511,shortestpath_phase,GW/snail.jpg,49.0,GW/jukebox.jpg,GW/gong.jpg,0.0,GW/gong.jpg,One Edge Diff,Four Edge Five Edge,65c017a404cde4687fdad22e,old
1244.7000000476835,shortestpath_phase,GW/barrel.jpg,50.0,GW/globe.jpg,GW/soldier.jpg,1.0,GW/soldier.jpg,One Edge Diff,Five Edge Six Edge,65c017a404cde4687fdad22e,old
1700.1999998092651,shortestpath_phase,GW/camera.jpg,49.0,GW/teeth.jpg,GW/globe.jpg,1.0,GW/teeth.jpg,Four Edge Diff,Two Edge Six Edge,65c017a404cde4687fdad22e,old
2749.599999904633,shortestpath_phase,GW/soldier.jpg,49.0,GW/globe.jpg,GW/jukebox.jpg,1.0,GW/globe.jpg,Two Edge Diff,Two Edge Four Edge,65c017a404cde4687fdad22e,old
2101.0,shortestpath_phase,GW/camera.jpg,50.0,GW/snail.jpg,GW/paint.jpg,1.0,GW/paint.jpg,Three Edge Diff,Two Edge Five Edge,65c017a404cde4687fdad22e,old
1348.5,shortestpath_phase,GW/hat.jpg,50.0,GW/wheelchair.jpg,GW/snail.jpg,0.0,GW/wheelchair.jpg,One Edge Diff,Two Edge Three Edge,65c017a404cde4687fdad22e,old
1972.2999999523165,shortestpath_phase,GW/camera.jpg,50.0,GW/soldier.jpg,GW/basket.jpg,0.0,GW/soldier.jpg,One Edge Diff,Four Edge Five Edge,65c017a404cde4687fdad22e,old
3236.5,shortestpath_phase,GW/barrel.jpg,50.0,GW/globe.jpg,GW/teeth.jpg,1.0,GW/teeth.jpg,Four Edge Diff,Two Edge Six Edge,65c017a404cde4687fdad22e,old
1245.0,shortestpath_phase,GW/jukebox.jpg,49.0,GW/camera.jpg,GW/globe.jpg,1.0,GW/camera.jpg,Three Edge Diff,Three Edge Six Edge,65c017a404cde4687fdad22e,old
1796.7999999523165,shortestpath_phase,GW/snail.jpg,49.0,GW/teeth.jpg,GW/barrel.jpg,1.0,GW/teeth.jpg,Two Edge Diff,Four Edge Six Edge,65c017a404cde4687fdad22e,old
1715.5999999046326,shortestpath_phase,GW/globe.jpg,50.0,GW/paint.jpg,GW/camera.jpg,0.0,GW/paint.jpg,Two Edge Diff,Four Edge Six Edge,65c017a404cde4687fdad22e,old
1740.7999999523165,shortestpath_phase,GW/snail.jpg,49.0,GW/jukebox.jpg,GW/barrel.jpg,1.0,GW/jukebox.jpg,One Edge Diff,Five Edge Six Edge,65c017a404cde4687fdad22e,old
2284.5,shortestpath_phase,GW/barrel.jpg,50.0,GW/basket.jpg,GW/snail.jpg,0.0,GW/basket.jpg,One Edge Diff,Five Edge Six Edge,65c017a404cde4687fdad22e,old
1421.2999999523165,shortestpath_phase,GW/globe.jpg,49.0,GW/dustpan.jpg,GW/gong.jpg,1.0,GW/dustpan.jpg,Two Edge Diff,Three Edge Five Edge,65c017a404cde4687fdad22e,old
1508.5999999046326,shortestpath_phase,GW/basket.jpg,50.0,GW/barrel.jpg,GW/snail.jpg,1.0,GW/snail.jpg,Three Edge Diff,Three Edge Six Edge,65c017a404cde4687fdad22e,old
2573.199999809265,shortestpath_phase,GW/globe.jpg,49.0,GW/teeth.jpg,GW/barrel.jpg,1.0,GW/teeth.jpg,Two Edge Diff,Four Edge Six Edge,65c017a404cde4687fdad22e,old
1644.7000000476835,shortestpath_phase,GW/camera.jpg,50.0,GW/hat.jpg,GW/basket.jpg,0.0,GW/hat.jpg,One Edge Diff,Four Edge Five Edge,65c017a404cde4687fdad22e,old
1285.0,shortestpath_phase,GW/basket.jpg,50.0,GW/teeth.jpg,GW/camera.jpg,0.0,GW/teeth.jpg,Two Edge Diff,Three Edge Five Edge,65c017a404cde4687fdad22e,old
2452.600000143051,shortestpath_phase,GW/camera.jpg,49.0,GW/soldier.jpg,GW/jukebox.jpg,0.0,GW/jukebox.jpg,Two Edge Diff,Two Edge Four Edge,65c017a404cde4687fdad22e,old
1693.2000000476835,shortestpath_phase,GW/snail.jpg,50.0,GW/wheelchair.jpg,GW/camera.jpg,0.0,GW/wheelchair.jpg,Three Edge Diff,Two Edge Five Edge,65c017a404cde4687fdad22e,old
2212.5,shortestpath_phase,GW/gong.jpg,49.0,GW/barrel.jpg,GW/globe.jpg,1.0,GW/barrel.jpg,Three Edge Diff,Three Edge Six Edge,65c017a404cde4687fdad22e,old
1468.7999999523165,shortestpath_phase,GW/jukebox.jpg,50.0,GW/wheelchair.jpg,GW/soldier.jpg,0.0,GW/wheelchair.jpg,One Edge Diff,Three Edge Four Edge,65c017a404cde4687fdad22e,old
1501.2999999523165,shortestpath_phase,GW/globe.jpg,49.0,GW/gong.jpg,GW/camera.jpg,1.0,GW/gong.jpg,One Edge Diff,Five Edge Six Edge,65c017a404cde4687fdad22e,old
1844.5999999046328,shortestpath_phase,GW/teeth.jpg,50.0,GW/soldier.jpg,GW/snail.jpg,0.0,GW/soldier.jpg,One Edge Diff,Three Edge Four Edge,65c017a404cde4687fdad22e,old
2820.900000095367,shortestpath_phase,GW/barrel.jpg,49.0,GW/globe.jpg,GW/gong.jpg,0.0,GW/gong.jpg,Four Edge Diff,Two Edge Six Edge,65c017a404cde4687fdad22e,old
2172.5,shortestpath_phase,GW/camera.jpg,49.0,GW/jukebox.jpg,GW/globe.jpg,1.0,GW/jukebox.jpg,Four Edge Diff,Two Edge Six Edge,65c017a404cde4687fdad22e,old
1813.0,shortestpath_phase,GW/gong.jpg,50.0,GW/wheelchair.jpg,GW/basket.jpg,0.0,GW/wheelchair.jpg,Two Edge Diff,Two Edge Four Edge,65c017a404cde4687fdad22e,old
1764.5,shortestpath_phase,GW/camera.jpg,49.0,GW/basket.jpg,GW/paint.jpg,0.0,GW/paint.jpg,Three Edge Diff,Two Edge Five Edge,65c017a404cde4687fdad22e,old
,shortestpath_phase,,,,,0.0,,One Edge Diff,Four Edge Five Edge,65c017a404cde4687fdad22e,old
1933.300000011921,shortestpath_phase,GW/paint.jpg,50.0,GW/jukebox.jpg,GW/globe.jpg,1.0,GW/globe.jpg,One Edge Diff,Three Edge Four Edge,65958f57929aaa555306baf9,young
1554.699999988079,shortestpath_phase,GW/wheelchair.jpg,50.0,GW/jukebox.jpg,GW/dustpan.jpg,1.0,GW/dustpan.jpg,One Edge Diff,Two Edge Three Edge,65958f57929aaa555306baf9,young
746.8000000119209,shortestpath_phase,GW/paint.jpg,49.0,GW/hat.jpg,GW/camera.jpg,0.0,GW/camera.jpg,Three Edge Diff,Three Edge Six Edge,65958f57929aaa555306baf9,young
1597.7999999523165,shortestpath_phase,GW/jukebox.jpg,49.0,GW/paint.jpg,GW/hat.jpg,0.0,GW/hat.jpg,Two Edge Diff,Two Edge Four Edge,65958f57929aaa555306baf9,young
1400.9000000357628,shortestpath_phase,GW/teeth.jpg,49.0,GW/hat.jpg,GW/paint.jpg,0.0,GW/paint.jpg,Two Edge Diff,Three Edge Five Edge,65958f57929aaa555306baf9,young
1064.399999976158,shortestpath_phase,GW/barrel.jpg,49.0,GW/dustpan.jpg,GW/wheelchair.jpg,1.0,GW/dustpan.jpg,One Edge Diff,Four Edge Five Edge,65958f57929aaa555306baf9,young
1219.800000011921,shortestpath_phase,GW/paint.jpg,50.0,GW/hat.jpg,GW/snail.jpg,0.0,GW/hat.jpg,One Edge Diff,Five Edge Six Edge,65958f57929aaa555306baf9,young
1400.9000000357628,shortestpath_phase,GW/jukebox.jpg,49.0,GW/paint.jpg,GW/snail.jpg,0.0,GW/snail.jpg,Two Edge Diff,Two Edge Four Edge,65958f57929aaa555306baf9,young
1088.699999988079,shortestpath_phase,GW/soldier.jpg,49.0,GW/barrel.jpg,GW/snail.jpg,1.0,GW/barrel.jpg,One Edge Diff,Two Edge Three Edge,65958f57929aaa555306baf9,young
1283.699999988079,shortestpath_phase,GW/teeth.jpg,50.0,GW/basket.jpg,GW/paint.jpg,1.0,GW/paint.jpg,One Edge Diff,Three Edge Four Edge,65958f57929aaa555306baf9,young
1247.5999999642372,shortestpath_phase,GW/snail.jpg,49.0,GW/gong.jpg,GW/paint.jpg,1.0,GW/gong.jpg,Two Edge Diff,Four Edge Six Edge,65958f57929aaa555306baf9,young
1401.899999976158,shortestpath_phase,GW/globe.jpg,50.0,GW/hat.jpg,GW/dustpan.jpg,1.0,GW/dustpan.jpg,One Edge Diff,Two Edge Three Edge,65958f57929aaa555306baf9,young
1376.699999988079,shortestpath_phase,GW/wheelchair.jpg,50.0,GW/barrel.jpg,GW/snail.jpg,1.0,GW/snail.jpg,Two Edge Diff,Three Edge Five Edge,65958f57929aaa555306baf9,young
1253.2000000476835,shortestpath_phase,GW/camera.jpg,49.0,GW/jukebox.jpg,GW/snail.jpg,1.0,GW/jukebox.jpg,One Edge Diff,Three Edge Four Edge,65958f57929aaa555306baf9,young
2132.600000023842,shortestpath_phase,GW/hat.jpg,49.0,GW/teeth.jpg,GW/snail.jpg,0.0,GW/snail.jpg,Three Edge Diff,Two Edge Five Edge,65958f57929aaa555306baf9,young
2201.199999988079,shortestpath_phase,GW/paint.jpg,49.0,GW/snail.jpg,GW/jukebox.jpg,0.0,GW/jukebox.jpg,Two Edge Diff,Four Edge Six Edge,65958f57929aaa555306baf9,young
1771.0,shortestpath_phase,GW/wheelchair.jpg,49.0,GW/teeth.jpg,GW/dustpan.jpg,0.0,GW/dustpan.jpg,Four Edge Diff,Two Edge Six Edge,65958f57929aaa555306baf9,young
1500.199999988079,shortestpath_phase,GW/teeth.jpg,50.0,GW/barrel.jpg,GW/wheelchair.jpg,0.0,GW/barrel.jpg,Four Edge Diff,Two Edge Six Edge,65958f57929aaa555306baf9,young
4016.899999976158,shortestpath_phase,GW/wheelchair.jpg,49.0,GW/soldier.jpg,GW/globe.jpg,1.0,GW/soldier.jpg,One Edge Diff,Three Edge Four Edge,65958f57929aaa555306baf9,young
1500.199999988079,shortestpath_phase,GW/paint.jpg,50.0,GW/wheelchair.jpg,GW/camera.jpg,1.0,GW/camera.jpg,Four Edge Diff,Two Edge Six Edge,65958f57929aaa555306baf9,young
751.8999999761581,shortestpath_phase,GW/wheelchair.jpg,49.0,GW/paint.jpg,GW/barrel.jpg,0.0,GW/barrel.jpg,One Edge Diff,Five Edge Six Edge,65958f57929aaa555306baf9,young
1340.2000000476835,shortestpath_phase,GW/teeth.jpg,49.0,GW/hat.jpg,GW/camera.jpg,0.0,GW/camera.jpg,Two Edge Diff,Three Edge Five Edge,65958f57929aaa555306baf9,young
915.0,shortestpath_phase,GW/snail.jpg,50.0,GW/gong.jpg,GW/wheelchair.jpg,1.0,GW/wheelchair.jpg,One Edge Diff,Three Edge Four Edge,65958f57929aaa555306baf9,young
1121.100000023842,shortestpath_phase,GW/paint.jpg,50.0,GW/wheelchair.jpg,GW/jukebox.jpg,1.0,GW/jukebox.jpg,Two Edge Diff,Four Edge Six Edge,65958f57929aaa555306baf9,young
703.8000000119209,shortestpath_phase,GW/wheelchair.jpg,49.0,GW/dustpan.jpg,GW/paint.jpg,1.0,GW/dustpan.jpg,Four Edge Diff,Two Edge Six Edge,65958f57929aaa555306baf9,young
942.4000000357628,shortestpath_phase,GW/snail.jpg,50.0,GW/paint.jpg,GW/basket.jpg,1.0,GW/basket.jpg,Four Edge Diff,Two Edge Six Edge,65958f57929aaa555306baf9,young
979.2999999523164,shortestpath_phase,GW/wheelchair.jpg,50.0,GW/barrel.jpg,GW/teeth.jpg,0.0,GW/barrel.jpg,One Edge Diff,Five Edge Six Edge,65958f57929aaa555306baf9,young
1259.0,shortestpath_phase,GW/hat.jpg,49.0,GW/paint.jpg,GW/soldier.jpg,0.0,GW/soldier.jpg,Three Edge Diff,Two Edge Five Edge,65958f57929aaa555306baf9,young
1351.899999976158,shortestpath_phase,GW/teeth.jpg,49.0,GW/wheelchair.jpg,GW/snail.jpg,0.0,GW/snail.jpg,One Edge Diff,Five Edge Six Edge,65958f57929aaa555306baf9,young
1043.5,shortestpath_phase,GW/hat.jpg,49.0,GW/soldier.jpg,GW/paint.jpg,1.0,GW/soldier.jpg,Three Edge Diff,Three Edge Six Edge,65958f57929aaa555306baf9,young
1345.300000011921,shortestpath_phase,GW/gong.jpg,50.0,GW/dustpan.jpg,GW/wheelchair.jpg,0.0,GW/dustpan.jpg,Two Edge Diff,Three Edge Five Edge,65958f57929aaa555306baf9,young
2197.400000035763,shortestpath_phase,GW/snail.jpg,50.0,GW/paint.jpg,GW/camera.jpg,1.0,GW/camera.jpg,Two Edge Diff,Four Edge Six Edge,65958f57929aaa555306baf9,young
863.0,shortestpath_phase,GW/paint.jpg,49.0,GW/wheelchair.jpg,GW/basket.jpg,0.0,GW/basket.jpg,Two Edge Diff,Four Edge Six Edge,65958f57929aaa555306baf9,young
1908.600000023842,shortestpath_phase,GW/snail.jpg,49.0,GW/paint.jpg,GW/hat.jpg,0.0,GW/hat.jpg,Four Edge Diff,Two Edge Six Edge,65958f57929aaa555306baf9,young
1227.9000000357628,shortestpath_phase,GW/paint.jpg,50.0,GW/basket.jpg,GW/camera.jpg,1.0,GW/camera.jpg,Two Edge Diff,Two Edge Four Edge,65958f57929aaa555306baf9,young
1335.199999988079,shortestpath_phase,GW/jukebox.jpg,49.0,GW/barrel.jpg,GW/soldier.jpg,0.0,GW/soldier.jpg,One Edge Diff,Two Edge Three Edge,65958f57929aaa555306baf9,young
1404.7000000476835,shortestpath_phase,GW/paint.jpg,49.0,GW/dustpan.jpg,GW/snail.jpg,1.0,GW/dustpan.jpg,One Edge Diff,Five Edge Six Edge,65958f57929aaa555306baf9,young
1462.9000000357628,shortestpath_phase,GW/camera.jpg,50.0,GW/jukebox.jpg,GW/gong.jpg,1.0,GW/gong.jpg,One Edge Diff,Two Edge Three Edge,65958f57929aaa555306baf9,young
1765.5999999642372,shortestpath_phase,GW/teeth.jpg,49.0,GW/wheelchair.jpg,GW/dustpan.jpg,0.0,GW/dustpan.jpg,Two Edge Diff,Four Edge Six Edge,65958f57929aaa555306baf9,young
1508.899999976158,shortestpath_phase,GW/paint.jpg,49.0,GW/jukebox.jpg,GW/dustpan.jpg,1.0,GW/jukebox.jpg,One Edge Diff,Four Edge Five Edge,65958f57929aaa555306baf9,young
2499.2999999523163,shortestpath_phase,GW/teeth.jpg,49.0,GW/dustpan.jpg,GW/snail.jpg,1.0,GW/dustpan.jpg,One Edge Diff,Four Edge Five Edge,65958f57929aaa555306baf9,young
1922.0,shortestpath_phase,GW/snail.jpg,50.0,GW/paint.jpg,GW/jukebox.jpg,1.0,GW/jukebox.jpg,Four Edge Diff,Two Edge Six Edge,65958f57929aaa555306baf9,young
1707.800000011921,shortestpath_phase,GW/dustpan.jpg,50.0,GW/paint.jpg,GW/barrel.jpg,1.0,GW/barrel.jpg,One Edge Diff,Four Edge Five Edge,65958f57929aaa555306baf9,young
726.4000000357628,shortestpath_phase,GW/snail.jpg,49.0,GW/teeth.jpg,GW/paint.jpg,1.0,GW/teeth.jpg,One Edge Diff,Five Edge Six Edge,65958f57929aaa555306baf9,young
700.0,shortestpath_phase,GW/basket.jpg,49.0,GW/barrel.jpg,GW/globe.jpg,0.0,GW/globe.jpg,One Edge Diff,Two Edge Three Edge,65958f57929aaa555306baf9,young
812.3999999761581,shortestpath_phase,GW/snail.jpg,49.0,GW/teeth.jpg,GW/wheelchair.jpg,0.0,GW/wheelchair.jpg,Two Edge Diff,Three Edge Five Edge,65958f57929aaa555306baf9,young
661.1000000238419,shortestpath_phase,GW/barrel.jpg,50.0,GW/teeth.jpg,GW/snail.jpg,0.0,GW/teeth.jpg,Three Edge Diff,Three Edge Six Edge,65958f57929aaa555306baf9,young
894.2000000476837,shortestpath_phase,GW/hat.jpg,50.0,GW/snail.jpg,GW/paint.jpg,0.0,GW/snail.jpg,Three Edge Diff,Three Edge Six Edge,65958f57929aaa555306baf9,young
863.6999999880791,shortestpath_phase,GW/wheelchair.jpg,50.0,GW/barrel.jpg,GW/globe.jpg,1.0,GW/globe.jpg,One Edge Diff,Four Edge Five Edge,65958f57929aaa555306baf9,young
1403.0,shortestpath_phase,GW/camera.jpg,49.0,GW/hat.jpg,GW/snail.jpg,1.0,GW/hat.jpg,One Edge Diff,Three Edge Four Edge,65958f57929aaa555306baf9,young
2377.0,shortestpath_phase,GW/jukebox.jpg,50.0,GW/gong.jpg,GW/camera.jpg,0.0,GW/gong.jpg,One Edge Diff,Two Edge Three Edge,65958f57929aaa555306baf9,young
1282.300000011921,shortestpath_phase,GW/snail.jpg,49.0,GW/hat.jpg,GW/barrel.jpg,1.0,GW/hat.jpg,Three Edge Diff,Two Edge Five Edge,65958f57929aaa555306baf9,young
1151.600000023842,shortestpath_phase,GW/basket.jpg,49.0,GW/paint.jpg,GW/globe.jpg,0.0,GW/globe.jpg,Two Edge Diff,Two Edge Four Edge,65958f57929aaa555306baf9,young
1078.199999988079,shortestpath_phase,GW/hat.jpg,49.0,GW/jukebox.jpg,GW/teeth.jpg,1.0,GW/jukebox.jpg,Three Edge Diff,Two Edge Five Edge,65958f57929aaa555306baf9,young
1475.199999988079,shortestpath_phase,GW/wheelchair.jpg,50.0,GW/teeth.jpg,GW/camera.jpg,1.0,GW/camera.jpg,Two Edge Diff,Four Edge Six Edge,65958f57929aaa555306baf9,young
694.0999999642372,shortestpath_phase,GW/hat.jpg,49.0,GW/barrel.jpg,GW/teeth.jpg,1.0,GW/barrel.jpg,One Edge Diff,Four Edge Five Edge,65958f57929aaa555306baf9,young
2606.100000023842,shortestpath_phase,GW/paint.jpg,49.0,GW/camera.jpg,GW/dustpan.jpg,1.0,GW/camera.jpg,Three Edge Diff,Two Edge Five Edge,65958f57929aaa555306baf9,young
2574.300000011921,shortestpath_phase,GW/globe.jpg,49.0,GW/hat.jpg,GW/wheelchair.jpg,1.0,GW/hat.jpg,One Edge Diff,Three Edge Four Edge,65958f57929aaa555306baf9,young
1846.699999988079,shortestpath_phase,GW/paint.jpg,49.0,GW/jukebox.jpg,GW/soldier.jpg,0.0,GW/soldier.jpg,One Edge Diff,Three Edge Four Edge,65958f57929aaa555306baf9,young
1577.199999988079,shortestpath_phase,GW/wheelchair.jpg,49.0,GW/barrel.jpg,GW/basket.jpg,0.0,GW/basket.jpg,Three Edge Diff,Three Edge Six Edge,65958f57929aaa555306baf9,young
1877.4000000357628,shortestpath_phase,GW/paint.jpg,49.0,GW/wheelchair.jpg,GW/hat.jpg,0.0,GW/hat.jpg,One Edge Diff,Five Edge Six Edge,65958f57929aaa555306baf9,young
883.6999999880791,shortestpath_phase,GW/barrel.jpg,50.0,GW/globe.jpg,GW/snail.jpg,0.0,GW/globe.jpg,Three Edge Diff,Two Edge Five Edge,65958f57929aaa555306baf9,young
2323.100000023842,shortestpath_phase,GW/camera.jpg,49.0,GW/basket.jpg,GW/teeth.jpg,1.0,GW/basket.jpg,One Edge Diff,Two Edge Three Edge,65958f57929aaa555306baf9,young
1446.399999976158,shortestpath_phase,GW/dustpan.jpg,50.0,GW/teeth.jpg,GW/globe.jpg,1.0,GW/globe.jpg,Two Edge Diff,Two Edge Four Edge,65958f57929aaa555306baf9,young
1336.399999976158,shortestpath_phase,GW/wheelchair.jpg,49.0,GW/basket.jpg,GW/teeth.jpg,1.0,GW/basket.jpg,Four Edge Diff,Two Edge Six Edge,65958f57929aaa555306baf9,young
711.3000000119209,shortestpath_phase,GW/hat.jpg,49.0,GW/globe.jpg,GW/snail.jpg,0.0,GW/snail.jpg,One Edge Diff,Two Edge Three Edge,65958f57929aaa555306baf9,young
1766.0,shortestpath_phase,GW/wheelchair.jpg,50.0,GW/soldier.jpg,GW/barrel.jpg,0.0,GW/soldier.jpg,Two Edge Diff,Three Edge Five Edge,65958f57929aaa555306baf9,young
1344.2000000476835,shortestpath_phase,GW/hat.jpg,49.0,GW/snail.jpg,GW/paint.jpg,1.0,GW/snail.jpg,Three Edge Diff,Two Edge Five Edge,65958f57929aaa555306baf9,young
2761.7000000476837,shortestpath_phase,GW/barrel.jpg,49.0,GW/dustpan.jpg,GW/globe.jpg,0.0,GW/globe.jpg,Two Edge Diff,Two Edge Four Edge,65958f57929aaa555306baf9,young
1228.199999988079,shortestpath_phase,GW/hat.jpg,49.0,GW/barrel.jpg,GW/soldier.jpg,0.0,GW/soldier.jpg,Two Edge Diff,Two Edge Four Edge,65958f57929aaa555306baf9,young
773.8000000119209,shortestpath_phase,GW/dustpan.jpg,50.0,GW/camera.jpg,GW/barrel.jpg,0.0,GW/camera.jpg,One Edge Diff,Three Edge Four Edge,65958f57929aaa555306baf9,young
809.8999999761581,shortestpath_phase,GW/teeth.jpg,50.0,GW/basket.jpg,GW/jukebox.jpg,1.0,GW/jukebox.jpg,One Edge Diff,Three Edge Four Edge,65958f57929aaa555306baf9,young
1064.699999988079,shortestpath_phase,GW/gong.jpg,50.0,GW/wheelchair.jpg,GW/paint.jpg,1.0,GW/paint.jpg,Three Edge Diff,Three Edge Six Edge,65958f57929aaa555306baf9,young
1417.399999976158,shortestpath_phase,GW/teeth.jpg,49.0,GW/hat.jpg,GW/dustpan.jpg,0.0,GW/dustpan.jpg,One Edge Diff,Four Edge Five Edge,65958f57929aaa555306baf9,young
750.8000000119209,shortestpath_phase,GW/snail.jpg,49.0,GW/jukebox.jpg,GW/barrel.jpg,1.0,GW/jukebox.jpg,Three Edge Diff,Two Edge Five Edge,65958f57929aaa555306baf9,young
651.2000000476837,shortestpath_phase,GW/gong.jpg,50.0,GW/camera.jpg,GW/wheelchair.jpg,0.0,GW/camera.jpg,Three Edge Diff,Three Edge Six Edge,65958f57929aaa555306baf9,young
1200.800000011921,shortestpath_phase,GW/dustpan.jpg,50.0,GW/paint.jpg,GW/teeth.jpg,1.0,GW/teeth.jpg,One Edge Diff,Four Edge Five Edge,65958f57929aaa555306baf9,young
549.3999999761581,shortestpath_phase,GW/wheelchair.jpg,49.0,GW/paint.jpg,GW/gong.jpg,0.0,GW/gong.jpg,One Edge Diff,Five Edge Six Edge,65958f57929aaa555306baf9,young
426.89999997615814,shortestpath_phase,GW/snail.jpg,49.0,GW/camera.jpg,GW/jukebox.jpg,0.0,GW/jukebox.jpg,Two Edge Diff,Two Edge Four Edge,65958f57929aaa555306baf9,young
1622.199999988079,shortestpath_phase,GW/dustpan.jpg,49.0,GW/paint.jpg,GW/soldier.jpg,0.0,GW/soldier.jpg,Three Edge Diff,Two Edge Five Edge,65958f57929aaa555306baf9,young
2104.199999988079,shortestpath_phase,GW/teeth.jpg,49.0,GW/jukebox.jpg,GW/snail.jpg,1.0,GW/jukebox.jpg,Two Edge Diff,Three Edge Five Edge,65958f57929aaa555306baf9,young
4106.0,shortestpath_phase,GW/wheelchair.jpg,50.0,GW/gong.jpg,GW/soldier.jpg,1.0,GW/soldier.jpg,Two Edge Diff,Three Edge Five Edge,65958f57929aaa555306baf9,young
1352.800000011921,shortestpath_phase,GW/camera.jpg,49.0,GW/globe.jpg,GW/teeth.jpg,1.0,GW/globe.jpg,One Edge Diff,Two Edge Three Edge,65958f57929aaa555306baf9,young
721.0,shortestpath_phase,GW/paint.jpg,50.0,GW/hat.jpg,GW/gong.jpg,1.0,GW/gong.jpg,Three Edge Diff,Three Edge Six Edge,65958f57929aaa555306baf9,young
1093.199999988079,shortestpath_phase,GW/teeth.jpg,49.0,GW/wheelchair.jpg,GW/globe.jpg,0.0,GW/globe.jpg,Four Edge Diff,Two Edge Six Edge,65958f57929aaa555306baf9,young
3948.599999964237,shortestpath_phase,GW/paint.jpg,49.0,GW/gong.jpg,GW/wheelchair.jpg,1.0,GW/gong.jpg,Four Edge Diff,Two Edge Six Edge,65958f57929aaa555306baf9,young
1137.800000011921,shortestpath_phase,GW/barrel.jpg,50.0,GW/basket.jpg,GW/snail.jpg,0.0,GW/basket.jpg,Two Edge Diff,Three Edge Five Edge,65958f57929aaa555306baf9,young
1295.800000011921,shortestpath_phase,GW/snail.jpg,50.0,GW/soldier.jpg,GW/barrel.jpg,0.0,GW/soldier.jpg,Two Edge Diff,Three Edge Five Edge,65958f57929aaa555306baf9,young
1074.600000023842,shortestpath_phase,GW/wheelchair.jpg,50.0,GW/teeth.jpg,GW/gong.jpg,1.0,GW/gong.jpg,One Edge Diff,Five Edge Six Edge,65958f57929aaa555306baf9,young
4482.699999988079,shortestpath_phase,GW/dustpan.jpg,50.0,GW/paint.jpg,GW/globe.jpg,1.0,GW/globe.jpg,Three Edge Diff,Two Edge Five Edge,65958f57929aaa555306baf9,young
1587.5,shortestpath_phase,GW/basket.jpg,50.0,GW/paint.jpg,GW/snail.jpg,1.0,GW/snail.jpg,Two Edge Diff,Two Edge Four Edge,65958f57929aaa555306baf9,young
752.8000000119209,shortestpath_phase,GW/teeth.jpg,50.0,GW/hat.jpg,GW/wheelchair.jpg,0.0,GW/hat.jpg,One Edge Diff,Five Edge Six Edge,65958f57929aaa555306baf9,young
844.7999999523163,shortestpath_phase,GW/basket.jpg,49.0,GW/barrel.jpg,GW/snail.jpg,0.0,GW/snail.jpg,One Edge Diff,Two Edge Three Edge,65958f57929aaa555306baf9,young
2665.100000023842,shortestpath_phase,GW/dustpan.jpg,49.0,GW/soldier.jpg,GW/paint.jpg,1.0,GW/soldier.jpg,Three Edge Diff,Three Edge Six Edge,65958f57929aaa555306baf9,young
5273.400000035763,shortestpath_phase,GW/snail.jpg,49.0,GW/globe.jpg,GW/teeth.jpg,1.0,GW/globe.jpg,Two Edge Diff,Three Edge Five Edge,65958f57929aaa555306baf9,young
1721.0,shortestpath_phase,GW/teeth.jpg,49.0,GW/hat.jpg,GW/basket.jpg,0.0,GW/basket.jpg,One Edge Diff,Four Edge Five Edge,65958f57929aaa555306baf9,young
1230.300000011921,shortestpath_phase,GW/snail.jpg,50.0,GW/barrel.jpg,GW/gong.jpg,1.0,GW/gong.jpg,One Edge Diff,Four Edge Five Edge,65958f57929aaa555306baf9,young
1265.600000023842,shortestpath_phase,GW/wheelchair.jpg,49.0,GW/paint.jpg,GW/globe.jpg,0.0,GW/globe.jpg,Two Edge Diff,Four Edge Six Edge,65958f57929aaa555306baf9,young
1317.800000011921,shortestpath_phase,GW/snail.jpg,49.0,GW/barrel.jpg,GW/paint.jpg,1.0,GW/barrel.jpg,One Edge Diff,Five Edge Six Edge,65958f57929aaa555306baf9,young
2213.0,shortestpath_phase,GW/hat.jpg,49.0,GW/globe.jpg,GW/teeth.jpg,1.0,GW/globe.jpg,Two Edge Diff,Three Edge Five Edge,65958f57929aaa555306baf9,young
1237.9000000357628,shortestpath_phase,GW/paint.jpg,50.0,GW/snail.jpg,GW/gong.jpg,1.0,GW/gong.jpg,Four Edge Diff,Two Edge Six Edge,65958f57929aaa555306baf9,young
1288.600000023842,shortestpath_phase,GW/globe.jpg,50.0,GW/basket.jpg,GW/paint.jpg,0.0,GW/basket.jpg,One Edge Diff,Two Edge Three Edge,65958f57929aaa555306baf9,young
1380.600000023842,shortestpath_phase,GW/paint.jpg,49.0,GW/camera.jpg,GW/snail.jpg,1.0,GW/camera.jpg,Four Edge Diff,Two Edge Six Edge,65958f57929aaa555306baf9,young
2269.899999976158,shortestpath_phase,GW/hat.jpg,49.0,GW/teeth.jpg,GW/soldier.jpg,0.0,GW/soldier.jpg,Three Edge Diff,Three Edge Six Edge,65958f57929aaa555306baf9,young
1227.800000011921,shortestpath_phase,GW/camera.jpg,49.0,GW/dustpan.jpg,GW/wheelchair.jpg,1.0,GW/dustpan.jpg,One Edge Diff,Three Edge Four Edge,65958f57929aaa555306baf9,young
1575.2999999523165,shortestpath_phase,GW/paint.jpg,49.0,GW/jukebox.jpg,GW/hat.jpg,1.0,GW/jukebox.jpg,One Edge Diff,Four Edge Five Edge,65958f57929aaa555306baf9,young
2703.0,shortestpath_phase,GW/barrel.jpg,49.0,GW/soldier.jpg,GW/snail.jpg,1.0,GW/soldier.jpg,Three Edge Diff,Three Edge Six Edge,65958f57929aaa555306baf9,young
1820.199999988079,shortestpath_phase,GW/paint.jpg,49.0,GW/wheelchair.jpg,GW/dustpan.jpg,0.0,GW/dustpan.jpg,One Edge Diff,Five Edge Six Edge,65958f57929aaa555306baf9,young
1680.699999988079,shortestpath_phase,GW/teeth.jpg,50.0,GW/hat.jpg,GW/barrel.jpg,1.0,GW/barrel.jpg,Three Edge Diff,Two Edge Five Edge,65958f57929aaa555306baf9,young
1384.0999999642372,shortestpath_phase,GW/wheelchair.jpg,50.0,GW/paint.jpg,GW/basket.jpg,1.0,GW/basket.jpg,Four Edge Diff,Two Edge Six Edge,65958f57929aaa555306baf9,young
1053.0,shortestpath_phase,GW/hat.jpg,50.0,GW/barrel.jpg,GW/paint.jpg,0.0,GW/barrel.jpg,One Edge Diff,Four Edge Five Edge,65958f57929aaa555306baf9,young
1274.5,shortestpath_phase,GW/teeth.jpg,50.0,GW/basket.jpg,GW/wheelchair.jpg,0.0,GW/basket.jpg,Two Edge Diff,Four Edge Six Edge,65958f57929aaa555306baf9,young
900.0,shortestpath_phase,GW/globe.jpg,50.0,GW/wheelchair.jpg,GW/snail.jpg,1.0,GW/snail.jpg,One Edge Diff,Three Edge Four Edge,65958f57929aaa555306baf9,young
896.5,shortestpath_phase,GW/teeth.jpg,50.0,GW/snail.jpg,GW/barrel.jpg,1.0,GW/barrel.jpg,Three Edge Diff,Two Edge Five Edge,65958f57929aaa555306baf9,young
1427.5,shortestpath_phase,GW/camera.jpg,50.0,GW/globe.jpg,GW/snail.jpg,0.0,GW/globe.jpg,Two Edge Diff,Two Edge Four Edge,65958f57929aaa555306baf9,young
1658.0,shortestpath_phase,GW/snail.jpg,50.0,GW/hat.jpg,GW/gong.jpg,0.0,GW/hat.jpg,Two Edge Diff,Two Edge Four Edge,65958f57929aaa555306baf9,young
2038.300000011921,shortestpath_phase,GW/teeth.jpg,50.0,GW/barrel.jpg,GW/snail.jpg,0.0,GW/barrel.jpg,Three Edge Diff,Three Edge Six Edge,65958f57929aaa555306baf9,young
2003.0999999642372,shortestpath_phase,GW/dustpan.jpg,50.0,GW/barrel.jpg,GW/soldier.jpg,1.0,GW/soldier.jpg,Two Edge Diff,Two Edge Four Edge,65958f57929aaa555306baf9,young
1367.0,shortestpath_phase,GW/paint.jpg,50.0,GW/snail.jpg,GW/basket.jpg,1.0,GW/basket.jpg,Two Edge Diff,Four Edge Six Edge,65958f57929aaa555306baf9,young
1426.5,shortestpath_phase,GW/wheelchair.jpg,49.0,GW/teeth.jpg,GW/globe.jpg,0.0,GW/globe.jpg,Two Edge Diff,Four Edge Six Edge,65958f57929aaa555306baf9,young
1698.699999988079,shortestpath_phase,,49.0,,,1.0,,Two Edge Diff,Four Edge Six Edge,65958f57929aaa555306baf9,young
1581.699999988079,shortestpath_phase,GW/barrel.jpg,49.0,GW/gong.jpg,GW/snail.jpg,0.0,GW/snail.jpg,Two Edge Diff,Four Edge Six Edge,67dcc12657e2fe1375df7f89,young
1325.5999999940395,shortestpath_phase,GW/hat.jpg,49.0,GW/gong.jpg,GW/soldier.jpg,0.0,GW/soldier.jpg,Three Edge Diff,Two Edge Five Edge,67dcc12657e2fe1375df7f89,young
1476.800000011921,shortestpath_phase,GW/paint.jpg,49.0,GW/globe.jpg,GW/camera.jpg,1.0,GW/globe.jpg,One Edge Diff,Four Edge Five Edge,67dcc12657e2fe1375df7f89,young
1651.699999988079,shortestpath_phase,GW/gong.jpg,50.0,GW/teeth.jpg,GW/barrel.jpg,0.0,GW/teeth.jpg,Four Edge Diff,Two Edge Six Edge,67dcc12657e2fe1375df7f89,young
1197.9000000059605,shortestpath_phase,GW/basket.jpg,50.0,GW/hat.jpg,GW/dustpan.jpg,1.0,GW/dustpan.jpg,Three Edge Diff,Three Edge Six Edge,67dcc12657e2fe1375df7f89,young
955.8999999910592,shortestpath_phase,GW/paint.jpg,50.0,GW/camera.jpg,GW/teeth.jpg,1.0,GW/teeth.jpg,Three Edge Diff,Two Edge Five Edge,67dcc12657e2fe1375df7f89,young
1578.2000000029802,shortestpath_phase,GW/barrel.jpg,50.0,GW/globe.jpg,GW/gong.jpg,0.0,GW/globe.jpg,Four Edge Diff,Two Edge Six Edge,67dcc12657e2fe1375df7f89,young
1743.3999999910593,shortestpath_phase,GW/snail.jpg,49.0,GW/paint.jpg,GW/basket.jpg,0.0,GW/basket.jpg,One Edge Diff,Two Edge Three Edge,67dcc12657e2fe1375df7f89,young
1125.0,shortestpath_phase,GW/barrel.jpg,50.0,GW/paint.jpg,GW/wheelchair.jpg,1.0,GW/wheelchair.jpg,One Edge Diff,Five Edge Six Edge,67dcc12657e2fe1375df7f89,young
1960.199999988079,shortestpath_phase,GW/gong.jpg,49.0,GW/hat.jpg,GW/teeth.jpg,0.0,GW/teeth.jpg,Three Edge Diff,Two Edge Five Edge,67dcc12657e2fe1375df7f89,young
1450.5999999940395,shortestpath_phase,GW/barrel.jpg,50.0,GW/basket.jpg,GW/gong.jpg,0.0,GW/basket.jpg,One Edge Diff,Five Edge Six Edge,67dcc12657e2fe1375df7f89,young
1774.2999999970198,shortestpath_phase,GW/camera.jpg,50.0,GW/teeth.jpg,GW/gong.jpg,0.0,GW/teeth.jpg,One Edge Diff,Three Edge Four Edge,67dcc12657e2fe1375df7f89,young
1803.29999999702,shortestpath_phase,GW/hat.jpg,49.0,GW/basket.jpg,GW/globe.jpg,0.0,GW/globe.jpg,Two Edge Diff,Three Edge Five Edge,67dcc12657e2fe1375df7f89,young
1585.0,shortestpath_phase,GW/paint.jpg,49.0,GW/hat.jpg,GW/teeth.jpg,0.0,GW/teeth.jpg,Four Edge Diff,Two Edge Six Edge,67dcc12657e2fe1375df7f89,young
1195.7999999970198,shortestpath_phase,GW/barrel.jpg,50.0,GW/paint.jpg,GW/globe.jpg,1.0,GW/globe.jpg,Four Edge Diff,Two Edge Six Edge,67dcc12657e2fe1375df7f89,young
1840.8999999910593,shortestpath_phase,GW/gong.jpg,49.0,GW/camera.jpg,GW/basket.jpg,0.0,GW/basket.jpg,Two Edge Diff,Two Edge Four Edge,67dcc12657e2fe1375df7f89,young
1247.2999999970198,shortestpath_phase,GW/barrel.jpg,50.0,GW/paint.jpg,GW/teeth.jpg,1.0,GW/teeth.jpg,Two Edge Diff,Four Edge Six Edge,67dcc12657e2fe1375df7f89,young
1260.2999999970198,shortestpath_phase,GW/hat.jpg,49.0,GW/paint.jpg,GW/gong.jpg,0.0,GW/gong.jpg,One Edge Diff,Five Edge Six Edge,67dcc12657e2fe1375df7f89,young
1378.9000000059605,shortestpath_phase,GW/barrel.jpg,49.0,GW/wheelchair.jpg,GW/camera.jpg,0.0,GW/camera.jpg,Three Edge Diff,Three Edge Six Edge,67dcc12657e2fe1375df7f89,young
1799.7000000029802,shortestpath_phase,GW/gong.jpg,49.0,GW/hat.jpg,GW/basket.jpg,0.0,GW/basket.jpg,Three Edge Diff,Three Edge Six Edge,67dcc12657e2fe1375df7f89,young
1099.9000000059605,shortestpath_phase,GW/soldier.jpg,50.0,GW/barrel.jpg,GW/paint.jpg,0.0,GW/barrel.jpg,One Edge Diff,Three Edge Four Edge,67dcc12657e2fe1375df7f89,young
1208.0,shortestpath_phase,GW/dustpan.jpg,50.0,GW/gong.jpg,GW/basket.jpg,1.0,GW/basket.jpg,One Edge Diff,Two Edge Three Edge,67dcc12657e2fe1375df7f89,young
1663.1000000089407,shortestpath_phase,GW/wheelchair.jpg,50.0,GW/hat.jpg,GW/paint.jpg,1.0,GW/paint.jpg,Two Edge Diff,Two Edge Four Edge,67dcc12657e2fe1375df7f89,young
1420.7999999970198,shortestpath_phase,GW/barrel.jpg,49.0,GW/wheelchair.jpg,GW/hat.jpg,0.0,GW/hat.jpg,Two Edge Diff,Three Edge Five Edge,67dcc12657e2fe1375df7f89,young
1559.2000000029802,shortestpath_phase,GW/paint.jpg,50.0,GW/soldier.jpg,GW/camera.jpg,0.0,GW/soldier.jpg,One Edge Diff,Four Edge Five Edge,67dcc12657e2fe1375df7f89,young
1952.29999999702,shortestpath_phase,GW/camera.jpg,50.0,GW/globe.jpg,GW/wheelchair.jpg,0.0,GW/globe.jpg,One Edge Diff,Two Edge Three Edge,67dcc12657e2fe1375df7f89,young
1164.7999999970198,shortestpath_phase,GW/teeth.jpg,49.0,GW/hat.jpg,GW/gong.jpg,0.0,GW/gong.jpg,Two Edge Diff,Two Edge Four Edge,67dcc12657e2fe1375df7f89,young
2101.20000000298,shortestpath_phase,GW/barrel.jpg,49.0,GW/hat.jpg,GW/basket.jpg,1.0,GW/hat.jpg,Two Edge Diff,Three Edge Five Edge,67dcc12657e2fe1375df7f89,young
1209.6000000089407,shortestpath_phase,GW/globe.jpg,50.0,GW/wheelchair.jpg,GW/paint.jpg,0.0,GW/wheelchair.jpg,One Edge Diff,Three Edge Four Edge,67dcc12657e2fe1375df7f89,young
1603.5,shortestpath_phase,GW/barrel.jpg,50.0,GW/dustpan.jpg,GW/snail.jpg,0.0,GW/dustpan.jpg,One Edge Diff,Three Edge Four Edge,67dcc12657e2fe1375df7f89,young
2177.1000000089407,shortestpath_phase,GW/paint.jpg,49.0,GW/barrel.jpg,GW/wheelchair.jpg,0.0,GW/wheelchair.jpg,Four Edge Diff,Two Edge Six Edge,67dcc12657e2fe1375df7f89,young
2020.4000000059605,shortestpath_phase,GW/barrel.jpg,50.0,GW/teeth.jpg,GW/gong.jpg,0.0,GW/teeth.jpg,Two Edge Diff,Four Edge Six Edge,67dcc12657e2fe1375df7f89,young
1372.7000000029802,shortestpath_phase,GW/paint.jpg,49.0,GW/globe.jpg,GW/jukebox.jpg,1.0,GW/globe.jpg,One Edge Diff,Four Edge Five Edge,67dcc12657e2fe1375df7f89,young
1932.6000000089407,shortestpath_phase,GW/barrel.jpg,50.0,GW/camera.jpg,GW/paint.jpg,0.0,GW/camera.jpg,Four Edge Diff,Two Edge Six Edge,67dcc12657e2fe1375df7f89,young
3413.199999988079,shortestpath_phase,GW/basket.jpg,50.0,GW/soldier.jpg,GW/hat.jpg,0.0,GW/soldier.jpg,Two Edge Diff,Three Edge Five Edge,67dcc12657e2fe1375df7f89,young
1440.7999999970198,shortestpath_phase,GW/paint.jpg,50.0,GW/camera.jpg,GW/wheelchair.jpg,1.0,GW/wheelchair.jpg,Three Edge Diff,Three Edge Six Edge,67dcc12657e2fe1375df7f89,young
1179.1000000089407,shortestpath_phase,GW/gong.jpg,49.0,GW/jukebox.jpg,GW/teeth.jpg,0.0,GW/teeth.jpg,Three Edge Diff,Three Edge Six Edge,67dcc12657e2fe1375df7f89,young
1406.0,shortestpath_phase,GW/dustpan.jpg,49.0,GW/hat.jpg,GW/camera.jpg,0.0,GW/camera.jpg,One Edge Diff,Two Edge Three Edge,67dcc12657e2fe1375df7f89,young
1932.199999988079,shortestpath_phase,GW/hat.jpg,49.0,GW/basket.jpg,GW/wheelchair.jpg,0.0,GW/wheelchair.jpg,One Edge Diff,Four Edge Five Edge,67dcc12657e2fe1375df7f89,young
1534.7000000029802,shortestpath_phase,GW/paint.jpg,49.0,GW/soldier.jpg,GW/barrel.jpg,1.0,GW/soldier.jpg,Two Edge Diff,Four Edge Six Edge,67dcc12657e2fe1375df7f89,young
1524.199999988079,shortestpath_phase,GW/jukebox.jpg,50.0,GW/paint.jpg,GW/hat.jpg,1.0,GW/hat.jpg,Three Edge Diff,Two Edge Five Edge,67dcc12657e2fe1375df7f89,young
2657.0,shortestpath_phase,GW/paint.jpg,49.0,GW/teeth.jpg,GW/barrel.jpg,1.0,GW/teeth.jpg,Four Edge Diff,Two Edge Six Edge,67dcc12657e2fe1375df7f89,young
1872.8999999910593,shortestpath_phase,GW/basket.jpg,50.0,GW/barrel.jpg,GW/camera.jpg,1.0,GW/camera.jpg,One Edge Diff,Four Edge Five Edge,67dcc12657e2fe1375df7f89,young
1856.800000011921,shortestpath_phase,GW/paint.jpg,49.0,GW/hat.jpg,GW/jukebox.jpg,0.0,GW/jukebox.jpg,One Edge Diff,Five Edge Six Edge,67dcc12657e2fe1375df7f89,young
1664.2999999970198,shortestpath_phase,GW/hat.jpg,50.0,GW/teeth.jpg,GW/paint.jpg,0.0,GW/teeth.jpg,Two Edge Diff,Four Edge Six Edge,67dcc12657e2fe1375df7f89,young
1257.5,shortestpath_phase,GW/paint.jpg,49.0,GW/soldier.jpg,GW/gong.jpg,0.0,GW/gong.jpg,One Edge Diff,Three Edge Four Edge,67dcc12657e2fe1375df7f89,young
1963.70000000298,shortestpath_phase,GW/hat.jpg,49.0,GW/paint.jpg,GW/wheelchair.jpg,0.0,GW/wheelchair.jpg,Two Edge Diff,Four Edge Six Edge,67dcc12657e2fe1375df7f89,young
1955.70000000298,shortestpath_phase,GW/gong.jpg,50.0,GW/paint.jpg,GW/camera.jpg,0.0,GW/paint.jpg,One Edge Diff,Three Edge Four Edge,67dcc12657e2fe1375df7f89,young
1350.4000000059605,shortestpath_phase,GW/teeth.jpg,49.0,GW/camera.jpg,GW/hat.jpg,1.0,GW/camera.jpg,One Edge Diff,Three Edge Four Edge,67dcc12657e2fe1375df7f89,young
2002.8999999910593,shortestpath_phase,GW/hat.jpg,50.0,GW/jukebox.jpg,GW/paint.jpg,0.0,GW/jukebox.jpg,Four Edge Diff,Two Edge Six Edge,67dcc12657e2fe1375df7f89,young
1545.0,shortestpath_phase,GW/dustpan.jpg,50.0,GW/hat.jpg,GW/snail.jpg,1.0,GW/snail.jpg,One Edge Diff,Two Edge Three Edge,67dcc12657e2fe1375df7f89,young
1663.300000011921,shortestpath_phase,GW/hat.jpg,49.0,GW/soldier.jpg,GW/wheelchair.jpg,1.0,GW/soldier.jpg,Two Edge Diff,Two Edge Four Edge,67dcc12657e2fe1375df7f89,young
1272.9000000059605,shortestpath_phase,GW/gong.jpg,49.0,GW/jukebox.jpg,GW/dustpan.jpg,0.0,GW/dustpan.jpg,Two Edge Diff,Three Edge Five Edge,67dcc12657e2fe1375df7f89,young
1884.4000000059605,shortestpath_phase,GW/hat.jpg,50.0,GW/wheelchair.jpg,GW/jukebox.jpg,1.0,GW/jukebox.jpg,Two Edge Diff,Two Edge Four Edge,67dcc12657e2fe1375df7f89,young
1695.199999988079,shortestpath_phase,GW/camera.jpg,49.0,GW/barrel.jpg,GW/paint.jpg,1.0,GW/barrel.jpg,Three Edge Diff,Two Edge Five Edge,67dcc12657e2fe1375df7f89,young
2360.9000000059605,shortestpath_phase,GW/globe.jpg,49.0,GW/hat.jpg,GW/paint.jpg,1.0,GW/hat.jpg,One Edge Diff,Three Edge Four Edge,67dcc12657e2fe1375df7f89,young
1405.2000000029802,shortestpath_phase,GW/gong.jpg,49.0,GW/barrel.jpg,GW/camera.jpg,0.0,GW/camera.jpg,Two Edge Diff,Four Edge Six Edge,67dcc12657e2fe1375df7f89,young
1229.6000000089407,shortestpath_phase,GW/hat.jpg,49.0,GW/dustpan.jpg,GW/teeth.jpg,1.0,GW/dustpan.jpg,One Edge Diff,Three Edge Four Edge,67dcc12657e2fe1375df7f89,young
1418.7000000029802,shortestpath_phase,GW/snail.jpg,50.0,GW/globe.jpg,GW/barrel.jpg,0.0,GW/globe.jpg,One Edge Diff,Three Edge Four Edge,67dcc12657e2fe1375df7f89,young
930.3999999910592,shortestpath_phase,GW/basket.jpg,49.0,GW/dustpan.jpg,GW/barrel.jpg,1.0,GW/dustpan.jpg,Three Edge Diff,Two Edge Five Edge,67dcc12657e2fe1375df7f89,young
1497.2000000029802,shortestpath_phase,GW/barrel.jpg,50.0,GW/paint.jpg,GW/snail.jpg,1.0,GW/snail.jpg,Two Edge Diff,Four Edge Six Edge,67dcc12657e2fe1375df7f89,young
1198.5,shortestpath_phase,GW/hat.jpg,49.0,GW/basket.jpg,GW/paint.jpg,1.0,GW/basket.jpg,One Edge Diff,Five Edge Six Edge,67dcc12657e2fe1375df7f89,young
1553.0999999940395,shortestpath_phase,GW/snail.jpg,49.0,GW/gong.jpg,GW/barrel.jpg,1.0,GW/gong.jpg,Two Edge Diff,Two Edge Four Edge,67dcc12657e2fe1375df7f89,young
1350.5999999940395,shortestpath_phase,GW/paint.jpg,50.0,GW/barrel.jpg,GW/jukebox.jpg,1.0,GW/jukebox.jpg,One Edge Diff,Five Edge Six Edge,67dcc12657e2fe1375df7f89,young
1266.3999999910593,shortestpath_phase,GW/gong.jpg,50.0,GW/basket.jpg,GW/barrel.jpg,0.0,GW/basket.jpg,Four Edge Diff,Two Edge Six Edge,67dcc12657e2fe1375df7f89,young
1532.9000000059605,shortestpath_phase,GW/paint.jpg,49.0,GW/barrel.jpg,GW/globe.jpg,0.0,GW/globe.jpg,Two Edge Diff,Four Edge Six Edge,67dcc12657e2fe1375df7f89,young
940.0999999940396,shortestpath_phase,GW/gong.jpg,49.0,GW/barrel.jpg,GW/jukebox.jpg,0.0,GW/jukebox.jpg,One Edge Diff,Five Edge Six Edge,67dcc12657e2fe1375df7f89,young
1264.0999999940395,shortestpath_phase,GW/paint.jpg,49.0,GW/hat.jpg,GW/wheelchair.jpg,0.0,GW/wheelchair.jpg,Four Edge Diff,Two Edge Six Edge,67dcc12657e2fe1375df7f89,young
1939.5999999940395,shortestpath_phase,GW/camera.jpg,49.0,GW/dustpan.jpg,GW/paint.jpg,1.0,GW/dustpan.jpg,Three Edge Diff,Three Edge Six Edge,67dcc12657e2fe1375df7f89,young
1303.6000000089407,shortestpath_phase,GW/teeth.jpg,50.0,GW/jukebox.jpg,GW/gong.jpg,1.0,GW/gong.jpg,One Edge Diff,Two Edge Three Edge,67dcc12657e2fe1375df7f89,young
2456.0,shortestpath_phase,GW/globe.jpg,49.0,GW/basket.jpg,GW/paint.jpg,1.0,GW/basket.jpg,One Edge Diff,Three Edge Four Edge,67dcc12657e2fe1375df7f89,young
1495.2999999970198,shortestpath_phase,GW/jukebox.jpg,50.0,GW/soldier.jpg,GW/gong.jpg,0.0,GW/soldier.jpg,Three Edge Diff,Two Edge Five Edge,67dcc12657e2fe1375df7f89,young
1905.4000000059605,shortestpath_phase,GW/wheelchair.jpg,50.0,GW/barrel.jpg,GW/hat.jpg,1.0,GW/hat.jpg,One Edge Diff,Four Edge Five Edge,67dcc12657e2fe1375df7f89,young
1397.5,shortestpath_phase,GW/paint.jpg,49.0,GW/gong.jpg,GW/camera.jpg,1.0,GW/gong.jpg,Two Edge Diff,Three Edge Five Edge,67dcc12657e2fe1375df7f89,young
1253.5,shortestpath_phase,GW/wheelchair.jpg,50.0,GW/soldier.jpg,GW/barrel.jpg,0.0,GW/soldier.jpg,Three Edge Diff,Three Edge Six Edge,67dcc12657e2fe1375df7f89,young
1072.0,shortestpath_phase,GW/hat.jpg,49.0,GW/snail.jpg,GW/gong.jpg,1.0,GW/snail.jpg,Two Edge Diff,Three Edge Five Edge,67dcc12657e2fe1375df7f89,young
1079.5,shortestpath_phase,GW/dustpan.jpg,49.0,GW/paint.jpg,GW/camera.jpg,0.0,GW/camera.jpg,One Edge Diff,Two Edge Three Edge,67dcc12657e2fe1375df7f89,young
1253.2000000029802,shortestpath_phase,GW/hat.jpg,49.0,GW/paint.jpg,GW/soldier.jpg,0.0,GW/soldier.jpg,Four Edge Diff,Two Edge Six Edge,67dcc12657e2fe1375df7f89,young
1327.2000000029802,shortestpath_phase,GW/basket.jpg,50.0,GW/camera.jpg,GW/hat.jpg,0.0,GW/camera.jpg,One Edge Diff,Four Edge Five Edge,67dcc12657e2fe1375df7f89,young
1858.5,shortestpath_phase,GW/globe.jpg,50.0,GW/gong.jpg,GW/soldier.jpg,1.0,GW/soldier.jpg,Two Edge Diff,Two Edge Four Edge,67dcc12657e2fe1375df7f89,young
2303.0,shortestpath_phase,GW/jukebox.jpg,50.0,GW/dustpan.jpg,GW/gong.jpg,0.0,GW/dustpan.jpg,Three Edge Diff,Two Edge Five Edge,67dcc12657e2fe1375df7f89,young
1453.5999999940395,shortestpath_phase,GW/soldier.jpg,50.0,GW/gong.jpg,GW/hat.jpg,1.0,GW/hat.jpg,One Edge Diff,Two Edge Three Edge,67dcc12657e2fe1375df7f89,young
1040.1000000089407,shortestpath_phase,GW/paint.jpg,49.0,GW/hat.jpg,GW/camera.jpg,0.0,GW/camera.jpg,One Edge Diff,Five Edge Six Edge,67dcc12657e2fe1375df7f89,young
1709.0,shortestpath_phase,GW/gong.jpg,49.0,GW/soldier.jpg,GW/camera.jpg,1.0,GW/soldier.jpg,One Edge Diff,Three Edge Four Edge,67dcc12657e2fe1375df7f89,young
1607.7999999970198,shortestpath_phase,GW/hat.jpg,50.0,GW/jukebox.jpg,GW/gong.jpg,0.0,GW/jukebox.jpg,Three Edge Diff,Three Edge Six Edge,67dcc12657e2fe1375df7f89,young
1164.0,shortestpath_phase,GW/paint.jpg,49.0,GW/globe.jpg,GW/hat.jpg,1.0,GW/globe.jpg,Two Edge Diff,Four Edge Six Edge,67dcc12657e2fe1375df7f89,young
2537.5,shortestpath_phase,GW/jukebox.jpg,49.0,GW/hat.jpg,GW/paint.jpg,1.0,GW/hat.jpg,Three Edge Diff,Three Edge Six Edge,67dcc12657e2fe1375df7f89,young
1936.29999999702,shortestpath_phase,GW/barrel.jpg,50.0,GW/paint.jpg,GW/basket.jpg,1.0,GW/basket.jpg,One Edge Diff,Five Edge Six Edge,67dcc12657e2fe1375df7f89,young
1785.9000000059605,shortestpath_phase,GW/hat.jpg,49.0,GW/gong.jpg,GW/soldier.jpg,0.0,GW/soldier.jpg,Three Edge Diff,Three Edge Six Edge,67dcc12657e2fe1375df7f89,young
1133.0,shortestpath_phase,GW/basket.jpg,50.0,GW/camera.jpg,GW/gong.jpg,1.0,GW/gong.jpg,Two Edge Diff,Two Edge Four Edge,67dcc12657e2fe1375df7f89,young
1466.7999999970198,shortestpath_phase,GW/barrel.jpg,49.0,GW/wheelchair.jpg,GW/camera.jpg,0.0,GW/camera.jpg,Three Edge Diff,Two Edge Five Edge,67dcc12657e2fe1375df7f89,young
1523.0,shortestpath_phase,GW/gong.jpg,50.0,GW/hat.jpg,GW/barrel.jpg,0.0,GW/hat.jpg,One Edge Diff,Five Edge Six Edge,67dcc12657e2fe1375df7f89,young
1603.7999999970198,shortestpath_phase,GW/paint.jpg,49.0,GW/jukebox.jpg,GW/soldier.jpg,0.0,GW/soldier.jpg,One Edge Diff,Four Edge Five Edge,67dcc12657e2fe1375df7f89,young
1596.5,shortestpath_phase,GW/gong.jpg,50.0,GW/globe.jpg,GW/hat.jpg,0.0,GW/globe.jpg,One Edge Diff,Four Edge Five Edge,67dcc12657e2fe1375df7f89,young
2167.5,shortestpath_phase,GW/paint.jpg,50.0,GW/soldier.jpg,GW/hat.jpg,0.0,GW/soldier.jpg,Two Edge Diff,Four Edge Six Edge,67dcc12657e2fe1375df7f89,young
1097.4000000059605,shortestpath_phase,GW/barrel.jpg,49.0,GW/wheelchair.jpg,GW/gong.jpg,1.0,GW/wheelchair.jpg,One Edge Diff,Five Edge Six Edge,67dcc12657e2fe1375df7f89,young
1151.5999999940395,shortestpath_phase,GW/globe.jpg,49.0,GW/hat.jpg,GW/soldier.jpg,0.0,GW/soldier.jpg,One Edge Diff,Two Edge Three Edge,67dcc12657e2fe1375df7f89,young
1299.1000000089407,shortestpath_phase,GW/wheelchair.jpg,50.0,GW/dustpan.jpg,GW/camera.jpg,0.0,GW/dustpan.jpg,One Edge Diff,Two Edge Three Edge,67dcc12657e2fe1375df7f89,young
1434.5,shortestpath_phase,GW/globe.jpg,49.0,GW/paint.jpg,GW/soldier.jpg,0.0,GW/soldier.jpg,Two Edge Diff,Two Edge Four Edge,67dcc12657e2fe1375df7f89,young
1838.79999999702,shortestpath_phase,GW/jukebox.jpg,49.0,GW/gong.jpg,GW/hat.jpg,0.0,GW/hat.jpg,Three Edge Diff,Three Edge Six Edge,67dcc12657e2fe1375df7f89,young
1155.0,shortestpath_phase,GW/globe.jpg,50.0,GW/camera.jpg,GW/paint.jpg,0.0,GW/camera.jpg,Two Edge Diff,Two Edge Four Edge,67dcc12657e2fe1375df7f89,young
1491.5999999940395,shortestpath_phase,GW/soldier.jpg,50.0,GW/jukebox.jpg,GW/barrel.jpg,0.0,GW/jukebox.jpg,One Edge Diff,Two Edge Three Edge,67dcc12657e2fe1375df7f89,young
1220.2000000029802,shortestpath_phase,GW/camera.jpg,49.0,GW/snail.jpg,GW/paint.jpg,1.0,GW/snail.jpg,Three Edge Diff,Three Edge Six Edge,67dcc12657e2fe1375df7f89,young
1419.5999999940395,shortestpath_phase,GW/basket.jpg,50.0,GW/barrel.jpg,GW/jukebox.jpg,1.0,GW/jukebox.jpg,One Edge Diff,Four Edge Five Edge,67dcc12657e2fe1375df7f89,young
1397.1000000089407,shortestpath_phase,GW/gong.jpg,49.0,GW/barrel.jpg,GW/snail.jpg,0.0,GW/snail.jpg,Four Edge Diff,Two Edge Six Edge,67dcc12657e2fe1375df7f89,young
1609.5,shortestpath_phase,GW/barrel.jpg,49.0,GW/soldier.jpg,GW/basket.jpg,1.0,GW/soldier.jpg,Two Edge Diff,Three Edge Five Edge,67dcc12657e2fe1375df7f89,young
1377.0,shortestpath_phase,GW/paint.jpg,50.0,GW/barrel.jpg,GW/camera.jpg,1.0,GW/camera.jpg,One Edge Diff,Five Edge Six Edge,67dcc12657e2fe1375df7f89,young
1730.5999999940395,shortestpath_phase,GW/hat.jpg,49.0,GW/basket.jpg,GW/dustpan.jpg,0.0,GW/dustpan.jpg,Two Edge Diff,Three Edge Five Edge,67dcc12657e2fe1375df7f89,young
1522.2999999970198,shortestpath_phase,GW/gong.jpg,50.0,GW/paint.jpg,GW/hat.jpg,0.0,GW/paint.jpg,Two Edge Diff,Three Edge Five Edge,67dcc12657e2fe1375df7f89,young
1553.5,shortestpath_phase,GW/hat.jpg,49.0,GW/teeth.jpg,GW/gong.jpg,1.0,GW/teeth.jpg,One Edge Diff,Four Edge Five Edge,67dcc12657e2fe1375df7f89,young
1237.2999999970198,shortestpath_phase,GW/camera.jpg,49.0,GW/wheelchair.jpg,GW/dustpan.jpg,0.0,GW/dustpan.jpg,One Edge Diff,Two Edge Three Edge,67dcc12657e2fe1375df7f89,young
1301.8999999910593,shortestpath_phase,GW/gong.jpg,50.0,GW/snail.jpg,GW/jukebox.jpg,0.0,GW/snail.jpg,Three Edge Diff,Two Edge Five Edge,67dcc12657e2fe1375df7f89,young
1086.0,shortestpath_phase,GW/wheelchair.jpg,49.0,GW/barrel.jpg,GW/globe.jpg,0.0,GW/globe.jpg,Two Edge Diff,Three Edge Five Edge,67dcc12657e2fe1375df7f89,young
1535.7000000029802,shortestpath_phase,GW/barrel.jpg,49.0,GW/camera.jpg,GW/gong.jpg,1.0,GW/camera.jpg,Four Edge Diff,Two Edge Six Edge,67dcc12657e2fe1375df7f89,young
1056.4000000059605,shortestpath_phase,GW/gong.jpg,50.0,GW/globe.jpg,GW/barrel.jpg,0.0,GW/globe.jpg,Two Edge Diff,Four Edge Six Edge,67dcc12657e2fe1375df7f89,young
1322.8999999910593,shortestpath_phase,GW/jukebox.jpg,50.0,GW/paint.jpg,GW/dustpan.jpg,1.0,GW/dustpan.jpg,Three Edge Diff,Two Edge Five Edge,67dcc12657e2fe1375df7f89,young
1236.8999999910593,shortestpath_phase,GW/gong.jpg,50.0,GW/hat.jpg,GW/camera.jpg,1.0,GW/camera.jpg,One Edge Diff,Four Edge Five Edge,67dcc12657e2fe1375df7f89,young
1109.7000000029802,shortestpath_phase,GW/jukebox.jpg,50.0,GW/dustpan.jpg,GW/wheelchair.jpg,0.0,GW/dustpan.jpg,Two Edge Diff,Two Edge Four Edge,67dcc12657e2fe1375df7f89,young
1864.3999999910593,shortestpath_phase,GW/gong.jpg,49.0,GW/snail.jpg,GW/hat.jpg,1.0,GW/snail.jpg,Three Edge Diff,Two Edge Five Edge,67dcc12657e2fe1375df7f89,young
1250.3999999910593,shortestpath_phase,GW/camera.jpg,50.0,GW/dustpan.jpg,GW/gong.jpg,0.0,GW/dustpan.jpg,Two Edge Diff,Two Edge Four Edge,67dcc12657e2fe1375df7f89,young
2326.5999999940395,shortestpath_phase,,49.0,,,1.0,,Two Edge Diff,Three Edge Five Edge,67dcc12657e2fe1375df7f89,young
3014.7999999523163,shortestpath_phase,GW/hat.jpg,50.0,GW/gong.jpg,GW/barrel.jpg,1.0,GW/barrel.jpg,Four Edge Diff,Two Edge Six Edge,67e42a7bdae7875a883eead0,young
2547.5,shortestpath_phase,GW/wheelchair.jpg,50.0,GW/snail.jpg,GW/paint.jpg,0.0,GW/snail.jpg,One Edge Diff,Two Edge Three Edge,67e42a7bdae7875a883eead0,young
2117.899999976158,shortestpath_phase,GW/barrel.jpg,50.0,GW/wheelchair.jpg,GW/globe.jpg,1.0,GW/globe.jpg,Three Edge Diff,Two Edge Five Edge,67e42a7bdae7875a883eead0,young
2577.5,shortestpath_phase,GW/camera.jpg,49.0,GW/soldier.jpg,GW/hat.jpg,1.0,GW/soldier.jpg,Two Edge Diff,Three Edge Five Edge,67e42a7bdae7875a883eead0,young
2994.800000011921,shortestpath_phase,GW/hat.jpg,50.0,GW/soldier.jpg,GW/barrel.jpg,1.0,GW/barrel.jpg,One Edge Diff,Two Edge Three Edge,67e42a7bdae7875a883eead0,young
2685.599999964237,shortestpath_phase,GW/wheelchair.jpg,50.0,GW/hat.jpg,GW/snail.jpg,1.0,GW/snail.jpg,Four Edge Diff,Two Edge Six Edge,67e42a7bdae7875a883eead0,young
2704.100000023842,shortestpath_phase,GW/jukebox.jpg,50.0,GW/camera.jpg,GW/hat.jpg,1.0,GW/hat.jpg,Two Edge Diff,Three Edge Five Edge,67e42a7bdae7875a883eead0,young
