rt,trial_type,stimulus,key_press,accuracy,stimulus_down_left,stimulus_down_mid,stimulus_down_right,stimulus_correct,stimulus_short,stimulus_far,partid,age
2641.9000000059605,directmemory_phase,GW/teeth.jpg,51.0,1.0,GW/hat.jpg,GW/gong.jpg,GW/snail.jpg,GW/snail.jpg,GW/gong.jpg,GW/hat.jpg,67dcc12657e2fe1375df7f89,young
2749.20000000298,directmemory_phase,GW/hat.jpg,51.0,0.0,GW/jukebox.jpg,GW/camera.jpg,GW/dustpan.jpg,GW/camera.jpg,GW/jukebox.jpg,GW/dustpan.jpg,67dcc12657e2fe1375df7f89,young
2410.0999999940395,directmemory_phase,GW/dustpan.jpg,50.0,1.0,GW/basket.jpg,GW/soldier.jpg,GW/gong.jpg,GW/soldier.jpg,GW/basket.jpg,GW/gong.jpg,67dcc12657e2fe1375df7f89,young
2559.5999999940395,directmemory_phase,GW/camera.jpg,49.0,1.0,GW/jukebox.jpg,GW/basket.jpg,GW/snail.jpg,GW/jukebox.jpg,GW/snail.jpg,GW/basket.jpg,67dcc12657e2fe1375df7f89,young
4452.0,directmemory_phase,GW/teeth.jpg,50.0,0.0,GW/wheelchair.jpg,GW/hat.jpg,GW/soldier.jpg,GW/wheelchair.jpg,GW/soldier.jpg,GW/hat.jpg,67dcc12657e2fe1375df7f89,young
6194.0,directmemory_phase,GW/soldier.jpg,49.0,0.0,GW/hat.jpg,GW/snail.jpg,GW/gong.jpg,GW/snail.jpg,GW/hat.jpg,GW/gong.jpg,67dcc12657e2fe1375df7f89,young
,directmemory_phase,GW/teeth.jpg,,0.0,GW/hat.jpg,GW/gong.jpg,GW/basket.jpg,GW/basket.jpg,GW/gong.jpg,GW/hat.jpg,67dcc12657e2fe1375df7f89,young
2022.8999999910593,directmemory_phase,GW/jukebox.jpg,51.0,1.0,GW/teeth.jpg,GW/hat.jpg,GW/globe.jpg,GW/globe.jpg,GW/hat.jpg,GW/teeth.jpg,67dcc12657e2fe1375df7f89,young
2478.5,directmemory_phase,GW/wheelchair.jpg,50.0,0.0,GW/snail.jpg,GW/jukebox.jpg,GW/soldier.jpg,GW/snail.jpg,GW/soldier.jpg,GW/jukebox.jpg,67dcc12657e2fe1375df7f89,young
2470.5,directmemory_phase,GW/dustpan.jpg,49.0,0.0,GW/jukebox.jpg,GW/globe.jpg,GW/hat.jpg,GW/globe.jpg,GW/jukebox.jpg,GW/hat.jpg,67dcc12657e2fe1375df7f89,young
2135.0999999940395,directmemory_phase,GW/camera.jpg,50.0,0.0,GW/wheelchair.jpg,GW/dustpan.jpg,GW/soldier.jpg,GW/soldier.jpg,GW/dustpan.jpg,GW/wheelchair.jpg,67dcc12657e2fe1375df7f89,young
1772.300000011921,directmemory_phase,GW/globe.jpg,50.0,0.0,GW/gong.jpg,GW/barrel.jpg,GW/dustpan.jpg,GW/dustpan.jpg,GW/barrel.jpg,GW/gong.jpg,67dcc12657e2fe1375df7f89,young
1935.20000000298,directmemory_phase,GW/wheelchair.jpg,51.0,1.0,GW/globe.jpg,GW/dustpan.jpg,GW/teeth.jpg,GW/teeth.jpg,GW/dustpan.jpg,GW/globe.jpg,67dcc12657e2fe1375df7f89,young
1771.2999999970198,directmemory_phase,GW/barrel.jpg,49.0,1.0,GW/jukebox.jpg,GW/teeth.jpg,GW/globe.jpg,GW/jukebox.jpg,GW/globe.jpg,GW/teeth.jpg,67dcc12657e2fe1375df7f89,young
2027.70000000298,directmemory_phase,GW/camera.jpg,50.0,0.0,GW/wheelchair.jpg,GW/barrel.jpg,GW/hat.jpg,GW/hat.jpg,GW/barrel.jpg,GW/wheelchair.jpg,67dcc12657e2fe1375df7f89,young
1672.2000000029802,directmemory_phase,GW/jukebox.jpg,49.0,1.0,GW/barrel.jpg,GW/teeth.jpg,GW/dustpan.jpg,GW/barrel.jpg,GW/dustpan.jpg,GW/teeth.jpg,67dcc12657e2fe1375df7f89,young
1597.7999999970198,directmemory_phase,GW/soldier.jpg,50.0,0.0,GW/camera.jpg,GW/paint.jpg,GW/jukebox.jpg,GW/camera.jpg,GW/jukebox.jpg,GW/paint.jpg,67dcc12657e2fe1375df7f89,young
1849.5,directmemory_phase,GW/basket.jpg,50.0,0.0,GW/paint.jpg,GW/jukebox.jpg,GW/dustpan.jpg,GW/paint.jpg,GW/dustpan.jpg,GW/jukebox.jpg,67dcc12657e2fe1375df7f89,young
1839.4000000059605,directmemory_phase,GW/jukebox.jpg,51.0,1.0,GW/basket.jpg,GW/dustpan.jpg,GW/camera.jpg,GW/camera.jpg,GW/dustpan.jpg,GW/basket.jpg,67dcc12657e2fe1375df7f89,young
1233.9000000059605,directmemory_phase,GW/snail.jpg,50.0,1.0,GW/gong.jpg,GW/teeth.jpg,GW/jukebox.jpg,GW/teeth.jpg,GW/gong.jpg,GW/jukebox.jpg,67dcc12657e2fe1375df7f89,young
1171.5999999940395,directmemory_phase,GW/gong.jpg,51.0,1.0,GW/globe.jpg,GW/teeth.jpg,GW/wheelchair.jpg,GW/wheelchair.jpg,GW/teeth.jpg,GW/globe.jpg,67dcc12657e2fe1375df7f89,young
1457.300000011921,directmemory_phase,GW/snail.jpg,49.0,0.0,GW/paint.jpg,GW/basket.jpg,GW/soldier.jpg,GW/soldier.jpg,GW/basket.jpg,GW/paint.jpg,67dcc12657e2fe1375df7f89,young
1370.0,directmemory_phase,GW/basket.jpg,50.0,0.0,GW/soldier.jpg,GW/gong.jpg,GW/wheelchair.jpg,GW/wheelchair.jpg,GW/gong.jpg,GW/soldier.jpg,67dcc12657e2fe1375df7f89,young
2121.20000000298,directmemory_phase,GW/globe.jpg,49.0,0.0,GW/snail.jpg,GW/barrel.jpg,GW/jukebox.jpg,GW/jukebox.jpg,GW/barrel.jpg,GW/snail.jpg,67dcc12657e2fe1375df7f89,young
1502.0999999940395,directmemory_phase,GW/wheelchair.jpg,50.0,1.0,GW/dustpan.jpg,GW/basket.jpg,GW/globe.jpg,GW/basket.jpg,GW/dustpan.jpg,GW/globe.jpg,67dcc12657e2fe1375df7f89,young
2407.6000000089407,directmemory_phase,GW/soldier.jpg,51.0,1.0,GW/barrel.jpg,GW/wheelchair.jpg,GW/dustpan.jpg,GW/dustpan.jpg,GW/wheelchair.jpg,GW/barrel.jpg,67dcc12657e2fe1375df7f89,young
1787.5999999940395,directmemory_phase,GW/paint.jpg,49.0,1.0,GW/basket.jpg,GW/globe.jpg,GW/teeth.jpg,GW/basket.jpg,GW/teeth.jpg,GW/globe.jpg,67dcc12657e2fe1375df7f89,young
1768.5999999940395,directmemory_phase,GW/dustpan.jpg,50.0,0.0,GW/teeth.jpg,GW/hat.jpg,GW/wheelchair.jpg,GW/teeth.jpg,GW/wheelchair.jpg,GW/hat.jpg,67dcc12657e2fe1375df7f89,young
2072.1000000089407,directmemory_phase,GW/wheelchair.jpg,49.0,0.0,GW/camera.jpg,GW/soldier.jpg,GW/gong.jpg,GW/gong.jpg,GW/soldier.jpg,GW/camera.jpg,67dcc12657e2fe1375df7f89,young
1742.7000000029802,directmemory_phase,GW/teeth.jpg,51.0,0.0,GW/gong.jpg,GW/dustpan.jpg,GW/camera.jpg,GW/dustpan.jpg,GW/gong.jpg,GW/camera.jpg,67dcc12657e2fe1375df7f89,young
2077.70000000298,directmemory_phase,GW/snail.jpg,50.0,0.0,GW/paint.jpg,GW/gong.jpg,GW/wheelchair.jpg,GW/wheelchair.jpg,GW/gong.jpg,GW/paint.jpg,67dcc12657e2fe1375df7f89,young
2443.9000000059605,directmemory_phase,GW/basket.jpg,50.0,0.0,GW/teeth.jpg,GW/jukebox.jpg,GW/dustpan.jpg,GW/teeth.jpg,GW/dustpan.jpg,GW/jukebox.jpg,67dcc12657e2fe1375df7f89,young
2975.7999999523163,directmemory_phase,GW/gong.jpg,50.0,1.0,GW/basket.jpg,GW/jukebox.jpg,GW/soldier.jpg,GW/jukebox.jpg,GW/basket.jpg,GW/soldier.jpg,67ce1feb43ee9200186c94b3,old
5864.5,directmemory_phase,GW/dustpan.jpg,49.0,0.0,GW/jukebox.jpg,GW/basket.jpg,GW/camera.jpg,GW/camera.jpg,GW/basket.jpg,GW/jukebox.jpg,67ce1feb43ee9200186c94b3,old
5329.899999976158,directmemory_phase,GW/barrel.jpg,50.0,1.0,GW/teeth.jpg,GW/soldier.jpg,GW/camera.jpg,GW/soldier.jpg,GW/teeth.jpg,GW/camera.jpg,67ce1feb43ee9200186c94b3,old
3440.6999999284744,directmemory_phase,GW/camera.jpg,51.0,1.0,GW/barrel.jpg,GW/jukebox.jpg,GW/basket.jpg,GW/basket.jpg,GW/jukebox.jpg,GW/barrel.jpg,67ce1feb43ee9200186c94b3,old
4082.8000000715256,directmemory_phase,GW/soldier.jpg,51.0,1.0,GW/dustpan.jpg,GW/basket.jpg,GW/hat.jpg,GW/hat.jpg,GW/basket.jpg,GW/dustpan.jpg,67ce1feb43ee9200186c94b3,old
4576.899999976158,directmemory_phase,GW/jukebox.jpg,49.0,1.0,GW/gong.jpg,GW/teeth.jpg,GW/basket.jpg,GW/gong.jpg,GW/basket.jpg,GW/teeth.jpg,67ce1feb43ee9200186c94b3,old
4683.699999928474,directmemory_phase,GW/soldier.jpg,50.0,1.0,GW/snail.jpg,GW/barrel.jpg,GW/paint.jpg,GW/barrel.jpg,GW/snail.jpg,GW/paint.jpg,67ce1feb43ee9200186c94b3,old
3538.600000023842,directmemory_phase,GW/hat.jpg,50.0,0.0,GW/basket.jpg,GW/paint.jpg,GW/camera.jpg,GW/basket.jpg,GW/camera.jpg,GW/paint.jpg,67ce1feb43ee9200186c94b3,old
5152.800000071526,directmemory_phase,GW/globe.jpg,49.0,0.0,GW/hat.jpg,GW/wheelchair.jpg,GW/barrel.jpg,GW/barrel.jpg,GW/wheelchair.jpg,GW/hat.jpg,67ce1feb43ee9200186c94b3,old
,directmemory_phase,GW/camera.jpg,,0.0,GW/snail.jpg,GW/hat.jpg,GW/gong.jpg,GW/gong.jpg,GW/hat.jpg,GW/snail.jpg,67ce1feb43ee9200186c94b3,old
3547.6999999284744,directmemory_phase,GW/wheelchair.jpg,51.0,1.0,GW/camera.jpg,GW/basket.jpg,GW/teeth.jpg,GW/teeth.jpg,GW/basket.jpg,GW/camera.jpg,67ce1feb43ee9200186c94b3,old
3929.3000000715256,directmemory_phase,GW/hat.jpg,51.0,1.0,GW/paint.jpg,GW/barrel.jpg,GW/jukebox.jpg,GW/jukebox.jpg,GW/barrel.jpg,GW/paint.jpg,67ce1feb43ee9200186c94b3,old
5114.299999952316,directmemory_phase,GW/basket.jpg,51.0,0.0,GW/teeth.jpg,GW/paint.jpg,GW/gong.jpg,GW/teeth.jpg,GW/gong.jpg,GW/paint.jpg,67ce1feb43ee9200186c94b3,old
5647.300000071526,directmemory_phase,GW/wheelchair.jpg,50.0,0.0,GW/barrel.jpg,GW/gong.jpg,GW/globe.jpg,GW/barrel.jpg,GW/globe.jpg,GW/gong.jpg,67ce1feb43ee9200186c94b3,old
4355.899999976158,directmemory_phase,GW/teeth.jpg,50.0,0.0,GW/gong.jpg,GW/hat.jpg,GW/basket.jpg,GW/basket.jpg,GW/hat.jpg,GW/gong.jpg,67ce1feb43ee9200186c94b3,old
5583.600000023842,directmemory_phase,GW/hat.jpg,50.0,0.0,GW/soldier.jpg,GW/globe.jpg,GW/camera.jpg,GW/soldier.jpg,GW/camera.jpg,GW/globe.jpg,67ce1feb43ee9200186c94b3,old
4521.5,directmemory_phase,GW/teeth.jpg,51.0,1.0,GW/globe.jpg,GW/camera.jpg,GW/wheelchair.jpg,GW/wheelchair.jpg,GW/camera.jpg,GW/globe.jpg,67ce1feb43ee9200186c94b3,old
4535.600000023842,directmemory_phase,GW/basket.jpg,51.0,1.0,GW/snail.jpg,GW/dustpan.jpg,GW/hat.jpg,GW/hat.jpg,GW/dustpan.jpg,GW/snail.jpg,67ce1feb43ee9200186c94b3,old
4825.0,directmemory_phase,GW/barrel.jpg,49.0,0.0,GW/gong.jpg,GW/teeth.jpg,GW/wheelchair.jpg,GW/wheelchair.jpg,GW/teeth.jpg,GW/gong.jpg,67ce1feb43ee9200186c94b3,old
4258.5,directmemory_phase,GW/gong.jpg,51.0,1.0,GW/wheelchair.jpg,GW/hat.jpg,GW/paint.jpg,GW/paint.jpg,GW/hat.jpg,GW/wheelchair.jpg,67ce1feb43ee9200186c94b3,old
4622.899999976158,directmemory_phase,GW/barrel.jpg,51.0,1.0,GW/jukebox.jpg,GW/hat.jpg,GW/globe.jpg,GW/globe.jpg,GW/hat.jpg,GW/jukebox.jpg,67ce1feb43ee9200186c94b3,old
2760.0,directmemory_phase,GW/soldier.jpg,49.0,0.0,GW/paint.jpg,GW/basket.jpg,GW/wheelchair.jpg,GW/wheelchair.jpg,GW/basket.jpg,GW/paint.jpg,67ce1feb43ee9200186c94b3,old
3514.0,directmemory_phase,GW/jukebox.jpg,49.0,0.0,GW/snail.jpg,GW/paint.jpg,GW/hat.jpg,GW/hat.jpg,GW/paint.jpg,GW/snail.jpg,67ce1feb43ee9200186c94b3,old
3386.0,directmemory_phase,GW/teeth.jpg,51.0,0.0,GW/soldier.jpg,GW/gong.jpg,GW/hat.jpg,GW/soldier.jpg,GW/hat.jpg,GW/gong.jpg,67ce1feb43ee9200186c94b3,old
3864.399999976158,directmemory_phase,GW/paint.jpg,49.0,1.0,GW/gong.jpg,GW/basket.jpg,GW/camera.jpg,GW/gong.jpg,GW/camera.jpg,GW/basket.jpg,67ce1feb43ee9200186c94b3,old
4194.299999952316,directmemory_phase,GW/wheelchair.jpg,49.0,1.0,GW/snail.jpg,GW/gong.jpg,GW/basket.jpg,GW/snail.jpg,GW/basket.jpg,GW/gong.jpg,67ce1feb43ee9200186c94b3,old
3848.100000023842,directmemory_phase,GW/gong.jpg,49.0,0.0,GW/soldier.jpg,GW/hat.jpg,GW/camera.jpg,GW/camera.jpg,GW/hat.jpg,GW/soldier.jpg,67ce1feb43ee9200186c94b3,old
3185.0,directmemory_phase,GW/soldier.jpg,49.0,0.0,GW/gong.jpg,GW/basket.jpg,GW/teeth.jpg,GW/teeth.jpg,GW/basket.jpg,GW/gong.jpg,67ce1feb43ee9200186c94b3,old
3969.600000023842,directmemory_phase,GW/camera.jpg,50.0,0.0,GW/dustpan.jpg,GW/soldier.jpg,GW/jukebox.jpg,GW/dustpan.jpg,GW/jukebox.jpg,GW/soldier.jpg,67ce1feb43ee9200186c94b3,old
3364.600000023842,directmemory_phase,GW/wheelchair.jpg,49.0,0.0,GW/jukebox.jpg,GW/globe.jpg,GW/soldier.jpg,GW/soldier.jpg,GW/globe.jpg,GW/jukebox.jpg,67ce1feb43ee9200186c94b3,old
3873.100000023842,directmemory_phase,GW/basket.jpg,51.0,0.0,GW/dustpan.jpg,GW/camera.jpg,GW/barrel.jpg,GW/camera.jpg,GW/dustpan.jpg,GW/barrel.jpg,67ce1feb43ee9200186c94b3,old
3257.7999999523163,directmemory_phase,GW/snail.jpg,51.0,1.0,GW/jukebox.jpg,GW/soldier.jpg,GW/wheelchair.jpg,GW/wheelchair.jpg,GW/soldier.jpg,GW/jukebox.jpg,67ce1feb43ee9200186c94b3,old
2077.7999999988824,directmemory_phase,GW/jukebox.jpg,51.0,0.0,GW/snail.jpg,GW/globe.jpg,GW/barrel.jpg,GW/snail.jpg,GW/barrel.jpg,GW/globe.jpg,5bcc60b95c2b810001dc68e2,young
2533.89999999851,directmemory_phase,GW/teeth.jpg,49.0,0.0,GW/jukebox.jpg,GW/hat.jpg,GW/globe.jpg,GW/globe.jpg,GW/hat.jpg,GW/jukebox.jpg,5bcc60b95c2b810001dc68e2,young
2868.699999999255,directmemory_phase,GW/gong.jpg,49.0,1.0,GW/dustpan.jpg,GW/wheelchair.jpg,GW/paint.jpg,GW/dustpan.jpg,GW/paint.jpg,GW/wheelchair.jpg,5bcc60b95c2b810001dc68e2,young
1668.9000000003723,directmemory_phase,GW/barrel.jpg,50.0,0.0,GW/teeth.jpg,GW/snail.jpg,GW/paint.jpg,GW/paint.jpg,GW/snail.jpg,GW/teeth.jpg,5bcc60b95c2b810001dc68e2,young
2156.9000000003725,directmemory_phase,GW/gong.jpg,49.0,1.0,GW/snail.jpg,GW/camera.jpg,GW/globe.jpg,GW/snail.jpg,GW/globe.jpg,GW/camera.jpg,5bcc60b95c2b810001dc68e2,young
1301.5999999996277,directmemory_phase,GW/wheelchair.jpg,51.0,0.0,GW/barrel.jpg,GW/jukebox.jpg,GW/paint.jpg,GW/barrel.jpg,GW/paint.jpg,GW/jukebox.jpg,5bcc60b95c2b810001dc68e2,young
1274.800000000745,directmemory_phase,GW/dustpan.jpg,50.0,0.0,GW/basket.jpg,GW/globe.jpg,GW/teeth.jpg,GW/teeth.jpg,GW/globe.jpg,GW/basket.jpg,5bcc60b95c2b810001dc68e2,young
1363.2000000011176,directmemory_phase,GW/snail.jpg,50.0,0.0,GW/soldier.jpg,GW/dustpan.jpg,GW/gong.jpg,GW/gong.jpg,GW/dustpan.jpg,GW/soldier.jpg,5bcc60b95c2b810001dc68e2,young
854.2000000011176,directmemory_phase,GW/jukebox.jpg,50.0,0.0,GW/hat.jpg,GW/wheelchair.jpg,GW/paint.jpg,GW/hat.jpg,GW/paint.jpg,GW/wheelchair.jpg,5bcc60b95c2b810001dc68e2,young
1704.5999999996277,directmemory_phase,GW/gong.jpg,51.0,1.0,GW/wheelchair.jpg,GW/globe.jpg,GW/teeth.jpg,GW/teeth.jpg,GW/globe.jpg,GW/wheelchair.jpg,5bcc60b95c2b810001dc68e2,young
943.0,directmemory_phase,GW/snail.jpg,51.0,0.0,GW/paint.jpg,GW/soldier.jpg,GW/barrel.jpg,GW/paint.jpg,GW/barrel.jpg,GW/soldier.jpg,5bcc60b95c2b810001dc68e2,young
1704.9000000003723,directmemory_phase,GW/gong.jpg,49.0,0.0,GW/soldier.jpg,GW/hat.jpg,GW/basket.jpg,GW/hat.jpg,GW/soldier.jpg,GW/basket.jpg,5bcc60b95c2b810001dc68e2,young
1479.7000000011176,directmemory_phase,GW/barrel.jpg,50.0,0.0,GW/hat.jpg,GW/snail.jpg,GW/wheelchair.jpg,GW/wheelchair.jpg,GW/snail.jpg,GW/hat.jpg,5bcc60b95c2b810001dc68e2,young
2950.0,directmemory_phase,GW/dustpan.jpg,49.0,0.0,GW/jukebox.jpg,GW/gong.jpg,GW/basket.jpg,GW/gong.jpg,GW/jukebox.jpg,GW/basket.jpg,5bcc60b95c2b810001dc68e2,young
1371.2999999988824,directmemory_phase,GW/paint.jpg,50.0,1.0,GW/gong.jpg,GW/snail.jpg,GW/hat.jpg,GW/snail.jpg,GW/gong.jpg,GW/hat.jpg,5bcc60b95c2b810001dc68e2,young
1834.300000000745,directmemory_phase,GW/hat.jpg,51.0,1.0,GW/paint.jpg,GW/soldier.jpg,GW/dustpan.jpg,GW/dustpan.jpg,GW/soldier.jpg,GW/paint.jpg,5bcc60b95c2b810001dc68e2,young
3533.800000000745,directmemory_phase,GW/teeth.jpg,50.0,0.0,GW/barrel.jpg,GW/snail.jpg,GW/gong.jpg,GW/gong.jpg,GW/snail.jpg,GW/barrel.jpg,5bcc60b95c2b810001dc68e2,young
1991.5999999996277,directmemory_phase,GW/paint.jpg,49.0,0.0,GW/camera.jpg,GW/jukebox.jpg,GW/barrel.jpg,GW/barrel.jpg,GW/jukebox.jpg,GW/camera.jpg,5bcc60b95c2b810001dc68e2,young
2147.0999999996275,directmemory_phase,GW/dustpan.jpg,50.0,0.0,GW/camera.jpg,GW/snail.jpg,GW/soldier.jpg,GW/soldier.jpg,GW/snail.jpg,GW/camera.jpg,5bcc60b95c2b810001dc68e2,young
2636.199999999255,directmemory_phase,GW/camera.jpg,49.0,0.0,GW/barrel.jpg,GW/basket.jpg,GW/paint.jpg,GW/basket.jpg,GW/barrel.jpg,GW/paint.jpg,5bcc60b95c2b810001dc68e2,young
2580.2000000011176,directmemory_phase,GW/soldier.jpg,49.0,1.0,GW/dustpan.jpg,GW/basket.jpg,GW/gong.jpg,GW/dustpan.jpg,GW/gong.jpg,GW/basket.jpg,5bcc60b95c2b810001dc68e2,young
2668.60000000149,directmemory_phase,GW/hat.jpg,50.0,0.0,GW/gong.jpg,GW/camera.jpg,GW/soldier.jpg,GW/gong.jpg,GW/soldier.jpg,GW/camera.jpg,5bcc60b95c2b810001dc68e2,young
1851.0,directmemory_phase,GW/teeth.jpg,50.0,1.0,GW/snail.jpg,GW/dustpan.jpg,GW/jukebox.jpg,GW/dustpan.jpg,GW/snail.jpg,GW/jukebox.jpg,5bcc60b95c2b810001dc68e2,young
1023.0999999996276,directmemory_phase,GW/jukebox.jpg,50.0,1.0,GW/dustpan.jpg,GW/basket.jpg,GW/soldier.jpg,GW/basket.jpg,GW/dustpan.jpg,GW/soldier.jpg,5bcc60b95c2b810001dc68e2,young
2357.0,directmemory_phase,GW/dustpan.jpg,49.0,0.0,GW/barrel.jpg,GW/globe.jpg,GW/hat.jpg,GW/hat.jpg,GW/globe.jpg,GW/barrel.jpg,5bcc60b95c2b810001dc68e2,young
2528.4000000003725,directmemory_phase,GW/globe.jpg,51.0,0.0,GW/teeth.jpg,GW/snail.jpg,GW/dustpan.jpg,GW/teeth.jpg,GW/dustpan.jpg,GW/snail.jpg,5bcc60b95c2b810001dc68e2,young
1733.9000000003723,directmemory_phase,GW/hat.jpg,51.0,0.0,GW/jukebox.jpg,GW/wheelchair.jpg,GW/snail.jpg,GW/jukebox.jpg,GW/snail.jpg,GW/wheelchair.jpg,5bcc60b95c2b810001dc68e2,young
1773.10000000149,directmemory_phase,GW/basket.jpg,50.0,0.0,GW/gong.jpg,GW/snail.jpg,GW/camera.jpg,GW/camera.jpg,GW/snail.jpg,GW/gong.jpg,5bcc60b95c2b810001dc68e2,young
747.3000000007451,directmemory_phase,GW/snail.jpg,50.0,1.0,GW/basket.jpg,GW/jukebox.jpg,GW/camera.jpg,GW/jukebox.jpg,GW/basket.jpg,GW/camera.jpg,5bcc60b95c2b810001dc68e2,young
908.8000000007452,directmemory_phase,GW/barrel.jpg,50.0,0.0,GW/basket.jpg,GW/hat.jpg,GW/snail.jpg,GW/basket.jpg,GW/snail.jpg,GW/hat.jpg,5bcc60b95c2b810001dc68e2,young
1463.7999999988824,directmemory_phase,,50.0,1.0,,,,,,,5bcc60b95c2b810001dc68e2,young
1568.2999999988824,directmemory_phase,,49.0,1.0,,,,,,,5bcc60b95c2b810001dc68e2,young
2481.2999999523163,directmemory_phase,GW/gong.jpg,50.0,1.0,GW/barrel.jpg,GW/dustpan.jpg,GW/camera.jpg,GW/dustpan.jpg,GW/barrel.jpg,GW/camera.jpg,6550de88683355a74699844c,young
3829.0,directmemory_phase,GW/hat.jpg,51.0,1.0,GW/soldier.jpg,GW/jukebox.jpg,GW/teeth.jpg,GW/teeth.jpg,GW/jukebox.jpg,GW/soldier.jpg,6550de88683355a74699844c,young
1501.4000000953674,directmemory_phase,GW/soldier.jpg,49.0,1.0,GW/wheelchair.jpg,GW/hat.jpg,GW/snail.jpg,GW/wheelchair.jpg,GW/snail.jpg,GW/hat.jpg,6550de88683355a74699844c,young
3045.399999976158,directmemory_phase,GW/dustpan.jpg,49.0,1.0,GW/hat.jpg,GW/snail.jpg,GW/barrel.jpg,GW/hat.jpg,GW/barrel.jpg,GW/snail.jpg,6550de88683355a74699844c,young
2525.1999999284744,directmemory_phase,GW/snail.jpg,50.0,1.0,GW/paint.jpg,GW/barrel.jpg,GW/dustpan.jpg,GW/barrel.jpg,GW/paint.jpg,GW/dustpan.jpg,6550de88683355a74699844c,young
3211.899999976158,directmemory_phase,GW/gong.jpg,49.0,1.0,GW/hat.jpg,GW/snail.jpg,GW/globe.jpg,GW/hat.jpg,GW/globe.jpg,GW/snail.jpg,6550de88683355a74699844c,young
1588.100000023842,directmemory_phase,GW/globe.jpg,50.0,1.0,GW/hat.jpg,GW/dustpan.jpg,GW/paint.jpg,GW/dustpan.jpg,GW/hat.jpg,GW/paint.jpg,6550de88683355a74699844c,young
2758.5,directmemory_phase,GW/snail.jpg,49.0,0.0,GW/hat.jpg,GW/wheelchair.jpg,GW/dustpan.jpg,GW/wheelchair.jpg,GW/hat.jpg,GW/dustpan.jpg,6550de88683355a74699844c,young
1223.100000023842,directmemory_phase,GW/basket.jpg,49.0,1.0,GW/camera.jpg,GW/jukebox.jpg,GW/soldier.jpg,GW/camera.jpg,GW/soldier.jpg,GW/jukebox.jpg,6550de88683355a74699844c,young
2238.7999999523163,directmemory_phase,GW/barrel.jpg,50.0,0.0,GW/camera.jpg,GW/teeth.jpg,GW/snail.jpg,GW/snail.jpg,GW/teeth.jpg,GW/camera.jpg,6550de88683355a74699844c,young
3820.700000047684,directmemory_phase,GW/hat.jpg,51.0,1.0,GW/basket.jpg,GW/paint.jpg,GW/dustpan.jpg,GW/dustpan.jpg,GW/paint.jpg,GW/basket.jpg,6550de88683355a74699844c,young
3097.6999999284744,directmemory_phase,GW/basket.jpg,51.0,0.0,GW/teeth.jpg,GW/wheelchair.jpg,GW/hat.jpg,GW/wheelchair.jpg,GW/teeth.jpg,GW/hat.jpg,6550de88683355a74699844c,young
1388.7000000476835,directmemory_phase,GW/paint.jpg,49.0,1.0,GW/barrel.jpg,GW/soldier.jpg,GW/wheelchair.jpg,GW/barrel.jpg,GW/wheelchair.jpg,GW/soldier.jpg,6550de88683355a74699844c,young
1144.0,directmemory_phase,GW/wheelchair.jpg,51.0,1.0,GW/teeth.jpg,GW/camera.jpg,GW/soldier.jpg,GW/soldier.jpg,GW/camera.jpg,GW/teeth.jpg,6550de88683355a74699844c,young
1081.0,directmemory_phase,GW/dustpan.jpg,49.0,1.0,GW/globe.jpg,GW/snail.jpg,GW/teeth.jpg,GW/globe.jpg,GW/teeth.jpg,GW/snail.jpg,6550de88683355a74699844c,young
2929.7000000476837,directmemory_phase,GW/wheelchair.jpg,49.0,1.0,GW/snail.jpg,GW/hat.jpg,GW/camera.jpg,GW/snail.jpg,GW/camera.jpg,GW/hat.jpg,6550de88683355a74699844c,young
1286.3000000715256,directmemory_phase,GW/paint.jpg,51.0,1.0,GW/globe.jpg,GW/camera.jpg,GW/basket.jpg,GW/basket.jpg,GW/camera.jpg,GW/globe.jpg,6550de88683355a74699844c,young
2472.600000023842,directmemory_phase,GW/gong.jpg,49.0,1.0,GW/teeth.jpg,GW/snail.jpg,GW/barrel.jpg,GW/teeth.jpg,GW/barrel.jpg,GW/snail.jpg,6550de88683355a74699844c,young
1384.2999999523165,directmemory_phase,GW/barrel.jpg,49.0,1.0,GW/paint.jpg,GW/jukebox.jpg,GW/gong.jpg,GW/paint.jpg,GW/gong.jpg,GW/jukebox.jpg,6550de88683355a74699844c,young
2050.2000000476837,directmemory_phase,GW/jukebox.jpg,49.0,1.0,GW/gong.jpg,GW/paint.jpg,GW/hat.jpg,GW/gong.jpg,GW/hat.jpg,GW/paint.jpg,6550de88683355a74699844c,young
1342.2999999523165,directmemory_phase,GW/basket.jpg,51.0,1.0,GW/hat.jpg,GW/soldier.jpg,GW/paint.jpg,GW/paint.jpg,GW/soldier.jpg,GW/hat.jpg,6550de88683355a74699844c,young
3399.8000000715256,directmemory_phase,GW/barrel.jpg,51.0,0.0,GW/hat.jpg,GW/globe.jpg,GW/dustpan.jpg,GW/hat.jpg,GW/dustpan.jpg,GW/globe.jpg,6550de88683355a74699844c,young
3498.899999976158,directmemory_phase,GW/teeth.jpg,51.0,1.0,GW/snail.jpg,GW/jukebox.jpg,GW/gong.jpg,GW/gong.jpg,GW/jukebox.jpg,GW/snail.jpg,6550de88683355a74699844c,young
1234.5,directmemory_phase,GW/hat.jpg,51.0,1.0,GW/basket.jpg,GW/globe.jpg,GW/barrel.jpg,GW/barrel.jpg,GW/globe.jpg,GW/basket.jpg,6550de88683355a74699844c,young
2204.6999999284744,directmemory_phase,GW/wheelchair.jpg,49.0,0.0,GW/teeth.jpg,GW/camera.jpg,GW/basket.jpg,GW/basket.jpg,GW/camera.jpg,GW/teeth.jpg,6550de88683355a74699844c,young
1586.600000023842,directmemory_phase,GW/paint.jpg,49.0,0.0,GW/dustpan.jpg,GW/wheelchair.jpg,GW/teeth.jpg,GW/teeth.jpg,GW/wheelchair.jpg,GW/dustpan.jpg,6550de88683355a74699844c,young
4238.700000047684,directmemory_phase,GW/gong.jpg,51.0,0.0,GW/paint.jpg,GW/jukebox.jpg,GW/wheelchair.jpg,GW/jukebox.jpg,GW/paint.jpg,GW/wheelchair.jpg,6550de88683355a74699844c,young
2163.399999976158,directmemory_phase,GW/teeth.jpg,49.0,1.0,GW/paint.jpg,GW/soldier.jpg,GW/barrel.jpg,GW/paint.jpg,GW/barrel.jpg,GW/soldier.jpg,6550de88683355a74699844c,young
2688.100000023842,directmemory_phase,GW/hat.jpg,49.0,1.0,GW/gong.jpg,GW/camera.jpg,GW/globe.jpg,GW/gong.jpg,GW/globe.jpg,GW/camera.jpg,6550de88683355a74699844c,young
1345.100000023842,directmemory_phase,GW/camera.jpg,51.0,1.0,GW/hat.jpg,GW/wheelchair.jpg,GW/basket.jpg,GW/basket.jpg,GW/wheelchair.jpg,GW/hat.jpg,6550de88683355a74699844c,young
1443.7999999523165,directmemory_phase,GW/teeth.jpg,50.0,0.0,GW/hat.jpg,GW/soldier.jpg,GW/basket.jpg,GW/hat.jpg,GW/basket.jpg,GW/soldier.jpg,6550de88683355a74699844c,young
1735.4000000953674,directmemory_phase,GW/dustpan.jpg,49.0,1.0,GW/gong.jpg,GW/snail.jpg,GW/jukebox.jpg,GW/gong.jpg,GW/jukebox.jpg,GW/snail.jpg,6550de88683355a74699844c,young
2279.0,directmemory_phase,GW/camera.jpg,51.0,1.0,GW/soldier.jpg,GW/dustpan.jpg,GW/globe.jpg,GW/globe.jpg,GW/dustpan.jpg,GW/soldier.jpg,6526f601bedbae17738408b1,old
1594.199999988079,directmemory_phase,GW/teeth.jpg,51.0,1.0,GW/camera.jpg,GW/jukebox.jpg,GW/hat.jpg,GW/hat.jpg,GW/jukebox.jpg,GW/camera.jpg,6526f601bedbae17738408b1,old
2074.5,directmemory_phase,GW/barrel.jpg,50.0,1.0,GW/camera.jpg,GW/globe.jpg,GW/wheelchair.jpg,GW/globe.jpg,GW/camera.jpg,GW/wheelchair.jpg,6526f601bedbae17738408b1,old
1088.0,directmemory_phase,GW/soldier.jpg,51.0,1.0,GW/camera.jpg,GW/barrel.jpg,GW/hat.jpg,GW/hat.jpg,GW/barrel.jpg,GW/camera.jpg,6526f601bedbae17738408b1,old
2446.400000035763,directmemory_phase,GW/globe.jpg,50.0,1.0,GW/jukebox.jpg,GW/barrel.jpg,GW/paint.jpg,GW/barrel.jpg,GW/jukebox.jpg,GW/paint.jpg,6526f601bedbae17738408b1,old
1411.100000023842,directmemory_phase,GW/basket.jpg,50.0,1.0,GW/camera.jpg,GW/dustpan.jpg,GW/teeth.jpg,GW/dustpan.jpg,GW/camera.jpg,GW/teeth.jpg,6526f601bedbae17738408b1,old
2113.199999988079,directmemory_phase,GW/camera.jpg,51.0,0.0,GW/jukebox.jpg,GW/teeth.jpg,GW/hat.jpg,GW/jukebox.jpg,GW/hat.jpg,GW/teeth.jpg,6526f601bedbae17738408b1,old
1062.100000023842,directmemory_phase,GW/dustpan.jpg,51.0,1.0,GW/wheelchair.jpg,GW/camera.jpg,GW/basket.jpg,GW/basket.jpg,GW/camera.jpg,GW/wheelchair.jpg,6526f601bedbae17738408b1,old
2147.399999976158,directmemory_phase,GW/teeth.jpg,51.0,1.0,GW/dustpan.jpg,GW/jukebox.jpg,GW/barrel.jpg,GW/barrel.jpg,GW/jukebox.jpg,GW/dustpan.jpg,6526f601bedbae17738408b1,old
1772.199999988079,directmemory_phase,GW/basket.jpg,51.0,1.0,GW/barrel.jpg,GW/camera.jpg,GW/snail.jpg,GW/snail.jpg,GW/camera.jpg,GW/barrel.jpg,6526f601bedbae17738408b1,old
2140.699999988079,directmemory_phase,GW/jukebox.jpg,51.0,0.0,GW/dustpan.jpg,GW/gong.jpg,GW/teeth.jpg,GW/dustpan.jpg,GW/teeth.jpg,GW/gong.jpg,6526f601bedbae17738408b1,old
1094.5,directmemory_phase,GW/snail.jpg,51.0,1.0,GW/teeth.jpg,GW/globe.jpg,GW/basket.jpg,GW/basket.jpg,GW/globe.jpg,GW/teeth.jpg,6526f601bedbae17738408b1,old
1810.399999976158,directmemory_phase,GW/globe.jpg,51.0,1.0,GW/basket.jpg,GW/snail.jpg,GW/hat.jpg,GW/hat.jpg,GW/snail.jpg,GW/basket.jpg,6526f601bedbae17738408b1,old
1230.899999976158,directmemory_phase,GW/snail.jpg,49.0,1.0,GW/wheelchair.jpg,GW/soldier.jpg,GW/gong.jpg,GW/wheelchair.jpg,GW/gong.jpg,GW/soldier.jpg,6526f601bedbae17738408b1,old
2430.399999976158,directmemory_phase,GW/globe.jpg,49.0,0.0,GW/soldier.jpg,GW/camera.jpg,GW/dustpan.jpg,GW/camera.jpg,GW/soldier.jpg,GW/dustpan.jpg,6526f601bedbae17738408b1,old
1831.199999988079,directmemory_phase,GW/hat.jpg,50.0,1.0,GW/jukebox.jpg,GW/soldier.jpg,GW/wheelchair.jpg,GW/soldier.jpg,GW/jukebox.jpg,GW/wheelchair.jpg,6526f601bedbae17738408b1,old
1352.899999976158,directmemory_phase,GW/barrel.jpg,50.0,1.0,GW/dustpan.jpg,GW/jukebox.jpg,GW/wheelchair.jpg,GW/jukebox.jpg,GW/dustpan.jpg,GW/wheelchair.jpg,6526f601bedbae17738408b1,old
1220.0,directmemory_phase,GW/teeth.jpg,51.0,1.0,GW/dustpan.jpg,GW/soldier.jpg,GW/paint.jpg,GW/paint.jpg,GW/soldier.jpg,GW/dustpan.jpg,6526f601bedbae17738408b1,old
1180.899999976158,directmemory_phase,GW/wheelchair.jpg,50.0,1.0,GW/camera.jpg,GW/snail.jpg,GW/gong.jpg,GW/snail.jpg,GW/camera.jpg,GW/gong.jpg,6526f601bedbae17738408b1,old
937.2000000476836,directmemory_phase,GW/paint.jpg,51.0,1.0,GW/dustpan.jpg,GW/barrel.jpg,GW/teeth.jpg,GW/teeth.jpg,GW/barrel.jpg,GW/dustpan.jpg,6526f601bedbae17738408b1,old
2261.400000035763,directmemory_phase,GW/camera.jpg,51.0,1.0,GW/gong.jpg,GW/wheelchair.jpg,GW/snail.jpg,GW/snail.jpg,GW/wheelchair.jpg,GW/gong.jpg,6526f601bedbae17738408b1,old
2274.899999976158,directmemory_phase,GW/hat.jpg,50.0,1.0,GW/jukebox.jpg,GW/teeth.jpg,GW/snail.jpg,GW/teeth.jpg,GW/jukebox.jpg,GW/snail.jpg,6526f601bedbae17738408b1,old
1131.399999976158,directmemory_phase,GW/snail.jpg,51.0,1.0,GW/barrel.jpg,GW/gong.jpg,GW/camera.jpg,GW/camera.jpg,GW/gong.jpg,GW/barrel.jpg,6526f601bedbae17738408b1,old
1022.6999999880792,directmemory_phase,GW/jukebox.jpg,49.0,1.0,GW/barrel.jpg,GW/soldier.jpg,GW/basket.jpg,GW/barrel.jpg,GW/basket.jpg,GW/soldier.jpg,6526f601bedbae17738408b1,old
1806.0,directmemory_phase,GW/basket.jpg,51.0,1.0,GW/globe.jpg,GW/wheelchair.jpg,GW/gong.jpg,GW/gong.jpg,GW/wheelchair.jpg,GW/globe.jpg,6526f601bedbae17738408b1,old
3302.599999964237,directmemory_phase,GW/barrel.jpg,49.0,0.0,GW/snail.jpg,GW/camera.jpg,GW/teeth.jpg,GW/teeth.jpg,GW/camera.jpg,GW/snail.jpg,6526f601bedbae17738408b1,old
1091.9000000357628,directmemory_phase,GW/gong.jpg,51.0,1.0,GW/jukebox.jpg,GW/dustpan.jpg,GW/basket.jpg,GW/basket.jpg,GW/dustpan.jpg,GW/jukebox.jpg,6526f601bedbae17738408b1,old
1959.300000011921,directmemory_phase,GW/hat.jpg,49.0,1.0,GW/globe.jpg,GW/wheelchair.jpg,GW/paint.jpg,GW/globe.jpg,GW/paint.jpg,GW/wheelchair.jpg,6526f601bedbae17738408b1,old
2830.800000011921,directmemory_phase,GW/jukebox.jpg,51.0,1.0,GW/soldier.jpg,GW/globe.jpg,GW/camera.jpg,GW/camera.jpg,GW/globe.jpg,GW/soldier.jpg,6526f601bedbae17738408b1,old
3770.100000023842,directmemory_phase,GW/hat.jpg,51.0,1.0,GW/dustpan.jpg,GW/paint.jpg,GW/barrel.jpg,GW/barrel.jpg,GW/paint.jpg,GW/dustpan.jpg,6526f601bedbae17738408b1,old
2197.0,directmemory_phase,GW/dustpan.jpg,50.0,1.0,GW/snail.jpg,GW/jukebox.jpg,GW/paint.jpg,GW/jukebox.jpg,GW/snail.jpg,GW/paint.jpg,6526f601bedbae17738408b1,old
2681.899999976158,directmemory_phase,GW/barrel.jpg,50.0,0.0,GW/basket.jpg,GW/dustpan.jpg,GW/hat.jpg,GW/hat.jpg,GW/dustpan.jpg,GW/basket.jpg,6526f601bedbae17738408b1,old
3451.399999976158,directmemory_phase,GW/soldier.jpg,51.0,1.0,GW/jukebox.jpg,GW/gong.jpg,GW/dustpan.jpg,GW/dustpan.jpg,GW/gong.jpg,GW/jukebox.jpg,66af82fe7c33867b3ed6efcb,young
2749.399999976158,directmemory_phase,GW/barrel.jpg,50.0,1.0,GW/soldier.jpg,GW/teeth.jpg,GW/globe.jpg,GW/teeth.jpg,GW/soldier.jpg,GW/globe.jpg,66af82fe7c33867b3ed6efcb,young
3563.7999999523163,directmemory_phase,GW/dustpan.jpg,51.0,1.0,GW/paint.jpg,GW/wheelchair.jpg,GW/soldier.jpg,GW/soldier.jpg,GW/wheelchair.jpg,GW/paint.jpg,66af82fe7c33867b3ed6efcb,young
2459.1999999284744,directmemory_phase,GW/gong.jpg,51.0,1.0,GW/barrel.jpg,GW/soldier.jpg,GW/camera.jpg,GW/camera.jpg,GW/soldier.jpg,GW/barrel.jpg,66af82fe7c33867b3ed6efcb,young
4137.300000071526,directmemory_phase,GW/snail.jpg,49.0,0.0,GW/hat.jpg,GW/soldier.jpg,GW/basket.jpg,GW/soldier.jpg,GW/hat.jpg,GW/basket.jpg,66af82fe7c33867b3ed6efcb,young
2881.899999976158,directmemory_phase,GW/wheelchair.jpg,50.0,1.0,GW/snail.jpg,GW/camera.jpg,GW/teeth.jpg,GW/camera.jpg,GW/snail.jpg,GW/teeth.jpg,66af82fe7c33867b3ed6efcb,young
2148.7000000476837,directmemory_phase,GW/basket.jpg,49.0,1.0,GW/gong.jpg,GW/snail.jpg,GW/globe.jpg,GW/gong.jpg,GW/globe.jpg,GW/snail.jpg,66af82fe7c33867b3ed6efcb,young
3159.8000000715256,directmemory_phase,GW/globe.jpg,51.0,1.0,GW/snail.jpg,GW/dustpan.jpg,GW/camera.jpg,GW/camera.jpg,GW/dustpan.jpg,GW/snail.jpg,66af82fe7c33867b3ed6efcb,young
2656.399999976158,directmemory_phase,GW/gong.jpg,49.0,1.0,GW/wheelchair.jpg,GW/teeth.jpg,GW/soldier.jpg,GW/wheelchair.jpg,GW/soldier.jpg,GW/teeth.jpg,66af82fe7c33867b3ed6efcb,young
2560.7999999523163,directmemory_phase,GW/globe.jpg,51.0,1.0,GW/snail.jpg,GW/basket.jpg,GW/jukebox.jpg,GW/jukebox.jpg,GW/basket.jpg,GW/snail.jpg,66af82fe7c33867b3ed6efcb,young
2561.600000023842,directmemory_phase,GW/wheelchair.jpg,51.0,1.0,GW/paint.jpg,GW/dustpan.jpg,GW/gong.jpg,GW/gong.jpg,GW/dustpan.jpg,GW/paint.jpg,66af82fe7c33867b3ed6efcb,young
2792.7999999523163,directmemory_phase,GW/barrel.jpg,51.0,1.0,GW/gong.jpg,GW/dustpan.jpg,GW/hat.jpg,GW/hat.jpg,GW/dustpan.jpg,GW/gong.jpg,66af82fe7c33867b3ed6efcb,young
2641.399999976158,directmemory_phase,GW/camera.jpg,51.0,1.0,GW/barrel.jpg,GW/teeth.jpg,GW/wheelchair.jpg,GW/wheelchair.jpg,GW/teeth.jpg,GW/barrel.jpg,66af82fe7c33867b3ed6efcb,young
2020.399999976158,directmemory_phase,GW/snail.jpg,49.0,1.0,GW/barrel.jpg,GW/camera.jpg,GW/teeth.jpg,GW/barrel.jpg,GW/teeth.jpg,GW/camera.jpg,66af82fe7c33867b3ed6efcb,young
2888.7000000476837,directmemory_phase,GW/globe.jpg,51.0,1.0,GW/soldier.jpg,GW/dustpan.jpg,GW/gong.jpg,GW/gong.jpg,GW/dustpan.jpg,GW/soldier.jpg,66af82fe7c33867b3ed6efcb,young
5393.699999928474,directmemory_phase,GW/hat.jpg,50.0,0.0,GW/barrel.jpg,GW/paint.jpg,GW/snail.jpg,GW/barrel.jpg,GW/snail.jpg,GW/paint.jpg,66af82fe7c33867b3ed6efcb,young
4773.299999952316,directmemory_phase,GW/soldier.jpg,49.0,1.0,GW/wheelchair.jpg,GW/basket.jpg,GW/paint.jpg,GW/wheelchair.jpg,GW/paint.jpg,GW/basket.jpg,66af82fe7c33867b3ed6efcb,young
2944.8000000715256,directmemory_phase,GW/gong.jpg,51.0,0.0,GW/globe.jpg,GW/teeth.jpg,GW/jukebox.jpg,GW/globe.jpg,GW/jukebox.jpg,GW/teeth.jpg,66af82fe7c33867b3ed6efcb,young
2627.7999999523163,directmemory_phase,GW/paint.jpg,50.0,1.0,GW/soldier.jpg,GW/snail.jpg,GW/teeth.jpg,GW/snail.jpg,GW/soldier.jpg,GW/teeth.jpg,66af82fe7c33867b3ed6efcb,young
5876.899999976158,directmemory_phase,GW/gong.jpg,50.0,1.0,GW/dustpan.jpg,GW/basket.jpg,GW/barrel.jpg,GW/basket.jpg,GW/dustpan.jpg,GW/barrel.jpg,66af82fe7c33867b3ed6efcb,young
2695.0,directmemory_phase,GW/jukebox.jpg,49.0,1.0,GW/globe.jpg,GW/teeth.jpg,GW/camera.jpg,GW/globe.jpg,GW/camera.jpg,GW/teeth.jpg,66af82fe7c33867b3ed6efcb,young
4928.0,directmemory_phase,GW/soldier.jpg,51.0,0.0,GW/paint.jpg,GW/snail.jpg,GW/basket.jpg,GW/snail.jpg,GW/paint.jpg,GW/basket.jpg,66af82fe7c33867b3ed6efcb,young
,directmemory_phase,GW/teeth.jpg,,0.0,GW/barrel.jpg,GW/gong.jpg,GW/hat.jpg,GW/barrel.jpg,GW/hat.jpg,GW/gong.jpg,66af82fe7c33867b3ed6efcb,young
3045.1999999284744,directmemory_phase,GW/dustpan.jpg,49.0,0.0,GW/basket.jpg,GW/gong.jpg,GW/camera.jpg,GW/camera.jpg,GW/gong.jpg,GW/basket.jpg,66af82fe7c33867b3ed6efcb,young
2145.5,directmemory_phase,GW/snail.jpg,50.0,1.0,GW/teeth.jpg,GW/paint.jpg,GW/globe.jpg,GW/paint.jpg,GW/teeth.jpg,GW/globe.jpg,66af82fe7c33867b3ed6efcb,young
2115.7999999523163,directmemory_phase,GW/camera.jpg,51.0,1.0,GW/barrel.jpg,GW/basket.jpg,GW/gong.jpg,GW/gong.jpg,GW/basket.jpg,GW/barrel.jpg,66af82fe7c33867b3ed6efcb,young
2593.600000023842,directmemory_phase,GW/teeth.jpg,51.0,1.0,GW/basket.jpg,GW/hat.jpg,GW/dustpan.jpg,GW/dustpan.jpg,GW/hat.jpg,GW/basket.jpg,66af82fe7c33867b3ed6efcb,young
2629.100000023842,directmemory_phase,GW/camera.jpg,49.0,1.0,GW/globe.jpg,GW/hat.jpg,GW/basket.jpg,GW/globe.jpg,GW/basket.jpg,GW/hat.jpg,66af82fe7c33867b3ed6efcb,young
2434.5,directmemory_phase,GW/dustpan.jpg,49.0,1.0,GW/teeth.jpg,GW/basket.jpg,GW/barrel.jpg,GW/teeth.jpg,GW/barrel.jpg,GW/basket.jpg,66af82fe7c33867b3ed6efcb,young
2379.0,directmemory_phase,GW/wheelchair.jpg,50.0,0.0,GW/soldier.jpg,GW/teeth.jpg,GW/snail.jpg,GW/soldier.jpg,GW/snail.jpg,GW/teeth.jpg,66af82fe7c33867b3ed6efcb,young
2033.5,directmemory_phase,GW/camera.jpg,51.0,0.0,GW/dustpan.jpg,GW/paint.jpg,GW/soldier.jpg,GW/dustpan.jpg,GW/soldier.jpg,GW/paint.jpg,66af82fe7c33867b3ed6efcb,young
3760.599999904633,directmemory_phase,GW/barrel.jpg,51.0,1.0,GW/globe.jpg,GW/paint.jpg,GW/snail.jpg,GW/snail.jpg,GW/paint.jpg,GW/globe.jpg,66af82fe7c33867b3ed6efcb,young
1958.199999988079,directmemory_phase,GW/hat.jpg,49.0,0.0,GW/basket.jpg,GW/jukebox.jpg,GW/soldier.jpg,GW/soldier.jpg,GW/jukebox.jpg,GW/basket.jpg,668c85c9f955972065292902,young
2007.800000011921,directmemory_phase,GW/camera.jpg,50.0,0.0,GW/globe.jpg,GW/snail.jpg,GW/gong.jpg,GW/globe.jpg,GW/gong.jpg,GW/snail.jpg,668c85c9f955972065292902,young
3523.100000023842,directmemory_phase,GW/hat.jpg,49.0,0.0,GW/snail.jpg,GW/jukebox.jpg,GW/dustpan.jpg,GW/dustpan.jpg,GW/jukebox.jpg,GW/snail.jpg,668c85c9f955972065292902,young
2032.300000011921,directmemory_phase,GW/teeth.jpg,51.0,1.0,GW/wheelchair.jpg,GW/hat.jpg,GW/basket.jpg,GW/basket.jpg,GW/hat.jpg,GW/wheelchair.jpg,668c85c9f955972065292902,young
1676.0999999642372,directmemory_phase,GW/hat.jpg,50.0,0.0,GW/basket.jpg,GW/teeth.jpg,GW/globe.jpg,GW/globe.jpg,GW/teeth.jpg,GW/basket.jpg,668c85c9f955972065292902,young
1706.5999999642372,directmemory_phase,GW/teeth.jpg,49.0,1.0,GW/camera.jpg,GW/wheelchair.jpg,GW/dustpan.jpg,GW/camera.jpg,GW/dustpan.jpg,GW/wheelchair.jpg,668c85c9f955972065292902,young
1702.9000000357628,directmemory_phase,GW/globe.jpg,51.0,0.0,GW/soldier.jpg,GW/jukebox.jpg,GW/gong.jpg,GW/jukebox.jpg,GW/soldier.jpg,GW/gong.jpg,668c85c9f955972065292902,young
1843.9000000357628,directmemory_phase,GW/camera.jpg,51.0,1.0,GW/paint.jpg,GW/soldier.jpg,GW/hat.jpg,GW/hat.jpg,GW/soldier.jpg,GW/paint.jpg,668c85c9f955972065292902,young
2277.100000023842,directmemory_phase,GW/snail.jpg,50.0,0.0,GW/paint.jpg,GW/camera.jpg,GW/gong.jpg,GW/paint.jpg,GW/gong.jpg,GW/camera.jpg,668c85c9f955972065292902,young
2341.399999976158,directmemory_phase,GW/dustpan.jpg,51.0,0.0,GW/teeth.jpg,GW/gong.jpg,GW/snail.jpg,GW/gong.jpg,GW/teeth.jpg,GW/snail.jpg,668c85c9f955972065292902,young
2542.199999988079,directmemory_phase,GW/barrel.jpg,49.0,0.0,GW/teeth.jpg,GW/wheelchair.jpg,GW/globe.jpg,GW/wheelchair.jpg,GW/teeth.jpg,GW/globe.jpg,668c85c9f955972065292902,young
2426.899999976158,directmemory_phase,GW/camera.jpg,50.0,0.0,GW/dustpan.jpg,GW/snail.jpg,GW/gong.jpg,GW/dustpan.jpg,GW/gong.jpg,GW/snail.jpg,668c85c9f955972065292902,young
1932.199999988079,directmemory_phase,GW/jukebox.jpg,49.0,1.0,GW/globe.jpg,GW/dustpan.jpg,GW/camera.jpg,GW/globe.jpg,GW/camera.jpg,GW/dustpan.jpg,668c85c9f955972065292902,young
2629.800000011921,directmemory_phase,GW/paint.jpg,49.0,1.0,GW/snail.jpg,GW/teeth.jpg,GW/basket.jpg,GW/snail.jpg,GW/basket.jpg,GW/teeth.jpg,668c85c9f955972065292902,young
1915.9000000357628,directmemory_phase,GW/globe.jpg,50.0,0.0,GW/hat.jpg,GW/basket.jpg,GW/teeth.jpg,GW/hat.jpg,GW/teeth.jpg,GW/basket.jpg,668c85c9f955972065292902,young
1911.699999988079,directmemory_phase,GW/wheelchair.jpg,49.0,1.0,GW/barrel.jpg,GW/camera.jpg,GW/snail.jpg,GW/barrel.jpg,GW/snail.jpg,GW/camera.jpg,668c85c9f955972065292902,young
1905.0,directmemory_phase,GW/gong.jpg,50.0,0.0,GW/globe.jpg,GW/basket.jpg,GW/teeth.jpg,GW/teeth.jpg,GW/basket.jpg,GW/globe.jpg,668c85c9f955972065292902,young
2564.800000011921,directmemory_phase,GW/hat.jpg,49.0,1.0,GW/camera.jpg,GW/barrel.jpg,GW/gong.jpg,GW/camera.jpg,GW/gong.jpg,GW/barrel.jpg,668c85c9f955972065292902,young
1841.199999988079,directmemory_phase,GW/basket.jpg,49.0,1.0,GW/teeth.jpg,GW/dustpan.jpg,GW/paint.jpg,GW/teeth.jpg,GW/paint.jpg,GW/dustpan.jpg,668c85c9f955972065292902,young
1737.0,directmemory_phase,GW/barrel.jpg,50.0,0.0,GW/gong.jpg,GW/hat.jpg,GW/teeth.jpg,GW/gong.jpg,GW/teeth.jpg,GW/hat.jpg,668c85c9f955972065292902,young
1446.899999976158,directmemory_phase,GW/camera.jpg,50.0,1.0,GW/gong.jpg,GW/teeth.jpg,GW/snail.jpg,GW/teeth.jpg,GW/gong.jpg,GW/snail.jpg,668c85c9f955972065292902,young
2343.300000011921,directmemory_phase,GW/snail.jpg,49.0,0.0,GW/hat.jpg,GW/teeth.jpg,GW/barrel.jpg,GW/barrel.jpg,GW/teeth.jpg,GW/hat.jpg,668c85c9f955972065292902,young
1607.199999988079,directmemory_phase,GW/dustpan.jpg,50.0,0.0,GW/paint.jpg,GW/teeth.jpg,GW/camera.jpg,GW/camera.jpg,GW/teeth.jpg,GW/paint.jpg,668c85c9f955972065292902,young
1829.699999988079,directmemory_phase,GW/gong.jpg,51.0,1.0,GW/globe.jpg,GW/camera.jpg,GW/barrel.jpg,GW/barrel.jpg,GW/camera.jpg,GW/globe.jpg,668c85c9f955972065292902,young
1873.5,directmemory_phase,GW/soldier.jpg,50.0,0.0,GW/gong.jpg,GW/dustpan.jpg,GW/hat.jpg,GW/hat.jpg,GW/dustpan.jpg,GW/gong.jpg,668c85c9f955972065292902,young
1390.300000011921,directmemory_phase,GW/gong.jpg,49.0,1.0,GW/dustpan.jpg,GW/paint.jpg,GW/camera.jpg,GW/dustpan.jpg,GW/camera.jpg,GW/paint.jpg,668c85c9f955972065292902,young
1858.300000011921,directmemory_phase,GW/snail.jpg,49.0,1.0,GW/basket.jpg,GW/globe.jpg,GW/teeth.jpg,GW/basket.jpg,GW/teeth.jpg,GW/globe.jpg,668c85c9f955972065292902,young
2082.199999988079,directmemory_phase,GW/teeth.jpg,50.0,0.0,GW/wheelchair.jpg,GW/barrel.jpg,GW/gong.jpg,GW/gong.jpg,GW/barrel.jpg,GW/wheelchair.jpg,668c85c9f955972065292902,young
1888.899999976158,directmemory_phase,GW/basket.jpg,49.0,1.0,GW/snail.jpg,GW/jukebox.jpg,GW/barrel.jpg,GW/snail.jpg,GW/barrel.jpg,GW/jukebox.jpg,668c85c9f955972065292902,young
1605.4000000357628,directmemory_phase,GW/dustpan.jpg,51.0,1.0,GW/wheelchair.jpg,GW/soldier.jpg,GW/hat.jpg,GW/hat.jpg,GW/soldier.jpg,GW/wheelchair.jpg,668c85c9f955972065292902,young
1511.7000000476835,directmemory_phase,GW/barrel.jpg,50.0,0.0,GW/camera.jpg,GW/teeth.jpg,GW/snail.jpg,GW/snail.jpg,GW/teeth.jpg,GW/camera.jpg,668c85c9f955972065292902,young
1677.2000000476835,directmemory_phase,GW/globe.jpg,50.0,0.0,GW/snail.jpg,GW/soldier.jpg,GW/camera.jpg,GW/camera.jpg,GW/soldier.jpg,GW/snail.jpg,668c85c9f955972065292902,young
4390.699999928474,directmemory_phase,GW/barrel.jpg,49.0,0.0,GW/jukebox.jpg,GW/wheelchair.jpg,GW/globe.jpg,GW/globe.jpg,GW/wheelchair.jpg,GW/jukebox.jpg,67f24d9d37225c87ef8b09c4,young
2911.2000000476837,directmemory_phase,GW/wheelchair.jpg,51.0,1.0,GW/dustpan.jpg,GW/jukebox.jpg,GW/paint.jpg,GW/paint.jpg,GW/jukebox.jpg,GW/dustpan.jpg,67f24d9d37225c87ef8b09c4,young
2630.099999904633,directmemory_phase,GW/soldier.jpg,49.0,1.0,GW/barrel.jpg,GW/basket.jpg,GW/snail.jpg,GW/barrel.jpg,GW/snail.jpg,GW/basket.jpg,67f24d9d37225c87ef8b09c4,young
3562.600000023842,directmemory_phase,GW/hat.jpg,50.0,1.0,GW/camera.jpg,GW/snail.jpg,GW/globe.jpg,GW/snail.jpg,GW/camera.jpg,GW/globe.jpg,67f24d9d37225c87ef8b09c4,young
1941.6999999284744,directmemory_phase,GW/paint.jpg,49.0,1.0,GW/soldier.jpg,GW/basket.jpg,GW/barrel.jpg,GW/soldier.jpg,GW/barrel.jpg,GW/basket.jpg,67f24d9d37225c87ef8b09c4,young
1225.8000000715256,directmemory_phase,GW/wheelchair.jpg,49.0,1.0,GW/snail.jpg,GW/gong.jpg,GW/basket.jpg,GW/snail.jpg,GW/basket.jpg,GW/gong.jpg,67f24d9d37225c87ef8b09c4,young
2628.2999999523163,directmemory_phase,GW/barrel.jpg,49.0,0.0,GW/jukebox.jpg,GW/wheelchair.jpg,GW/soldier.jpg,GW/soldier.jpg,GW/wheelchair.jpg,GW/jukebox.jpg,67f24d9d37225c87ef8b09c4,young
2540.5,directmemory_phase,GW/snail.jpg,51.0,1.0,GW/gong.jpg,GW/soldier.jpg,GW/wheelchair.jpg,GW/wheelchair.jpg,GW/soldier.jpg,GW/gong.jpg,67f24d9d37225c87ef8b09c4,young
1839.100000023842,directmemory_phase,GW/hat.jpg,50.0,1.0,GW/camera.jpg,GW/teeth.jpg,GW/dustpan.jpg,GW/teeth.jpg,GW/camera.jpg,GW/dustpan.jpg,67f24d9d37225c87ef8b09c4,young
2287.1999999284744,directmemory_phase,GW/basket.jpg,51.0,1.0,GW/barrel.jpg,GW/hat.jpg,GW/jukebox.jpg,GW/jukebox.jpg,GW/hat.jpg,GW/barrel.jpg,67f24d9d37225c87ef8b09c4,young
3291.7999999523163,directmemory_phase,GW/teeth.jpg,51.0,1.0,GW/soldier.jpg,GW/paint.jpg,GW/wheelchair.jpg,GW/wheelchair.jpg,GW/paint.jpg,GW/soldier.jpg,67f24d9d37225c87ef8b09c4,young
1758.7999999523165,directmemory_phase,GW/gong.jpg,49.0,0.0,GW/barrel.jpg,GW/soldier.jpg,GW/globe.jpg,GW/soldier.jpg,GW/barrel.jpg,GW/globe.jpg,67f24d9d37225c87ef8b09c4,young
2611.6999999284744,directmemory_phase,GW/wheelchair.jpg,50.0,1.0,GW/soldier.jpg,GW/teeth.jpg,GW/dustpan.jpg,GW/teeth.jpg,GW/soldier.jpg,GW/dustpan.jpg,67f24d9d37225c87ef8b09c4,young
2145.899999976158,directmemory_phase,GW/soldier.jpg,49.0,1.0,GW/gong.jpg,GW/basket.jpg,GW/snail.jpg,GW/gong.jpg,GW/snail.jpg,GW/basket.jpg,67f24d9d37225c87ef8b09c4,young
1563.600000023842,directmemory_phase,GW/teeth.jpg,49.0,1.0,GW/hat.jpg,GW/barrel.jpg,GW/paint.jpg,GW/hat.jpg,GW/paint.jpg,GW/barrel.jpg,67f24d9d37225c87ef8b09c4,young
2249.100000023842,directmemory_phase,GW/snail.jpg,50.0,0.0,GW/barrel.jpg,GW/basket.jpg,GW/globe.jpg,GW/barrel.jpg,GW/globe.jpg,GW/basket.jpg,67f24d9d37225c87ef8b09c4,young
1622.899999976158,directmemory_phase,GW/jukebox.jpg,51.0,1.0,GW/globe.jpg,GW/dustpan.jpg,GW/teeth.jpg,GW/teeth.jpg,GW/dustpan.jpg,GW/globe.jpg,67f24d9d37225c87ef8b09c4,young
1267.2999999523165,directmemory_phase,GW/paint.jpg,51.0,1.0,GW/dustpan.jpg,GW/teeth.jpg,GW/wheelchair.jpg,GW/wheelchair.jpg,GW/teeth.jpg,GW/dustpan.jpg,67f24d9d37225c87ef8b09c4,young
1278.7000000476835,directmemory_phase,GW/camera.jpg,50.0,1.0,GW/hat.jpg,GW/jukebox.jpg,GW/snail.jpg,GW/jukebox.jpg,GW/hat.jpg,GW/snail.jpg,67f24d9d37225c87ef8b09c4,young
1443.100000023842,directmemory_phase,GW/basket.jpg,50.0,0.0,GW/soldier.jpg,GW/hat.jpg,GW/teeth.jpg,GW/teeth.jpg,GW/hat.jpg,GW/soldier.jpg,67f24d9d37225c87ef8b09c4,young
1683.100000023842,directmemory_phase,GW/barrel.jpg,49.0,0.0,GW/camera.jpg,GW/hat.jpg,GW/snail.jpg,GW/snail.jpg,GW/hat.jpg,GW/camera.jpg,67f24d9d37225c87ef8b09c4,young
2045.399999976158,directmemory_phase,GW/teeth.jpg,51.0,1.0,GW/globe.jpg,GW/paint.jpg,GW/jukebox.jpg,GW/jukebox.jpg,GW/paint.jpg,GW/globe.jpg,67f24d9d37225c87ef8b09c4,young
1806.3000000715256,directmemory_phase,GW/soldier.jpg,49.0,1.0,GW/paint.jpg,GW/hat.jpg,GW/snail.jpg,GW/paint.jpg,GW/snail.jpg,GW/hat.jpg,67f24d9d37225c87ef8b09c4,young
1093.2000000476835,directmemory_phase,GW/snail.jpg,49.0,1.0,GW/hat.jpg,GW/camera.jpg,GW/jukebox.jpg,GW/hat.jpg,GW/jukebox.jpg,GW/camera.jpg,67f24d9d37225c87ef8b09c4,young
921.9000000953674,directmemory_phase,GW/globe.jpg,49.0,1.0,GW/barrel.jpg,GW/wheelchair.jpg,GW/soldier.jpg,GW/barrel.jpg,GW/soldier.jpg,GW/wheelchair.jpg,67f24d9d37225c87ef8b09c4,young
2670.2999999523163,directmemory_phase,GW/basket.jpg,49.0,1.0,GW/dustpan.jpg,GW/paint.jpg,GW/camera.jpg,GW/dustpan.jpg,GW/camera.jpg,GW/paint.jpg,67f24d9d37225c87ef8b09c4,young
986.100000023842,directmemory_phase,GW/hat.jpg,51.0,0.0,GW/jukebox.jpg,GW/gong.jpg,GW/basket.jpg,GW/jukebox.jpg,GW/basket.jpg,GW/gong.jpg,67f24d9d37225c87ef8b09c4,young
1886.0,directmemory_phase,GW/teeth.jpg,51.0,1.0,GW/gong.jpg,GW/dustpan.jpg,GW/basket.jpg,GW/basket.jpg,GW/dustpan.jpg,GW/gong.jpg,67f24d9d37225c87ef8b09c4,young
1568.5,directmemory_phase,GW/jukebox.jpg,51.0,0.0,GW/dustpan.jpg,GW/camera.jpg,GW/barrel.jpg,GW/camera.jpg,GW/dustpan.jpg,GW/barrel.jpg,67f24d9d37225c87ef8b09c4,young
1054.7999999523165,directmemory_phase,GW/dustpan.jpg,51.0,1.0,GW/hat.jpg,GW/teeth.jpg,GW/basket.jpg,GW/basket.jpg,GW/teeth.jpg,GW/hat.jpg,67f24d9d37225c87ef8b09c4,young
2383.5,directmemory_phase,GW/jukebox.jpg,49.0,1.0,GW/hat.jpg,GW/paint.jpg,GW/wheelchair.jpg,GW/hat.jpg,GW/wheelchair.jpg,GW/paint.jpg,67f24d9d37225c87ef8b09c4,young
4689.100000023842,directmemory_phase,,51.0,1.0,,,,,,,67f24d9d37225c87ef8b09c4,young
3560.7000000476837,directmemory_phase,GW/hat.jpg,51.0,0.0,GW/basket.jpg,GW/jukebox.jpg,GW/barrel.jpg,GW/jukebox.jpg,GW/basket.jpg,GW/barrel.jpg,63c3118da7ffa9c9fa88a10e,old
2231.100000023842,directmemory_phase,GW/soldier.jpg,49.0,1.0,GW/dustpan.jpg,GW/camera.jpg,GW/globe.jpg,GW/dustpan.jpg,GW/globe.jpg,GW/camera.jpg,63c3118da7ffa9c9fa88a10e,old
2657.3000000715256,directmemory_phase,GW/snail.jpg,51.0,1.0,GW/wheelchair.jpg,GW/gong.jpg,GW/paint.jpg,GW/paint.jpg,GW/gong.jpg,GW/wheelchair.jpg,63c3118da7ffa9c9fa88a10e,old
3620.899999976158,directmemory_phase,GW/dustpan.jpg,51.0,1.0,GW/barrel.jpg,GW/wheelchair.jpg,GW/hat.jpg,GW/hat.jpg,GW/wheelchair.jpg,GW/barrel.jpg,63c3118da7ffa9c9fa88a10e,old
4327.099999904633,directmemory_phase,GW/globe.jpg,49.0,0.0,GW/jukebox.jpg,GW/teeth.jpg,GW/wheelchair.jpg,GW/teeth.jpg,GW/jukebox.jpg,GW/wheelchair.jpg,63c3118da7ffa9c9fa88a10e,old
2607.100000023842,directmemory_phase,GW/gong.jpg,49.0,1.0,GW/camera.jpg,GW/paint.jpg,GW/teeth.jpg,GW/camera.jpg,GW/teeth.jpg,GW/paint.jpg,63c3118da7ffa9c9fa88a10e,old
2211.600000023842,directmemory_phase,GW/teeth.jpg,49.0,1.0,GW/snail.jpg,GW/jukebox.jpg,GW/paint.jpg,GW/snail.jpg,GW/paint.jpg,GW/jukebox.jpg,63c3118da7ffa9c9fa88a10e,old
2927.600000023842,directmemory_phase,GW/hat.jpg,51.0,0.0,GW/globe.jpg,GW/camera.jpg,GW/teeth.jpg,GW/globe.jpg,GW/teeth.jpg,GW/camera.jpg,63c3118da7ffa9c9fa88a10e,old
3629.299999952316,directmemory_phase,GW/paint.jpg,49.0,1.0,GW/snail.jpg,GW/globe.jpg,GW/teeth.jpg,GW/snail.jpg,GW/teeth.jpg,GW/globe.jpg,63c3118da7ffa9c9fa88a10e,old
2260.100000023842,directmemory_phase,GW/soldier.jpg,51.0,1.0,GW/camera.jpg,GW/teeth.jpg,GW/hat.jpg,GW/hat.jpg,GW/teeth.jpg,GW/camera.jpg,63c3118da7ffa9c9fa88a10e,old
1949.2999999523165,directmemory_phase,GW/snail.jpg,50.0,0.0,GW/camera.jpg,GW/hat.jpg,GW/gong.jpg,GW/camera.jpg,GW/gong.jpg,GW/hat.jpg,63c3118da7ffa9c9fa88a10e,old
1440.3000000715256,directmemory_phase,GW/dustpan.jpg,49.0,1.0,GW/soldier.jpg,GW/camera.jpg,GW/snail.jpg,GW/soldier.jpg,GW/snail.jpg,GW/camera.jpg,63c3118da7ffa9c9fa88a10e,old
2079.7000000476837,directmemory_phase,GW/basket.jpg,49.0,0.0,GW/hat.jpg,GW/jukebox.jpg,GW/teeth.jpg,GW/jukebox.jpg,GW/hat.jpg,GW/teeth.jpg,63c3118da7ffa9c9fa88a10e,old
1670.0999999046326,directmemory_phase,GW/gong.jpg,49.0,1.0,GW/globe.jpg,GW/dustpan.jpg,GW/hat.jpg,GW/globe.jpg,GW/hat.jpg,GW/dustpan.jpg,63c3118da7ffa9c9fa88a10e,old
1848.399999976158,directmemory_phase,GW/jukebox.jpg,50.0,1.0,GW/wheelchair.jpg,GW/soldier.jpg,GW/teeth.jpg,GW/soldier.jpg,GW/wheelchair.jpg,GW/teeth.jpg,63c3118da7ffa9c9fa88a10e,old
1648.2000000476835,directmemory_phase,GW/camera.jpg,49.0,1.0,GW/barrel.jpg,GW/hat.jpg,GW/teeth.jpg,GW/barrel.jpg,GW/teeth.jpg,GW/hat.jpg,63c3118da7ffa9c9fa88a10e,old
3942.299999952316,directmemory_phase,GW/soldier.jpg,49.0,0.0,GW/basket.jpg,GW/jukebox.jpg,GW/gong.jpg,GW/jukebox.jpg,GW/basket.jpg,GW/gong.jpg,63c3118da7ffa9c9fa88a10e,old
2713.8000000715256,directmemory_phase,GW/camera.jpg,50.0,0.0,GW/dustpan.jpg,GW/teeth.jpg,GW/snail.jpg,GW/snail.jpg,GW/teeth.jpg,GW/dustpan.jpg,63c3118da7ffa9c9fa88a10e,old
2085.599999904633,directmemory_phase,GW/jukebox.jpg,51.0,1.0,GW/gong.jpg,GW/globe.jpg,GW/basket.jpg,GW/basket.jpg,GW/globe.jpg,GW/gong.jpg,63c3118da7ffa9c9fa88a10e,old
2027.6999999284744,directmemory_phase,GW/wheelchair.jpg,50.0,1.0,GW/jukebox.jpg,GW/soldier.jpg,GW/snail.jpg,GW/soldier.jpg,GW/jukebox.jpg,GW/snail.jpg,63c3118da7ffa9c9fa88a10e,old
2412.3000000715256,directmemory_phase,GW/jukebox.jpg,50.0,0.0,GW/camera.jpg,GW/dustpan.jpg,GW/hat.jpg,GW/hat.jpg,GW/dustpan.jpg,GW/camera.jpg,63c3118da7ffa9c9fa88a10e,old
2377.899999976158,directmemory_phase,GW/dustpan.jpg,49.0,1.0,GW/teeth.jpg,GW/basket.jpg,GW/jukebox.jpg,GW/teeth.jpg,GW/jukebox.jpg,GW/basket.jpg,63c3118da7ffa9c9fa88a10e,old
1678.399999976158,directmemory_phase,GW/globe.jpg,49.0,1.0,GW/hat.jpg,GW/paint.jpg,GW/camera.jpg,GW/hat.jpg,GW/camera.jpg,GW/paint.jpg,63c3118da7ffa9c9fa88a10e,old
2339.7999999523163,directmemory_phase,GW/teeth.jpg,51.0,0.0,GW/dustpan.jpg,GW/basket.jpg,GW/soldier.jpg,GW/dustpan.jpg,GW/soldier.jpg,GW/basket.jpg,63c3118da7ffa9c9fa88a10e,old
1388.399999976158,directmemory_phase,GW/hat.jpg,49.0,1.0,GW/soldier.jpg,GW/paint.jpg,GW/basket.jpg,GW/soldier.jpg,GW/basket.jpg,GW/paint.jpg,63c3118da7ffa9c9fa88a10e,old
1845.9000000953672,directmemory_phase,GW/teeth.jpg,51.0,1.0,GW/jukebox.jpg,GW/paint.jpg,GW/globe.jpg,GW/globe.jpg,GW/paint.jpg,GW/jukebox.jpg,63c3118da7ffa9c9fa88a10e,old
1595.899999976158,directmemory_phase,GW/hat.jpg,49.0,0.0,GW/paint.jpg,GW/gong.jpg,GW/dustpan.jpg,GW/dustpan.jpg,GW/gong.jpg,GW/paint.jpg,63c3118da7ffa9c9fa88a10e,old
2081.7000000476837,directmemory_phase,GW/snail.jpg,50.0,0.0,GW/jukebox.jpg,GW/dustpan.jpg,GW/teeth.jpg,GW/teeth.jpg,GW/dustpan.jpg,GW/jukebox.jpg,63c3118da7ffa9c9fa88a10e,old
2135.2999999523163,directmemory_phase,GW/camera.jpg,51.0,0.0,GW/globe.jpg,GW/gong.jpg,GW/hat.jpg,GW/gong.jpg,GW/globe.jpg,GW/hat.jpg,63c3118da7ffa9c9fa88a10e,old
1400.5,directmemory_phase,GW/soldier.jpg,49.0,1.0,GW/wheelchair.jpg,GW/gong.jpg,GW/basket.jpg,GW/wheelchair.jpg,GW/basket.jpg,GW/gong.jpg,63c3118da7ffa9c9fa88a10e,old
3073.1999999284744,directmemory_phase,GW/globe.jpg,50.0,0.0,GW/basket.jpg,GW/soldier.jpg,GW/gong.jpg,GW/gong.jpg,GW/soldier.jpg,GW/basket.jpg,63c3118da7ffa9c9fa88a10e,old
1762.899999976158,directmemory_phase,GW/barrel.jpg,50.0,0.0,GW/dustpan.jpg,GW/snail.jpg,GW/camera.jpg,GW/camera.jpg,GW/snail.jpg,GW/dustpan.jpg,63c3118da7ffa9c9fa88a10e,old
3566.899999976158,directmemory_phase,GW/snail.jpg,49.0,1.0,GW/camera.jpg,GW/paint.jpg,GW/barrel.jpg,GW/camera.jpg,GW/barrel.jpg,GW/paint.jpg,66660a053b08e2a34f9b945c,young
2941.600000023842,directmemory_phase,GW/globe.jpg,51.0,1.0,GW/teeth.jpg,GW/wheelchair.jpg,GW/soldier.jpg,GW/soldier.jpg,GW/wheelchair.jpg,GW/teeth.jpg,66660a053b08e2a34f9b945c,young
2878.1999999284744,directmemory_phase,GW/gong.jpg,51.0,1.0,GW/jukebox.jpg,GW/teeth.jpg,GW/camera.jpg,GW/camera.jpg,GW/teeth.jpg,GW/jukebox.jpg,66660a053b08e2a34f9b945c,young
1812.2999999523165,directmemory_phase,GW/basket.jpg,50.0,1.0,GW/hat.jpg,GW/teeth.jpg,GW/globe.jpg,GW/teeth.jpg,GW/hat.jpg,GW/globe.jpg,66660a053b08e2a34f9b945c,young
2622.1999999284744,directmemory_phase,GW/gong.jpg,49.0,1.0,GW/soldier.jpg,GW/paint.jpg,GW/globe.jpg,GW/soldier.jpg,GW/globe.jpg,GW/paint.jpg,66660a053b08e2a34f9b945c,young
2101.899999976158,directmemory_phase,GW/paint.jpg,51.0,1.0,GW/globe.jpg,GW/wheelchair.jpg,GW/barrel.jpg,GW/barrel.jpg,GW/wheelchair.jpg,GW/globe.jpg,66660a053b08e2a34f9b945c,young
4853.699999928474,directmemory_phase,GW/gong.jpg,50.0,1.0,GW/globe.jpg,GW/basket.jpg,GW/jukebox.jpg,GW/basket.jpg,GW/globe.jpg,GW/jukebox.jpg,66660a053b08e2a34f9b945c,young
1677.7000000476835,directmemory_phase,GW/snail.jpg,51.0,1.0,GW/jukebox.jpg,GW/barrel.jpg,GW/wheelchair.jpg,GW/wheelchair.jpg,GW/barrel.jpg,GW/jukebox.jpg,66660a053b08e2a34f9b945c,young
1350.7000000476835,directmemory_phase,GW/hat.jpg,51.0,1.0,GW/globe.jpg,GW/snail.jpg,GW/camera.jpg,GW/camera.jpg,GW/snail.jpg,GW/globe.jpg,66660a053b08e2a34f9b945c,young
2722.399999976158,directmemory_phase,GW/soldier.jpg,51.0,1.0,GW/hat.jpg,GW/barrel.jpg,GW/gong.jpg,GW/gong.jpg,GW/barrel.jpg,GW/hat.jpg,66660a053b08e2a34f9b945c,young
3469.900000095367,directmemory_phase,GW/globe.jpg,49.0,1.0,GW/jukebox.jpg,GW/teeth.jpg,GW/barrel.jpg,GW/jukebox.jpg,GW/barrel.jpg,GW/teeth.jpg,66660a053b08e2a34f9b945c,young
1597.399999976158,directmemory_phase,GW/wheelchair.jpg,51.0,1.0,GW/dustpan.jpg,GW/gong.jpg,GW/soldier.jpg,GW/soldier.jpg,GW/gong.jpg,GW/dustpan.jpg,66660a053b08e2a34f9b945c,young
2509.600000023842,directmemory_phase,GW/gong.jpg,51.0,1.0,GW/paint.jpg,GW/hat.jpg,GW/snail.jpg,GW/snail.jpg,GW/hat.jpg,GW/paint.jpg,66660a053b08e2a34f9b945c,young
3749.799999952316,directmemory_phase,GW/barrel.jpg,50.0,1.0,GW/soldier.jpg,GW/wheelchair.jpg,GW/hat.jpg,GW/wheelchair.jpg,GW/soldier.jpg,GW/hat.jpg,66660a053b08e2a34f9b945c,young
3087.7999999523163,directmemory_phase,GW/soldier.jpg,49.0,1.0,GW/globe.jpg,GW/paint.jpg,GW/jukebox.jpg,GW/globe.jpg,GW/jukebox.jpg,GW/paint.jpg,66660a053b08e2a34f9b945c,young
1595.7999999523165,directmemory_phase,GW/dustpan.jpg,51.0,1.0,GW/gong.jpg,GW/barrel.jpg,GW/jukebox.jpg,GW/jukebox.jpg,GW/barrel.jpg,GW/gong.jpg,66660a053b08e2a34f9b945c,young
2551.0,directmemory_phase,GW/soldier.jpg,49.0,1.0,GW/wheelchair.jpg,GW/dustpan.jpg,GW/barrel.jpg,GW/wheelchair.jpg,GW/barrel.jpg,GW/dustpan.jpg,66660a053b08e2a34f9b945c,young
2782.100000023842,directmemory_phase,GW/basket.jpg,51.0,1.0,GW/jukebox.jpg,GW/soldier.jpg,GW/gong.jpg,GW/gong.jpg,GW/soldier.jpg,GW/jukebox.jpg,66660a053b08e2a34f9b945c,young
3181.1999999284744,directmemory_phase,GW/wheelchair.jpg,51.0,1.0,GW/hat.jpg,GW/camera.jpg,GW/barrel.jpg,GW/barrel.jpg,GW/camera.jpg,GW/hat.jpg,66660a053b08e2a34f9b945c,young
6013.0,directmemory_phase,GW/camera.jpg,50.0,1.0,GW/soldier.jpg,GW/hat.jpg,GW/globe.jpg,GW/hat.jpg,GW/soldier.jpg,GW/globe.jpg,66660a053b08e2a34f9b945c,young
2484.2999999523163,directmemory_phase,GW/teeth.jpg,51.0,1.0,GW/snail.jpg,GW/gong.jpg,GW/basket.jpg,GW/basket.jpg,GW/gong.jpg,GW/snail.jpg,66660a053b08e2a34f9b945c,young
2957.599999904633,directmemory_phase,GW/barrel.jpg,51.0,1.0,GW/camera.jpg,GW/soldier.jpg,GW/jukebox.jpg,GW/jukebox.jpg,GW/soldier.jpg,GW/camera.jpg,66660a053b08e2a34f9b945c,young
1854.0,directmemory_phase,GW/wheelchair.jpg,50.0,1.0,GW/gong.jpg,GW/snail.jpg,GW/teeth.jpg,GW/snail.jpg,GW/gong.jpg,GW/teeth.jpg,66660a053b08e2a34f9b945c,young
5388.100000023842,directmemory_phase,GW/jukebox.jpg,50.0,1.0,GW/wheelchair.jpg,GW/barrel.jpg,GW/gong.jpg,GW/barrel.jpg,GW/wheelchair.jpg,GW/gong.jpg,66660a053b08e2a34f9b945c,young
1950.600000023842,directmemory_phase,GW/camera.jpg,51.0,1.0,GW/globe.jpg,GW/wheelchair.jpg,GW/snail.jpg,GW/snail.jpg,GW/wheelchair.jpg,GW/globe.jpg,66660a053b08e2a34f9b945c,young
2869.7000000476837,directmemory_phase,GW/barrel.jpg,49.0,1.0,GW/paint.jpg,GW/camera.jpg,GW/soldier.jpg,GW/paint.jpg,GW/soldier.jpg,GW/camera.jpg,66660a053b08e2a34f9b945c,young
,directmemory_phase,GW/camera.jpg,,0.0,GW/barrel.jpg,GW/teeth.jpg,GW/basket.jpg,GW/basket.jpg,GW/teeth.jpg,GW/barrel.jpg,66660a053b08e2a34f9b945c,young
3485.399999976158,directmemory_phase,GW/jukebox.jpg,51.0,1.0,GW/camera.jpg,GW/paint.jpg,GW/globe.jpg,GW/globe.jpg,GW/paint.jpg,GW/camera.jpg,66660a053b08e2a34f9b945c,young
3892.399999976158,directmemory_phase,GW/camera.jpg,49.0,0.0,GW/wheelchair.jpg,GW/gong.jpg,GW/paint.jpg,GW/gong.jpg,GW/wheelchair.jpg,GW/paint.jpg,66660a053b08e2a34f9b945c,young
1333.899999976158,directmemory_phase,GW/jukebox.jpg,50.0,1.0,GW/paint.jpg,GW/dustpan.jpg,GW/snail.jpg,GW/dustpan.jpg,GW/paint.jpg,GW/snail.jpg,66660a053b08e2a34f9b945c,young
2708.600000023842,directmemory_phase,GW/basket.jpg,51.0,1.0,GW/globe.jpg,GW/soldier.jpg,GW/camera.jpg,GW/camera.jpg,GW/soldier.jpg,GW/globe.jpg,66660a053b08e2a34f9b945c,young
2862.2000000476837,directmemory_phase,GW/snail.jpg,51.0,1.0,GW/paint.jpg,GW/barrel.jpg,GW/gong.jpg,GW/gong.jpg,GW/barrel.jpg,GW/paint.jpg,66660a053b08e2a34f9b945c,young
2899.099999964237,directmemory_phase,GW/barrel.jpg,51.0,1.0,GW/soldier.jpg,GW/snail.jpg,GW/jukebox.jpg,GW/jukebox.jpg,GW/snail.jpg,GW/soldier.jpg,5fc521555cd05b000cfe0998,young
1487.300000011921,directmemory_phase,GW/basket.jpg,51.0,1.0,GW/soldier.jpg,GW/wheelchair.jpg,GW/paint.jpg,GW/paint.jpg,GW/wheelchair.jpg,GW/soldier.jpg,5fc521555cd05b000cfe0998,young
2265.100000023842,directmemory_phase,GW/snail.jpg,49.0,1.0,GW/wheelchair.jpg,GW/dustpan.jpg,GW/soldier.jpg,GW/wheelchair.jpg,GW/soldier.jpg,GW/dustpan.jpg,5fc521555cd05b000cfe0998,young
1072.0999999642372,directmemory_phase,GW/paint.jpg,50.0,1.0,GW/snail.jpg,GW/teeth.jpg,GW/gong.jpg,GW/teeth.jpg,GW/snail.jpg,GW/gong.jpg,5fc521555cd05b000cfe0998,young
848.6999999880791,directmemory_phase,GW/dustpan.jpg,51.0,1.0,GW/basket.jpg,GW/gong.jpg,GW/soldier.jpg,GW/soldier.jpg,GW/gong.jpg,GW/basket.jpg,5fc521555cd05b000cfe0998,young
1708.300000011921,directmemory_phase,GW/barrel.jpg,51.0,1.0,GW/soldier.jpg,GW/teeth.jpg,GW/paint.jpg,GW/paint.jpg,GW/teeth.jpg,GW/soldier.jpg,5fc521555cd05b000cfe0998,young
2133.300000011921,directmemory_phase,GW/soldier.jpg,51.0,1.0,GW/barrel.jpg,GW/globe.jpg,GW/gong.jpg,GW/gong.jpg,GW/globe.jpg,GW/barrel.jpg,5fc521555cd05b000cfe0998,young
1551.7000000476835,directmemory_phase,GW/teeth.jpg,49.0,1.0,GW/paint.jpg,GW/snail.jpg,GW/basket.jpg,GW/paint.jpg,GW/basket.jpg,GW/snail.jpg,5fc521555cd05b000cfe0998,young
1169.5999999642372,directmemory_phase,GW/gong.jpg,50.0,1.0,GW/globe.jpg,GW/camera.jpg,GW/teeth.jpg,GW/camera.jpg,GW/globe.jpg,GW/teeth.jpg,5fc521555cd05b000cfe0998,young
2269.800000011921,directmemory_phase,GW/barrel.jpg,49.0,0.0,GW/gong.jpg,GW/snail.jpg,GW/wheelchair.jpg,GW/wheelchair.jpg,GW/snail.jpg,GW/gong.jpg,5fc521555cd05b000cfe0998,young
1493.5,directmemory_phase,GW/gong.jpg,49.0,0.0,GW/jukebox.jpg,GW/globe.jpg,GW/snail.jpg,GW/snail.jpg,GW/globe.jpg,GW/jukebox.jpg,5fc521555cd05b000cfe0998,young
841.1000000238419,directmemory_phase,GW/soldier.jpg,50.0,1.0,GW/snail.jpg,GW/dustpan.jpg,GW/barrel.jpg,GW/dustpan.jpg,GW/snail.jpg,GW/barrel.jpg,5fc521555cd05b000cfe0998,young
885.2000000476837,directmemory_phase,GW/jukebox.jpg,50.0,1.0,GW/wheelchair.jpg,GW/barrel.jpg,GW/gong.jpg,GW/barrel.jpg,GW/wheelchair.jpg,GW/gong.jpg,5fc521555cd05b000cfe0998,young
2337.800000011921,directmemory_phase,GW/camera.jpg,51.0,0.0,GW/basket.jpg,GW/barrel.jpg,GW/soldier.jpg,GW/basket.jpg,GW/soldier.jpg,GW/barrel.jpg,5fc521555cd05b000cfe0998,young
2008.0,directmemory_phase,GW/hat.jpg,51.0,1.0,GW/paint.jpg,GW/dustpan.jpg,GW/globe.jpg,GW/globe.jpg,GW/dustpan.jpg,GW/paint.jpg,5fc521555cd05b000cfe0998,young
2826.5,directmemory_phase,GW/basket.jpg,50.0,0.0,GW/camera.jpg,GW/soldier.jpg,GW/barrel.jpg,GW/camera.jpg,GW/barrel.jpg,GW/soldier.jpg,5fc521555cd05b000cfe0998,young
1717.699999988079,directmemory_phase,GW/wheelchair.jpg,49.0,1.0,GW/snail.jpg,GW/teeth.jpg,GW/jukebox.jpg,GW/snail.jpg,GW/jukebox.jpg,GW/teeth.jpg,5fc521555cd05b000cfe0998,young
1562.5,directmemory_phase,GW/paint.jpg,51.0,1.0,GW/globe.jpg,GW/camera.jpg,GW/barrel.jpg,GW/barrel.jpg,GW/camera.jpg,GW/globe.jpg,5fc521555cd05b000cfe0998,young
1628.0,directmemory_phase,GW/snail.jpg,51.0,1.0,GW/jukebox.jpg,GW/hat.jpg,GW/gong.jpg,GW/gong.jpg,GW/hat.jpg,GW/jukebox.jpg,5fc521555cd05b000cfe0998,young
1791.399999976158,directmemory_phase,GW/globe.jpg,50.0,1.0,GW/camera.jpg,GW/hat.jpg,GW/paint.jpg,GW/hat.jpg,GW/camera.jpg,GW/paint.jpg,5fc521555cd05b000cfe0998,young
1064.100000023842,directmemory_phase,GW/snail.jpg,51.0,1.0,GW/jukebox.jpg,GW/soldier.jpg,GW/basket.jpg,GW/basket.jpg,GW/soldier.jpg,GW/jukebox.jpg,5fc521555cd05b000cfe0998,young
1567.199999988079,directmemory_phase,GW/camera.jpg,49.0,1.0,GW/gong.jpg,GW/teeth.jpg,GW/paint.jpg,GW/gong.jpg,GW/paint.jpg,GW/teeth.jpg,5fc521555cd05b000cfe0998,young
1179.0,directmemory_phase,GW/basket.jpg,51.0,1.0,GW/soldier.jpg,GW/gong.jpg,GW/snail.jpg,GW/snail.jpg,GW/gong.jpg,GW/soldier.jpg,5fc521555cd05b000cfe0998,young
2036.100000023842,directmemory_phase,GW/gong.jpg,49.0,1.0,GW/hat.jpg,GW/barrel.jpg,GW/dustpan.jpg,GW/hat.jpg,GW/dustpan.jpg,GW/barrel.jpg,5fc521555cd05b000cfe0998,young
2165.899999976158,directmemory_phase,GW/wheelchair.jpg,50.0,0.0,GW/barrel.jpg,GW/soldier.jpg,GW/gong.jpg,GW/barrel.jpg,GW/gong.jpg,GW/soldier.jpg,5fc521555cd05b000cfe0998,young
2263.600000023842,directmemory_phase,GW/hat.jpg,49.0,1.0,GW/camera.jpg,GW/wheelchair.jpg,GW/dustpan.jpg,GW/camera.jpg,GW/dustpan.jpg,GW/wheelchair.jpg,5fc521555cd05b000cfe0998,young
2580.5,directmemory_phase,GW/gong.jpg,51.0,0.0,GW/wheelchair.jpg,GW/soldier.jpg,GW/jukebox.jpg,GW/soldier.jpg,GW/wheelchair.jpg,GW/jukebox.jpg,5fc521555cd05b000cfe0998,young
2923.5,directmemory_phase,GW/paint.jpg,51.0,1.0,GW/hat.jpg,GW/jukebox.jpg,GW/basket.jpg,GW/basket.jpg,GW/jukebox.jpg,GW/hat.jpg,5fc521555cd05b000cfe0998,young
2702.300000011921,directmemory_phase,GW/hat.jpg,49.0,1.0,GW/gong.jpg,GW/paint.jpg,GW/dustpan.jpg,GW/gong.jpg,GW/dustpan.jpg,GW/paint.jpg,5fc521555cd05b000cfe0998,young
2108.599999964237,directmemory_phase,,50.0,1.0,,,,,,,5fc521555cd05b000cfe0998,young
1207.800000011921,directmemory_phase,,50.0,1.0,,,,,,,5fc521555cd05b000cfe0998,young
1904.9000000357628,directmemory_phase,,49.0,1.0,,,,,,,5fc521555cd05b000cfe0998,young
3387.899999976158,directmemory_phase,GW/globe.jpg,50.0,1.0,GW/wheelchair.jpg,GW/camera.jpg,GW/paint.jpg,GW/camera.jpg,GW/wheelchair.jpg,GW/paint.jpg,5685850c333cbd000d4e042f,young
2575.100000023842,directmemory_phase,GW/paint.jpg,49.0,1.0,GW/wheelchair.jpg,GW/jukebox.jpg,GW/basket.jpg,GW/wheelchair.jpg,GW/basket.jpg,GW/jukebox.jpg,5685850c333cbd000d4e042f,young
1289.5,directmemory_phase,GW/barrel.jpg,50.0,1.0,GW/basket.jpg,GW/soldier.jpg,GW/snail.jpg,GW/soldier.jpg,GW/basket.jpg,GW/snail.jpg,5685850c333cbd000d4e042f,young
3090.199999988079,directmemory_phase,GW/wheelchair.jpg,51.0,1.0,GW/hat.jpg,GW/globe.jpg,GW/basket.jpg,GW/basket.jpg,GW/globe.jpg,GW/hat.jpg,5685850c333cbd000d4e042f,young
2064.399999976158,directmemory_phase,GW/globe.jpg,49.0,1.0,GW/snail.jpg,GW/paint.jpg,GW/basket.jpg,GW/snail.jpg,GW/basket.jpg,GW/paint.jpg,5685850c333cbd000d4e042f,young
1711.800000011921,directmemory_phase,GW/teeth.jpg,50.0,1.0,GW/hat.jpg,GW/wheelchair.jpg,GW/soldier.jpg,GW/wheelchair.jpg,GW/hat.jpg,GW/soldier.jpg,5685850c333cbd000d4e042f,young
1068.100000023842,directmemory_phase,GW/gong.jpg,51.0,1.0,GW/snail.jpg,GW/paint.jpg,GW/jukebox.jpg,GW/jukebox.jpg,GW/paint.jpg,GW/snail.jpg,5685850c333cbd000d4e042f,young
2303.699999988079,directmemory_phase,GW/teeth.jpg,49.0,1.0,GW/snail.jpg,GW/jukebox.jpg,GW/basket.jpg,GW/snail.jpg,GW/basket.jpg,GW/jukebox.jpg,5685850c333cbd000d4e042f,young
1589.4000000357628,directmemory_phase,GW/dustpan.jpg,49.0,1.0,GW/basket.jpg,GW/paint.jpg,GW/gong.jpg,GW/basket.jpg,GW/gong.jpg,GW/paint.jpg,5685850c333cbd000d4e042f,young
2547.400000035763,directmemory_phase,GW/barrel.jpg,50.0,1.0,GW/jukebox.jpg,GW/paint.jpg,GW/snail.jpg,GW/paint.jpg,GW/jukebox.jpg,GW/snail.jpg,5685850c333cbd000d4e042f,young
2180.400000035763,directmemory_phase,GW/globe.jpg,51.0,1.0,GW/barrel.jpg,GW/basket.jpg,GW/teeth.jpg,GW/teeth.jpg,GW/basket.jpg,GW/barrel.jpg,5685850c333cbd000d4e042f,young
2864.199999988079,directmemory_phase,GW/basket.jpg,49.0,1.0,GW/wheelchair.jpg,GW/soldier.jpg,GW/barrel.jpg,GW/wheelchair.jpg,GW/barrel.jpg,GW/soldier.jpg,5685850c333cbd000d4e042f,young
1461.0,directmemory_phase,GW/gong.jpg,51.0,1.0,GW/snail.jpg,GW/wheelchair.jpg,GW/barrel.jpg,GW/barrel.jpg,GW/wheelchair.jpg,GW/snail.jpg,5685850c333cbd000d4e042f,young
1208.0999999642372,directmemory_phase,GW/dustpan.jpg,50.0,1.0,GW/camera.jpg,GW/teeth.jpg,GW/soldier.jpg,GW/teeth.jpg,GW/camera.jpg,GW/soldier.jpg,5685850c333cbd000d4e042f,young
2246.599999964237,directmemory_phase,GW/camera.jpg,51.0,1.0,GW/wheelchair.jpg,GW/snail.jpg,GW/globe.jpg,GW/globe.jpg,GW/snail.jpg,GW/wheelchair.jpg,5685850c333cbd000d4e042f,young
942.5,directmemory_phase,GW/paint.jpg,50.0,1.0,GW/basket.jpg,GW/barrel.jpg,GW/snail.jpg,GW/barrel.jpg,GW/basket.jpg,GW/snail.jpg,5685850c333cbd000d4e042f,young
1961.100000023842,directmemory_phase,GW/teeth.jpg,51.0,1.0,GW/soldier.jpg,GW/basket.jpg,GW/globe.jpg,GW/globe.jpg,GW/basket.jpg,GW/soldier.jpg,5685850c333cbd000d4e042f,young
3099.399999976158,directmemory_phase,GW/barrel.jpg,51.0,1.0,GW/teeth.jpg,GW/jukebox.jpg,GW/gong.jpg,GW/gong.jpg,GW/jukebox.jpg,GW/teeth.jpg,5685850c333cbd000d4e042f,young
1390.699999988079,directmemory_phase,GW/snail.jpg,51.0,1.0,GW/barrel.jpg,GW/camera.jpg,GW/hat.jpg,GW/hat.jpg,GW/camera.jpg,GW/barrel.jpg,5685850c333cbd000d4e042f,young
1301.300000011921,directmemory_phase,GW/wheelchair.jpg,50.0,1.0,GW/gong.jpg,GW/teeth.jpg,GW/hat.jpg,GW/teeth.jpg,GW/gong.jpg,GW/hat.jpg,5685850c333cbd000d4e042f,young
831.0,directmemory_phase,GW/hat.jpg,51.0,1.0,GW/dustpan.jpg,GW/teeth.jpg,GW/snail.jpg,GW/snail.jpg,GW/teeth.jpg,GW/dustpan.jpg,5685850c333cbd000d4e042f,young
3760.300000011921,directmemory_phase,GW/jukebox.jpg,51.0,1.0,GW/wheelchair.jpg,GW/barrel.jpg,GW/gong.jpg,GW/gong.jpg,GW/barrel.jpg,GW/wheelchair.jpg,5685850c333cbd000d4e042f,young
2071.300000011921,directmemory_phase,GW/snail.jpg,50.0,1.0,GW/dustpan.jpg,GW/teeth.jpg,GW/paint.jpg,GW/teeth.jpg,GW/dustpan.jpg,GW/paint.jpg,5685850c333cbd000d4e042f,young
2004.899999976158,directmemory_phase,GW/globe.jpg,50.0,1.0,GW/hat.jpg,GW/dustpan.jpg,GW/jukebox.jpg,GW/dustpan.jpg,GW/hat.jpg,GW/jukebox.jpg,5685850c333cbd000d4e042f,young
1815.2999999523165,directmemory_phase,GW/soldier.jpg,51.0,1.0,GW/wheelchair.jpg,GW/gong.jpg,GW/barrel.jpg,GW/barrel.jpg,GW/gong.jpg,GW/wheelchair.jpg,5685850c333cbd000d4e042f,young
2226.800000011921,directmemory_phase,GW/basket.jpg,49.0,1.0,GW/gong.jpg,GW/snail.jpg,GW/paint.jpg,GW/gong.jpg,GW/paint.jpg,GW/snail.jpg,5685850c333cbd000d4e042f,young
3329.199999988079,directmemory_phase,GW/snail.jpg,51.0,1.0,GW/paint.jpg,GW/dustpan.jpg,GW/globe.jpg,GW/globe.jpg,GW/dustpan.jpg,GW/paint.jpg,5685850c333cbd000d4e042f,young
1373.5999999642372,directmemory_phase,GW/basket.jpg,51.0,1.0,GW/soldier.jpg,GW/globe.jpg,GW/dustpan.jpg,GW/dustpan.jpg,GW/globe.jpg,GW/soldier.jpg,5685850c333cbd000d4e042f,young
2806.600000023842,directmemory_phase,GW/wheelchair.jpg,51.0,1.0,GW/camera.jpg,GW/barrel.jpg,GW/paint.jpg,GW/paint.jpg,GW/barrel.jpg,GW/camera.jpg,5685850c333cbd000d4e042f,young
4545.700000047684,directmemory_phase,GW/teeth.jpg,50.0,1.0,GW/camera.jpg,GW/dustpan.jpg,GW/gong.jpg,GW/dustpan.jpg,GW/camera.jpg,GW/gong.jpg,5685850c333cbd000d4e042f,young
2566.5,directmemory_phase,GW/gong.jpg,51.0,1.0,GW/snail.jpg,GW/paint.jpg,GW/basket.jpg,GW/basket.jpg,GW/paint.jpg,GW/snail.jpg,5685850c333cbd000d4e042f,young
2303.699999988079,directmemory_phase,GW/dustpan.jpg,51.0,1.0,GW/hat.jpg,GW/snail.jpg,GW/globe.jpg,GW/globe.jpg,GW/snail.jpg,GW/hat.jpg,5685850c333cbd000d4e042f,young
1546.4000000953674,directmemory_phase,GW/wheelchair.jpg,49.0,0.0,GW/gong.jpg,GW/hat.jpg,GW/camera.jpg,GW/hat.jpg,GW/gong.jpg,GW/camera.jpg,67db09c719a34f37f3f38e0a,old
1445.6999999284744,directmemory_phase,GW/camera.jpg,50.0,0.0,GW/wheelchair.jpg,GW/snail.jpg,GW/barrel.jpg,GW/barrel.jpg,GW/snail.jpg,GW/wheelchair.jpg,67db09c719a34f37f3f38e0a,old
1831.100000023842,directmemory_phase,GW/hat.jpg,51.0,0.0,GW/snail.jpg,GW/barrel.jpg,GW/soldier.jpg,GW/snail.jpg,GW/soldier.jpg,GW/barrel.jpg,67db09c719a34f37f3f38e0a,old
2037.5,directmemory_phase,GW/basket.jpg,50.0,1.0,GW/teeth.jpg,GW/wheelchair.jpg,GW/soldier.jpg,GW/wheelchair.jpg,GW/teeth.jpg,GW/soldier.jpg,67db09c719a34f37f3f38e0a,old
1472.2999999523165,directmemory_phase,GW/gong.jpg,51.0,1.0,GW/barrel.jpg,GW/camera.jpg,GW/snail.jpg,GW/snail.jpg,GW/camera.jpg,GW/barrel.jpg,67db09c719a34f37f3f38e0a,old
1632.2000000476835,directmemory_phase,GW/barrel.jpg,50.0,0.0,GW/camera.jpg,GW/gong.jpg,GW/teeth.jpg,GW/camera.jpg,GW/teeth.jpg,GW/gong.jpg,67db09c719a34f37f3f38e0a,old
1477.600000023842,directmemory_phase,GW/wheelchair.jpg,49.0,1.0,GW/paint.jpg,GW/camera.jpg,GW/soldier.jpg,GW/paint.jpg,GW/soldier.jpg,GW/camera.jpg,67db09c719a34f37f3f38e0a,old
1532.6999999284744,directmemory_phase,GW/basket.jpg,50.0,0.0,GW/barrel.jpg,GW/paint.jpg,GW/gong.jpg,GW/gong.jpg,GW/paint.jpg,GW/barrel.jpg,67db09c719a34f37f3f38e0a,old
1685.399999976158,directmemory_phase,GW/paint.jpg,51.0,1.0,GW/gong.jpg,GW/dustpan.jpg,GW/soldier.jpg,GW/soldier.jpg,GW/dustpan.jpg,GW/gong.jpg,67db09c719a34f37f3f38e0a,old
1687.5,directmemory_phase,GW/globe.jpg,49.0,1.0,GW/snail.jpg,GW/paint.jpg,GW/barrel.jpg,GW/snail.jpg,GW/barrel.jpg,GW/paint.jpg,67db09c719a34f37f3f38e0a,old
1892.2000000476835,directmemory_phase,GW/hat.jpg,50.0,0.0,GW/wheelchair.jpg,GW/barrel.jpg,GW/dustpan.jpg,GW/wheelchair.jpg,GW/dustpan.jpg,GW/barrel.jpg,67db09c719a34f37f3f38e0a,old
1529.0999999046326,directmemory_phase,GW/snail.jpg,51.0,0.0,GW/globe.jpg,GW/barrel.jpg,GW/teeth.jpg,GW/globe.jpg,GW/teeth.jpg,GW/barrel.jpg,67db09c719a34f37f3f38e0a,old
1911.5,directmemory_phase,GW/paint.jpg,50.0,0.0,GW/camera.jpg,GW/snail.jpg,GW/hat.jpg,GW/hat.jpg,GW/snail.jpg,GW/camera.jpg,67db09c719a34f37f3f38e0a,old
2140.0,directmemory_phase,GW/wheelchair.jpg,50.0,0.0,GW/dustpan.jpg,GW/camera.jpg,GW/gong.jpg,GW/dustpan.jpg,GW/gong.jpg,GW/camera.jpg,67db09c719a34f37f3f38e0a,old
2271.7999999523163,directmemory_phase,GW/hat.jpg,49.0,1.0,GW/paint.jpg,GW/barrel.jpg,GW/globe.jpg,GW/paint.jpg,GW/globe.jpg,GW/barrel.jpg,67db09c719a34f37f3f38e0a,old
1866.7000000476835,directmemory_phase,GW/camera.jpg,51.0,1.0,GW/basket.jpg,GW/jukebox.jpg,GW/globe.jpg,GW/globe.jpg,GW/jukebox.jpg,GW/basket.jpg,67db09c719a34f37f3f38e0a,old
1940.100000023842,directmemory_phase,GW/hat.jpg,49.0,0.0,GW/gong.jpg,GW/basket.jpg,GW/jukebox.jpg,GW/basket.jpg,GW/gong.jpg,GW/jukebox.jpg,67db09c719a34f37f3f38e0a,old
1834.5,directmemory_phase,GW/paint.jpg,50.0,0.0,GW/wheelchair.jpg,GW/gong.jpg,GW/snail.jpg,GW/wheelchair.jpg,GW/snail.jpg,GW/gong.jpg,67db09c719a34f37f3f38e0a,old
2171.1999999284744,directmemory_phase,GW/jukebox.jpg,51.0,0.0,GW/teeth.jpg,GW/hat.jpg,GW/camera.jpg,GW/teeth.jpg,GW/camera.jpg,GW/hat.jpg,67db09c719a34f37f3f38e0a,old
1841.899999976158,directmemory_phase,GW/basket.jpg,50.0,0.0,GW/barrel.jpg,GW/dustpan.jpg,GW/hat.jpg,GW/hat.jpg,GW/dustpan.jpg,GW/barrel.jpg,67db09c719a34f37f3f38e0a,old
2588.8000000715256,directmemory_phase,GW/camera.jpg,50.0,0.0,GW/basket.jpg,GW/gong.jpg,GW/teeth.jpg,GW/teeth.jpg,GW/gong.jpg,GW/basket.jpg,67db09c719a34f37f3f38e0a,old
2275.2000000476837,directmemory_phase,GW/snail.jpg,49.0,0.0,GW/jukebox.jpg,GW/wheelchair.jpg,GW/gong.jpg,GW/gong.jpg,GW/wheelchair.jpg,GW/jukebox.jpg,67db09c719a34f37f3f38e0a,old
2080.100000023842,directmemory_phase,GW/wheelchair.jpg,50.0,0.0,GW/camera.jpg,GW/soldier.jpg,GW/basket.jpg,GW/basket.jpg,GW/soldier.jpg,GW/camera.jpg,67db09c719a34f37f3f38e0a,old
1725.7999999523165,directmemory_phase,GW/teeth.jpg,51.0,1.0,GW/wheelchair.jpg,GW/barrel.jpg,GW/gong.jpg,GW/gong.jpg,GW/barrel.jpg,GW/wheelchair.jpg,67db09c719a34f37f3f38e0a,old
2146.399999976158,directmemory_phase,GW/snail.jpg,50.0,1.0,GW/basket.jpg,GW/hat.jpg,GW/soldier.jpg,GW/hat.jpg,GW/basket.jpg,GW/soldier.jpg,67db09c719a34f37f3f38e0a,old
1648.3000000715256,directmemory_phase,GW/soldier.jpg,49.0,1.0,GW/paint.jpg,GW/snail.jpg,GW/hat.jpg,GW/paint.jpg,GW/hat.jpg,GW/snail.jpg,67db09c719a34f37f3f38e0a,old
2165.399999976158,directmemory_phase,GW/gong.jpg,50.0,1.0,GW/hat.jpg,GW/basket.jpg,GW/barrel.jpg,GW/basket.jpg,GW/hat.jpg,GW/barrel.jpg,67db09c719a34f37f3f38e0a,old
1996.6999999284744,directmemory_phase,GW/teeth.jpg,49.0,0.0,GW/paint.jpg,GW/barrel.jpg,GW/jukebox.jpg,GW/jukebox.jpg,GW/barrel.jpg,GW/paint.jpg,67db09c719a34f37f3f38e0a,old
1936.0,directmemory_phase,GW/globe.jpg,50.0,1.0,GW/hat.jpg,GW/camera.jpg,GW/basket.jpg,GW/camera.jpg,GW/hat.jpg,GW/basket.jpg,67db09c719a34f37f3f38e0a,old
1836.2999999523165,directmemory_phase,GW/gong.jpg,51.0,0.0,GW/teeth.jpg,GW/soldier.jpg,GW/camera.jpg,GW/teeth.jpg,GW/camera.jpg,GW/soldier.jpg,67db09c719a34f37f3f38e0a,old
2733.7000000476837,directmemory_phase,GW/dustpan.jpg,49.0,0.0,GW/globe.jpg,GW/hat.jpg,GW/wheelchair.jpg,GW/wheelchair.jpg,GW/hat.jpg,GW/globe.jpg,67db09c719a34f37f3f38e0a,old
2478.2999999523163,directmemory_phase,GW/teeth.jpg,51.0,0.0,GW/camera.jpg,GW/hat.jpg,GW/barrel.jpg,GW/camera.jpg,GW/barrel.jpg,GW/hat.jpg,67db09c719a34f37f3f38e0a,old
1503.1999999284744,directmemory_phase,GW/globe.jpg,49.0,0.0,GW/teeth.jpg,GW/paint.jpg,GW/camera.jpg,GW/paint.jpg,GW/teeth.jpg,GW/camera.jpg,67db5618164a0fc0678e84d6,old
1615.4000000953674,directmemory_phase,GW/basket.jpg,50.0,0.0,GW/gong.jpg,GW/barrel.jpg,GW/snail.jpg,GW/gong.jpg,GW/snail.jpg,GW/barrel.jpg,67db5618164a0fc0678e84d6,old
1804.7000000476835,directmemory_phase,GW/teeth.jpg,49.0,0.0,GW/barrel.jpg,GW/basket.jpg,GW/jukebox.jpg,GW/jukebox.jpg,GW/basket.jpg,GW/barrel.jpg,67db5618164a0fc0678e84d6,old
1665.399999976158,directmemory_phase,GW/paint.jpg,51.0,0.0,GW/gong.jpg,GW/snail.jpg,GW/hat.jpg,GW/snail.jpg,GW/gong.jpg,GW/hat.jpg,67db5618164a0fc0678e84d6,old
1488.3000000715256,directmemory_phase,GW/soldier.jpg,50.0,0.0,GW/wheelchair.jpg,GW/globe.jpg,GW/snail.jpg,GW/wheelchair.jpg,GW/snail.jpg,GW/globe.jpg,67db5618164a0fc0678e84d6,old
1580.600000023842,directmemory_phase,GW/snail.jpg,49.0,0.0,GW/teeth.jpg,GW/globe.jpg,GW/paint.jpg,GW/paint.jpg,GW/globe.jpg,GW/teeth.jpg,67db5618164a0fc0678e84d6,old
1705.1999999284744,directmemory_phase,GW/barrel.jpg,49.0,1.0,GW/wheelchair.jpg,GW/dustpan.jpg,GW/snail.jpg,GW/wheelchair.jpg,GW/snail.jpg,GW/dustpan.jpg,67db5618164a0fc0678e84d6,old
1885.5,directmemory_phase,GW/teeth.jpg,49.0,1.0,GW/dustpan.jpg,GW/wheelchair.jpg,GW/hat.jpg,GW/dustpan.jpg,GW/hat.jpg,GW/wheelchair.jpg,67db5618164a0fc0678e84d6,old
1850.6999999284744,directmemory_phase,GW/paint.jpg,50.0,0.0,GW/soldier.jpg,GW/jukebox.jpg,GW/basket.jpg,GW/basket.jpg,GW/jukebox.jpg,GW/soldier.jpg,67db5618164a0fc0678e84d6,old
1545.8000000715256,directmemory_phase,GW/jukebox.jpg,51.0,0.0,GW/teeth.jpg,GW/camera.jpg,GW/paint.jpg,GW/teeth.jpg,GW/paint.jpg,GW/camera.jpg,67db5618164a0fc0678e84d6,old
2298.7000000476837,directmemory_phase,GW/barrel.jpg,51.0,0.0,GW/globe.jpg,GW/hat.jpg,GW/soldier.jpg,GW/globe.jpg,GW/soldier.jpg,GW/hat.jpg,67db5618164a0fc0678e84d6,old
1602.600000023842,directmemory_phase,GW/teeth.jpg,50.0,0.0,GW/snail.jpg,GW/basket.jpg,GW/gong.jpg,GW/gong.jpg,GW/basket.jpg,GW/snail.jpg,67db5618164a0fc0678e84d6,old
1563.1999999284744,directmemory_phase,GW/globe.jpg,49.0,1.0,GW/jukebox.jpg,GW/dustpan.jpg,GW/teeth.jpg,GW/jukebox.jpg,GW/teeth.jpg,GW/dustpan.jpg,67db5618164a0fc0678e84d6,old
1303.100000023842,directmemory_phase,GW/snail.jpg,50.0,0.0,GW/hat.jpg,GW/globe.jpg,GW/wheelchair.jpg,GW/wheelchair.jpg,GW/globe.jpg,GW/hat.jpg,67db5618164a0fc0678e84d6,old
1977.2999999523165,directmemory_phase,GW/basket.jpg,51.0,1.0,GW/camera.jpg,GW/teeth.jpg,GW/jukebox.jpg,GW/jukebox.jpg,GW/teeth.jpg,GW/camera.jpg,67db5618164a0fc0678e84d6,old
2267.5,directmemory_phase,GW/snail.jpg,50.0,0.0,GW/camera.jpg,GW/gong.jpg,GW/globe.jpg,GW/camera.jpg,GW/globe.jpg,GW/gong.jpg,67db5618164a0fc0678e84d6,old
1545.399999976158,directmemory_phase,GW/dustpan.jpg,49.0,0.0,GW/barrel.jpg,GW/jukebox.jpg,GW/teeth.jpg,GW/teeth.jpg,GW/jukebox.jpg,GW/barrel.jpg,67db5618164a0fc0678e84d6,old
2122.7999999523163,directmemory_phase,GW/camera.jpg,49.0,0.0,GW/paint.jpg,GW/snail.jpg,GW/barrel.jpg,GW/snail.jpg,GW/paint.jpg,GW/barrel.jpg,67db5618164a0fc0678e84d6,old
2485.7000000476837,directmemory_phase,GW/wheelchair.jpg,50.0,0.0,GW/barrel.jpg,GW/basket.jpg,GW/globe.jpg,GW/barrel.jpg,GW/globe.jpg,GW/basket.jpg,67db5618164a0fc0678e84d6,old
1973.1999999284744,directmemory_phase,GW/jukebox.jpg,51.0,1.0,GW/camera.jpg,GW/hat.jpg,GW/basket.jpg,GW/basket.jpg,GW/hat.jpg,GW/camera.jpg,67db5618164a0fc0678e84d6,old
2080.0,directmemory_phase,GW/wheelchair.jpg,49.0,1.0,GW/soldier.jpg,GW/teeth.jpg,GW/paint.jpg,GW/soldier.jpg,GW/paint.jpg,GW/teeth.jpg,67db5618164a0fc0678e84d6,old
2059.5,directmemory_phase,GW/hat.jpg,50.0,1.0,GW/teeth.jpg,GW/gong.jpg,GW/paint.jpg,GW/gong.jpg,GW/teeth.jpg,GW/paint.jpg,67db5618164a0fc0678e84d6,old
1536.7999999523165,directmemory_phase,GW/basket.jpg,49.0,0.0,GW/wheelchair.jpg,GW/hat.jpg,GW/paint.jpg,GW/paint.jpg,GW/hat.jpg,GW/wheelchair.jpg,67db5618164a0fc0678e84d6,old
1638.6999999284744,directmemory_phase,GW/gong.jpg,50.0,1.0,GW/paint.jpg,GW/jukebox.jpg,GW/barrel.jpg,GW/jukebox.jpg,GW/paint.jpg,GW/barrel.jpg,67db5618164a0fc0678e84d6,old
1203.399999976158,directmemory_phase,GW/wheelchair.jpg,51.0,1.0,GW/basket.jpg,GW/paint.jpg,GW/snail.jpg,GW/snail.jpg,GW/paint.jpg,GW/basket.jpg,67db5618164a0fc0678e84d6,old
1377.0,directmemory_phase,GW/paint.jpg,50.0,0.0,GW/teeth.jpg,GW/jukebox.jpg,GW/globe.jpg,GW/globe.jpg,GW/jukebox.jpg,GW/teeth.jpg,67db5618164a0fc0678e84d6,old
1039.1999999284744,directmemory_phase,GW/gong.jpg,51.0,1.0,GW/wheelchair.jpg,GW/paint.jpg,GW/basket.jpg,GW/basket.jpg,GW/paint.jpg,GW/wheelchair.jpg,67db5618164a0fc0678e84d6,old
1178.3000000715256,directmemory_phase,GW/jukebox.jpg,49.0,0.0,GW/camera.jpg,GW/paint.jpg,GW/globe.jpg,GW/globe.jpg,GW/paint.jpg,GW/camera.jpg,67db5618164a0fc0678e84d6,old
1605.7000000476835,directmemory_phase,GW/gong.jpg,50.0,0.0,GW/snail.jpg,GW/globe.jpg,GW/hat.jpg,GW/hat.jpg,GW/globe.jpg,GW/snail.jpg,67db5618164a0fc0678e84d6,old
1836.1999999284744,directmemory_phase,GW/globe.jpg,51.0,0.0,GW/barrel.jpg,GW/soldier.jpg,GW/wheelchair.jpg,GW/barrel.jpg,GW/wheelchair.jpg,GW/soldier.jpg,67db5618164a0fc0678e84d6,old
2275.0,directmemory_phase,GW/gong.jpg,49.0,0.0,GW/camera.jpg,GW/dustpan.jpg,GW/teeth.jpg,GW/teeth.jpg,GW/dustpan.jpg,GW/camera.jpg,67db5618164a0fc0678e84d6,old
3903.899999976158,directmemory_phase,,50.0,1.0,,,,,,,67db5618164a0fc0678e84d6,old
2800.0,directmemory_phase,GW/dustpan.jpg,51.0,0.0,GW/camera.jpg,GW/barrel.jpg,GW/basket.jpg,GW/camera.jpg,GW/basket.jpg,GW/barrel.jpg,65631b21aff167a83105c476,old
3494.6999999284744,directmemory_phase,GW/gong.jpg,49.0,0.0,GW/globe.jpg,GW/hat.jpg,GW/teeth.jpg,GW/hat.jpg,GW/globe.jpg,GW/teeth.jpg,65631b21aff167a83105c476,old
4045.899999976158,directmemory_phase,GW/paint.jpg,50.0,1.0,GW/barrel.jpg,GW/dustpan.jpg,GW/wheelchair.jpg,GW/dustpan.jpg,GW/barrel.jpg,GW/wheelchair.jpg,65631b21aff167a83105c476,old
2662.8000000715256,directmemory_phase,GW/hat.jpg,49.0,0.0,GW/soldier.jpg,GW/barrel.jpg,GW/gong.jpg,GW/gong.jpg,GW/barrel.jpg,GW/soldier.jpg,65631b21aff167a83105c476,old
2482.399999976158,directmemory_phase,GW/paint.jpg,51.0,1.0,GW/wheelchair.jpg,GW/gong.jpg,GW/basket.jpg,GW/basket.jpg,GW/gong.jpg,GW/wheelchair.jpg,65631b21aff167a83105c476,old
3283.899999976158,directmemory_phase,GW/dustpan.jpg,49.0,1.0,GW/hat.jpg,GW/jukebox.jpg,GW/wheelchair.jpg,GW/hat.jpg,GW/wheelchair.jpg,GW/jukebox.jpg,65631b21aff167a83105c476,old
3040.899999976158,directmemory_phase,GW/gong.jpg,50.0,0.0,GW/camera.jpg,GW/jukebox.jpg,GW/soldier.jpg,GW/camera.jpg,GW/soldier.jpg,GW/jukebox.jpg,65631b21aff167a83105c476,old
3211.6999999284744,directmemory_phase,GW/basket.jpg,49.0,1.0,GW/jukebox.jpg,GW/hat.jpg,GW/barrel.jpg,GW/jukebox.jpg,GW/barrel.jpg,GW/hat.jpg,65631b21aff167a83105c476,old
3294.7999999523163,directmemory_phase,GW/camera.jpg,51.0,1.0,GW/jukebox.jpg,GW/paint.jpg,GW/gong.jpg,GW/gong.jpg,GW/paint.jpg,GW/jukebox.jpg,65631b21aff167a83105c476,old
4364.599999904633,directmemory_phase,GW/globe.jpg,50.0,1.0,GW/teeth.jpg,GW/hat.jpg,GW/wheelchair.jpg,GW/hat.jpg,GW/teeth.jpg,GW/wheelchair.jpg,65631b21aff167a83105c476,old
3239.399999976158,directmemory_phase,GW/camera.jpg,51.0,1.0,GW/basket.jpg,GW/hat.jpg,GW/soldier.jpg,GW/soldier.jpg,GW/hat.jpg,GW/basket.jpg,65631b21aff167a83105c476,old
4449.0,directmemory_phase,GW/gong.jpg,50.0,0.0,GW/basket.jpg,GW/soldier.jpg,GW/dustpan.jpg,GW/dustpan.jpg,GW/soldier.jpg,GW/basket.jpg,65631b21aff167a83105c476,old
2578.5,directmemory_phase,GW/globe.jpg,49.0,1.0,GW/barrel.jpg,GW/soldier.jpg,GW/jukebox.jpg,GW/barrel.jpg,GW/jukebox.jpg,GW/soldier.jpg,65631b21aff167a83105c476,old
2532.100000023842,directmemory_phase,GW/dustpan.jpg,49.0,1.0,GW/paint.jpg,GW/snail.jpg,GW/globe.jpg,GW/paint.jpg,GW/globe.jpg,GW/snail.jpg,65631b21aff167a83105c476,old
3246.5,directmemory_phase,GW/barrel.jpg,49.0,1.0,GW/globe.jpg,GW/wheelchair.jpg,GW/snail.jpg,GW/globe.jpg,GW/snail.jpg,GW/wheelchair.jpg,65631b21aff167a83105c476,old
3648.399999976158,directmemory_phase,GW/jukebox.jpg,50.0,0.0,GW/dustpan.jpg,GW/globe.jpg,GW/snail.jpg,GW/snail.jpg,GW/globe.jpg,GW/dustpan.jpg,65631b21aff167a83105c476,old
2936.600000023842,directmemory_phase,GW/teeth.jpg,49.0,0.0,GW/hat.jpg,GW/jukebox.jpg,GW/barrel.jpg,GW/barrel.jpg,GW/jukebox.jpg,GW/hat.jpg,65631b21aff167a83105c476,old
4538.100000023842,directmemory_phase,GW/globe.jpg,51.0,0.0,GW/jukebox.jpg,GW/paint.jpg,GW/snail.jpg,GW/paint.jpg,GW/jukebox.jpg,GW/snail.jpg,65631b21aff167a83105c476,old
4196.5,directmemory_phase,GW/dustpan.jpg,49.0,0.0,GW/globe.jpg,GW/gong.jpg,GW/snail.jpg,GW/gong.jpg,GW/globe.jpg,GW/snail.jpg,65631b21aff167a83105c476,old
4616.899999976158,directmemory_phase,GW/paint.jpg,50.0,0.0,GW/globe.jpg,GW/snail.jpg,GW/gong.jpg,GW/globe.jpg,GW/gong.jpg,GW/snail.jpg,65631b21aff167a83105c476,old
4700.799999952316,directmemory_phase,GW/camera.jpg,50.0,0.0,GW/jukebox.jpg,GW/hat.jpg,GW/dustpan.jpg,GW/dustpan.jpg,GW/hat.jpg,GW/jukebox.jpg,65631b21aff167a83105c476,old
3878.599999904633,directmemory_phase,GW/barrel.jpg,51.0,1.0,GW/wheelchair.jpg,GW/hat.jpg,GW/jukebox.jpg,GW/jukebox.jpg,GW/hat.jpg,GW/wheelchair.jpg,65631b21aff167a83105c476,old
5560.200000047684,directmemory_phase,GW/hat.jpg,51.0,1.0,GW/snail.jpg,GW/paint.jpg,GW/dustpan.jpg,GW/dustpan.jpg,GW/paint.jpg,GW/snail.jpg,65631b21aff167a83105c476,old
6084.299999952316,directmemory_phase,GW/snail.jpg,51.0,0.0,GW/jukebox.jpg,GW/dustpan.jpg,GW/barrel.jpg,GW/jukebox.jpg,GW/barrel.jpg,GW/dustpan.jpg,65631b21aff167a83105c476,old
3722.0,directmemory_phase,GW/barrel.jpg,51.0,1.0,GW/wheelchair.jpg,GW/snail.jpg,GW/teeth.jpg,GW/teeth.jpg,GW/snail.jpg,GW/wheelchair.jpg,65631b21aff167a83105c476,old
5583.299999952316,directmemory_phase,GW/hat.jpg,50.0,0.0,GW/globe.jpg,GW/teeth.jpg,GW/camera.jpg,GW/globe.jpg,GW/camera.jpg,GW/teeth.jpg,65631b21aff167a83105c476,old
2941.0,directmemory_phase,GW/jukebox.jpg,49.0,1.0,GW/barrel.jpg,GW/gong.jpg,GW/globe.jpg,GW/barrel.jpg,GW/globe.jpg,GW/gong.jpg,65631b21aff167a83105c476,old
3553.7999999523163,directmemory_phase,GW/gong.jpg,49.0,1.0,GW/wheelchair.jpg,GW/teeth.jpg,GW/soldier.jpg,GW/wheelchair.jpg,GW/soldier.jpg,GW/teeth.jpg,65631b21aff167a83105c476,old
3768.600000023842,directmemory_phase,GW/soldier.jpg,49.0,0.0,GW/globe.jpg,GW/dustpan.jpg,GW/camera.jpg,GW/camera.jpg,GW/dustpan.jpg,GW/globe.jpg,65631b21aff167a83105c476,old
2003.899999976158,directmemory_phase,GW/wheelchair.jpg,51.0,1.0,GW/globe.jpg,GW/hat.jpg,GW/gong.jpg,GW/gong.jpg,GW/hat.jpg,GW/globe.jpg,65631b21aff167a83105c476,old
3838.6999999284744,directmemory_phase,GW/basket.jpg,50.0,1.0,GW/globe.jpg,GW/paint.jpg,GW/soldier.jpg,GW/paint.jpg,GW/globe.jpg,GW/soldier.jpg,65631b21aff167a83105c476,old
,directmemory_phase,,,0.0,,,,,,,65631b21aff167a83105c476,old
,directmemory_phase,GW/globe.jpg,,0.0,GW/paint.jpg,GW/hat.jpg,GW/wheelchair.jpg,GW/hat.jpg,GW/paint.jpg,GW/wheelchair.jpg,66436e0c091888a5fc85584e,old
2505.5,directmemory_phase,GW/barrel.jpg,50.0,0.0,GW/dustpan.jpg,GW/paint.jpg,GW/jukebox.jpg,GW/jukebox.jpg,GW/paint.jpg,GW/dustpan.jpg,66436e0c091888a5fc85584e,old
2228.600000023842,directmemory_phase,GW/snail.jpg,50.0,0.0,GW/basket.jpg,GW/barrel.jpg,GW/gong.jpg,GW/gong.jpg,GW/barrel.jpg,GW/basket.jpg,66436e0c091888a5fc85584e,old
2795.400000095367,directmemory_phase,GW/teeth.jpg,50.0,0.0,GW/hat.jpg,GW/soldier.jpg,GW/dustpan.jpg,GW/dustpan.jpg,GW/soldier.jpg,GW/hat.jpg,66436e0c091888a5fc85584e,old
3549.899999976158,directmemory_phase,GW/camera.jpg,49.0,1.0,GW/paint.jpg,GW/soldier.jpg,GW/hat.jpg,GW/paint.jpg,GW/hat.jpg,GW/soldier.jpg,66436e0c091888a5fc85584e,old
2511.8000000715256,directmemory_phase,GW/hat.jpg,49.0,0.0,GW/camera.jpg,GW/basket.jpg,GW/gong.jpg,GW/basket.jpg,GW/camera.jpg,GW/gong.jpg,66436e0c091888a5fc85584e,old
2150.099999904633,directmemory_phase,GW/barrel.jpg,50.0,0.0,GW/wheelchair.jpg,GW/paint.jpg,GW/globe.jpg,GW/globe.jpg,GW/paint.jpg,GW/wheelchair.jpg,66436e0c091888a5fc85584e,old
2514.0,directmemory_phase,GW/dustpan.jpg,51.0,0.0,GW/soldier.jpg,GW/snail.jpg,GW/hat.jpg,GW/soldier.jpg,GW/hat.jpg,GW/snail.jpg,66436e0c091888a5fc85584e,old
2661.1999999284744,directmemory_phase,GW/barrel.jpg,50.0,0.0,GW/camera.jpg,GW/teeth.jpg,GW/soldier.jpg,GW/camera.jpg,GW/soldier.jpg,GW/teeth.jpg,66436e0c091888a5fc85584e,old
2738.1999999284744,directmemory_phase,GW/dustpan.jpg,51.0,1.0,GW/snail.jpg,GW/wheelchair.jpg,GW/basket.jpg,GW/basket.jpg,GW/wheelchair.jpg,GW/snail.jpg,66436e0c091888a5fc85584e,old
2408.6999999284744,directmemory_phase,GW/snail.jpg,50.0,1.0,GW/barrel.jpg,GW/globe.jpg,GW/soldier.jpg,GW/globe.jpg,GW/barrel.jpg,GW/soldier.jpg,66436e0c091888a5fc85584e,old
2621.5,directmemory_phase,GW/dustpan.jpg,51.0,1.0,GW/globe.jpg,GW/wheelchair.jpg,GW/teeth.jpg,GW/teeth.jpg,GW/wheelchair.jpg,GW/globe.jpg,66436e0c091888a5fc85584e,old
2058.600000023842,directmemory_phase,GW/gong.jpg,50.0,1.0,GW/globe.jpg,GW/snail.jpg,GW/basket.jpg,GW/snail.jpg,GW/globe.jpg,GW/basket.jpg,66436e0c091888a5fc85584e,old
1790.2000000476835,directmemory_phase,GW/globe.jpg,50.0,1.0,GW/jukebox.jpg,GW/barrel.jpg,GW/dustpan.jpg,GW/barrel.jpg,GW/jukebox.jpg,GW/dustpan.jpg,66436e0c091888a5fc85584e,old
2729.600000023842,directmemory_phase,GW/basket.jpg,49.0,1.0,GW/hat.jpg,GW/barrel.jpg,GW/globe.jpg,GW/hat.jpg,GW/globe.jpg,GW/barrel.jpg,66436e0c091888a5fc85584e,old
2047.5,directmemory_phase,GW/soldier.jpg,49.0,1.0,GW/wheelchair.jpg,GW/camera.jpg,GW/teeth.jpg,GW/wheelchair.jpg,GW/teeth.jpg,GW/camera.jpg,66436e0c091888a5fc85584e,old
1990.100000023842,directmemory_phase,GW/hat.jpg,49.0,1.0,GW/globe.jpg,GW/teeth.jpg,GW/camera.jpg,GW/globe.jpg,GW/camera.jpg,GW/teeth.jpg,66436e0c091888a5fc85584e,old
1406.899999976158,directmemory_phase,GW/paint.jpg,49.0,1.0,GW/camera.jpg,GW/gong.jpg,GW/globe.jpg,GW/camera.jpg,GW/globe.jpg,GW/gong.jpg,66436e0c091888a5fc85584e,old
1392.1999999284744,directmemory_phase,GW/wheelchair.jpg,49.0,1.0,GW/soldier.jpg,GW/barrel.jpg,GW/dustpan.jpg,GW/soldier.jpg,GW/dustpan.jpg,GW/barrel.jpg,66436e0c091888a5fc85584e,old
2057.899999976158,directmemory_phase,GW/globe.jpg,49.0,1.0,GW/camera.jpg,GW/soldier.jpg,GW/gong.jpg,GW/camera.jpg,GW/gong.jpg,GW/soldier.jpg,66436e0c091888a5fc85584e,old
2310.5,directmemory_phase,GW/soldier.jpg,49.0,1.0,GW/jukebox.jpg,GW/snail.jpg,GW/teeth.jpg,GW/jukebox.jpg,GW/teeth.jpg,GW/snail.jpg,66436e0c091888a5fc85584e,old
2354.2999999523163,directmemory_phase,GW/camera.jpg,50.0,0.0,GW/basket.jpg,GW/hat.jpg,GW/barrel.jpg,GW/barrel.jpg,GW/hat.jpg,GW/basket.jpg,66436e0c091888a5fc85584e,old
2234.7000000476837,directmemory_phase,GW/jukebox.jpg,49.0,0.0,GW/paint.jpg,GW/basket.jpg,GW/hat.jpg,GW/hat.jpg,GW/basket.jpg,GW/paint.jpg,66436e0c091888a5fc85584e,old
4218.100000023842,directmemory_phase,GW/globe.jpg,50.0,1.0,GW/gong.jpg,GW/snail.jpg,GW/soldier.jpg,GW/snail.jpg,GW/gong.jpg,GW/soldier.jpg,66436e0c091888a5fc85584e,old
3001.899999976158,directmemory_phase,GW/jukebox.jpg,49.0,1.0,GW/barrel.jpg,GW/gong.jpg,GW/globe.jpg,GW/barrel.jpg,GW/globe.jpg,GW/gong.jpg,66436e0c091888a5fc85584e,old
2064.5,directmemory_phase,GW/soldier.jpg,49.0,1.0,GW/dustpan.jpg,GW/snail.jpg,GW/basket.jpg,GW/dustpan.jpg,GW/basket.jpg,GW/snail.jpg,66436e0c091888a5fc85584e,old
1417.8000000715256,directmemory_phase,GW/hat.jpg,49.0,1.0,GW/jukebox.jpg,GW/gong.jpg,GW/soldier.jpg,GW/jukebox.jpg,GW/soldier.jpg,GW/gong.jpg,66436e0c091888a5fc85584e,old
3578.5,directmemory_phase,GW/basket.jpg,51.0,0.0,GW/teeth.jpg,GW/dustpan.jpg,GW/snail.jpg,GW/dustpan.jpg,GW/teeth.jpg,GW/snail.jpg,66436e0c091888a5fc85584e,old
2942.2000000476837,directmemory_phase,GW/camera.jpg,51.0,0.0,GW/gong.jpg,GW/globe.jpg,GW/basket.jpg,GW/globe.jpg,GW/gong.jpg,GW/basket.jpg,66436e0c091888a5fc85584e,old
2403.0,directmemory_phase,GW/jukebox.jpg,50.0,0.0,GW/paint.jpg,GW/globe.jpg,GW/soldier.jpg,GW/soldier.jpg,GW/globe.jpg,GW/paint.jpg,66436e0c091888a5fc85584e,old
2194.600000023842,directmemory_phase,GW/snail.jpg,49.0,1.0,GW/camera.jpg,GW/soldier.jpg,GW/hat.jpg,GW/camera.jpg,GW/hat.jpg,GW/soldier.jpg,66436e0c091888a5fc85584e,old
,directmemory_phase,,,0.0,,,,,,,66436e0c091888a5fc85584e,old
