rt,trial_type,stimulus,key_press,stimulus_left,stimulus_right,accuracy,stimulus_correct,condition,specific_pairs,partid,age
1581.699999988079,shortestpath_phase,GW/barrel.jpg,49.0,GW/gong.jpg,GW/snail.jpg,0.0,GW/snail.jpg,Two Edge Diff,Four Edge Six Edge,67dcc12657e2fe1375df7f89,young
1325.5999999940395,shortestpath_phase,GW/hat.jpg,49.0,GW/gong.jpg,GW/soldier.jpg,0.0,GW/soldier.jpg,Three Edge Diff,Two Edge Five Edge,67dcc12657e2fe1375df7f89,young
1476.800000011921,shortestpath_phase,GW/paint.jpg,49.0,GW/globe.jpg,GW/camera.jpg,1.0,GW/globe.jpg,One Edge Diff,Four Edge Five Edge,67dcc12657e2fe1375df7f89,young
1651.699999988079,shortestpath_phase,GW/gong.jpg,50.0,GW/teeth.jpg,GW/barrel.jpg,0.0,GW/teeth.jpg,Four Edge Diff,Two Edge Six Edge,67dcc12657e2fe1375df7f89,young
1197.9000000059605,shortestpath_phase,GW/basket.jpg,50.0,GW/hat.jpg,GW/dustpan.jpg,1.0,GW/dustpan.jpg,Three Edge Diff,Three Edge Six Edge,67dcc12657e2fe1375df7f89,young
955.8999999910592,shortestpath_phase,GW/paint.jpg,50.0,GW/camera.jpg,GW/teeth.jpg,1.0,GW/teeth.jpg,Three Edge Diff,Two Edge Five Edge,67dcc12657e2fe1375df7f89,young
1578.2000000029802,shortestpath_phase,GW/barrel.jpg,50.0,GW/globe.jpg,GW/gong.jpg,0.0,GW/globe.jpg,Four Edge Diff,Two Edge Six Edge,67dcc12657e2fe1375df7f89,young
1743.3999999910593,shortestpath_phase,GW/snail.jpg,49.0,GW/paint.jpg,GW/basket.jpg,0.0,GW/basket.jpg,One Edge Diff,Two Edge Three Edge,67dcc12657e2fe1375df7f89,young
1125.0,shortestpath_phase,GW/barrel.jpg,50.0,GW/paint.jpg,GW/wheelchair.jpg,1.0,GW/wheelchair.jpg,One Edge Diff,Five Edge Six Edge,67dcc12657e2fe1375df7f89,young
1960.199999988079,shortestpath_phase,GW/gong.jpg,49.0,GW/hat.jpg,GW/teeth.jpg,0.0,GW/teeth.jpg,Three Edge Diff,Two Edge Five Edge,67dcc12657e2fe1375df7f89,young
1450.5999999940395,shortestpath_phase,GW/barrel.jpg,50.0,GW/basket.jpg,GW/gong.jpg,0.0,GW/basket.jpg,One Edge Diff,Five Edge Six Edge,67dcc12657e2fe1375df7f89,young
1774.2999999970198,shortestpath_phase,GW/camera.jpg,50.0,GW/teeth.jpg,GW/gong.jpg,0.0,GW/teeth.jpg,One Edge Diff,Three Edge Four Edge,67dcc12657e2fe1375df7f89,young
1803.29999999702,shortestpath_phase,GW/hat.jpg,49.0,GW/basket.jpg,GW/globe.jpg,0.0,GW/globe.jpg,Two Edge Diff,Three Edge Five Edge,67dcc12657e2fe1375df7f89,young
1585.0,shortestpath_phase,GW/paint.jpg,49.0,GW/hat.jpg,GW/teeth.jpg,0.0,GW/teeth.jpg,Four Edge Diff,Two Edge Six Edge,67dcc12657e2fe1375df7f89,young
1195.7999999970198,shortestpath_phase,GW/barrel.jpg,50.0,GW/paint.jpg,GW/globe.jpg,1.0,GW/globe.jpg,Four Edge Diff,Two Edge Six Edge,67dcc12657e2fe1375df7f89,young
1840.8999999910593,shortestpath_phase,GW/gong.jpg,49.0,GW/camera.jpg,GW/basket.jpg,0.0,GW/basket.jpg,Two Edge Diff,Two Edge Four Edge,67dcc12657e2fe1375df7f89,young
1247.2999999970198,shortestpath_phase,GW/barrel.jpg,50.0,GW/paint.jpg,GW/teeth.jpg,1.0,GW/teeth.jpg,Two Edge Diff,Four Edge Six Edge,67dcc12657e2fe1375df7f89,young
1260.2999999970198,shortestpath_phase,GW/hat.jpg,49.0,GW/paint.jpg,GW/gong.jpg,0.0,GW/gong.jpg,One Edge Diff,Five Edge Six Edge,67dcc12657e2fe1375df7f89,young
1378.9000000059605,shortestpath_phase,GW/barrel.jpg,49.0,GW/wheelchair.jpg,GW/camera.jpg,0.0,GW/camera.jpg,Three Edge Diff,Three Edge Six Edge,67dcc12657e2fe1375df7f89,young
1799.7000000029802,shortestpath_phase,GW/gong.jpg,49.0,GW/hat.jpg,GW/basket.jpg,0.0,GW/basket.jpg,Three Edge Diff,Three Edge Six Edge,67dcc12657e2fe1375df7f89,young
1099.9000000059605,shortestpath_phase,GW/soldier.jpg,50.0,GW/barrel.jpg,GW/paint.jpg,0.0,GW/barrel.jpg,One Edge Diff,Three Edge Four Edge,67dcc12657e2fe1375df7f89,young
1208.0,shortestpath_phase,GW/dustpan.jpg,50.0,GW/gong.jpg,GW/basket.jpg,1.0,GW/basket.jpg,One Edge Diff,Two Edge Three Edge,67dcc12657e2fe1375df7f89,young
1663.1000000089407,shortestpath_phase,GW/wheelchair.jpg,50.0,GW/hat.jpg,GW/paint.jpg,1.0,GW/paint.jpg,Two Edge Diff,Two Edge Four Edge,67dcc12657e2fe1375df7f89,young
1420.7999999970198,shortestpath_phase,GW/barrel.jpg,49.0,GW/wheelchair.jpg,GW/hat.jpg,0.0,GW/hat.jpg,Two Edge Diff,Three Edge Five Edge,67dcc12657e2fe1375df7f89,young
1559.2000000029802,shortestpath_phase,GW/paint.jpg,50.0,GW/soldier.jpg,GW/camera.jpg,0.0,GW/soldier.jpg,One Edge Diff,Four Edge Five Edge,67dcc12657e2fe1375df7f89,young
1952.29999999702,shortestpath_phase,GW/camera.jpg,50.0,GW/globe.jpg,GW/wheelchair.jpg,0.0,GW/globe.jpg,One Edge Diff,Two Edge Three Edge,67dcc12657e2fe1375df7f89,young
1164.7999999970198,shortestpath_phase,GW/teeth.jpg,49.0,GW/hat.jpg,GW/gong.jpg,0.0,GW/gong.jpg,Two Edge Diff,Two Edge Four Edge,67dcc12657e2fe1375df7f89,young
2101.20000000298,shortestpath_phase,GW/barrel.jpg,49.0,GW/hat.jpg,GW/basket.jpg,1.0,GW/hat.jpg,Two Edge Diff,Three Edge Five Edge,67dcc12657e2fe1375df7f89,young
1209.6000000089407,shortestpath_phase,GW/globe.jpg,50.0,GW/wheelchair.jpg,GW/paint.jpg,0.0,GW/wheelchair.jpg,One Edge Diff,Three Edge Four Edge,67dcc12657e2fe1375df7f89,young
1603.5,shortestpath_phase,GW/barrel.jpg,50.0,GW/dustpan.jpg,GW/snail.jpg,0.0,GW/dustpan.jpg,One Edge Diff,Three Edge Four Edge,67dcc12657e2fe1375df7f89,young
2177.1000000089407,shortestpath_phase,GW/paint.jpg,49.0,GW/barrel.jpg,GW/wheelchair.jpg,0.0,GW/wheelchair.jpg,Four Edge Diff,Two Edge Six Edge,67dcc12657e2fe1375df7f89,young
2020.4000000059605,shortestpath_phase,GW/barrel.jpg,50.0,GW/teeth.jpg,GW/gong.jpg,0.0,GW/teeth.jpg,Two Edge Diff,Four Edge Six Edge,67dcc12657e2fe1375df7f89,young
1372.7000000029802,shortestpath_phase,GW/paint.jpg,49.0,GW/globe.jpg,GW/jukebox.jpg,1.0,GW/globe.jpg,One Edge Diff,Four Edge Five Edge,67dcc12657e2fe1375df7f89,young
1932.6000000089407,shortestpath_phase,GW/barrel.jpg,50.0,GW/camera.jpg,GW/paint.jpg,0.0,GW/camera.jpg,Four Edge Diff,Two Edge Six Edge,67dcc12657e2fe1375df7f89,young
3413.199999988079,shortestpath_phase,GW/basket.jpg,50.0,GW/soldier.jpg,GW/hat.jpg,0.0,GW/soldier.jpg,Two Edge Diff,Three Edge Five Edge,67dcc12657e2fe1375df7f89,young
1440.7999999970198,shortestpath_phase,GW/paint.jpg,50.0,GW/camera.jpg,GW/wheelchair.jpg,1.0,GW/wheelchair.jpg,Three Edge Diff,Three Edge Six Edge,67dcc12657e2fe1375df7f89,young
1179.1000000089407,shortestpath_phase,GW/gong.jpg,49.0,GW/jukebox.jpg,GW/teeth.jpg,0.0,GW/teeth.jpg,Three Edge Diff,Three Edge Six Edge,67dcc12657e2fe1375df7f89,young
1406.0,shortestpath_phase,GW/dustpan.jpg,49.0,GW/hat.jpg,GW/camera.jpg,0.0,GW/camera.jpg,One Edge Diff,Two Edge Three Edge,67dcc12657e2fe1375df7f89,young
1932.199999988079,shortestpath_phase,GW/hat.jpg,49.0,GW/basket.jpg,GW/wheelchair.jpg,0.0,GW/wheelchair.jpg,One Edge Diff,Four Edge Five Edge,67dcc12657e2fe1375df7f89,young
1534.7000000029802,shortestpath_phase,GW/paint.jpg,49.0,GW/soldier.jpg,GW/barrel.jpg,1.0,GW/soldier.jpg,Two Edge Diff,Four Edge Six Edge,67dcc12657e2fe1375df7f89,young
1524.199999988079,shortestpath_phase,GW/jukebox.jpg,50.0,GW/paint.jpg,GW/hat.jpg,1.0,GW/hat.jpg,Three Edge Diff,Two Edge Five Edge,67dcc12657e2fe1375df7f89,young
2657.0,shortestpath_phase,GW/paint.jpg,49.0,GW/teeth.jpg,GW/barrel.jpg,1.0,GW/teeth.jpg,Four Edge Diff,Two Edge Six Edge,67dcc12657e2fe1375df7f89,young
1872.8999999910593,shortestpath_phase,GW/basket.jpg,50.0,GW/barrel.jpg,GW/camera.jpg,1.0,GW/camera.jpg,One Edge Diff,Four Edge Five Edge,67dcc12657e2fe1375df7f89,young
1856.800000011921,shortestpath_phase,GW/paint.jpg,49.0,GW/hat.jpg,GW/jukebox.jpg,0.0,GW/jukebox.jpg,One Edge Diff,Five Edge Six Edge,67dcc12657e2fe1375df7f89,young
1664.2999999970198,shortestpath_phase,GW/hat.jpg,50.0,GW/teeth.jpg,GW/paint.jpg,0.0,GW/teeth.jpg,Two Edge Diff,Four Edge Six Edge,67dcc12657e2fe1375df7f89,young
1257.5,shortestpath_phase,GW/paint.jpg,49.0,GW/soldier.jpg,GW/gong.jpg,0.0,GW/gong.jpg,One Edge Diff,Three Edge Four Edge,67dcc12657e2fe1375df7f89,young
1963.70000000298,shortestpath_phase,GW/hat.jpg,49.0,GW/paint.jpg,GW/wheelchair.jpg,0.0,GW/wheelchair.jpg,Two Edge Diff,Four Edge Six Edge,67dcc12657e2fe1375df7f89,young
1955.70000000298,shortestpath_phase,GW/gong.jpg,50.0,GW/paint.jpg,GW/camera.jpg,0.0,GW/paint.jpg,One Edge Diff,Three Edge Four Edge,67dcc12657e2fe1375df7f89,young
1350.4000000059605,shortestpath_phase,GW/teeth.jpg,49.0,GW/camera.jpg,GW/hat.jpg,1.0,GW/camera.jpg,One Edge Diff,Three Edge Four Edge,67dcc12657e2fe1375df7f89,young
2002.8999999910593,shortestpath_phase,GW/hat.jpg,50.0,GW/jukebox.jpg,GW/paint.jpg,0.0,GW/jukebox.jpg,Four Edge Diff,Two Edge Six Edge,67dcc12657e2fe1375df7f89,young
1545.0,shortestpath_phase,GW/dustpan.jpg,50.0,GW/hat.jpg,GW/snail.jpg,1.0,GW/snail.jpg,One Edge Diff,Two Edge Three Edge,67dcc12657e2fe1375df7f89,young
1663.300000011921,shortestpath_phase,GW/hat.jpg,49.0,GW/soldier.jpg,GW/wheelchair.jpg,1.0,GW/soldier.jpg,Two Edge Diff,Two Edge Four Edge,67dcc12657e2fe1375df7f89,young
1272.9000000059605,shortestpath_phase,GW/gong.jpg,49.0,GW/jukebox.jpg,GW/dustpan.jpg,0.0,GW/dustpan.jpg,Two Edge Diff,Three Edge Five Edge,67dcc12657e2fe1375df7f89,young
1884.4000000059605,shortestpath_phase,GW/hat.jpg,50.0,GW/wheelchair.jpg,GW/jukebox.jpg,1.0,GW/jukebox.jpg,Two Edge Diff,Two Edge Four Edge,67dcc12657e2fe1375df7f89,young
1695.199999988079,shortestpath_phase,GW/camera.jpg,49.0,GW/barrel.jpg,GW/paint.jpg,1.0,GW/barrel.jpg,Three Edge Diff,Two Edge Five Edge,67dcc12657e2fe1375df7f89,young
2360.9000000059605,shortestpath_phase,GW/globe.jpg,49.0,GW/hat.jpg,GW/paint.jpg,1.0,GW/hat.jpg,One Edge Diff,Three Edge Four Edge,67dcc12657e2fe1375df7f89,young
1405.2000000029802,shortestpath_phase,GW/gong.jpg,49.0,GW/barrel.jpg,GW/camera.jpg,0.0,GW/camera.jpg,Two Edge Diff,Four Edge Six Edge,67dcc12657e2fe1375df7f89,young
1229.6000000089407,shortestpath_phase,GW/hat.jpg,49.0,GW/dustpan.jpg,GW/teeth.jpg,1.0,GW/dustpan.jpg,One Edge Diff,Three Edge Four Edge,67dcc12657e2fe1375df7f89,young
1418.7000000029802,shortestpath_phase,GW/snail.jpg,50.0,GW/globe.jpg,GW/barrel.jpg,0.0,GW/globe.jpg,One Edge Diff,Three Edge Four Edge,67dcc12657e2fe1375df7f89,young
930.3999999910592,shortestpath_phase,GW/basket.jpg,49.0,GW/dustpan.jpg,GW/barrel.jpg,1.0,GW/dustpan.jpg,Three Edge Diff,Two Edge Five Edge,67dcc12657e2fe1375df7f89,young
1497.2000000029802,shortestpath_phase,GW/barrel.jpg,50.0,GW/paint.jpg,GW/snail.jpg,1.0,GW/snail.jpg,Two Edge Diff,Four Edge Six Edge,67dcc12657e2fe1375df7f89,young
1198.5,shortestpath_phase,GW/hat.jpg,49.0,GW/basket.jpg,GW/paint.jpg,1.0,GW/basket.jpg,One Edge Diff,Five Edge Six Edge,67dcc12657e2fe1375df7f89,young
1553.0999999940395,shortestpath_phase,GW/snail.jpg,49.0,GW/gong.jpg,GW/barrel.jpg,1.0,GW/gong.jpg,Two Edge Diff,Two Edge Four Edge,67dcc12657e2fe1375df7f89,young
1350.5999999940395,shortestpath_phase,GW/paint.jpg,50.0,GW/barrel.jpg,GW/jukebox.jpg,1.0,GW/jukebox.jpg,One Edge Diff,Five Edge Six Edge,67dcc12657e2fe1375df7f89,young
1266.3999999910593,shortestpath_phase,GW/gong.jpg,50.0,GW/basket.jpg,GW/barrel.jpg,0.0,GW/basket.jpg,Four Edge Diff,Two Edge Six Edge,67dcc12657e2fe1375df7f89,young
1532.9000000059605,shortestpath_phase,GW/paint.jpg,49.0,GW/barrel.jpg,GW/globe.jpg,0.0,GW/globe.jpg,Two Edge Diff,Four Edge Six Edge,67dcc12657e2fe1375df7f89,young
940.0999999940396,shortestpath_phase,GW/gong.jpg,49.0,GW/barrel.jpg,GW/jukebox.jpg,0.0,GW/jukebox.jpg,One Edge Diff,Five Edge Six Edge,67dcc12657e2fe1375df7f89,young
1264.0999999940395,shortestpath_phase,GW/paint.jpg,49.0,GW/hat.jpg,GW/wheelchair.jpg,0.0,GW/wheelchair.jpg,Four Edge Diff,Two Edge Six Edge,67dcc12657e2fe1375df7f89,young
1939.5999999940395,shortestpath_phase,GW/camera.jpg,49.0,GW/dustpan.jpg,GW/paint.jpg,1.0,GW/dustpan.jpg,Three Edge Diff,Three Edge Six Edge,67dcc12657e2fe1375df7f89,young
1303.6000000089407,shortestpath_phase,GW/teeth.jpg,50.0,GW/jukebox.jpg,GW/gong.jpg,1.0,GW/gong.jpg,One Edge Diff,Two Edge Three Edge,67dcc12657e2fe1375df7f89,young
2456.0,shortestpath_phase,GW/globe.jpg,49.0,GW/basket.jpg,GW/paint.jpg,1.0,GW/basket.jpg,One Edge Diff,Three Edge Four Edge,67dcc12657e2fe1375df7f89,young
1495.2999999970198,shortestpath_phase,GW/jukebox.jpg,50.0,GW/soldier.jpg,GW/gong.jpg,0.0,GW/soldier.jpg,Three Edge Diff,Two Edge Five Edge,67dcc12657e2fe1375df7f89,young
1905.4000000059605,shortestpath_phase,GW/wheelchair.jpg,50.0,GW/barrel.jpg,GW/hat.jpg,1.0,GW/hat.jpg,One Edge Diff,Four Edge Five Edge,67dcc12657e2fe1375df7f89,young
1397.5,shortestpath_phase,GW/paint.jpg,49.0,GW/gong.jpg,GW/camera.jpg,1.0,GW/gong.jpg,Two Edge Diff,Three Edge Five Edge,67dcc12657e2fe1375df7f89,young
1253.5,shortestpath_phase,GW/wheelchair.jpg,50.0,GW/soldier.jpg,GW/barrel.jpg,0.0,GW/soldier.jpg,Three Edge Diff,Three Edge Six Edge,67dcc12657e2fe1375df7f89,young
1072.0,shortestpath_phase,GW/hat.jpg,49.0,GW/snail.jpg,GW/gong.jpg,1.0,GW/snail.jpg,Two Edge Diff,Three Edge Five Edge,67dcc12657e2fe1375df7f89,young
1079.5,shortestpath_phase,GW/dustpan.jpg,49.0,GW/paint.jpg,GW/camera.jpg,0.0,GW/camera.jpg,One Edge Diff,Two Edge Three Edge,67dcc12657e2fe1375df7f89,young
1253.2000000029802,shortestpath_phase,GW/hat.jpg,49.0,GW/paint.jpg,GW/soldier.jpg,0.0,GW/soldier.jpg,Four Edge Diff,Two Edge Six Edge,67dcc12657e2fe1375df7f89,young
1327.2000000029802,shortestpath_phase,GW/basket.jpg,50.0,GW/camera.jpg,GW/hat.jpg,0.0,GW/camera.jpg,One Edge Diff,Four Edge Five Edge,67dcc12657e2fe1375df7f89,young
1858.5,shortestpath_phase,GW/globe.jpg,50.0,GW/gong.jpg,GW/soldier.jpg,1.0,GW/soldier.jpg,Two Edge Diff,Two Edge Four Edge,67dcc12657e2fe1375df7f89,young
2303.0,shortestpath_phase,GW/jukebox.jpg,50.0,GW/dustpan.jpg,GW/gong.jpg,0.0,GW/dustpan.jpg,Three Edge Diff,Two Edge Five Edge,67dcc12657e2fe1375df7f89,young
1453.5999999940395,shortestpath_phase,GW/soldier.jpg,50.0,GW/gong.jpg,GW/hat.jpg,1.0,GW/hat.jpg,One Edge Diff,Two Edge Three Edge,67dcc12657e2fe1375df7f89,young
1040.1000000089407,shortestpath_phase,GW/paint.jpg,49.0,GW/hat.jpg,GW/camera.jpg,0.0,GW/camera.jpg,One Edge Diff,Five Edge Six Edge,67dcc12657e2fe1375df7f89,young
1709.0,shortestpath_phase,GW/gong.jpg,49.0,GW/soldier.jpg,GW/camera.jpg,1.0,GW/soldier.jpg,One Edge Diff,Three Edge Four Edge,67dcc12657e2fe1375df7f89,young
1607.7999999970198,shortestpath_phase,GW/hat.jpg,50.0,GW/jukebox.jpg,GW/gong.jpg,0.0,GW/jukebox.jpg,Three Edge Diff,Three Edge Six Edge,67dcc12657e2fe1375df7f89,young
1164.0,shortestpath_phase,GW/paint.jpg,49.0,GW/globe.jpg,GW/hat.jpg,1.0,GW/globe.jpg,Two Edge Diff,Four Edge Six Edge,67dcc12657e2fe1375df7f89,young
2537.5,shortestpath_phase,GW/jukebox.jpg,49.0,GW/hat.jpg,GW/paint.jpg,1.0,GW/hat.jpg,Three Edge Diff,Three Edge Six Edge,67dcc12657e2fe1375df7f89,young
1936.29999999702,shortestpath_phase,GW/barrel.jpg,50.0,GW/paint.jpg,GW/basket.jpg,1.0,GW/basket.jpg,One Edge Diff,Five Edge Six Edge,67dcc12657e2fe1375df7f89,young
1785.9000000059605,shortestpath_phase,GW/hat.jpg,49.0,GW/gong.jpg,GW/soldier.jpg,0.0,GW/soldier.jpg,Three Edge Diff,Three Edge Six Edge,67dcc12657e2fe1375df7f89,young
1133.0,shortestpath_phase,GW/basket.jpg,50.0,GW/camera.jpg,GW/gong.jpg,1.0,GW/gong.jpg,Two Edge Diff,Two Edge Four Edge,67dcc12657e2fe1375df7f89,young
1466.7999999970198,shortestpath_phase,GW/barrel.jpg,49.0,GW/wheelchair.jpg,GW/camera.jpg,0.0,GW/camera.jpg,Three Edge Diff,Two Edge Five Edge,67dcc12657e2fe1375df7f89,young
1523.0,shortestpath_phase,GW/gong.jpg,50.0,GW/hat.jpg,GW/barrel.jpg,0.0,GW/hat.jpg,One Edge Diff,Five Edge Six Edge,67dcc12657e2fe1375df7f89,young
1603.7999999970198,shortestpath_phase,GW/paint.jpg,49.0,GW/jukebox.jpg,GW/soldier.jpg,0.0,GW/soldier.jpg,One Edge Diff,Four Edge Five Edge,67dcc12657e2fe1375df7f89,young
1596.5,shortestpath_phase,GW/gong.jpg,50.0,GW/globe.jpg,GW/hat.jpg,0.0,GW/globe.jpg,One Edge Diff,Four Edge Five Edge,67dcc12657e2fe1375df7f89,young
2167.5,shortestpath_phase,GW/paint.jpg,50.0,GW/soldier.jpg,GW/hat.jpg,0.0,GW/soldier.jpg,Two Edge Diff,Four Edge Six Edge,67dcc12657e2fe1375df7f89,young
1097.4000000059605,shortestpath_phase,GW/barrel.jpg,49.0,GW/wheelchair.jpg,GW/gong.jpg,1.0,GW/wheelchair.jpg,One Edge Diff,Five Edge Six Edge,67dcc12657e2fe1375df7f89,young
1151.5999999940395,shortestpath_phase,GW/globe.jpg,49.0,GW/hat.jpg,GW/soldier.jpg,0.0,GW/soldier.jpg,One Edge Diff,Two Edge Three Edge,67dcc12657e2fe1375df7f89,young
1299.1000000089407,shortestpath_phase,GW/wheelchair.jpg,50.0,GW/dustpan.jpg,GW/camera.jpg,0.0,GW/dustpan.jpg,One Edge Diff,Two Edge Three Edge,67dcc12657e2fe1375df7f89,young
1434.5,shortestpath_phase,GW/globe.jpg,49.0,GW/paint.jpg,GW/soldier.jpg,0.0,GW/soldier.jpg,Two Edge Diff,Two Edge Four Edge,67dcc12657e2fe1375df7f89,young
1838.79999999702,shortestpath_phase,GW/jukebox.jpg,49.0,GW/gong.jpg,GW/hat.jpg,0.0,GW/hat.jpg,Three Edge Diff,Three Edge Six Edge,67dcc12657e2fe1375df7f89,young
1155.0,shortestpath_phase,GW/globe.jpg,50.0,GW/camera.jpg,GW/paint.jpg,0.0,GW/camera.jpg,Two Edge Diff,Two Edge Four Edge,67dcc12657e2fe1375df7f89,young
1491.5999999940395,shortestpath_phase,GW/soldier.jpg,50.0,GW/jukebox.jpg,GW/barrel.jpg,0.0,GW/jukebox.jpg,One Edge Diff,Two Edge Three Edge,67dcc12657e2fe1375df7f89,young
1220.2000000029802,shortestpath_phase,GW/camera.jpg,49.0,GW/snail.jpg,GW/paint.jpg,1.0,GW/snail.jpg,Three Edge Diff,Three Edge Six Edge,67dcc12657e2fe1375df7f89,young
1419.5999999940395,shortestpath_phase,GW/basket.jpg,50.0,GW/barrel.jpg,GW/jukebox.jpg,1.0,GW/jukebox.jpg,One Edge Diff,Four Edge Five Edge,67dcc12657e2fe1375df7f89,young
1397.1000000089407,shortestpath_phase,GW/gong.jpg,49.0,GW/barrel.jpg,GW/snail.jpg,0.0,GW/snail.jpg,Four Edge Diff,Two Edge Six Edge,67dcc12657e2fe1375df7f89,young
1609.5,shortestpath_phase,GW/barrel.jpg,49.0,GW/soldier.jpg,GW/basket.jpg,1.0,GW/soldier.jpg,Two Edge Diff,Three Edge Five Edge,67dcc12657e2fe1375df7f89,young
1377.0,shortestpath_phase,GW/paint.jpg,50.0,GW/barrel.jpg,GW/camera.jpg,1.0,GW/camera.jpg,One Edge Diff,Five Edge Six Edge,67dcc12657e2fe1375df7f89,young
1730.5999999940395,shortestpath_phase,GW/hat.jpg,49.0,GW/basket.jpg,GW/dustpan.jpg,0.0,GW/dustpan.jpg,Two Edge Diff,Three Edge Five Edge,67dcc12657e2fe1375df7f89,young
1522.2999999970198,shortestpath_phase,GW/gong.jpg,50.0,GW/paint.jpg,GW/hat.jpg,0.0,GW/paint.jpg,Two Edge Diff,Three Edge Five Edge,67dcc12657e2fe1375df7f89,young
1553.5,shortestpath_phase,GW/hat.jpg,49.0,GW/teeth.jpg,GW/gong.jpg,1.0,GW/teeth.jpg,One Edge Diff,Four Edge Five Edge,67dcc12657e2fe1375df7f89,young
1237.2999999970198,shortestpath_phase,GW/camera.jpg,49.0,GW/wheelchair.jpg,GW/dustpan.jpg,0.0,GW/dustpan.jpg,One Edge Diff,Two Edge Three Edge,67dcc12657e2fe1375df7f89,young
1301.8999999910593,shortestpath_phase,GW/gong.jpg,50.0,GW/snail.jpg,GW/jukebox.jpg,0.0,GW/snail.jpg,Three Edge Diff,Two Edge Five Edge,67dcc12657e2fe1375df7f89,young
1086.0,shortestpath_phase,GW/wheelchair.jpg,49.0,GW/barrel.jpg,GW/globe.jpg,0.0,GW/globe.jpg,Two Edge Diff,Three Edge Five Edge,67dcc12657e2fe1375df7f89,young
1535.7000000029802,shortestpath_phase,GW/barrel.jpg,49.0,GW/camera.jpg,GW/gong.jpg,1.0,GW/camera.jpg,Four Edge Diff,Two Edge Six Edge,67dcc12657e2fe1375df7f89,young
1056.4000000059605,shortestpath_phase,GW/gong.jpg,50.0,GW/globe.jpg,GW/barrel.jpg,0.0,GW/globe.jpg,Two Edge Diff,Four Edge Six Edge,67dcc12657e2fe1375df7f89,young
1322.8999999910593,shortestpath_phase,GW/jukebox.jpg,50.0,GW/paint.jpg,GW/dustpan.jpg,1.0,GW/dustpan.jpg,Three Edge Diff,Two Edge Five Edge,67dcc12657e2fe1375df7f89,young
1236.8999999910593,shortestpath_phase,GW/gong.jpg,50.0,GW/hat.jpg,GW/camera.jpg,1.0,GW/camera.jpg,One Edge Diff,Four Edge Five Edge,67dcc12657e2fe1375df7f89,young
1109.7000000029802,shortestpath_phase,GW/jukebox.jpg,50.0,GW/dustpan.jpg,GW/wheelchair.jpg,0.0,GW/dustpan.jpg,Two Edge Diff,Two Edge Four Edge,67dcc12657e2fe1375df7f89,young
1864.3999999910593,shortestpath_phase,GW/gong.jpg,49.0,GW/snail.jpg,GW/hat.jpg,1.0,GW/snail.jpg,Three Edge Diff,Two Edge Five Edge,67dcc12657e2fe1375df7f89,young
1250.3999999910593,shortestpath_phase,GW/camera.jpg,50.0,GW/dustpan.jpg,GW/gong.jpg,0.0,GW/dustpan.jpg,Two Edge Diff,Two Edge Four Edge,67dcc12657e2fe1375df7f89,young
2326.5999999940395,shortestpath_phase,,49.0,,,1.0,,Two Edge Diff,Three Edge Five Edge,67dcc12657e2fe1375df7f89,young
6175.5,shortestpath_phase,GW/paint.jpg,49.0,GW/snail.jpg,GW/jukebox.jpg,0.0,GW/jukebox.jpg,Four Edge Diff,Two Edge Six Edge,67ce1feb43ee9200186c94b3,old
6849.899999976158,shortestpath_phase,GW/globe.jpg,49.0,GW/gong.jpg,GW/dustpan.jpg,1.0,GW/gong.jpg,One Edge Diff,Five Edge Six Edge,67ce1feb43ee9200186c94b3,old
5079.699999928474,shortestpath_phase,GW/dustpan.jpg,49.0,GW/snail.jpg,GW/globe.jpg,1.0,GW/snail.jpg,One Edge Diff,Five Edge Six Edge,67ce1feb43ee9200186c94b3,old
,shortestpath_phase,GW/wheelchair.jpg,,GW/paint.jpg,GW/gong.jpg,0.0,GW/gong.jpg,One Edge Diff,Four Edge Five Edge,67ce1feb43ee9200186c94b3,old
,shortestpath_phase,GW/paint.jpg,,GW/teeth.jpg,GW/hat.jpg,0.0,GW/hat.jpg,One Edge Diff,Three Edge Four Edge,67ce1feb43ee9200186c94b3,old
6087.200000047684,shortestpath_phase,GW/globe.jpg,50.0,GW/soldier.jpg,GW/paint.jpg,0.0,GW/soldier.jpg,Four Edge Diff,Two Edge Six Edge,67ce1feb43ee9200186c94b3,old
5280.799999952316,shortestpath_phase,GW/dustpan.jpg,49.0,GW/hat.jpg,GW/barrel.jpg,1.0,GW/hat.jpg,Two Edge Diff,Three Edge Five Edge,67ce1feb43ee9200186c94b3,old
4112.5,shortestpath_phase,GW/paint.jpg,49.0,GW/soldier.jpg,GW/snail.jpg,1.0,GW/soldier.jpg,Two Edge Diff,Four Edge Six Edge,67ce1feb43ee9200186c94b3,old
3707.899999976158,shortestpath_phase,GW/gong.jpg,49.0,GW/snail.jpg,GW/hat.jpg,0.0,GW/hat.jpg,Three Edge Diff,Three Edge Six Edge,67ce1feb43ee9200186c94b3,old
2808.899999976158,shortestpath_phase,GW/paint.jpg,49.0,GW/globe.jpg,GW/teeth.jpg,0.0,GW/teeth.jpg,Two Edge Diff,Four Edge Six Edge,67ce1feb43ee9200186c94b3,old
3985.899999976158,shortestpath_phase,GW/snail.jpg,50.0,GW/dustpan.jpg,GW/hat.jpg,1.0,GW/hat.jpg,Two Edge Diff,Three Edge Five Edge,67ce1feb43ee9200186c94b3,old
4698.0,shortestpath_phase,GW/dustpan.jpg,50.0,GW/globe.jpg,GW/barrel.jpg,1.0,GW/barrel.jpg,One Edge Diff,Five Edge Six Edge,67ce1feb43ee9200186c94b3,old
4457.700000047684,shortestpath_phase,GW/paint.jpg,49.0,GW/wheelchair.jpg,GW/snail.jpg,1.0,GW/wheelchair.jpg,One Edge Diff,Five Edge Six Edge,67ce1feb43ee9200186c94b3,old
5160.699999928474,shortestpath_phase,GW/barrel.jpg,50.0,GW/camera.jpg,GW/hat.jpg,1.0,GW/hat.jpg,Two Edge Diff,Two Edge Four Edge,67ce1feb43ee9200186c94b3,old
4129.300000071526,shortestpath_phase,GW/globe.jpg,49.0,GW/wheelchair.jpg,GW/gong.jpg,1.0,GW/wheelchair.jpg,Three Edge Diff,Three Edge Six Edge,67ce1feb43ee9200186c94b3,old
4226.399999976158,shortestpath_phase,GW/hat.jpg,50.0,GW/teeth.jpg,GW/snail.jpg,0.0,GW/teeth.jpg,One Edge Diff,Two Edge Three Edge,67ce1feb43ee9200186c94b3,old
3361.600000023842,shortestpath_phase,GW/paint.jpg,49.0,GW/barrel.jpg,GW/globe.jpg,1.0,GW/barrel.jpg,One Edge Diff,Five Edge Six Edge,67ce1feb43ee9200186c94b3,old
2993.3000000715256,shortestpath_phase,GW/dustpan.jpg,49.0,GW/barrel.jpg,GW/wheelchair.jpg,0.0,GW/wheelchair.jpg,One Edge Diff,Four Edge Five Edge,67ce1feb43ee9200186c94b3,old
2927.2999999523163,shortestpath_phase,GW/snail.jpg,50.0,GW/jukebox.jpg,GW/barrel.jpg,1.0,GW/barrel.jpg,Two Edge Diff,Two Edge Four Edge,67ce1feb43ee9200186c94b3,old
3917.799999952316,shortestpath_phase,GW/wheelchair.jpg,50.0,GW/gong.jpg,GW/hat.jpg,1.0,GW/hat.jpg,Two Edge Diff,Two Edge Four Edge,67ce1feb43ee9200186c94b3,old
3698.299999952316,shortestpath_phase,GW/camera.jpg,49.0,GW/soldier.jpg,GW/globe.jpg,1.0,GW/soldier.jpg,Two Edge Diff,Three Edge Five Edge,67ce1feb43ee9200186c94b3,old
4617.200000047684,shortestpath_phase,GW/barrel.jpg,50.0,GW/teeth.jpg,GW/paint.jpg,0.0,GW/teeth.jpg,Three Edge Diff,Two Edge Five Edge,67ce1feb43ee9200186c94b3,old
2625.2000000476837,shortestpath_phase,GW/dustpan.jpg,49.0,GW/globe.jpg,GW/wheelchair.jpg,0.0,GW/wheelchair.jpg,Two Edge Diff,Four Edge Six Edge,67ce1feb43ee9200186c94b3,old
4418.299999952316,shortestpath_phase,GW/snail.jpg,50.0,GW/teeth.jpg,GW/paint.jpg,0.0,GW/teeth.jpg,Four Edge Diff,Two Edge Six Edge,67ce1feb43ee9200186c94b3,old
3968.3000000715256,shortestpath_phase,GW/gong.jpg,50.0,GW/globe.jpg,GW/dustpan.jpg,1.0,GW/dustpan.jpg,Three Edge Diff,Three Edge Six Edge,67ce1feb43ee9200186c94b3,old
3984.399999976158,shortestpath_phase,GW/snail.jpg,49.0,GW/paint.jpg,GW/jukebox.jpg,0.0,GW/jukebox.jpg,Two Edge Diff,Four Edge Six Edge,67ce1feb43ee9200186c94b3,old
2945.899999976158,shortestpath_phase,GW/globe.jpg,50.0,GW/camera.jpg,GW/wheelchair.jpg,1.0,GW/wheelchair.jpg,Three Edge Diff,Three Edge Six Edge,67ce1feb43ee9200186c94b3,old
3549.0,shortestpath_phase,GW/snail.jpg,50.0,GW/dustpan.jpg,GW/soldier.jpg,1.0,GW/soldier.jpg,Three Edge Diff,Three Edge Six Edge,67ce1feb43ee9200186c94b3,old
4380.800000071526,shortestpath_phase,GW/barrel.jpg,50.0,GW/basket.jpg,GW/dustpan.jpg,0.0,GW/basket.jpg,Two Edge Diff,Three Edge Five Edge,67ce1feb43ee9200186c94b3,old
4833.0,shortestpath_phase,GW/teeth.jpg,49.0,GW/snail.jpg,GW/globe.jpg,1.0,GW/snail.jpg,One Edge Diff,Two Edge Three Edge,67ce1feb43ee9200186c94b3,old
3185.0,shortestpath_phase,GW/camera.jpg,49.0,GW/paint.jpg,GW/globe.jpg,1.0,GW/paint.jpg,Three Edge Diff,Two Edge Five Edge,67ce1feb43ee9200186c94b3,old
2632.600000023842,shortestpath_phase,GW/snail.jpg,50.0,GW/soldier.jpg,GW/dustpan.jpg,0.0,GW/soldier.jpg,Three Edge Diff,Two Edge Five Edge,67ce1feb43ee9200186c94b3,old
4046.099999904633,shortestpath_phase,GW/teeth.jpg,50.0,GW/gong.jpg,GW/hat.jpg,1.0,GW/hat.jpg,One Edge Diff,Two Edge Three Edge,67ce1feb43ee9200186c94b3,old
3023.1999999284744,shortestpath_phase,GW/jukebox.jpg,50.0,GW/camera.jpg,GW/dustpan.jpg,0.0,GW/camera.jpg,One Edge Diff,Two Edge Three Edge,67ce1feb43ee9200186c94b3,old
2633.100000023842,shortestpath_phase,GW/snail.jpg,49.0,GW/teeth.jpg,GW/dustpan.jpg,1.0,GW/teeth.jpg,Three Edge Diff,Two Edge Five Edge,67ce1feb43ee9200186c94b3,old
3153.100000023842,shortestpath_phase,GW/wheelchair.jpg,49.0,GW/paint.jpg,GW/jukebox.jpg,0.0,GW/jukebox.jpg,Two Edge Diff,Three Edge Five Edge,67ce1feb43ee9200186c94b3,old
4267.200000047684,shortestpath_phase,GW/snail.jpg,50.0,GW/teeth.jpg,GW/jukebox.jpg,0.0,GW/teeth.jpg,Two Edge Diff,Two Edge Four Edge,67ce1feb43ee9200186c94b3,old
3257.399999976158,shortestpath_phase,GW/globe.jpg,49.0,GW/dustpan.jpg,GW/wheelchair.jpg,0.0,GW/wheelchair.jpg,Four Edge Diff,Two Edge Six Edge,67ce1feb43ee9200186c94b3,old
3617.299999952316,shortestpath_phase,GW/paint.jpg,50.0,GW/dustpan.jpg,GW/teeth.jpg,0.0,GW/dustpan.jpg,One Edge Diff,Three Edge Four Edge,67ce1feb43ee9200186c94b3,old
2153.6999999284744,shortestpath_phase,GW/wheelchair.jpg,49.0,GW/paint.jpg,GW/globe.jpg,0.0,GW/globe.jpg,Three Edge Diff,Two Edge Five Edge,67ce1feb43ee9200186c94b3,old
1592.7999999523165,shortestpath_phase,GW/dustpan.jpg,49.0,GW/hat.jpg,GW/wheelchair.jpg,1.0,GW/hat.jpg,One Edge Diff,Three Edge Four Edge,67ce1feb43ee9200186c94b3,old
2304.2999999523163,shortestpath_phase,GW/teeth.jpg,49.0,GW/paint.jpg,GW/jukebox.jpg,0.0,GW/jukebox.jpg,One Edge Diff,Three Edge Four Edge,67ce1feb43ee9200186c94b3,old
2461.3000000715256,shortestpath_phase,GW/hat.jpg,49.0,GW/globe.jpg,GW/wheelchair.jpg,0.0,GW/wheelchair.jpg,One Edge Diff,Two Edge Three Edge,67ce1feb43ee9200186c94b3,old
3306.399999976158,shortestpath_phase,GW/basket.jpg,50.0,GW/gong.jpg,GW/barrel.jpg,0.0,GW/gong.jpg,One Edge Diff,Two Edge Three Edge,67ce1feb43ee9200186c94b3,old
2304.2999999523163,shortestpath_phase,GW/teeth.jpg,49.0,GW/paint.jpg,GW/dustpan.jpg,0.0,GW/dustpan.jpg,One Edge Diff,Three Edge Four Edge,67ce1feb43ee9200186c94b3,old
2259.0,shortestpath_phase,GW/snail.jpg,49.0,GW/dustpan.jpg,GW/jukebox.jpg,0.0,GW/jukebox.jpg,One Edge Diff,Four Edge Five Edge,67ce1feb43ee9200186c94b3,old
3136.7999999523163,shortestpath_phase,GW/globe.jpg,50.0,GW/basket.jpg,GW/dustpan.jpg,0.0,GW/basket.jpg,Two Edge Diff,Four Edge Six Edge,67ce1feb43ee9200186c94b3,old
3305.7999999523163,shortestpath_phase,GW/dustpan.jpg,49.0,GW/snail.jpg,GW/jukebox.jpg,0.0,GW/jukebox.jpg,Two Edge Diff,Three Edge Five Edge,67ce1feb43ee9200186c94b3,old
3378.600000023842,shortestpath_phase,GW/camera.jpg,49.0,GW/hat.jpg,GW/globe.jpg,1.0,GW/hat.jpg,Three Edge Diff,Three Edge Six Edge,67ce1feb43ee9200186c94b3,old
2360.0,shortestpath_phase,GW/paint.jpg,50.0,GW/basket.jpg,GW/barrel.jpg,0.0,GW/basket.jpg,Two Edge Diff,Three Edge Five Edge,67ce1feb43ee9200186c94b3,old
5233.799999952316,shortestpath_phase,GW/snail.jpg,50.0,GW/paint.jpg,GW/gong.jpg,1.0,GW/gong.jpg,One Edge Diff,Five Edge Six Edge,67ce1feb43ee9200186c94b3,old
3634.0,shortestpath_phase,GW/camera.jpg,50.0,GW/wheelchair.jpg,GW/snail.jpg,0.0,GW/wheelchair.jpg,One Edge Diff,Three Edge Four Edge,67ce1feb43ee9200186c94b3,old
3322.0,shortestpath_phase,GW/gong.jpg,49.0,GW/globe.jpg,GW/hat.jpg,0.0,GW/hat.jpg,Three Edge Diff,Three Edge Six Edge,67ce1feb43ee9200186c94b3,old
3819.5,shortestpath_phase,GW/jukebox.jpg,49.0,GW/wheelchair.jpg,GW/globe.jpg,1.0,GW/wheelchair.jpg,One Edge Diff,Three Edge Four Edge,67ce1feb43ee9200186c94b3,old
4338.200000047684,shortestpath_phase,GW/globe.jpg,50.0,GW/paint.jpg,GW/gong.jpg,1.0,GW/gong.jpg,One Edge Diff,Five Edge Six Edge,67ce1feb43ee9200186c94b3,old
2329.0,shortestpath_phase,GW/camera.jpg,50.0,GW/teeth.jpg,GW/barrel.jpg,0.0,GW/teeth.jpg,Two Edge Diff,Two Edge Four Edge,67ce1feb43ee9200186c94b3,old
1521.6999999284744,shortestpath_phase,GW/dustpan.jpg,49.0,GW/barrel.jpg,GW/gong.jpg,0.0,GW/gong.jpg,Three Edge Diff,Two Edge Five Edge,67ce1feb43ee9200186c94b3,old
2372.2999999523163,shortestpath_phase,GW/barrel.jpg,50.0,GW/snail.jpg,GW/dustpan.jpg,0.0,GW/snail.jpg,Three Edge Diff,Two Edge Five Edge,67ce1feb43ee9200186c94b3,old
2673.5,shortestpath_phase,GW/dustpan.jpg,49.0,GW/globe.jpg,GW/gong.jpg,0.0,GW/gong.jpg,Four Edge Diff,Two Edge Six Edge,67ce1feb43ee9200186c94b3,old
3400.7000000476837,shortestpath_phase,GW/camera.jpg,50.0,GW/barrel.jpg,GW/globe.jpg,0.0,GW/barrel.jpg,One Edge Diff,Four Edge Five Edge,67ce1feb43ee9200186c94b3,old
3058.3000000715256,shortestpath_phase,GW/gong.jpg,50.0,GW/globe.jpg,GW/wheelchair.jpg,1.0,GW/wheelchair.jpg,One Edge Diff,Four Edge Five Edge,67ce1feb43ee9200186c94b3,old
2018.2000000476835,shortestpath_phase,GW/jukebox.jpg,49.0,GW/soldier.jpg,GW/globe.jpg,1.0,GW/soldier.jpg,Two Edge Diff,Two Edge Four Edge,67ce1feb43ee9200186c94b3,old
2399.7999999523163,shortestpath_phase,GW/dustpan.jpg,50.0,GW/gong.jpg,GW/paint.jpg,0.0,GW/gong.jpg,One Edge Diff,Two Edge Three Edge,67ce1feb43ee9200186c94b3,old
2088.1999999284744,shortestpath_phase,GW/wheelchair.jpg,49.0,GW/dustpan.jpg,GW/hat.jpg,0.0,GW/hat.jpg,Two Edge Diff,Two Edge Four Edge,67ce1feb43ee9200186c94b3,old
5880.799999952316,shortestpath_phase,GW/snail.jpg,49.0,GW/paint.jpg,GW/dustpan.jpg,0.0,GW/dustpan.jpg,One Edge Diff,Five Edge Six Edge,67ce1feb43ee9200186c94b3,old
2976.099999904633,shortestpath_phase,GW/gong.jpg,49.0,GW/soldier.jpg,GW/globe.jpg,1.0,GW/soldier.jpg,Two Edge Diff,Three Edge Five Edge,67ce1feb43ee9200186c94b3,old
3433.099999904633,shortestpath_phase,GW/globe.jpg,50.0,GW/gong.jpg,GW/jukebox.jpg,1.0,GW/jukebox.jpg,One Edge Diff,Four Edge Five Edge,67ce1feb43ee9200186c94b3,old
3937.299999952316,shortestpath_phase,GW/snail.jpg,50.0,GW/soldier.jpg,GW/paint.jpg,0.0,GW/soldier.jpg,Four Edge Diff,Two Edge Six Edge,67ce1feb43ee9200186c94b3,old
2231.0,shortestpath_phase,GW/paint.jpg,49.0,GW/barrel.jpg,GW/jukebox.jpg,0.0,GW/jukebox.jpg,Three Edge Diff,Two Edge Five Edge,67ce1feb43ee9200186c94b3,old
3938.700000047684,shortestpath_phase,GW/globe.jpg,50.0,GW/camera.jpg,GW/soldier.jpg,1.0,GW/soldier.jpg,Three Edge Diff,Three Edge Six Edge,67ce1feb43ee9200186c94b3,old
3617.0,shortestpath_phase,GW/jukebox.jpg,49.0,GW/globe.jpg,GW/basket.jpg,0.0,GW/basket.jpg,Two Edge Diff,Two Edge Four Edge,67ce1feb43ee9200186c94b3,old
4856.699999928474,shortestpath_phase,GW/paint.jpg,49.0,GW/barrel.jpg,GW/hat.jpg,0.0,GW/hat.jpg,Two Edge Diff,Three Edge Five Edge,67ce1feb43ee9200186c94b3,old
2178.400000095367,shortestpath_phase,GW/snail.jpg,50.0,GW/basket.jpg,GW/dustpan.jpg,0.0,GW/basket.jpg,Two Edge Diff,Three Edge Five Edge,67ce1feb43ee9200186c94b3,old
6203.400000095367,shortestpath_phase,GW/paint.jpg,50.0,GW/globe.jpg,GW/jukebox.jpg,1.0,GW/jukebox.jpg,Four Edge Diff,Two Edge Six Edge,67ce1feb43ee9200186c94b3,old
2639.3000000715256,shortestpath_phase,GW/dustpan.jpg,49.0,GW/globe.jpg,GW/soldier.jpg,0.0,GW/soldier.jpg,Two Edge Diff,Four Edge Six Edge,67ce1feb43ee9200186c94b3,old
5035.0,shortestpath_phase,GW/teeth.jpg,50.0,GW/barrel.jpg,GW/jukebox.jpg,0.0,GW/barrel.jpg,One Edge Diff,Two Edge Three Edge,67ce1feb43ee9200186c94b3,old
2581.100000023842,shortestpath_phase,GW/globe.jpg,50.0,GW/basket.jpg,GW/paint.jpg,0.0,GW/basket.jpg,Two Edge Diff,Four Edge Six Edge,67ce1feb43ee9200186c94b3,old
4632.0,shortestpath_phase,GW/dustpan.jpg,49.0,GW/teeth.jpg,GW/wheelchair.jpg,1.0,GW/teeth.jpg,One Edge Diff,Three Edge Four Edge,67ce1feb43ee9200186c94b3,old
4784.899999976158,shortestpath_phase,GW/paint.jpg,50.0,GW/camera.jpg,GW/globe.jpg,0.0,GW/camera.jpg,Four Edge Diff,Two Edge Six Edge,67ce1feb43ee9200186c94b3,old
2792.400000095367,shortestpath_phase,GW/globe.jpg,49.0,GW/jukebox.jpg,GW/teeth.jpg,0.0,GW/teeth.jpg,One Edge Diff,Three Edge Four Edge,67ce1feb43ee9200186c94b3,old
3688.900000095367,shortestpath_phase,GW/soldier.jpg,49.0,GW/paint.jpg,GW/basket.jpg,0.0,GW/basket.jpg,Two Edge Diff,Two Edge Four Edge,67ce1feb43ee9200186c94b3,old
3859.0,shortestpath_phase,GW/barrel.jpg,50.0,GW/basket.jpg,GW/teeth.jpg,1.0,GW/teeth.jpg,One Edge Diff,Two Edge Three Edge,67ce1feb43ee9200186c94b3,old
2112.599999904633,shortestpath_phase,GW/dustpan.jpg,50.0,GW/basket.jpg,GW/barrel.jpg,0.0,GW/basket.jpg,Three Edge Diff,Two Edge Five Edge,67ce1feb43ee9200186c94b3,old
2985.2999999523163,shortestpath_phase,GW/snail.jpg,49.0,GW/gong.jpg,GW/soldier.jpg,0.0,GW/soldier.jpg,Three Edge Diff,Three Edge Six Edge,67ce1feb43ee9200186c94b3,old
2497.7999999523163,shortestpath_phase,GW/globe.jpg,50.0,GW/camera.jpg,GW/paint.jpg,0.0,GW/camera.jpg,One Edge Diff,Five Edge Six Edge,67ce1feb43ee9200186c94b3,old
3820.200000047684,shortestpath_phase,GW/paint.jpg,50.0,GW/globe.jpg,GW/wheelchair.jpg,1.0,GW/wheelchair.jpg,One Edge Diff,Five Edge Six Edge,67ce1feb43ee9200186c94b3,old
4654.599999904633,shortestpath_phase,GW/gong.jpg,50.0,GW/basket.jpg,GW/snail.jpg,0.0,GW/basket.jpg,Three Edge Diff,Two Edge Five Edge,67ce1feb43ee9200186c94b3,old
1870.899999976158,shortestpath_phase,GW/hat.jpg,49.0,GW/barrel.jpg,GW/paint.jpg,1.0,GW/barrel.jpg,One Edge Diff,Two Edge Three Edge,67ce1feb43ee9200186c94b3,old
2899.7000000476837,shortestpath_phase,GW/globe.jpg,50.0,GW/jukebox.jpg,GW/paint.jpg,0.0,GW/jukebox.jpg,Two Edge Diff,Four Edge Six Edge,67ce1feb43ee9200186c94b3,old
2314.399999976158,shortestpath_phase,GW/paint.jpg,50.0,GW/globe.jpg,GW/soldier.jpg,1.0,GW/soldier.jpg,Two Edge Diff,Four Edge Six Edge,67ce1feb43ee9200186c94b3,old
3360.7999999523163,shortestpath_phase,GW/globe.jpg,50.0,GW/camera.jpg,GW/dustpan.jpg,0.0,GW/camera.jpg,One Edge Diff,Five Edge Six Edge,67ce1feb43ee9200186c94b3,old
2296.8000000715256,shortestpath_phase,GW/paint.jpg,49.0,GW/soldier.jpg,GW/dustpan.jpg,0.0,GW/dustpan.jpg,One Edge Diff,Three Edge Four Edge,67ce1feb43ee9200186c94b3,old
4009.3000000715256,shortestpath_phase,GW/barrel.jpg,50.0,GW/jukebox.jpg,GW/camera.jpg,0.0,GW/jukebox.jpg,One Edge Diff,Three Edge Four Edge,67ce1feb43ee9200186c94b3,old
1938.9000000953672,shortestpath_phase,GW/dustpan.jpg,49.0,GW/globe.jpg,GW/basket.jpg,0.0,GW/basket.jpg,Four Edge Diff,Two Edge Six Edge,67ce1feb43ee9200186c94b3,old
3144.8000000715256,shortestpath_phase,GW/globe.jpg,49.0,GW/soldier.jpg,GW/dustpan.jpg,1.0,GW/soldier.jpg,Four Edge Diff,Two Edge Six Edge,67ce1feb43ee9200186c94b3,old
2449.600000023842,shortestpath_phase,GW/dustpan.jpg,50.0,GW/gong.jpg,GW/barrel.jpg,0.0,GW/gong.jpg,Three Edge Diff,Three Edge Six Edge,67ce1feb43ee9200186c94b3,old
3080.7000000476837,shortestpath_phase,GW/globe.jpg,49.0,GW/gong.jpg,GW/basket.jpg,0.0,GW/basket.jpg,One Edge Diff,Four Edge Five Edge,67ce1feb43ee9200186c94b3,old
3152.900000095367,shortestpath_phase,GW/dustpan.jpg,49.0,GW/snail.jpg,GW/soldier.jpg,0.0,GW/soldier.jpg,One Edge Diff,Four Edge Five Edge,67ce1feb43ee9200186c94b3,old
3827.400000095367,shortestpath_phase,GW/camera.jpg,50.0,GW/hat.jpg,GW/wheelchair.jpg,0.0,GW/hat.jpg,One Edge Diff,Two Edge Three Edge,67ce1feb43ee9200186c94b3,old
3448.8000000715256,shortestpath_phase,GW/soldier.jpg,49.0,GW/globe.jpg,GW/dustpan.jpg,1.0,GW/globe.jpg,Two Edge Diff,Two Edge Four Edge,67ce1feb43ee9200186c94b3,old
3688.8000000715256,shortestpath_phase,GW/snail.jpg,50.0,GW/camera.jpg,GW/paint.jpg,0.0,GW/camera.jpg,Two Edge Diff,Four Edge Six Edge,67ce1feb43ee9200186c94b3,old
3577.899999976158,shortestpath_phase,GW/wheelchair.jpg,50.0,GW/dustpan.jpg,GW/paint.jpg,0.0,GW/dustpan.jpg,One Edge Diff,Four Edge Five Edge,67ce1feb43ee9200186c94b3,old
1703.9000000953674,shortestpath_phase,GW/snail.jpg,49.0,GW/barrel.jpg,GW/paint.jpg,1.0,GW/barrel.jpg,Four Edge Diff,Two Edge Six Edge,67ce1feb43ee9200186c94b3,old
2692.900000095367,shortestpath_phase,GW/camera.jpg,49.0,GW/soldier.jpg,GW/hat.jpg,0.0,GW/hat.jpg,One Edge Diff,Two Edge Three Edge,67ce1feb43ee9200186c94b3,old
4377.5,shortestpath_phase,GW/paint.jpg,50.0,GW/teeth.jpg,GW/snail.jpg,0.0,GW/teeth.jpg,Two Edge Diff,Four Edge Six Edge,67ce1feb43ee9200186c94b3,old
2834.600000023842,shortestpath_phase,GW/soldier.jpg,49.0,GW/paint.jpg,GW/snail.jpg,0.0,GW/snail.jpg,Two Edge Diff,Two Edge Four Edge,67ce1feb43ee9200186c94b3,old
3207.899999976158,shortestpath_phase,GW/paint.jpg,49.0,GW/jukebox.jpg,GW/wheelchair.jpg,1.0,GW/jukebox.jpg,Three Edge Diff,Two Edge Five Edge,67ce1feb43ee9200186c94b3,old
3427.7000000476837,shortestpath_phase,GW/snail.jpg,49.0,GW/camera.jpg,GW/dustpan.jpg,1.0,GW/camera.jpg,One Edge Diff,Four Edge Five Edge,67ce1feb43ee9200186c94b3,old
2288.8000000715256,shortestpath_phase,GW/globe.jpg,50.0,GW/jukebox.jpg,GW/dustpan.jpg,0.0,GW/jukebox.jpg,Two Edge Diff,Four Edge Six Edge,67ce1feb43ee9200186c94b3,old
1824.5,shortestpath_phase,GW/barrel.jpg,49.0,GW/paint.jpg,GW/teeth.jpg,0.0,GW/teeth.jpg,Three Edge Diff,Three Edge Six Edge,67ce1feb43ee9200186c94b3,old
3857.5,shortestpath_phase,GW/gong.jpg,49.0,GW/hat.jpg,GW/globe.jpg,1.0,GW/hat.jpg,Three Edge Diff,Two Edge Five Edge,67ce1feb43ee9200186c94b3,old
2904.2999999523163,shortestpath_phase,GW/paint.jpg,49.0,GW/snail.jpg,GW/camera.jpg,0.0,GW/camera.jpg,Four Edge Diff,Two Edge Six Edge,67ce1feb43ee9200186c94b3,old
2801.100000023842,shortestpath_phase,GW/teeth.jpg,49.0,GW/paint.jpg,GW/barrel.jpg,0.0,GW/barrel.jpg,Two Edge Diff,Two Edge Four Edge,67ce1feb43ee9200186c94b3,old
2945.3000000715256,shortestpath_phase,GW/paint.jpg,50.0,GW/wheelchair.jpg,GW/hat.jpg,1.0,GW/hat.jpg,Two Edge Diff,Three Edge Five Edge,67ce1feb43ee9200186c94b3,old
2943.399999976158,shortestpath_phase,GW/gong.jpg,49.0,GW/snail.jpg,GW/soldier.jpg,0.0,GW/soldier.jpg,Two Edge Diff,Three Edge Five Edge,67ce1feb43ee9200186c94b3,old
2551.5,shortestpath_phase,GW/paint.jpg,49.0,GW/barrel.jpg,GW/snail.jpg,1.0,GW/barrel.jpg,One Edge Diff,Five Edge Six Edge,67ce1feb43ee9200186c94b3,old
2996.899999976158,shortestpath_phase,GW/globe.jpg,49.0,GW/paint.jpg,GW/wheelchair.jpg,0.0,GW/wheelchair.jpg,Four Edge Diff,Two Edge Six Edge,67ce1feb43ee9200186c94b3,old
1840.2000000476835,shortestpath_phase,GW/barrel.jpg,49.0,GW/dustpan.jpg,GW/camera.jpg,0.0,GW/camera.jpg,One Edge Diff,Four Edge Five Edge,67ce1feb43ee9200186c94b3,old
,shortestpath_phase,,,,,0.0,,One Edge Diff,Four Edge Five Edge,67ce1feb43ee9200186c94b3,old
2646.7000000476837,shortestpath_phase,,50.0,,,1.0,,Three Edge Diff,Three Edge Six Edge,67ce1feb43ee9200186c94b3,old
1560.2000000476835,shortestpath_phase,,49.0,,,1.0,,One Edge Diff,Three Edge Four Edge,67ce1feb43ee9200186c94b3,old
1334.699999999255,shortestpath_phase,GW/teeth.jpg,50.0,GW/basket.jpg,GW/soldier.jpg,1.0,GW/soldier.jpg,Two Edge Diff,Two Edge Four Edge,5bcc60b95c2b810001dc68e2,young
1573.9000000003723,shortestpath_phase,GW/wheelchair.jpg,50.0,GW/teeth.jpg,GW/paint.jpg,1.0,GW/paint.jpg,Three Edge Diff,Three Edge Six Edge,5bcc60b95c2b810001dc68e2,young
1741.699999999255,shortestpath_phase,GW/basket.jpg,50.0,GW/globe.jpg,GW/gong.jpg,1.0,GW/gong.jpg,Two Edge Diff,Three Edge Five Edge,5bcc60b95c2b810001dc68e2,young
1448.2000000011176,shortestpath_phase,GW/wheelchair.jpg,50.0,GW/dustpan.jpg,GW/soldier.jpg,0.0,GW/dustpan.jpg,One Edge Diff,Five Edge Six Edge,5bcc60b95c2b810001dc68e2,young
1169.0999999996277,shortestpath_phase,GW/jukebox.jpg,50.0,GW/paint.jpg,GW/globe.jpg,0.0,GW/paint.jpg,Two Edge Diff,Two Edge Four Edge,5bcc60b95c2b810001dc68e2,young
1347.2999999988824,shortestpath_phase,GW/camera.jpg,49.0,GW/barrel.jpg,GW/teeth.jpg,1.0,GW/barrel.jpg,Three Edge Diff,Two Edge Five Edge,5bcc60b95c2b810001dc68e2,young
774.5,shortestpath_phase,GW/wheelchair.jpg,50.0,GW/gong.jpg,GW/paint.jpg,1.0,GW/paint.jpg,Two Edge Diff,Two Edge Four Edge,5bcc60b95c2b810001dc68e2,young
784.0,shortestpath_phase,GW/teeth.jpg,50.0,GW/barrel.jpg,GW/snail.jpg,1.0,GW/snail.jpg,Two Edge Diff,Two Edge Four Edge,5bcc60b95c2b810001dc68e2,young
454.0,shortestpath_phase,GW/globe.jpg,50.0,GW/jukebox.jpg,GW/wheelchair.jpg,0.0,GW/jukebox.jpg,Two Edge Diff,Four Edge Six Edge,5bcc60b95c2b810001dc68e2,young
989.3000000007452,shortestpath_phase,GW/soldier.jpg,50.0,GW/barrel.jpg,GW/hat.jpg,1.0,GW/hat.jpg,Three Edge Diff,Three Edge Six Edge,5bcc60b95c2b810001dc68e2,young
549.5999999996275,shortestpath_phase,GW/globe.jpg,50.0,GW/basket.jpg,GW/wheelchair.jpg,0.0,GW/basket.jpg,One Edge Diff,Five Edge Six Edge,5bcc60b95c2b810001dc68e2,young
1078.300000000745,shortestpath_phase,GW/hat.jpg,49.0,GW/camera.jpg,GW/wheelchair.jpg,1.0,GW/camera.jpg,One Edge Diff,Three Edge Four Edge,5bcc60b95c2b810001dc68e2,young
1677.5,shortestpath_phase,GW/globe.jpg,49.0,GW/soldier.jpg,GW/basket.jpg,1.0,GW/soldier.jpg,Two Edge Diff,Three Edge Five Edge,5bcc60b95c2b810001dc68e2,young
973.0,shortestpath_phase,GW/wheelchair.jpg,49.0,GW/dustpan.jpg,GW/paint.jpg,0.0,GW/paint.jpg,Three Edge Diff,Three Edge Six Edge,5bcc60b95c2b810001dc68e2,young
1551.7000000011176,shortestpath_phase,GW/teeth.jpg,49.0,GW/barrel.jpg,GW/wheelchair.jpg,1.0,GW/barrel.jpg,One Edge Diff,Four Edge Five Edge,5bcc60b95c2b810001dc68e2,young
1554.2000000011176,shortestpath_phase,GW/paint.jpg,49.0,GW/basket.jpg,GW/soldier.jpg,1.0,GW/basket.jpg,Two Edge Diff,Two Edge Four Edge,5bcc60b95c2b810001dc68e2,young
2530.39999999851,shortestpath_phase,GW/wheelchair.jpg,49.0,GW/globe.jpg,GW/dustpan.jpg,0.0,GW/dustpan.jpg,One Edge Diff,Five Edge Six Edge,5bcc60b95c2b810001dc68e2,young
1993.800000000745,shortestpath_phase,GW/camera.jpg,49.0,GW/soldier.jpg,GW/snail.jpg,0.0,GW/snail.jpg,Two Edge Diff,Three Edge Five Edge,5bcc60b95c2b810001dc68e2,young
2297.699999999255,shortestpath_phase,GW/teeth.jpg,49.0,GW/hat.jpg,GW/paint.jpg,1.0,GW/hat.jpg,One Edge Diff,Two Edge Three Edge,5bcc60b95c2b810001dc68e2,young
3442.7000000011176,shortestpath_phase,GW/globe.jpg,49.0,GW/snail.jpg,GW/jukebox.jpg,1.0,GW/snail.jpg,One Edge Diff,Three Edge Four Edge,5bcc60b95c2b810001dc68e2,young
3286.9000000003725,shortestpath_phase,GW/wheelchair.jpg,49.0,GW/globe.jpg,GW/teeth.jpg,0.0,GW/teeth.jpg,One Edge Diff,Five Edge Six Edge,5bcc60b95c2b810001dc68e2,young
2802.4000000003725,shortestpath_phase,GW/basket.jpg,49.0,GW/globe.jpg,GW/snail.jpg,0.0,GW/snail.jpg,Three Edge Diff,Two Edge Five Edge,5bcc60b95c2b810001dc68e2,young
1238.0999999996277,shortestpath_phase,GW/soldier.jpg,50.0,GW/wheelchair.jpg,GW/camera.jpg,1.0,GW/camera.jpg,One Edge Diff,Five Edge Six Edge,5bcc60b95c2b810001dc68e2,young
2747.5,shortestpath_phase,GW/globe.jpg,50.0,GW/wheelchair.jpg,GW/gong.jpg,1.0,GW/gong.jpg,Four Edge Diff,Two Edge Six Edge,5bcc60b95c2b810001dc68e2,young
1897.9000000003723,shortestpath_phase,GW/soldier.jpg,49.0,GW/camera.jpg,GW/basket.jpg,0.0,GW/basket.jpg,One Edge Diff,Four Edge Five Edge,5bcc60b95c2b810001dc68e2,young
2464.10000000149,shortestpath_phase,GW/wheelchair.jpg,49.0,GW/hat.jpg,GW/paint.jpg,0.0,GW/paint.jpg,Two Edge Diff,Two Edge Four Edge,5bcc60b95c2b810001dc68e2,young
692.9000000003725,shortestpath_phase,GW/soldier.jpg,49.0,GW/camera.jpg,GW/snail.jpg,0.0,GW/snail.jpg,Two Edge Diff,Three Edge Five Edge,5bcc60b95c2b810001dc68e2,young
2344.10000000149,shortestpath_phase,GW/camera.jpg,49.0,GW/barrel.jpg,GW/soldier.jpg,1.0,GW/barrel.jpg,Three Edge Diff,Three Edge Six Edge,5bcc60b95c2b810001dc68e2,young
1935.5999999996277,shortestpath_phase,GW/wheelchair.jpg,49.0,GW/soldier.jpg,GW/hat.jpg,0.0,GW/hat.jpg,Two Edge Diff,Four Edge Six Edge,5bcc60b95c2b810001dc68e2,young
775.8999999985099,shortestpath_phase,GW/teeth.jpg,49.0,GW/camera.jpg,GW/jukebox.jpg,0.0,GW/jukebox.jpg,Two Edge Diff,Three Edge Five Edge,5bcc60b95c2b810001dc68e2,young
1873.5,shortestpath_phase,GW/camera.jpg,49.0,GW/wheelchair.jpg,GW/soldier.jpg,1.0,GW/wheelchair.jpg,Two Edge Diff,Three Edge Five Edge,5bcc60b95c2b810001dc68e2,young
5166.4000000003725,shortestpath_phase,GW/globe.jpg,49.0,GW/basket.jpg,GW/paint.jpg,0.0,GW/paint.jpg,One Edge Diff,Four Edge Five Edge,5bcc60b95c2b810001dc68e2,young
2349.9000000003725,shortestpath_phase,GW/camera.jpg,49.0,GW/jukebox.jpg,GW/teeth.jpg,1.0,GW/jukebox.jpg,Three Edge Diff,Three Edge Six Edge,5bcc60b95c2b810001dc68e2,young
338.40000000037253,shortestpath_phase,GW/soldier.jpg,49.0,GW/basket.jpg,GW/teeth.jpg,0.0,GW/teeth.jpg,Two Edge Diff,Two Edge Four Edge,5bcc60b95c2b810001dc68e2,young
985.2999999988824,shortestpath_phase,GW/camera.jpg,49.0,GW/soldier.jpg,GW/paint.jpg,0.0,GW/paint.jpg,Two Edge Diff,Three Edge Five Edge,5bcc60b95c2b810001dc68e2,young
1593.5,shortestpath_phase,GW/teeth.jpg,49.0,GW/camera.jpg,GW/snail.jpg,0.0,GW/snail.jpg,Three Edge Diff,Two Edge Five Edge,5bcc60b95c2b810001dc68e2,young
1475.9000000003723,shortestpath_phase,GW/barrel.jpg,50.0,GW/jukebox.jpg,GW/soldier.jpg,0.0,GW/jukebox.jpg,Three Edge Diff,Two Edge Five Edge,5bcc60b95c2b810001dc68e2,young
1024.300000000745,shortestpath_phase,GW/soldier.jpg,50.0,GW/teeth.jpg,GW/jukebox.jpg,0.0,GW/teeth.jpg,One Edge Diff,Two Edge Three Edge,5bcc60b95c2b810001dc68e2,young
2422.5,shortestpath_phase,GW/basket.jpg,50.0,GW/snail.jpg,GW/teeth.jpg,0.0,GW/snail.jpg,Two Edge Diff,Two Edge Four Edge,5bcc60b95c2b810001dc68e2,young
1846.0,shortestpath_phase,GW/teeth.jpg,50.0,GW/basket.jpg,GW/hat.jpg,1.0,GW/hat.jpg,Two Edge Diff,Two Edge Four Edge,5bcc60b95c2b810001dc68e2,young
2105.0,shortestpath_phase,GW/paint.jpg,50.0,GW/globe.jpg,GW/camera.jpg,1.0,GW/camera.jpg,One Edge Diff,Three Edge Four Edge,5bcc60b95c2b810001dc68e2,young
2331.7999999988824,shortestpath_phase,GW/teeth.jpg,50.0,GW/basket.jpg,GW/camera.jpg,0.0,GW/basket.jpg,One Edge Diff,Four Edge Five Edge,5bcc60b95c2b810001dc68e2,young
3088.0,shortestpath_phase,GW/globe.jpg,49.0,GW/barrel.jpg,GW/camera.jpg,1.0,GW/barrel.jpg,One Edge Diff,Five Edge Six Edge,5bcc60b95c2b810001dc68e2,young
1834.800000000745,shortestpath_phase,GW/soldier.jpg,50.0,GW/teeth.jpg,GW/barrel.jpg,0.0,GW/teeth.jpg,Three Edge Diff,Two Edge Five Edge,5bcc60b95c2b810001dc68e2,young
1207.7000000011176,shortestpath_phase,GW/hat.jpg,50.0,GW/globe.jpg,GW/snail.jpg,1.0,GW/snail.jpg,One Edge Diff,Two Edge Three Edge,5bcc60b95c2b810001dc68e2,young
1089.7999999988824,shortestpath_phase,GW/dustpan.jpg,50.0,GW/wheelchair.jpg,GW/globe.jpg,1.0,GW/globe.jpg,Three Edge Diff,Two Edge Five Edge,5bcc60b95c2b810001dc68e2,young
1540.4000000003723,shortestpath_phase,GW/soldier.jpg,50.0,GW/hat.jpg,GW/snail.jpg,0.0,GW/hat.jpg,One Edge Diff,Two Edge Three Edge,5bcc60b95c2b810001dc68e2,young
2364.9000000003725,shortestpath_phase,GW/barrel.jpg,50.0,GW/dustpan.jpg,GW/gong.jpg,1.0,GW/gong.jpg,One Edge Diff,Three Edge Four Edge,5bcc60b95c2b810001dc68e2,young
810.2000000011176,shortestpath_phase,GW/paint.jpg,50.0,GW/hat.jpg,GW/soldier.jpg,0.0,GW/hat.jpg,One Edge Diff,Three Edge Four Edge,5bcc60b95c2b810001dc68e2,young
1396.5999999996277,shortestpath_phase,GW/camera.jpg,50.0,GW/wheelchair.jpg,GW/gong.jpg,0.0,GW/wheelchair.jpg,One Edge Diff,Three Edge Four Edge,5bcc60b95c2b810001dc68e2,young
1057.0999999996277,shortestpath_phase,GW/globe.jpg,49.0,GW/basket.jpg,GW/jukebox.jpg,0.0,GW/jukebox.jpg,One Edge Diff,Four Edge Five Edge,5bcc60b95c2b810001dc68e2,young
1643.7999999988824,shortestpath_phase,GW/barrel.jpg,50.0,GW/dustpan.jpg,GW/soldier.jpg,0.0,GW/dustpan.jpg,One Edge Diff,Four Edge Five Edge,5bcc60b95c2b810001dc68e2,young
1354.2000000011176,shortestpath_phase,GW/globe.jpg,50.0,GW/basket.jpg,GW/camera.jpg,0.0,GW/basket.jpg,One Edge Diff,Five Edge Six Edge,5bcc60b95c2b810001dc68e2,young
1619.0,shortestpath_phase,GW/camera.jpg,49.0,GW/teeth.jpg,GW/globe.jpg,1.0,GW/teeth.jpg,One Edge Diff,Five Edge Six Edge,5bcc60b95c2b810001dc68e2,young
866.6999999992549,shortestpath_phase,GW/globe.jpg,50.0,GW/paint.jpg,GW/barrel.jpg,0.0,GW/paint.jpg,One Edge Diff,Four Edge Five Edge,5bcc60b95c2b810001dc68e2,young
1575.800000000745,shortestpath_phase,GW/wheelchair.jpg,50.0,GW/teeth.jpg,GW/gong.jpg,1.0,GW/gong.jpg,One Edge Diff,Four Edge Five Edge,5bcc60b95c2b810001dc68e2,young
4207.200000001118,shortestpath_phase,GW/globe.jpg,50.0,GW/barrel.jpg,GW/wheelchair.jpg,0.0,GW/barrel.jpg,One Edge Diff,Five Edge Six Edge,5bcc60b95c2b810001dc68e2,young
320.09999999962747,shortestpath_phase,GW/paint.jpg,50.0,GW/jukebox.jpg,GW/soldier.jpg,0.0,GW/jukebox.jpg,Two Edge Diff,Two Edge Four Edge,5bcc60b95c2b810001dc68e2,young
1623.4000000003723,shortestpath_phase,GW/basket.jpg,50.0,GW/gong.jpg,GW/wheelchair.jpg,1.0,GW/wheelchair.jpg,One Edge Diff,Two Edge Three Edge,5bcc60b95c2b810001dc68e2,young
1560.0999999996277,shortestpath_phase,GW/soldier.jpg,50.0,GW/wheelchair.jpg,GW/paint.jpg,1.0,GW/paint.jpg,Two Edge Diff,Four Edge Six Edge,5bcc60b95c2b810001dc68e2,young
1024.2999999988824,shortestpath_phase,GW/camera.jpg,49.0,GW/hat.jpg,GW/gong.jpg,1.0,GW/hat.jpg,One Edge Diff,Three Edge Four Edge,5bcc60b95c2b810001dc68e2,young
876.6000000014901,shortestpath_phase,GW/paint.jpg,49.0,GW/teeth.jpg,GW/jukebox.jpg,0.0,GW/jukebox.jpg,One Edge Diff,Two Edge Three Edge,5bcc60b95c2b810001dc68e2,young
383.30000000074506,shortestpath_phase,GW/camera.jpg,49.0,GW/hat.jpg,GW/dustpan.jpg,1.0,GW/hat.jpg,One Edge Diff,Three Edge Four Edge,5bcc60b95c2b810001dc68e2,young
1409.699999999255,shortestpath_phase,GW/paint.jpg,49.0,GW/dustpan.jpg,GW/wheelchair.jpg,0.0,GW/wheelchair.jpg,One Edge Diff,Two Edge Three Edge,5bcc60b95c2b810001dc68e2,young
573.2000000011176,shortestpath_phase,GW/globe.jpg,49.0,GW/jukebox.jpg,GW/barrel.jpg,1.0,GW/jukebox.jpg,One Edge Diff,Four Edge Five Edge,5bcc60b95c2b810001dc68e2,young
224.30000000074503,shortestpath_phase,GW/soldier.jpg,49.0,GW/wheelchair.jpg,GW/teeth.jpg,0.0,GW/teeth.jpg,Four Edge Diff,Two Edge Six Edge,5bcc60b95c2b810001dc68e2,young
382.4000000003726,shortestpath_phase,GW/globe.jpg,50.0,GW/barrel.jpg,GW/gong.jpg,1.0,GW/gong.jpg,Three Edge Diff,Three Edge Six Edge,5bcc60b95c2b810001dc68e2,young
817.8000000007451,shortestpath_phase,GW/soldier.jpg,50.0,GW/basket.jpg,GW/wheelchair.jpg,0.0,GW/basket.jpg,Two Edge Diff,Four Edge Six Edge,5bcc60b95c2b810001dc68e2,young
643.2000000011176,shortestpath_phase,GW/wheelchair.jpg,50.0,GW/soldier.jpg,GW/teeth.jpg,1.0,GW/teeth.jpg,One Edge Diff,Five Edge Six Edge,5bcc60b95c2b810001dc68e2,young
615.0,shortestpath_phase,GW/soldier.jpg,49.0,GW/camera.jpg,GW/globe.jpg,0.0,GW/globe.jpg,Two Edge Diff,Three Edge Five Edge,5bcc60b95c2b810001dc68e2,young
669.0999999996275,shortestpath_phase,GW/basket.jpg,50.0,GW/dustpan.jpg,GW/snail.jpg,1.0,GW/snail.jpg,One Edge Diff,Two Edge Three Edge,5bcc60b95c2b810001dc68e2,young
501.5999999996274,shortestpath_phase,GW/globe.jpg,50.0,GW/wheelchair.jpg,GW/paint.jpg,1.0,GW/paint.jpg,Two Edge Diff,Four Edge Six Edge,5bcc60b95c2b810001dc68e2,young
590.8000000007451,shortestpath_phase,GW/barrel.jpg,50.0,GW/globe.jpg,GW/jukebox.jpg,1.0,GW/jukebox.jpg,Three Edge Diff,Three Edge Six Edge,5bcc60b95c2b810001dc68e2,young
754.4000000003725,shortestpath_phase,GW/globe.jpg,50.0,GW/barrel.jpg,GW/dustpan.jpg,1.0,GW/dustpan.jpg,Three Edge Diff,Three Edge Six Edge,5bcc60b95c2b810001dc68e2,young
391.7999999988824,shortestpath_phase,GW/soldier.jpg,50.0,GW/teeth.jpg,GW/camera.jpg,0.0,GW/teeth.jpg,Three Edge Diff,Two Edge Five Edge,5bcc60b95c2b810001dc68e2,young
342.0,shortestpath_phase,GW/globe.jpg,50.0,GW/dustpan.jpg,GW/barrel.jpg,0.0,GW/dustpan.jpg,Three Edge Diff,Two Edge Five Edge,5bcc60b95c2b810001dc68e2,young
1966.0999999996277,shortestpath_phase,GW/wheelchair.jpg,49.0,GW/paint.jpg,GW/soldier.jpg,1.0,GW/paint.jpg,Four Edge Diff,Two Edge Six Edge,5bcc60b95c2b810001dc68e2,young
333.6000000014901,shortestpath_phase,GW/barrel.jpg,50.0,GW/soldier.jpg,GW/teeth.jpg,1.0,GW/teeth.jpg,One Edge Diff,Four Edge Five Edge,5bcc60b95c2b810001dc68e2,young
548.5,shortestpath_phase,GW/paint.jpg,50.0,GW/soldier.jpg,GW/camera.jpg,1.0,GW/camera.jpg,One Edge Diff,Three Edge Four Edge,5bcc60b95c2b810001dc68e2,young
939.0,shortestpath_phase,GW/globe.jpg,50.0,GW/camera.jpg,GW/jukebox.jpg,1.0,GW/jukebox.jpg,Two Edge Diff,Four Edge Six Edge,5bcc60b95c2b810001dc68e2,young
497.69999999925494,shortestpath_phase,GW/basket.jpg,50.0,GW/teeth.jpg,GW/globe.jpg,0.0,GW/teeth.jpg,One Edge Diff,Four Edge Five Edge,5bcc60b95c2b810001dc68e2,young
657.1999999992549,shortestpath_phase,GW/globe.jpg,49.0,GW/paint.jpg,GW/camera.jpg,1.0,GW/paint.jpg,Two Edge Diff,Four Edge Six Edge,5bcc60b95c2b810001dc68e2,young
204.0,shortestpath_phase,GW/camera.jpg,49.0,GW/globe.jpg,GW/dustpan.jpg,0.0,GW/dustpan.jpg,Two Edge Diff,Four Edge Six Edge,5bcc60b95c2b810001dc68e2,young
260.30000000074506,shortestpath_phase,GW/wheelchair.jpg,50.0,GW/basket.jpg,GW/globe.jpg,0.0,GW/basket.jpg,Four Edge Diff,Two Edge Six Edge,5bcc60b95c2b810001dc68e2,young
385.5,shortestpath_phase,GW/hat.jpg,50.0,GW/paint.jpg,GW/teeth.jpg,1.0,GW/teeth.jpg,One Edge Diff,Two Edge Three Edge,5bcc60b95c2b810001dc68e2,young
1014.5,shortestpath_phase,GW/camera.jpg,49.0,GW/soldier.jpg,GW/globe.jpg,1.0,GW/soldier.jpg,One Edge Diff,Five Edge Six Edge,5bcc60b95c2b810001dc68e2,young
422.19999999925494,shortestpath_phase,GW/teeth.jpg,49.0,GW/wheelchair.jpg,GW/jukebox.jpg,0.0,GW/jukebox.jpg,Two Edge Diff,Three Edge Five Edge,5bcc60b95c2b810001dc68e2,young
674.8000000007451,shortestpath_phase,GW/camera.jpg,49.0,GW/globe.jpg,GW/gong.jpg,0.0,GW/gong.jpg,Two Edge Diff,Four Edge Six Edge,5bcc60b95c2b810001dc68e2,young
332.90000000037253,shortestpath_phase,GW/soldier.jpg,49.0,GW/barrel.jpg,GW/basket.jpg,0.0,GW/basket.jpg,One Edge Diff,Four Edge Five Edge,5bcc60b95c2b810001dc68e2,young
148.7999999988824,shortestpath_phase,GW/gong.jpg,49.0,GW/camera.jpg,GW/jukebox.jpg,0.0,GW/jukebox.jpg,Two Edge Diff,Two Edge Four Edge,5bcc60b95c2b810001dc68e2,young
261.6000000014901,shortestpath_phase,GW/camera.jpg,50.0,GW/barrel.jpg,GW/globe.jpg,0.0,GW/barrel.jpg,Four Edge Diff,Two Edge Six Edge,5bcc60b95c2b810001dc68e2,young
620.0999999996275,shortestpath_phase,GW/globe.jpg,50.0,GW/dustpan.jpg,GW/wheelchair.jpg,0.0,GW/dustpan.jpg,Four Edge Diff,Two Edge Six Edge,5bcc60b95c2b810001dc68e2,young
23.699999999254945,shortestpath_phase,GW/barrel.jpg,50.0,GW/soldier.jpg,GW/jukebox.jpg,1.0,GW/jukebox.jpg,Three Edge Diff,Three Edge Six Edge,5bcc60b95c2b810001dc68e2,young
1202.2999999988824,shortestpath_phase,GW/soldier.jpg,50.0,GW/hat.jpg,GW/wheelchair.jpg,0.0,GW/hat.jpg,Four Edge Diff,Two Edge Six Edge,5bcc60b95c2b810001dc68e2,young
256.2999999988824,shortestpath_phase,GW/wheelchair.jpg,50.0,GW/basket.jpg,GW/teeth.jpg,0.0,GW/basket.jpg,Three Edge Diff,Two Edge Five Edge,5bcc60b95c2b810001dc68e2,young
634.3000000007451,shortestpath_phase,GW/soldier.jpg,50.0,GW/camera.jpg,GW/jukebox.jpg,1.0,GW/jukebox.jpg,Two Edge Diff,Three Edge Five Edge,5bcc60b95c2b810001dc68e2,young
322.90000000037253,shortestpath_phase,GW/basket.jpg,50.0,GW/dustpan.jpg,GW/soldier.jpg,0.0,GW/dustpan.jpg,One Edge Diff,Three Edge Four Edge,5bcc60b95c2b810001dc68e2,young
279.40000000037253,shortestpath_phase,GW/globe.jpg,50.0,GW/gong.jpg,GW/barrel.jpg,0.0,GW/gong.jpg,Three Edge Diff,Two Edge Five Edge,5bcc60b95c2b810001dc68e2,young
577.1999999992549,shortestpath_phase,GW/paint.jpg,50.0,GW/globe.jpg,GW/jukebox.jpg,1.0,GW/jukebox.jpg,Two Edge Diff,Two Edge Four Edge,5bcc60b95c2b810001dc68e2,young
691.4000000003725,shortestpath_phase,GW/wheelchair.jpg,50.0,GW/globe.jpg,GW/gong.jpg,1.0,GW/gong.jpg,Two Edge Diff,Four Edge Six Edge,5bcc60b95c2b810001dc68e2,young
346.0,shortestpath_phase,GW/globe.jpg,50.0,GW/dustpan.jpg,GW/basket.jpg,0.0,GW/dustpan.jpg,Three Edge Diff,Three Edge Six Edge,5bcc60b95c2b810001dc68e2,young
521.4000000003725,shortestpath_phase,GW/wheelchair.jpg,50.0,GW/globe.jpg,GW/hat.jpg,1.0,GW/hat.jpg,Two Edge Diff,Four Edge Six Edge,5bcc60b95c2b810001dc68e2,young
191.40000000037253,shortestpath_phase,GW/snail.jpg,49.0,GW/barrel.jpg,GW/globe.jpg,1.0,GW/barrel.jpg,One Edge Diff,Two Edge Three Edge,5bcc60b95c2b810001dc68e2,young
98.2000000011176,shortestpath_phase,GW/wheelchair.jpg,50.0,GW/soldier.jpg,GW/gong.jpg,1.0,GW/gong.jpg,Two Edge Diff,Four Edge Six Edge,5bcc60b95c2b810001dc68e2,young
783.2999999988824,shortestpath_phase,GW/soldier.jpg,50.0,GW/hat.jpg,GW/camera.jpg,0.0,GW/hat.jpg,Three Edge Diff,Two Edge Five Edge,5bcc60b95c2b810001dc68e2,young
122.19999999925494,shortestpath_phase,GW/wheelchair.jpg,49.0,GW/soldier.jpg,GW/basket.jpg,0.0,GW/basket.jpg,Four Edge Diff,Two Edge Six Edge,5bcc60b95c2b810001dc68e2,young
490.9000000003726,shortestpath_phase,GW/soldier.jpg,50.0,GW/wheelchair.jpg,GW/gong.jpg,1.0,GW/gong.jpg,Four Edge Diff,Two Edge Six Edge,5bcc60b95c2b810001dc68e2,young
248.09999999962747,shortestpath_phase,GW/basket.jpg,50.0,GW/wheelchair.jpg,GW/globe.jpg,0.0,GW/wheelchair.jpg,Three Edge Diff,Two Edge Five Edge,5bcc60b95c2b810001dc68e2,young
597.0999999996275,shortestpath_phase,GW/jukebox.jpg,50.0,GW/gong.jpg,GW/wheelchair.jpg,0.0,GW/gong.jpg,One Edge Diff,Two Edge Three Edge,5bcc60b95c2b810001dc68e2,young
115.69999999925494,shortestpath_phase,GW/wheelchair.jpg,50.0,GW/paint.jpg,GW/globe.jpg,0.0,GW/paint.jpg,Four Edge Diff,Two Edge Six Edge,5bcc60b95c2b810001dc68e2,young
501.4000000003726,shortestpath_phase,GW/globe.jpg,50.0,GW/gong.jpg,GW/camera.jpg,0.0,GW/gong.jpg,Four Edge Diff,Two Edge Six Edge,5bcc60b95c2b810001dc68e2,young
365.2000000011176,shortestpath_phase,GW/camera.jpg,50.0,GW/wheelchair.jpg,GW/teeth.jpg,0.0,GW/wheelchair.jpg,Two Edge Diff,Three Edge Five Edge,5bcc60b95c2b810001dc68e2,young
241.69999999925497,shortestpath_phase,GW/teeth.jpg,50.0,GW/snail.jpg,GW/paint.jpg,0.0,GW/snail.jpg,One Edge Diff,Two Edge Three Edge,5bcc60b95c2b810001dc68e2,young
877.2000000011176,shortestpath_phase,GW/camera.jpg,49.0,GW/dustpan.jpg,GW/paint.jpg,0.0,GW/paint.jpg,One Edge Diff,Three Edge Four Edge,5bcc60b95c2b810001dc68e2,young
727.0,shortestpath_phase,GW/wheelchair.jpg,49.0,GW/basket.jpg,GW/dustpan.jpg,1.0,GW/basket.jpg,Three Edge Diff,Three Edge Six Edge,5bcc60b95c2b810001dc68e2,young
1291.2000000011176,shortestpath_phase,GW/barrel.jpg,49.0,GW/snail.jpg,GW/soldier.jpg,1.0,GW/snail.jpg,Three Edge Diff,Three Edge Six Edge,5bcc60b95c2b810001dc68e2,young
1302.7999999988824,shortestpath_phase,GW/jukebox.jpg,50.0,GW/globe.jpg,GW/wheelchair.jpg,1.0,GW/wheelchair.jpg,One Edge Diff,Three Edge Four Edge,5bcc60b95c2b810001dc68e2,young
667.1999999992549,shortestpath_phase,GW/soldier.jpg,50.0,GW/barrel.jpg,GW/globe.jpg,1.0,GW/globe.jpg,Two Edge Diff,Three Edge Five Edge,5bcc60b95c2b810001dc68e2,young
681.1999999992549,shortestpath_phase,GW/camera.jpg,50.0,GW/jukebox.jpg,GW/globe.jpg,0.0,GW/jukebox.jpg,Four Edge Diff,Two Edge Six Edge,5bcc60b95c2b810001dc68e2,young
526.0,shortestpath_phase,GW/globe.jpg,50.0,GW/camera.jpg,GW/dustpan.jpg,1.0,GW/dustpan.jpg,Four Edge Diff,Two Edge Six Edge,5bcc60b95c2b810001dc68e2,young
146.59999999962747,shortestpath_phase,GW/soldier.jpg,50.0,GW/barrel.jpg,GW/wheelchair.jpg,0.0,GW/barrel.jpg,One Edge Diff,Five Edge Six Edge,5bcc60b95c2b810001dc68e2,young
1911.600000023842,shortestpath_phase,GW/globe.jpg,49.0,GW/basket.jpg,GW/camera.jpg,1.0,GW/basket.jpg,One Edge Diff,Five Edge Six Edge,6550de88683355a74699844c,young
1960.100000023842,shortestpath_phase,GW/jukebox.jpg,49.0,GW/soldier.jpg,GW/hat.jpg,0.0,GW/hat.jpg,Four Edge Diff,Two Edge Six Edge,6550de88683355a74699844c,young
1633.600000023842,shortestpath_phase,GW/soldier.jpg,50.0,GW/paint.jpg,GW/snail.jpg,1.0,GW/snail.jpg,One Edge Diff,Two Edge Three Edge,6550de88683355a74699844c,young
1334.5999999046326,shortestpath_phase,GW/hat.jpg,50.0,GW/camera.jpg,GW/paint.jpg,1.0,GW/paint.jpg,Two Edge Diff,Two Edge Four Edge,6550de88683355a74699844c,young
1233.7999999523165,shortestpath_phase,GW/dustpan.jpg,49.0,GW/soldier.jpg,GW/barrel.jpg,0.0,GW/barrel.jpg,Three Edge Diff,Two Edge Five Edge,6550de88683355a74699844c,young
1310.100000023842,shortestpath_phase,GW/camera.jpg,50.0,GW/gong.jpg,GW/wheelchair.jpg,1.0,GW/wheelchair.jpg,Two Edge Diff,Two Edge Four Edge,6550de88683355a74699844c,young
1458.7000000476835,shortestpath_phase,GW/barrel.jpg,49.0,GW/soldier.jpg,GW/teeth.jpg,0.0,GW/teeth.jpg,One Edge Diff,Two Edge Three Edge,6550de88683355a74699844c,young
2093.0,shortestpath_phase,GW/globe.jpg,49.0,GW/snail.jpg,GW/camera.jpg,1.0,GW/snail.jpg,Two Edge Diff,Four Edge Six Edge,6550de88683355a74699844c,young
1432.899999976158,shortestpath_phase,GW/wheelchair.jpg,49.0,GW/teeth.jpg,GW/barrel.jpg,0.0,GW/barrel.jpg,One Edge Diff,Two Edge Three Edge,6550de88683355a74699844c,young
2095.2000000476837,shortestpath_phase,GW/snail.jpg,49.0,GW/teeth.jpg,GW/globe.jpg,1.0,GW/teeth.jpg,One Edge Diff,Three Edge Four Edge,6550de88683355a74699844c,young
2321.600000023842,shortestpath_phase,GW/wheelchair.jpg,49.0,GW/gong.jpg,GW/jukebox.jpg,1.0,GW/gong.jpg,One Edge Diff,Four Edge Five Edge,6550de88683355a74699844c,young
2152.8000000715256,shortestpath_phase,GW/teeth.jpg,49.0,GW/soldier.jpg,GW/jukebox.jpg,0.0,GW/jukebox.jpg,Two Edge Diff,Two Edge Four Edge,6550de88683355a74699844c,young
2375.600000023842,shortestpath_phase,GW/camera.jpg,50.0,GW/globe.jpg,GW/paint.jpg,1.0,GW/paint.jpg,Four Edge Diff,Two Edge Six Edge,6550de88683355a74699844c,young
1074.8000000715256,shortestpath_phase,GW/soldier.jpg,50.0,GW/teeth.jpg,GW/gong.jpg,0.0,GW/teeth.jpg,One Edge Diff,Four Edge Five Edge,6550de88683355a74699844c,young
1227.7999999523165,shortestpath_phase,GW/dustpan.jpg,50.0,GW/paint.jpg,GW/basket.jpg,0.0,GW/paint.jpg,One Edge Diff,Three Edge Four Edge,6550de88683355a74699844c,young
1133.5999999046326,shortestpath_phase,GW/jukebox.jpg,49.0,GW/snail.jpg,GW/teeth.jpg,0.0,GW/teeth.jpg,Two Edge Diff,Two Edge Four Edge,6550de88683355a74699844c,young
3146.899999976158,shortestpath_phase,GW/soldier.jpg,49.0,GW/basket.jpg,GW/dustpan.jpg,1.0,GW/basket.jpg,Three Edge Diff,Three Edge Six Edge,6550de88683355a74699844c,young
2497.899999976158,shortestpath_phase,GW/globe.jpg,49.0,GW/paint.jpg,GW/camera.jpg,1.0,GW/paint.jpg,Two Edge Diff,Four Edge Six Edge,6550de88683355a74699844c,young
934.3000000715256,shortestpath_phase,GW/dustpan.jpg,49.0,GW/soldier.jpg,GW/jukebox.jpg,0.0,GW/jukebox.jpg,Three Edge Diff,Two Edge Five Edge,6550de88683355a74699844c,young
1727.399999976158,shortestpath_phase,GW/basket.jpg,50.0,GW/globe.jpg,GW/snail.jpg,1.0,GW/snail.jpg,Three Edge Diff,Two Edge Five Edge,6550de88683355a74699844c,young
999.6999999284744,shortestpath_phase,GW/gong.jpg,49.0,GW/soldier.jpg,GW/camera.jpg,0.0,GW/camera.jpg,One Edge Diff,Four Edge Five Edge,6550de88683355a74699844c,young
1079.399999976158,shortestpath_phase,GW/wheelchair.jpg,50.0,GW/barrel.jpg,GW/gong.jpg,0.0,GW/barrel.jpg,Two Edge Diff,Two Edge Four Edge,6550de88683355a74699844c,young
923.5,shortestpath_phase,GW/jukebox.jpg,50.0,GW/teeth.jpg,GW/soldier.jpg,0.0,GW/teeth.jpg,Four Edge Diff,Two Edge Six Edge,6550de88683355a74699844c,young
1341.5,shortestpath_phase,GW/gong.jpg,49.0,GW/snail.jpg,GW/globe.jpg,0.0,GW/globe.jpg,One Edge Diff,Two Edge Three Edge,6550de88683355a74699844c,young
1322.0,shortestpath_phase,GW/wheelchair.jpg,49.0,GW/teeth.jpg,GW/jukebox.jpg,1.0,GW/teeth.jpg,Two Edge Diff,Three Edge Five Edge,6550de88683355a74699844c,young
1088.899999976158,shortestpath_phase,GW/camera.jpg,49.0,GW/globe.jpg,GW/jukebox.jpg,0.0,GW/jukebox.jpg,One Edge Diff,Five Edge Six Edge,6550de88683355a74699844c,young
1111.5,shortestpath_phase,GW/wheelchair.jpg,50.0,GW/globe.jpg,GW/hat.jpg,1.0,GW/hat.jpg,Two Edge Diff,Three Edge Five Edge,6550de88683355a74699844c,young
1419.899999976158,shortestpath_phase,GW/jukebox.jpg,49.0,GW/basket.jpg,GW/soldier.jpg,1.0,GW/basket.jpg,Two Edge Diff,Four Edge Six Edge,6550de88683355a74699844c,young
1058.600000023842,shortestpath_phase,GW/wheelchair.jpg,49.0,GW/gong.jpg,GW/camera.jpg,0.0,GW/camera.jpg,Two Edge Diff,Two Edge Four Edge,6550de88683355a74699844c,young
1372.3000000715256,shortestpath_phase,GW/dustpan.jpg,49.0,GW/barrel.jpg,GW/camera.jpg,1.0,GW/barrel.jpg,Three Edge Diff,Two Edge Five Edge,6550de88683355a74699844c,young
2182.6999999284744,shortestpath_phase,GW/wheelchair.jpg,50.0,GW/camera.jpg,GW/dustpan.jpg,0.0,GW/camera.jpg,Two Edge Diff,Two Edge Four Edge,6550de88683355a74699844c,young
858.2999999523163,shortestpath_phase,GW/dustpan.jpg,50.0,GW/teeth.jpg,GW/camera.jpg,0.0,GW/teeth.jpg,Three Edge Diff,Two Edge Five Edge,6550de88683355a74699844c,young
1095.5,shortestpath_phase,GW/basket.jpg,50.0,GW/jukebox.jpg,GW/hat.jpg,1.0,GW/hat.jpg,One Edge Diff,Three Edge Four Edge,6550de88683355a74699844c,young
1290.0999999046326,shortestpath_phase,GW/globe.jpg,49.0,GW/wheelchair.jpg,GW/camera.jpg,1.0,GW/wheelchair.jpg,One Edge Diff,Five Edge Six Edge,6550de88683355a74699844c,young
1000.0,shortestpath_phase,GW/soldier.jpg,49.0,GW/jukebox.jpg,GW/hat.jpg,0.0,GW/hat.jpg,Two Edge Diff,Four Edge Six Edge,6550de88683355a74699844c,young
1313.1999999284744,shortestpath_phase,GW/basket.jpg,49.0,GW/globe.jpg,GW/dustpan.jpg,0.0,GW/dustpan.jpg,One Edge Diff,Four Edge Five Edge,6550de88683355a74699844c,young
1363.0,shortestpath_phase,GW/hat.jpg,50.0,GW/soldier.jpg,GW/wheelchair.jpg,1.0,GW/wheelchair.jpg,One Edge Diff,Three Edge Four Edge,6550de88683355a74699844c,young
1117.2000000476835,shortestpath_phase,GW/basket.jpg,50.0,GW/gong.jpg,GW/teeth.jpg,1.0,GW/teeth.jpg,One Edge Diff,Two Edge Three Edge,6550de88683355a74699844c,young
926.8000000715256,shortestpath_phase,GW/snail.jpg,49.0,GW/teeth.jpg,GW/hat.jpg,0.0,GW/hat.jpg,One Edge Diff,Two Edge Three Edge,6550de88683355a74699844c,young
1204.0,shortestpath_phase,GW/barrel.jpg,50.0,GW/camera.jpg,GW/teeth.jpg,1.0,GW/teeth.jpg,One Edge Diff,Two Edge Three Edge,6550de88683355a74699844c,young
3773.0,shortestpath_phase,GW/snail.jpg,49.0,GW/soldier.jpg,GW/dustpan.jpg,1.0,GW/soldier.jpg,One Edge Diff,Two Edge Three Edge,6550de88683355a74699844c,young
996.399999976158,shortestpath_phase,GW/paint.jpg,49.0,GW/globe.jpg,GW/dustpan.jpg,0.0,GW/dustpan.jpg,One Edge Diff,Three Edge Four Edge,6550de88683355a74699844c,young
2394.7000000476837,shortestpath_phase,GW/camera.jpg,50.0,GW/dustpan.jpg,GW/barrel.jpg,1.0,GW/barrel.jpg,Two Edge Diff,Three Edge Five Edge,6550de88683355a74699844c,young
1640.899999976158,shortestpath_phase,GW/gong.jpg,49.0,GW/soldier.jpg,GW/paint.jpg,0.0,GW/paint.jpg,Three Edge Diff,Two Edge Five Edge,6550de88683355a74699844c,young
1081.399999976158,shortestpath_phase,GW/basket.jpg,50.0,GW/barrel.jpg,GW/jukebox.jpg,0.0,GW/barrel.jpg,Two Edge Diff,Two Edge Four Edge,6550de88683355a74699844c,young
3932.599999904633,shortestpath_phase,GW/wheelchair.jpg,50.0,GW/camera.jpg,GW/teeth.jpg,0.0,GW/camera.jpg,One Edge Diff,Two Edge Three Edge,6550de88683355a74699844c,young
1414.5,shortestpath_phase,GW/soldier.jpg,50.0,GW/barrel.jpg,GW/gong.jpg,0.0,GW/barrel.jpg,Two Edge Diff,Three Edge Five Edge,6550de88683355a74699844c,young
1302.399999976158,shortestpath_phase,GW/dustpan.jpg,50.0,GW/basket.jpg,GW/jukebox.jpg,1.0,GW/jukebox.jpg,Two Edge Diff,Two Edge Four Edge,6550de88683355a74699844c,young
1623.0,shortestpath_phase,GW/globe.jpg,50.0,GW/basket.jpg,GW/soldier.jpg,0.0,GW/basket.jpg,One Edge Diff,Five Edge Six Edge,6550de88683355a74699844c,young
1773.7000000476835,shortestpath_phase,GW/camera.jpg,50.0,GW/wheelchair.jpg,GW/globe.jpg,0.0,GW/wheelchair.jpg,Four Edge Diff,Two Edge Six Edge,6550de88683355a74699844c,young
2602.2000000476837,shortestpath_phase,GW/dustpan.jpg,49.0,GW/barrel.jpg,GW/camera.jpg,1.0,GW/barrel.jpg,Three Edge Diff,Three Edge Six Edge,6550de88683355a74699844c,young
2064.0,shortestpath_phase,GW/camera.jpg,49.0,GW/jukebox.jpg,GW/paint.jpg,0.0,GW/paint.jpg,Three Edge Diff,Three Edge Six Edge,6550de88683355a74699844c,young
1634.5999999046326,shortestpath_phase,GW/dustpan.jpg,49.0,GW/teeth.jpg,GW/basket.jpg,1.0,GW/teeth.jpg,Two Edge Diff,Two Edge Four Edge,6550de88683355a74699844c,young
1910.2999999523165,shortestpath_phase,GW/soldier.jpg,49.0,GW/jukebox.jpg,GW/snail.jpg,0.0,GW/snail.jpg,Four Edge Diff,Two Edge Six Edge,6550de88683355a74699844c,young
1461.399999976158,shortestpath_phase,GW/globe.jpg,49.0,GW/gong.jpg,GW/soldier.jpg,1.0,GW/gong.jpg,Four Edge Diff,Two Edge Six Edge,6550de88683355a74699844c,young
1188.0,shortestpath_phase,GW/camera.jpg,50.0,GW/dustpan.jpg,GW/teeth.jpg,1.0,GW/teeth.jpg,Two Edge Diff,Three Edge Five Edge,6550de88683355a74699844c,young
1732.899999976158,shortestpath_phase,GW/jukebox.jpg,49.0,GW/camera.jpg,GW/dustpan.jpg,0.0,GW/dustpan.jpg,Three Edge Diff,Three Edge Six Edge,6550de88683355a74699844c,young
1202.2000000476835,shortestpath_phase,GW/gong.jpg,50.0,GW/barrel.jpg,GW/wheelchair.jpg,0.0,GW/barrel.jpg,Two Edge Diff,Two Edge Four Edge,6550de88683355a74699844c,young
1699.7000000476835,shortestpath_phase,GW/soldier.jpg,49.0,GW/gong.jpg,GW/camera.jpg,0.0,GW/camera.jpg,Two Edge Diff,Three Edge Five Edge,6550de88683355a74699844c,young
1596.899999976158,shortestpath_phase,GW/dustpan.jpg,50.0,GW/soldier.jpg,GW/jukebox.jpg,1.0,GW/jukebox.jpg,Three Edge Diff,Three Edge Six Edge,6550de88683355a74699844c,young
2644.399999976158,shortestpath_phase,GW/basket.jpg,49.0,GW/dustpan.jpg,GW/hat.jpg,0.0,GW/hat.jpg,One Edge Diff,Three Edge Four Edge,6550de88683355a74699844c,young
2387.100000023842,shortestpath_phase,GW/soldier.jpg,50.0,GW/dustpan.jpg,GW/globe.jpg,0.0,GW/dustpan.jpg,One Edge Diff,Five Edge Six Edge,6550de88683355a74699844c,young
2080.7000000476837,shortestpath_phase,GW/wheelchair.jpg,49.0,GW/globe.jpg,GW/camera.jpg,0.0,GW/camera.jpg,Three Edge Diff,Two Edge Five Edge,6550de88683355a74699844c,young
1569.6999999284744,shortestpath_phase,GW/soldier.jpg,49.0,GW/gong.jpg,GW/basket.jpg,0.0,GW/basket.jpg,Three Edge Diff,Two Edge Five Edge,6550de88683355a74699844c,young
1283.7999999523165,shortestpath_phase,GW/wheelchair.jpg,49.0,GW/globe.jpg,GW/teeth.jpg,0.0,GW/teeth.jpg,Two Edge Diff,Three Edge Five Edge,6550de88683355a74699844c,young
1384.899999976158,shortestpath_phase,GW/camera.jpg,49.0,GW/soldier.jpg,GW/dustpan.jpg,1.0,GW/soldier.jpg,Two Edge Diff,Three Edge Five Edge,6550de88683355a74699844c,young
3205.100000023842,shortestpath_phase,GW/wheelchair.jpg,49.0,GW/barrel.jpg,GW/dustpan.jpg,1.0,GW/barrel.jpg,Two Edge Diff,Two Edge Four Edge,6550de88683355a74699844c,young
1143.2000000476835,shortestpath_phase,GW/globe.jpg,50.0,GW/hat.jpg,GW/wheelchair.jpg,0.0,GW/hat.jpg,Three Edge Diff,Three Edge Six Edge,6550de88683355a74699844c,young
1546.6999999284744,shortestpath_phase,GW/soldier.jpg,50.0,GW/globe.jpg,GW/basket.jpg,1.0,GW/basket.jpg,Four Edge Diff,Two Edge Six Edge,6550de88683355a74699844c,young
2047.7000000476835,shortestpath_phase,GW/globe.jpg,49.0,GW/soldier.jpg,GW/hat.jpg,0.0,GW/hat.jpg,Four Edge Diff,Two Edge Six Edge,6550de88683355a74699844c,young
3314.400000095367,shortestpath_phase,GW/teeth.jpg,50.0,GW/jukebox.jpg,GW/snail.jpg,0.0,GW/jukebox.jpg,One Edge Diff,Two Edge Three Edge,6550de88683355a74699844c,young
1626.2000000476835,shortestpath_phase,GW/globe.jpg,49.0,GW/snail.jpg,GW/basket.jpg,1.0,GW/snail.jpg,One Edge Diff,Four Edge Five Edge,6550de88683355a74699844c,young
1764.899999976158,shortestpath_phase,GW/teeth.jpg,49.0,GW/wheelchair.jpg,GW/soldier.jpg,1.0,GW/wheelchair.jpg,One Edge Diff,Three Edge Four Edge,6550de88683355a74699844c,young
1492.600000023842,shortestpath_phase,GW/globe.jpg,49.0,GW/jukebox.jpg,GW/wheelchair.jpg,1.0,GW/jukebox.jpg,Two Edge Diff,Three Edge Five Edge,6550de88683355a74699844c,young
1112.7000000476835,shortestpath_phase,GW/soldier.jpg,49.0,GW/jukebox.jpg,GW/teeth.jpg,0.0,GW/teeth.jpg,Two Edge Diff,Four Edge Six Edge,6550de88683355a74699844c,young
1257.1999999284744,shortestpath_phase,GW/gong.jpg,49.0,GW/basket.jpg,GW/wheelchair.jpg,1.0,GW/basket.jpg,One Edge Diff,Three Edge Four Edge,6550de88683355a74699844c,young
832.8999999761581,shortestpath_phase,GW/globe.jpg,50.0,GW/basket.jpg,GW/teeth.jpg,1.0,GW/teeth.jpg,Two Edge Diff,Three Edge Five Edge,6550de88683355a74699844c,young
1366.0,shortestpath_phase,GW/soldier.jpg,50.0,GW/jukebox.jpg,GW/dustpan.jpg,1.0,GW/dustpan.jpg,One Edge Diff,Five Edge Six Edge,6550de88683355a74699844c,young
923.100000023842,shortestpath_phase,GW/camera.jpg,50.0,GW/hat.jpg,GW/jukebox.jpg,0.0,GW/hat.jpg,One Edge Diff,Four Edge Five Edge,6550de88683355a74699844c,young
1924.5,shortestpath_phase,GW/jukebox.jpg,50.0,GW/paint.jpg,GW/camera.jpg,0.0,GW/paint.jpg,Two Edge Diff,Three Edge Five Edge,6550de88683355a74699844c,young
1112.2000000476835,shortestpath_phase,GW/camera.jpg,50.0,GW/globe.jpg,GW/dustpan.jpg,1.0,GW/dustpan.jpg,One Edge Diff,Five Edge Six Edge,6550de88683355a74699844c,young
1183.399999976158,shortestpath_phase,GW/wheelchair.jpg,50.0,GW/dustpan.jpg,GW/teeth.jpg,1.0,GW/teeth.jpg,One Edge Diff,Three Edge Four Edge,6550de88683355a74699844c,young
1128.8000000715256,shortestpath_phase,GW/globe.jpg,49.0,GW/camera.jpg,GW/hat.jpg,0.0,GW/hat.jpg,Four Edge Diff,Two Edge Six Edge,6550de88683355a74699844c,young
835.2000000476837,shortestpath_phase,GW/jukebox.jpg,50.0,GW/wheelchair.jpg,GW/teeth.jpg,1.0,GW/teeth.jpg,Three Edge Diff,Two Edge Five Edge,6550de88683355a74699844c,young
1180.899999976158,shortestpath_phase,GW/dustpan.jpg,49.0,GW/basket.jpg,GW/camera.jpg,1.0,GW/basket.jpg,One Edge Diff,Four Edge Five Edge,6550de88683355a74699844c,young
1956.100000023842,shortestpath_phase,GW/globe.jpg,49.0,GW/wheelchair.jpg,GW/soldier.jpg,1.0,GW/wheelchair.jpg,One Edge Diff,Five Edge Six Edge,6550de88683355a74699844c,young
691.8999999761581,shortestpath_phase,GW/jukebox.jpg,49.0,GW/soldier.jpg,GW/snail.jpg,0.0,GW/snail.jpg,Two Edge Diff,Four Edge Six Edge,6550de88683355a74699844c,young
1001.5,shortestpath_phase,GW/camera.jpg,49.0,GW/wheelchair.jpg,GW/jukebox.jpg,1.0,GW/wheelchair.jpg,Three Edge Diff,Three Edge Six Edge,6550de88683355a74699844c,young
1329.2000000476835,shortestpath_phase,GW/globe.jpg,49.0,GW/soldier.jpg,GW/snail.jpg,0.0,GW/snail.jpg,Two Edge Diff,Four Edge Six Edge,6550de88683355a74699844c,young
648.7999999523163,shortestpath_phase,GW/dustpan.jpg,50.0,GW/camera.jpg,GW/wheelchair.jpg,1.0,GW/wheelchair.jpg,One Edge Diff,Four Edge Five Edge,6550de88683355a74699844c,young
580.0,shortestpath_phase,GW/soldier.jpg,49.0,GW/globe.jpg,GW/gong.jpg,0.0,GW/gong.jpg,One Edge Diff,Five Edge Six Edge,6550de88683355a74699844c,young
850.1000000238419,shortestpath_phase,GW/globe.jpg,49.0,GW/paint.jpg,GW/jukebox.jpg,0.0,GW/jukebox.jpg,One Edge Diff,Three Edge Four Edge,6550de88683355a74699844c,young
933.4000000953674,shortestpath_phase,GW/basket.jpg,50.0,GW/snail.jpg,GW/globe.jpg,0.0,GW/snail.jpg,Three Edge Diff,Three Edge Six Edge,6550de88683355a74699844c,young
1503.1999999284744,shortestpath_phase,GW/gong.jpg,49.0,GW/soldier.jpg,GW/paint.jpg,0.0,GW/paint.jpg,Three Edge Diff,Three Edge Six Edge,6550de88683355a74699844c,young
829.6000000238419,shortestpath_phase,GW/basket.jpg,50.0,GW/soldier.jpg,GW/globe.jpg,0.0,GW/soldier.jpg,Three Edge Diff,Two Edge Five Edge,6550de88683355a74699844c,young
922.6999999284744,shortestpath_phase,GW/globe.jpg,49.0,GW/soldier.jpg,GW/paint.jpg,0.0,GW/paint.jpg,Two Edge Diff,Four Edge Six Edge,6550de88683355a74699844c,young
611.2000000476837,shortestpath_phase,GW/dustpan.jpg,50.0,GW/soldier.jpg,GW/wheelchair.jpg,1.0,GW/wheelchair.jpg,One Edge Diff,Four Edge Five Edge,6550de88683355a74699844c,young
599.6999999284744,shortestpath_phase,GW/soldier.jpg,49.0,GW/gong.jpg,GW/paint.jpg,0.0,GW/paint.jpg,Two Edge Diff,Three Edge Five Edge,6550de88683355a74699844c,young
794.5,shortestpath_phase,GW/globe.jpg,49.0,GW/gong.jpg,GW/camera.jpg,1.0,GW/gong.jpg,Four Edge Diff,Two Edge Six Edge,6550de88683355a74699844c,young
961.7999999523164,shortestpath_phase,GW/basket.jpg,50.0,GW/jukebox.jpg,GW/globe.jpg,0.0,GW/jukebox.jpg,One Edge Diff,Four Edge Five Edge,6550de88683355a74699844c,young
787.3999999761581,shortestpath_phase,GW/camera.jpg,49.0,GW/globe.jpg,GW/hat.jpg,0.0,GW/hat.jpg,Two Edge Diff,Four Edge Six Edge,6550de88683355a74699844c,young
648.8999999761581,shortestpath_phase,GW/soldier.jpg,49.0,GW/globe.jpg,GW/teeth.jpg,0.0,GW/teeth.jpg,Two Edge Diff,Four Edge Six Edge,6550de88683355a74699844c,young
488.0,shortestpath_phase,GW/globe.jpg,50.0,GW/paint.jpg,GW/basket.jpg,0.0,GW/paint.jpg,One Edge Diff,Four Edge Five Edge,6550de88683355a74699844c,young
1189.2000000476835,shortestpath_phase,GW/teeth.jpg,49.0,GW/wheelchair.jpg,GW/jukebox.jpg,0.0,GW/jukebox.jpg,One Edge Diff,Two Edge Three Edge,6550de88683355a74699844c,young
1146.0999999046326,shortestpath_phase,GW/soldier.jpg,49.0,GW/hat.jpg,GW/dustpan.jpg,1.0,GW/hat.jpg,One Edge Diff,Four Edge Five Edge,6550de88683355a74699844c,young
530.5,shortestpath_phase,GW/camera.jpg,49.0,GW/gong.jpg,GW/globe.jpg,1.0,GW/gong.jpg,Two Edge Diff,Four Edge Six Edge,6550de88683355a74699844c,young
1949.7000000476835,shortestpath_phase,GW/jukebox.jpg,50.0,GW/camera.jpg,GW/hat.jpg,1.0,GW/hat.jpg,Three Edge Diff,Two Edge Five Edge,6550de88683355a74699844c,young
1217.8000000715256,shortestpath_phase,GW/globe.jpg,50.0,GW/gong.jpg,GW/wheelchair.jpg,0.0,GW/gong.jpg,Three Edge Diff,Three Edge Six Edge,6550de88683355a74699844c,young
689.5,shortestpath_phase,GW/soldier.jpg,50.0,GW/camera.jpg,GW/teeth.jpg,0.0,GW/camera.jpg,One Edge Diff,Three Edge Four Edge,6550de88683355a74699844c,young
1019.7999999523164,shortestpath_phase,GW/basket.jpg,50.0,GW/globe.jpg,GW/teeth.jpg,1.0,GW/teeth.jpg,Three Edge Diff,Three Edge Six Edge,6550de88683355a74699844c,young
1097.3000000715256,shortestpath_phase,GW/jukebox.jpg,50.0,GW/soldier.jpg,GW/dustpan.jpg,1.0,GW/dustpan.jpg,Four Edge Diff,Two Edge Six Edge,6550de88683355a74699844c,young
768.2999999523163,shortestpath_phase,GW/globe.jpg,49.0,GW/barrel.jpg,GW/gong.jpg,0.0,GW/gong.jpg,One Edge Diff,Two Edge Three Edge,6550de88683355a74699844c,young
1222.0,shortestpath_phase,GW/jukebox.jpg,49.0,GW/camera.jpg,GW/soldier.jpg,1.0,GW/camera.jpg,One Edge Diff,Five Edge Six Edge,6550de88683355a74699844c,young
923.0,shortestpath_phase,GW/dustpan.jpg,49.0,GW/soldier.jpg,GW/barrel.jpg,0.0,GW/barrel.jpg,Three Edge Diff,Three Edge Six Edge,6550de88683355a74699844c,young
1711.0999999046326,shortestpath_phase,GW/soldier.jpg,49.0,GW/jukebox.jpg,GW/basket.jpg,0.0,GW/basket.jpg,Four Edge Diff,Two Edge Six Edge,6550de88683355a74699844c,young
2207.100000023842,shortestpath_phase,GW/globe.jpg,49.0,GW/snail.jpg,GW/barrel.jpg,0.0,GW/barrel.jpg,One Edge Diff,Three Edge Four Edge,6550de88683355a74699844c,young
4335.399999976158,shortestpath_phase,GW/soldier.jpg,50.0,GW/gong.jpg,GW/jukebox.jpg,0.0,GW/gong.jpg,One Edge Diff,Five Edge Six Edge,6550de88683355a74699844c,young
993.399999976158,shortestpath_phase,GW/jukebox.jpg,49.0,GW/wheelchair.jpg,GW/soldier.jpg,1.0,GW/wheelchair.jpg,One Edge Diff,Five Edge Six Edge,6550de88683355a74699844c,young
5508.300000071526,shortestpath_phase,GW/soldier.jpg,50.0,GW/hat.jpg,GW/globe.jpg,0.0,GW/hat.jpg,Two Edge Diff,Four Edge Six Edge,6550de88683355a74699844c,young
1544.5,shortestpath_phase,GW/globe.jpg,49.0,GW/gong.jpg,GW/wheelchair.jpg,1.0,GW/gong.jpg,Three Edge Diff,Two Edge Five Edge,6550de88683355a74699844c,young
1045.3000000715256,shortestpath_phase,GW/soldier.jpg,49.0,GW/globe.jpg,GW/snail.jpg,0.0,GW/snail.jpg,Four Edge Diff,Two Edge Six Edge,6550de88683355a74699844c,young
1723.300000011921,shortestpath_phase,GW/basket.jpg,49.0,GW/soldier.jpg,GW/camera.jpg,0.0,GW/camera.jpg,Three Edge Diff,Three Edge Six Edge,6526f601bedbae17738408b1,old
1415.0,shortestpath_phase,GW/paint.jpg,49.0,GW/hat.jpg,GW/wheelchair.jpg,1.0,GW/hat.jpg,Four Edge Diff,Two Edge Six Edge,6526f601bedbae17738408b1,old
2335.699999988079,shortestpath_phase,GW/soldier.jpg,50.0,GW/camera.jpg,GW/globe.jpg,1.0,GW/globe.jpg,One Edge Diff,Two Edge Three Edge,6526f601bedbae17738408b1,old
3143.5,shortestpath_phase,GW/teeth.jpg,50.0,GW/wheelchair.jpg,GW/basket.jpg,1.0,GW/basket.jpg,One Edge Diff,Four Edge Five Edge,6526f601bedbae17738408b1,old
2554.5,shortestpath_phase,GW/snail.jpg,49.0,GW/jukebox.jpg,GW/barrel.jpg,1.0,GW/jukebox.jpg,One Edge Diff,Two Edge Three Edge,6526f601bedbae17738408b1,old
3119.099999964237,shortestpath_phase,GW/basket.jpg,50.0,GW/paint.jpg,GW/globe.jpg,1.0,GW/globe.jpg,Two Edge Diff,Three Edge Five Edge,6526f601bedbae17738408b1,old
2413.400000035763,shortestpath_phase,GW/soldier.jpg,50.0,GW/wheelchair.jpg,GW/teeth.jpg,1.0,GW/teeth.jpg,Three Edge Diff,Two Edge Five Edge,6526f601bedbae17738408b1,old
3515.5,shortestpath_phase,GW/paint.jpg,50.0,GW/gong.jpg,GW/basket.jpg,1.0,GW/basket.jpg,One Edge Diff,Five Edge Six Edge,6526f601bedbae17738408b1,old
3220.699999988079,shortestpath_phase,GW/soldier.jpg,49.0,GW/wheelchair.jpg,GW/gong.jpg,1.0,GW/wheelchair.jpg,One Edge Diff,Five Edge Six Edge,6526f601bedbae17738408b1,old
2928.600000023842,shortestpath_phase,GW/paint.jpg,50.0,GW/jukebox.jpg,GW/snail.jpg,0.0,GW/jukebox.jpg,Two Edge Diff,Three Edge Five Edge,6526f601bedbae17738408b1,old
3193.400000035763,shortestpath_phase,GW/wheelchair.jpg,50.0,GW/paint.jpg,GW/soldier.jpg,1.0,GW/soldier.jpg,One Edge Diff,Five Edge Six Edge,6526f601bedbae17738408b1,old
3223.899999976158,shortestpath_phase,GW/paint.jpg,50.0,GW/camera.jpg,GW/gong.jpg,0.0,GW/camera.jpg,Two Edge Diff,Four Edge Six Edge,6526f601bedbae17738408b1,old
3526.0,shortestpath_phase,GW/gong.jpg,50.0,GW/teeth.jpg,GW/snail.jpg,1.0,GW/snail.jpg,Three Edge Diff,Two Edge Five Edge,6526f601bedbae17738408b1,old
2620.899999976158,shortestpath_phase,GW/paint.jpg,50.0,GW/barrel.jpg,GW/gong.jpg,0.0,GW/barrel.jpg,Four Edge Diff,Two Edge Six Edge,6526f601bedbae17738408b1,old
3414.099999964237,shortestpath_phase,GW/basket.jpg,49.0,GW/hat.jpg,GW/soldier.jpg,1.0,GW/hat.jpg,One Edge Diff,Four Edge Five Edge,6526f601bedbae17738408b1,old
3962.900000035763,shortestpath_phase,GW/paint.jpg,49.0,GW/wheelchair.jpg,GW/snail.jpg,0.0,GW/snail.jpg,One Edge Diff,Five Edge Six Edge,6526f601bedbae17738408b1,old
4136.399999976158,shortestpath_phase,GW/soldier.jpg,50.0,GW/gong.jpg,GW/basket.jpg,1.0,GW/basket.jpg,One Edge Diff,Five Edge Six Edge,6526f601bedbae17738408b1,old
3930.600000023842,shortestpath_phase,GW/paint.jpg,50.0,GW/basket.jpg,GW/hat.jpg,1.0,GW/hat.jpg,Three Edge Diff,Two Edge Five Edge,6526f601bedbae17738408b1,old
3568.2000000476837,shortestpath_phase,GW/teeth.jpg,49.0,GW/wheelchair.jpg,GW/dustpan.jpg,0.0,GW/dustpan.jpg,Two Edge Diff,Three Edge Five Edge,6526f601bedbae17738408b1,old
3493.699999988079,shortestpath_phase,GW/paint.jpg,50.0,GW/gong.jpg,GW/snail.jpg,1.0,GW/snail.jpg,One Edge Diff,Five Edge Six Edge,6526f601bedbae17738408b1,old
,shortestpath_phase,GW/camera.jpg,,GW/teeth.jpg,GW/paint.jpg,0.0,GW/teeth.jpg,One Edge Diff,Three Edge Four Edge,6526f601bedbae17738408b1,old
,shortestpath_phase,GW/paint.jpg,,GW/snail.jpg,GW/hat.jpg,0.0,GW/hat.jpg,Three Edge Diff,Three Edge Six Edge,6526f601bedbae17738408b1,old
,shortestpath_phase,GW/gong.jpg,,GW/soldier.jpg,GW/barrel.jpg,0.0,GW/barrel.jpg,Two Edge Diff,Four Edge Six Edge,6526f601bedbae17738408b1,old
,shortestpath_phase,GW/dustpan.jpg,,GW/hat.jpg,GW/paint.jpg,0.0,GW/hat.jpg,One Edge Diff,Three Edge Four Edge,6526f601bedbae17738408b1,old
3012.900000035763,shortestpath_phase,GW/paint.jpg,50.0,GW/basket.jpg,GW/barrel.jpg,1.0,GW/barrel.jpg,Three Edge Diff,Three Edge Six Edge,6526f601bedbae17738408b1,old
3798.800000011921,shortestpath_phase,GW/gong.jpg,50.0,GW/dustpan.jpg,GW/jukebox.jpg,0.0,GW/dustpan.jpg,One Edge Diff,Two Edge Three Edge,6526f601bedbae17738408b1,old
1891.5,shortestpath_phase,GW/basket.jpg,49.0,GW/wheelchair.jpg,GW/soldier.jpg,1.0,GW/wheelchair.jpg,Three Edge Diff,Two Edge Five Edge,6526f601bedbae17738408b1,old
2726.100000023842,shortestpath_phase,GW/hat.jpg,49.0,GW/snail.jpg,GW/wheelchair.jpg,1.0,GW/snail.jpg,One Edge Diff,Three Edge Four Edge,6526f601bedbae17738408b1,old
2947.5,shortestpath_phase,GW/basket.jpg,49.0,GW/wheelchair.jpg,GW/hat.jpg,1.0,GW/wheelchair.jpg,Two Edge Diff,Two Edge Four Edge,6526f601bedbae17738408b1,old
2604.0,shortestpath_phase,GW/soldier.jpg,50.0,GW/gong.jpg,GW/snail.jpg,1.0,GW/snail.jpg,Two Edge Diff,Four Edge Six Edge,6526f601bedbae17738408b1,old
2655.300000011921,shortestpath_phase,GW/wheelchair.jpg,49.0,GW/barrel.jpg,GW/camera.jpg,0.0,GW/camera.jpg,Two Edge Diff,Two Edge Four Edge,6526f601bedbae17738408b1,old
2771.099999964237,shortestpath_phase,GW/basket.jpg,50.0,GW/teeth.jpg,GW/paint.jpg,0.0,GW/teeth.jpg,One Edge Diff,Four Edge Five Edge,6526f601bedbae17738408b1,old
2970.699999988079,shortestpath_phase,GW/wheelchair.jpg,50.0,GW/barrel.jpg,GW/teeth.jpg,0.0,GW/barrel.jpg,One Edge Diff,Four Edge Five Edge,6526f601bedbae17738408b1,old
3214.5,shortestpath_phase,GW/basket.jpg,50.0,GW/soldier.jpg,GW/jukebox.jpg,1.0,GW/jukebox.jpg,Three Edge Diff,Three Edge Six Edge,6526f601bedbae17738408b1,old
3779.399999976158,shortestpath_phase,GW/wheelchair.jpg,49.0,GW/gong.jpg,GW/camera.jpg,0.0,GW/camera.jpg,One Edge Diff,Two Edge Three Edge,6526f601bedbae17738408b1,old
4093.0,shortestpath_phase,GW/teeth.jpg,50.0,GW/snail.jpg,GW/gong.jpg,0.0,GW/snail.jpg,One Edge Diff,Four Edge Five Edge,6526f601bedbae17738408b1,old
3318.5,shortestpath_phase,GW/gong.jpg,50.0,GW/paint.jpg,GW/hat.jpg,1.0,GW/hat.jpg,One Edge Diff,Five Edge Six Edge,6526f601bedbae17738408b1,old
3258.600000023842,shortestpath_phase,GW/basket.jpg,49.0,GW/globe.jpg,GW/hat.jpg,1.0,GW/globe.jpg,One Edge Diff,Three Edge Four Edge,6526f601bedbae17738408b1,old
2940.599999964237,shortestpath_phase,GW/gong.jpg,50.0,GW/paint.jpg,GW/snail.jpg,1.0,GW/snail.jpg,Four Edge Diff,Two Edge Six Edge,6526f601bedbae17738408b1,old
1990.2000000476835,shortestpath_phase,GW/camera.jpg,49.0,GW/soldier.jpg,GW/paint.jpg,1.0,GW/soldier.jpg,One Edge Diff,Three Edge Four Edge,6526f601bedbae17738408b1,old
2305.699999988079,shortestpath_phase,GW/wheelchair.jpg,49.0,GW/gong.jpg,GW/teeth.jpg,1.0,GW/gong.jpg,Two Edge Diff,Three Edge Five Edge,6526f601bedbae17738408b1,old
1742.100000023842,shortestpath_phase,GW/camera.jpg,50.0,GW/barrel.jpg,GW/soldier.jpg,0.0,GW/barrel.jpg,One Edge Diff,Two Edge Three Edge,6526f601bedbae17738408b1,old
4773.199999988079,shortestpath_phase,GW/gong.jpg,49.0,GW/globe.jpg,GW/soldier.jpg,1.0,GW/globe.jpg,Two Edge Diff,Four Edge Six Edge,6526f601bedbae17738408b1,old
3205.699999988079,shortestpath_phase,GW/soldier.jpg,50.0,GW/gong.jpg,GW/barrel.jpg,1.0,GW/barrel.jpg,Four Edge Diff,Two Edge Six Edge,6526f601bedbae17738408b1,old
2416.300000011921,shortestpath_phase,GW/teeth.jpg,49.0,GW/camera.jpg,GW/wheelchair.jpg,1.0,GW/camera.jpg,Two Edge Diff,Three Edge Five Edge,6526f601bedbae17738408b1,old
2121.800000011921,shortestpath_phase,GW/barrel.jpg,49.0,GW/paint.jpg,GW/gong.jpg,1.0,GW/paint.jpg,Two Edge Diff,Two Edge Four Edge,6526f601bedbae17738408b1,old
1387.600000023842,shortestpath_phase,GW/wheelchair.jpg,50.0,GW/paint.jpg,GW/camera.jpg,1.0,GW/camera.jpg,Four Edge Diff,Two Edge Six Edge,6526f601bedbae17738408b1,old
2602.100000023842,shortestpath_phase,GW/snail.jpg,49.0,GW/barrel.jpg,GW/paint.jpg,1.0,GW/barrel.jpg,Two Edge Diff,Three Edge Five Edge,6526f601bedbae17738408b1,old
3707.699999988079,shortestpath_phase,GW/paint.jpg,49.0,GW/wheelchair.jpg,GW/camera.jpg,0.0,GW/camera.jpg,Two Edge Diff,Four Edge Six Edge,6526f601bedbae17738408b1,old
2174.400000035763,shortestpath_phase,GW/snail.jpg,49.0,GW/jukebox.jpg,GW/teeth.jpg,1.0,GW/jukebox.jpg,Two Edge Diff,Two Edge Four Edge,6526f601bedbae17738408b1,old
3787.5,shortestpath_phase,GW/globe.jpg,49.0,GW/soldier.jpg,GW/gong.jpg,1.0,GW/soldier.jpg,Two Edge Diff,Two Edge Four Edge,6526f601bedbae17738408b1,old
3398.300000011921,shortestpath_phase,GW/jukebox.jpg,49.0,GW/snail.jpg,GW/gong.jpg,1.0,GW/snail.jpg,One Edge Diff,Two Edge Three Edge,6526f601bedbae17738408b1,old
2853.900000035763,shortestpath_phase,GW/wheelchair.jpg,49.0,GW/camera.jpg,GW/soldier.jpg,1.0,GW/camera.jpg,Three Edge Diff,Three Edge Six Edge,6526f601bedbae17738408b1,old
2802.7999999523163,shortestpath_phase,GW/gong.jpg,50.0,GW/jukebox.jpg,GW/teeth.jpg,0.0,GW/jukebox.jpg,Two Edge Diff,Three Edge Five Edge,6526f601bedbae17738408b1,old
2214.7999999523163,shortestpath_phase,GW/wheelchair.jpg,49.0,GW/basket.jpg,GW/hat.jpg,1.0,GW/basket.jpg,Two Edge Diff,Two Edge Four Edge,6526f601bedbae17738408b1,old
1540.699999988079,shortestpath_phase,GW/snail.jpg,50.0,GW/paint.jpg,GW/gong.jpg,1.0,GW/gong.jpg,Three Edge Diff,Two Edge Five Edge,6526f601bedbae17738408b1,old
3443.5,shortestpath_phase,GW/teeth.jpg,49.0,GW/globe.jpg,GW/gong.jpg,1.0,GW/globe.jpg,Three Edge Diff,Two Edge Five Edge,6526f601bedbae17738408b1,old
2386.400000035763,shortestpath_phase,GW/hat.jpg,50.0,GW/gong.jpg,GW/paint.jpg,1.0,GW/paint.jpg,Three Edge Diff,Two Edge Five Edge,6526f601bedbae17738408b1,old
2508.100000023842,shortestpath_phase,GW/barrel.jpg,49.0,GW/wheelchair.jpg,GW/camera.jpg,0.0,GW/camera.jpg,Two Edge Diff,Two Edge Four Edge,6526f601bedbae17738408b1,old
4224.200000047684,shortestpath_phase,GW/teeth.jpg,49.0,GW/snail.jpg,GW/wheelchair.jpg,1.0,GW/snail.jpg,One Edge Diff,Four Edge Five Edge,6526f601bedbae17738408b1,old
2429.600000023842,shortestpath_phase,GW/gong.jpg,49.0,GW/wheelchair.jpg,GW/teeth.jpg,1.0,GW/wheelchair.jpg,Two Edge Diff,Three Edge Five Edge,6526f601bedbae17738408b1,old
4361.5,shortestpath_phase,GW/teeth.jpg,49.0,GW/gong.jpg,GW/basket.jpg,0.0,GW/basket.jpg,One Edge Diff,Four Edge Five Edge,6526f601bedbae17738408b1,old
1343.800000011921,shortestpath_phase,GW/gong.jpg,50.0,GW/teeth.jpg,GW/snail.jpg,1.0,GW/snail.jpg,Three Edge Diff,Three Edge Six Edge,6526f601bedbae17738408b1,old
1662.9000000357628,shortestpath_phase,GW/soldier.jpg,50.0,GW/gong.jpg,GW/globe.jpg,1.0,GW/globe.jpg,Four Edge Diff,Two Edge Six Edge,6526f601bedbae17738408b1,old
4254.0,shortestpath_phase,GW/wheelchair.jpg,50.0,GW/basket.jpg,GW/paint.jpg,0.0,GW/basket.jpg,Four Edge Diff,Two Edge Six Edge,6526f601bedbae17738408b1,old
4155.300000011921,shortestpath_phase,GW/dustpan.jpg,49.0,GW/hat.jpg,GW/soldier.jpg,1.0,GW/hat.jpg,One Edge Diff,Three Edge Four Edge,6526f601bedbae17738408b1,old
1072.0999999642372,shortestpath_phase,GW/basket.jpg,50.0,GW/hat.jpg,GW/camera.jpg,1.0,GW/camera.jpg,Two Edge Diff,Two Edge Four Edge,6526f601bedbae17738408b1,old
3111.400000035763,shortestpath_phase,GW/gong.jpg,49.0,GW/globe.jpg,GW/paint.jpg,1.0,GW/globe.jpg,Two Edge Diff,Four Edge Six Edge,6526f601bedbae17738408b1,old
3513.0,shortestpath_phase,GW/hat.jpg,50.0,GW/gong.jpg,GW/jukebox.jpg,1.0,GW/jukebox.jpg,Three Edge Diff,Three Edge Six Edge,6526f601bedbae17738408b1,old
2106.800000011921,shortestpath_phase,GW/gong.jpg,49.0,GW/snail.jpg,GW/soldier.jpg,1.0,GW/snail.jpg,Four Edge Diff,Two Edge Six Edge,6526f601bedbae17738408b1,old
4380.400000035763,shortestpath_phase,GW/soldier.jpg,49.0,GW/dustpan.jpg,GW/gong.jpg,1.0,GW/dustpan.jpg,Two Edge Diff,Four Edge Six Edge,6526f601bedbae17738408b1,old
3791.100000023842,shortestpath_phase,GW/hat.jpg,49.0,GW/gong.jpg,GW/jukebox.jpg,0.0,GW/jukebox.jpg,Three Edge Diff,Two Edge Five Edge,6526f601bedbae17738408b1,old
3581.7000000476837,shortestpath_phase,GW/snail.jpg,50.0,GW/globe.jpg,GW/hat.jpg,0.0,GW/globe.jpg,One Edge Diff,Two Edge Three Edge,6526f601bedbae17738408b1,old
3590.5,shortestpath_phase,GW/soldier.jpg,50.0,GW/dustpan.jpg,GW/jukebox.jpg,1.0,GW/jukebox.jpg,One Edge Diff,Three Edge Four Edge,6526f601bedbae17738408b1,old
2248.400000035763,shortestpath_phase,GW/wheelchair.jpg,50.0,GW/hat.jpg,GW/paint.jpg,0.0,GW/hat.jpg,Two Edge Diff,Four Edge Six Edge,6526f601bedbae17738408b1,old
4789.300000011921,shortestpath_phase,GW/paint.jpg,50.0,GW/barrel.jpg,GW/wheelchair.jpg,0.0,GW/barrel.jpg,Four Edge Diff,Two Edge Six Edge,6526f601bedbae17738408b1,old
4306.799999952316,shortestpath_phase,GW/teeth.jpg,50.0,GW/wheelchair.jpg,GW/jukebox.jpg,1.0,GW/jukebox.jpg,Three Edge Diff,Three Edge Six Edge,6526f601bedbae17738408b1,old
3768.599999964237,shortestpath_phase,GW/hat.jpg,49.0,GW/basket.jpg,GW/gong.jpg,1.0,GW/basket.jpg,One Edge Diff,Four Edge Five Edge,6526f601bedbae17738408b1,old
2877.7000000476837,shortestpath_phase,GW/paint.jpg,49.0,GW/globe.jpg,GW/dustpan.jpg,1.0,GW/globe.jpg,One Edge Diff,Three Edge Four Edge,6526f601bedbae17738408b1,old
4510.899999976158,shortestpath_phase,GW/hat.jpg,50.0,GW/gong.jpg,GW/camera.jpg,1.0,GW/camera.jpg,Three Edge Diff,Three Edge Six Edge,6526f601bedbae17738408b1,old
4847.800000011921,shortestpath_phase,GW/wheelchair.jpg,49.0,GW/gong.jpg,GW/barrel.jpg,1.0,GW/gong.jpg,One Edge Diff,Three Edge Four Edge,6526f601bedbae17738408b1,old
4512.099999964237,shortestpath_phase,GW/camera.jpg,50.0,GW/gong.jpg,GW/barrel.jpg,1.0,GW/barrel.jpg,One Edge Diff,Two Edge Three Edge,6526f601bedbae17738408b1,old
2879.0,shortestpath_phase,GW/snail.jpg,49.0,GW/paint.jpg,GW/jukebox.jpg,0.0,GW/jukebox.jpg,Three Edge Diff,Three Edge Six Edge,6526f601bedbae17738408b1,old
3540.099999964237,shortestpath_phase,GW/gong.jpg,49.0,GW/hat.jpg,GW/camera.jpg,0.0,GW/camera.jpg,Two Edge Diff,Three Edge Five Edge,6526f601bedbae17738408b1,old
5745.5,shortestpath_phase,GW/wheelchair.jpg,49.0,GW/paint.jpg,GW/barrel.jpg,0.0,GW/barrel.jpg,Two Edge Diff,Four Edge Six Edge,6526f601bedbae17738408b1,old
3898.0,shortestpath_phase,GW/dustpan.jpg,50.0,GW/snail.jpg,GW/soldier.jpg,0.0,GW/snail.jpg,Two Edge Diff,Two Edge Four Edge,6526f601bedbae17738408b1,old
4380.5,shortestpath_phase,GW/gong.jpg,50.0,GW/teeth.jpg,GW/soldier.jpg,0.0,GW/teeth.jpg,One Edge Diff,Five Edge Six Edge,6526f601bedbae17738408b1,old
4086.599999964237,shortestpath_phase,GW/soldier.jpg,49.0,GW/snail.jpg,GW/wheelchair.jpg,1.0,GW/snail.jpg,One Edge Diff,Four Edge Five Edge,6526f601bedbae17738408b1,old
3007.800000011921,shortestpath_phase,GW/teeth.jpg,49.0,GW/gong.jpg,GW/globe.jpg,0.0,GW/globe.jpg,Three Edge Diff,Three Edge Six Edge,6526f601bedbae17738408b1,old
4621.5,shortestpath_phase,GW/barrel.jpg,50.0,GW/snail.jpg,GW/wheelchair.jpg,0.0,GW/snail.jpg,One Edge Diff,Three Edge Four Edge,6526f601bedbae17738408b1,old
3400.600000023842,shortestpath_phase,GW/paint.jpg,50.0,GW/gong.jpg,GW/hat.jpg,1.0,GW/hat.jpg,Four Edge Diff,Two Edge Six Edge,6526f601bedbae17738408b1,old
3348.699999988079,shortestpath_phase,GW/soldier.jpg,50.0,GW/gong.jpg,GW/teeth.jpg,1.0,GW/teeth.jpg,Four Edge Diff,Two Edge Six Edge,6526f601bedbae17738408b1,old
2520.599999964237,shortestpath_phase,GW/dustpan.jpg,50.0,GW/teeth.jpg,GW/barrel.jpg,1.0,GW/barrel.jpg,One Edge Diff,Two Edge Three Edge,6526f601bedbae17738408b1,old
4472.200000047684,shortestpath_phase,GW/jukebox.jpg,49.0,GW/gong.jpg,GW/basket.jpg,0.0,GW/basket.jpg,One Edge Diff,Two Edge Three Edge,6526f601bedbae17738408b1,old
3712.800000011921,shortestpath_phase,GW/paint.jpg,49.0,GW/gong.jpg,GW/dustpan.jpg,0.0,GW/dustpan.jpg,Two Edge Diff,Four Edge Six Edge,6526f601bedbae17738408b1,old
2354.400000035763,shortestpath_phase,GW/wheelchair.jpg,49.0,GW/basket.jpg,GW/teeth.jpg,1.0,GW/basket.jpg,Three Edge Diff,Two Edge Five Edge,6526f601bedbae17738408b1,old
4389.0,shortestpath_phase,GW/paint.jpg,50.0,GW/basket.jpg,GW/globe.jpg,1.0,GW/globe.jpg,Two Edge Diff,Three Edge Five Edge,6526f601bedbae17738408b1,old
4149.899999976158,shortestpath_phase,GW/gong.jpg,50.0,GW/barrel.jpg,GW/paint.jpg,0.0,GW/barrel.jpg,Two Edge Diff,Four Edge Six Edge,6526f601bedbae17738408b1,old
2231.900000035763,shortestpath_phase,GW/wheelchair.jpg,49.0,GW/basket.jpg,GW/barrel.jpg,1.0,GW/basket.jpg,Two Edge Diff,Two Edge Four Edge,6526f601bedbae17738408b1,old
3929.599999964237,shortestpath_phase,GW/gong.jpg,50.0,GW/barrel.jpg,GW/hat.jpg,0.0,GW/barrel.jpg,One Edge Diff,Four Edge Five Edge,6526f601bedbae17738408b1,old
2332.100000023842,shortestpath_phase,GW/wheelchair.jpg,50.0,GW/teeth.jpg,GW/paint.jpg,0.0,GW/teeth.jpg,One Edge Diff,Five Edge Six Edge,6526f601bedbae17738408b1,old
4589.800000011921,shortestpath_phase,GW/soldier.jpg,50.0,GW/barrel.jpg,GW/basket.jpg,0.0,GW/barrel.jpg,Three Edge Diff,Two Edge Five Edge,6526f601bedbae17738408b1,old
3931.899999976158,shortestpath_phase,GW/gong.jpg,50.0,GW/soldier.jpg,GW/hat.jpg,1.0,GW/hat.jpg,One Edge Diff,Five Edge Six Edge,6526f601bedbae17738408b1,old
4659.699999988079,shortestpath_phase,GW/paint.jpg,50.0,GW/camera.jpg,GW/barrel.jpg,1.0,GW/barrel.jpg,Two Edge Diff,Two Edge Four Edge,6526f601bedbae17738408b1,old
6352.199999988079,shortestpath_phase,GW/wheelchair.jpg,49.0,GW/globe.jpg,GW/soldier.jpg,1.0,GW/globe.jpg,Two Edge Diff,Three Edge Five Edge,6526f601bedbae17738408b1,old
1704.699999988079,shortestpath_phase,GW/dustpan.jpg,49.0,GW/barrel.jpg,GW/hat.jpg,1.0,GW/barrel.jpg,One Edge Diff,Two Edge Three Edge,6526f601bedbae17738408b1,old
3526.599999964237,shortestpath_phase,GW/soldier.jpg,49.0,GW/globe.jpg,GW/wheelchair.jpg,1.0,GW/globe.jpg,Three Edge Diff,Three Edge Six Edge,6526f601bedbae17738408b1,old
3016.699999988079,shortestpath_phase,GW/snail.jpg,49.0,GW/paint.jpg,GW/hat.jpg,0.0,GW/hat.jpg,Two Edge Diff,Three Edge Five Edge,6526f601bedbae17738408b1,old
3090.300000011921,shortestpath_phase,GW/gong.jpg,49.0,GW/wheelchair.jpg,GW/barrel.jpg,1.0,GW/wheelchair.jpg,One Edge Diff,Three Edge Four Edge,6526f601bedbae17738408b1,old
,shortestpath_phase,GW/soldier.jpg,,GW/basket.jpg,GW/teeth.jpg,0.0,GW/teeth.jpg,Three Edge Diff,Two Edge Five Edge,6526f601bedbae17738408b1,old
4599.800000011921,shortestpath_phase,GW/gong.jpg,49.0,GW/barrel.jpg,GW/jukebox.jpg,0.0,GW/jukebox.jpg,One Edge Diff,Three Edge Four Edge,6526f601bedbae17738408b1,old
4143.399999976158,shortestpath_phase,GW/soldier.jpg,49.0,GW/dustpan.jpg,GW/wheelchair.jpg,1.0,GW/dustpan.jpg,One Edge Diff,Four Edge Five Edge,6526f601bedbae17738408b1,old
3630.399999976158,shortestpath_phase,GW/paint.jpg,50.0,GW/hat.jpg,GW/snail.jpg,0.0,GW/hat.jpg,Three Edge Diff,Two Edge Five Edge,6526f601bedbae17738408b1,old
2322.400000035763,shortestpath_phase,GW/gong.jpg,50.0,GW/soldier.jpg,GW/dustpan.jpg,1.0,GW/dustpan.jpg,Four Edge Diff,Two Edge Six Edge,6526f601bedbae17738408b1,old
1871.4000000357628,shortestpath_phase,GW/paint.jpg,50.0,GW/basket.jpg,GW/wheelchair.jpg,0.0,GW/basket.jpg,One Edge Diff,Five Edge Six Edge,6526f601bedbae17738408b1,old
2218.800000011921,shortestpath_phase,GW/wheelchair.jpg,50.0,GW/teeth.jpg,GW/hat.jpg,1.0,GW/hat.jpg,One Edge Diff,Four Edge Five Edge,6526f601bedbae17738408b1,old
2768.899999976158,shortestpath_phase,GW/paint.jpg,50.0,GW/dustpan.jpg,GW/wheelchair.jpg,0.0,GW/dustpan.jpg,Two Edge Diff,Four Edge Six Edge,6526f601bedbae17738408b1,old
2359.199999988079,shortestpath_phase,GW/teeth.jpg,49.0,GW/jukebox.jpg,GW/dustpan.jpg,1.0,GW/jukebox.jpg,One Edge Diff,Two Edge Three Edge,6526f601bedbae17738408b1,old
1314.199999988079,shortestpath_phase,GW/gong.jpg,49.0,GW/dustpan.jpg,GW/paint.jpg,1.0,GW/dustpan.jpg,Four Edge Diff,Two Edge Six Edge,6526f601bedbae17738408b1,old
,shortestpath_phase,,,,,0.0,,Two Edge Diff,Two Edge Four Edge,6526f601bedbae17738408b1,old
,shortestpath_phase,,,,,0.0,,One Edge Diff,Five Edge Six Edge,6526f601bedbae17738408b1,old
3359.2999999523163,shortestpath_phase,GW/jukebox.jpg,50.0,GW/hat.jpg,GW/barrel.jpg,1.0,GW/barrel.jpg,One Edge Diff,Five Edge Six Edge,66af82fe7c33867b3ed6efcb,young
2549.0,shortestpath_phase,GW/hat.jpg,50.0,GW/basket.jpg,GW/teeth.jpg,1.0,GW/teeth.jpg,Four Edge Diff,Two Edge Six Edge,66af82fe7c33867b3ed6efcb,young
2535.6999999284744,shortestpath_phase,GW/dustpan.jpg,50.0,GW/basket.jpg,GW/barrel.jpg,1.0,GW/barrel.jpg,One Edge Diff,Two Edge Three Edge,66af82fe7c33867b3ed6efcb,young
2423.899999976158,shortestpath_phase,GW/camera.jpg,49.0,GW/hat.jpg,GW/basket.jpg,0.0,GW/basket.jpg,Two Edge Diff,Two Edge Four Edge,66af82fe7c33867b3ed6efcb,young
2522.7999999523163,shortestpath_phase,GW/soldier.jpg,49.0,GW/globe.jpg,GW/barrel.jpg,0.0,GW/barrel.jpg,One Edge Diff,Two Edge Three Edge,66af82fe7c33867b3ed6efcb,young
2104.2999999523163,shortestpath_phase,GW/jukebox.jpg,49.0,GW/camera.jpg,GW/hat.jpg,1.0,GW/camera.jpg,Four Edge Diff,Two Edge Six Edge,66af82fe7c33867b3ed6efcb,young
2420.7999999523163,shortestpath_phase,GW/globe.jpg,49.0,GW/basket.jpg,GW/teeth.jpg,1.0,GW/basket.jpg,One Edge Diff,Two Edge Three Edge,66af82fe7c33867b3ed6efcb,young
