rt,responses,trial_type,time_elapsed,stimulus,button_pressed,key_press,name_trial,city_type,rating,probe,probe_accuracy,response,correct,accuracy,problems,smooth,distraction,strategies,familiar,memorable,unique,realistic,similar,comments
31647.79999999702,{worker_id:67f2abed76be6970ae502982},id_enter,31652,,,,,,,,,,,,,,,,,,,,,
11756.20000000298,,fullscreen,43414,fullscreen,0,,,,,,,,,,,,,,,,,,,
2239.7999999970198,,intro_0,45657,instruct,,32,,,,,,,,,,,,,,,,,,
9241.10000000894,,intro_1,54901,instruct,,32,,,,,,,,,,,,,,,,,,
13015.5,,intro_2,67919,instruct,,32,,,,,,,,,,,,,,,,,,
null,,instruct_dir_4,69430,instruct,,null,,,,,,,,,,,,,,,,,,
null,,thebreak,69934,break,,null,,,,,,,,,,,,,,,,,,
110042,,familiar_rating,179979,East Ladera,,51,East Ladera,Fictional,3,,,,,,,,,,,,,,,
null,,confidence_buffer,180088,confidence_buffer,,null,,,,,,,,,,,,,,,,,,
13042.29999999702,,unique_rating,193133,East Ladera,,52,,,4,,,,,,,,,,,,,,,
null,,confidence_buffer,193241,confidence_buffer,,null,,,,,,,,,,,,,,,,,,
4760.300000011921,,memorable_rating,198004,East Ladera,,52,,,4,,,,,,,,,,,,,,,
null,,confidence_buffer,198109,confidence_buffer,,null,,,,,,,,,,,,,,,,,,
null,,thebreak,198628,break,,null,,,,,,,,,,,,,,,,,,
31851,,familiar_rating,230481,Hawthorne Bluffs,,52,Hawthorne Bluffs,Fictional,4,,,,,,,,,,,,,,,
null,,confidence_buffer,230586,confidence_buffer,,null,,,,,,,,,,,,,,,,,,
3012.2000000029802,,unique_rating,233601,Hawthorne Bluffs,,51,,,3,,,,,,,,,,,,,,,
null,,confidence_buffer,233708,confidence_buffer,,null,,,,,,,,,,,,,,,,,,
2004.3999999910593,,memorable_rating,235714,Hawthorne Bluffs,,52,,,4,,,,,,,,,,,,,,,
null,,confidence_buffer,235833,confidence_buffer,,null,,,,,,,,,,,,,,,,,,
null,,thebreak,236339,break,,null,,,,,,,,,,,,,,,,,,
25097.5,,familiar_rating,261439,Racine,,53,Racine,US,5,,,,,,,,,,,,,,,
null,,confidence_buffer,261543,confidence_buffer,,null,,,,,,,,,,,,,,,,,,
1906.8999999910593,,unique_rating,263452,Racine,,53,,,5,,,,,,,,,,,,,,,
null,,confidence_buffer,263562,confidence_buffer,,null,,,,,,,,,,,,,,,,,,
3462.199999988079,,probe_rating,267027,probe_rating,,52,,,,4,1,,,,,,,,,,,,,
null,,confidence_buffer,267137,confidence_buffer,,null,,,,,,,,,,,,,,,,,,
3573.9000000059605,,memorable_rating,270713,Racine,,53,,,5,,,,,,,,,,,,,,,
null,,confidence_buffer,270817,confidence_buffer,,null,,,,,,,,,,,,,,,,,,
null,,thebreak,271327,break,,null,,,,,,,,,,,,,,,,,,
3333.2999999970198,,familiar_rating,274662,Shreveport,,52,Shreveport,US,4,,,,,,,,,,,,,,,
null,,confidence_buffer,274767,confidence_buffer,,null,,,,,,,,,,,,,,,,,,
2291.300000011921,,unique_rating,277061,Shreveport,,52,,,4,,,,,,,,,,,,,,,
null,,confidence_buffer,277176,confidence_buffer,,null,,,,,,,,,,,,,,,,,,
3326.5,,probe_rating,280505,probe_rating,,53,,,,5,1,,,,,,,,,,,,,
null,,confidence_buffer,280614,confidence_buffer,,null,,,,,,,,,,,,,,,,,,
3078.4000000059605,,memorable_rating,283694,Shreveport,,50,,,2,,,,,,,,,,,,,,,
null,,confidence_buffer,283809,confidence_buffer,,null,,,,,,,,,,,,,,,,,,
null,,thebreak,284313,break,,null,,,,,,,,,,,,,,,,,,
4463.5999999940395,,familiar_rating,288778,Hilo,,51,Hilo,US,3,,,,,,,,,,,,,,,
null,,confidence_buffer,288893,confidence_buffer,,null,,,,,,,,,,,,,,,,,,
2050,,unique_rating,290945,Hilo,,52,,,4,,,,,,,,,,,,,,,
null,,confidence_buffer,291049,confidence_buffer,,null,,,,,,,,,,,,,,,,,,
1969.5,,memorable_rating,293020,Hilo,,51,,,3,,,,,,,,,,,,,,,
null,,confidence_buffer,293131,confidence_buffer,,null,,,,,,,,,,,,,,,,,,
null,,thebreak,293653,break,,null,,,,,,,,,,,,,,,,,,
2908.1000000089407,,familiar_rating,296563,North Arroya,,52,North Arroya,Fictional,4,,,,,,,,,,,,,,,
null,,confidence_buffer,296672,confidence_buffer,,null,,,,,,,,,,,,,,,,,,
1417.5,,unique_rating,298092,North Arroya,,51,,,3,,,,,,,,,,,,,,,
null,,confidence_buffer,298197,confidence_buffer,,null,,,,,,,,,,,,,,,,,,
1047.7999999970198,,memorable_rating,299247,North Arroya,,50,,,2,,,,,,,,,,,,,,,
null,,confidence_buffer,299356,confidence_buffer,,null,,,,,,,,,,,,,,,,,,
null,,thebreak,299869,break,,null,,,,,,,,,,,,,,,,,,
4499.600000008941,,familiar_rating,304372,Northbridge,,52,Northbridge,Fictional,4,,,,,,,,,,,,,,,
null,,confidence_buffer,304487,confidence_buffer,,null,,,,,,,,,,,,,,,,,,
1653.0999999940395,,unique_rating,306142,Northbridge,,52,,,4,,,,,,,,,,,,,,,
null,,confidence_buffer,306259,confidence_buffer,,null,,,,,,,,,,,,,,,,,,
2381.5,,memorable_rating,308643,Northbridge,,51,,,3,,,,,,,,,,,,,,,
null,,confidence_buffer,308752,confidence_buffer,,null,,,,,,,,,,,,,,,,,,
null,,thebreak,309257,break,,null,,,,,,,,,,,,,,,,,,
32666.09999999404,,familiar_rating,341925,Cape May,,52,Cape May,US,4,,,,,,,,,,,,,,,
null,,confidence_buffer,342028,confidence_buffer,,null,,,,,,,,,,,,,,,,,,
2789.7999999970198,,unique_rating,344820,Cape May,,51,,,3,,,,,,,,,,,,,,,
null,,confidence_buffer,344930,confidence_buffer,,null,,,,,,,,,,,,,,,,,,
1598.5,,memorable_rating,346530,Cape May,,52,,,4,,,,,,,,,,,,,,,
null,,confidence_buffer,346640,confidence_buffer,,null,,,,,,,,,,,,,,,,,,
null,,thebreak,347149,break,,null,,,,,,,,,,,,,,,,,,
2557.2999999970198,,familiar_rating,349709,Ashford Hills,,50,Ashford Hills,Fictional,2,,,,,,,,,,,,,,,
null,,confidence_buffer,349819,confidence_buffer,,null,,,,,,,,,,,,,,,,,,
1599.6000000089407,,unique_rating,351420,Ashford Hills,,51,,,3,,,,,,,,,,,,,,,
null,,confidence_buffer,351530,confidence_buffer,,null,,,,,,,,,,,,,,,,,,
1285.300000011921,,memorable_rating,352817,Ashford Hills,,50,,,2,,,,,,,,,,,,,,,
null,,confidence_buffer,352929,confidence_buffer,,null,,,,,,,,,,,,,,,,,,
null,,thebreak,353447,break,,null,,,,,,,,,,,,,,,,,,
4165,,familiar_rating,357615,Sisters,,52,Sisters,US,4,,,,,,,,,,,,,,,
null,,confidence_buffer,357726,confidence_buffer,,null,,,,,,,,,,,,,,,,,,
1699.7999999970198,,unique_rating,359428,Sisters,,52,,,4,,,,,,,,,,,,,,,
null,,confidence_buffer,359535,confidence_buffer,,null,,,,,,,,,,,,,,,,,,
1135.0999999940395,,memorable_rating,360673,Sisters,,51,,,3,,,,,,,,,,,,,,,
null,,confidence_buffer,360782,confidence_buffer,,null,,,,,,,,,,,,,,,,,,
null,,thebreak,361286,break,,null,,,,,,,,,,,,,,,,,,
2511.7000000029802,,familiar_rating,363800,Athens,,53,Athens,US,5,,,,,,,,,,,,,,,
null,,confidence_buffer,363903,confidence_buffer,,null,,,,,,,,,,,,,,,,,,
1929.5999999940395,,unique_rating,365835,Athens,,53,,,5,,,,,,,,,,,,,,,
null,,confidence_buffer,365946,confidence_buffer,,null,,,,,,,,,,,,,,,,,,
1669.7999999970198,,memorable_rating,367618,Athens,,53,,,5,,,,,,,,,,,,,,,
null,,confidence_buffer,367723,confidence_buffer,,null,,,,,,,,,,,,,,,,,,
2251.0999999940395,,probe_rating,369977,probe_rating,,50,,,,2,1,,,,,,,,,,,,,
null,,confidence_buffer,370080,confidence_buffer,,null,,,,,,,,,,,,,,,,,,
null,,thebreak,370589,break,,null,,,,,,,,,,,,,,,,,,
2361.7000000029802,,familiar_rating,372954,Driftwood Bay,,51,Driftwood Bay,Fictional,3,,,,,,,,,,,,,,,
null,,confidence_buffer,373058,confidence_buffer,,null,,,,,,,,,,,,,,,,,,
1492.800000011921,,unique_rating,374553,Driftwood Bay,,50,,,2,,,,,,,,,,,,,,,
null,,confidence_buffer,374658,confidence_buffer,,null,,,,,,,,,,,,,,,,,,
1066.5,,memorable_rating,375726,Driftwood Bay,,52,,,4,,,,,,,,,,,,,,,
null,,confidence_buffer,375831,confidence_buffer,,null,,,,,,,,,,,,,,,,,,
null,,thebreak,376342,break,,null,,,,,,,,,,,,,,,,,,
3532.2999999970198,,familiar_rating,379877,West Talora,,50,West Talora,Fictional,2,,,,,,,,,,,,,,,
null,,confidence_buffer,379985,confidence_buffer,,null,,,,,,,,,,,,,,,,,,
1549.4000000059605,,unique_rating,381536,West Talora,,50,,,2,,,,,,,,,,,,,,,
null,,confidence_buffer,381643,confidence_buffer,,null,,,,,,,,,,,,,,,,,,
1490.5,,memorable_rating,383136,West Talora,,51,,,3,,,,,,,,,,,,,,,
null,,confidence_buffer,383242,confidence_buffer,,null,,,,,,,,,,,,,,,,,,
null,,thebreak,383757,break,,null,,,,,,,,,,,,,,,,,,
1513.0999999940395,,familiar_rating,385272,Bisbee,,49,Bisbee,US,1,,,,,,,,,,,,,,,
null,,confidence_buffer,385378,confidence_buffer,,null,,,,,,,,,,,,,,,,,,
3566.4000000059605,,unique_rating,388947,Bisbee,,50,,,2,,,,,,,,,,,,,,,
null,,confidence_buffer,389051,confidence_buffer,,null,,,,,,,,,,,,,,,,,,
1655.2999999970198,,probe_rating,390709,probe_rating,,52,,,,4,1,,,,,,,,,,,,,
null,,confidence_buffer,390819,confidence_buffer,,null,,,,,,,,,,,,,,,,,,
2112.5999999940395,,memorable_rating,392934,Bisbee,,50,,,2,,,,,,,,,,,,,,,
null,,confidence_buffer,393044,confidence_buffer,,null,,,,,,,,,,,,,,,,,,
null,,thebreak,393546,break,,null,,,,,,,,,,,,,,,,,,
2281.0999999940395,,familiar_rating,395830,Claywater,,51,Claywater,Fictional,3,,,,,,,,,,,,,,,
null,,confidence_buffer,395936,confidence_buffer,,null,,,,,,,,,,,,,,,,,,
1195.9000000059605,,unique_rating,397134,Claywater,,51,,,3,,,,,,,,,,,,,,,
null,,confidence_buffer,397237,confidence_buffer,,null,,,,,,,,,,,,,,,,,,
1361.2999999970198,,probe_rating,398601,probe_rating,,52,,,,4,1,,,,,,,,,,,,,
null,,confidence_buffer,398709,confidence_buffer,,null,,,,,,,,,,,,,,,,,,
1449.2999999970198,,memorable_rating,400161,Claywater,,50,,,2,,,,,,,,,,,,,,,
null,,confidence_buffer,400268,confidence_buffer,,null,,,,,,,,,,,,,,,,,,
null,,thebreak,400784,break,,null,,,,,,,,,,,,,,,,,,
1500.300000011921,,familiar_rating,402286,Cedarwyn,,52,Cedarwyn,Fictional,4,,,,,,,,,,,,,,,
null,,confidence_buffer,402387,confidence_buffer,,null,,,,,,,,,,,,,,,,,,
1517.199999988079,,unique_rating,403906,Cedarwyn,,52,,,4,,,,,,,,,,,,,,,
null,,confidence_buffer,404019,confidence_buffer,,null,,,,,,,,,,,,,,,,,,
875.6000000089407,,memorable_rating,404897,Cedarwyn,,52,,,4,,,,,,,,,,,,,,,
null,,confidence_buffer,405005,confidence_buffer,,null,,,,,,,,,,,,,,,,,,
null,,thebreak,405522,break,,null,,,,,,,,,,,,,,,,,,
2499.7999999970198,,familiar_rating,408025,Oakridge,,53,Oakridge,Fictional,5,,,,,,,,,,,,,,,
null,,confidence_buffer,408134,confidence_buffer,,null,,,,,,,,,,,,,,,,,,
1588.7999999970198,,unique_rating,409725,Oakridge,,53,,,5,,,,,,,,,,,,,,,
null,,confidence_buffer,409836,confidence_buffer,,null,,,,,,,,,,,,,,,,,,
1233.4000000059605,,memorable_rating,411072,Oakridge,,53,,,5,,,,,,,,,,,,,,,
null,,confidence_buffer,411176,confidence_buffer,,null,,,,,,,,,,,,,,,,,,
null,,thebreak,411681,break,,null,,,,,,,,,,,,,,,,,,
2069.7999999970198,,familiar_rating,413753,Bowling Green,,50,Bowling Green,US,2,,,,,,,,,,,,,,,
null,,confidence_buffer,413864,confidence_buffer,,null,,,,,,,,,,,,,,,,,,
1498.2000000029802,,unique_rating,415365,Bowling Green,,50,,,2,,,,,,,,,,,,,,,
null,,confidence_buffer,415481,confidence_buffer,,null,,,,,,,,,,,,,,,,,,
1105.300000011921,,memorable_rating,416589,Bowling Green,,51,,,3,,,,,,,,,,,,,,,
null,,confidence_buffer,416692,confidence_buffer,,null,,,,,,,,,,,,,,,,,,
null,,thebreak,417197,break,,null,,,,,,,,,,,,,,,,,,
2082.1000000089407,,familiar_rating,419281,Delaware City,,51,Delaware City,US,3,,,,,,,,,,,,,,,
null,,confidence_buffer,419388,confidence_buffer,,null,,,,,,,,,,,,,,,,,,
1348.1000000089407,,unique_rating,420738,Delaware City,,51,,,3,,,,,,,,,,,,,,,
null,,confidence_buffer,420856,confidence_buffer,,null,,,,,,,,,,,,,,,,,,
1106.1000000089407,,memorable_rating,421964,Delaware City,,50,,,2,,,,,,,,,,,,,,,
null,,confidence_buffer,422076,confidence_buffer,,null,,,,,,,,,,,,,,,,,,
null,,thebreak,422584,break,,null,,,,,,,,,,,,,,,,,,
2120,,familiar_rating,424707,Lake of the Ozarks,,53,Lake of the Ozarks,US,5,,,,,,,,,,,,,,,
null,,confidence_buffer,424812,confidence_buffer,,null,,,,,,,,,,,,,,,,,,
1147.5,,unique_rating,425962,Lake of the Ozarks,,53,,,5,,,,,,,,,,,,,,,
null,,confidence_buffer,426070,confidence_buffer,,null,,,,,,,,,,,,,,,,,,
1063.2000000029802,,memorable_rating,427136,Lake of the Ozarks,,53,,,5,,,,,,,,,,,,,,,
null,,confidence_buffer,427243,confidence_buffer,,null,,,,,,,,,,,,,,,,,,
null,,thebreak,427750,break,,null,,,,,,,,,,,,,,,,,,
2034.699999988079,,familiar_rating,429788,Lakehaven,,51,Lakehaven,Fictional,3,,,,,,,,,,,,,,,
null,,confidence_buffer,429893,confidence_buffer,,null,,,,,,,,,,,,,,,,,,
1684.7999999970198,,unique_rating,431580,Lakehaven,,51,,,3,,,,,,,,,,,,,,,
null,,confidence_buffer,431688,confidence_buffer,,null,,,,,,,,,,,,,,,,,,
1245.5999999940395,,memorable_rating,432937,Lakehaven,,51,,,3,,,,,,,,,,,,,,,
null,,confidence_buffer,433045,confidence_buffer,,null,,,,,,,,,,,,,,,,,,
null,,thebreak,433557,break,,null,,,,,,,,,,,,,,,,,,
2567.3999999910593,,familiar_rating,436127,Maplehurst,,50,Maplehurst,Fictional,2,,,,,,,,,,,,,,,
null,,confidence_buffer,436234,confidence_buffer,,null,,,,,,,,,,,,,,,,,,
1186.2000000029802,,unique_rating,437423,Maplehurst,,51,,,3,,,,,,,,,,,,,,,
null,,confidence_buffer,437541,confidence_buffer,,null,,,,,,,,,,,,,,,,,,
1226.5999999940395,,memorable_rating,438769,Maplehurst,,50,,,2,,,,,,,,,,,,,,,
null,,confidence_buffer,438876,confidence_buffer,,null,,,,,,,,,,,,,,,,,,
null,,thebreak,439383,break,,null,,,,,,,,,,,,,,,,,,
1459.6000000089407,,familiar_rating,440844,Alliance,,49,Alliance,US,1,,,,,,,,,,,,,,,
null,,confidence_buffer,440955,confidence_buffer,,null,,,,,,,,,,,,,,,,,,
2165.9000000059605,,unique_rating,443123,Alliance,,49,,,1,,,,,,,,,,,,,,,
null,,confidence_buffer,443234,confidence_buffer,,null,,,,,,,,,,,,,,,,,,
1171.3999999910593,,memorable_rating,444408,Alliance,,49,,,1,,,,,,,,,,,,,,,
null,,confidence_buffer,444521,confidence_buffer,,null,,,,,,,,,,,,,,,,,,
1647.2000000029802,,probe_rating,446171,probe_rating,,52,,,,4,1,,,,,,,,,,,,,
null,,confidence_buffer,446282,confidence_buffer,,null,,,,,,,,,,,,,,,,,,
null,,thebreak,446796,break,,null,,,,,,,,,,,,,,,,,,
1851.9000000059605,,familiar_rating,448650,Watkins Glen,,51,Watkins Glen,US,3,,,,,,,,,,,,,,,
null,,confidence_buffer,448763,confidence_buffer,,null,,,,,,,,,,,,,,,,,,
774.5999999940395,,unique_rating,449539,Watkins Glen,,51,,,3,,,,,,,,,,,,,,,
null,,confidence_buffer,449645,confidence_buffer,,null,,,,,,,,,,,,,,,,,,
1431.0999999940395,,memorable_rating,451078,Watkins Glen,,51,,,3,,,,,,,,,,,,,,,
null,,confidence_buffer,451186,confidence_buffer,,null,,,,,,,,,,,,,,,,,,
null,,thebreak,451694,break,,null,,,,,,,,,,,,,,,,,,
1812,,familiar_rating,453507,Cornwall,,50,Cornwall,US,2,,,,,,,,,,,,,,,
null,,confidence_buffer,453612,confidence_buffer,,null,,,,,,,,,,,,,,,,,,
1240.0999999940395,,unique_rating,454855,Cornwall,,50,,,2,,,,,,,,,,,,,,,
null,,confidence_buffer,454961,confidence_buffer,,null,,,,,,,,,,,,,,,,,,
1074.7000000029802,,memorable_rating,456038,Cornwall,,50,,,2,,,,,,,,,,,,,,,
null,,confidence_buffer,456143,confidence_buffer,,null,,,,,,,,,,,,,,,,,,
null,,thebreak,456656,break,,null,,,,,,,,,,,,,,,,,,
2234.3999999910593,,familiar_rating,458893,Brookmere,,50,Brookmere,Fictional,2,,,,,,,,,,,,,,,
null,,confidence_buffer,458998,confidence_buffer,,null,,,,,,,,,,,,,,,,,,
2020.5,,unique_rating,461021,Brookmere,,50,,,2,,,,,,,,,,,,,,,
null,,confidence_buffer,461129,confidence_buffer,,null,,,,,,,,,,,,,,,,,,
486.8999999910593,,memorable_rating,461618,Brookmere,,50,,,2,,,,,,,,,,,,,,,
null,,confidence_buffer,461733,confidence_buffer,,null,,,,,,,,,,,,,,,,,,
null,,thebreak,462248,break,,null,,,,,,,,,,,,,,,,,,
2436.199999988079,,familiar_rating,464686,San Antonio,,52,San Antonio,US,4,,,,,,,,,,,,,,,
null,,confidence_buffer,464795,confidence_buffer,,null,,,,,,,,,,,,,,,,,,
1315.2999999970198,,unique_rating,466113,San Antonio,,52,,,4,,,,,,,,,,,,,,,
null,,confidence_buffer,466223,confidence_buffer,,null,,,,,,,,,,,,,,,,,,
1478.2000000029802,,memorable_rating,467704,San Antonio,,52,,,4,,,,,,,,,,,,,,,
null,,confidence_buffer,467806,confidence_buffer,,null,,,,,,,,,,,,,,,,,,
null,,thebreak,468316,break,,null,,,,,,,,,,,,,,,,,,
2119.2000000029802,,familiar_rating,470438,Bayshore Haven,,51,Bayshore Haven,Fictional,3,,,,,,,,,,,,,,,
null,,confidence_buffer,470548,confidence_buffer,,null,,,,,,,,,,,,,,,,,,
1871.7000000029802,,unique_rating,472423,Bayshore Haven,,52,,,4,,,,,,,,,,,,,,,
null,,confidence_buffer,472532,confidence_buffer,,null,,,,,,,,,,,,,,,,,,
1274.4000000059605,,memorable_rating,473809,Bayshore Haven,,51,,,3,,,,,,,,,,,,,,,
null,,confidence_buffer,473917,confidence_buffer,,null,,,,,,,,,,,,,,,,,,
null,,thebreak,474427,break,,null,,,,,,,,,,,,,,,,,,
3093.9000000059605,,familiar_rating,477524,Okoboji,,50,Okoboji,US,2,,,,,,,,,,,,,,,
null,,confidence_buffer,477626,confidence_buffer,,null,,,,,,,,,,,,,,,,,,
1485.0999999940395,,unique_rating,479113,Okoboji,,50,,,2,,,,,,,,,,,,,,,
null,,confidence_buffer,479222,confidence_buffer,,null,,,,,,,,,,,,,,,,,,
900.2000000029802,,memorable_rating,480125,Okoboji,,50,,,2,,,,,,,,,,,,,,,
null,,confidence_buffer,480236,confidence_buffer,,null,,,,,,,,,,,,,,,,,,
null,,thebreak,480742,break,,null,,,,,,,,,,,,,,,,,,
1506.9000000059605,,familiar_rating,482251,Stonebrook,,52,Stonebrook,Fictional,4,,,,,,,,,,,,,,,
null,,confidence_buffer,482363,confidence_buffer,,null,,,,,,,,,,,,,,,,,,
1485.7999999970198,,unique_rating,483850,Stonebrook,,50,,,2,,,,,,,,,,,,,,,
null,,confidence_buffer,483961,confidence_buffer,,null,,,,,,,,,,,,,,,,,,
1750.8999999910593,,memorable_rating,485714,Stonebrook,,52,,,4,,,,,,,,,,,,,,,
null,,confidence_buffer,485823,confidence_buffer,,null,,,,,,,,,,,,,,,,,,
null,,thebreak,486327,break,,null,,,,,,,,,,,,,,,,,,
10662,,intro_0,496991,instruct,,32,,,,,,,,,,,,,,,,,,
24942.09999999404,,intro_1,521935,instruct,,32,,,,,,,,,,,,,,,,,,
10696.89999999106,,intro_2,532634,instruct,,32,,,,,,,,,,,,,,,,,,
null,,instruct_dir_4,534143,instruct,,null,,,,,,,,,,,,,,,,,,
46772.29999999702,,realistic_rating,580918,Golden Trace,,49,Golden Trace,Fictional,1,,,,,,,,,,,,,,,
null,,confidence_buffer,581036,confidence_buffer,,null,,,,,,,,,,,,,,,,,,
2064.5,,pt2_unique_rating,583103,Golden Trace,,49,,,1,,,,,,,,,,,,,,,
null,,confidence_buffer,583215,confidence_buffer,,null,,,,,,,,,,,,,,,,,,
1599,,pt2_memorable_rating,584815,Golden Trace,,49,,,1,,,,,,,,,,,,,,,
null,,confidence_buffer,584933,confidence_buffer,,null,,,,,,,,,,,,,,,,,,
4614.29999999702,,recognition_phase,589551,Golden Trace,,52,,,,,,new,1,1,,,,,,,,,,
null,,confidence_buffer,589662,confidence_buffer,,null,,,,,,,,,,,,,,,,,,
null,,thebreak,590172,break,,null,,,,,,,,,,,,,,,,,,
46448.70000000298,,realistic_rating,636623,Bayshore Haven,,53,Bayshore Haven,Fictional,5,,,,,,,,,,,,,,,
null,,confidence_buffer,636729,confidence_buffer,,null,,,,,,,,,,,,,,,,,,
2118.7999999970198,,pt2_unique_rating,638850,Bayshore Haven,,53,,,5,,,,,,,,,,,,,,,
null,,confidence_buffer,638957,confidence_buffer,,null,,,,,,,,,,,,,,,,,,
2065.5,,pt2_memorable_rating,641025,Bayshore Haven,,53,,,5,,,,,,,,,,,,,,,
null,,confidence_buffer,641136,confidence_buffer,,null,,,,,,,,,,,,,,,,,,
1506.4000000059605,,recognition_phase,642644,Bayshore Haven,,49,,,,,,old,1,1,,,,,,,,,,
null,,confidence_buffer,642757,confidence_buffer,,null,,,,,,,,,,,,,,,,,,
null,,thebreak,643273,break,,null,,,,,,,,,,,,,,,,,,
15419.40000000596,,realistic_rating,658695,Medora,,53,Medora,US,5,,,,,,,,,,,,,,,
null,,confidence_buffer,658806,confidence_buffer,,null,,,,,,,,,,,,,,,,,,
2398.4000000059605,,pt2_unique_rating,661206,Medora,,51,,,3,,,,,,,,,,,,,,,
null,,confidence_buffer,661322,confidence_buffer,,null,,,,,,,,,,,,,,,,,,
559,,pt2_memorable_rating,661883,Medora,,51,,,3,,,,,,,,,,,,,,,
null,,confidence_buffer,661988,confidence_buffer,,null,,,,,,,,,,,,,,,,,,
1381.0999999940395,,recognition_phase,663371,Medora,,49,,,,,,old,0,0.6666666666666666,,,,,,,,,,
null,,confidence_buffer,663475,confidence_buffer,,null,,,,,,,,,,,,,,,,,,
null,,thebreak,663983,break,,null,,,,,,,,,,,,,,,,,,
30652,,realistic_rating,694637,Sierra Hollow,,49,Sierra Hollow,Fictional,1,,,,,,,,,,,,,,,
null,,confidence_buffer,694749,confidence_buffer,,null,,,,,,,,,,,,,,,,,,
1292.5,,pt2_unique_rating,696044,Sierra Hollow,,49,,,1,,,,,,,,,,,,,,,
null,,confidence_buffer,696150,confidence_buffer,,null,,,,,,,,,,,,,,,,,,
550.4000000059605,,pt2_memorable_rating,696703,Sierra Hollow,,49,,,1,,,,,,,,,,,,,,,
null,,confidence_buffer,696806,confidence_buffer,,null,,,,,,,,,,,,,,,,,,
1928.0999999940395,,recognition_phase,698737,Sierra Hollow,,52,,,,,,new,1,0.75,,,,,,,,,,
null,,confidence_buffer,698842,confidence_buffer,,null,,,,,,,,,,,,,,,,,,
null,,thebreak,699353,break,,null,,,,,,,,,,,,,,,,,,
36999.20000000298,,realistic_rating,736354,Stonebrook,,52,Stonebrook,Fictional,4,,,,,,,,,,,,,,,
null,,confidence_buffer,736473,confidence_buffer,,null,,,,,,,,,,,,,,,,,,
859.8999999910593,,pt2_unique_rating,737335,Stonebrook,,52,,,4,,,,,,,,,,,,,,,
null,,confidence_buffer,737450,confidence_buffer,,null,,,,,,,,,,,,,,,,,,
803.0999999940395,,pt2_memorable_rating,738256,Stonebrook,,52,,,4,,,,,,,,,,,,,,,
null,,confidence_buffer,738372,confidence_buffer,,null,,,,,,,,,,,,,,,,,,
1551.1000000089407,,recognition_phase,739925,Stonebrook,,49,,,,,,old,1,0.8,,,,,,,,,,
null,,confidence_buffer,740043,confidence_buffer,,null,,,,,,,,,,,,,,,,,,
null,,thebreak,740551,break,,null,,,,,,,,,,,,,,,,,,
22719.59999999404,,realistic_rating,763273,Gardnerville,,53,Gardnerville,US,5,,,,,,,,,,,,,,,
null,,confidence_buffer,763383,confidence_buffer,,null,,,,,,,,,,,,,,,,,,
806.3999999910593,,pt2_unique_rating,764192,Gardnerville,,53,,,5,,,,,,,,,,,,,,,
null,,confidence_buffer,764297,confidence_buffer,,null,,,,,,,,,,,,,,,,,,
893.9000000059605,,pt2_memorable_rating,765193,Gardnerville,,53,,,5,,,,,,,,,,,,,,,
null,,confidence_buffer,765298,confidence_buffer,,null,,,,,,,,,,,,,,,,,,
1999.9000000059605,,recognition_phase,767300,Gardnerville,,49,,,,,,old,0,0.6666666666666666,,,,,,,,,,
null,,confidence_buffer,767406,confidence_buffer,,null,,,,,,,,,,,,,,,,,,
null,,thebreak,767919,break,,null,,,,,,,,,,,,,,,,,,
3261.7000000029802,,realistic_rating,771184,Oakridge,,53,Oakridge,Fictional,5,,,,,,,,,,,,,,,
null,,confidence_buffer,771300,confidence_buffer,,null,,,,,,,,,,,,,,,,,,
510.40000000596046,,pt2_unique_rating,771812,Oakridge,,53,,,5,,,,,,,,,,,,,,,
null,,confidence_buffer,771919,confidence_buffer,,null,,,,,,,,,,,,,,,,,,
305.59999999403954,,pt2_memorable_rating,772227,Oakridge,,53,,,5,,,,,,,,,,,,,,,
null,,confidence_buffer,772330,confidence_buffer,,null,,,,,,,,,,,,,,,,,,
2464.300000011921,,recognition_phase,774797,Oakridge,,49,,,,,,old,1,0.7142857142857143,,,,,,,,,,
null,,confidence_buffer,774912,confidence_buffer,,null,,,,,,,,,,,,,,,,,,
null,,thebreak,775416,break,,null,,,,,,,,,,,,,,,,,,
19959.79999999702,,realistic_rating,795378,Cedarwyn,,53,Cedarwyn,Fictional,5,,,,,,,,,,,,,,,
null,,confidence_buffer,795496,confidence_buffer,,null,,,,,,,,,,,,,,,,,,
921.6000000089407,,pt2_unique_rating,796420,Cedarwyn,,53,,,5,,,,,,,,,,,,,,,
null,,confidence_buffer,796527,confidence_buffer,,null,,,,,,,,,,,,,,,,,,
590.3999999910593,,pt2_memorable_rating,797119,Cedarwyn,,53,,,5,,,,,,,,,,,,,,,
null,,confidence_buffer,797229,confidence_buffer,,null,,,,,,,,,,,,,,,,,,
1180.9000000059605,,recognition_phase,798413,Cedarwyn,,49,,,,,,old,1,0.75,,,,,,,,,,
null,,confidence_buffer,798520,confidence_buffer,,null,,,,,,,,,,,,,,,,,,
null,,thebreak,799036,break,,null,,,,,,,,,,,,,,,,,,
28772.80000001192,,realistic_rating,827811,Solara Glen,,52,Solara Glen,Fictional,4,,,,,,,,,,,,,,,
null,,confidence_buffer,827921,confidence_buffer,,null,,,,,,,,,,,,,,,,,,
268.6000000089407,,probe_rating,828193,probe_rating,,52,,,,4,0,,,,,,,,,,,,,
null,,confidence_buffer,828295,confidence_buffer,,null,,,,,,,,,,,,,,,,,,
1351.7000000029802,,pt2_unique_rating,829649,Solara Glen,,52,,,4,,,,,,,,,,,,,,,
null,,confidence_buffer,829753,confidence_buffer,,null,,,,,,,,,,,,,,,,,,
1441.7999999970198,,pt2_memorable_rating,831198,Solara Glen,,52,,,4,,,,,,,,,,,,,,,
null,,confidence_buffer,831304,confidence_buffer,,null,,,,,,,,,,,,,,,,,,
4981.70000000298,,recognition_phase,836288,Solara Glen,,52,,,,,,new,1,0.7777777777777778,,,,,,,,,,
null,,confidence_buffer,836393,confidence_buffer,,null,,,,,,,,,,,,,,,,,,
null,,thebreak,836895,break,,null,,,,,,,,,,,,,,,,,,
3427.7000000029802,,realistic_rating,840325,New Hope,,49,New Hope,US,1,,,,,,,,,,,,,,,
null,,confidence_buffer,840428,confidence_buffer,,null,,,,,,,,,,,,,,,,,,
1343.6000000089407,,pt2_unique_rating,841774,New Hope,,50,,,2,,,,,,,,,,,,,,,
null,,confidence_buffer,841888,confidence_buffer,,null,,,,,,,,,,,,,,,,,,
367.79999999701977,,pt2_memorable_rating,842258,New Hope,,49,,,1,,,,,,,,,,,,,,,
null,,confidence_buffer,842368,confidence_buffer,,null,,,,,,,,,,,,,,,,,,
2146.7000000029802,,recognition_phase,844517,New Hope,,52,,,,,,new,1,0.8,,,,,,,,,,
null,,confidence_buffer,844625,confidence_buffer,,null,,,,,,,,,,,,,,,,,,
null,,thebreak,845127,break,,null,,,,,,,,,,,,,,,,,,
3465.7999999970198,,realistic_rating,848595,Okoboji,,53,Okoboji,US,5,,,,,,,,,,,,,,,
null,,confidence_buffer,848704,confidence_buffer,,null,,,,,,,,,,,,,,,,,,
1011,,pt2_unique_rating,849717,Okoboji,,53,,,5,,,,,,,,,,,,,,,
null,,confidence_buffer,849831,confidence_buffer,,null,,,,,,,,,,,,,,,,,,
1798.0999999940395,,probe_rating,851632,probe_rating,,53,,,,5,1,,,,,,,,,,,,,
null,,confidence_buffer,851742,confidence_buffer,,null,,,,,,,,,,,,,,,,,,
3742.7999999970198,,pt2_memorable_rating,855487,Okoboji,,52,,,4,,,,,,,,,,,,,,,
null,,confidence_buffer,855591,confidence_buffer,,null,,,,,,,,,,,,,,,,,,
2090.2000000029802,,recognition_phase,857683,Okoboji,,49,,,,,,old,1,0.8181818181818182,,,,,,,,,,
null,,confidence_buffer,857786,confidence_buffer,,null,,,,,,,,,,,,,,,,,,
null,,thebreak,858299,break,,null,,,,,,,,,,,,,,,,,,
20077.09999999404,,realistic_rating,878379,Bar Harbor,,53,Bar Harbor,US,5,,,,,,,,,,,,,,,
null,,confidence_buffer,878483,confidence_buffer,,null,,,,,,,,,,,,,,,,,,
1176.3999999910593,,pt2_unique_rating,879662,Bar Harbor,,53,,,5,,,,,,,,,,,,,,,
null,,confidence_buffer,879777,confidence_buffer,,null,,,,,,,,,,,,,,,,,,
1359.7999999970198,,pt2_memorable_rating,881140,Bar Harbor,,53,,,5,,,,,,,,,,,,,,,
null,,confidence_buffer,881250,confidence_buffer,,null,,,,,,,,,,,,,,,,,,
1497.4000000059605,,recognition_phase,882750,Bar Harbor,,49,,,,,,old,0,0.75,,,,,,,,,,
null,,confidence_buffer,882856,confidence_buffer,,null,,,,,,,,,,,,,,,,,,
null,,thebreak,883359,break,,null,,,,,,,,,,,,,,,,,,
16148.199999988079,,realistic_rating,899510,Sammamish,,53,Sammamish,US,5,,,,,,,,,,,,,,,
null,,confidence_buffer,899622,confidence_buffer,,null,,,,,,,,,,,,,,,,,,
5609.5999999940395,,pt2_unique_rating,905234,Sammamish,,52,,,4,,,,,,,,,,,,,,,
null,,confidence_buffer,905346,confidence_buffer,,null,,,,,,,,,,,,,,,,,,
1636.6000000089407,,pt2_memorable_rating,906985,Sammamish,,52,,,4,,,,,,,,,,,,,,,
null,,confidence_buffer,907096,confidence_buffer,,null,,,,,,,,,,,,,,,,,,
2748.7000000029802,,recognition_phase,909847,Sammamish,,49,,,,,,old,0,0.6923076923076923,,,,,,,,,,
null,,confidence_buffer,909959,confidence_buffer,,null,,,,,,,,,,,,,,,,,,
null,,thebreak,910466,break,,null,,,,,,,,,,,,,,,,,,
3031.0999999940395,,realistic_rating,913499,Hawthorne Bluffs,,53,Hawthorne Bluffs,Fictional,5,,,,,,,,,,,,,,,
null,,confidence_buffer,913615,confidence_buffer,,null,,,,,,,,,,,,,,,,,,
1317.300000011921,,pt2_unique_rating,914935,Hawthorne Bluffs,,53,,,5,,,,,,,,,,,,,,,
null,,confidence_buffer,915053,confidence_buffer,,null,,,,,,,,,,,,,,,,,,
1145.0999999940395,,pt2_memorable_rating,916200,Hawthorne Bluffs,,52,,,4,,,,,,,,,,,,,,,
null,,confidence_buffer,916306,confidence_buffer,,null,,,,,,,,,,,,,,,,,,
1308.6000000089407,,recognition_phase,917617,Hawthorne Bluffs,,49,,,,,,old,1,0.7142857142857143,,,,,,,,,,
null,,confidence_buffer,917729,confidence_buffer,,null,,,,,,,,,,,,,,,,,,
null,,thebreak,918233,break,,null,,,,,,,,,,,,,,,,,,
21115.09999999404,,realistic_rating,939351,Fairhaven,,53,Fairhaven,Fictional,5,,,,,,,,,,,,,,,
null,,confidence_buffer,939455,confidence_buffer,,null,,,,,,,,,,,,,,,,,,
2867.8999999910593,,probe_rating,942326,probe_rating,,53,,,,5,1,,,,,,,,,,,,,
null,,confidence_buffer,942429,confidence_buffer,,null,,,,,,,,,,,,,,,,,,
1907.3999999910593,,pt2_unique_rating,944339,Fairhaven,,51,,,3,,,,,,,,,,,,,,,
null,,confidence_buffer,944447,confidence_buffer,,null,,,,,,,,,,,,,,,,,,
1780.6000000089407,,pt2_memorable_rating,946230,Fairhaven,,51,,,3,,,,,,,,,,,,,,,
null,,confidence_buffer,946333,confidence_buffer,,null,,,,,,,,,,,,,,,,,,
1726.9000000059605,,recognition_phase,948062,Fairhaven,,49,,,,,,old,0,0.6666666666666666,,,,,,,,,,
null,,confidence_buffer,948172,confidence_buffer,,null,,,,,,,,,,,,,,,,,,
null,,thebreak,948680,break,,null,,,,,,,,,,,,,,,,,,
24234.5,,realistic_rating,972917,Carmel,,49,Carmel,US,1,,,,,,,,,,,,,,,
null,,confidence_buffer,973028,confidence_buffer,,null,,,,,,,,,,,,,,,,,,
3354,,probe_rating,976385,probe_rating,,50,,,,2,1,,,,,,,,,,,,,
null,,confidence_buffer,976489,confidence_buffer,,null,,,,,,,,,,,,,,,,,,
1646.2999999970198,,pt2_unique_rating,978137,Carmel,,49,,,1,,,,,,,,,,,,,,,
null,,confidence_buffer,978245,confidence_buffer,,null,,,,,,,,,,,,,,,,,,
1042.4000000059605,,pt2_memorable_rating,979289,Carmel,,49,,,1,,,,,,,,,,,,,,,
null,,confidence_buffer,979395,confidence_buffer,,null,,,,,,,,,,,,,,,,,,
1894.4000000059605,,recognition_phase,981292,Carmel,,52,,,,,,new,1,0.6875,,,,,,,,,,
null,,confidence_buffer,981400,confidence_buffer,,null,,,,,,,,,,,,,,,,,,
null,,thebreak,981902,break,,null,,,,,,,,,,,,,,,,,,
17872.69999998808,,realistic_rating,999777,Racine,,53,Racine,US,5,,,,,,,,,,,,,,,
null,,confidence_buffer,999896,confidence_buffer,,null,,,,,,,,,,,,,,,,,,
1557.7999999970198,,pt2_unique_rating,1001456,Racine,,53,,,5,,,,,,,,,,,,,,,
null,,confidence_buffer,1001573,confidence_buffer,,null,,,,,,,,,,,,,,,,,,
1569.5,,pt2_memorable_rating,1003144,Racine,,52,,,4,,,,,,,,,,,,,,,
null,,confidence_buffer,1003250,confidence_buffer,,null,,,,,,,,,,,,,,,,,,
2167.7999999970198,,recognition_phase,1005421,Racine,,49,,,,,,old,1,0.7058823529411765,,,,,,,,,,
null,,confidence_buffer,1005526,confidence_buffer,,null,,,,,,,,,,,,,,,,,,
null,,thebreak,1006042,break,,null,,,,,,,,,,,,,,,,,,
30509.79999999702,,realistic_rating,1036555,Cornwall,,53,Cornwall,US,5,,,,,,,,,,,,,,,
null,,confidence_buffer,1036664,confidence_buffer,,null,,,,,,,,,,,,,,,,,,
969.7000000029802,,pt2_unique_rating,1037636,Cornwall,,51,,,3,,,,,,,,,,,,,,,
null,,confidence_buffer,1037750,confidence_buffer,,null,,,,,,,,,,,,,,,,,,
360.09999999403954,,pt2_memorable_rating,1038112,Cornwall,,51,,,3,,,,,,,,,,,,,,,
null,,confidence_buffer,1038216,confidence_buffer,,null,,,,,,,,,,,,,,,,,,
2613.5,,recognition_phase,1040832,Cornwall,,52,,,,,,new,0,0.6666666666666666,,,,,,,,,,
null,,confidence_buffer,1040937,confidence_buffer,,null,,,,,,,,,,,,,,,,,,
null,,thebreak,1041443,break,,null,,,,,,,,,,,,,,,,,,
42899.90000000596,,realistic_rating,1084346,Lakehaven,,53,Lakehaven,Fictional,5,,,,,,,,,,,,,,,
null,,confidence_buffer,1084450,confidence_buffer,,null,,,,,,,,,,,,,,,,,,
378.30000001192093,,pt2_unique_rating,1084831,Lakehaven,,51,,,3,,,,,,,,,,,,,,,
null,,confidence_buffer,1084938,confidence_buffer,,null,,,,,,,,,,,,,,,,,,
1034.7999999970198,,pt2_memorable_rating,1085975,Lakehaven,,51,,,3,,,,,,,,,,,,,,,
null,,confidence_buffer,1086086,confidence_buffer,,null,,,,,,,,,,,,,,,,,,
2505.8999999910593,,recognition_phase,1088595,Lakehaven,,49,,,,,,old,1,0.6842105263157895,,,,,,,,,,
null,,confidence_buffer,1088706,confidence_buffer,,null,,,,,,,,,,,,,,,,,,
null,,thebreak,1089212,break,,null,,,,,,,,,,,,,,,,,,
17318.30000001192,,realistic_rating,1106533,Cape May,,53,Cape May,US,5,,,,,,,,,,,,,,,
null,,confidence_buffer,1106636,confidence_buffer,,null,,,,,,,,,,,,,,,,,,
1278,,pt2_unique_rating,1107917,Cape May,,51,,,3,,,,,,,,,,,,,,,
null,,confidence_buffer,1108027,confidence_buffer,,null,,,,,,,,,,,,,,,,,,
828.5999999940395,,pt2_memorable_rating,1108858,Cape May,,51,,,3,,,,,,,,,,,,,,,
null,,confidence_buffer,1108976,confidence_buffer,,null,,,,,,,,,,,,,,,,,,
1812.699999988079,,probe_rating,1110791,probe_rating,,51,,,,3,1,,,,,,,,,,,,,
null,,confidence_buffer,1110897,confidence_buffer,,null,,,,,,,,,,,,,,,,,,
5515.79999999702,,recognition_phase,1116415,Cape May,,49,,,,,,old,1,0.7,,,,,,,,,,
null,,confidence_buffer,1116524,confidence_buffer,,null,,,,,,,,,,,,,,,,,,
null,,thebreak,1117036,break,,null,,,,,,,,,,,,,,,,,,
19811,,realistic_rating,1136850,San Antonio,,53,San Antonio,US,5,,,,,,,,,,,,,,,
null,,confidence_buffer,1136956,confidence_buffer,,null,,,,,,,,,,,,,,,,,,
1287.6000000089407,,probe_rating,1138246,probe_rating,,51,,,,3,1,,,,,,,,,,,,,
null,,confidence_buffer,1138354,confidence_buffer,,null,,,,,,,,,,,,,,,,,,
1324.2000000029802,,pt2_unique_rating,1139681,San Antonio,,51,,,3,,,,,,,,,,,,,,,
null,,confidence_buffer,1139783,confidence_buffer,,null,,,,,,,,,,,,,,,,,,
1231.4000000059605,,pt2_memorable_rating,1141017,San Antonio,,50,,,2,,,,,,,,,,,,,,,
null,,confidence_buffer,1141133,confidence_buffer,,null,,,,,,,,,,,,,,,,,,
2603.800000011921,,recognition_phase,1143739,San Antonio,,49,,,,,,old,1,0.7142857142857143,,,,,,,,,,
null,,confidence_buffer,1143856,confidence_buffer,,null,,,,,,,,,,,,,,,,,,
null,,thebreak,1144363,break,,null,,,,,,,,,,,,,,,,,,
2308.5999999940395,,realistic_rating,1146674,Hilo,,53,Hilo,US,5,,,,,,,,,,,,,,,
null,,confidence_buffer,1146787,confidence_buffer,,null,,,,,,,,,,,,,,,,,,
1090.6000000089407,,pt2_unique_rating,1147880,Hilo,,51,,,3,,,,,,,,,,,,,,,
null,,confidence_buffer,1147986,confidence_buffer,,null,,,,,,,,,,,,,,,,,,
1123.5,,pt2_memorable_rating,1149112,Hilo,,51,,,3,,,,,,,,,,,,,,,
null,,confidence_buffer,1149228,confidence_buffer,,null,,,,,,,,,,,,,,,,,,
1875,,recognition_phase,1151106,Hilo,,49,,,,,,old,1,0.7272727272727273,,,,,,,,,,
null,,confidence_buffer,1151212,confidence_buffer,,null,,,,,,,,,,,,,,,,,,
null,,thebreak,1151722,break,,null,,,,,,,,,,,,,,,,,,
26782,,realistic_rating,1178507,Driftwood Bay,,49,Driftwood Bay,Fictional,1,,,,,,,,,,,,,,,
null,,confidence_buffer,1178616,confidence_buffer,,null,,,,,,,,,,,,,,,,,,
1041.3999999910593,,pt2_unique_rating,1179660,Driftwood Bay,,49,,,1,,,,,,,,,,,,,,,
null,,confidence_buffer,1179766,confidence_buffer,,null,,,,,,,,,,,,,,,,,,
668.0999999940395,,pt2_memorable_rating,1180436,Driftwood Bay,,49,,,1,,,,,,,,,,,,,,,
null,,confidence_buffer,1180544,confidence_buffer,,null,,,,,,,,,,,,,,,,,,
1497.5999999940395,,recognition_phase,1182046,Driftwood Bay,,52,,,,,,new,0,0.6956521739130435,,,,,,,,,,
null,,confidence_buffer,1182157,confidence_buffer,,null,,,,,,,,,,,,,,,,,,
null,,thebreak,1182676,break,,null,,,,,,,,,,,,,,,,,,
22546.79999999702,,realistic_rating,1205225,Meadowspire,,49,Meadowspire,Fictional,1,,,,,,,,,,,,,,,
null,,confidence_buffer,1205334,confidence_buffer,,null,,,,,,,,,,,,,,,,,,
71,,pt2_unique_rating,1205407,Meadowspire,,49,,,1,,,,,,,,,,,,,,,
null,,confidence_buffer,1205517,confidence_buffer,,null,,,,,,,,,,,,,,,,,,
69.09999999403954,,pt2_memorable_rating,1205589,Meadowspire,,49,,,1,,,,,,,,,,,,,,,
null,,confidence_buffer,1205693,confidence_buffer,,null,,,,,,,,,,,,,,,,,,
3171,,recognition_phase,1208867,Meadowspire,,52,,,,,,new,1,0.7083333333333334,,,,,,,,,,
null,,confidence_buffer,1208977,confidence_buffer,,null,,,,,,,,,,,,,,,,,,
null,,thebreak,1209486,break,,null,,,,,,,,,,,,,,,,,,
28688.60000000894,,realistic_rating,1238177,Alliance,,53,Alliance,US,5,,,,,,,,,,,,,,,
null,,confidence_buffer,1238289,confidence_buffer,,null,,,,,,,,,,,,,,,,,,
2313.2000000029802,,pt2_unique_rating,1240606,Alliance,,50,,,2,,,,,,,,,,,,,,,
null,,confidence_buffer,1240724,confidence_buffer,,null,,,,,,,,,,,,,,,,,,
1466.2000000029802,,pt2_memorable_rating,1242193,Alliance,,50,,,2,,,,,,,,,,,,,,,
null,,confidence_buffer,1242309,confidence_buffer,,null,,,,,,,,,,,,,,,,,,
5040,,recognition_phase,1247352,Alliance,,52,,,,,,new,0,0.68,,,,,,,,,,
null,,confidence_buffer,1247456,confidence_buffer,,null,,,,,,,,,,,,,,,,,,
null,,thebreak,1247961,break,,null,,,,,,,,,,,,,,,,,,
17497.5,,realistic_rating,1265461,Assateague Island,,53,Assateague Island,US,5,,,,,,,,,,,,,,,
null,,confidence_buffer,1265564,confidence_buffer,,null,,,,,,,,,,,,,,,,,,
2887.5,,pt2_unique_rating,1268454,Assateague Island,,52,,,4,,,,,,,,,,,,,,,
null,,confidence_buffer,1268572,confidence_buffer,,null,,,,,,,,,,,,,,,,,,
3561.699999988079,,pt2_memorable_rating,1272136,Assateague Island,,52,,,4,,,,,,,,,,,,,,,
null,,confidence_buffer,1272247,confidence_buffer,,null,,,,,,,,,,,,,,,,,,
2669,,recognition_phase,1274919,Assateague Island,,52,,,,,,new,1,0.6923076923076923,,,,,,,,,,
null,,confidence_buffer,1275036,confidence_buffer,,null,,,,,,,,,,,,,,,,,,
null,,thebreak,1275544,break,,null,,,,,,,,,,,,,,,,,,
33248.79999999702,,realistic_rating,1308796,Claywater,,49,Claywater,Fictional,1,,,,,,,,,,,,,,,
null,,confidence_buffer,1308907,confidence_buffer,,null,,,,,,,,,,,,,,,,,,
1130.0999999940395,,pt2_unique_rating,1310039,Claywater,,49,,,1,,,,,,,,,,,,,,,
null,,confidence_buffer,1310151,confidence_buffer,,null,,,,,,,,,,,,,,,,,,
1021.2000000029802,,pt2_memorable_rating,1311175,Claywater,,49,,,1,,,,,,,,,,,,,,,
null,,confidence_buffer,1311291,confidence_buffer,,null,,,,,,,,,,,,,,,,,,
3906.9000000059605,,recognition_phase,1315200,Claywater,,52,,,,,,new,0,0.6666666666666666,,,,,,,,,,
null,,confidence_buffer,1315303,confidence_buffer,,null,,,,,,,,,,,,,,,,,,
null,,thebreak,1315812,break,,null,,,,,,,,,,,,,,,,,,
2966.2999999970198,,realistic_rating,1318781,Hollendale,,52,Hollendale,Fictional,4,,,,,,,,,,,,,,,
null,,confidence_buffer,1318888,confidence_buffer,,null,,,,,,,,,,,,,,,,,,
608.6000000089407,,pt2_unique_rating,1319499,Hollendale,,51,,,3,,,,,,,,,,,,,,,
null,,confidence_buffer,1319602,confidence_buffer,,null,,,,,,,,,,,,,,,,,,
866.2000000029802,,pt2_memorable_rating,1320470,Hollendale,,51,,,3,,,,,,,,,,,,,,,
null,,confidence_buffer,1320589,confidence_buffer,,null,,,,,,,,,,,,,,,,,,
1912.7999999970198,,recognition_phase,1322505,Hollendale,,49,,,,,,old,0,0.6428571428571429,,,,,,,,,,
null,,confidence_buffer,1322614,confidence_buffer,,null,,,,,,,,,,,,,,,,,,
null,,thebreak,1323123,break,,null,,,,,,,,,,,,,,,,,,
2020.2999999970198,,realistic_rating,1325145,Athens,,53,Athens,US,5,,,,,,,,,,,,,,,
null,,confidence_buffer,1325256,confidence_buffer,,null,,,,,,,,,,,,,,,,,,
1789.3999999910593,,pt2_unique_rating,1327047,Athens,,53,,,5,,,,,,,,,,,,,,,
null,,confidence_buffer,1327154,confidence_buffer,,null,,,,,,,,,,,,,,,,,,
1551,,pt2_memorable_rating,1328707,Athens,,52,,,4,,,,,,,,,,,,,,,
null,,confidence_buffer,1328814,confidence_buffer,,null,,,,,,,,,,,,,,,,,,
1419.6000000089407,,recognition_phase,1330236,Athens,,49,,,,,,old,1,0.6551724137931034,,,,,,,,,,
null,,confidence_buffer,1330346,confidence_buffer,,null,,,,,,,,,,,,,,,,,,
null,,thebreak,1330856,break,,null,,,,,,,,,,,,,,,,,,
4011.3999999910593,,realistic_rating,1334870,Bowling Green,,53,Bowling Green,US,5,,,,,,,,,,,,,,,
null,,confidence_buffer,1334973,confidence_buffer,,null,,,,,,,,,,,,,,,,,,
1269.5999999940395,,pt2_unique_rating,1336246,Bowling Green,,51,,,3,,,,,,,,,,,,,,,
null,,confidence_buffer,1336352,confidence_buffer,,null,,,,,,,,,,,,,,,,,,
1571.7000000029802,,pt2_memorable_rating,1337926,Bowling Green,,51,,,3,,,,,,,,,,,,,,,
null,,confidence_buffer,1338037,confidence_buffer,,null,,,,,,,,,,,,,,,,,,
1321.699999988079,,recognition_phase,1339362,Bowling Green,,49,,,,,,old,1,0.6666666666666666,,,,,,,,,,
null,,confidence_buffer,1339467,confidence_buffer,,null,,,,,,,,,,,,,,,,,,
null,,thebreak,1339976,break,,null,,,,,,,,,,,,,,,,,,
2055.0999999940395,,realistic_rating,1342033,Millstone,,53,Millstone,Fictional,5,,,,,,,,,,,,,,,
null,,confidence_buffer,1342137,confidence_buffer,,null,,,,,,,,,,,,,,,,,,
1301.0999999940395,,pt2_unique_rating,1343440,Millstone,,51,,,3,,,,,,,,,,,,,,,
null,,confidence_buffer,1343546,confidence_buffer,,null,,,,,,,,,,,,,,,,,,
2056,,pt2_memorable_rating,1345604,Millstone,,52,,,4,,,,,,,,,,,,,,,
null,,confidence_buffer,1345708,confidence_buffer,,null,,,,,,,,,,,,,,,,,,
1401.3999999910593,,recognition_phase,1347112,Millstone,,49,,,,,,old,0,0.6451612903225806,,,,,,,,,,
null,,confidence_buffer,1347222,confidence_buffer,,null,,,,,,,,,,,,,,,,,,
null,,thebreak,1347728,break,,null,,,,,,,,,,,,,,,,,,
2286.7999999970198,,realistic_rating,1350017,Pine Hollow,,53,Pine Hollow,Fictional,5,,,,,,,,,,,,,,,
null,,confidence_buffer,1350124,confidence_buffer,,null,,,,,,,,,,,,,,,,,,
1153.4000000059605,,pt2_unique_rating,1351280,Pine Hollow,,51,,,3,,,,,,,,,,,,,,,
null,,confidence_buffer,1351386,confidence_buffer,,null,,,,,,,,,,,,,,,,,,
1198.3999999910593,,pt2_memorable_rating,1352587,Pine Hollow,,52,,,4,,,,,,,,,,,,,,,
null,,confidence_buffer,1352697,confidence_buffer,,null,,,,,,,,,,,,,,,,,,
2031.7000000029802,,recognition_phase,1354731,Pine Hollow,,49,,,,,,old,0,0.625,,,,,,,,,,
null,,confidence_buffer,1354834,confidence_buffer,,null,,,,,,,,,,,,,,,,,,
null,,thebreak,1355346,break,,null,,,,,,,,,,,,,,,,,,
33076,,realistic_rating,1388425,Ironwood Heights,,49,Ironwood Heights,Fictional,1,,,,,,,,,,,,,,,
null,,confidence_buffer,1388528,confidence_buffer,,null,,,,,,,,,,,,,,,,,,
945.8000000119209,,pt2_unique_rating,1389476,Ironwood Heights,,49,,,1,,,,,,,,,,,,,,,
null,,confidence_buffer,1389582,confidence_buffer,,null,,,,,,,,,,,,,,,,,,
933.5,,pt2_memorable_rating,1390518,Ironwood Heights,,49,,,1,,,,,,,,,,,,,,,
null,,confidence_buffer,1390622,confidence_buffer,,null,,,,,,,,,,,,,,,,,,
2333.5999999940395,,probe_rating,1392958,probe_rating,,51,,,,3,1,,,,,,,,,,,,,
null,,confidence_buffer,1393067,confidence_buffer,,null,,,,,,,,,,,,,,,,,,
2721.1000000089407,,recognition_phase,1395791,Ironwood Heights,,52,,,,,,new,1,0.6363636363636364,,,,,,,,,,
null,,confidence_buffer,1395893,confidence_buffer,,null,,,,,,,,,,,,,,,,,,
null,,thebreak,1396396,break,,null,,,,,,,,,,,,,,,,,,
2934.4000000059605,,realistic_rating,1399332,Westridge,,52,Westridge,Fictional,4,,,,,,,,,,,,,,,
null,,confidence_buffer,1399439,confidence_buffer,,null,,,,,,,,,,,,,,,,,,
1265.5999999940395,,pt2_unique_rating,1400708,Westridge,,51,,,3,,,,,,,,,,,,,,,
null,,confidence_buffer,1400819,confidence_buffer,,null,,,,,,,,,,,,,,,,,,
1302.2999999970198,,probe_rating,1402124,probe_rating,,52,,,,4,1,,,,,,,,,,,,,
null,,confidence_buffer,1402228,confidence_buffer,,null,,,,,,,,,,,,,,,,,,
1916.2999999970198,,pt2_memorable_rating,1404147,Westridge,,50,,,2,,,,,,,,,,,,,,,
null,,confidence_buffer,1404264,confidence_buffer,,null,,,,,,,,,,,,,,,,,,
1802.7000000029802,,recognition_phase,1406068,Westridge,,49,,,,,,old,0,0.6176470588235294,,,,,,,,,,
null,,confidence_buffer,1406174,confidence_buffer,,null,,,,,,,,,,,,,,,,,,
null,,thebreak,1406678,break,,null,,,,,,,,,,,,,,,,,,
36912.5,,realistic_rating,1443594,Maplehurst,,52,Maplehurst,Fictional,4,,,,,,,,,,,,,,,
null,,confidence_buffer,1443706,confidence_buffer,,null,,,,,,,,,,,,,,,,,,
1563.5,,pt2_unique_rating,1445272,Maplehurst,,51,,,3,,,,,,,,,,,,,,,
null,,confidence_buffer,1445378,confidence_buffer,,null,,,,,,,,,,,,,,,,,,
913.6999999880791,,pt2_memorable_rating,1446294,Maplehurst,,52,,,4,,,,,,,,,,,,,,,
null,,confidence_buffer,1446405,confidence_buffer,,null,,,,,,,,,,,,,,,,,,
1190.800000011921,,recognition_phase,1447599,Maplehurst,,49,,,,,,old,1,0.6285714285714286,,,,,,,,,,
null,,confidence_buffer,1447706,confidence_buffer,,null,,,,,,,,,,,,,,,,,,
null,,thebreak,1448223,break,,null,,,,,,,,,,,,,,,,,,
2498.8999999910593,,realistic_rating,1450725,Hanover,,53,Hanover,US,5,,,,,,,,,,,,,,,
null,,confidence_buffer,1450837,confidence_buffer,,null,,,,,,,,,,,,,,,,,,
1787.7999999970198,,pt2_unique_rating,1452627,Hanover,,52,,,4,,,,,,,,,,,,,,,
null,,confidence_buffer,1452746,confidence_buffer,,null,,,,,,,,,,,,,,,,,,
1932.5,,pt2_memorable_rating,1454680,Hanover,,51,,,3,,,,,,,,,,,,,,,
null,,confidence_buffer,1454788,confidence_buffer,,null,,,,,,,,,,,,,,,,,,
1145.7000000029802,,recognition_phase,1455936,Hanover,,49,,,,,,old,0,0.6111111111111112,,,,,,,,,,
null,,confidence_buffer,1456052,confidence_buffer,,null,,,,,,,,,,,,,,,,,,
null,,thebreak,1456556,break,,null,,,,,,,,,,,,,,,,,,
2758.5,,realistic_rating,1459316,Delaware City,,53,Delaware City,US,5,,,,,,,,,,,,,,,
null,,confidence_buffer,1459421,confidence_buffer,,null,,,,,,,,,,,,,,,,,,
1359.9000000059605,,pt2_unique_rating,1460783,Delaware City,,52,,,4,,,,,,,,,,,,,,,
null,,confidence_buffer,1460886,confidence_buffer,,null,,,,,,,,,,,,,,,,,,
1624.3999999910593,,pt2_memorable_rating,1462512,Delaware City,,52,,,4,,,,,,,,,,,,,,,
null,,confidence_buffer,1462618,confidence_buffer,,null,,,,,,,,,,,,,,,,,,
1580.7000000029802,,probe_rating,1464201,probe_rating,,53,,,,5,1,,,,,,,,,,,,,
null,,confidence_buffer,1464313,confidence_buffer,,null,,,,,,,,,,,,,,,,,,
1322.8999999910593,,recognition_phase,1465638,Delaware City,,49,,,,,,old,1,0.6216216216216216,,,,,,,,,,
null,,confidence_buffer,1465754,confidence_buffer,,null,,,,,,,,,,,,,,,,,,
null,,thebreak,1466258,break,,null,,,,,,,,,,,,,,,,,,
23395.59999999404,,realistic_rating,1489656,Duck,,52,Duck,US,4,,,,,,,,,,,,,,,
null,,confidence_buffer,1489762,confidence_buffer,,null,,,,,,,,,,,,,,,,,,
871.5999999940395,,pt2_unique_rating,1490636,Duck,,51,,,3,,,,,,,,,,,,,,,
null,,confidence_buffer,1490753,confidence_buffer,,null,,,,,,,,,,,,,,,,,,
1013.3999999910593,,pt2_memorable_rating,1491769,Duck,,51,,,3,,,,,,,,,,,,,,,
null,,confidence_buffer,1491877,confidence_buffer,,null,,,,,,,,,,,,,,,,,,
2753.1000000089407,,recognition_phase,1494632,Duck,,52,,,,,,new,1,0.631578947368421,,,,,,,,,,
null,,confidence_buffer,1494744,confidence_buffer,,null,,,,,,,,,,,,,,,,,,
null,,thebreak,1495256,break,,null,,,,,,,,,,,,,,,,,,
4238.399999991059,,realistic_rating,1499497,Willowford,,53,Willowford,Fictional,5,,,,,,,,,,,,,,,
null,,confidence_buffer,1499605,confidence_buffer,,null,,,,,,,,,,,,,,,,,,
1447.7000000029802,,pt2_unique_rating,1501055,Willowford,,51,,,3,,,,,,,,,,,,,,,
null,,confidence_buffer,1501166,confidence_buffer,,null,,,,,,,,,,,,,,,,,,
727,,pt2_memorable_rating,1501895,Willowford,,51,,,3,,,,,,,,,,,,,,,
null,,confidence_buffer,1502010,confidence_buffer,,null,,,,,,,,,,,,,,,,,,
1379.7999999970198,,recognition_phase,1503393,Willowford,,49,,,,,,old,0,0.6153846153846154,,,,,,,,,,
null,,confidence_buffer,1503506,confidence_buffer,,null,,,,,,,,,,,,,,,,,,
null,,thebreak,1504011,break,,null,,,,,,,,,,,,,,,,,,
2071.2999999970198,,realistic_rating,1506084,Newport,,53,Newport,US,5,,,,,,,,,,,,,,,
null,,confidence_buffer,1506200,confidence_buffer,,null,,,,,,,,,,,,,,,,,,
1328.9000000059605,,pt2_unique_rating,1507532,Newport,,51,,,3,,,,,,,,,,,,,,,
null,,confidence_buffer,1507649,confidence_buffer,,null,,,,,,,,,,,,,,,,,,
598.4000000059605,,pt2_memorable_rating,1508250,Newport,,52,,,4,,,,,,,,,,,,,,,
null,,confidence_buffer,1508363,confidence_buffer,,null,,,,,,,,,,,,,,,,,,
1169.5999999940395,,recognition_phase,1509535,Newport,,49,,,,,,old,0,0.6,,,,,,,,,,
null,,confidence_buffer,1509640,confidence_buffer,,null,,,,,,,,,,,,,,,,,,
null,,thebreak,1510145,break,,null,,,,,,,,,,,,,,,,,,
2490.9000000059605,,realistic_rating,1512639,West Talora,,53,West Talora,Fictional,5,,,,,,,,,,,,,,,
null,,confidence_buffer,1512743,confidence_buffer,,null,,,,,,,,,,,,,,,,,,
1502.6000000089407,,pt2_unique_rating,1514248,West Talora,,51,,,3,,,,,,,,,,,,,,,
null,,confidence_buffer,1514356,confidence_buffer,,null,,,,,,,,,,,,,,,,,,
778.8999999910593,,pt2_memorable_rating,1515137,West Talora,,52,,,4,,,,,,,,,,,,,,,
null,,confidence_buffer,1515246,confidence_buffer,,null,,,,,,,,,,,,,,,,,,
1112.7000000029802,,recognition_phase,1516361,West Talora,,49,,,,,,old,1,0.6097560975609756,,,,,,,,,,
null,,confidence_buffer,1516465,confidence_buffer,,null,,,,,,,,,,,,,,,,,,
null,,thebreak,1516979,break,,null,,,,,,,,,,,,,,,,,,
2497.5999999940395,,realistic_rating,1519478,Manistee,,53,Manistee,US,5,,,,,,,,,,,,,,,
null,,confidence_buffer,1519588,confidence_buffer,,null,,,,,,,,,,,,,,,,,,
1059.0999999940395,,pt2_unique_rating,1520649,Manistee,,52,,,4,,,,,,,,,,,,,,,
null,,confidence_buffer,1520767,confidence_buffer,,null,,,,,,,,,,,,,,,,,,
962.2999999970198,,pt2_memorable_rating,1521732,Manistee,,51,,,3,,,,,,,,,,,,,,,
null,,confidence_buffer,1521840,confidence_buffer,,null,,,,,,,,,,,,,,,,,,
1155.9000000059605,,recognition_phase,1522998,Manistee,,49,,,,,,old,0,0.5952380952380952,,,,,,,,,,
null,,confidence_buffer,1523105,confidence_buffer,,null,,,,,,,,,,,,,,,,,,
null,,thebreak,1523610,break,,null,,,,,,,,,,,,,,,,,,
41056.89999999106,,realistic_rating,1564669,Sisters,,50,Sisters,US,2,,,,,,,,,,,,,,,
null,,confidence_buffer,1564783,confidence_buffer,,null,,,,,,,,,,,,,,,,,,
1682.2999999970198,,pt2_unique_rating,1566468,Sisters,,51,,,3,,,,,,,,,,,,,,,
null,,confidence_buffer,1566584,confidence_buffer,,null,,,,,,,,,,,,,,,,,,
803.6999999880791,,pt2_memorable_rating,1567390,Sisters,,50,,,2,,,,,,,,,,,,,,,
null,,confidence_buffer,1567496,confidence_buffer,,null,,,,,,,,,,,,,,,,,,
2955.5999999940395,,recognition_phase,1570455,Sisters,,50,,,,,,old,1,0.6046511627906976,,,,,,,,,,
null,,confidence_buffer,1570565,confidence_buffer,,null,,,,,,,,,,,,,,,,,,
null,,thebreak,1571069,break,,null,,,,,,,,,,,,,,,,,,
21500.89999999106,,realistic_rating,1592573,Tamarisk Hills,,49,Tamarisk Hills,Fictional,1,,,,,,,,,,,,,,,
null,,confidence_buffer,1592676,confidence_buffer,,null,,,,,,,,,,,,,,,,,,
875.0999999940395,,pt2_unique_rating,1593553,Tamarisk Hills,,49,,,1,,,,,,,,,,,,,,,
null,,confidence_buffer,1593659,confidence_buffer,,null,,,,,,,,,,,,,,,,,,
2036.699999988079,,pt2_memorable_rating,1595698,Tamarisk Hills,,49,,,1,,,,,,,,,,,,,,,
null,,confidence_buffer,1595807,confidence_buffer,,null,,,,,,,,,,,,,,,,,,
1780.7999999970198,,recognition_phase,1597590,Tamarisk Hills,,52,,,,,,new,1,0.6136363636363636,,,,,,,,,,
null,,confidence_buffer,1597696,confidence_buffer,,null,,,,,,,,,,,,,,,,,,
null,,thebreak,1598203,break,,null,,,,,,,,,,,,,,,,,,
2479.9000000059605,,realistic_rating,1600686,East Ladera,,53,East Ladera,Fictional,5,,,,,,,,,,,,,,,
null,,confidence_buffer,1600789,confidence_buffer,,null,,,,,,,,,,,,,,,,,,
1259.7999999970198,,pt2_unique_rating,1602050,East Ladera,,51,,,3,,,,,,,,,,,,,,,
null,,confidence_buffer,1602156,confidence_buffer,,null,,,,,,,,,,,,,,,,,,
1471.5999999940395,,pt2_memorable_rating,1603629,East Ladera,,52,,,4,,,,,,,,,,,,,,,
null,,confidence_buffer,1603734,confidence_buffer,,null,,,,,,,,,,,,,,,,,,
1320.4000000059605,,recognition_phase,1605056,East Ladera,,49,,,,,,old,1,0.6222222222222222,,,,,,,,,,
null,,confidence_buffer,1605164,confidence_buffer,,null,,,,,,,,,,,,,,,,,,
null,,thebreak,1605670,break,,null,,,,,,,,,,,,,,,,,,
2429.5,,realistic_rating,1608101,Shreveport,,53,Shreveport,US,5,,,,,,,,,,,,,,,
null,,confidence_buffer,1608206,confidence_buffer,,null,,,,,,,,,,,,,,,,,,
1371.199999988079,,pt2_unique_rating,1609580,Shreveport,,51,,,3,,,,,,,,,,,,,,,
null,,confidence_buffer,1609686,confidence_buffer,,null,,,,,,,,,,,,,,,,,,
1145.3999999910593,,pt2_memorable_rating,1610834,Shreveport,,51,,,3,,,,,,,,,,,,,,,
null,,confidence_buffer,1610938,confidence_buffer,,null,,,,,,,,,,,,,,,,,,
1240,,recognition_phase,1612180,Shreveport,,49,,,,,,old,1,0.6304347826086957,,,,,,,,,,
null,,confidence_buffer,1612286,confidence_buffer,,null,,,,,,,,,,,,,,,,,,
null,,thebreak,1612791,break,,null,,,,,,,,,,,,,,,,,,
16223.40000000596,,realistic_rating,1629017,Bisbee,,53,Bisbee,US,5,,,,,,,,,,,,,,,
null,,confidence_buffer,1629127,confidence_buffer,,null,,,,,,,,,,,,,,,,,,
1375.0999999940395,,pt2_unique_rating,1630504,Bisbee,,52,,,4,,,,,,,,,,,,,,,
null,,confidence_buffer,1630620,confidence_buffer,,null,,,,,,,,,,,,,,,,,,
893.4000000059605,,pt2_memorable_rating,1631516,Bisbee,,52,,,4,,,,,,,,,,,,,,,
null,,confidence_buffer,1631626,confidence_buffer,,null,,,,,,,,,,,,,,,,,,
1506.5999999940395,,recognition_phase,1633136,Bisbee,,49,,,,,,old,1,0.6382978723404256,,,,,,,,,,
null,,confidence_buffer,1633248,confidence_buffer,,null,,,,,,,,,,,,,,,,,,
null,,thebreak,1633759,break,,null,,,,,,,,,,,,,,,,,,
20579.90000000596,,realistic_rating,1654342,Lake of the Ozarks,,53,Lake of the Ozarks,US,5,,,,,,,,,,,,,,,
null,,confidence_buffer,1654449,confidence_buffer,,null,,,,,,,,,,,,,,,,,,
758,,pt2_unique_rating,1655210,Lake of the Ozarks,,53,,,5,,,,,,,,,,,,,,,
null,,confidence_buffer,1655316,confidence_buffer,,null,,,,,,,,,,,,,,,,,,
862.0999999940395,,pt2_memorable_rating,1656181,Lake of the Ozarks,,53,,,5,,,,,,,,,,,,,,,
null,,confidence_buffer,1656297,confidence_buffer,,null,,,,,,,,,,,,,,,,,,
1076.2999999970198,,recognition_phase,1657376,Lake of the Ozarks,,49,,,,,,old,1,0.6458333333333334,,,,,,,,,,
null,,confidence_buffer,1657482,confidence_buffer,,null,,,,,,,,,,,,,,,,,,
null,,thebreak,1657989,break,,null,,,,,,,,,,,,,,,,,,
2257.2000000029802,,realistic_rating,1660249,Northbridge,,53,Northbridge,Fictional,5,,,,,,,,,,,,,,,
null,,confidence_buffer,1660363,confidence_buffer,,null,,,,,,,,,,,,,,,,,,
1825.9000000059605,,pt2_unique_rating,1662191,Northbridge,,53,,,5,,,,,,,,,,,,,,,
null,,confidence_buffer,1662296,confidence_buffer,,null,,,,,,,,,,,,,,,,,,
1409.7999999970198,,pt2_memorable_rating,1663708,Northbridge,,53,,,5,,,,,,,,,,,,,,,
null,,confidence_buffer,1663815,confidence_buffer,,null,,,,,,,,,,,,,,,,,,
1288.7000000029802,,recognition_phase,1665106,Northbridge,,49,,,,,,old,1,0.6530612244897959,,,,,,,,,,
null,,confidence_buffer,1665210,confidence_buffer,,null,,,,,,,,,,,,,,,,,,
null,,thebreak,1665713,break,,null,,,,,,,,,,,,,,,,,,
32265.5,,realistic_rating,1697981,North Arroya,,53,North Arroya,Fictional,5,,,,,,,,,,,,,,,
null,,confidence_buffer,1698097,confidence_buffer,,null,,,,,,,,,,,,,,,,,,
1042.1000000089407,,pt2_unique_rating,1699142,North Arroya,,52,,,4,,,,,,,,,,,,,,,
null,,confidence_buffer,1699248,confidence_buffer,,null,,,,,,,,,,,,,,,,,,
1542,,pt2_memorable_rating,1700793,North Arroya,,51,,,3,,,,,,,,,,,,,,,
null,,confidence_buffer,1700903,confidence_buffer,,null,,,,,,,,,,,,,,,,,,
1686.3999999910593,,recognition_phase,1702592,North Arroya,,49,,,,,,old,1,0.66,,,,,,,,,,
null,,confidence_buffer,1702700,confidence_buffer,,null,,,,,,,,,,,,,,,,,,
null,,thebreak,1703210,break,,null,,,,,,,,,,,,,,,,,,
2637.199999988079,,realistic_rating,1705850,Ashford Hills,,53,Ashford Hills,Fictional,5,,,,,,,,,,,,,,,
null,,confidence_buffer,1705957,confidence_buffer,,null,,,,,,,,,,,,,,,,,,
1023.2000000029802,,pt2_unique_rating,1706982,Ashford Hills,,51,,,3,,,,,,,,,,,,,,,
null,,confidence_buffer,1707099,confidence_buffer,,null,,,,,,,,,,,,,,,,,,
468.20000000298023,,pt2_memorable_rating,1707569,Ashford Hills,,52,,,4,,,,,,,,,,,,,,,
null,,confidence_buffer,1707682,confidence_buffer,,null,,,,,,,,,,,,,,,,,,
1159.2999999970198,,recognition_phase,1708844,Ashford Hills,,49,,,,,,old,1,0.6666666666666666,,,,,,,,,,
null,,confidence_buffer,1708951,confidence_buffer,,null,,,,,,,,,,,,,,,,,,
null,,thebreak,1709460,break,,null,,,,,,,,,,,,,,,,,,
2891.7999999970198,,realistic_rating,1712354,Brookmere,,53,Brookmere,Fictional,5,,,,,,,,,,,,,,,
null,,confidence_buffer,1712458,confidence_buffer,,null,,,,,,,,,,,,,,,,,,
1076.5999999940395,,pt2_unique_rating,1713537,Brookmere,,52,,,4,,,,,,,,,,,,,,,
null,,confidence_buffer,1713656,confidence_buffer,,null,,,,,,,,,,,,,,,,,,
647.2000000029802,,pt2_memorable_rating,1714305,Brookmere,,51,,,3,,,,,,,,,,,,,,,
null,,confidence_buffer,1714407,confidence_buffer,,null,,,,,,,,,,,,,,,,,,
1139.9000000059605,,recognition_phase,1715549,Brookmere,,49,,,,,,old,1,0.6730769230769231,,,,,,,,,,
null,,confidence_buffer,1715661,confidence_buffer,,null,,,,,,,,,,,,,,,,,,
null,,thebreak,1716171,break,,null,,,,,,,,,,,,,,,,,,
20134,,realistic_rating,1736307,Barnard,,49,Barnard,US,1,,,,,,,,,,,,,,,
null,,confidence_buffer,1736416,confidence_buffer,,null,,,,,,,,,,,,,,,,,,
708.2999999970198,,pt2_unique_rating,1737127,Barnard,,49,,,1,,,,,,,,,,,,,,,
null,,confidence_buffer,1737240,confidence_buffer,,null,,,,,,,,,,,,,,,,,,
976.5,,pt2_memorable_rating,1738218,Barnard,,50,,,2,,,,,,,,,,,,,,,
null,,confidence_buffer,1738327,confidence_buffer,,null,,,,,,,,,,,,,,,,,,
1833.2999999970198,,recognition_phase,1740163,Barnard,,52,,,,,,new,1,0.6792452830188679,,,,,,,,,,
null,,confidence_buffer,1740266,confidence_buffer,,null,,,,,,,,,,,,,,,,,,
null,,thebreak,1740774,break,,null,,,,,,,,,,,,,,,,,,
27934.20000000298,,realistic_rating,1768710,Maravilla Springs,,49,Maravilla Springs,Fictional,1,,,,,,,,,,,,,,,
null,,confidence_buffer,1768815,confidence_buffer,,null,,,,,,,,,,,,,,,,,,
661.3000000119209,,pt2_unique_rating,1769478,Maravilla Springs,,49,,,1,,,,,,,,,,,,,,,
null,,confidence_buffer,1769592,confidence_buffer,,null,,,,,,,,,,,,,,,,,,
1522.7000000029802,,pt2_memorable_rating,1771117,Maravilla Springs,,50,,,2,,,,,,,,,,,,,,,
null,,confidence_buffer,1771222,confidence_buffer,,null,,,,,,,,,,,,,,,,,,
2248.2000000029802,,recognition_phase,1773474,Maravilla Springs,,52,,,,,,new,1,0.6851851851851852,,,,,,,,,,
null,,confidence_buffer,1773583,confidence_buffer,,null,,,,,,,,,,,,,,,,,,
null,,thebreak,1774095,break,,null,,,,,,,,,,,,,,,,,,
1620.0999999940395,,realistic_rating,1775718,Crestwood,,53,Crestwood,Fictional,5,,,,,,,,,,,,,,,
null,,confidence_buffer,1775824,confidence_buffer,,null,,,,,,,,,,,,,,,,,,
1480.7999999970198,,pt2_unique_rating,1777307,Crestwood,,52,,,4,,,,,,,,,,,,,,,
null,,confidence_buffer,1777415,confidence_buffer,,null,,,,,,,,,,,,,,,,,,
891.2999999970198,,pt2_memorable_rating,1778308,Crestwood,,51,,,3,,,,,,,,,,,,,,,
null,,confidence_buffer,1778416,confidence_buffer,,null,,,,,,,,,,,,,,,,,,
1040.7000000029802,,recognition_phase,1779459,Crestwood,,49,,,,,,old,0,0.6727272727272727,,,,,,,,,,
null,,confidence_buffer,1779564,confidence_buffer,,null,,,,,,,,,,,,,,,,,,
null,,thebreak,1780080,break,,null,,,,,,,,,,,,,,,,,,
27474,,realistic_rating,1807557,Summershade,,49,Summershade,Fictional,1,,,,,,,,,,,,,,,
null,,confidence_buffer,1807666,confidence_buffer,,null,,,,,,,,,,,,,,,,,,
180.40000000596046,,pt2_unique_rating,1807849,Summershade,,49,,,1,,,,,,,,,,,,,,,
null,,confidence_buffer,1807966,confidence_buffer,,null,,,,,,,,,,,,,,,,,,
649.2000000029802,,pt2_memorable_rating,1808619,Summershade,,49,,,1,,,,,,,,,,,,,,,
null,,confidence_buffer,1808726,confidence_buffer,,null,,,,,,,,,,,,,,,,,,
1539.0999999940395,,recognition_phase,1810268,Summershade,,52,,,,,,new,1,0.6785714285714286,,,,,,,,,,
null,,confidence_buffer,1810378,confidence_buffer,,null,,,,,,,,,,,,,,,,,,
null,,thebreak,1810893,break,,null,,,,,,,,,,,,,,,,,,
16496,,realistic_rating,1827391,Abilene,,53,Abilene,US,5,,,,,,,,,,,,,,,
null,,confidence_buffer,1827500,confidence_buffer,,null,,,,,,,,,,,,,,,,,,
718.5,,pt2_unique_rating,1828221,Abilene,,52,,,4,,,,,,,,,,,,,,,
null,,confidence_buffer,1828339,confidence_buffer,,null,,,,,,,,,,,,,,,,,,
736.5999999940395,,pt2_memorable_rating,1829078,Abilene,,51,,,3,,,,,,,,,,,,,,,
null,,confidence_buffer,1829193,confidence_buffer,,null,,,,,,,,,,,,,,,,,,
1967.7999999970198,,recognition_phase,1831163,Abilene,,52,,,,,,new,1,0.6842105263157895,,,,,,,,,,
null,,confidence_buffer,1831267,confidence_buffer,,null,,,,,,,,,,,,,,,,,,
null,,thebreak,1831772,break,,null,,,,,,,,,,,,,,,,,,
18260.20000000298,,realistic_rating,1850034,Hot Springs,,53,Hot Springs,US,5,,,,,,,,,,,,,,,
null,,confidence_buffer,1850139,confidence_buffer,,null,,,,,,,,,,,,,,,,,,
863.5,,pt2_unique_rating,1851005,Hot Springs,,52,,,4,,,,,,,,,,,,,,,
null,,confidence_buffer,1851116,confidence_buffer,,null,,,,,,,,,,,,,,,,,,
1424.2000000029802,,probe_rating,1852542,probe_rating,,50,,,,2,1,,,,,,,,,,,,,
null,,confidence_buffer,1852656,confidence_buffer,,null,,,,,,,,,,,,,,,,,,
1451.2000000029802,,pt2_memorable_rating,1854109,Hot Springs,,52,,,4,,,,,,,,,,,,,,,
null,,confidence_buffer,1854228,confidence_buffer,,null,,,,,,,,,,,,,,,,,,
1496.2000000029802,,recognition_phase,1855728,Hot Springs,,49,,,,,,old,0,0.6724137931034483,,,,,,,,,,
null,,confidence_buffer,1855836,confidence_buffer,,null,,,,,,,,,,,,,,,,,,
null,,thebreak,1856340,break,,null,,,,,,,,,,,,,,,,,,
18750.60000000894,,realistic_rating,1875094,Gloucester,,53,Gloucester,US,5,,,,,,,,,,,,,,,
null,,confidence_buffer,1875198,confidence_buffer,,null,,,,,,,,,,,,,,,,,,
854.2000000029802,,pt2_unique_rating,1876054,Gloucester,,51,,,3,,,,,,,,,,,,,,,
null,,confidence_buffer,1876169,confidence_buffer,,null,,,,,,,,,,,,,,,,,,
651,,pt2_memorable_rating,1876822,Gloucester,,52,,,4,,,,,,,,,,,,,,,
null,,confidence_buffer,1876933,confidence_buffer,,null,,,,,,,,,,,,,,,,,,
1878,,recognition_phase,1878814,Gloucester,,52,,,,,,new,1,0.6779661016949152,,,,,,,,,,
null,,confidence_buffer,1878917,confidence_buffer,,null,,,,,,,,,,,,,,,,,,
null,,thebreak,1879426,break,,null,,,,,,,,,,,,,,,,,,
46755.79999999702,,realistic_rating,1926185,Watkins Glen,,50,Watkins Glen,US,2,,,,,,,,,,,,,,,
null,,confidence_buffer,1926295,confidence_buffer,,null,,,,,,,,,,,,,,,,,,
2313.0999999940395,,pt2_unique_rating,1928611,Watkins Glen,,50,,,2,,,,,,,,,,,,,,,
null,,confidence_buffer,1928724,confidence_buffer,,null,,,,,,,,,,,,,,,,,,
2445.300000011921,,pt2_memorable_rating,1931171,Watkins Glen,,49,,,1,,,,,,,,,,,,,,,
null,,confidence_buffer,1931286,confidence_buffer,,null,,,,,,,,,,,,,,,,,,
3844.1000000089407,,recognition_phase,1935134,Watkins Glen,,49,,,,,,old,1,0.6833333333333333,,,,,,,,,,
null,,confidence_buffer,1935244,confidence_buffer,,null,,,,,,,,,,,,,,,,,,
null,,thebreak,1935751,break,,null,,,,,,,,,,,,,,,,,,
,,survey,2528183,survey-questions,,,,,,,,,,,none,med,none,i was attentive and keen,i consider how often i have encountered the name before,i would think how easy the name is to recall after seeing,i would judge how distinct the name is from other city names.,i would evaluate whether the name sound as like it could plausibly be a real city name,no,the task was somehow difficult but simple if you pad attention
