rt,responses,trial_type,time_elapsed,stimulus,button_pressed,key_press,name_trial,rating,probe,probe_accuracy,response,correct,accuracy,problems,smooth,distraction,strategies,familiar,memorable,unique,realistic,similar,comments
6515.19999999553,{worker_id:55c237eefdf99b41c2f6481b},id_enter,6521,,,,,,,,,,,,,,,,,,,,
23978.20000000298,,fullscreen,30519,fullscreen,0,,,,,,,,,,,,,,,,,,
7052.29999999702,,intro_0,37598,instruct,,32,,,,,,,,,,,,,,,,,
22221,,intro_1,60118,instruct,,32,,,,,,,,,,,,,,,,,
3965.39999999851,,intro_2,64100,instruct,,32,,,,,,,,,,,,,,,,,
null,,instruct_dir_4,65610,instruct,,null,,,,,,,,,,,,,,,,,
null,,thebreak,66114,break,,null,,,,,,,,,,,,,,,,,
4630.89999999851,,familiar_rating,70756,Dothan,,53,Dothan,5,,,,,,,,,,,,,,,
null,,confidence_buffer,70862,confidence_buffer,,null,,,,,,,,,,,,,,,,,
4052.89999999851,,unique_rating,74917,Dothan,,52,,4,,,,,,,,,,,,,,,
null,,confidence_buffer,75019,confidence_buffer,,null,,,,,,,,,,,,,,,,,
3586.7999999970198,,memorable_rating,78608,Dothan,,50,,2,,,,,,,,,,,,,,,
null,,confidence_buffer,78710,confidence_buffer,,null,,,,,,,,,,,,,,,,,
null,,thebreak,79212,break,,null,,,,,,,,,,,,,,,,,
2376.0999999940395,,familiar_rating,81589,Abilene,,53,Abilene,5,,,,,,,,,,,,,,,
null,,confidence_buffer,81690,confidence_buffer,,null,,,,,,,,,,,,,,,,,
3037.39999999851,,unique_rating,84729,Abilene,,52,,4,,,,,,,,,,,,,,,
null,,confidence_buffer,84830,confidence_buffer,,null,,,,,,,,,,,,,,,,,
2567.10000000149,,memorable_rating,87398,Abilene,,53,,5,,,,,,,,,,,,,,,
null,,confidence_buffer,87501,confidence_buffer,,null,,,,,,,,,,,,,,,,,
null,,thebreak,88013,break,,null,,,,,,,,,,,,,,,,,
3560.5,,familiar_rating,91578,Fort Collins,,51,Fort Collins,3,,,,,,,,,,,,,,,
null,,confidence_buffer,91691,confidence_buffer,,null,,,,,,,,,,,,,,,,,
3266.1999999955297,,unique_rating,94970,Fort Collins,,49,,1,,,,,,,,,,,,,,,
null,,confidence_buffer,95074,confidence_buffer,,null,,,,,,,,,,,,,,,,,
2534.39999999851,,memorable_rating,97609,Fort Collins,,51,,3,,,,,,,,,,,,,,,
null,,confidence_buffer,97710,confidence_buffer,,null,,,,,,,,,,,,,,,,,
null,,thebreak,98218,break,,null,,,,,,,,,,,,,,,,,
4438.79999999702,,familiar_rating,102658,Ithaca,,50,Ithaca,2,,,,,,,,,,,,,,,
null,,confidence_buffer,102760,confidence_buffer,,null,,,,,,,,,,,,,,,,,
2158.0999999940395,,unique_rating,104919,Ithaca,,53,,5,,,,,,,,,,,,,,,
null,,confidence_buffer,105022,confidence_buffer,,null,,,,,,,,,,,,,,,,,
4037.1999999955297,,memorable_rating,109062,Ithaca,,51,,3,,,,,,,,,,,,,,,
null,,confidence_buffer,109164,confidence_buffer,,null,,,,,,,,,,,,,,,,,
2312.1999999955297,,probe_rating,111477,probe_rating,,49,,,1,1,,,,,,,,,,,,,
null,,confidence_buffer,111588,confidence_buffer,,null,,,,,,,,,,,,,,,,,
null,,thebreak,112100,break,,null,,,,,,,,,,,,,,,,,
3967.89999999851,,familiar_rating,116069,Tallahassee,,52,Tallahassee,4,,,,,,,,,,,,,,,
null,,confidence_buffer,116171,confidence_buffer,,null,,,,,,,,,,,,,,,,,
1475.8999999985099,,unique_rating,117649,Tallahassee,,53,,5,,,,,,,,,,,,,,,
null,,confidence_buffer,117750,confidence_buffer,,null,,,,,,,,,,,,,,,,,
2845.5,,memorable_rating,120597,Tallahassee,,52,,4,,,,,,,,,,,,,,,
null,,confidence_buffer,120699,confidence_buffer,,null,,,,,,,,,,,,,,,,,
null,,thebreak,121201,break,,null,,,,,,,,,,,,,,,,,
2236.89999999851,,familiar_rating,123439,Peoria,,52,Peoria,4,,,,,,,,,,,,,,,
null,,confidence_buffer,123541,confidence_buffer,,null,,,,,,,,,,,,,,,,,
3775.5,,unique_rating,127318,Peoria,,52,,4,,,,,,,,,,,,,,,
null,,confidence_buffer,127420,confidence_buffer,,null,,,,,,,,,,,,,,,,,
2509.89999999851,,memorable_rating,129931,Peoria,,51,,3,,,,,,,,,,,,,,,
null,,confidence_buffer,130033,confidence_buffer,,null,,,,,,,,,,,,,,,,,
null,,thebreak,130534,break,,null,,,,,,,,,,,,,,,,,
2902.2000000029802,,familiar_rating,133438,Fort Wayne,,51,Fort Wayne,3,,,,,,,,,,,,,,,
null,,confidence_buffer,133540,confidence_buffer,,null,,,,,,,,,,,,,,,,,
1865.8000000044703,,unique_rating,135407,Fort Wayne,,49,,1,,,,,,,,,,,,,,,
null,,confidence_buffer,135509,confidence_buffer,,null,,,,,,,,,,,,,,,,,
1684.5999999940395,,memorable_rating,137195,Fort Wayne,,50,,2,,,,,,,,,,,,,,,
null,,confidence_buffer,137297,confidence_buffer,,null,,,,,,,,,,,,,,,,,
null,,thebreak,137799,break,,null,,,,,,,,,,,,,,,,,
5003.79999999702,,familiar_rating,142804,Olympia,,51,Olympia,3,,,,,,,,,,,,,,,
null,,confidence_buffer,142906,confidence_buffer,,null,,,,,,,,,,,,,,,,,
2986.6999999955297,,unique_rating,145906,Olympia,,50,,2,,,,,,,,,,,,,,,
null,,confidence_buffer,146008,confidence_buffer,,null,,,,,,,,,,,,,,,,,
1459,,probe_rating,147480,probe_rating,,49,,,1,1,,,,,,,,,,,,,
null,,confidence_buffer,147581,confidence_buffer,,null,,,,,,,,,,,,,,,,,
2820.4000000059605,,memorable_rating,150409,Olympia,,50,,2,,,,,,,,,,,,,,,
null,,confidence_buffer,150512,confidence_buffer,,null,,,,,,,,,,,,,,,,,
null,,thebreak,151015,break,,null,,,,,,,,,,,,,,,,,
2251.5,,familiar_rating,153268,Cambridge,,52,Cambridge,4,,,,,,,,,,,,,,,
null,,confidence_buffer,153372,confidence_buffer,,null,,,,,,,,,,,,,,,,,
2301.5,,unique_rating,155675,Cambridge,,50,,2,,,,,,,,,,,,,,,
null,,confidence_buffer,155778,confidence_buffer,,null,,,,,,,,,,,,,,,,,
2029.5,,memorable_rating,157808,Cambridge,,51,,3,,,,,,,,,,,,,,,
null,,confidence_buffer,157915,confidence_buffer,,null,,,,,,,,,,,,,,,,,
null,,thebreak,158424,break,,null,,,,,,,,,,,,,,,,,
2243.2000000029802,,familiar_rating,160669,Salem,,52,Salem,4,,,,,,,,,,,,,,,
null,,confidence_buffer,160774,confidence_buffer,,null,,,,,,,,,,,,,,,,,
1939.3999999985099,,unique_rating,162715,Salem,,51,,3,,,,,,,,,,,,,,,
null,,confidence_buffer,162817,confidence_buffer,,null,,,,,,,,,,,,,,,,,
1701.3000000044703,,memorable_rating,164520,Salem,,52,,4,,,,,,,,,,,,,,,
null,,confidence_buffer,164623,confidence_buffer,,null,,,,,,,,,,,,,,,,,
null,,thebreak,165124,break,,null,,,,,,,,,,,,,,,,,
2630.7999999970198,,familiar_rating,167759,Stamford,,51,Stamford,3,,,,,,,,,,,,,,,
null,,confidence_buffer,167861,confidence_buffer,,null,,,,,,,,,,,,,,,,,
3167.89999999851,,unique_rating,171029,Stamford,,51,,3,,,,,,,,,,,,,,,
null,,confidence_buffer,171132,confidence_buffer,,null,,,,,,,,,,,,,,,,,
3806.2000000029802,,memorable_rating,174939,Stamford,,50,,2,,,,,,,,,,,,,,,
null,,confidence_buffer,175040,confidence_buffer,,null,,,,,,,,,,,,,,,,,
null,,thebreak,175541,break,,null,,,,,,,,,,,,,,,,,
2042.1999999955297,,familiar_rating,177586,Palo Alto,,51,Palo Alto,3,,,,,,,,,,,,,,,
null,,confidence_buffer,177687,confidence_buffer,,null,,,,,,,,,,,,,,,,,
4036.89999999851,,unique_rating,181725,Palo Alto,,53,,5,,,,,,,,,,,,,,,
null,,confidence_buffer,181829,confidence_buffer,,null,,,,,,,,,,,,,,,,,
3010.0999999940395,,memorable_rating,184840,Palo Alto,,50,,2,,,,,,,,,,,,,,,
null,,confidence_buffer,184942,confidence_buffer,,null,,,,,,,,,,,,,,,,,
null,,thebreak,185445,break,,null,,,,,,,,,,,,,,,,,
2802,,familiar_rating,188249,Bozeman,,51,Bozeman,3,,,,,,,,,,,,,,,
null,,confidence_buffer,188352,confidence_buffer,,null,,,,,,,,,,,,,,,,,
1264.1000000014901,,probe_rating,189635,probe_rating,,50,,,2,1,,,,,,,,,,,,,
null,,confidence_buffer,189756,confidence_buffer,,null,,,,,,,,,,,,,,,,,
2392.2000000029802,,unique_rating,192149,Bozeman,,53,,5,,,,,,,,,,,,,,,
null,,confidence_buffer,192254,confidence_buffer,,null,,,,,,,,,,,,,,,,,
3017.1999999955297,,memorable_rating,195273,Bozeman,,51,,3,,,,,,,,,,,,,,,
null,,confidence_buffer,195376,confidence_buffer,,null,,,,,,,,,,,,,,,,,
null,,thebreak,195879,break,,null,,,,,,,,,,,,,,,,,
2902.2999999970198,,familiar_rating,198782,Newport News,,51,Newport News,3,,,,,,,,,,,,,,,
null,,confidence_buffer,198885,confidence_buffer,,null,,,,,,,,,,,,,,,,,
4240.89999999851,,unique_rating,203127,Newport News,,53,,5,,,,,,,,,,,,,,,
null,,confidence_buffer,203478,confidence_buffer,,null,,,,,,,,,,,,,,,,,
2591.39999999851,,memorable_rating,206074,Newport News,,52,,4,,,,,,,,,,,,,,,
null,,confidence_buffer,206188,confidence_buffer,,null,,,,,,,,,,,,,,,,,
null,,thebreak,206690,break,,null,,,,,,,,,,,,,,,,,
2175.5999999940395,,familiar_rating,208866,Athens,,52,Athens,4,,,,,,,,,,,,,,,
null,,confidence_buffer,208968,confidence_buffer,,null,,,,,,,,,,,,,,,,,
2947,,unique_rating,211916,Athens,,49,,1,,,,,,,,,,,,,,,
null,,confidence_buffer,212020,confidence_buffer,,null,,,,,,,,,,,,,,,,,
5046.60000000149,,memorable_rating,217069,Athens,,52,,4,,,,,,,,,,,,,,,
null,,confidence_buffer,217178,confidence_buffer,,null,,,,,,,,,,,,,,,,,
null,,thebreak,217679,break,,null,,,,,,,,,,,,,,,,,
4012.5,,familiar_rating,221692,Toledo,,53,Toledo,5,,,,,,,,,,,,,,,
null,,confidence_buffer,221794,confidence_buffer,,null,,,,,,,,,,,,,,,,,
2973.39999999851,,unique_rating,224768,Toledo,,53,,5,,,,,,,,,,,,,,,
null,,confidence_buffer,224871,confidence_buffer,,null,,,,,,,,,,,,,,,,,
1482.2000000029802,,memorable_rating,226354,Toledo,,52,,4,,,,,,,,,,,,,,,
null,,confidence_buffer,226475,confidence_buffer,,null,,,,,,,,,,,,,,,,,
null,,thebreak,226976,break,,null,,,,,,,,,,,,,,,,,
2863.89999999851,,familiar_rating,229841,Boulder,,53,Boulder,5,,,,,,,,,,,,,,,
null,,confidence_buffer,229944,confidence_buffer,,null,,,,,,,,,,,,,,,,,
2024.2999999970198,,unique_rating,231969,Boulder,,51,,3,,,,,,,,,,,,,,,
null,,confidence_buffer,232359,confidence_buffer,,null,,,,,,,,,,,,,,,,,
2510.60000000149,,memorable_rating,234871,Boulder,,52,,4,,,,,,,,,,,,,,,
null,,confidence_buffer,234972,confidence_buffer,,null,,,,,,,,,,,,,,,,,
null,,thebreak,235486,break,,null,,,,,,,,,,,,,,,,,
1938.5999999940395,,familiar_rating,237426,Pasadena,,53,Pasadena,5,,,,,,,,,,,,,,,
null,,confidence_buffer,237543,confidence_buffer,,null,,,,,,,,,,,,,,,,,
1224.7999999970198,,unique_rating,238769,Pasadena,,52,,4,,,,,,,,,,,,,,,
null,,confidence_buffer,238871,confidence_buffer,,null,,,,,,,,,,,,,,,,,
1042.1999999955297,,memorable_rating,239914,Pasadena,,50,,2,,,,,,,,,,,,,,,
null,,confidence_buffer,240016,confidence_buffer,,null,,,,,,,,,,,,,,,,,
null,,thebreak,240517,break,,null,,,,,,,,,,,,,,,,,
1703,,familiar_rating,242221,Yakima,,53,Yakima,5,,,,,,,,,,,,,,,
null,,confidence_buffer,242322,confidence_buffer,,null,,,,,,,,,,,,,,,,,
2868.39999999851,,unique_rating,245192,Yakima,,53,,5,,,,,,,,,,,,,,,
null,,confidence_buffer,245295,confidence_buffer,,null,,,,,,,,,,,,,,,,,
2818.0999999940395,,memorable_rating,248116,Yakima,,50,,2,,,,,,,,,,,,,,,
null,,confidence_buffer,248218,confidence_buffer,,null,,,,,,,,,,,,,,,,,
null,,thebreak,248719,break,,null,,,,,,,,,,,,,,,,,
1875.5,,familiar_rating,250596,Hagerstown,,49,Hagerstown,1,,,,,,,,,,,,,,,
null,,confidence_buffer,250705,confidence_buffer,,null,,,,,,,,,,,,,,,,,
2562.60000000149,,unique_rating,253269,Hagerstown,,52,,4,,,,,,,,,,,,,,,
null,,confidence_buffer,253372,confidence_buffer,,null,,,,,,,,,,,,,,,,,
3412.10000000149,,memorable_rating,256785,Hagerstown,,50,,2,,,,,,,,,,,,,,,
null,,confidence_buffer,256889,confidence_buffer,,null,,,,,,,,,,,,,,,,,
null,,thebreak,257390,break,,null,,,,,,,,,,,,,,,,,
1733.6000000014901,,familiar_rating,259125,Muncie,,52,Muncie,4,,,,,,,,,,,,,,,
null,,confidence_buffer,259228,confidence_buffer,,null,,,,,,,,,,,,,,,,,
1185.8999999985099,,unique_rating,260418,Muncie,,51,,3,,,,,,,,,,,,,,,
null,,confidence_buffer,260520,confidence_buffer,,null,,,,,,,,,,,,,,,,,
1068.2000000029802,,memorable_rating,261589,Muncie,,50,,2,,,,,,,,,,,,,,,
null,,confidence_buffer,261692,confidence_buffer,,null,,,,,,,,,,,,,,,,,
null,,thebreak,262193,break,,null,,,,,,,,,,,,,,,,,
2153.0999999940395,,familiar_rating,264347,Syracuse,,53,Syracuse,5,,,,,,,,,,,,,,,
null,,confidence_buffer,264450,confidence_buffer,,null,,,,,,,,,,,,,,,,,
1688,,unique_rating,266139,Syracuse,,50,,2,,,,,,,,,,,,,,,
null,,confidence_buffer,266241,confidence_buffer,,null,,,,,,,,,,,,,,,,,
2105.39999999851,,memorable_rating,268348,Syracuse,,52,,4,,,,,,,,,,,,,,,
null,,confidence_buffer,268450,confidence_buffer,,null,,,,,,,,,,,,,,,,,
null,,thebreak,268952,break,,null,,,,,,,,,,,,,,,,,
2481.60000000149,,familiar_rating,271435,Marquette,,49,Marquette,1,,,,,,,,,,,,,,,
null,,confidence_buffer,271551,confidence_buffer,,null,,,,,,,,,,,,,,,,,
2017.5,,unique_rating,273570,Marquette,,52,,4,,,,,,,,,,,,,,,
null,,confidence_buffer,273681,confidence_buffer,,null,,,,,,,,,,,,,,,,,
1525,,memorable_rating,275220,Marquette,,50,,2,,,,,,,,,,,,,,,
null,,confidence_buffer,275322,confidence_buffer,,null,,,,,,,,,,,,,,,,,
null,,thebreak,275822,break,,null,,,,,,,,,,,,,,,,,
1671.7999999970198,,familiar_rating,277495,Bellingham,,49,Bellingham,1,,,,,,,,,,,,,,,
null,,confidence_buffer,277607,confidence_buffer,,null,,,,,,,,,,,,,,,,,
1052.3000000044703,,unique_rating,278661,Bellingham,,51,,3,,,,,,,,,,,,,,,
null,,confidence_buffer,278764,confidence_buffer,,null,,,,,,,,,,,,,,,,,
1873,,memorable_rating,280639,Bellingham,,51,,3,,,,,,,,,,,,,,,
null,,confidence_buffer,280742,confidence_buffer,,null,,,,,,,,,,,,,,,,,
null,,thebreak,281244,break,,null,,,,,,,,,,,,,,,,,
2209.89999999851,,familiar_rating,283456,Las Cruces,,49,Las Cruces,1,,,,,,,,,,,,,,,
null,,confidence_buffer,283558,confidence_buffer,,null,,,,,,,,,,,,,,,,,
1945.7000000029802,,unique_rating,285505,Las Cruces,,51,,3,,,,,,,,,,,,,,,
null,,confidence_buffer,285607,confidence_buffer,,null,,,,,,,,,,,,,,,,,
1372.5,,memorable_rating,286984,Las Cruces,,51,,3,,,,,,,,,,,,,,,
null,,confidence_buffer,287087,confidence_buffer,,null,,,,,,,,,,,,,,,,,
null,,thebreak,287589,break,,null,,,,,,,,,,,,,,,,,
6497.80000000447,,intro_0,294090,instruct,,32,,,,,,,,,,,,,,,,,
9948.10000000149,,intro_1,304045,instruct,,32,,,,,,,,,,,,,,,,,
26470.80000000447,,intro_2,330534,instruct,,32,,,,,,,,,,,,,,,,,
null,,instruct_dir_4,332073,instruct,,null,,,,,,,,,,,,,,,,,
4763.30000000447,,realistic_rating,336842,Boulder,,53,Boulder,5,,,,,,,,,,,,,,,
null,,confidence_buffer,336949,confidence_buffer,,null,,,,,,,,,,,,,,,,,
3650.10000000149,,pt2_unique_rating,340600,Boulder,,51,,3,,,,,,,,,,,,,,,
null,,confidence_buffer,340701,confidence_buffer,,null,,,,,,,,,,,,,,,,,
1737.7999999970198,,pt2_memorable_rating,342440,Boulder,,51,,3,,,,,,,,,,,,,,,
null,,confidence_buffer,342543,confidence_buffer,,null,,,,,,,,,,,,,,,,,
2049.7999999970198,,probe_rating,344595,probe_rating,,53,,,5,1,,,,,,,,,,,,,
null,,confidence_buffer,344697,confidence_buffer,,null,,,,,,,,,,,,,,,,,
2123.9000000059605,,recognition_phase,346828,Boulder,,49,,,,,old,1,1,,,,,,,,,,
null,,confidence_buffer,346934,confidence_buffer,,null,,,,,,,,,,,,,,,,,
null,,thebreak,347436,break,,null,,,,,,,,,,,,,,,,,
3965.7999999970198,,realistic_rating,351403,Bozeman,,53,Bozeman,5,,,,,,,,,,,,,,,
null,,confidence_buffer,351506,confidence_buffer,,null,,,,,,,,,,,,,,,,,
4331.5999999940395,,pt2_unique_rating,355839,Bozeman,,52,,4,,,,,,,,,,,,,,,
null,,confidence_buffer,355941,confidence_buffer,,null,,,,,,,,,,,,,,,,,
2719.60000000149,,pt2_memorable_rating,358662,Bozeman,,52,,4,,,,,,,,,,,,,,,
null,,confidence_buffer,358764,confidence_buffer,,null,,,,,,,,,,,,,,,,,
2353.10000000149,,recognition_phase,361118,Bozeman,,49,,,,,old,1,1,,,,,,,,,,
null,,confidence_buffer,361221,confidence_buffer,,null,,,,,,,,,,,,,,,,,
null,,thebreak,361722,break,,null,,,,,,,,,,,,,,,,,
2579,,realistic_rating,364303,Annapolis,,52,Annapolis,4,,,,,,,,,,,,,,,
null,,confidence_buffer,364406,confidence_buffer,,null,,,,,,,,,,,,,,,,,
3093.2000000029802,,pt2_unique_rating,367501,Annapolis,,52,,4,,,,,,,,,,,,,,,
null,,confidence_buffer,367603,confidence_buffer,,null,,,,,,,,,,,,,,,,,
3778.5,,pt2_memorable_rating,371392,Annapolis,,52,,4,,,,,,,,,,,,,,,
null,,confidence_buffer,371540,confidence_buffer,,null,,,,,,,,,,,,,,,,,
2720.2000000029802,,recognition_phase,374261,Annapolis,,52,,,,,new,1,1,,,,,,,,,,
null,,confidence_buffer,374364,confidence_buffer,,null,,,,,,,,,,,,,,,,,
null,,thebreak,374865,break,,null,,,,,,,,,,,,,,,,,
3295.0999999940395,,realistic_rating,378162,Yakima,,53,Yakima,5,,,,,,,,,,,,,,,
null,,confidence_buffer,378264,confidence_buffer,,null,,,,,,,,,,,,,,,,,
1484.3999999985099,,pt2_unique_rating,379750,Yakima,,53,,5,,,,,,,,,,,,,,,
null,,confidence_buffer,379852,confidence_buffer,,null,,,,,,,,,,,,,,,,,
4034.39999999851,,pt2_memorable_rating,383892,Yakima,,50,,2,,,,,,,,,,,,,,,
null,,confidence_buffer,384004,confidence_buffer,,null,,,,,,,,,,,,,,,,,
6284.19999999553,,recognition_phase,390291,Yakima,,50,,,,,old,1,1,,,,,,,,,,
null,,confidence_buffer,390400,confidence_buffer,,null,,,,,,,,,,,,,,,,,
null,,thebreak,390905,break,,null,,,,,,,,,,,,,,,,,
3520.89999999851,,realistic_rating,394430,Marquette,,53,Marquette,5,,,,,,,,,,,,,,,
null,,confidence_buffer,394532,confidence_buffer,,null,,,,,,,,,,,,,,,,,
2270.2000000029802,,pt2_unique_rating,396803,Marquette,,52,,4,,,,,,,,,,,,,,,
null,,confidence_buffer,396906,confidence_buffer,,null,,,,,,,,,,,,,,,,,
2281.5,,pt2_memorable_rating,399189,Marquette,,51,,3,,,,,,,,,,,,,,,
null,,confidence_buffer,399291,confidence_buffer,,null,,,,,,,,,,,,,,,,,
1938.7999999970198,,recognition_phase,401232,Marquette,,49,,,,,old,1,1,,,,,,,,,,
null,,confidence_buffer,401344,confidence_buffer,,null,,,,,,,,,,,,,,,,,
null,,thebreak,401892,break,,null,,,,,,,,,,,,,,,,,
2989.2999999970198,,realistic_rating,404885,Newport News,,52,Newport News,4,,,,,,,,,,,,,,,
null,,confidence_buffer,404987,confidence_buffer,,null,,,,,,,,,,,,,,,,,
1796,,pt2_unique_rating,406784,Newport News,,53,,5,,,,,,,,,,,,,,,
null,,confidence_buffer,406890,confidence_buffer,,null,,,,,,,,,,,,,,,,,
2448.89999999851,,pt2_memorable_rating,409342,Newport News,,52,,4,,,,,,,,,,,,,,,
null,,confidence_buffer,409445,confidence_buffer,,null,,,,,,,,,,,,,,,,,
4207.70000000298,,probe_rating,413658,probe_rating,,49,,,1,1,,,,,,,,,,,,,
null,,confidence_buffer,413771,confidence_buffer,,null,,,,,,,,,,,,,,,,,
1363.3000000044703,,recognition_phase,415141,Newport News,,49,,,,,old,1,1,,,,,,,,,,
null,,confidence_buffer,415245,confidence_buffer,,null,,,,,,,,,,,,,,,,,
null,,thebreak,415749,break,,null,,,,,,,,,,,,,,,,,
3467.7000000029802,,realistic_rating,419220,Montpelier,,53,Montpelier,5,,,,,,,,,,,,,,,
null,,confidence_buffer,419332,confidence_buffer,,null,,,,,,,,,,,,,,,,,
1621.2000000029802,,probe_rating,420956,probe_rating,,50,,,2,1,,,,,,,,,,,,,
null,,confidence_buffer,421059,confidence_buffer,,null,,,,,,,,,,,,,,,,,
1983.7999999970198,,pt2_unique_rating,423044,Montpelier,,53,,5,,,,,,,,,,,,,,,
null,,confidence_buffer,423146,confidence_buffer,,null,,,,,,,,,,,,,,,,,
3022.5,,pt2_memorable_rating,426170,Montpelier,,52,,4,,,,,,,,,,,,,,,
null,,confidence_buffer,426273,confidence_buffer,,null,,,,,,,,,,,,,,,,,
4542.4000000059605,,recognition_phase,430817,Montpelier,,52,,,,,new,1,1,,,,,,,,,,
null,,confidence_buffer,430919,confidence_buffer,,null,,,,,,,,,,,,,,,,,
null,,thebreak,431434,break,,null,,,,,,,,,,,,,,,,,
3048,,realistic_rating,434483,Champaign,,52,Champaign,4,,,,,,,,,,,,,,,
null,,confidence_buffer,434611,confidence_buffer,,null,,,,,,,,,,,,,,,,,
2005.6999999955297,,pt2_unique_rating,436618,Champaign,,52,,4,,,,,,,,,,,,,,,
null,,confidence_buffer,436721,confidence_buffer,,null,,,,,,,,,,,,,,,,,
2859.10000000149,,pt2_memorable_rating,439582,Champaign,,52,,4,,,,,,,,,,,,,,,
null,,confidence_buffer,439684,confidence_buffer,,null,,,,,,,,,,,,,,,,,
2447.7000000029802,,recognition_phase,442139,Champaign,,52,,,,,new,1,1,,,,,,,,,,
null,,confidence_buffer,442269,confidence_buffer,,null,,,,,,,,,,,,,,,,,
null,,thebreak,442775,break,,null,,,,,,,,,,,,,,,,,
1907.5,,realistic_rating,444684,Athens,,53,Athens,5,,,,,,,,,,,,,,,
null,,confidence_buffer,444786,confidence_buffer,,null,,,,,,,,,,,,,,,,,
3309.39999999851,,pt2_unique_rating,448096,Athens,,49,,1,,,,,,,,,,,,,,,
null,,confidence_buffer,448206,confidence_buffer,,null,,,,,,,,,,,,,,,,,
2369.5999999940395,,pt2_memorable_rating,450576,Athens,,52,,4,,,,,,,,,,,,,,,
null,,confidence_buffer,450679,confidence_buffer,,null,,,,,,,,,,,,,,,,,
3054.1999999955297,,recognition_phase,453734,Athens,,49,,,,,old,1,1,,,,,,,,,,
null,,confidence_buffer,453837,confidence_buffer,,null,,,,,,,,,,,,,,,,,
null,,thebreak,454339,break,,null,,,,,,,,,,,,,,,,,
3176,,realistic_rating,457518,Terre Haute,,53,Terre Haute,5,,,,,,,,,,,,,,,
null,,confidence_buffer,457620,confidence_buffer,,null,,,,,,,,,,,,,,,,,
1382.3999999985099,,pt2_unique_rating,459003,Terre Haute,,52,,4,,,,,,,,,,,,,,,
null,,confidence_buffer,459105,confidence_buffer,,null,,,,,,,,,,,,,,,,,
3401.3000000044703,,pt2_memorable_rating,462508,Terre Haute,,51,,3,,,,,,,,,,,,,,,
null,,confidence_buffer,462610,confidence_buffer,,null,,,,,,,,,,,,,,,,,
2746.10000000149,,recognition_phase,465357,Terre Haute,,52,,,,,new,1,1,,,,,,,,,,
null,,confidence_buffer,465460,confidence_buffer,,null,,,,,,,,,,,,,,,,,
null,,thebreak,465974,break,,null,,,,,,,,,,,,,,,,,
2378,,realistic_rating,468353,Fort Collins,,53,Fort Collins,5,,,,,,,,,,,,,,,
null,,confidence_buffer,468455,confidence_buffer,,null,,,,,,,,,,,,,,,,,
2219.8000000044703,,pt2_unique_rating,470676,Fort Collins,,49,,1,,,,,,,,,,,,,,,
null,,confidence_buffer,470777,confidence_buffer,,null,,,,,,,,,,,,,,,,,
1430.5,,probe_rating,472209,probe_rating,,52,,,4,1,,,,,,,,,,,,,
null,,confidence_buffer,472312,confidence_buffer,,null,,,,,,,,,,,,,,,,,
2782.7999999970198,,pt2_memorable_rating,475095,Fort Collins,,50,,2,,,,,,,,,,,,,,,
null,,confidence_buffer,475204,confidence_buffer,,null,,,,,,,,,,,,,,,,,
1929.1000000014901,,recognition_phase,477136,Fort Collins,,49,,,,,old,1,1,,,,,,,,,,
null,,confidence_buffer,477238,confidence_buffer,,null,,,,,,,,,,,,,,,,,
null,,thebreak,477740,break,,null,,,,,,,,,,,,,,,,,
2538.5,,realistic_rating,480281,Dubuque,,52,Dubuque,4,,,,,,,,,,,,,,,
null,,confidence_buffer,480384,confidence_buffer,,null,,,,,,,,,,,,,,,,,
3486.4000000059605,,pt2_unique_rating,483872,Dubuque,,53,,5,,,,,,,,,,,,,,,
null,,confidence_buffer,483973,confidence_buffer,,null,,,,,,,,,,,,,,,,,
1970.1000000014901,,pt2_memorable_rating,485945,Dubuque,,52,,4,,,,,,,,,,,,,,,
null,,confidence_buffer,486070,confidence_buffer,,null,,,,,,,,,,,,,,,,,
2211,,recognition_phase,488282,Dubuque,,52,,,,,new,1,1,,,,,,,,,,
null,,confidence_buffer,488386,confidence_buffer,,null,,,,,,,,,,,,,,,,,
null,,thebreak,488890,break,,null,,,,,,,,,,,,,,,,,
1938.4000000059605,,realistic_rating,490830,Bellingham,,52,Bellingham,4,,,,,,,,,,,,,,,
null,,confidence_buffer,490931,confidence_buffer,,null,,,,,,,,,,,,,,,,,
1993,,pt2_unique_rating,492926,Bellingham,,51,,3,,,,,,,,,,,,,,,
null,,confidence_buffer,493028,confidence_buffer,,null,,,,,,,,,,,,,,,,,
2362,,pt2_memorable_rating,495391,Bellingham,,51,,3,,,,,,,,,,,,,,,
null,,confidence_buffer,495494,confidence_buffer,,null,,,,,,,,,,,,,,,,,
1309.7000000029802,,recognition_phase,496804,Bellingham,,49,,,,,old,1,1,,,,,,,,,,
null,,confidence_buffer,496907,confidence_buffer,,null,,,,,,,,,,,,,,,,,
null,,thebreak,497418,break,,null,,,,,,,,,,,,,,,,,
2624,,realistic_rating,500043,Rock Springs,,53,Rock Springs,5,,,,,,,,,,,,,,,
null,,confidence_buffer,500146,confidence_buffer,,null,,,,,,,,,,,,,,,,,
2471.3000000044703,,pt2_unique_rating,502619,Rock Springs,,50,,2,,,,,,,,,,,,,,,
null,,confidence_buffer,502721,confidence_buffer,,null,,,,,,,,,,,,,,,,,
1730.3999999985099,,pt2_memorable_rating,504453,Rock Springs,,52,,4,,,,,,,,,,,,,,,
null,,confidence_buffer,504554,confidence_buffer,,null,,,,,,,,,,,,,,,,,
2636.7000000029802,,recognition_phase,507193,Rock Springs,,52,,,,,new,1,1,,,,,,,,,,
null,,confidence_buffer,507295,confidence_buffer,,null,,,,,,,,,,,,,,,,,
null,,thebreak,507797,break,,null,,,,,,,,,,,,,,,,,
2953.60000000149,,realistic_rating,510752,Las Cruces,,52,Las Cruces,4,,,,,,,,,,,,,,,
null,,confidence_buffer,510854,confidence_buffer,,null,,,,,,,,,,,,,,,,,
1668.1000000014901,,pt2_unique_rating,512523,Las Cruces,,52,,4,,,,,,,,,,,,,,,
null,,confidence_buffer,512624,confidence_buffer,,null,,,,,,,,,,,,,,,,,
2259.10000000149,,pt2_memorable_rating,514885,Las Cruces,,51,,3,,,,,,,,,,,,,,,
null,,confidence_buffer,515002,confidence_buffer,,null,,,,,,,,,,,,,,,,,
1579.6999999955297,,recognition_phase,516583,Las Cruces,,49,,,,,old,1,1,,,,,,,,,,
null,,confidence_buffer,516686,confidence_buffer,,null,,,,,,,,,,,,,,,,,
null,,thebreak,517188,break,,null,,,,,,,,,,,,,,,,,
4150.80000000447,,realistic_rating,521339,Palo Alto,,53,Palo Alto,5,,,,,,,,,,,,,,,
null,,confidence_buffer,521442,confidence_buffer,,null,,,,,,,,,,,,,,,,,
3486.2999999970198,,pt2_unique_rating,524929,Palo Alto,,51,,3,,,,,,,,,,,,,,,
null,,confidence_buffer,525032,confidence_buffer,,null,,,,,,,,,,,,,,,,,
1595.1000000014901,,pt2_memorable_rating,526628,Palo Alto,,51,,3,,,,,,,,,,,,,,,
null,,confidence_buffer,526730,confidence_buffer,,null,,,,,,,,,,,,,,,,,
1985,,recognition_phase,528717,Palo Alto,,49,,,,,old,1,1,,,,,,,,,,
null,,confidence_buffer,528819,confidence_buffer,,null,,,,,,,,,,,,,,,,,
null,,thebreak,529321,break,,null,,,,,,,,,,,,,,,,,
3263.89999999851,,realistic_rating,532586,Pueblo,,52,Pueblo,4,,,,,,,,,,,,,,,
null,,confidence_buffer,532690,confidence_buffer,,null,,,,,,,,,,,,,,,,,
2160.5,,pt2_unique_rating,534852,Pueblo,,52,,4,,,,,,,,,,,,,,,
null,,confidence_buffer,534954,confidence_buffer,,null,,,,,,,,,,,,,,,,,
1832.2000000029802,,pt2_memorable_rating,536789,Pueblo,,52,,4,,,,,,,,,,,,,,,
null,,confidence_buffer,536894,confidence_buffer,,null,,,,,,,,,,,,,,,,,
2813.9000000059605,,recognition_phase,539710,Pueblo,,51,,,,,new,1,1,,,,,,,,,,
null,,confidence_buffer,539813,confidence_buffer,,null,,,,,,,,,,,,,,,,,
null,,thebreak,540316,break,,null,,,,,,,,,,,,,,,,,
4018.7000000029802,,realistic_rating,544336,Topeka,,52,Topeka,4,,,,,,,,,,,,,,,
null,,confidence_buffer,544438,confidence_buffer,,null,,,,,,,,,,,,,,,,,
1429.2000000029802,,pt2_unique_rating,545869,Topeka,,52,,4,,,,,,,,,,,,,,,
null,,confidence_buffer,545971,confidence_buffer,,null,,,,,,,,,,,,,,,,,
1450.6999999955297,,pt2_memorable_rating,547423,Topeka,,52,,4,,,,,,,,,,,,,,,
null,,confidence_buffer,547529,confidence_buffer,,null,,,,,,,,,,,,,,,,,
2351.10000000149,,recognition_phase,549883,Topeka,,52,,,,,new,1,1,,,,,,,,,,
null,,confidence_buffer,549988,confidence_buffer,,null,,,,,,,,,,,,,,,,,
null,,thebreak,550490,break,,null,,,,,,,,,,,,,,,,,
3695.39999999851,,realistic_rating,554187,Tallahassee,,53,Tallahassee,5,,,,,,,,,,,,,,,
null,,confidence_buffer,554290,confidence_buffer,,null,,,,,,,,,,,,,,,,,
1704.7999999970198,,pt2_unique_rating,555997,Tallahassee,,53,,5,,,,,,,,,,,,,,,
null,,confidence_buffer,556100,confidence_buffer,,null,,,,,,,,,,,,,,,,,
1571.8999999985099,,pt2_memorable_rating,557673,Tallahassee,,52,,4,,,,,,,,,,,,,,,
null,,confidence_buffer,557776,confidence_buffer,,null,,,,,,,,,,,,,,,,,
1626.3000000044703,,recognition_phase,559404,Tallahassee,,49,,,,,old,1,1,,,,,,,,,,
null,,confidence_buffer,559507,confidence_buffer,,null,,,,,,,,,,,,,,,,,
null,,thebreak,560009,break,,null,,,,,,,,,,,,,,,,,
2519.10000000149,,realistic_rating,562529,Toledo,,52,Toledo,4,,,,,,,,,,,,,,,
null,,confidence_buffer,562632,confidence_buffer,,null,,,,,,,,,,,,,,,,,
1909.2000000029802,,pt2_unique_rating,564542,Toledo,,52,,4,,,,,,,,,,,,,,,
null,,confidence_buffer,564646,confidence_buffer,,null,,,,,,,,,,,,,,,,,
1268.2000000029802,,pt2_memorable_rating,565915,Toledo,,52,,4,,,,,,,,,,,,,,,
null,,confidence_buffer,566018,confidence_buffer,,null,,,,,,,,,,,,,,,,,
1084.3999999985099,,recognition_phase,567103,Toledo,,49,,,,,old,1,1,,,,,,,,,,
null,,confidence_buffer,567204,confidence_buffer,,null,,,,,,,,,,,,,,,,,
null,,thebreak,567706,break,,null,,,,,,,,,,,,,,,,,
2992.4000000059605,,realistic_rating,570699,Fort Wayne,,53,Fort Wayne,5,,,,,,,,,,,,,,,
null,,confidence_buffer,570802,confidence_buffer,,null,,,,,,,,,,,,,,,,,
2126.39999999851,,pt2_unique_rating,572929,Fort Wayne,,50,,2,,,,,,,,,,,,,,,
null,,confidence_buffer,573031,confidence_buffer,,null,,,,,,,,,,,,,,,,,
2997.2999999970198,,pt2_memorable_rating,576029,Fort Wayne,,50,,2,,,,,,,,,,,,,,,
null,,confidence_buffer,576132,confidence_buffer,,null,,,,,,,,,,,,,,,,,
3501.39999999851,,recognition_phase,579634,Fort Wayne,,49,,,,,old,1,1,,,,,,,,,,
null,,confidence_buffer,579737,confidence_buffer,,null,,,,,,,,,,,,,,,,,
null,,thebreak,580239,break,,null,,,,,,,,,,,,,,,,,
2170.7999999970198,,realistic_rating,582410,Pasadena,,52,Pasadena,4,,,,,,,,,,,,,,,
null,,confidence_buffer,582513,confidence_buffer,,null,,,,,,,,,,,,,,,,,
2730.89999999851,,pt2_unique_rating,585247,Pasadena,,52,,4,,,,,,,,,,,,,,,
null,,confidence_buffer,585358,confidence_buffer,,null,,,,,,,,,,,,,,,,,
1561.6000000014901,,pt2_memorable_rating,586922,Pasadena,,52,,4,,,,,,,,,,,,,,,
null,,confidence_buffer,587024,confidence_buffer,,null,,,,,,,,,,,,,,,,,
2949.8000000044703,,recognition_phase,589975,Pasadena,,50,,,,,old,1,1,,,,,,,,,,
null,,confidence_buffer,590092,confidence_buffer,,null,,,,,,,,,,,,,,,,,
null,,thebreak,590593,break,,null,,,,,,,,,,,,,,,,,
2790.0999999940395,,realistic_rating,593384,McKinney,,53,McKinney,5,,,,,,,,,,,,,,,
null,,confidence_buffer,593487,confidence_buffer,,null,,,,,,,,,,,,,,,,,
1348.1000000014901,,pt2_unique_rating,594836,McKinney,,52,,4,,,,,,,,,,,,,,,
null,,confidence_buffer,594943,confidence_buffer,,null,,,,,,,,,,,,,,,,,
1249.3999999985099,,probe_rating,596194,probe_rating,,49,,,1,1,,,,,,,,,,,,,
null,,confidence_buffer,596306,confidence_buffer,,null,,,,,,,,,,,,,,,,,
2276.89999999851,,pt2_memorable_rating,598584,McKinney,,50,,2,,,,,,,,,,,,,,,
null,,confidence_buffer,598687,confidence_buffer,,null,,,,,,,,,,,,,,,,,
1998.2999999970198,,recognition_phase,600686,McKinney,,52,,,,,new,1,1,,,,,,,,,,
null,,confidence_buffer,600789,confidence_buffer,,null,,,,,,,,,,,,,,,,,
null,,thebreak,601290,break,,null,,,,,,,,,,,,,,,,,
4915.89999999851,,realistic_rating,606208,Muncie,,52,Muncie,4,,,,,,,,,,,,,,,
null,,confidence_buffer,606345,confidence_buffer,,null,,,,,,,,,,,,,,,,,
1644.7999999970198,,pt2_unique_rating,607991,Muncie,,52,,4,,,,,,,,,,,,,,,
null,,confidence_buffer,608093,confidence_buffer,,null,,,,,,,,,,,,,,,,,
3238.2999999970198,,pt2_memorable_rating,611333,Muncie,,50,,2,,,,,,,,,,,,,,,
null,,confidence_buffer,611436,confidence_buffer,,null,,,,,,,,,,,,,,,,,
2508.89999999851,,recognition_phase,613946,Muncie,,51,,,,,new,0,0.9583333333333334,,,,,,,,,,
null,,confidence_buffer,614059,confidence_buffer,,null,,,,,,,,,,,,,,,,,
null,,thebreak,614560,break,,null,,,,,,,,,,,,,,,,,
2331.0999999940395,,realistic_rating,616892,Hagerstown,,52,Hagerstown,4,,,,,,,,,,,,,,,
null,,confidence_buffer,616994,confidence_buffer,,null,,,,,,,,,,,,,,,,,
2280,,probe_rating,619277,probe_rating,,52,,,4,1,,,,,,,,,,,,,
null,,confidence_buffer,619381,confidence_buffer,,null,,,,,,,,,,,,,,,,,
6090.39999999851,,pt2_unique_rating,625472,Hagerstown,,50,,2,,,,,,,,,,,,,,,
null,,confidence_buffer,625576,confidence_buffer,,null,,,,,,,,,,,,,,,,,
1560.8000000044703,,pt2_memorable_rating,627138,Hagerstown,,50,,2,,,,,,,,,,,,,,,
null,,confidence_buffer,627243,confidence_buffer,,null,,,,,,,,,,,,,,,,,
2727.10000000149,,recognition_phase,629973,Hagerstown,,52,,,,,new,0,0.92,,,,,,,,,,
null,,confidence_buffer,630075,confidence_buffer,,null,,,,,,,,,,,,,,,,,
null,,thebreak,630577,break,,null,,,,,,,,,,,,,,,,,
2291.2999999970198,,realistic_rating,632870,Santa Monica,,52,Santa Monica,4,,,,,,,,,,,,,,,
null,,confidence_buffer,632972,confidence_buffer,,null,,,,,,,,,,,,,,,,,
1366.1000000014901,,pt2_unique_rating,634339,Santa Monica,,52,,4,,,,,,,,,,,,,,,
null,,confidence_buffer,634441,confidence_buffer,,null,,,,,,,,,,,,,,,,,
1790.5999999940395,,pt2_memorable_rating,636233,Santa Monica,,52,,4,,,,,,,,,,,,,,,
null,,confidence_buffer,636335,confidence_buffer,,null,,,,,,,,,,,,,,,,,
2531.2000000029802,,recognition_phase,638870,Santa Monica,,51,,,,,new,1,0.9230769230769231,,,,,,,,,,
null,,confidence_buffer,638981,confidence_buffer,,null,,,,,,,,,,,,,,,,,
null,,thebreak,639484,break,,null,,,,,,,,,,,,,,,,,
2138.1999999955297,,realistic_rating,641627,Cambridge,,52,Cambridge,4,,,,,,,,,,,,,,,
null,,confidence_buffer,641730,confidence_buffer,,null,,,,,,,,,,,,,,,,,
3419.89999999851,,pt2_unique_rating,645151,Cambridge,,49,,1,,,,,,,,,,,,,,,
null,,confidence_buffer,645252,confidence_buffer,,null,,,,,,,,,,,,,,,,,
3033.3000000044703,,pt2_memorable_rating,648287,Cambridge,,52,,4,,,,,,,,,,,,,,,
null,,confidence_buffer,648389,confidence_buffer,,null,,,,,,,,,,,,,,,,,
2446.1999999955297,,recognition_phase,650837,Cambridge,,49,,,,,old,1,0.9259259259259259,,,,,,,,,,
null,,confidence_buffer,650939,confidence_buffer,,null,,,,,,,,,,,,,,,,,
null,,thebreak,651440,break,,null,,,,,,,,,,,,,,,,,
2204.8000000044703,,realistic_rating,653646,Decatur,,52,Decatur,4,,,,,,,,,,,,,,,
null,,confidence_buffer,653751,confidence_buffer,,null,,,,,,,,,,,,,,,,,
1941.7000000029802,,pt2_unique_rating,655699,Decatur,,52,,4,,,,,,,,,,,,,,,
null,,confidence_buffer,655800,confidence_buffer,,null,,,,,,,,,,,,,,,,,
2817.60000000149,,pt2_memorable_rating,658619,Decatur,,51,,3,,,,,,,,,,,,,,,
null,,confidence_buffer,658722,confidence_buffer,,null,,,,,,,,,,,,,,,,,
2590,,recognition_phase,661316,Decatur,,52,,,,,new,1,0.9285714285714286,,,,,,,,,,
null,,confidence_buffer,661420,confidence_buffer,,null,,,,,,,,,,,,,,,,,
null,,thebreak,661933,break,,null,,,,,,,,,,,,,,,,,
1936.4000000059605,,realistic_rating,663870,Abilene,,52,Abilene,4,,,,,,,,,,,,,,,
null,,confidence_buffer,663973,confidence_buffer,,null,,,,,,,,,,,,,,,,,
1673,,pt2_unique_rating,665647,Abilene,,52,,4,,,,,,,,,,,,,,,
null,,confidence_buffer,665748,confidence_buffer,,null,,,,,,,,,,,,,,,,,
1633.5,,pt2_memorable_rating,667383,Abilene,,52,,4,,,,,,,,,,,,,,,
null,,confidence_buffer,667485,confidence_buffer,,null,,,,,,,,,,,,,,,,,
2860.5,,probe_rating,670346,probe_rating,,52,,,4,1,,,,,,,,,,,,,
null,,confidence_buffer,670454,confidence_buffer,,null,,,,,,,,,,,,,,,,,
1710.3999999985099,,recognition_phase,672165,Abilene,,49,,,,,old,1,0.9310344827586207,,,,,,,,,,
null,,confidence_buffer,672281,confidence_buffer,,null,,,,,,,,,,,,,,,,,
null,,thebreak,672782,break,,null,,,,,,,,,,,,,,,,,
3371.39999999851,,realistic_rating,676154,Ann Arbor,,52,Ann Arbor,4,,,,,,,,,,,,,,,
null,,confidence_buffer,676256,confidence_buffer,,null,,,,,,,,,,,,,,,,,
2199.2999999970198,,pt2_unique_rating,678457,Ann Arbor,,53,,5,,,,,,,,,,,,,,,
null,,confidence_buffer,678583,confidence_buffer,,null,,,,,,,,,,,,,,,,,
2284.5,,pt2_memorable_rating,680869,Ann Arbor,,52,,4,,,,,,,,,,,,,,,
null,,confidence_buffer,680983,confidence_buffer,,null,,,,,,,,,,,,,,,,,
1433.1999999955297,,recognition_phase,682427,Ann Arbor,,52,,,,,new,1,0.9333333333333333,,,,,,,,,,
null,,confidence_buffer,682529,confidence_buffer,,null,,,,,,,,,,,,,,,,,
null,,thebreak,683040,break,,null,,,,,,,,,,,,,,,,,
2466.5999999940395,,realistic_rating,685509,Gainesville,,52,Gainesville,4,,,,,,,,,,,,,,,
null,,confidence_buffer,685610,confidence_buffer,,null,,,,,,,,,,,,,,,,,
1980.6000000014901,,pt2_unique_rating,687592,Gainesville,,50,,2,,,,,,,,,,,,,,,
null,,confidence_buffer,687709,confidence_buffer,,null,,,,,,,,,,,,,,,,,
1185.8999999985099,,pt2_memorable_rating,688896,Gainesville,,50,,2,,,,,,,,,,,,,,,
null,,confidence_buffer,689005,confidence_buffer,,null,,,,,,,,,,,,,,,,,
1298.6999999955297,,probe_rating,690305,probe_rating,,50,,,2,1,,,,,,,,,,,,,
null,,confidence_buffer,690406,confidence_buffer,,null,,,,,,,,,,,,,,,,,
2867.2000000029802,,recognition_phase,693275,Gainesville,,51,,,,,new,1,0.9354838709677419,,,,,,,,,,
null,,confidence_buffer,693378,confidence_buffer,,null,,,,,,,,,,,,,,,,,
null,,thebreak,693880,break,,null,,,,,,,,,,,,,,,,,
1825.7999999970198,,realistic_rating,695708,Reno,,52,Reno,4,,,,,,,,,,,,,,,
null,,confidence_buffer,695812,confidence_buffer,,null,,,,,,,,,,,,,,,,,
1534.2999999970198,,pt2_unique_rating,697348,Reno,,52,,4,,,,,,,,,,,,,,,
null,,confidence_buffer,697450,confidence_buffer,,null,,,,,,,,,,,,,,,,,
1404.3999999985099,,pt2_memorable_rating,698856,Reno,,51,,3,,,,,,,,,,,,,,,
null,,confidence_buffer,698957,confidence_buffer,,null,,,,,,,,,,,,,,,,,
2323.7000000029802,,recognition_phase,701282,Reno,,51,,,,,new,1,0.9375,,,,,,,,,,
null,,confidence_buffer,701385,confidence_buffer,,null,,,,,,,,,,,,,,,,,
null,,thebreak,701886,break,,null,,,,,,,,,,,,,,,,,
12185.10000000149,,realistic_rating,714111,Burlington,,52,Burlington,4,,,,,,,,,,,,,,,
null,,confidence_buffer,714307,confidence_buffer,,null,,,,,,,,,,,,,,,,,
569.8000000044703,,pt2_unique_rating,714880,Burlington,,52,,4,,,,,,,,,,,,,,,
null,,confidence_buffer,714983,confidence_buffer,,null,,,,,,,,,,,,,,,,,
2966.39999999851,,pt2_memorable_rating,717953,Burlington,,50,,2,,,,,,,,,,,,,,,
null,,confidence_buffer,718055,confidence_buffer,,null,,,,,,,,,,,,,,,,,
2409,,recognition_phase,720465,Burlington,,50,,,,,old,0,0.9090909090909091,,,,,,,,,,
null,,confidence_buffer,720567,confidence_buffer,,null,,,,,,,,,,,,,,,,,
null,,thebreak,721071,break,,null,,,,,,,,,,,,,,,,,
1666,,realistic_rating,722738,Concord,,52,Concord,4,,,,,,,,,,,,,,,
null,,confidence_buffer,722841,confidence_buffer,,null,,,,,,,,,,,,,,,,,
2321.8000000044703,,pt2_unique_rating,725168,Concord,,51,,3,,,,,,,,,,,,,,,
null,,confidence_buffer,725271,confidence_buffer,,null,,,,,,,,,,,,,,,,,
2106.10000000149,,pt2_memorable_rating,727378,Concord,,51,,3,,,,,,,,,,,,,,,
null,,confidence_buffer,727631,confidence_buffer,,null,,,,,,,,,,,,,,,,,
3726,,recognition_phase,731359,Concord,,51,,,,,new,1,0.9117647058823529,,,,,,,,,,
null,,confidence_buffer,731461,confidence_buffer,,null,,,,,,,,,,,,,,,,,
null,,thebreak,731963,break,,null,,,,,,,,,,,,,,,,,
1807.2000000029802,,realistic_rating,733771,Stamford,,52,Stamford,4,,,,,,,,,,,,,,,
null,,confidence_buffer,733873,confidence_buffer,,null,,,,,,,,,,,,,,,,,
2112.6999999955297,,pt2_unique_rating,735987,Stamford,,51,,3,,,,,,,,,,,,,,,
null,,confidence_buffer,736089,confidence_buffer,,null,,,,,,,,,,,,,,,,,
2313.0999999940395,,pt2_memorable_rating,738402,Stamford,,51,,3,,,,,,,,,,,,,,,
null,,confidence_buffer,738505,confidence_buffer,,null,,,,,,,,,,,,,,,,,
1349.1000000014901,,recognition_phase,739855,Stamford,,49,,,,,old,1,0.9142857142857143,,,,,,,,,,
null,,confidence_buffer,739957,confidence_buffer,,null,,,,,,,,,,,,,,,,,
null,,thebreak,740459,break,,null,,,,,,,,,,,,,,,,,
2730.2999999970198,,realistic_rating,743191,Boise,,52,Boise,4,,,,,,,,,,,,,,,
null,,confidence_buffer,743294,confidence_buffer,,null,,,,,,,,,,,,,,,,,
2034.1000000014901,,pt2_unique_rating,745341,Boise,,52,,4,,,,,,,,,,,,,,,
null,,confidence_buffer,745443,confidence_buffer,,null,,,,,,,,,,,,,,,,,
2670.1999999955297,,pt2_memorable_rating,748115,Boise,,52,,4,,,,,,,,,,,,,,,
null,,confidence_buffer,748217,confidence_buffer,,null,,,,,,,,,,,,,,,,,
1342.1000000014901,,recognition_phase,749560,Boise,,49,,,,,old,0,0.8888888888888888,,,,,,,,,,
null,,confidence_buffer,749663,confidence_buffer,,null,,,,,,,,,,,,,,,,,
null,,thebreak,750165,break,,null,,,,,,,,,,,,,,,,,
1428.8000000044703,,realistic_rating,751595,Ithaca,,52,Ithaca,4,,,,,,,,,,,,,,,
null,,confidence_buffer,751698,confidence_buffer,,null,,,,,,,,,,,,,,,,,
2510,,pt2_unique_rating,754210,Ithaca,,53,,5,,,,,,,,,,,,,,,
null,,confidence_buffer,754313,confidence_buffer,,null,,,,,,,,,,,,,,,,,
2580.9000000059605,,pt2_memorable_rating,756895,Ithaca,,52,,4,,,,,,,,,,,,,,,
null,,confidence_buffer,756997,confidence_buffer,,null,,,,,,,,,,,,,,,,,
1210.9000000059605,,recognition_phase,758209,Ithaca,,49,,,,,old,1,0.8918918918918919,,,,,,,,,,
null,,confidence_buffer,758312,confidence_buffer,,null,,,,,,,,,,,,,,,,,
null,,thebreak,758815,break,,null,,,,,,,,,,,,,,,,,
2435.60000000149,,realistic_rating,761254,Carson City,,53,Carson City,5,,,,,,,,,,,,,,,
null,,confidence_buffer,761358,confidence_buffer,,null,,,,,,,,,,,,,,,,,
1890,,pt2_unique_rating,763249,Carson City,,50,,2,,,,,,,,,,,,,,,
null,,confidence_buffer,763351,confidence_buffer,,null,,,,,,,,,,,,,,,,,
969.2000000029802,,pt2_memorable_rating,764323,Carson City,,50,,2,,,,,,,,,,,,,,,
null,,confidence_buffer,764424,confidence_buffer,,null,,,,,,,,,,,,,,,,,
3255.2000000029802,,recognition_phase,767681,Carson City,,51,,,,,new,1,0.8947368421052632,,,,,,,,,,
null,,confidence_buffer,767784,confidence_buffer,,null,,,,,,,,,,,,,,,,,
null,,thebreak,768286,break,,null,,,,,,,,,,,,,,,,,
2719.60000000149,,realistic_rating,771007,Altoona,,52,Altoona,4,,,,,,,,,,,,,,,
null,,confidence_buffer,771110,confidence_buffer,,null,,,,,,,,,,,,,,,,,
2219.3000000044703,,pt2_unique_rating,773330,Altoona,,53,,5,,,,,,,,,,,,,,,
null,,confidence_buffer,773433,confidence_buffer,,null,,,,,,,,,,,,,,,,,
2691.3000000044703,,pt2_memorable_rating,776125,Altoona,,50,,2,,,,,,,,,,,,,,,
null,,confidence_buffer,776227,confidence_buffer,,null,,,,,,,,,,,,,,,,,
2415.60000000149,,recognition_phase,778644,Altoona,,51,,,,,new,1,0.8974358974358975,,,,,,,,,,
null,,confidence_buffer,778748,confidence_buffer,,null,,,,,,,,,,,,,,,,,
null,,thebreak,779254,break,,null,,,,,,,,,,,,,,,,,
2508.39999999851,,realistic_rating,781764,Salem,,53,Salem,5,,,,,,,,,,,,,,,
null,,confidence_buffer,781867,confidence_buffer,,null,,,,,,,,,,,,,,,,,
3322.7000000029802,,probe_rating,785224,probe_rating,,50,,,2,1,,,,,,,,,,,,,
null,,confidence_buffer,785327,confidence_buffer,,null,,,,,,,,,,,,,,,,,
4296.20000000298,,pt2_unique_rating,789624,Salem,,51,,3,,,,,,,,,,,,,,,
null,,confidence_buffer,789726,confidence_buffer,,null,,,,,,,,,,,,,,,,,
5143,,pt2_memorable_rating,794870,Salem,,53,,5,,,,,,,,,,,,,,,
null,,confidence_buffer,794973,confidence_buffer,,null,,,,,,,,,,,,,,,,,
2759.39999999851,,recognition_phase,797763,Salem,,49,,,,,old,1,0.9,,,,,,,,,,
null,,confidence_buffer,797866,confidence_buffer,,null,,,,,,,,,,,,,,,,,
null,,thebreak,798375,break,,null,,,,,,,,,,,,,,,,,
2101.7000000029802,,realistic_rating,800478,Scottsdale,,52,Scottsdale,4,,,,,,,,,,,,,,,
null,,confidence_buffer,800580,confidence_buffer,,null,,,,,,,,,,,,,,,,,
1694.8999999985099,,pt2_unique_rating,802278,Scottsdale,,49,,1,,,,,,,,,,,,,,,
null,,confidence_buffer,802380,confidence_buffer,,null,,,,,,,,,,,,,,,,,
1712.2000000029802,,pt2_memorable_rating,804094,Scottsdale,,50,,2,,,,,,,,,,,,,,,
null,,confidence_buffer,804195,confidence_buffer,,null,,,,,,,,,,,,,,,,,
2778.2999999970198,,probe_rating,806974,probe_rating,,49,,,1,1,,,,,,,,,,,,,
null,,confidence_buffer,807077,confidence_buffer,,null,,,,,,,,,,,,,,,,,
2897.6999999955297,,recognition_phase,809977,Scottsdale,,51,,,,,new,1,0.9024390243902439,,,,,,,,,,
null,,confidence_buffer,810079,confidence_buffer,,null,,,,,,,,,,,,,,,,,
null,,thebreak,810580,break,,null,,,,,,,,,,,,,,,,,
1717.2999999970198,,realistic_rating,812299,Frankfort,,52,Frankfort,4,,,,,,,,,,,,,,,
null,,confidence_buffer,812401,confidence_buffer,,null,,,,,,,,,,,,,,,,,
2645.2999999970198,,pt2_unique_rating,815050,Frankfort,,50,,2,,,,,,,,,,,,,,,
null,,confidence_buffer,815152,confidence_buffer,,null,,,,,,,,,,,,,,,,,
1665.7000000029802,,probe_rating,816819,probe_rating,,53,,,5,1,,,,,,,,,,,,,
null,,confidence_buffer,816920,confidence_buffer,,null,,,,,,,,,,,,,,,,,
1662.8999999985099,,pt2_memorable_rating,818585,Frankfort,,50,,2,,,,,,,,,,,,,,,
null,,confidence_buffer,818687,confidence_buffer,,null,,,,,,,,,,,,,,,,,
1841.1999999955297,,recognition_phase,820530,Frankfort,,51,,,,,new,1,0.9047619047619048,,,,,,,,,,
null,,confidence_buffer,820642,confidence_buffer,,null,,,,,,,,,,,,,,,,,
null,,thebreak,821143,break,,null,,,,,,,,,,,,,,,,,
2920.7000000029802,,realistic_rating,824066,New Haven,,52,New Haven,4,,,,,,,,,,,,,,,
null,,confidence_buffer,824172,confidence_buffer,,null,,,,,,,,,,,,,,,,,
1704.1000000014901,,probe_rating,825877,probe_rating,,50,,,2,1,,,,,,,,,,,,,
null,,confidence_buffer,825982,confidence_buffer,,null,,,,,,,,,,,,,,,,,
3763.7000000029802,,pt2_unique_rating,829746,New Haven,,52,,4,,,,,,,,,,,,,,,
null,,confidence_buffer,829849,confidence_buffer,,null,,,,,,,,,,,,,,,,,
1948.8999999985099,,pt2_memorable_rating,831798,New Haven,,52,,4,,,,,,,,,,,,,,,
null,,confidence_buffer,831963,confidence_buffer,,null,,,,,,,,,,,,,,,,,
1525.7000000029802,,recognition_phase,833490,New Haven,,51,,,,,new,1,0.9069767441860465,,,,,,,,,,
null,,confidence_buffer,833594,confidence_buffer,,null,,,,,,,,,,,,,,,,,
null,,thebreak,834108,break,,null,,,,,,,,,,,,,,,,,
2145.39999999851,,realistic_rating,836257,Cheyenne,,52,Cheyenne,4,,,,,,,,,,,,,,,
null,,confidence_buffer,836359,confidence_buffer,,null,,,,,,,,,,,,,,,,,
1560.6000000014901,,pt2_unique_rating,837920,Cheyenne,,51,,3,,,,,,,,,,,,,,,
null,,confidence_buffer,838059,confidence_buffer,,null,,,,,,,,,,,,,,,,,
2465.0999999940395,,pt2_memorable_rating,840526,Cheyenne,,52,,4,,,,,,,,,,,,,,,
null,,confidence_buffer,840630,confidence_buffer,,null,,,,,,,,,,,,,,,,,
2468.2999999970198,,recognition_phase,843101,Cheyenne,,52,,,,,new,1,0.9090909090909091,,,,,,,,,,
null,,confidence_buffer,843208,confidence_buffer,,null,,,,,,,,,,,,,,,,,
null,,thebreak,843719,break,,null,,,,,,,,,,,,,,,,,
3186.7999999970198,,realistic_rating,846907,Olympia,,52,Olympia,4,,,,,,,,,,,,,,,
null,,confidence_buffer,847014,confidence_buffer,,null,,,,,,,,,,,,,,,,,
2036.7000000029802,,pt2_unique_rating,849052,Olympia,,51,,3,,,,,,,,,,,,,,,
null,,confidence_buffer,849155,confidence_buffer,,null,,,,,,,,,,,,,,,,,
1477.2000000029802,,pt2_memorable_rating,850633,Olympia,,52,,4,,,,,,,,,,,,,,,
null,,confidence_buffer,850735,confidence_buffer,,null,,,,,,,,,,,,,,,,,
1194.2999999970198,,recognition_phase,851932,Olympia,,49,,,,,old,1,0.9111111111111111,,,,,,,,,,
null,,confidence_buffer,852033,confidence_buffer,,null,,,,,,,,,,,,,,,,,
null,,thebreak,852535,break,,null,,,,,,,,,,,,,,,,,
2261,,realistic_rating,854797,Dothan,,52,Dothan,4,,,,,,,,,,,,,,,
null,,confidence_buffer,854902,confidence_buffer,,null,,,,,,,,,,,,,,,,,
1759.1000000014901,,pt2_unique_rating,856662,Dothan,,52,,4,,,,,,,,,,,,,,,
null,,confidence_buffer,856765,confidence_buffer,,null,,,,,,,,,,,,,,,,,
1729.7000000029802,,pt2_memorable_rating,858502,Dothan,,52,,4,,,,,,,,,,,,,,,
null,,confidence_buffer,858604,confidence_buffer,,null,,,,,,,,,,,,,,,,,
1754.1000000014901,,recognition_phase,860359,Dothan,,49,,,,,old,1,0.9130434782608695,,,,,,,,,,
null,,confidence_buffer,860460,confidence_buffer,,null,,,,,,,,,,,,,,,,,
null,,thebreak,860964,break,,null,,,,,,,,,,,,,,,,,
1369.1000000014901,,realistic_rating,862335,Peoria,,52,Peoria,4,,,,,,,,,,,,,,,
null,,confidence_buffer,862436,confidence_buffer,,null,,,,,,,,,,,,,,,,,
4288.60000000149,,pt2_unique_rating,866728,Peoria,,52,,4,,,,,,,,,,,,,,,
null,,confidence_buffer,866830,confidence_buffer,,null,,,,,,,,,,,,,,,,,
1683,,pt2_memorable_rating,868514,Peoria,,52,,4,,,,,,,,,,,,,,,
null,,confidence_buffer,868616,confidence_buffer,,null,,,,,,,,,,,,,,,,,
1010.2000000029802,,recognition_phase,869628,Peoria,,49,,,,,old,1,0.9148936170212766,,,,,,,,,,
null,,confidence_buffer,869733,confidence_buffer,,null,,,,,,,,,,,,,,,,,
null,,thebreak,870239,break,,null,,,,,,,,,,,,,,,,,
1708.6000000014901,,realistic_rating,871949,Berkeley,,52,Berkeley,4,,,,,,,,,,,,,,,
null,,confidence_buffer,872051,confidence_buffer,,null,,,,,,,,,,,,,,,,,
2189.6999999955297,,pt2_unique_rating,874245,Berkeley,,53,,5,,,,,,,,,,,,,,,
null,,confidence_buffer,874348,confidence_buffer,,null,,,,,,,,,,,,,,,,,
1698.2999999970198,,probe_rating,876047,probe_rating,,53,,,5,1,,,,,,,,,,,,,
null,,confidence_buffer,876150,confidence_buffer,,null,,,,,,,,,,,,,,,,,
2120.2000000029802,,pt2_memorable_rating,878271,Berkeley,,52,,4,,,,,,,,,,,,,,,
null,,confidence_buffer,878374,confidence_buffer,,null,,,,,,,,,,,,,,,,,
1700.5,,recognition_phase,880076,Berkeley,,52,,,,,new,1,0.9166666666666666,,,,,,,,,,
null,,confidence_buffer,880178,confidence_buffer,,null,,,,,,,,,,,,,,,,,
null,,thebreak,880680,break,,null,,,,,,,,,,,,,,,,,
1842.5,,realistic_rating,882524,Helena,,52,Helena,4,,,,,,,,,,,,,,,
null,,confidence_buffer,882626,confidence_buffer,,null,,,,,,,,,,,,,,,,,
1242.7000000029802,,probe_rating,883870,probe_rating,,50,,,2,1,,,,,,,,,,,,,
null,,confidence_buffer,883973,confidence_buffer,,null,,,,,,,,,,,,,,,,,
1940,,pt2_unique_rating,885915,Helena,,52,,4,,,,,,,,,,,,,,,
null,,confidence_buffer,886017,confidence_buffer,,null,,,,,,,,,,,,,,,,,
1924.2000000029802,,pt2_memorable_rating,887942,Helena,,51,,3,,,,,,,,,,,,,,,
null,,confidence_buffer,888045,confidence_buffer,,null,,,,,,,,,,,,,,,,,
1941.3999999985099,,recognition_phase,889988,Helena,,52,,,,,new,1,0.9183673469387755,,,,,,,,,,
null,,confidence_buffer,890089,confidence_buffer,,null,,,,,,,,,,,,,,,,,
null,,thebreak,890591,break,,null,,,,,,,,,,,,,,,,,
1472.3999999985099,,realistic_rating,892065,Syracuse,,52,Syracuse,4,,,,,,,,,,,,,,,
null,,confidence_buffer,892168,confidence_buffer,,null,,,,,,,,,,,,,,,,,
1568,,pt2_unique_rating,893737,Syracuse,,52,,4,,,,,,,,,,,,,,,
null,,confidence_buffer,893853,confidence_buffer,,null,,,,,,,,,,,,,,,,,
1651.2000000029802,,pt2_memorable_rating,895507,Syracuse,,52,,4,,,,,,,,,,,,,,,
null,,confidence_buffer,895609,confidence_buffer,,null,,,,,,,,,,,,,,,,,
1378,,recognition_phase,896988,Syracuse,,49,,,,,old,1,0.92,,,,,,,,,,
null,,confidence_buffer,897091,confidence_buffer,,null,,,,,,,,,,,,,,,,,
null,,thebreak,897594,break,,null,,,,,,,,,,,,,,,,,
,,survey,1030020,survey-questions,,,,,,,,,,none,high,no; i just paused briefly to take a sip of water that was on my desk,none,if I had been there or knew someone from there; very familiar.
if I had only heard of it; familiary,was it a common name or one that was too common to be memorable
was it so unusual it would be hard to forget,was it ordinary or different,feasible,no,no
