rt,responses,trial_type,time_elapsed,stimulus,button_pressed,key_press,name_trial,rating,probe,probe_accuracy,response,correct,accuracy,problems,smooth,distraction,strategies,familiar,memorable,unique,realistic,similar,comments
4042.900000002235,{worker_id:571bdf806b0894001262df5b},id_enter,4047,,,,,,,,,,,,,,,,,,,,
1785.5,,fullscreen,5895,fullscreen,0,,,,,,,,,,,,,,,,,,
5837.70000000298,,intro_0,11745,instruct,,32,,,,,,,,,,,,,,,,,
14998.5,,intro_1,26749,instruct,,32,,,,,,,,,,,,,,,,,
12355.20000000298,,intro_2,39107,instruct,,32,,,,,,,,,,,,,,,,,
null,,instruct_dir_4,40610,instruct,,null,,,,,,,,,,,,,,,,,
null,,thebreak,41125,break,,null,,,,,,,,,,,,,,,,,
6235.599999997765,,familiar_rating,47409,Topeka,,52,Topeka,4,,,,,,,,,,,,,,,
null,,confidence_buffer,47526,confidence_buffer,,null,,,,,,,,,,,,,,,,,
5887.79999999702,,unique_rating,53416,Topeka,,53,,5,,,,,,,,,,,,,,,
null,,confidence_buffer,53531,confidence_buffer,,null,,,,,,,,,,,,,,,,,
5718.89999999851,,memorable_rating,59252,Topeka,,53,,5,,,,,,,,,,,,,,,
null,,confidence_buffer,59369,confidence_buffer,,null,,,,,,,,,,,,,,,,,
null,,thebreak,59873,break,,null,,,,,,,,,,,,,,,,,
5453.400000002235,,familiar_rating,65329,Marquette,,51,Marquette,3,,,,,,,,,,,,,,,
null,,confidence_buffer,65433,confidence_buffer,,null,,,,,,,,,,,,,,,,,
2342.699999999255,,unique_rating,67778,Marquette,,53,,5,,,,,,,,,,,,,,,
null,,confidence_buffer,67895,confidence_buffer,,null,,,,,,,,,,,,,,,,,
1732.199999999255,,memorable_rating,69630,Marquette,,53,,5,,,,,,,,,,,,,,,
null,,confidence_buffer,69746,confidence_buffer,,null,,,,,,,,,,,,,,,,,
3097.800000000745,,probe_rating,72848,probe_rating,,53,,,5,1,,,,,,,,,,,,,
null,,confidence_buffer,72950,confidence_buffer,,null,,,,,,,,,,,,,,,,,
null,,thebreak,73466,break,,null,,,,,,,,,,,,,,,,,
4702.400000002235,,familiar_rating,78171,Annapolis,,53,Annapolis,5,,,,,,,,,,,,,,,
null,,confidence_buffer,78275,confidence_buffer,,null,,,,,,,,,,,,,,,,,
3734.39999999851,,unique_rating,82012,Annapolis,,52,,4,,,,,,,,,,,,,,,
null,,confidence_buffer,82130,confidence_buffer,,null,,,,,,,,,,,,,,,,,
3362.39999999851,,memorable_rating,85495,Annapolis,,53,,5,,,,,,,,,,,,,,,
null,,confidence_buffer,85604,confidence_buffer,,null,,,,,,,,,,,,,,,,,
null,,thebreak,86108,break,,null,,,,,,,,,,,,,,,,,
3336.39999999851,,familiar_rating,89447,Pasadena,,53,Pasadena,5,,,,,,,,,,,,,,,
null,,confidence_buffer,89562,confidence_buffer,,null,,,,,,,,,,,,,,,,,
3288.300000000745,,unique_rating,92853,Pasadena,,50,,2,,,,,,,,,,,,,,,
null,,confidence_buffer,92964,confidence_buffer,,null,,,,,,,,,,,,,,,,,
5414.60000000149,,memorable_rating,98380,Pasadena,,52,,4,,,,,,,,,,,,,,,
null,,confidence_buffer,98483,confidence_buffer,,null,,,,,,,,,,,,,,,,,
null,,thebreak,98985,break,,null,,,,,,,,,,,,,,,,,
2956.89999999851,,familiar_rating,101944,Decatur,,53,Decatur,5,,,,,,,,,,,,,,,
null,,confidence_buffer,102056,confidence_buffer,,null,,,,,,,,,,,,,,,,,
2727.699999999255,,unique_rating,104785,Decatur,,51,,3,,,,,,,,,,,,,,,
null,,confidence_buffer,104894,confidence_buffer,,null,,,,,,,,,,,,,,,,,
2568.5,,memorable_rating,107464,Decatur,,50,,2,,,,,,,,,,,,,,,
null,,confidence_buffer,107570,confidence_buffer,,null,,,,,,,,,,,,,,,,,
null,,thebreak,108087,break,,null,,,,,,,,,,,,,,,,,
4091.39999999851,,familiar_rating,112180,Palo Alto,,53,Palo Alto,5,,,,,,,,,,,,,,,
null,,confidence_buffer,112299,confidence_buffer,,null,,,,,,,,,,,,,,,,,
2218.400000002235,,unique_rating,114519,Palo Alto,,53,,5,,,,,,,,,,,,,,,
null,,confidence_buffer,114626,confidence_buffer,,null,,,,,,,,,,,,,,,,,
3992.89999999851,,memorable_rating,118621,Palo Alto,,53,,5,,,,,,,,,,,,,,,
null,,confidence_buffer,118737,confidence_buffer,,null,,,,,,,,,,,,,,,,,
null,,thebreak,119251,break,,null,,,,,,,,,,,,,,,,,
3951.699999999255,,familiar_rating,123205,Hagerstown,,53,Hagerstown,5,,,,,,,,,,,,,,,
null,,confidence_buffer,123318,confidence_buffer,,null,,,,,,,,,,,,,,,,,
2263.900000002235,,probe_rating,125585,probe_rating,,49,,,1,1,,,,,,,,,,,,,
null,,confidence_buffer,125696,confidence_buffer,,null,,,,,,,,,,,,,,,,,
2960.2999999970198,,unique_rating,128658,Hagerstown,,53,,5,,,,,,,,,,,,,,,
null,,confidence_buffer,128763,confidence_buffer,,null,,,,,,,,,,,,,,,,,
2009,,memorable_rating,130774,Hagerstown,,52,,4,,,,,,,,,,,,,,,
null,,confidence_buffer,130889,confidence_buffer,,null,,,,,,,,,,,,,,,,,
null,,thebreak,131405,break,,null,,,,,,,,,,,,,,,,,
4634.099999997765,,familiar_rating,136041,Olympia,,52,Olympia,4,,,,,,,,,,,,,,,
null,,confidence_buffer,136154,confidence_buffer,,null,,,,,,,,,,,,,,,,,
1900.3999999985099,,unique_rating,138057,Olympia,,50,,2,,,,,,,,,,,,,,,
null,,confidence_buffer,138163,confidence_buffer,,null,,,,,,,,,,,,,,,,,
1627.3999999985099,,memorable_rating,139792,Olympia,,51,,3,,,,,,,,,,,,,,,
null,,confidence_buffer,139897,confidence_buffer,,null,,,,,,,,,,,,,,,,,
null,,thebreak,140414,break,,null,,,,,,,,,,,,,,,,,
2449.60000000149,,familiar_rating,142866,Scottsdale,,53,Scottsdale,5,,,,,,,,,,,,,,,
null,,confidence_buffer,142980,confidence_buffer,,null,,,,,,,,,,,,,,,,,
3601.2999999970198,,unique_rating,146583,Scottsdale,,52,,4,,,,,,,,,,,,,,,
null,,confidence_buffer,146694,confidence_buffer,,null,,,,,,,,,,,,,,,,,
2974.300000000745,,memorable_rating,149671,Scottsdale,,53,,5,,,,,,,,,,,,,,,
null,,confidence_buffer,149776,confidence_buffer,,null,,,,,,,,,,,,,,,,,
null,,thebreak,150289,break,,null,,,,,,,,,,,,,,,,,
5594.699999999255,,familiar_rating,155886,New Haven,,53,New Haven,5,,,,,,,,,,,,,,,
null,,confidence_buffer,155997,confidence_buffer,,null,,,,,,,,,,,,,,,,,
3030.5,,unique_rating,159030,New Haven,,49,,1,,,,,,,,,,,,,,,
null,,confidence_buffer,159145,confidence_buffer,,null,,,,,,,,,,,,,,,,,
1800.199999999255,,memorable_rating,160947,New Haven,,50,,2,,,,,,,,,,,,,,,
null,,confidence_buffer,161059,confidence_buffer,,null,,,,,,,,,,,,,,,,,
null,,thebreak,161562,break,,null,,,,,,,,,,,,,,,,,
4998.60000000149,,familiar_rating,166564,Champaign,,53,Champaign,5,,,,,,,,,,,,,,,
null,,confidence_buffer,166667,confidence_buffer,,null,,,,,,,,,,,,,,,,,
1505,,unique_rating,168174,Champaign,,51,,3,,,,,,,,,,,,,,,
null,,confidence_buffer,168278,confidence_buffer,,null,,,,,,,,,,,,,,,,,
1988.800000000745,,memorable_rating,170269,Champaign,,51,,3,,,,,,,,,,,,,,,
null,,confidence_buffer,170379,confidence_buffer,,null,,,,,,,,,,,,,,,,,
null,,thebreak,170896,break,,null,,,,,,,,,,,,,,,,,
3056.89999999851,,familiar_rating,173956,Altoona,,53,Altoona,5,,,,,,,,,,,,,,,
null,,confidence_buffer,174059,confidence_buffer,,null,,,,,,,,,,,,,,,,,
1982.699999999255,,unique_rating,176044,Altoona,,53,,5,,,,,,,,,,,,,,,
null,,confidence_buffer,176147,confidence_buffer,,null,,,,,,,,,,,,,,,,,
1896.0999999977648,,memorable_rating,178044,Altoona,,51,,3,,,,,,,,,,,,,,,
null,,confidence_buffer,178154,confidence_buffer,,null,,,,,,,,,,,,,,,,,
null,,thebreak,178659,break,,null,,,,,,,,,,,,,,,,,
2559.599999997765,,familiar_rating,181220,Cheyenne,,53,Cheyenne,5,,,,,,,,,,,,,,,
null,,confidence_buffer,181330,confidence_buffer,,null,,,,,,,,,,,,,,,,,
3089.300000000745,,unique_rating,184422,Cheyenne,,50,,2,,,,,,,,,,,,,,,
null,,confidence_buffer,184530,confidence_buffer,,null,,,,,,,,,,,,,,,,,
1863.5999999977648,,probe_rating,186397,probe_rating,,52,,,4,1,,,,,,,,,,,,,
null,,confidence_buffer,186511,confidence_buffer,,null,,,,,,,,,,,,,,,,,
3898.39999999851,,memorable_rating,190412,Cheyenne,,53,,5,,,,,,,,,,,,,,,
null,,confidence_buffer,190521,confidence_buffer,,null,,,,,,,,,,,,,,,,,
null,,thebreak,191035,break,,null,,,,,,,,,,,,,,,,,
4871.5,,familiar_rating,195909,Terre Haute,,52,Terre Haute,4,,,,,,,,,,,,,,,
null,,confidence_buffer,196019,confidence_buffer,,null,,,,,,,,,,,,,,,,,
2790.2999999970198,,unique_rating,198811,Terre Haute,,53,,5,,,,,,,,,,,,,,,
null,,confidence_buffer,198925,confidence_buffer,,null,,,,,,,,,,,,,,,,,
1380.8999999985099,,memorable_rating,200308,Terre Haute,,52,,4,,,,,,,,,,,,,,,
null,,confidence_buffer,200422,confidence_buffer,,null,,,,,,,,,,,,,,,,,
null,,thebreak,200939,break,,null,,,,,,,,,,,,,,,,,
2878.10000000149,,familiar_rating,203819,Peoria,,53,Peoria,5,,,,,,,,,,,,,,,
null,,confidence_buffer,203928,confidence_buffer,,null,,,,,,,,,,,,,,,,,
3271.599999997765,,unique_rating,207202,Peoria,,52,,4,,,,,,,,,,,,,,,
null,,confidence_buffer,207312,confidence_buffer,,null,,,,,,,,,,,,,,,,,
1077.800000000745,,memorable_rating,208393,Peoria,,52,,4,,,,,,,,,,,,,,,
null,,confidence_buffer,208502,confidence_buffer,,null,,,,,,,,,,,,,,,,,
null,,thebreak,209003,break,,null,,,,,,,,,,,,,,,,,
2316,,familiar_rating,211322,Boulder,,53,Boulder,5,,,,,,,,,,,,,,,
null,,confidence_buffer,211428,confidence_buffer,,null,,,,,,,,,,,,,,,,,
2141.10000000149,,unique_rating,213572,Boulder,,51,,3,,,,,,,,,,,,,,,
null,,confidence_buffer,213677,confidence_buffer,,null,,,,,,,,,,,,,,,,,
2066.39999999851,,probe_rating,215747,probe_rating,,53,,,5,1,,,,,,,,,,,,,
null,,confidence_buffer,215851,confidence_buffer,,null,,,,,,,,,,,,,,,,,
4955.800000000745,,memorable_rating,220809,Boulder,,51,,3,,,,,,,,,,,,,,,
null,,confidence_buffer,220917,confidence_buffer,,null,,,,,,,,,,,,,,,,,
null,,thebreak,221431,break,,null,,,,,,,,,,,,,,,,,
5066.400000002235,,familiar_rating,226500,Youngstown,,53,Youngstown,5,,,,,,,,,,,,,,,
null,,confidence_buffer,226616,confidence_buffer,,null,,,,,,,,,,,,,,,,,
2366.400000002235,,unique_rating,228985,Youngstown,,50,,2,,,,,,,,,,,,,,,
null,,confidence_buffer,229101,confidence_buffer,,null,,,,,,,,,,,,,,,,,
1378.6000000014901,,memorable_rating,230482,Youngstown,,51,,3,,,,,,,,,,,,,,,
null,,confidence_buffer,230593,confidence_buffer,,null,,,,,,,,,,,,,,,,,
null,,thebreak,231110,break,,null,,,,,,,,,,,,,,,,,
2561.800000000745,,familiar_rating,233674,Bozeman,,53,Bozeman,5,,,,,,,,,,,,,,,
null,,confidence_buffer,233792,confidence_buffer,,null,,,,,,,,,,,,,,,,,
3201.599999997765,,unique_rating,236996,Bozeman,,53,,5,,,,,,,,,,,,,,,
null,,confidence_buffer,237107,confidence_buffer,,null,,,,,,,,,,,,,,,,,
1597.699999999255,,memorable_rating,238706,Bozeman,,52,,4,,,,,,,,,,,,,,,
null,,confidence_buffer,238815,confidence_buffer,,null,,,,,,,,,,,,,,,,,
null,,thebreak,239318,break,,null,,,,,,,,,,,,,,,,,
4964.10000000149,,familiar_rating,244284,Las Cruces,,52,Las Cruces,4,,,,,,,,,,,,,,,
null,,confidence_buffer,244398,confidence_buffer,,null,,,,,,,,,,,,,,,,,
3307.5,,unique_rating,247708,Las Cruces,,53,,5,,,,,,,,,,,,,,,
null,,confidence_buffer,247814,confidence_buffer,,null,,,,,,,,,,,,,,,,,
2012,,memorable_rating,249829,Las Cruces,,52,,4,,,,,,,,,,,,,,,
null,,confidence_buffer,249937,confidence_buffer,,null,,,,,,,,,,,,,,,,,
null,,thebreak,250441,break,,null,,,,,,,,,,,,,,,,,
2430.2999999970198,,familiar_rating,252873,Toledo,,53,Toledo,5,,,,,,,,,,,,,,,
null,,confidence_buffer,252977,confidence_buffer,,null,,,,,,,,,,,,,,,,,
2294,,unique_rating,255273,Toledo,,52,,4,,,,,,,,,,,,,,,
null,,confidence_buffer,255390,confidence_buffer,,null,,,,,,,,,,,,,,,,,
2190.89999999851,,memorable_rating,257583,Toledo,,52,,4,,,,,,,,,,,,,,,
null,,confidence_buffer,257699,confidence_buffer,,null,,,,,,,,,,,,,,,,,
null,,thebreak,258204,break,,null,,,,,,,,,,,,,,,,,
3371.800000000745,,familiar_rating,261578,Concord,,53,Concord,5,,,,,,,,,,,,,,,
null,,confidence_buffer,261693,confidence_buffer,,null,,,,,,,,,,,,,,,,,
2592,,unique_rating,264287,Concord,,50,,2,,,,,,,,,,,,,,,
null,,confidence_buffer,264398,confidence_buffer,,null,,,,,,,,,,,,,,,,,
1812.6000000014901,,memorable_rating,266212,Concord,,50,,2,,,,,,,,,,,,,,,
null,,confidence_buffer,266325,confidence_buffer,,null,,,,,,,,,,,,,,,,,
null,,thebreak,266841,break,,null,,,,,,,,,,,,,,,,,
4561.70000000298,,familiar_rating,271405,Fort Wayne,,52,Fort Wayne,4,,,,,,,,,,,,,,,
null,,confidence_buffer,271517,confidence_buffer,,null,,,,,,,,,,,,,,,,,
3085.300000000745,,unique_rating,274605,Fort Wayne,,50,,2,,,,,,,,,,,,,,,
null,,confidence_buffer,274716,confidence_buffer,,null,,,,,,,,,,,,,,,,,
2223.7999999970198,,memorable_rating,276942,Fort Wayne,,51,,3,,,,,,,,,,,,,,,
null,,confidence_buffer,277049,confidence_buffer,,null,,,,,,,,,,,,,,,,,
null,,thebreak,277557,break,,null,,,,,,,,,,,,,,,,,
4515.800000000745,,familiar_rating,282075,Dothan,,53,Dothan,5,,,,,,,,,,,,,,,
null,,confidence_buffer,282184,confidence_buffer,,null,,,,,,,,,,,,,,,,,
2856.199999999255,,unique_rating,285043,Dothan,,52,,4,,,,,,,,,,,,,,,
null,,confidence_buffer,285151,confidence_buffer,,null,,,,,,,,,,,,,,,,,
2848.599999997765,,memorable_rating,288002,Dothan,,50,,2,,,,,,,,,,,,,,,
null,,confidence_buffer,288108,confidence_buffer,,null,,,,,,,,,,,,,,,,,
1525.300000000745,,probe_rating,289636,probe_rating,,51,,,3,1,,,,,,,,,,,,,
null,,confidence_buffer,289739,confidence_buffer,,null,,,,,,,,,,,,,,,,,
null,,thebreak,290254,break,,null,,,,,,,,,,,,,,,,,
4078.300000000745,,familiar_rating,294335,Gainesville,,53,Gainesville,5,,,,,,,,,,,,,,,
null,,confidence_buffer,294451,confidence_buffer,,null,,,,,,,,,,,,,,,,,
3700.800000000745,,unique_rating,298154,Gainesville,,50,,2,,,,,,,,,,,,,,,
null,,confidence_buffer,298269,confidence_buffer,,null,,,,,,,,,,,,,,,,,
4150.79999999702,,memorable_rating,302422,Gainesville,,50,,2,,,,,,,,,,,,,,,
null,,confidence_buffer,302540,confidence_buffer,,null,,,,,,,,,,,,,,,,,
null,,thebreak,303043,break,,null,,,,,,,,,,,,,,,,,
3267,,familiar_rating,306312,Syracuse,,53,Syracuse,5,,,,,,,,,,,,,,,
null,,confidence_buffer,306420,confidence_buffer,,null,,,,,,,,,,,,,,,,,
3253.599999997765,,unique_rating,309676,Syracuse,,52,,4,,,,,,,,,,,,,,,
null,,confidence_buffer,309785,confidence_buffer,,null,,,,,,,,,,,,,,,,,
1882.7000000029802,,memorable_rating,311670,Syracuse,,52,,4,,,,,,,,,,,,,,,
null,,confidence_buffer,311779,confidence_buffer,,null,,,,,,,,,,,,,,,,,
null,,thebreak,312295,break,,null,,,,,,,,,,,,,,,,,
4330.10000000149,,intro_0,316627,instruct,,32,,,,,,,,,,,,,,,,,
9248.39999999851,,intro_1,325877,instruct,,32,,,,,,,,,,,,,,,,,
19701.800000000745,,intro_2,345581,instruct,,32,,,,,,,,,,,,,,,,,
null,,instruct_dir_4,347096,instruct,,null,,,,,,,,,,,,,,,,,
7859.89999999851,,realistic_rating,354958,Concord,,53,Concord,5,,,,,,,,,,,,,,,
null,,confidence_buffer,355063,confidence_buffer,,null,,,,,,,,,,,,,,,,,
2586.39999999851,,pt2_unique_rating,357652,Concord,,50,,2,,,,,,,,,,,,,,,
null,,confidence_buffer,357761,confidence_buffer,,null,,,,,,,,,,,,,,,,,
2601.39999999851,,pt2_memorable_rating,360365,Concord,,51,,3,,,,,,,,,,,,,,,
null,,confidence_buffer,360480,confidence_buffer,,null,,,,,,,,,,,,,,,,,
3827.60000000149,,recognition_phase,364311,Concord,,49,,,,,old,1,1,,,,,,,,,,
null,,confidence_buffer,364428,confidence_buffer,,null,,,,,,,,,,,,,,,,,
null,,thebreak,364943,break,,null,,,,,,,,,,,,,,,,,
6160.099999997765,,realistic_rating,371106,Salem,,53,Salem,5,,,,,,,,,,,,,,,
null,,confidence_buffer,371212,confidence_buffer,,null,,,,,,,,,,,,,,,,,
3077.2000000029802,,pt2_unique_rating,374291,Salem,,51,,3,,,,,,,,,,,,,,,
null,,confidence_buffer,374401,confidence_buffer,,null,,,,,,,,,,,,,,,,,
1793.699999999255,,pt2_memorable_rating,376197,Salem,,52,,4,,,,,,,,,,,,,,,
null,,confidence_buffer,376308,confidence_buffer,,null,,,,,,,,,,,,,,,,,
3324,,recognition_phase,379635,Salem,,52,,,,,new,1,1,,,,,,,,,,
null,,confidence_buffer,379742,confidence_buffer,,null,,,,,,,,,,,,,,,,,
null,,thebreak,380245,break,,null,,,,,,,,,,,,,,,,,
6835.5,,realistic_rating,387083,Muncie,,53,Muncie,5,,,,,,,,,,,,,,,
null,,confidence_buffer,387191,confidence_buffer,,null,,,,,,,,,,,,,,,,,
1754.6000000014901,,pt2_unique_rating,388948,Muncie,,52,,4,,,,,,,,,,,,,,,
null,,confidence_buffer,389061,confidence_buffer,,null,,,,,,,,,,,,,,,,,
2494.400000002235,,pt2_memorable_rating,391558,Muncie,,52,,4,,,,,,,,,,,,,,,
null,,confidence_buffer,391669,confidence_buffer,,null,,,,,,,,,,,,,,,,,
3726.199999999255,,recognition_phase,395398,Muncie,,52,,,,,new,1,1,,,,,,,,,,
null,,confidence_buffer,395507,confidence_buffer,,null,,,,,,,,,,,,,,,,,
null,,thebreak,396013,break,,null,,,,,,,,,,,,,,,,,
3518.599999997765,,realistic_rating,399534,Youngstown,,53,Youngstown,5,,,,,,,,,,,,,,,
null,,confidence_buffer,399637,confidence_buffer,,null,,,,,,,,,,,,,,,,,
2177.699999999255,,pt2_unique_rating,401818,Youngstown,,50,,2,,,,,,,,,,,,,,,
null,,confidence_buffer,401922,confidence_buffer,,null,,,,,,,,,,,,,,,,,
1857.8999999985099,,pt2_memorable_rating,403783,Youngstown,,51,,3,,,,,,,,,,,,,,,
null,,confidence_buffer,403896,confidence_buffer,,null,,,,,,,,,,,,,,,,,
3606.10000000149,,recognition_phase,407504,Youngstown,,49,,,,,old,1,1,,,,,,,,,,
null,,confidence_buffer,407618,confidence_buffer,,null,,,,,,,,,,,,,,,,,
null,,thebreak,408120,break,,null,,,,,,,,,,,,,,,,,
3766.60000000149,,realistic_rating,411889,Rock Springs,,53,Rock Springs,5,,,,,,,,,,,,,,,
null,,confidence_buffer,411997,confidence_buffer,,null,,,,,,,,,,,,,,,,,
2852.900000002235,,pt2_unique_rating,414852,Rock Springs,,49,,1,,,,,,,,,,,,,,,
null,,confidence_buffer,414961,confidence_buffer,,null,,,,,,,,,,,,,,,,,
2128.2000000029802,,pt2_memorable_rating,417092,Rock Springs,,51,,3,,,,,,,,,,,,,,,
null,,confidence_buffer,417199,confidence_buffer,,null,,,,,,,,,,,,,,,,,
2708.300000000745,,recognition_phase,419911,Rock Springs,,52,,,,,new,1,1,,,,,,,,,,
null,,confidence_buffer,420018,confidence_buffer,,null,,,,,,,,,,,,,,,,,
null,,thebreak,420522,break,,null,,,,,,,,,,,,,,,,,
3074.5,,realistic_rating,423598,Marquette,,53,Marquette,5,,,,,,,,,,,,,,,
null,,confidence_buffer,423712,confidence_buffer,,null,,,,,,,,,,,,,,,,,
1891,,probe_rating,425607,probe_rating,,52,,,4,1,,,,,,,,,,,,,
null,,confidence_buffer,425717,confidence_buffer,,null,,,,,,,,,,,,,,,,,
3987.39999999851,,pt2_unique_rating,429707,Marquette,,52,,4,,,,,,,,,,,,,,,
null,,confidence_buffer,429814,confidence_buffer,,null,,,,,,,,,,,,,,,,,
2675.10000000149,,pt2_memorable_rating,432492,Marquette,,52,,4,,,,,,,,,,,,,,,
null,,confidence_buffer,432600,confidence_buffer,,null,,,,,,,,,,,,,,,,,
2726.60000000149,,recognition_phase,435330,Marquette,,49,,,,,old,1,1,,,,,,,,,,
null,,confidence_buffer,435442,confidence_buffer,,null,,,,,,,,,,,,,,,,,
null,,thebreak,435958,break,,null,,,,,,,,,,,,,,,,,
2970.599999997765,,realistic_rating,438931,Berkeley,,53,Berkeley,5,,,,,,,,,,,,,,,
null,,confidence_buffer,439040,confidence_buffer,,null,,,,,,,,,,,,,,,,,
2942.400000002235,,pt2_unique_rating,441984,Berkeley,,51,,3,,,,,,,,,,,,,,,
null,,confidence_buffer,442101,confidence_buffer,,null,,,,,,,,,,,,,,,,,
841.8000000007451,,pt2_memorable_rating,442945,Berkeley,,52,,4,,,,,,,,,,,,,,,
null,,confidence_buffer,443063,confidence_buffer,,null,,,,,,,,,,,,,,,,,
2957.89999999851,,recognition_phase,446024,Berkeley,,52,,,,,new,1,1,,,,,,,,,,
null,,confidence_buffer,446140,confidence_buffer,,null,,,,,,,,,,,,,,,,,
null,,thebreak,446651,break,,null,,,,,,,,,,,,,,,,,
6457.699999999255,,realistic_rating,453111,Fort Collins,,53,Fort Collins,5,,,,,,,,,,,,,,,
null,,confidence_buffer,453224,confidence_buffer,,null,,,,,,,,,,,,,,,,,
1827.3999999985099,,pt2_unique_rating,455053,Fort Collins,,51,,3,,,,,,,,,,,,,,,
null,,confidence_buffer,455169,confidence_buffer,,null,,,,,,,,,,,,,,,,,
2885.400000002235,,pt2_memorable_rating,458057,Fort Collins,,52,,4,,,,,,,,,,,,,,,
null,,confidence_buffer,458161,confidence_buffer,,null,,,,,,,,,,,,,,,,,
3954.10000000149,,recognition_phase,462118,Fort Collins,,52,,,,,new,1,1,,,,,,,,,,
null,,confidence_buffer,462231,confidence_buffer,,null,,,,,,,,,,,,,,,,,
null,,thebreak,462735,break,,null,,,,,,,,,,,,,,,,,
2696,,realistic_rating,465433,Ithaca,,53,Ithaca,5,,,,,,,,,,,,,,,
null,,confidence_buffer,465539,confidence_buffer,,null,,,,,,,,,,,,,,,,,
2835.199999999255,,pt2_unique_rating,468376,Ithaca,,51,,3,,,,,,,,,,,,,,,
null,,confidence_buffer,468492,confidence_buffer,,null,,,,,,,,,,,,,,,,,
2500.800000000745,,pt2_memorable_rating,470995,Ithaca,,51,,3,,,,,,,,,,,,,,,
null,,confidence_buffer,471101,confidence_buffer,,null,,,,,,,,,,,,,,,,,
3007.60000000149,,recognition_phase,474111,Ithaca,,52,,,,,new,1,1,,,,,,,,,,
null,,confidence_buffer,474228,confidence_buffer,,null,,,,,,,,,,,,,,,,,
null,,thebreak,474731,break,,null,,,,,,,,,,,,,,,,,
3003.10000000149,,realistic_rating,477737,Burlington,,53,Burlington,5,,,,,,,,,,,,,,,
null,,confidence_buffer,477847,confidence_buffer,,null,,,,,,,,,,,,,,,,,
2498.400000002235,,pt2_unique_rating,480347,Burlington,,50,,2,,,,,,,,,,,,,,,
null,,confidence_buffer,480462,confidence_buffer,,null,,,,,,,,,,,,,,,,,
2549.5,,pt2_memorable_rating,483014,Burlington,,51,,3,,,,,,,,,,,,,,,
null,,confidence_buffer,483132,confidence_buffer,,null,,,,,,,,,,,,,,,,,
3014,,recognition_phase,486149,Burlington,,52,,,,,new,1,1,,,,,,,,,,
null,,confidence_buffer,486259,confidence_buffer,,null,,,,,,,,,,,,,,,,,
null,,thebreak,486765,break,,null,,,,,,,,,,,,,,,,,
2517.5,,realistic_rating,489285,Syracuse,,53,Syracuse,5,,,,,,,,,,,,,,,
null,,confidence_buffer,489395,confidence_buffer,,null,,,,,,,,,,,,,,,,,
2936.60000000149,,pt2_unique_rating,492334,Syracuse,,50,,2,,,,,,,,,,,,,,,
null,,confidence_buffer,492437,confidence_buffer,,null,,,,,,,,,,,,,,,,,
1728.699999999255,,pt2_memorable_rating,494168,Syracuse,,51,,3,,,,,,,,,,,,,,,
null,,confidence_buffer,494277,confidence_buffer,,null,,,,,,,,,,,,,,,,,
2716.699999999255,,recognition_phase,496996,Syracuse,,49,,,,,old,1,1,,,,,,,,,,
null,,confidence_buffer,497104,confidence_buffer,,null,,,,,,,,,,,,,,,,,
null,,thebreak,497618,break,,null,,,,,,,,,,,,,,,,,
2395.39999999851,,realistic_rating,500015,Bozeman,,53,Bozeman,5,,,,,,,,,,,,,,,
null,,confidence_buffer,500124,confidence_buffer,,null,,,,,,,,,,,,,,,,,
1844.699999999255,,pt2_unique_rating,501971,Bozeman,,52,,4,,,,,,,,,,,,,,,
null,,confidence_buffer,502086,confidence_buffer,,null,,,,,,,,,,,,,,,,,
1997.9000000022352,,pt2_memorable_rating,504087,Bozeman,,52,,4,,,,,,,,,,,,,,,
null,,confidence_buffer,504192,confidence_buffer,,null,,,,,,,,,,,,,,,,,
2133.199999999255,,recognition_phase,506329,Bozeman,,49,,,,,old,1,1,,,,,,,,,,
null,,confidence_buffer,506436,confidence_buffer,,null,,,,,,,,,,,,,,,,,
null,,thebreak,506951,break,,null,,,,,,,,,,,,,,,,,
3856.10000000149,,realistic_rating,510809,Stamford,,53,Stamford,5,,,,,,,,,,,,,,,
null,,confidence_buffer,510926,confidence_buffer,,null,,,,,,,,,,,,,,,,,
1657.199999999255,,pt2_unique_rating,512586,Stamford,,51,,3,,,,,,,,,,,,,,,
null,,confidence_buffer,512691,confidence_buffer,,null,,,,,,,,,,,,,,,,,
2899.400000002235,,pt2_memorable_rating,515593,Stamford,,51,,3,,,,,,,,,,,,,,,
null,,confidence_buffer,515699,confidence_buffer,,null,,,,,,,,,,,,,,,,,
2017.699999999255,,recognition_phase,517720,Stamford,,52,,,,,new,1,1,,,,,,,,,,
null,,confidence_buffer,517834,confidence_buffer,,null,,,,,,,,,,,,,,,,,
null,,thebreak,518337,break,,null,,,,,,,,,,,,,,,,,
2215.900000002235,,realistic_rating,520556,Abilene,,53,Abilene,5,,,,,,,,,,,,,,,
null,,confidence_buffer,520665,confidence_buffer,,null,,,,,,,,,,,,,,,,,
2785.400000002235,,pt2_unique_rating,523454,Abilene,,51,,3,,,,,,,,,,,,,,,
null,,confidence_buffer,523562,confidence_buffer,,null,,,,,,,,,,,,,,,,,
1316.5,,pt2_memorable_rating,524882,Abilene,,52,,4,,,,,,,,,,,,,,,
null,,confidence_buffer,524988,confidence_buffer,,null,,,,,,,,,,,,,,,,,
2709,,recognition_phase,527700,Abilene,,52,,,,,new,1,1,,,,,,,,,,
null,,confidence_buffer,527805,confidence_buffer,,null,,,,,,,,,,,,,,,,,
null,,thebreak,528309,break,,null,,,,,,,,,,,,,,,,,
2483.699999999255,,realistic_rating,530795,Dothan,,53,Dothan,5,,,,,,,,,,,,,,,
null,,confidence_buffer,530907,confidence_buffer,,null,,,,,,,,,,,,,,,,,
2984.60000000149,,pt2_unique_rating,533894,Dothan,,52,,4,,,,,,,,,,,,,,,
null,,confidence_buffer,534005,confidence_buffer,,null,,,,,,,,,,,,,,,,,
1273,,pt2_memorable_rating,535281,Dothan,,51,,3,,,,,,,,,,,,,,,
null,,confidence_buffer,535391,confidence_buffer,,null,,,,,,,,,,,,,,,,,
2086.300000000745,,recognition_phase,537480,Dothan,,49,,,,,old,1,1,,,,,,,,,,
null,,confidence_buffer,537592,confidence_buffer,,null,,,,,,,,,,,,,,,,,
null,,thebreak,538110,break,,null,,,,,,,,,,,,,,,,,
2270.800000000745,,realistic_rating,540384,Newport News,,53,Newport News,5,,,,,,,,,,,,,,,
null,,confidence_buffer,540500,confidence_buffer,,null,,,,,,,,,,,,,,,,,
1903.300000000745,,probe_rating,542406,probe_rating,,51,,,3,1,,,,,,,,,,,,,
null,,confidence_buffer,542523,confidence_buffer,,null,,,,,,,,,,,,,,,,,
3324.699999999255,,pt2_unique_rating,545851,Newport News,,52,,4,,,,,,,,,,,,,,,
null,,confidence_buffer,545956,confidence_buffer,,null,,,,,,,,,,,,,,,,,
1666.0999999977648,,pt2_memorable_rating,547625,Newport News,,52,,4,,,,,,,,,,,,,,,
null,,confidence_buffer,547736,confidence_buffer,,null,,,,,,,,,,,,,,,,,
2694.60000000149,,recognition_phase,550434,Newport News,,52,,,,,new,1,1,,,,,,,,,,
null,,confidence_buffer,550551,confidence_buffer,,null,,,,,,,,,,,,,,,,,
null,,thebreak,551054,break,,null,,,,,,,,,,,,,,,,,
2922.89999999851,,realistic_rating,553979,Dubuque,,53,Dubuque,5,,,,,,,,,,,,,,,
null,,confidence_buffer,554084,confidence_buffer,,null,,,,,,,,,,,,,,,,,
2815.699999999255,,pt2_unique_rating,556902,Dubuque,,53,,5,,,,,,,,,,,,,,,
null,,confidence_buffer,557007,confidence_buffer,,null,,,,,,,,,,,,,,,,,
1733.800000000745,,pt2_memorable_rating,558743,Dubuque,,52,,4,,,,,,,,,,,,,,,
null,,confidence_buffer,558847,confidence_buffer,,null,,,,,,,,,,,,,,,,,
2911.60000000149,,recognition_phase,561762,Dubuque,,52,,,,,new,1,1,,,,,,,,,,
null,,confidence_buffer,561867,confidence_buffer,,null,,,,,,,,,,,,,,,,,
null,,thebreak,562369,break,,null,,,,,,,,,,,,,,,,,
2586.300000000745,,realistic_rating,564959,Pueblo,,53,Pueblo,5,,,,,,,,,,,,,,,
null,,confidence_buffer,565069,confidence_buffer,,null,,,,,,,,,,,,,,,,,
1997.2000000029802,,pt2_unique_rating,567068,Pueblo,,50,,2,,,,,,,,,,,,,,,
null,,confidence_buffer,567176,confidence_buffer,,null,,,,,,,,,,,,,,,,,
3658.2000000029802,,pt2_memorable_rating,570836,Pueblo,,51,,3,,,,,,,,,,,,,,,
null,,confidence_buffer,570945,confidence_buffer,,null,,,,,,,,,,,,,,,,,
2638.800000000745,,recognition_phase,573587,Pueblo,,52,,,,,new,1,1,,,,,,,,,,
null,,confidence_buffer,573694,confidence_buffer,,null,,,,,,,,,,,,,,,,,
null,,thebreak,574197,break,,null,,,,,,,,,,,,,,,,,
2287.10000000149,,realistic_rating,576487,Tallahassee,,53,Tallahassee,5,,,,,,,,,,,,,,,
null,,confidence_buffer,576595,confidence_buffer,,null,,,,,,,,,,,,,,,,,
3454.199999999255,,pt2_unique_rating,580052,Tallahassee,,53,,5,,,,,,,,,,,,,,,
null,,confidence_buffer,580155,confidence_buffer,,null,,,,,,,,,,,,,,,,,
1616.1000000014901,,pt2_memorable_rating,581773,Tallahassee,,52,,4,,,,,,,,,,,,,,,
null,,confidence_buffer,581882,confidence_buffer,,null,,,,,,,,,,,,,,,,,
2446.5,,recognition_phase,584331,Tallahassee,,52,,,,,new,1,1,,,,,,,,,,
null,,confidence_buffer,584434,confidence_buffer,,null,,,,,,,,,,,,,,,,,
null,,thebreak,584938,break,,null,,,,,,,,,,,,,,,,,
7204.10000000149,,realistic_rating,592145,Athens,,53,Athens,5,,,,,,,,,,,,,,,
null,,confidence_buffer,592249,confidence_buffer,,null,,,,,,,,,,,,,,,,,
3713.5,,pt2_unique_rating,595965,Athens,,51,,3,,,,,,,,,,,,,,,
null,,confidence_buffer,596071,confidence_buffer,,null,,,,,,,,,,,,,,,,,
1906.3999999985099,,pt2_memorable_rating,597979,Athens,,52,,4,,,,,,,,,,,,,,,
null,,confidence_buffer,598095,confidence_buffer,,null,,,,,,,,,,,,,,,,,
2504.60000000149,,recognition_phase,600602,Athens,,52,,,,,new,1,1,,,,,,,,,,
null,,confidence_buffer,600708,confidence_buffer,,null,,,,,,,,,,,,,,,,,
null,,thebreak,601226,break,,null,,,,,,,,,,,,,,,,,
6945.29999999702,,realistic_rating,608173,Altoona,,53,Altoona,5,,,,,,,,,,,,,,,
null,,confidence_buffer,608282,confidence_buffer,,null,,,,,,,,,,,,,,,,,
1964.6000000014901,,pt2_unique_rating,610248,Altoona,,52,,4,,,,,,,,,,,,,,,
null,,confidence_buffer,610363,confidence_buffer,,null,,,,,,,,,,,,,,,,,
1450.800000000745,,pt2_memorable_rating,611816,Altoona,,52,,4,,,,,,,,,,,,,,,
null,,confidence_buffer,611922,confidence_buffer,,null,,,,,,,,,,,,,,,,,
3452.800000000745,,recognition_phase,615378,Altoona,,49,,,,,old,1,1,,,,,,,,,,
null,,confidence_buffer,615485,confidence_buffer,,null,,,,,,,,,,,,,,,,,
null,,thebreak,615988,break,,null,,,,,,,,,,,,,,,,,
5882.39999999851,,realistic_rating,621872,Helena,,53,Helena,5,,,,,,,,,,,,,,,
null,,confidence_buffer,621983,confidence_buffer,,null,,,,,,,,,,,,,,,,,
3751.800000000745,,pt2_unique_rating,625737,Helena,,49,,1,,,,,,,,,,,,,,,
null,,confidence_buffer,625855,confidence_buffer,,null,,,,,,,,,,,,,,,,,
1476.699999999255,,pt2_memorable_rating,627334,Helena,,50,,2,,,,,,,,,,,,,,,
null,,confidence_buffer,627439,confidence_buffer,,null,,,,,,,,,,,,,,,,,
2969,,recognition_phase,630411,Helena,,52,,,,,new,1,1,,,,,,,,,,
null,,confidence_buffer,630529,confidence_buffer,,null,,,,,,,,,,,,,,,,,
null,,thebreak,631032,break,,null,,,,,,,,,,,,,,,,,
2330.10000000149,,realistic_rating,633364,Olympia,,53,Olympia,5,,,,,,,,,,,,,,,
null,,confidence_buffer,633468,confidence_buffer,,null,,,,,,,,,,,,,,,,,
2059.2000000029802,,pt2_unique_rating,635530,Olympia,,50,,2,,,,,,,,,,,,,,,
null,,confidence_buffer,635644,confidence_buffer,,null,,,,,,,,,,,,,,,,,
1986.5,,probe_rating,637633,probe_rating,,50,,,2,1,,,,,,,,,,,,,
null,,confidence_buffer,637735,confidence_buffer,,null,,,,,,,,,,,,,,,,,
6532.099999997765,,pt2_memorable_rating,644269,Olympia,,52,,4,,,,,,,,,,,,,,,
null,,confidence_buffer,644385,confidence_buffer,,null,,,,,,,,,,,,,,,,,
5067.5,,recognition_phase,649456,Olympia,,49,,,,,old,1,1,,,,,,,,,,
null,,confidence_buffer,649567,confidence_buffer,,null,,,,,,,,,,,,,,,,,
null,,thebreak,650069,break,,null,,,,,,,,,,,,,,,,,
2152.2000000029802,,realistic_rating,652224,Annapolis,,53,Annapolis,5,,,,,,,,,,,,,,,
null,,confidence_buffer,652337,confidence_buffer,,null,,,,,,,,,,,,,,,,,
5277.39999999851,,pt2_unique_rating,657617,Annapolis,,52,,4,,,,,,,,,,,,,,,
null,,confidence_buffer,657727,confidence_buffer,,null,,,,,,,,,,,,,,,,,
1088.3999999985099,,pt2_memorable_rating,658818,Annapolis,,52,,4,,,,,,,,,,,,,,,
null,,confidence_buffer,658932,confidence_buffer,,null,,,,,,,,,,,,,,,,,
2143.800000000745,,recognition_phase,661079,Annapolis,,49,,,,,old,1,1,,,,,,,,,,
null,,confidence_buffer,661188,confidence_buffer,,null,,,,,,,,,,,,,,,,,
null,,thebreak,661691,break,,null,,,,,,,,,,,,,,,,,
1627.800000000745,,realistic_rating,663322,Decatur,,53,Decatur,5,,,,,,,,,,,,,,,
null,,confidence_buffer,663433,confidence_buffer,,null,,,,,,,,,,,,,,,,,
3865.7999999970198,,pt2_unique_rating,667302,Decatur,,50,,2,,,,,,,,,,,,,,,
null,,confidence_buffer,667408,confidence_buffer,,null,,,,,,,,,,,,,,,,,
1449.300000000745,,probe_rating,668861,probe_rating,,51,,,3,1,,,,,,,,,,,,,
null,,confidence_buffer,668965,confidence_buffer,,null,,,,,,,,,,,,,,,,,
2889.800000000745,,pt2_memorable_rating,671857,Decatur,,52,,4,,,,,,,,,,,,,,,
null,,confidence_buffer,671969,confidence_buffer,,null,,,,,,,,,,,,,,,,,
2213.599999997765,,recognition_phase,674187,Decatur,,49,,,,,old,1,1,,,,,,,,,,
null,,confidence_buffer,674299,confidence_buffer,,null,,,,,,,,,,,,,,,,,
null,,thebreak,674814,break,,null,,,,,,,,,,,,,,,,,
2093.5,,realistic_rating,676910,Cambridge,,53,Cambridge,5,,,,,,,,,,,,,,,
null,,confidence_buffer,677015,confidence_buffer,,null,,,,,,,,,,,,,,,,,
4421.599999997765,,pt2_unique_rating,681439,Cambridge,,50,,2,,,,,,,,,,,,,,,
null,,confidence_buffer,681548,confidence_buffer,,null,,,,,,,,,,,,,,,,,
2800.800000000745,,pt2_memorable_rating,684351,Cambridge,,51,,3,,,,,,,,,,,,,,,
null,,confidence_buffer,684464,confidence_buffer,,null,,,,,,,,,,,,,,,,,
3390.199999999255,,recognition_phase,687857,Cambridge,,52,,,,,new,1,1,,,,,,,,,,
null,,confidence_buffer,687962,confidence_buffer,,null,,,,,,,,,,,,,,,,,
null,,thebreak,688478,break,,null,,,,,,,,,,,,,,,,,
4306.39999999851,,realistic_rating,692787,Frankfort,,53,Frankfort,5,,,,,,,,,,,,,,,
null,,confidence_buffer,692905,confidence_buffer,,null,,,,,,,,,,,,,,,,,
2952.89999999851,,pt2_unique_rating,695861,Frankfort,,52,,4,,,,,,,,,,,,,,,
null,,confidence_buffer,695968,confidence_buffer,,null,,,,,,,,,,,,,,,,,
1638.8999999985099,,probe_rating,697610,probe_rating,,51,,,3,1,,,,,,,,,,,,,
null,,confidence_buffer,697715,confidence_buffer,,null,,,,,,,,,,,,,,,,,
2157.10000000149,,pt2_memorable_rating,699875,Frankfort,,52,,4,,,,,,,,,,,,,,,
null,,confidence_buffer,699992,confidence_buffer,,null,,,,,,,,,,,,,,,,,
4733.800000000745,,recognition_phase,704729,Frankfort,,52,,,,,new,1,1,,,,,,,,,,
null,,confidence_buffer,704847,confidence_buffer,,null,,,,,,,,,,,,,,,,,
null,,thebreak,705350,break,,null,,,,,,,,,,,,,,,,,
1839.1000000014901,,realistic_rating,707192,Toledo,,53,Toledo,5,,,,,,,,,,,,,,,
null,,confidence_buffer,707298,confidence_buffer,,null,,,,,,,,,,,,,,,,,
2950.300000000745,,pt2_unique_rating,710250,Toledo,,52,,4,,,,,,,,,,,,,,,
null,,confidence_buffer,710365,confidence_buffer,,null,,,,,,,,,,,,,,,,,
1144.699999999255,,pt2_memorable_rating,711512,Toledo,,51,,3,,,,,,,,,,,,,,,
null,,confidence_buffer,711621,confidence_buffer,,null,,,,,,,,,,,,,,,,,
2371.199999999255,,recognition_phase,713995,Toledo,,49,,,,,old,1,1,,,,,,,,,,
null,,confidence_buffer,714111,confidence_buffer,,null,,,,,,,,,,,,,,,,,
null,,thebreak,714613,break,,null,,,,,,,,,,,,,,,,,
3416.400000002235,,realistic_rating,718032,Ann Arbor,,53,Ann Arbor,5,,,,,,,,,,,,,,,
null,,confidence_buffer,718139,confidence_buffer,,null,,,,,,,,,,,,,,,,,
3022.699999999255,,pt2_unique_rating,721164,Ann Arbor,,52,,4,,,,,,,,,,,,,,,
null,,confidence_buffer,721278,confidence_buffer,,null,,,,,,,,,,,,,,,,,
2138,,pt2_memorable_rating,723419,Ann Arbor,,52,,4,,,,,,,,,,,,,,,
null,,confidence_buffer,723522,confidence_buffer,,null,,,,,,,,,,,,,,,,,
3935.800000000745,,recognition_phase,727461,Ann Arbor,,50,,,,,old,0,0.9655172413793104,,,,,,,,,,
null,,confidence_buffer,727568,confidence_buffer,,null,,,,,,,,,,,,,,,,,
null,,thebreak,728073,break,,null,,,,,,,,,,,,,,,,,
1967,,realistic_rating,730042,New Haven,,53,New Haven,5,,,,,,,,,,,,,,,
null,,confidence_buffer,730155,confidence_buffer,,null,,,,,,,,,,,,,,,,,
2382.800000000745,,pt2_unique_rating,732539,New Haven,,51,,3,,,,,,,,,,,,,,,
null,,confidence_buffer,732648,confidence_buffer,,null,,,,,,,,,,,,,,,,,
2035.5999999977648,,pt2_memorable_rating,734686,New Haven,,52,,4,,,,,,,,,,,,,,,
null,,confidence_buffer,734802,confidence_buffer,,null,,,,,,,,,,,,,,,,,
3293.800000000745,,recognition_phase,738098,New Haven,,49,,,,,old,1,0.9666666666666667,,,,,,,,,,
null,,confidence_buffer,738213,confidence_buffer,,null,,,,,,,,,,,,,,,,,
null,,thebreak,738730,break,,null,,,,,,,,,,,,,,,,,
2373.699999999255,,realistic_rating,741106,Montpelier,,53,Montpelier,5,,,,,,,,,,,,,,,
null,,confidence_buffer,741215,confidence_buffer,,null,,,,,,,,,,,,,,,,,
3296.400000002235,,pt2_unique_rating,744514,Montpelier,,53,,5,,,,,,,,,,,,,,,
null,,confidence_buffer,744631,confidence_buffer,,null,,,,,,,,,,,,,,,,,
1517.3999999985099,,pt2_memorable_rating,746151,Montpelier,,52,,4,,,,,,,,,,,,,,,
null,,confidence_buffer,746259,confidence_buffer,,null,,,,,,,,,,,,,,,,,
1813,,recognition_phase,748076,Montpelier,,52,,,,,new,1,0.967741935483871,,,,,,,,,,
null,,confidence_buffer,748180,confidence_buffer,,null,,,,,,,,,,,,,,,,,
null,,thebreak,748683,break,,null,,,,,,,,,,,,,,,,,
4497.89999999851,,realistic_rating,753183,Fort Wayne,,53,Fort Wayne,5,,,,,,,,,,,,,,,
null,,confidence_buffer,753292,confidence_buffer,,null,,,,,,,,,,,,,,,,,
1932.7999999970198,,pt2_unique_rating,755228,Fort Wayne,,50,,2,,,,,,,,,,,,,,,
null,,confidence_buffer,755336,confidence_buffer,,null,,,,,,,,,,,,,,,,,
1655.300000000745,,pt2_memorable_rating,756994,Fort Wayne,,51,,3,,,,,,,,,,,,,,,
null,,confidence_buffer,757102,confidence_buffer,,null,,,,,,,,,,,,,,,,,
2053.800000000745,,recognition_phase,759159,Fort Wayne,,49,,,,,old,1,0.96875,,,,,,,,,,
null,,confidence_buffer,759264,confidence_buffer,,null,,,,,,,,,,,,,,,,,
null,,thebreak,759780,break,,null,,,,,,,,,,,,,,,,,
2582.900000002235,,realistic_rating,762366,Bellingham,,52,Bellingham,4,,,,,,,,,,,,,,,
null,,confidence_buffer,762481,confidence_buffer,,null,,,,,,,,,,,,,,,,,
4571.5,,pt2_unique_rating,767055,Bellingham,,52,,4,,,,,,,,,,,,,,,
null,,confidence_buffer,767161,confidence_buffer,,null,,,,,,,,,,,,,,,,,
1378.4000000022352,,pt2_memorable_rating,768542,Bellingham,,51,,3,,,,,,,,,,,,,,,
null,,confidence_buffer,768651,confidence_buffer,,null,,,,,,,,,,,,,,,,,
2405.800000000745,,recognition_phase,771059,Bellingham,,52,,,,,new,1,0.9696969696969697,,,,,,,,,,
null,,confidence_buffer,771165,confidence_buffer,,null,,,,,,,,,,,,,,,,,
null,,thebreak,771670,break,,null,,,,,,,,,,,,,,,,,
1974.6000000014901,,realistic_rating,773647,Cheyenne,,53,Cheyenne,5,,,,,,,,,,,,,,,
null,,confidence_buffer,773762,confidence_buffer,,null,,,,,,,,,,,,,,,,,
2652.300000000745,,pt2_unique_rating,776417,Cheyenne,,51,,3,,,,,,,,,,,,,,,
null,,confidence_buffer,776535,confidence_buffer,,null,,,,,,,,,,,,,,,,,
1511.199999999255,,pt2_memorable_rating,778048,Cheyenne,,51,,3,,,,,,,,,,,,,,,
null,,confidence_buffer,778157,confidence_buffer,,null,,,,,,,,,,,,,,,,,
2023.5,,recognition_phase,780183,Cheyenne,,49,,,,,old,1,0.9705882352941176,,,,,,,,,,
null,,confidence_buffer,780296,confidence_buffer,,null,,,,,,,,,,,,,,,,,
null,,thebreak,780809,break,,null,,,,,,,,,,,,,,,,,
5851.400000002235,,realistic_rating,786663,Santa Monica,,53,Santa Monica,5,,,,,,,,,,,,,,,
null,,confidence_buffer,786777,confidence_buffer,,null,,,,,,,,,,,,,,,,,
3564.800000000745,,pt2_unique_rating,790344,Santa Monica,,52,,4,,,,,,,,,,,,,,,
null,,confidence_buffer,790449,confidence_buffer,,null,,,,,,,,,,,,,,,,,
3648.699999999255,,pt2_memorable_rating,794100,Santa Monica,,52,,4,,,,,,,,,,,,,,,
null,,confidence_buffer,794209,confidence_buffer,,null,,,,,,,,,,,,,,,,,
5857.10000000149,,recognition_phase,800069,Santa Monica,,52,,,,,new,1,0.9714285714285714,,,,,,,,,,
null,,confidence_buffer,800182,confidence_buffer,,null,,,,,,,,,,,,,,,,,
null,,thebreak,800697,break,,null,,,,,,,,,,,,,,,,,
4283.699999999255,,realistic_rating,804984,Norfolk,,53,Norfolk,5,,,,,,,,,,,,,,,
null,,confidence_buffer,805101,confidence_buffer,,null,,,,,,,,,,,,,,,,,
2524.39999999851,,pt2_unique_rating,807627,Norfolk,,51,,3,,,,,,,,,,,,,,,
null,,confidence_buffer,807732,confidence_buffer,,null,,,,,,,,,,,,,,,,,
4296.39999999851,,pt2_memorable_rating,812031,Norfolk,,51,,3,,,,,,,,,,,,,,,
null,,confidence_buffer,812146,confidence_buffer,,null,,,,,,,,,,,,,,,,,
6201.70000000298,,recognition_phase,818351,Norfolk,,51,,,,,new,1,0.9722222222222222,,,,,,,,,,
null,,confidence_buffer,818461,confidence_buffer,,null,,,,,,,,,,,,,,,,,
null,,thebreak,818976,break,,null,,,,,,,,,,,,,,,,,
1940,,realistic_rating,820919,Champaign,,53,Champaign,5,,,,,,,,,,,,,,,
null,,confidence_buffer,821036,confidence_buffer,,null,,,,,,,,,,,,,,,,,
2889.400000002235,,pt2_unique_rating,823927,Champaign,,51,,3,,,,,,,,,,,,,,,
null,,confidence_buffer,824042,confidence_buffer,,null,,,,,,,,,,,,,,,,,
1574.300000000745,,pt2_memorable_rating,825618,Champaign,,51,,3,,,,,,,,,,,,,,,
null,,confidence_buffer,825735,confidence_buffer,,null,,,,,,,,,,,,,,,,,
2412.199999999255,,recognition_phase,828150,Champaign,,49,,,,,old,1,0.972972972972973,,,,,,,,,,
null,,confidence_buffer,828262,confidence_buffer,,null,,,,,,,,,,,,,,,,,
null,,thebreak,828765,break,,null,,,,,,,,,,,,,,,,,
1901.199999999255,,realistic_rating,830667,Gainesville,,53,Gainesville,5,,,,,,,,,,,,,,,
null,,confidence_buffer,830773,confidence_buffer,,null,,,,,,,,,,,,,,,,,
1686.4000000022352,,pt2_unique_rating,832462,Gainesville,,50,,2,,,,,,,,,,,,,,,
null,,confidence_buffer,832575,confidence_buffer,,null,,,,,,,,,,,,,,,,,
886.0999999977648,,pt2_memorable_rating,833463,Gainesville,,50,,2,,,,,,,,,,,,,,,
null,,confidence_buffer,833576,confidence_buffer,,null,,,,,,,,,,,,,,,,,
1495.800000000745,,recognition_phase,835075,Gainesville,,49,,,,,old,1,0.9736842105263158,,,,,,,,,,
null,,confidence_buffer,835191,confidence_buffer,,null,,,,,,,,,,,,,,,,,
null,,thebreak,835694,break,,null,,,,,,,,,,,,,,,,,
1797.199999999255,,realistic_rating,837494,Las Cruces,,53,Las Cruces,5,,,,,,,,,,,,,,,
null,,confidence_buffer,837600,confidence_buffer,,null,,,,,,,,,,,,,,,,,
1727.300000000745,,pt2_unique_rating,839329,Las Cruces,,52,,4,,,,,,,,,,,,,,,
null,,confidence_buffer,839434,confidence_buffer,,null,,,,,,,,,,,,,,,,,
1184.7999999970198,,pt2_memorable_rating,840622,Las Cruces,,52,,4,,,,,,,,,,,,,,,
null,,confidence_buffer,840736,confidence_buffer,,null,,,,,,,,,,,,,,,,,
4177.699999999255,,recognition_phase,844917,Las Cruces,,49,,,,,old,1,0.9743589743589743,,,,,,,,,,
null,,confidence_buffer,845033,confidence_buffer,,null,,,,,,,,,,,,,,,,,
null,,thebreak,845549,break,,null,,,,,,,,,,,,,,,,,
1708.800000000745,,realistic_rating,847260,Boulder,,53,Boulder,5,,,,,,,,,,,,,,,
null,,confidence_buffer,847366,confidence_buffer,,null,,,,,,,,,,,,,,,,,
1793,,pt2_unique_rating,849161,Boulder,,50,,2,,,,,,,,,,,,,,,
null,,confidence_buffer,849277,confidence_buffer,,null,,,,,,,,,,,,,,,,,
1821.199999999255,,pt2_memorable_rating,851100,Boulder,,51,,3,,,,,,,,,,,,,,,
null,,confidence_buffer,851216,confidence_buffer,,null,,,,,,,,,,,,,,,,,
3184,,recognition_phase,854403,Boulder,,49,,,,,old,1,0.975,,,,,,,,,,
null,,confidence_buffer,854511,confidence_buffer,,null,,,,,,,,,,,,,,,,,
null,,thebreak,855014,break,,null,,,,,,,,,,,,,,,,,
1792.7000000029802,,realistic_rating,856809,Terre Haute,,53,Terre Haute,5,,,,,,,,,,,,,,,
null,,confidence_buffer,856917,confidence_buffer,,null,,,,,,,,,,,,,,,,,
1878,,pt2_unique_rating,858797,Terre Haute,,52,,4,,,,,,,,,,,,,,,
null,,confidence_buffer,858901,confidence_buffer,,null,,,,,,,,,,,,,,,,,
2977,,pt2_memorable_rating,861880,Terre Haute,,51,,3,,,,,,,,,,,,,,,
null,,confidence_buffer,861986,confidence_buffer,,null,,,,,,,,,,,,,,,,,
1860.699999999255,,recognition_phase,863850,Terre Haute,,49,,,,,old,1,0.975609756097561,,,,,,,,,,
null,,confidence_buffer,863959,confidence_buffer,,null,,,,,,,,,,,,,,,,,
null,,thebreak,864476,break,,null,,,,,,,,,,,,,,,,,
1486.8999999985099,,realistic_rating,865965,Palo Alto,,53,Palo Alto,5,,,,,,,,,,,,,,,
null,,confidence_buffer,866072,confidence_buffer,,null,,,,,,,,,,,,,,,,,
1801.199999999255,,pt2_unique_rating,867875,Palo Alto,,52,,4,,,,,,,,,,,,,,,
null,,confidence_buffer,867980,confidence_buffer,,null,,,,,,,,,,,,,,,,,
1677.8999999985099,,pt2_memorable_rating,869661,Palo Alto,,52,,4,,,,,,,,,,,,,,,
null,,confidence_buffer,869767,confidence_buffer,,null,,,,,,,,,,,,,,,,,
2539.599999997765,,recognition_phase,872309,Palo Alto,,49,,,,,old,1,0.9761904761904762,,,,,,,,,,
null,,confidence_buffer,872416,confidence_buffer,,null,,,,,,,,,,,,,,,,,
null,,thebreak,872921,break,,null,,,,,,,,,,,,,,,,,
5512.5,,realistic_rating,878436,Reno,,53,Reno,5,,,,,,,,,,,,,,,
null,,confidence_buffer,878553,confidence_buffer,,null,,,,,,,,,,,,,,,,,
1760,,pt2_unique_rating,880315,Reno,,50,,2,,,,,,,,,,,,,,,
null,,confidence_buffer,880432,confidence_buffer,,null,,,,,,,,,,,,,,,,,
1477,,pt2_memorable_rating,881911,Reno,,51,,3,,,,,,,,,,,,,,,
null,,confidence_buffer,882015,confidence_buffer,,null,,,,,,,,,,,,,,,,,
1974.2000000029802,,recognition_phase,883992,Reno,,52,,,,,new,1,0.9767441860465116,,,,,,,,,,
null,,confidence_buffer,884097,confidence_buffer,,null,,,,,,,,,,,,,,,,,
null,,thebreak,884614,break,,null,,,,,,,,,,,,,,,,,
3594.199999999255,,realistic_rating,888211,Peoria,,53,Peoria,5,,,,,,,,,,,,,,,
null,,confidence_buffer,888314,confidence_buffer,,null,,,,,,,,,,,,,,,,,
1506.300000000745,,pt2_unique_rating,889823,Peoria,,53,,5,,,,,,,,,,,,,,,
null,,confidence_buffer,889935,confidence_buffer,,null,,,,,,,,,,,,,,,,,
1301.5,,pt2_memorable_rating,891239,Peoria,,51,,3,,,,,,,,,,,,,,,
null,,confidence_buffer,891351,confidence_buffer,,null,,,,,,,,,,,,,,,,,
2768.099999997765,,recognition_phase,894122,Peoria,,52,,,,,new,0,0.9545454545454546,,,,,,,,,,
null,,confidence_buffer,894236,confidence_buffer,,null,,,,,,,,,,,,,,,,,
null,,thebreak,894751,break,,null,,,,,,,,,,,,,,,,,
2146.800000000745,,realistic_rating,896900,McKinney,,53,McKinney,5,,,,,,,,,,,,,,,
null,,confidence_buffer,897008,confidence_buffer,,null,,,,,,,,,,,,,,,,,
1799.199999999255,,probe_rating,898810,probe_rating,,50,,,2,1,,,,,,,,,,,,,
null,,confidence_buffer,898921,confidence_buffer,,null,,,,,,,,,,,,,,,,,
3448.60000000149,,pt2_unique_rating,902372,McKinney,,51,,3,,,,,,,,,,,,,,,
null,,confidence_buffer,902483,confidence_buffer,,null,,,,,,,,,,,,,,,,,
1452.199999999255,,pt2_memorable_rating,903938,McKinney,,51,,3,,,,,,,,,,,,,,,
null,,confidence_buffer,904051,confidence_buffer,,null,,,,,,,,,,,,,,,,,
2327.10000000149,,recognition_phase,906381,McKinney,,52,,,,,new,1,0.9555555555555556,,,,,,,,,,
null,,confidence_buffer,906488,confidence_buffer,,null,,,,,,,,,,,,,,,,,
null,,thebreak,907000,break,,null,,,,,,,,,,,,,,,,,
1733,,realistic_rating,908736,Topeka,,53,Topeka,5,,,,,,,,,,,,,,,
null,,confidence_buffer,908847,confidence_buffer,,null,,,,,,,,,,,,,,,,,
3901.60000000149,,pt2_unique_rating,912751,Topeka,,52,,4,,,,,,,,,,,,,,,
null,,confidence_buffer,912868,confidence_buffer,,null,,,,,,,,,,,,,,,,,
1651.5,,pt2_memorable_rating,914522,Topeka,,51,,3,,,,,,,,,,,,,,,
null,,confidence_buffer,914634,confidence_buffer,,null,,,,,,,,,,,,,,,,,
3326.10000000149,,recognition_phase,917963,Topeka,,49,,,,,old,1,0.9565217391304348,,,,,,,,,,
null,,confidence_buffer,918076,confidence_buffer,,null,,,,,,,,,,,,,,,,,
null,,thebreak,918591,break,,null,,,,,,,,,,,,,,,,,
1823.4000000022352,,realistic_rating,920417,Scottsdale,,53,Scottsdale,5,,,,,,,,,,,,,,,
null,,confidence_buffer,920528,confidence_buffer,,null,,,,,,,,,,,,,,,,,
1787.4000000022352,,pt2_unique_rating,922318,Scottsdale,,51,,3,,,,,,,,,,,,,,,
null,,confidence_buffer,922433,confidence_buffer,,null,,,,,,,,,,,,,,,,,
924.5,,pt2_memorable_rating,923360,Scottsdale,,51,,3,,,,,,,,,,,,,,,
null,,confidence_buffer,923472,confidence_buffer,,null,,,,,,,,,,,,,,,,,
6742.70000000298,,recognition_phase,930218,Scottsdale,,49,,,,,old,1,0.9574468085106383,,,,,,,,,,
null,,confidence_buffer,930332,confidence_buffer,,null,,,,,,,,,,,,,,,,,
null,,thebreak,930846,break,,null,,,,,,,,,,,,,,,,,
2838.199999999255,,realistic_rating,933686,Fargo,,53,Fargo,5,,,,,,,,,,,,,,,
null,,confidence_buffer,933805,confidence_buffer,,null,,,,,,,,,,,,,,,,,
1912.300000000745,,pt2_unique_rating,935720,Fargo,,51,,3,,,,,,,,,,,,,,,
null,,confidence_buffer,935825,confidence_buffer,,null,,,,,,,,,,,,,,,,,
824.0999999977648,,pt2_memorable_rating,936651,Fargo,,51,,3,,,,,,,,,,,,,,,
null,,confidence_buffer,936761,confidence_buffer,,null,,,,,,,,,,,,,,,,,
1299,,recognition_phase,938063,Fargo,,52,,,,,new,1,0.9583333333333334,,,,,,,,,,
null,,confidence_buffer,938176,confidence_buffer,,null,,,,,,,,,,,,,,,,,
null,,thebreak,938679,break,,null,,,,,,,,,,,,,,,,,
1390.9000000022352,,realistic_rating,940073,Pasadena,,53,Pasadena,5,,,,,,,,,,,,,,,
null,,confidence_buffer,940181,confidence_buffer,,null,,,,,,,,,,,,,,,,,
1592.3999999985099,,pt2_unique_rating,941775,Pasadena,,49,,1,,,,,,,,,,,,,,,
null,,confidence_buffer,941887,confidence_buffer,,null,,,,,,,,,,,,,,,,,
1216.5,,pt2_memorable_rating,943106,Pasadena,,50,,2,,,,,,,,,,,,,,,
null,,confidence_buffer,943220,confidence_buffer,,null,,,,,,,,,,,,,,,,,
2347.10000000149,,probe_rating,945570,probe_rating,,53,,,5,1,,,,,,,,,,,,,
null,,confidence_buffer,945686,confidence_buffer,,null,,,,,,,,,,,,,,,,,
1626.0999999977648,,recognition_phase,947315,Pasadena,,49,,,,,old,1,0.9591836734693877,,,,,,,,,,
null,,confidence_buffer,947432,confidence_buffer,,null,,,,,,,,,,,,,,,,,
null,,thebreak,947948,break,,null,,,,,,,,,,,,,,,,,
1988.2999999970198,,realistic_rating,949939,Hagerstown,,53,Hagerstown,5,,,,,,,,,,,,,,,
null,,confidence_buffer,950056,confidence_buffer,,null,,,,,,,,,,,,,,,,,
2085.199999999255,,pt2_unique_rating,952144,Hagerstown,,52,,4,,,,,,,,,,,,,,,
null,,confidence_buffer,952253,confidence_buffer,,null,,,,,,,,,,,,,,,,,
2017.8999999985099,,pt2_memorable_rating,954274,Hagerstown,,52,,4,,,,,,,,,,,,,,,
null,,confidence_buffer,954383,confidence_buffer,,null,,,,,,,,,,,,,,,,,
1733.2000000029802,,recognition_phase,956119,Hagerstown,,49,,,,,old,1,0.96,,,,,,,,,,
null,,confidence_buffer,956229,confidence_buffer,,null,,,,,,,,,,,,,,,,,
null,,thebreak,956731,break,,null,,,,,,,,,,,,,,,,,
,,survey,1206086,survey-questions,,,,,,,,,,none,high,No,Most of the places were familiar so I used association with what I knew about the place.,Did I know this city or heard of it.,Whether there was something I always associate with the city.,Whether it was a common name and whether I could place it in two places.,All words were realistic; not gibberish.,No,It was just right.
