rt,responses,trial_type,time_elapsed,stimulus,button_pressed,key_press,name_trial,city_type,rating,probe,probe_accuracy,response,correct,accuracy,problems,smooth,distraction,strategies,familiar,memorable,unique,realistic,similar,comments
1519407.4000000954,{worker_id:574ce0a57fd0ec000db73aa6},id_enter,1519411,,,,,,,,,,,,,,,,,,,,,
6066.5,,fullscreen,1525481,fullscreen,0,,,,,,,,,,,,,,,,,,,
2633.3000000715256,,intro_0,1528115,instruct,,32,,,,,,,,,,,,,,,,,,
3457,,intro_1,1531573,instruct,,32,,,,,,,,,,,,,,,,,,
2716.5999999046326,,intro_2,1534290,instruct,,32,,,,,,,,,,,,,,,,,,
null,,instruct_dir_4,1535791,instruct,,null,,,,,,,,,,,,,,,,,,
null,,thebreak,1536293,break,,null,,,,,,,,,,,,,,,,,,
3709.6999999284744,,familiar_rating,1540003,Sitka,,49,Sitka,US,1,,,,,,,,,,,,,,,
null,,confidence_buffer,1540112,confidence_buffer,,null,,,,,,,,,,,,,,,,,,
2645,,unique_rating,1542758,Sitka,,52,,,4,,,,,,,,,,,,,,,
null,,confidence_buffer,1542859,confidence_buffer,,null,,,,,,,,,,,,,,,,,,
1746.7999999523163,,memorable_rating,1544607,Sitka,,52,,,4,,,,,,,,,,,,,,,
null,,confidence_buffer,1544708,confidence_buffer,,null,,,,,,,,,,,,,,,,,,
1250.3000000715256,,probe_rating,1545958,probe_rating,,50,,,,2,1,,,,,,,,,,,,,
null,,confidence_buffer,1546060,confidence_buffer,,null,,,,,,,,,,,,,,,,,,
null,,thebreak,1546560,break,,null,,,,,,,,,,,,,,,,,,
2729.7999999523163,,familiar_rating,1549291,Elmsbury,,51,Elmsbury,Fictional,3,,,,,,,,,,,,,,,
null,,confidence_buffer,1549392,confidence_buffer,,null,,,,,,,,,,,,,,,,,,
1348.2000000476837,,unique_rating,1550741,Elmsbury,,50,,,2,,,,,,,,,,,,,,,
null,,confidence_buffer,1550842,confidence_buffer,,null,,,,,,,,,,,,,,,,,,
1744.1999999284744,,memorable_rating,1552587,Elmsbury,,52,,,4,,,,,,,,,,,,,,,
null,,confidence_buffer,1552703,confidence_buffer,,null,,,,,,,,,,,,,,,,,,
null,,thebreak,1553204,break,,null,,,,,,,,,,,,,,,,,,
2063.600000023842,,familiar_rating,1555268,Hawthorne Bluffs,,51,Hawthorne Bluffs,Fictional,3,,,,,,,,,,,,,,,
null,,confidence_buffer,1555370,confidence_buffer,,null,,,,,,,,,,,,,,,,,,
3929.5,,unique_rating,1559300,Hawthorne Bluffs,,51,,,3,,,,,,,,,,,,,,,
null,,confidence_buffer,1559401,confidence_buffer,,null,,,,,,,,,,,,,,,,,,
1147,,memorable_rating,1560548,Hawthorne Bluffs,,52,,,4,,,,,,,,,,,,,,,
null,,confidence_buffer,1560650,confidence_buffer,,null,,,,,,,,,,,,,,,,,,
null,,thebreak,1561152,break,,null,,,,,,,,,,,,,,,,,,
1617.5,,familiar_rating,1562770,Abilene,,53,Abilene,US,5,,,,,,,,,,,,,,,
null,,confidence_buffer,1562871,confidence_buffer,,null,,,,,,,,,,,,,,,,,,
2130.0999999046326,,unique_rating,1565001,Abilene,,52,,,4,,,,,,,,,,,,,,,
null,,confidence_buffer,1565102,confidence_buffer,,null,,,,,,,,,,,,,,,,,,
1571.5999999046326,,memorable_rating,1566674,Abilene,,52,,,4,,,,,,,,,,,,,,,
null,,confidence_buffer,1566775,confidence_buffer,,null,,,,,,,,,,,,,,,,,,
null,,thebreak,1567276,break,,null,,,,,,,,,,,,,,,,,,
1579,,familiar_rating,1568856,Hanover,,52,Hanover,US,4,,,,,,,,,,,,,,,
null,,confidence_buffer,1568957,confidence_buffer,,null,,,,,,,,,,,,,,,,,,
2260.2000000476837,,unique_rating,1571218,Hanover,,50,,,2,,,,,,,,,,,,,,,
null,,confidence_buffer,1571319,confidence_buffer,,null,,,,,,,,,,,,,,,,,,
1253,,memorable_rating,1572573,Hanover,,51,,,3,,,,,,,,,,,,,,,
null,,confidence_buffer,1572674,confidence_buffer,,null,,,,,,,,,,,,,,,,,,
null,,thebreak,1573175,break,,null,,,,,,,,,,,,,,,,,,
3552.7000000476837,,familiar_rating,1576728,Okoboji,,49,Okoboji,US,1,,,,,,,,,,,,,,,
null,,confidence_buffer,1576831,confidence_buffer,,null,,,,,,,,,,,,,,,,,,
1866.4000000953674,,unique_rating,1578698,Okoboji,,53,,,5,,,,,,,,,,,,,,,
null,,confidence_buffer,1578799,confidence_buffer,,null,,,,,,,,,,,,,,,,,,
1093.8000000715256,,memorable_rating,1579893,Okoboji,,52,,,4,,,,,,,,,,,,,,,
null,,confidence_buffer,1579994,confidence_buffer,,null,,,,,,,,,,,,,,,,,,
null,,thebreak,1580496,break,,null,,,,,,,,,,,,,,,,,,
2614,,familiar_rating,1583111,Leesburg,,52,Leesburg,US,4,,,,,,,,,,,,,,,
null,,confidence_buffer,1583213,confidence_buffer,,null,,,,,,,,,,,,,,,,,,
1531.3000000715256,,unique_rating,1584745,Leesburg,,49,,,1,,,,,,,,,,,,,,,
null,,confidence_buffer,1584845,confidence_buffer,,null,,,,,,,,,,,,,,,,,,
1666.6000000238419,,memorable_rating,1586512,Leesburg,,51,,,3,,,,,,,,,,,,,,,
null,,confidence_buffer,1586615,confidence_buffer,,null,,,,,,,,,,,,,,,,,,
null,,thebreak,1587117,break,,null,,,,,,,,,,,,,,,,,,
2733.7000000476837,,familiar_rating,1589851,West Palm Beach,,53,West Palm Beach,US,5,,,,,,,,,,,,,,,
null,,confidence_buffer,1589952,confidence_buffer,,null,,,,,,,,,,,,,,,,,,
2180.899999976158,,unique_rating,1592133,West Palm Beach,,51,,,3,,,,,,,,,,,,,,,
null,,confidence_buffer,1592236,confidence_buffer,,null,,,,,,,,,,,,,,,,,,
1330.0999999046326,,memorable_rating,1593567,West Palm Beach,,53,,,5,,,,,,,,,,,,,,,
null,,confidence_buffer,1593668,confidence_buffer,,null,,,,,,,,,,,,,,,,,,
null,,thebreak,1594177,break,,null,,,,,,,,,,,,,,,,,,
2887.4000000953674,,familiar_rating,1597065,Cedarwyn,,49,Cedarwyn,Fictional,1,,,,,,,,,,,,,,,
null,,confidence_buffer,1597166,confidence_buffer,,null,,,,,,,,,,,,,,,,,,
1306.3000000715256,,unique_rating,1598472,Cedarwyn,,53,,,5,,,,,,,,,,,,,,,
null,,confidence_buffer,1598573,confidence_buffer,,null,,,,,,,,,,,,,,,,,,
1687.2000000476837,,memorable_rating,1600261,Cedarwyn,,52,,,4,,,,,,,,,,,,,,,
null,,confidence_buffer,1600363,confidence_buffer,,null,,,,,,,,,,,,,,,,,,
null,,thebreak,1600864,break,,null,,,,,,,,,,,,,,,,,,
2423,,familiar_rating,1603287,Stonebrook,,51,Stonebrook,Fictional,3,,,,,,,,,,,,,,,
null,,confidence_buffer,1603389,confidence_buffer,,null,,,,,,,,,,,,,,,,,,
2085.5,,unique_rating,1605475,Stonebrook,,50,,,2,,,,,,,,,,,,,,,
null,,confidence_buffer,1605577,confidence_buffer,,null,,,,,,,,,,,,,,,,,,
1427.2999999523163,,memorable_rating,1607004,Stonebrook,,52,,,4,,,,,,,,,,,,,,,
null,,confidence_buffer,1607105,confidence_buffer,,null,,,,,,,,,,,,,,,,,,
null,,thebreak,1607606,break,,null,,,,,,,,,,,,,,,,,,
2224.600000023842,,familiar_rating,1609831,Alliance,,53,Alliance,US,5,,,,,,,,,,,,,,,
null,,confidence_buffer,1609934,confidence_buffer,,null,,,,,,,,,,,,,,,,,,
1750.1999999284744,,unique_rating,1611684,Alliance,,53,,,5,,,,,,,,,,,,,,,
null,,confidence_buffer,1611786,confidence_buffer,,null,,,,,,,,,,,,,,,,,,
669.9000000953674,,memorable_rating,1612456,Alliance,,53,,,5,,,,,,,,,,,,,,,
null,,confidence_buffer,1612558,confidence_buffer,,null,,,,,,,,,,,,,,,,,,
null,,thebreak,1613059,break,,null,,,,,,,,,,,,,,,,,,
2791.8000000715256,,familiar_rating,1615851,Healdsburg,,49,Healdsburg,US,1,,,,,,,,,,,,,,,
null,,confidence_buffer,1615953,confidence_buffer,,null,,,,,,,,,,,,,,,,,,
1502.8000000715256,,unique_rating,1617456,Healdsburg,,52,,,4,,,,,,,,,,,,,,,
null,,confidence_buffer,1617557,confidence_buffer,,null,,,,,,,,,,,,,,,,,,
1553.9000000953674,,probe_rating,1619112,probe_rating,,51,,,,3,1,,,,,,,,,,,,,
null,,confidence_buffer,1619212,confidence_buffer,,null,,,,,,,,,,,,,,,,,,
1639.2999999523163,,memorable_rating,1620852,Healdsburg,,51,,,3,,,,,,,,,,,,,,,
null,,confidence_buffer,1620954,confidence_buffer,,null,,,,,,,,,,,,,,,,,,
null,,thebreak,1621456,break,,null,,,,,,,,,,,,,,,,,,
2033.6999999284744,,familiar_rating,1623491,New Hope,,52,New Hope,US,4,,,,,,,,,,,,,,,
null,,confidence_buffer,1623592,confidence_buffer,,null,,,,,,,,,,,,,,,,,,
1518.1000000238419,,unique_rating,1625111,New Hope,,52,,,4,,,,,,,,,,,,,,,
null,,confidence_buffer,1625213,confidence_buffer,,null,,,,,,,,,,,,,,,,,,
861.1000000238419,,memorable_rating,1626074,New Hope,,53,,,5,,,,,,,,,,,,,,,
null,,confidence_buffer,1626175,confidence_buffer,,null,,,,,,,,,,,,,,,,,,
null,,thebreak,1626677,break,,null,,,,,,,,,,,,,,,,,,
4581.5,,familiar_rating,1631259,Sunmere,,49,Sunmere,Fictional,1,,,,,,,,,,,,,,,
null,,confidence_buffer,1631360,confidence_buffer,,null,,,,,,,,,,,,,,,,,,
1327.6999999284744,,probe_rating,1632688,probe_rating,,51,,,,3,1,,,,,,,,,,,,,
null,,confidence_buffer,1632790,confidence_buffer,,null,,,,,,,,,,,,,,,,,,
1649.5,,unique_rating,1634440,Sunmere,,53,,,5,,,,,,,,,,,,,,,
null,,confidence_buffer,1634542,confidence_buffer,,null,,,,,,,,,,,,,,,,,,
613.6999999284744,,memorable_rating,1635156,Sunmere,,53,,,5,,,,,,,,,,,,,,,
null,,confidence_buffer,1635257,confidence_buffer,,null,,,,,,,,,,,,,,,,,,
null,,thebreak,1635758,break,,null,,,,,,,,,,,,,,,,,,
2321.399999976158,,familiar_rating,1638080,Oakridge,,52,Oakridge,Fictional,4,,,,,,,,,,,,,,,
null,,confidence_buffer,1638182,confidence_buffer,,null,,,,,,,,,,,,,,,,,,
1234.6999999284744,,unique_rating,1639417,Oakridge,,50,,,2,,,,,,,,,,,,,,,
null,,confidence_buffer,1639518,confidence_buffer,,null,,,,,,,,,,,,,,,,,,
1286.3000000715256,,memorable_rating,1640805,Oakridge,,52,,,4,,,,,,,,,,,,,,,
null,,confidence_buffer,1640907,confidence_buffer,,null,,,,,,,,,,,,,,,,,,
null,,thebreak,1641409,break,,null,,,,,,,,,,,,,,,,,,
1737,,familiar_rating,1643147,Millstone,,51,Millstone,Fictional,3,,,,,,,,,,,,,,,
null,,confidence_buffer,1643255,confidence_buffer,,null,,,,,,,,,,,,,,,,,,
4092.899999976158,,unique_rating,1647349,Millstone,,52,,,4,,,,,,,,,,,,,,,
null,,confidence_buffer,1647451,confidence_buffer,,null,,,,,,,,,,,,,,,,,,
1119.6000000238419,,memorable_rating,1648571,Millstone,,52,,,4,,,,,,,,,,,,,,,
null,,confidence_buffer,1648671,confidence_buffer,,null,,,,,,,,,,,,,,,,,,
null,,thebreak,1649174,break,,null,,,,,,,,,,,,,,,,,,
2119.7999999523163,,familiar_rating,1651294,Sierra Hollow,,49,Sierra Hollow,Fictional,1,,,,,,,,,,,,,,,
null,,confidence_buffer,1651396,confidence_buffer,,null,,,,,,,,,,,,,,,,,,
2111.399999976158,,unique_rating,1653508,Sierra Hollow,,53,,,5,,,,,,,,,,,,,,,
null,,confidence_buffer,1653608,confidence_buffer,,null,,,,,,,,,,,,,,,,,,
760.1000000238419,,memorable_rating,1654369,Sierra Hollow,,53,,,5,,,,,,,,,,,,,,,
null,,confidence_buffer,1654470,confidence_buffer,,null,,,,,,,,,,,,,,,,,,
null,,thebreak,1654972,break,,null,,,,,,,,,,,,,,,,,,
1725.2000000476837,,familiar_rating,1656698,Hollendale,,51,Hollendale,Fictional,3,,,,,,,,,,,,,,,
null,,confidence_buffer,1656800,confidence_buffer,,null,,,,,,,,,,,,,,,,,,
1377.3999999761581,,unique_rating,1658177,Hollendale,,52,,,4,,,,,,,,,,,,,,,
null,,confidence_buffer,1658281,confidence_buffer,,null,,,,,,,,,,,,,,,,,,
608.6999999284744,,memorable_rating,1658891,Hollendale,,52,,,4,,,,,,,,,,,,,,,
null,,confidence_buffer,1658993,confidence_buffer,,null,,,,,,,,,,,,,,,,,,
null,,thebreak,1659495,break,,null,,,,,,,,,,,,,,,,,,
1718.1999999284744,,familiar_rating,1661213,Shreveport,,53,Shreveport,US,5,,,,,,,,,,,,,,,
null,,confidence_buffer,1661315,confidence_buffer,,null,,,,,,,,,,,,,,,,,,
1263.3999999761581,,probe_rating,1662579,probe_rating,,51,,,,3,1,,,,,,,,,,,,,
null,,confidence_buffer,1662681,confidence_buffer,,null,,,,,,,,,,,,,,,,,,
1997.8000000715256,,unique_rating,1664679,Shreveport,,52,,,4,,,,,,,,,,,,,,,
null,,confidence_buffer,1664781,confidence_buffer,,null,,,,,,,,,,,,,,,,,,
1576,,memorable_rating,1666357,Shreveport,,52,,,4,,,,,,,,,,,,,,,
null,,confidence_buffer,1666459,confidence_buffer,,null,,,,,,,,,,,,,,,,,,
null,,thebreak,1666961,break,,null,,,,,,,,,,,,,,,,,,
2390.399999976158,,familiar_rating,1669352,Hot Springs,,51,Hot Springs,US,3,,,,,,,,,,,,,,,
null,,confidence_buffer,1669453,confidence_buffer,,null,,,,,,,,,,,,,,,,,,
1805.7999999523163,,unique_rating,1671259,Hot Springs,,52,,,4,,,,,,,,,,,,,,,
null,,confidence_buffer,1671363,confidence_buffer,,null,,,,,,,,,,,,,,,,,,
1194.5,,memorable_rating,1672558,Hot Springs,,53,,,5,,,,,,,,,,,,,,,
null,,confidence_buffer,1672659,confidence_buffer,,null,,,,,,,,,,,,,,,,,,
null,,thebreak,1673160,break,,null,,,,,,,,,,,,,,,,,,
1980.8000000715256,,familiar_rating,1675141,Duck,,49,Duck,US,1,,,,,,,,,,,,,,,
null,,confidence_buffer,1675243,confidence_buffer,,null,,,,,,,,,,,,,,,,,,
1964.6000000238419,,unique_rating,1677208,Duck,,52,,,4,,,,,,,,,,,,,,,
null,,confidence_buffer,1677309,confidence_buffer,,null,,,,,,,,,,,,,,,,,,
1265.3000000715256,,probe_rating,1678575,probe_rating,,53,,,,5,1,,,,,,,,,,,,,
null,,confidence_buffer,1678677,confidence_buffer,,null,,,,,,,,,,,,,,,,,,
1696.7000000476837,,memorable_rating,1680374,Duck,,52,,,4,,,,,,,,,,,,,,,
null,,confidence_buffer,1680477,confidence_buffer,,null,,,,,,,,,,,,,,,,,,
null,,thebreak,1680978,break,,null,,,,,,,,,,,,,,,,,,
2357.399999976158,,familiar_rating,1683336,Orchard Bend,,50,Orchard Bend,Fictional,2,,,,,,,,,,,,,,,
null,,confidence_buffer,1683438,confidence_buffer,,null,,,,,,,,,,,,,,,,,,
2368.2999999523163,,unique_rating,1685807,Orchard Bend,,52,,,4,,,,,,,,,,,,,,,
null,,confidence_buffer,1685908,confidence_buffer,,null,,,,,,,,,,,,,,,,,,
1170.6000000238419,,memorable_rating,1687079,Orchard Bend,,52,,,4,,,,,,,,,,,,,,,
null,,confidence_buffer,1687181,confidence_buffer,,null,,,,,,,,,,,,,,,,,,
null,,thebreak,1687682,break,,null,,,,,,,,,,,,,,,,,,
1888.8000000715256,,familiar_rating,1689571,Fairhaven,,52,Fairhaven,Fictional,4,,,,,,,,,,,,,,,
null,,confidence_buffer,1689674,confidence_buffer,,null,,,,,,,,,,,,,,,,,,
1299,,unique_rating,1690973,Fairhaven,,50,,,2,,,,,,,,,,,,,,,
null,,confidence_buffer,1691080,confidence_buffer,,null,,,,,,,,,,,,,,,,,,
1555.6999999284744,,memorable_rating,1692636,Fairhaven,,52,,,4,,,,,,,,,,,,,,,
null,,confidence_buffer,1692737,confidence_buffer,,null,,,,,,,,,,,,,,,,,,
null,,thebreak,1693239,break,,null,,,,,,,,,,,,,,,,,,
2138.0999999046326,,familiar_rating,1695378,Northbridge,,50,Northbridge,Fictional,2,,,,,,,,,,,,,,,
null,,confidence_buffer,1695478,confidence_buffer,,null,,,,,,,,,,,,,,,,,,
1294.3999999761581,,unique_rating,1696773,Northbridge,,51,,,3,,,,,,,,,,,,,,,
null,,confidence_buffer,1696874,confidence_buffer,,null,,,,,,,,,,,,,,,,,,
1217.0999999046326,,memorable_rating,1698092,Northbridge,,51,,,3,,,,,,,,,,,,,,,
null,,confidence_buffer,1698194,confidence_buffer,,null,,,,,,,,,,,,,,,,,,
null,,thebreak,1698696,break,,null,,,,,,,,,,,,,,,,,,
2839.100000023842,,familiar_rating,1701536,Crestwood,,51,Crestwood,Fictional,3,,,,,,,,,,,,,,,
null,,confidence_buffer,1701637,confidence_buffer,,null,,,,,,,,,,,,,,,,,,
1909.5,,unique_rating,1703547,Crestwood,,50,,,2,,,,,,,,,,,,,,,
null,,confidence_buffer,1703648,confidence_buffer,,null,,,,,,,,,,,,,,,,,,
1335.2999999523163,,memorable_rating,1704984,Crestwood,,52,,,4,,,,,,,,,,,,,,,
null,,confidence_buffer,1705086,confidence_buffer,,null,,,,,,,,,,,,,,,,,,
null,,thebreak,1705587,break,,null,,,,,,,,,,,,,,,,,,
1738,,familiar_rating,1707326,Baymarsh,,49,Baymarsh,Fictional,1,,,,,,,,,,,,,,,
null,,confidence_buffer,1707429,confidence_buffer,,null,,,,,,,,,,,,,,,,,,
1607.8999999761581,,unique_rating,1709037,Baymarsh,,52,,,4,,,,,,,,,,,,,,,
null,,confidence_buffer,1709139,confidence_buffer,,null,,,,,,,,,,,,,,,,,,
653.9000000953674,,memorable_rating,1709793,Baymarsh,,52,,,4,,,,,,,,,,,,,,,
null,,confidence_buffer,1709894,confidence_buffer,,null,,,,,,,,,,,,,,,,,,
null,,thebreak,1710396,break,,null,,,,,,,,,,,,,,,,,,
1962.8000000715256,,familiar_rating,1712359,Gloucester,,53,Gloucester,US,5,,,,,,,,,,,,,,,
null,,confidence_buffer,1712460,confidence_buffer,,null,,,,,,,,,,,,,,,,,,
1678.8999999761581,,unique_rating,1714140,Gloucester,,52,,,4,,,,,,,,,,,,,,,
null,,confidence_buffer,1714241,confidence_buffer,,null,,,,,,,,,,,,,,,,,,
1183.8999999761581,,memorable_rating,1715425,Gloucester,,52,,,4,,,,,,,,,,,,,,,
null,,confidence_buffer,1715526,confidence_buffer,,null,,,,,,,,,,,,,,,,,,
null,,thebreak,1716028,break,,null,,,,,,,,,,,,,,,,,,
1997.6000000238419,,familiar_rating,1718026,Watkins Glen,,49,Watkins Glen,US,1,,,,,,,,,,,,,,,
null,,confidence_buffer,1718127,confidence_buffer,,null,,,,,,,,,,,,,,,,,,
1601.6000000238419,,unique_rating,1719729,Watkins Glen,,52,,,4,,,,,,,,,,,,,,,
null,,confidence_buffer,1719829,confidence_buffer,,null,,,,,,,,,,,,,,,,,,
735.7999999523163,,memorable_rating,1720566,Watkins Glen,,52,,,4,,,,,,,,,,,,,,,
null,,confidence_buffer,1720668,confidence_buffer,,null,,,,,,,,,,,,,,,,,,
1643.3999999761581,,probe_rating,1722312,probe_rating,,51,,,,3,1,,,,,,,,,,,,,
null,,confidence_buffer,1722414,confidence_buffer,,null,,,,,,,,,,,,,,,,,,
null,,thebreak,1722915,break,,null,,,,,,,,,,,,,,,,,,
2123.899999976158,,familiar_rating,1725040,Bar Harbor,,50,Bar Harbor,US,2,,,,,,,,,,,,,,,
null,,confidence_buffer,1725142,confidence_buffer,,null,,,,,,,,,,,,,,,,,,
2220,,unique_rating,1727362,Bar Harbor,,51,,,3,,,,,,,,,,,,,,,
null,,confidence_buffer,1727463,confidence_buffer,,null,,,,,,,,,,,,,,,,,,
1872.7999999523163,,memorable_rating,1729337,Bar Harbor,,52,,,4,,,,,,,,,,,,,,,
null,,confidence_buffer,1729437,confidence_buffer,,null,,,,,,,,,,,,,,,,,,
null,,thebreak,1729945,break,,null,,,,,,,,,,,,,,,,,,
7487.599999904633,,familiar_rating,1737433,Linden Trace,,50,Linden Trace,Fictional,2,,,,,,,,,,,,,,,
null,,confidence_buffer,1737549,confidence_buffer,,null,,,,,,,,,,,,,,,,,,
1580.2000000476837,,unique_rating,1739130,Linden Trace,,52,,,4,,,,,,,,,,,,,,,
null,,confidence_buffer,1739231,confidence_buffer,,null,,,,,,,,,,,,,,,,,,
1506.3999999761581,,memorable_rating,1740738,Linden Trace,,52,,,4,,,,,,,,,,,,,,,
null,,confidence_buffer,1740838,confidence_buffer,,null,,,,,,,,,,,,,,,,,,
null,,thebreak,1741340,break,,null,,,,,,,,,,,,,,,,,,
18413.699999928474,,intro_0,1759754,instruct,,32,,,,,,,,,,,,,,,,,,
5368.899999976158,,intro_1,1765124,instruct,,32,,,,,,,,,,,,,,,,,,
6487.800000071526,,intro_2,1771612,instruct,,32,,,,,,,,,,,,,,,,,,
null,,instruct_dir_4,1773114,instruct,,null,,,,,,,,,,,,,,,,,,
4635.699999928474,,realistic_rating,1777750,Elmsbury,,53,Elmsbury,Fictional,5,,,,,,,,,,,,,,,
null,,confidence_buffer,1777852,confidence_buffer,,null,,,,,,,,,,,,,,,,,,
3014.100000023842,,pt2_unique_rating,1780867,Elmsbury,,51,,,3,,,,,,,,,,,,,,,
null,,confidence_buffer,1780969,confidence_buffer,,null,,,,,,,,,,,,,,,,,,
6983.5,,pt2_memorable_rating,1787953,Elmsbury,,52,,,4,,,,,,,,,,,,,,,
null,,confidence_buffer,1788054,confidence_buffer,,null,,,,,,,,,,,,,,,,,,
859.2000000476837,,probe_rating,1788914,probe_rating,,52,,,,4,1,,,,,,,,,,,,,
null,,confidence_buffer,1789015,confidence_buffer,,null,,,,,,,,,,,,,,,,,,
3592.600000023842,,recognition_phase,1792609,Elmsbury,,50,,,,,,old,1,1,,,,,,,,,,
null,,confidence_buffer,1792710,confidence_buffer,,null,,,,,,,,,,,,,,,,,,
null,,thebreak,1793211,break,,null,,,,,,,,,,,,,,,,,,
2329.899999976158,,realistic_rating,1795542,Lakehaven,,53,Lakehaven,Fictional,5,,,,,,,,,,,,,,,
null,,confidence_buffer,1795643,confidence_buffer,,null,,,,,,,,,,,,,,,,,,
2097.3000000715256,,pt2_unique_rating,1797741,Lakehaven,,51,,,3,,,,,,,,,,,,,,,
null,,confidence_buffer,1797843,confidence_buffer,,null,,,,,,,,,,,,,,,,,,
1434,,pt2_memorable_rating,1799278,Lakehaven,,53,,,5,,,,,,,,,,,,,,,
null,,confidence_buffer,1799380,confidence_buffer,,null,,,,,,,,,,,,,,,,,,
1925.8000000715256,,recognition_phase,1801306,Lakehaven,,52,,,,,,new,1,1,,,,,,,,,,
null,,confidence_buffer,1801408,confidence_buffer,,null,,,,,,,,,,,,,,,,,,
null,,thebreak,1801909,break,,null,,,,,,,,,,,,,,,,,,
5782.799999952316,,realistic_rating,1807693,Assateague Island,,51,Assateague Island,US,3,,,,,,,,,,,,,,,
null,,confidence_buffer,1807794,confidence_buffer,,null,,,,,,,,,,,,,,,,,,
2676.1999999284744,,pt2_unique_rating,1810471,Assateague Island,,52,,,4,,,,,,,,,,,,,,,
null,,confidence_buffer,1810573,confidence_buffer,,null,,,,,,,,,,,,,,,,,,
2660.399999976158,,pt2_memorable_rating,1813234,Assateague Island,,52,,,4,,,,,,,,,,,,,,,
null,,confidence_buffer,1813340,confidence_buffer,,null,,,,,,,,,,,,,,,,,,
1485.6000000238419,,recognition_phase,1814826,Assateague Island,,52,,,,,,new,1,1,,,,,,,,,,
null,,confidence_buffer,1814928,confidence_buffer,,null,,,,,,,,,,,,,,,,,,
null,,thebreak,1815430,break,,null,,,,,,,,,,,,,,,,,,
3805.100000023842,,realistic_rating,1819236,Summershade,,52,Summershade,Fictional,4,,,,,,,,,,,,,,,
null,,confidence_buffer,1819337,confidence_buffer,,null,,,,,,,,,,,,,,,,,,
1187.9000000953674,,pt2_unique_rating,1820526,Summershade,,52,,,4,,,,,,,,,,,,,,,
null,,confidence_buffer,1820627,confidence_buffer,,null,,,,,,,,,,,,,,,,,,
1646.1000000238419,,pt2_memorable_rating,1822274,Summershade,,53,,,5,,,,,,,,,,,,,,,
null,,confidence_buffer,1822376,confidence_buffer,,null,,,,,,,,,,,,,,,,,,
1303.2000000476837,,recognition_phase,1823680,Summershade,,52,,,,,,new,1,1,,,,,,,,,,
null,,confidence_buffer,1823782,confidence_buffer,,null,,,,,,,,,,,,,,,,,,
null,,thebreak,1824284,break,,null,,,,,,,,,,,,,,,,,,
2906.100000023842,,realistic_rating,1827191,Orchard Bend,,53,Orchard Bend,Fictional,5,,,,,,,,,,,,,,,
null,,confidence_buffer,1827292,confidence_buffer,,null,,,,,,,,,,,,,,,,,,
1841.6999999284744,,pt2_unique_rating,1829135,Orchard Bend,,51,,,3,,,,,,,,,,,,,,,
null,,confidence_buffer,1829236,confidence_buffer,,null,,,,,,,,,,,,,,,,,,
1573.1000000238419,,pt2_memorable_rating,1830809,Orchard Bend,,52,,,4,,,,,,,,,,,,,,,
null,,confidence_buffer,1830911,confidence_buffer,,null,,,,,,,,,,,,,,,,,,
1478.7999999523163,,recognition_phase,1832391,Orchard Bend,,49,,,,,,old,1,1,,,,,,,,,,
null,,confidence_buffer,1832492,confidence_buffer,,null,,,,,,,,,,,,,,,,,,
null,,thebreak,1832993,break,,null,,,,,,,,,,,,,,,,,,
3418.5,,realistic_rating,1836412,Sammamish,,50,Sammamish,US,2,,,,,,,,,,,,,,,
null,,confidence_buffer,1836514,confidence_buffer,,null,,,,,,,,,,,,,,,,,,
1921.3000000715256,,pt2_unique_rating,1838435,Sammamish,,53,,,5,,,,,,,,,,,,,,,
null,,confidence_buffer,1838537,confidence_buffer,,null,,,,,,,,,,,,,,,,,,
1969.0999999046326,,pt2_memorable_rating,1840506,Sammamish,,52,,,4,,,,,,,,,,,,,,,
null,,confidence_buffer,1840608,confidence_buffer,,null,,,,,,,,,,,,,,,,,,
2314.100000023842,,recognition_phase,1842922,Sammamish,,52,,,,,,new,1,1,,,,,,,,,,
null,,confidence_buffer,1843023,confidence_buffer,,null,,,,,,,,,,,,,,,,,,
null,,thebreak,1843525,break,,null,,,,,,,,,,,,,,,,,,
9929.700000047684,,realistic_rating,1853455,Baymarsh,,53,Baymarsh,Fictional,5,,,,,,,,,,,,,,,
null,,confidence_buffer,1853557,confidence_buffer,,null,,,,,,,,,,,,,,,,,,
3500.5,,pt2_unique_rating,1857058,Baymarsh,,52,,,4,,,,,,,,,,,,,,,
null,,confidence_buffer,1857160,confidence_buffer,,null,,,,,,,,,,,,,,,,,,
1418.6999999284744,,pt2_memorable_rating,1858579,Baymarsh,,53,,,5,,,,,,,,,,,,,,,
null,,confidence_buffer,1858681,confidence_buffer,,null,,,,,,,,,,,,,,,,,,
2043.5,,recognition_phase,1860725,Baymarsh,,49,,,,,,old,1,1,,,,,,,,,,
null,,confidence_buffer,1860826,confidence_buffer,,null,,,,,,,,,,,,,,,,,,
null,,thebreak,1861328,break,,null,,,,,,,,,,,,,,,,,,
1633.1000000238419,,realistic_rating,1862961,West Palm Beach,,53,West Palm Beach,US,5,,,,,,,,,,,,,,,
null,,confidence_buffer,1863064,confidence_buffer,,null,,,,,,,,,,,,,,,,,,
2480,,pt2_unique_rating,1865544,West Palm Beach,,52,,,4,,,,,,,,,,,,,,,
null,,confidence_buffer,1865650,confidence_buffer,,null,,,,,,,,,,,,,,,,,,
1558.9000000953674,,pt2_memorable_rating,1867210,West Palm Beach,,53,,,5,,,,,,,,,,,,,,,
null,,confidence_buffer,1867312,confidence_buffer,,null,,,,,,,,,,,,,,,,,,
1386.6000000238419,,recognition_phase,1868699,West Palm Beach,,49,,,,,,old,1,1,,,,,,,,,,
null,,confidence_buffer,1868801,confidence_buffer,,null,,,,,,,,,,,,,,,,,,
null,,thebreak,1869302,break,,null,,,,,,,,,,,,,,,,,,
2393.100000023842,,realistic_rating,1871696,Bar Harbor,,53,Bar Harbor,US,5,,,,,,,,,,,,,,,
null,,confidence_buffer,1871796,confidence_buffer,,null,,,,,,,,,,,,,,,,,,
3139.1999999284744,,pt2_unique_rating,1874936,Bar Harbor,,52,,,4,,,,,,,,,,,,,,,
null,,confidence_buffer,1875037,confidence_buffer,,null,,,,,,,,,,,,,,,,,,
1646.7999999523163,,pt2_memorable_rating,1876685,Bar Harbor,,53,,,5,,,,,,,,,,,,,,,
null,,confidence_buffer,1876786,confidence_buffer,,null,,,,,,,,,,,,,,,,,,
1209.1000000238419,,recognition_phase,1877995,Bar Harbor,,49,,,,,,old,1,1,,,,,,,,,,
null,,confidence_buffer,1878096,confidence_buffer,,null,,,,,,,,,,,,,,,,,,
null,,thebreak,1878598,break,,null,,,,,,,,,,,,,,,,,,
2561.899999976158,,realistic_rating,1881161,Watkins Glen,,53,Watkins Glen,US,5,,,,,,,,,,,,,,,
null,,confidence_buffer,1881263,confidence_buffer,,null,,,,,,,,,,,,,,,,,,
2564.7999999523163,,pt2_unique_rating,1883828,Watkins Glen,,52,,,4,,,,,,,,,,,,,,,
null,,confidence_buffer,1883929,confidence_buffer,,null,,,,,,,,,,,,,,,,,,
1493.8999999761581,,pt2_memorable_rating,1885424,Watkins Glen,,52,,,4,,,,,,,,,,,,,,,
null,,confidence_buffer,1885525,confidence_buffer,,null,,,,,,,,,,,,,,,,,,
1158.2000000476837,,recognition_phase,1886683,Watkins Glen,,49,,,,,,old,1,1,,,,,,,,,,
null,,confidence_buffer,1886784,confidence_buffer,,null,,,,,,,,,,,,,,,,,,
null,,thebreak,1887285,break,,null,,,,,,,,,,,,,,,,,,
1694.6000000238419,,realistic_rating,1888980,Alliance,,53,Alliance,US,5,,,,,,,,,,,,,,,
null,,confidence_buffer,1889082,confidence_buffer,,null,,,,,,,,,,,,,,,,,,
906.5,,pt2_unique_rating,1889989,Alliance,,53,,,5,,,,,,,,,,,,,,,
null,,confidence_buffer,1890090,confidence_buffer,,null,,,,,,,,,,,,,,,,,,
885.8999999761581,,pt2_memorable_rating,1890976,Alliance,,53,,,5,,,,,,,,,,,,,,,
null,,confidence_buffer,1891079,confidence_buffer,,null,,,,,,,,,,,,,,,,,,
1195.3999999761581,,recognition_phase,1892275,Alliance,,49,,,,,,old,1,1,,,,,,,,,,
null,,confidence_buffer,1892376,confidence_buffer,,null,,,,,,,,,,,,,,,,,,
null,,thebreak,1892878,break,,null,,,,,,,,,,,,,,,,,,
2966.399999976158,,realistic_rating,1895844,Highvale,,53,Highvale,Fictional,5,,,,,,,,,,,,,,,
null,,confidence_buffer,1895946,confidence_buffer,,null,,,,,,,,,,,,,,,,,,
2525.5,,pt2_unique_rating,1898472,Highvale,,52,,,4,,,,,,,,,,,,,,,
null,,confidence_buffer,1898574,confidence_buffer,,null,,,,,,,,,,,,,,,,,,
1016.6000000238419,,pt2_memorable_rating,1899591,Highvale,,52,,,4,,,,,,,,,,,,,,,
null,,confidence_buffer,1899693,confidence_buffer,,null,,,,,,,,,,,,,,,,,,
1252.3000000715256,,recognition_phase,1900946,Highvale,,52,,,,,,new,1,1,,,,,,,,,,
null,,confidence_buffer,1901047,confidence_buffer,,null,,,,,,,,,,,,,,,,,,
null,,thebreak,1901548,break,,null,,,,,,,,,,,,,,,,,,
2007.7999999523163,,realistic_rating,1903557,New Hope,,53,New Hope,US,5,,,,,,,,,,,,,,,
null,,confidence_buffer,1903658,confidence_buffer,,null,,,,,,,,,,,,,,,,,,
2987.2000000476837,,pt2_unique_rating,1906646,New Hope,,52,,,4,,,,,,,,,,,,,,,
null,,confidence_buffer,1906747,confidence_buffer,,null,,,,,,,,,,,,,,,,,,
1539,,pt2_memorable_rating,1908287,New Hope,,53,,,5,,,,,,,,,,,,,,,
null,,confidence_buffer,1908388,confidence_buffer,,null,,,,,,,,,,,,,,,,,,
1168.6000000238419,,recognition_phase,1909557,New Hope,,49,,,,,,old,1,1,,,,,,,,,,
null,,confidence_buffer,1909659,confidence_buffer,,null,,,,,,,,,,,,,,,,,,
null,,thebreak,1910159,break,,null,,,,,,,,,,,,,,,,,,
2400.899999976158,,realistic_rating,1912561,Cody,,53,Cody,US,5,,,,,,,,,,,,,,,
null,,confidence_buffer,1912663,confidence_buffer,,null,,,,,,,,,,,,,,,,,,
1980.6000000238419,,pt2_unique_rating,1914644,Cody,,51,,,3,,,,,,,,,,,,,,,
null,,confidence_buffer,1914754,confidence_buffer,,null,,,,,,,,,,,,,,,,,,
6997.700000047684,,pt2_memorable_rating,1921752,Cody,,52,,,4,,,,,,,,,,,,,,,
null,,confidence_buffer,1921853,confidence_buffer,,null,,,,,,,,,,,,,,,,,,
1284.5,,recognition_phase,1923138,Cody,,52,,,,,,new,1,1,,,,,,,,,,
null,,confidence_buffer,1923240,confidence_buffer,,null,,,,,,,,,,,,,,,,,,
null,,thebreak,1923741,break,,null,,,,,,,,,,,,,,,,,,
8045.699999928474,,realistic_rating,1931787,Linden Trace,,53,Linden Trace,Fictional,5,,,,,,,,,,,,,,,
null,,confidence_buffer,1931889,confidence_buffer,,null,,,,,,,,,,,,,,,,,,
1278.1000000238419,,pt2_unique_rating,1933167,Linden Trace,,52,,,4,,,,,,,,,,,,,,,
null,,confidence_buffer,1933268,confidence_buffer,,null,,,,,,,,,,,,,,,,,,
1207.8999999761581,,pt2_memorable_rating,1934476,Linden Trace,,52,,,4,,,,,,,,,,,,,,,
null,,confidence_buffer,1934577,confidence_buffer,,null,,,,,,,,,,,,,,,,,,
1203.3999999761581,,probe_rating,1935781,probe_rating,,50,,,,2,1,,,,,,,,,,,,,
null,,confidence_buffer,1935882,confidence_buffer,,null,,,,,,,,,,,,,,,,,,
1646.2999999523163,,recognition_phase,1937529,Linden Trace,,49,,,,,,old,1,1,,,,,,,,,,
null,,confidence_buffer,1937631,confidence_buffer,,null,,,,,,,,,,,,,,,,,,
null,,thebreak,1938133,break,,null,,,,,,,,,,,,,,,,,,
2053.899999976158,,realistic_rating,1940187,West Talora,,53,West Talora,Fictional,5,,,,,,,,,,,,,,,
null,,confidence_buffer,1940288,confidence_buffer,,null,,,,,,,,,,,,,,,,,,
3017,,pt2_unique_rating,1943306,West Talora,,51,,,3,,,,,,,,,,,,,,,
null,,confidence_buffer,1943407,confidence_buffer,,null,,,,,,,,,,,,,,,,,,
1418.1000000238419,,pt2_memorable_rating,1944826,West Talora,,51,,,3,,,,,,,,,,,,,,,
null,,confidence_buffer,1944928,confidence_buffer,,null,,,,,,,,,,,,,,,,,,
1321.5,,recognition_phase,1946250,West Talora,,52,,,,,,new,1,1,,,,,,,,,,
null,,confidence_buffer,1946351,confidence_buffer,,null,,,,,,,,,,,,,,,,,,
null,,thebreak,1946853,break,,null,,,,,,,,,,,,,,,,,,
2168.5,,realistic_rating,1949022,Brookmere,,53,Brookmere,Fictional,5,,,,,,,,,,,,,,,
null,,confidence_buffer,1949123,confidence_buffer,,null,,,,,,,,,,,,,,,,,,
1676.4000000953674,,pt2_unique_rating,1950801,Brookmere,,51,,,3,,,,,,,,,,,,,,,
null,,confidence_buffer,1950903,confidence_buffer,,null,,,,,,,,,,,,,,,,,,
2417.100000023842,,pt2_memorable_rating,1953320,Brookmere,,51,,,3,,,,,,,,,,,,,,,
null,,confidence_buffer,1953421,confidence_buffer,,null,,,,,,,,,,,,,,,,,,
1207.7000000476837,,recognition_phase,1954629,Brookmere,,52,,,,,,new,1,1,,,,,,,,,,
null,,confidence_buffer,1954731,confidence_buffer,,null,,,,,,,,,,,,,,,,,,
null,,thebreak,1955232,break,,null,,,,,,,,,,,,,,,,,,
1810.5,,realistic_rating,1957043,Natchez,,53,Natchez,US,5,,,,,,,,,,,,,,,
null,,confidence_buffer,1957145,confidence_buffer,,null,,,,,,,,,,,,,,,,,,
1745.8999999761581,,pt2_unique_rating,1958891,Natchez,,52,,,4,,,,,,,,,,,,,,,
null,,confidence_buffer,1958993,confidence_buffer,,null,,,,,,,,,,,,,,,,,,
1658.5,,pt2_memorable_rating,1960652,Natchez,,53,,,5,,,,,,,,,,,,,,,
null,,confidence_buffer,1960754,confidence_buffer,,null,,,,,,,,,,,,,,,,,,
1438,,recognition_phase,1962193,Natchez,,52,,,,,,new,1,1,,,,,,,,,,
null,,confidence_buffer,1962294,confidence_buffer,,null,,,,,,,,,,,,,,,,,,
null,,thebreak,1962795,break,,null,,,,,,,,,,,,,,,,,,
3113.4000000953674,,realistic_rating,1965909,Hawthorne Bluffs,,53,Hawthorne Bluffs,Fictional,5,,,,,,,,,,,,,,,
null,,confidence_buffer,1966010,confidence_buffer,,null,,,,,,,,,,,,,,,,,,
1563.8999999761581,,pt2_unique_rating,1967575,Hawthorne Bluffs,,52,,,4,,,,,,,,,,,,,,,
null,,confidence_buffer,1967676,confidence_buffer,,null,,,,,,,,,,,,,,,,,,
1261.1999999284744,,pt2_memorable_rating,1968938,Hawthorne Bluffs,,52,,,4,,,,,,,,,,,,,,,
null,,confidence_buffer,1969039,confidence_buffer,,null,,,,,,,,,,,,,,,,,,
1723.6000000238419,,probe_rating,1970763,probe_rating,,49,,,,1,1,,,,,,,,,,,,,
null,,confidence_buffer,1970864,confidence_buffer,,null,,,,,,,,,,,,,,,,,,
1132.6000000238419,,recognition_phase,1971997,Hawthorne Bluffs,,49,,,,,,old,1,1,,,,,,,,,,
null,,confidence_buffer,1972099,confidence_buffer,,null,,,,,,,,,,,,,,,,,,
null,,thebreak,1972600,break,,null,,,,,,,,,,,,,,,,,,
1786.7999999523163,,realistic_rating,1974388,Granton Ridge,,53,Granton Ridge,Fictional,5,,,,,,,,,,,,,,,
null,,confidence_buffer,1974489,confidence_buffer,,null,,,,,,,,,,,,,,,,,,
3118.1999999284744,,pt2_unique_rating,1977608,Granton Ridge,,51,,,3,,,,,,,,,,,,,,,
null,,confidence_buffer,1977709,confidence_buffer,,null,,,,,,,,,,,,,,,,,,
887.1999999284744,,pt2_memorable_rating,1978597,Granton Ridge,,52,,,4,,,,,,,,,,,,,,,
null,,confidence_buffer,1978698,confidence_buffer,,null,,,,,,,,,,,,,,,,,,
1287,,probe_rating,1979986,probe_rating,,51,,,,3,1,,,,,,,,,,,,,
null,,confidence_buffer,1980087,confidence_buffer,,null,,,,,,,,,,,,,,,,,,
1166.8999999761581,,recognition_phase,1981254,Granton Ridge,,52,,,,,,new,1,1,,,,,,,,,,
null,,confidence_buffer,1981355,confidence_buffer,,null,,,,,,,,,,,,,,,,,,
null,,thebreak,1981856,break,,null,,,,,,,,,,,,,,,,,,
2173.5,,realistic_rating,1984030,Fairhaven,,53,Fairhaven,Fictional,5,,,,,,,,,,,,,,,
null,,confidence_buffer,1984132,confidence_buffer,,null,,,,,,,,,,,,,,,,,,
1912,,pt2_unique_rating,1986045,Fairhaven,,52,,,4,,,,,,,,,,,,,,,
null,,confidence_buffer,1986146,confidence_buffer,,null,,,,,,,,,,,,,,,,,,
1870.6000000238419,,pt2_memorable_rating,1988017,Fairhaven,,53,,,5,,,,,,,,,,,,,,,
null,,confidence_buffer,1988119,confidence_buffer,,null,,,,,,,,,,,,,,,,,,
1132.5,,recognition_phase,1989252,Fairhaven,,52,,,,,,new,0,0.9523809523809523,,,,,,,,,,
null,,confidence_buffer,1989353,confidence_buffer,,null,,,,,,,,,,,,,,,,,,
null,,thebreak,1989856,break,,null,,,,,,,,,,,,,,,,,,
1934.1000000238419,,realistic_rating,1991790,Hanover,,53,Hanover,US,5,,,,,,,,,,,,,,,
null,,confidence_buffer,1991892,confidence_buffer,,null,,,,,,,,,,,,,,,,,,
3281,,pt2_unique_rating,1995173,Hanover,,51,,,3,,,,,,,,,,,,,,,
null,,confidence_buffer,1995283,confidence_buffer,,null,,,,,,,,,,,,,,,,,,
7914.600000023842,,pt2_memorable_rating,2003198,Hanover,,52,,,4,,,,,,,,,,,,,,,
null,,confidence_buffer,2003300,confidence_buffer,,null,,,,,,,,,,,,,,,,,,
1372.5,,recognition_phase,2004673,Hanover,,49,,,,,,old,1,0.9545454545454546,,,,,,,,,,
null,,confidence_buffer,2004785,confidence_buffer,,null,,,,,,,,,,,,,,,,,,
null,,thebreak,2005287,break,,null,,,,,,,,,,,,,,,,,,
6577.100000023842,,realistic_rating,2011864,Millstone,,53,Millstone,Fictional,5,,,,,,,,,,,,,,,
null,,confidence_buffer,2011966,confidence_buffer,,null,,,,,,,,,,,,,,,,,,
10617,,pt2_unique_rating,2022583,Millstone,,52,,,4,,,,,,,,,,,,,,,
null,,confidence_buffer,2022685,confidence_buffer,,null,,,,,,,,,,,,,,,,,,
1118.3999999761581,,pt2_memorable_rating,2023804,Millstone,,53,,,5,,,,,,,,,,,,,,,
null,,confidence_buffer,2023905,confidence_buffer,,null,,,,,,,,,,,,,,,,,,
1426.2999999523163,,recognition_phase,2025332,Millstone,,49,,,,,,old,1,0.9565217391304348,,,,,,,,,,
null,,confidence_buffer,2025433,confidence_buffer,,null,,,,,,,,,,,,,,,,,,
null,,thebreak,2025935,break,,null,,,,,,,,,,,,,,,,,,
1954,,realistic_rating,2027890,Rosehollow,,53,Rosehollow,Fictional,5,,,,,,,,,,,,,,,
null,,confidence_buffer,2027991,confidence_buffer,,null,,,,,,,,,,,,,,,,,,
1541.6999999284744,,pt2_unique_rating,2029533,Rosehollow,,52,,,4,,,,,,,,,,,,,,,
null,,confidence_buffer,2029644,confidence_buffer,,null,,,,,,,,,,,,,,,,,,
13334.299999952316,,pt2_memorable_rating,2042979,Rosehollow,,53,,,5,,,,,,,,,,,,,,,
null,,confidence_buffer,2043080,confidence_buffer,,null,,,,,,,,,,,,,,,,,,
1018.1000000238419,,recognition_phase,2044099,Rosehollow,,52,,,,,,new,1,0.9583333333333334,,,,,,,,,,
null,,confidence_buffer,2044200,confidence_buffer,,null,,,,,,,,,,,,,,,,,,
null,,thebreak,2044701,break,,null,,,,,,,,,,,,,,,,,,
6666.5,,realistic_rating,2051368,Okoboji,,53,Okoboji,US,5,,,,,,,,,,,,,,,
null,,confidence_buffer,2051470,confidence_buffer,,null,,,,,,,,,,,,,,,,,,
1182.3000000715256,,pt2_unique_rating,2052653,Okoboji,,53,,,5,,,,,,,,,,,,,,,
null,,confidence_buffer,2052754,confidence_buffer,,null,,,,,,,,,,,,,,,,,,
799.6000000238419,,pt2_memorable_rating,2053554,Okoboji,,53,,,5,,,,,,,,,,,,,,,
null,,confidence_buffer,2053658,confidence_buffer,,null,,,,,,,,,,,,,,,,,,
1366.7000000476837,,recognition_phase,2055025,Okoboji,,49,,,,,,old,1,0.96,,,,,,,,,,
null,,confidence_buffer,2055127,confidence_buffer,,null,,,,,,,,,,,,,,,,,,
null,,thebreak,2055629,break,,null,,,,,,,,,,,,,,,,,,
5687.399999976158,,realistic_rating,2061317,Sitka,,51,Sitka,US,3,,,,,,,,,,,,,,,
null,,confidence_buffer,2061418,confidence_buffer,,null,,,,,,,,,,,,,,,,,,
2305.399999976158,,pt2_unique_rating,2063724,Sitka,,53,,,5,,,,,,,,,,,,,,,
null,,confidence_buffer,2063831,confidence_buffer,,null,,,,,,,,,,,,,,,,,,
1441.3000000715256,,pt2_memorable_rating,2065273,Sitka,,52,,,4,,,,,,,,,,,,,,,
null,,confidence_buffer,2065382,confidence_buffer,,null,,,,,,,,,,,,,,,,,,
1272.8999999761581,,recognition_phase,2066656,Sitka,,49,,,,,,old,1,0.9615384615384616,,,,,,,,,,
null,,confidence_buffer,2066757,confidence_buffer,,null,,,,,,,,,,,,,,,,,,
null,,thebreak,2067258,break,,null,,,,,,,,,,,,,,,,,,
4852.5,,realistic_rating,2072111,Stonebrook,,53,Stonebrook,Fictional,5,,,,,,,,,,,,,,,
null,,confidence_buffer,2072213,confidence_buffer,,null,,,,,,,,,,,,,,,,,,
1694.7000000476837,,pt2_unique_rating,2073908,Stonebrook,,51,,,3,,,,,,,,,,,,,,,
null,,confidence_buffer,2074010,confidence_buffer,,null,,,,,,,,,,,,,,,,,,
1467.5,,pt2_memorable_rating,2075478,Stonebrook,,52,,,4,,,,,,,,,,,,,,,
null,,confidence_buffer,2075579,confidence_buffer,,null,,,,,,,,,,,,,,,,,,
4250.5,,recognition_phase,2079830,Stonebrook,,49,,,,,,old,1,0.9629629629629629,,,,,,,,,,
null,,confidence_buffer,2079932,confidence_buffer,,null,,,,,,,,,,,,,,,,,,
null,,thebreak,2080433,break,,null,,,,,,,,,,,,,,,,,,
1648.3000000715256,,realistic_rating,2082082,Oakridge,,53,Oakridge,Fictional,5,,,,,,,,,,,,,,,
null,,confidence_buffer,2082184,confidence_buffer,,null,,,,,,,,,,,,,,,,,,
2656.5999999046326,,pt2_unique_rating,2084841,Oakridge,,50,,,2,,,,,,,,,,,,,,,
null,,confidence_buffer,2084943,confidence_buffer,,null,,,,,,,,,,,,,,,,,,
1769.8999999761581,,pt2_memorable_rating,2086714,Oakridge,,52,,,4,,,,,,,,,,,,,,,
null,,confidence_buffer,2086815,confidence_buffer,,null,,,,,,,,,,,,,,,,,,
1046.1000000238419,,recognition_phase,2087861,Oakridge,,49,,,,,,old,1,0.9642857142857143,,,,,,,,,,
null,,confidence_buffer,2087962,confidence_buffer,,null,,,,,,,,,,,,,,,,,,
null,,thebreak,2088464,break,,null,,,,,,,,,,,,,,,,,,
1449.7999999523163,,realistic_rating,2089914,Gloucester,,53,Gloucester,US,5,,,,,,,,,,,,,,,
null,,confidence_buffer,2090015,confidence_buffer,,null,,,,,,,,,,,,,,,,,,
2112.6999999284744,,pt2_unique_rating,2092129,Gloucester,,52,,,4,,,,,,,,,,,,,,,
null,,confidence_buffer,2092231,confidence_buffer,,null,,,,,,,,,,,,,,,,,,
1283.3999999761581,,probe_rating,2093515,probe_rating,,51,,,,3,1,,,,,,,,,,,,,
null,,confidence_buffer,2093616,confidence_buffer,,null,,,,,,,,,,,,,,,,,,
1589,,pt2_memorable_rating,2095206,Gloucester,,52,,,4,,,,,,,,,,,,,,,
null,,confidence_buffer,2095308,confidence_buffer,,null,,,,,,,,,,,,,,,,,,
1032.7000000476837,,recognition_phase,2096341,Gloucester,,49,,,,,,old,1,0.9655172413793104,,,,,,,,,,
null,,confidence_buffer,2096442,confidence_buffer,,null,,,,,,,,,,,,,,,,,,
null,,thebreak,2096944,break,,null,,,,,,,,,,,,,,,,,,
3372.2000000476837,,realistic_rating,2100316,Leesburg,,53,Leesburg,US,5,,,,,,,,,,,,,,,
null,,confidence_buffer,2100418,confidence_buffer,,null,,,,,,,,,,,,,,,,,,
1950.6000000238419,,pt2_unique_rating,2102369,Leesburg,,49,,,1,,,,,,,,,,,,,,,
null,,confidence_buffer,2102470,confidence_buffer,,null,,,,,,,,,,,,,,,,,,
2689.899999976158,,pt2_memorable_rating,2105161,Leesburg,,51,,,3,,,,,,,,,,,,,,,
null,,confidence_buffer,2105263,confidence_buffer,,null,,,,,,,,,,,,,,,,,,
1090,,probe_rating,2106354,probe_rating,,49,,,,1,1,,,,,,,,,,,,,
null,,confidence_buffer,2106458,confidence_buffer,,null,,,,,,,,,,,,,,,,,,
671.6000000238419,,recognition_phase,2107131,Leesburg,,49,,,,,,old,1,0.9666666666666667,,,,,,,,,,
null,,confidence_buffer,2107232,confidence_buffer,,null,,,,,,,,,,,,,,,,,,
null,,thebreak,2107733,break,,null,,,,,,,,,,,,,,,,,,
3241.9000000953674,,realistic_rating,2110976,Lake of the Ozarks,,53,Lake of the Ozarks,US,5,,,,,,,,,,,,,,,
null,,confidence_buffer,2111078,confidence_buffer,,null,,,,,,,,,,,,,,,,,,
4377.600000023842,,pt2_unique_rating,2115456,Lake of the Ozarks,,52,,,4,,,,,,,,,,,,,,,
null,,confidence_buffer,2115558,confidence_buffer,,null,,,,,,,,,,,,,,,,,,
1047.1000000238419,,pt2_memorable_rating,2116605,Lake of the Ozarks,,53,,,5,,,,,,,,,,,,,,,
null,,confidence_buffer,2116708,confidence_buffer,,null,,,,,,,,,,,,,,,,,,
1265.6000000238419,,recognition_phase,2117974,Lake of the Ozarks,,52,,,,,,new,1,0.967741935483871,,,,,,,,,,
null,,confidence_buffer,2118075,confidence_buffer,,null,,,,,,,,,,,,,,,,,,
null,,thebreak,2118577,break,,null,,,,,,,,,,,,,,,,,,
4303.700000047684,,realistic_rating,2122881,Westridge,,53,Westridge,Fictional,5,,,,,,,,,,,,,,,
null,,confidence_buffer,2122983,confidence_buffer,,null,,,,,,,,,,,,,,,,,,
2451.7000000476837,,pt2_unique_rating,2125435,Westridge,,51,,,3,,,,,,,,,,,,,,,
null,,confidence_buffer,2125536,confidence_buffer,,null,,,,,,,,,,,,,,,,,,
628.8000000715256,,probe_rating,2126165,probe_rating,,51,,,,3,1,,,,,,,,,,,,,
null,,confidence_buffer,2126267,confidence_buffer,,null,,,,,,,,,,,,,,,,,,
5034.799999952316,,pt2_memorable_rating,2131302,Westridge,,52,,,4,,,,,,,,,,,,,,,
null,,confidence_buffer,2131404,confidence_buffer,,null,,,,,,,,,,,,,,,,,,
1765.2000000476837,,recognition_phase,2133169,Westridge,,50,,,,,,old,0,0.9375,,,,,,,,,,
null,,confidence_buffer,2133271,confidence_buffer,,null,,,,,,,,,,,,,,,,,,
null,,thebreak,2133772,break,,null,,,,,,,,,,,,,,,,,,
5155.799999952316,,realistic_rating,2138928,Northbridge,,53,Northbridge,Fictional,5,,,,,,,,,,,,,,,
null,,confidence_buffer,2139031,confidence_buffer,,null,,,,,,,,,,,,,,,,,,
9451.799999952316,,pt2_unique_rating,2148483,Northbridge,,51,,,3,,,,,,,,,,,,,,,
null,,confidence_buffer,2148584,confidence_buffer,,null,,,,,,,,,,,,,,,,,,
3884.0999999046326,,pt2_memorable_rating,2152468,Northbridge,,51,,,3,,,,,,,,,,,,,,,
null,,confidence_buffer,2152571,confidence_buffer,,null,,,,,,,,,,,,,,,,,,
1739.5999999046326,,recognition_phase,2154311,Northbridge,,50,,,,,,old,1,0.9393939393939394,,,,,,,,,,
null,,confidence_buffer,2154412,confidence_buffer,,null,,,,,,,,,,,,,,,,,,
null,,thebreak,2154913,break,,null,,,,,,,,,,,,,,,,,,
1983.1999999284744,,realistic_rating,2156897,Hilo,,53,Hilo,US,5,,,,,,,,,,,,,,,
null,,confidence_buffer,2156998,confidence_buffer,,null,,,,,,,,,,,,,,,,,,
1435.8999999761581,,pt2_unique_rating,2158434,Hilo,,52,,,4,,,,,,,,,,,,,,,
null,,confidence_buffer,2158549,confidence_buffer,,null,,,,,,,,,,,,,,,,,,
1150.3999999761581,,pt2_memorable_rating,2159700,Hilo,,52,,,4,,,,,,,,,,,,,,,
null,,confidence_buffer,2159801,confidence_buffer,,null,,,,,,,,,,,,,,,,,,
844.6000000238419,,recognition_phase,2160646,Hilo,,52,,,,,,new,1,0.9411764705882353,,,,,,,,,,
null,,confidence_buffer,2160747,confidence_buffer,,null,,,,,,,,,,,,,,,,,,
null,,thebreak,2161248,break,,null,,,,,,,,,,,,,,,,,,
2157.5,,realistic_rating,2163406,Healdsburg,,53,Healdsburg,US,5,,,,,,,,,,,,,,,
null,,confidence_buffer,2163507,confidence_buffer,,null,,,,,,,,,,,,,,,,,,
3322.5,,pt2_unique_rating,2166830,Healdsburg,,51,,,3,,,,,,,,,,,,,,,
null,,confidence_buffer,2166932,confidence_buffer,,null,,,,,,,,,,,,,,,,,,
3738.5,,pt2_memorable_rating,2170671,Healdsburg,,51,,,3,,,,,,,,,,,,,,,
null,,confidence_buffer,2170772,confidence_buffer,,null,,,,,,,,,,,,,,,,,,
1118.2999999523163,,recognition_phase,2171891,Healdsburg,,49,,,,,,old,1,0.9428571428571428,,,,,,,,,,
null,,confidence_buffer,2171993,confidence_buffer,,null,,,,,,,,,,,,,,,,,,
null,,thebreak,2172496,break,,null,,,,,,,,,,,,,,,,,,
5164.700000047684,,realistic_rating,2177661,Orr,,52,Orr,US,4,,,,,,,,,,,,,,,
null,,confidence_buffer,2177763,confidence_buffer,,null,,,,,,,,,,,,,,,,,,
2255.399999976158,,pt2_unique_rating,2180019,Orr,,53,,,5,,,,,,,,,,,,,,,
null,,confidence_buffer,2180120,confidence_buffer,,null,,,,,,,,,,,,,,,,,,
1215.5,,pt2_memorable_rating,2181336,Orr,,53,,,5,,,,,,,,,,,,,,,
null,,confidence_buffer,2181437,confidence_buffer,,null,,,,,,,,,,,,,,,,,,
1054.8000000715256,,recognition_phase,2182492,Orr,,52,,,,,,new,1,0.9444444444444444,,,,,,,,,,
null,,confidence_buffer,2182593,confidence_buffer,,null,,,,,,,,,,,,,,,,,,
null,,thebreak,2183095,break,,null,,,,,,,,,,,,,,,,,,
2570,,realistic_rating,2185665,Sierra Hollow,,53,Sierra Hollow,Fictional,5,,,,,,,,,,,,,,,
null,,confidence_buffer,2185768,confidence_buffer,,null,,,,,,,,,,,,,,,,,,
4016.8000000715256,,pt2_unique_rating,2189785,Sierra Hollow,,51,,,3,,,,,,,,,,,,,,,
null,,confidence_buffer,2189887,confidence_buffer,,null,,,,,,,,,,,,,,,,,,
1210.6000000238419,,pt2_memorable_rating,2191098,Sierra Hollow,,52,,,4,,,,,,,,,,,,,,,
null,,confidence_buffer,2191200,confidence_buffer,,null,,,,,,,,,,,,,,,,,,
1036,,recognition_phase,2192236,Sierra Hollow,,49,,,,,,old,1,0.9459459459459459,,,,,,,,,,
null,,confidence_buffer,2192337,confidence_buffer,,null,,,,,,,,,,,,,,,,,,
null,,thebreak,2192840,break,,null,,,,,,,,,,,,,,,,,,
2444.2999999523163,,realistic_rating,2195285,Gatlinburg,,53,Gatlinburg,US,5,,,,,,,,,,,,,,,
null,,confidence_buffer,2195386,confidence_buffer,,null,,,,,,,,,,,,,,,,,,
2196.8000000715256,,pt2_unique_rating,2197583,Gatlinburg,,51,,,3,,,,,,,,,,,,,,,
null,,confidence_buffer,2197685,confidence_buffer,,null,,,,,,,,,,,,,,,,,,
1329.1000000238419,,pt2_memorable_rating,2199015,Gatlinburg,,52,,,4,,,,,,,,,,,,,,,
null,,confidence_buffer,2199117,confidence_buffer,,null,,,,,,,,,,,,,,,,,,
705.6000000238419,,recognition_phase,2199823,Gatlinburg,,52,,,,,,new,1,0.9473684210526315,,,,,,,,,,
null,,confidence_buffer,2199924,confidence_buffer,,null,,,,,,,,,,,,,,,,,,
null,,thebreak,2200426,break,,null,,,,,,,,,,,,,,,,,,
1907.3999999761581,,realistic_rating,2202334,Maravilla Springs,,53,Maravilla Springs,Fictional,5,,,,,,,,,,,,,,,
null,,confidence_buffer,2202438,confidence_buffer,,null,,,,,,,,,,,,,,,,,,
1684.6000000238419,,pt2_unique_rating,2204123,Maravilla Springs,,52,,,4,,,,,,,,,,,,,,,
null,,confidence_buffer,2204232,confidence_buffer,,null,,,,,,,,,,,,,,,,,,
1899.9000000953674,,pt2_memorable_rating,2206132,Maravilla Springs,,52,,,4,,,,,,,,,,,,,,,
null,,confidence_buffer,2206233,confidence_buffer,,null,,,,,,,,,,,,,,,,,,
894.5,,recognition_phase,2207128,Maravilla Springs,,52,,,,,,new,1,0.9487179487179487,,,,,,,,,,
null,,confidence_buffer,2207229,confidence_buffer,,null,,,,,,,,,,,,,,,,,,
null,,thebreak,2207732,break,,null,,,,,,,,,,,,,,,,,,
1324.5,,realistic_rating,2209057,Yukon,,53,Yukon,US,5,,,,,,,,,,,,,,,
null,,confidence_buffer,2209159,confidence_buffer,,null,,,,,,,,,,,,,,,,,,
1722.7000000476837,,pt2_unique_rating,2210882,Yukon,,52,,,4,,,,,,,,,,,,,,,
null,,confidence_buffer,2210982,confidence_buffer,,null,,,,,,,,,,,,,,,,,,
1292.8999999761581,,pt2_memorable_rating,2212276,Yukon,,53,,,5,,,,,,,,,,,,,,,
null,,confidence_buffer,2212377,confidence_buffer,,null,,,,,,,,,,,,,,,,,,
1007,,recognition_phase,2213385,Yukon,,52,,,,,,new,1,0.95,,,,,,,,,,
null,,confidence_buffer,2213485,confidence_buffer,,null,,,,,,,,,,,,,,,,,,
null,,thebreak,2213988,break,,null,,,,,,,,,,,,,,,,,,
1934.7000000476837,,realistic_rating,2215923,Ravenport,,53,Ravenport,Fictional,5,,,,,,,,,,,,,,,
null,,confidence_buffer,2216024,confidence_buffer,,null,,,,,,,,,,,,,,,,,,
2501.6999999284744,,pt2_unique_rating,2218526,Ravenport,,51,,,3,,,,,,,,,,,,,,,
null,,confidence_buffer,2218628,confidence_buffer,,null,,,,,,,,,,,,,,,,,,
1128.5999999046326,,pt2_memorable_rating,2219757,Ravenport,,52,,,4,,,,,,,,,,,,,,,
null,,confidence_buffer,2219858,confidence_buffer,,null,,,,,,,,,,,,,,,,,,
799.4000000953674,,recognition_phase,2220658,Ravenport,,52,,,,,,new,1,0.9512195121951219,,,,,,,,,,
null,,confidence_buffer,2220759,confidence_buffer,,null,,,,,,,,,,,,,,,,,,
null,,thebreak,2221261,break,,null,,,,,,,,,,,,,,,,,,
2016.8999999761581,,realistic_rating,2223278,Coeur d'Alene,,53,Coeur d'Alene,US,5,,,,,,,,,,,,,,,
null,,confidence_buffer,2223380,confidence_buffer,,null,,,,,,,,,,,,,,,,,,
1067,,pt2_unique_rating,2224447,Coeur d'Alene,,53,,,5,,,,,,,,,,,,,,,
null,,confidence_buffer,2224548,confidence_buffer,,null,,,,,,,,,,,,,,,,,,
1166.7999999523163,,pt2_memorable_rating,2225716,Coeur d'Alene,,53,,,5,,,,,,,,,,,,,,,
null,,confidence_buffer,2225818,confidence_buffer,,null,,,,,,,,,,,,,,,,,,
1312.9000000953674,,recognition_phase,2227132,Coeur d'Alene,,52,,,,,,new,1,0.9523809523809523,,,,,,,,,,
null,,confidence_buffer,2227233,confidence_buffer,,null,,,,,,,,,,,,,,,,,,
null,,thebreak,2227734,break,,null,,,,,,,,,,,,,,,,,,
1265,,realistic_rating,2229000,Cedarwyn,,53,Cedarwyn,Fictional,5,,,,,,,,,,,,,,,
null,,confidence_buffer,2229101,confidence_buffer,,null,,,,,,,,,,,,,,,,,,
2432.600000023842,,pt2_unique_rating,2231534,Cedarwyn,,51,,,3,,,,,,,,,,,,,,,
null,,confidence_buffer,2231636,confidence_buffer,,null,,,,,,,,,,,,,,,,,,
1000.8000000715256,,pt2_memorable_rating,2232637,Cedarwyn,,52,,,4,,,,,,,,,,,,,,,
null,,confidence_buffer,2232738,confidence_buffer,,null,,,,,,,,,,,,,,,,,,
1451.8999999761581,,recognition_phase,2234190,Cedarwyn,,52,,,,,,new,0,0.9302325581395349,,,,,,,,,,
null,,confidence_buffer,2234291,confidence_buffer,,null,,,,,,,,,,,,,,,,,,
null,,thebreak,2234793,break,,null,,,,,,,,,,,,,,,,,,
1271.5,,realistic_rating,2236065,Crestwood,,53,Crestwood,Fictional,5,,,,,,,,,,,,,,,
null,,confidence_buffer,2236167,confidence_buffer,,null,,,,,,,,,,,,,,,,,,
8700.900000095367,,pt2_unique_rating,2244868,Crestwood,,51,,,3,,,,,,,,,,,,,,,
null,,confidence_buffer,2244970,confidence_buffer,,null,,,,,,,,,,,,,,,,,,
6466.5,,pt2_memorable_rating,2251437,Crestwood,,51,,,3,,,,,,,,,,,,,,,
null,,confidence_buffer,2251538,confidence_buffer,,null,,,,,,,,,,,,,,,,,,
3171.5,,recognition_phase,2254710,Crestwood,,50,,,,,,old,1,0.9318181818181818,,,,,,,,,,
null,,confidence_buffer,2254812,confidence_buffer,,null,,,,,,,,,,,,,,,,,,
null,,thebreak,2255314,break,,null,,,,,,,,,,,,,,,,,,
2285.5,,realistic_rating,2257600,Sunmere,,53,Sunmere,Fictional,5,,,,,,,,,,,,,,,
null,,confidence_buffer,2257701,confidence_buffer,,null,,,,,,,,,,,,,,,,,,
1473,,pt2_unique_rating,2259175,Sunmere,,52,,,4,,,,,,,,,,,,,,,
null,,confidence_buffer,2259276,confidence_buffer,,null,,,,,,,,,,,,,,,,,,
4795.599999904633,,pt2_memorable_rating,2264073,Sunmere,,52,,,4,,,,,,,,,,,,,,,
null,,confidence_buffer,2264173,confidence_buffer,,null,,,,,,,,,,,,,,,,,,
2620.899999976158,,recognition_phase,2266795,Sunmere,,51,,,,,,new,0,0.9111111111111111,,,,,,,,,,
null,,confidence_buffer,2266896,confidence_buffer,,null,,,,,,,,,,,,,,,,,,
null,,thebreak,2267397,break,,null,,,,,,,,,,,,,,,,,,
1633.8000000715256,,realistic_rating,2269031,North Arroya,,53,North Arroya,Fictional,5,,,,,,,,,,,,,,,
null,,confidence_buffer,2269134,confidence_buffer,,null,,,,,,,,,,,,,,,,,,
13849.399999976158,,pt2_unique_rating,2282984,North Arroya,,52,,,4,,,,,,,,,,,,,,,
null,,confidence_buffer,2283086,confidence_buffer,,null,,,,,,,,,,,,,,,,,,
3051.5,,pt2_memorable_rating,2286138,North Arroya,,52,,,4,,,,,,,,,,,,,,,
null,,confidence_buffer,2286239,confidence_buffer,,null,,,,,,,,,,,,,,,,,,
1484.5,,recognition_phase,2287724,North Arroya,,52,,,,,,new,1,0.9130434782608695,,,,,,,,,,
null,,confidence_buffer,2287826,confidence_buffer,,null,,,,,,,,,,,,,,,,,,
null,,thebreak,2288328,break,,null,,,,,,,,,,,,,,,,,,
2723.399999976158,,realistic_rating,2291052,Duck,,51,Duck,US,3,,,,,,,,,,,,,,,
null,,confidence_buffer,2291154,confidence_buffer,,null,,,,,,,,,,,,,,,,,,
1194.8999999761581,,pt2_unique_rating,2292349,Duck,,52,,,4,,,,,,,,,,,,,,,
null,,confidence_buffer,2292452,confidence_buffer,,null,,,,,,,,,,,,,,,,,,
1433.7000000476837,,pt2_memorable_rating,2293886,Duck,,52,,,4,,,,,,,,,,,,,,,
null,,confidence_buffer,2293987,confidence_buffer,,null,,,,,,,,,,,,,,,,,,
1423.7000000476837,,recognition_phase,2295411,Duck,,49,,,,,,old,1,0.9148936170212766,,,,,,,,,,
null,,confidence_buffer,2295512,confidence_buffer,,null,,,,,,,,,,,,,,,,,,
null,,thebreak,2296013,break,,null,,,,,,,,,,,,,,,,,,
1395.4000000953674,,realistic_rating,2297409,Abilene,,53,Abilene,US,5,,,,,,,,,,,,,,,
null,,confidence_buffer,2297512,confidence_buffer,,null,,,,,,,,,,,,,,,,,,
1452.3999999761581,,probe_rating,2298965,probe_rating,,51,,,,3,1,,,,,,,,,,,,,
null,,confidence_buffer,2299066,confidence_buffer,,null,,,,,,,,,,,,,,,,,,
1724.7999999523163,,pt2_unique_rating,2300791,Abilene,,52,,,4,,,,,,,,,,,,,,,
null,,confidence_buffer,2300893,confidence_buffer,,null,,,,,,,,,,,,,,,,,,
1061.8000000715256,,pt2_memorable_rating,2301955,Abilene,,53,,,5,,,,,,,,,,,,,,,
null,,confidence_buffer,2302057,confidence_buffer,,null,,,,,,,,,,,,,,,,,,
1329.5999999046326,,recognition_phase,2303387,Abilene,,49,,,,,,old,1,0.9166666666666666,,,,,,,,,,
null,,confidence_buffer,2303488,confidence_buffer,,null,,,,,,,,,,,,,,,,,,
null,,thebreak,2303989,break,,null,,,,,,,,,,,,,,,,,,
2342.2999999523163,,realistic_rating,2306332,Coralridge,,53,Coralridge,Fictional,5,,,,,,,,,,,,,,,
null,,confidence_buffer,2306433,confidence_buffer,,null,,,,,,,,,,,,,,,,,,
1754.3000000715256,,pt2_unique_rating,2308188,Coralridge,,52,,,4,,,,,,,,,,,,,,,
null,,confidence_buffer,2308289,confidence_buffer,,null,,,,,,,,,,,,,,,,,,
1143.5,,pt2_memorable_rating,2309433,Coralridge,,53,,,5,,,,,,,,,,,,,,,
null,,confidence_buffer,2309545,confidence_buffer,,null,,,,,,,,,,,,,,,,,,
985.5,,recognition_phase,2310531,Coralridge,,52,,,,,,new,1,0.9183673469387755,,,,,,,,,,
null,,confidence_buffer,2310633,confidence_buffer,,null,,,,,,,,,,,,,,,,,,
null,,thebreak,2311134,break,,null,,,,,,,,,,,,,,,,,,
1870.2000000476837,,realistic_rating,2313005,Tamarisk Hills,,53,Tamarisk Hills,Fictional,5,,,,,,,,,,,,,,,
null,,confidence_buffer,2313106,confidence_buffer,,null,,,,,,,,,,,,,,,,,,
1571.3999999761581,,pt2_unique_rating,2314678,Tamarisk Hills,,52,,,4,,,,,,,,,,,,,,,
null,,confidence_buffer,2314780,confidence_buffer,,null,,,,,,,,,,,,,,,,,,
1065.5,,pt2_memorable_rating,2315846,Tamarisk Hills,,52,,,4,,,,,,,,,,,,,,,
null,,confidence_buffer,2315947,confidence_buffer,,null,,,,,,,,,,,,,,,,,,
1357.3999999761581,,probe_rating,2317305,probe_rating,,50,,,,2,1,,,,,,,,,,,,,
null,,confidence_buffer,2317406,confidence_buffer,,null,,,,,,,,,,,,,,,,,,
1211,,recognition_phase,2318618,Tamarisk Hills,,52,,,,,,new,1,0.92,,,,,,,,,,
null,,confidence_buffer,2318720,confidence_buffer,,null,,,,,,,,,,,,,,,,,,
null,,thebreak,2319221,break,,null,,,,,,,,,,,,,,,,,,
1437.7000000476837,,realistic_rating,2320659,Athens,,53,Athens,US,5,,,,,,,,,,,,,,,
null,,confidence_buffer,2320761,confidence_buffer,,null,,,,,,,,,,,,,,,,,,
1598.6999999284744,,pt2_unique_rating,2322360,Athens,,50,,,2,,,,,,,,,,,,,,,
null,,confidence_buffer,2322461,confidence_buffer,,null,,,,,,,,,,,,,,,,,,
1446.5,,pt2_memorable_rating,2323908,Athens,,52,,,4,,,,,,,,,,,,,,,
null,,confidence_buffer,2324015,confidence_buffer,,null,,,,,,,,,,,,,,,,,,
641.7000000476837,,recognition_phase,2324657,Athens,,52,,,,,,new,1,0.9215686274509803,,,,,,,,,,
null,,confidence_buffer,2324759,confidence_buffer,,null,,,,,,,,,,,,,,,,,,
null,,thebreak,2325261,break,,null,,,,,,,,,,,,,,,,,,
2518.7999999523163,,realistic_rating,2327780,Racine,,51,Racine,US,3,,,,,,,,,,,,,,,
null,,confidence_buffer,2327882,confidence_buffer,,null,,,,,,,,,,,,,,,,,,
2509.7000000476837,,pt2_unique_rating,2330392,Racine,,53,,,5,,,,,,,,,,,,,,,
null,,confidence_buffer,2330493,confidence_buffer,,null,,,,,,,,,,,,,,,,,,
1283.3999999761581,,pt2_memorable_rating,2331777,Racine,,52,,,4,,,,,,,,,,,,,,,
null,,confidence_buffer,2331879,confidence_buffer,,null,,,,,,,,,,,,,,,,,,
696.8000000715256,,recognition_phase,2332576,Racine,,52,,,,,,new,1,0.9230769230769231,,,,,,,,,,
null,,confidence_buffer,2332678,confidence_buffer,,null,,,,,,,,,,,,,,,,,,
null,,thebreak,2333180,break,,null,,,,,,,,,,,,,,,,,,
1049.5999999046326,,realistic_rating,2334230,Cape May,,53,Cape May,US,5,,,,,,,,,,,,,,,
null,,confidence_buffer,2334332,confidence_buffer,,null,,,,,,,,,,,,,,,,,,
1727,,pt2_unique_rating,2336060,Cape May,,51,,,3,,,,,,,,,,,,,,,
null,,confidence_buffer,2336161,confidence_buffer,,null,,,,,,,,,,,,,,,,,,
1472.1999999284744,,pt2_memorable_rating,2337634,Cape May,,52,,,4,,,,,,,,,,,,,,,
null,,confidence_buffer,2337751,confidence_buffer,,null,,,,,,,,,,,,,,,,,,
778,,recognition_phase,2338530,Cape May,,52,,,,,,new,1,0.9245283018867925,,,,,,,,,,
null,,confidence_buffer,2338631,confidence_buffer,,null,,,,,,,,,,,,,,,,,,
null,,thebreak,2339133,break,,null,,,,,,,,,,,,,,,,,,
1614.6000000238419,,realistic_rating,2340748,Hot Springs,,53,Hot Springs,US,5,,,,,,,,,,,,,,,
null,,confidence_buffer,2340851,confidence_buffer,,null,,,,,,,,,,,,,,,,,,
1510.9000000953674,,pt2_unique_rating,2342362,Hot Springs,,51,,,3,,,,,,,,,,,,,,,
null,,confidence_buffer,2342464,confidence_buffer,,null,,,,,,,,,,,,,,,,,,
1219.1000000238419,,pt2_memorable_rating,2343683,Hot Springs,,53,,,5,,,,,,,,,,,,,,,
null,,confidence_buffer,2343785,confidence_buffer,,null,,,,,,,,,,,,,,,,,,
1432.9000000953674,,recognition_phase,2345218,Hot Springs,,49,,,,,,old,1,0.9259259259259259,,,,,,,,,,
null,,confidence_buffer,2345320,confidence_buffer,,null,,,,,,,,,,,,,,,,,,
null,,thebreak,2345821,break,,null,,,,,,,,,,,,,,,,,,
2285.7999999523163,,realistic_rating,2348108,Hollendale,,53,Hollendale,Fictional,5,,,,,,,,,,,,,,,
null,,confidence_buffer,2348209,confidence_buffer,,null,,,,,,,,,,,,,,,,,,
3402.3000000715256,,pt2_unique_rating,2351612,Hollendale,,51,,,3,,,,,,,,,,,,,,,
null,,confidence_buffer,2351713,confidence_buffer,,null,,,,,,,,,,,,,,,,,,
1285.6000000238419,,pt2_memorable_rating,2353000,Hollendale,,51,,,3,,,,,,,,,,,,,,,
null,,confidence_buffer,2353102,confidence_buffer,,null,,,,,,,,,,,,,,,,,,
4568.100000023842,,recognition_phase,2357670,Hollendale,,50,,,,,,old,1,0.9272727272727272,,,,,,,,,,
null,,confidence_buffer,2357772,confidence_buffer,,null,,,,,,,,,,,,,,,,,,
null,,thebreak,2358274,break,,null,,,,,,,,,,,,,,,,,,
1277.7000000476837,,realistic_rating,2359552,Shreveport,,53,Shreveport,US,5,,,,,,,,,,,,,,,
null,,confidence_buffer,2359654,confidence_buffer,,null,,,,,,,,,,,,,,,,,,
2440.3000000715256,,pt2_unique_rating,2362094,Shreveport,,53,,,5,,,,,,,,,,,,,,,
null,,confidence_buffer,2362196,confidence_buffer,,null,,,,,,,,,,,,,,,,,,
1147.5,,pt2_memorable_rating,2363344,Shreveport,,53,,,5,,,,,,,,,,,,,,,
null,,confidence_buffer,2363445,confidence_buffer,,null,,,,,,,,,,,,,,,,,,
1114.5999999046326,,recognition_phase,2364561,Shreveport,,49,,,,,,old,1,0.9285714285714286,,,,,,,,,,
null,,confidence_buffer,2364662,confidence_buffer,,null,,,,,,,,,,,,,,,,,,
null,,thebreak,2365164,break,,null,,,,,,,,,,,,,,,,,,
1319,,realistic_rating,2366484,Delaro Park,,53,Delaro Park,Fictional,5,,,,,,,,,,,,,,,
null,,confidence_buffer,2366587,confidence_buffer,,null,,,,,,,,,,,,,,,,,,
1206.5,,pt2_unique_rating,2367795,Delaro Park,,52,,,4,,,,,,,,,,,,,,,
null,,confidence_buffer,2367897,confidence_buffer,,null,,,,,,,,,,,,,,,,,,
1866.5,,pt2_memorable_rating,2369764,Delaro Park,,52,,,4,,,,,,,,,,,,,,,
null,,confidence_buffer,2369866,confidence_buffer,,null,,,,,,,,,,,,,,,,,,
909,,recognition_phase,2370776,Delaro Park,,52,,,,,,new,1,0.9298245614035088,,,,,,,,,,
null,,confidence_buffer,2370877,confidence_buffer,,null,,,,,,,,,,,,,,,,,,
null,,thebreak,2371379,break,,null,,,,,,,,,,,,,,,,,,
2097,,realistic_rating,2373476,Juniper Creek,,53,Juniper Creek,Fictional,5,,,,,,,,,,,,,,,
null,,confidence_buffer,2373579,confidence_buffer,,null,,,,,,,,,,,,,,,,,,
1934.1000000238419,,pt2_unique_rating,2375514,Juniper Creek,,51,,,3,,,,,,,,,,,,,,,
null,,confidence_buffer,2375615,confidence_buffer,,null,,,,,,,,,,,,,,,,,,
1506.6000000238419,,pt2_memorable_rating,2377122,Juniper Creek,,53,,,5,,,,,,,,,,,,,,,
null,,confidence_buffer,2377223,confidence_buffer,,null,,,,,,,,,,,,,,,,,,
1737.2999999523163,,recognition_phase,2378961,Juniper Creek,,52,,,,,,new,1,0.9310344827586207,,,,,,,,,,
null,,confidence_buffer,2379063,confidence_buffer,,null,,,,,,,,,,,,,,,,,,
null,,thebreak,2379564,break,,null,,,,,,,,,,,,,,,,,,
1450.5999999046326,,realistic_rating,2381016,Folly Beach,,53,Folly Beach,US,5,,,,,,,,,,,,,,,
null,,confidence_buffer,2381118,confidence_buffer,,null,,,,,,,,,,,,,,,,,,
1208.8000000715256,,pt2_unique_rating,2382327,Folly Beach,,52,,,4,,,,,,,,,,,,,,,
null,,confidence_buffer,2382429,confidence_buffer,,null,,,,,,,,,,,,,,,,,,
1682.7000000476837,,pt2_memorable_rating,2384113,Folly Beach,,53,,,5,,,,,,,,,,,,,,,
null,,confidence_buffer,2384214,confidence_buffer,,null,,,,,,,,,,,,,,,,,,
898.1000000238419,,recognition_phase,2385113,Folly Beach,,52,,,,,,new,1,0.9322033898305084,,,,,,,,,,
null,,confidence_buffer,2385214,confidence_buffer,,null,,,,,,,,,,,,,,,,,,
null,,thebreak,2385716,break,,null,,,,,,,,,,,,,,,,,,
1192.7000000476837,,realistic_rating,2386909,Cornwall,,53,Cornwall,US,5,,,,,,,,,,,,,,,
null,,confidence_buffer,2387011,confidence_buffer,,null,,,,,,,,,,,,,,,,,,
946.5,,pt2_unique_rating,2387958,Cornwall,,53,,,5,,,,,,,,,,,,,,,
null,,confidence_buffer,2388061,confidence_buffer,,null,,,,,,,,,,,,,,,,,,
1193.5,,pt2_memorable_rating,2389256,Cornwall,,53,,,5,,,,,,,,,,,,,,,
null,,confidence_buffer,2389358,confidence_buffer,,null,,,,,,,,,,,,,,,,,,
1069.1000000238419,,recognition_phase,2390428,Cornwall,,52,,,,,,new,1,0.9333333333333333,,,,,,,,,,
null,,confidence_buffer,2390529,confidence_buffer,,null,,,,,,,,,,,,,,,,,,
null,,thebreak,2391030,break,,null,,,,,,,,,,,,,,,,,,
,,survey,2643730,survey-questions,,,,,,,,,,,none,high,No,I simply did my best to pay attention and learn the names of the cities. Some were instantaneously familiar to me; I have heard of them, so they were the easiest to recall.,Have I heard of this before? Does it seem at all similar to places I've certainly heard of?,Is it familiar? Is it novel/unique? Is it the name of an already existing object? Does it seem a little strange?,Is it unlike anything else I've ever heard of? Does it sound foreign/international?,Does it include any familiar suffixes (-bluff, -dale, -vale, -burg, -springs, -hills, -lake)?,No,The task wasn't difficult, and it wasn't boring. I genuinely enjoyed participating. Great job!
