rt,responses,trial_type,time_elapsed,stimulus,button_pressed,key_press,name_trial,city_type,rating,probe,probe_accuracy,response,correct,accuracy,problems,smooth,distraction,strategies,familiar,memorable,unique,realistic,similar,comments
19398.900000095367,{worker_id:5beb38c9aec9ef0001e9c83d},id_enter,19416,,,,,,,,,,,,,,,,,,,,,
16957.200000047684,,fullscreen,36410,fullscreen,0,,,,,,,,,,,,,,,,,,,
18343.700000047684,,intro_0,54761,instruct,,32,,,,,,,,,,,,,,,,,,
11649.299999952316,,intro_1,66417,instruct,,32,,,,,,,,,,,,,,,,,,
5479.599999904633,,intro_2,71899,instruct,,32,,,,,,,,,,,,,,,,,,
null,,instruct_dir_4,73402,instruct,,null,,,,,,,,,,,,,,,,,,
null,,thebreak,73910,break,,null,,,,,,,,,,,,,,,,,,
10209,,familiar_rating,84122,Okoboji,,49,Okoboji,US,1,,,,,,,,,,,,,,,
null,,confidence_buffer,84232,confidence_buffer,,null,,,,,,,,,,,,,,,,,,
5329.200000047684,,unique_rating,89565,Okoboji,,52,,,4,,,,,,,,,,,,,,,
null,,confidence_buffer,89680,confidence_buffer,,null,,,,,,,,,,,,,,,,,,
6714.5,,memorable_rating,96396,Okoboji,,51,,,3,,,,,,,,,,,,,,,
null,,confidence_buffer,96499,confidence_buffer,,null,,,,,,,,,,,,,,,,,,
null,,thebreak,97009,break,,null,,,,,,,,,,,,,,,,,,
7807.200000047684,,familiar_rating,104818,Bayshore Haven,,50,Bayshore Haven,Fictional,2,,,,,,,,,,,,,,,
null,,confidence_buffer,104924,confidence_buffer,,null,,,,,,,,,,,,,,,,,,
5081,,unique_rating,110008,Bayshore Haven,,50,,,2,,,,,,,,,,,,,,,
null,,confidence_buffer,110110,confidence_buffer,,null,,,,,,,,,,,,,,,,,,
3059.9000000953674,,memorable_rating,113172,Bayshore Haven,,51,,,3,,,,,,,,,,,,,,,
null,,confidence_buffer,113280,confidence_buffer,,null,,,,,,,,,,,,,,,,,,
null,,thebreak,113790,break,,null,,,,,,,,,,,,,,,,,,
4363.799999952316,,familiar_rating,118156,Cornwall,,53,Cornwall,US,5,,,,,,,,,,,,,,,
null,,confidence_buffer,118275,confidence_buffer,,null,,,,,,,,,,,,,,,,,,
4503.900000095367,,unique_rating,122780,Cornwall,,51,,,3,,,,,,,,,,,,,,,
null,,confidence_buffer,122893,confidence_buffer,,null,,,,,,,,,,,,,,,,,,
2437.399999856949,,probe_rating,125332,probe_rating,,50,,,,2,1,,,,,,,,,,,,,
null,,confidence_buffer,125437,confidence_buffer,,null,,,,,,,,,,,,,,,,,,
3449.5999999046326,,memorable_rating,128889,Cornwall,,53,,,5,,,,,,,,,,,,,,,
null,,confidence_buffer,128996,confidence_buffer,,null,,,,,,,,,,,,,,,,,,
null,,thebreak,129506,break,,null,,,,,,,,,,,,,,,,,,
5712.5,,familiar_rating,135221,Pine Hollow,,52,Pine Hollow,Fictional,4,,,,,,,,,,,,,,,
null,,confidence_buffer,135329,confidence_buffer,,null,,,,,,,,,,,,,,,,,,
5274.899999856949,,unique_rating,140606,Pine Hollow,,51,,,3,,,,,,,,,,,,,,,
null,,confidence_buffer,140712,confidence_buffer,,null,,,,,,,,,,,,,,,,,,
2888.0999999046326,,memorable_rating,143602,Pine Hollow,,52,,,4,,,,,,,,,,,,,,,
null,,confidence_buffer,143711,confidence_buffer,,null,,,,,,,,,,,,,,,,,,
null,,thebreak,144218,break,,null,,,,,,,,,,,,,,,,,,
5694.799999952316,,familiar_rating,149915,Manistee,,50,Manistee,US,2,,,,,,,,,,,,,,,
null,,confidence_buffer,150025,confidence_buffer,,null,,,,,,,,,,,,,,,,,,
4087.199999809265,,unique_rating,154114,Manistee,,52,,,4,,,,,,,,,,,,,,,
null,,confidence_buffer,154219,confidence_buffer,,null,,,,,,,,,,,,,,,,,,
6026.299999952316,,memorable_rating,160247,Manistee,,51,,,3,,,,,,,,,,,,,,,
null,,confidence_buffer,160353,confidence_buffer,,null,,,,,,,,,,,,,,,,,,
null,,thebreak,160870,break,,null,,,,,,,,,,,,,,,,,,
5336.700000047684,,familiar_rating,166210,Barnard,,51,Barnard,US,3,,,,,,,,,,,,,,,
null,,confidence_buffer,166315,confidence_buffer,,null,,,,,,,,,,,,,,,,,,
2640.899999856949,,unique_rating,168958,Barnard,,51,,,3,,,,,,,,,,,,,,,
null,,confidence_buffer,169070,confidence_buffer,,null,,,,,,,,,,,,,,,,,,
2567.4000000953674,,memorable_rating,171640,Barnard,,51,,,3,,,,,,,,,,,,,,,
null,,confidence_buffer,171742,confidence_buffer,,null,,,,,,,,,,,,,,,,,,
null,,thebreak,172256,break,,null,,,,,,,,,,,,,,,,,,
4065.199999809265,,familiar_rating,176323,Bowling Green,,53,Bowling Green,US,5,,,,,,,,,,,,,,,
null,,confidence_buffer,176436,confidence_buffer,,null,,,,,,,,,,,,,,,,,,
3764,,unique_rating,180203,Bowling Green,,52,,,4,,,,,,,,,,,,,,,
null,,confidence_buffer,180318,confidence_buffer,,null,,,,,,,,,,,,,,,,,,
2395.5,,probe_rating,182715,probe_rating,,49,,,,1,1,,,,,,,,,,,,,
null,,confidence_buffer,182821,confidence_buffer,,null,,,,,,,,,,,,,,,,,,
4377.5,,memorable_rating,187201,Bowling Green,,52,,,4,,,,,,,,,,,,,,,
null,,confidence_buffer,187316,confidence_buffer,,null,,,,,,,,,,,,,,,,,,
null,,thebreak,187829,break,,null,,,,,,,,,,,,,,,,,,
5648.700000047684,,familiar_rating,193479,Sitka,,53,Sitka,US,5,,,,,,,,,,,,,,,
null,,confidence_buffer,193589,confidence_buffer,,null,,,,,,,,,,,,,,,,,,
3762.5,,unique_rating,197353,Sitka,,52,,,4,,,,,,,,,,,,,,,
null,,confidence_buffer,197457,confidence_buffer,,null,,,,,,,,,,,,,,,,,,
2086.2999999523163,,memorable_rating,199545,Sitka,,52,,,4,,,,,,,,,,,,,,,
null,,confidence_buffer,199658,confidence_buffer,,null,,,,,,,,,,,,,,,,,,
null,,thebreak,200161,break,,null,,,,,,,,,,,,,,,,,,
6427.299999952316,,familiar_rating,206590,Coralridge,,50,Coralridge,Fictional,2,,,,,,,,,,,,,,,
null,,confidence_buffer,206698,confidence_buffer,,null,,,,,,,,,,,,,,,,,,
3860,,unique_rating,210560,Coralridge,,52,,,4,,,,,,,,,,,,,,,
null,,confidence_buffer,210667,confidence_buffer,,null,,,,,,,,,,,,,,,,,,
3843.2000000476837,,memorable_rating,214513,Coralridge,,52,,,4,,,,,,,,,,,,,,,
null,,confidence_buffer,214630,confidence_buffer,,null,,,,,,,,,,,,,,,,,,
null,,thebreak,215139,break,,null,,,,,,,,,,,,,,,,,,
5129.199999809265,,familiar_rating,220271,Cape May,,52,Cape May,US,4,,,,,,,,,,,,,,,
null,,confidence_buffer,220379,confidence_buffer,,null,,,,,,,,,,,,,,,,,,
4670.299999952316,,unique_rating,225051,Cape May,,51,,,3,,,,,,,,,,,,,,,
null,,confidence_buffer,225160,confidence_buffer,,null,,,,,,,,,,,,,,,,,,
2631.7000000476837,,memorable_rating,227794,Cape May,,51,,,3,,,,,,,,,,,,,,,
null,,confidence_buffer,227905,confidence_buffer,,null,,,,,,,,,,,,,,,,,,
null,,thebreak,228423,break,,null,,,,,,,,,,,,,,,,,,
9465.799999952316,,familiar_rating,237891,Sierra Hollow,,51,Sierra Hollow,Fictional,3,,,,,,,,,,,,,,,
null,,confidence_buffer,238003,confidence_buffer,,null,,,,,,,,,,,,,,,,,,
1734.2999999523163,,unique_rating,239740,Sierra Hollow,,52,,,4,,,,,,,,,,,,,,,
null,,confidence_buffer,239852,confidence_buffer,,null,,,,,,,,,,,,,,,,,,
2451.899999856949,,memorable_rating,242307,Sierra Hollow,,52,,,4,,,,,,,,,,,,,,,
null,,confidence_buffer,242415,confidence_buffer,,null,,,,,,,,,,,,,,,,,,
null,,thebreak,242917,break,,null,,,,,,,,,,,,,,,,,,
3353.5999999046326,,familiar_rating,246272,Abilene,,53,Abilene,US,5,,,,,,,,,,,,,,,
null,,confidence_buffer,246383,confidence_buffer,,null,,,,,,,,,,,,,,,,,,
4054.5,,unique_rating,250440,Abilene,,52,,,4,,,,,,,,,,,,,,,
null,,confidence_buffer,250544,confidence_buffer,,null,,,,,,,,,,,,,,,,,,
1668.5999999046326,,memorable_rating,252215,Abilene,,53,,,5,,,,,,,,,,,,,,,
null,,confidence_buffer,252329,confidence_buffer,,null,,,,,,,,,,,,,,,,,,
null,,thebreak,252841,break,,null,,,,,,,,,,,,,,,,,,
6011.799999952316,,familiar_rating,258854,Lakehaven,,51,Lakehaven,Fictional,3,,,,,,,,,,,,,,,
null,,confidence_buffer,258968,confidence_buffer,,null,,,,,,,,,,,,,,,,,,
3803,,unique_rating,262773,Lakehaven,,51,,,3,,,,,,,,,,,,,,,
null,,confidence_buffer,262877,confidence_buffer,,null,,,,,,,,,,,,,,,,,,
2443.7000000476837,,memorable_rating,265323,Lakehaven,,51,,,3,,,,,,,,,,,,,,,
null,,confidence_buffer,265428,confidence_buffer,,null,,,,,,,,,,,,,,,,,,
null,,thebreak,265945,break,,null,,,,,,,,,,,,,,,,,,
5119.5,,familiar_rating,271067,Summershade,,50,Summershade,Fictional,2,,,,,,,,,,,,,,,
null,,confidence_buffer,271171,confidence_buffer,,null,,,,,,,,,,,,,,,,,,
3156.5,,unique_rating,274329,Summershade,,51,,,3,,,,,,,,,,,,,,,
null,,confidence_buffer,274438,confidence_buffer,,null,,,,,,,,,,,,,,,,,,
2519.899999856949,,memorable_rating,276960,Summershade,,51,,,3,,,,,,,,,,,,,,,
null,,confidence_buffer,277074,confidence_buffer,,null,,,,,,,,,,,,,,,,,,
null,,thebreak,277580,break,,null,,,,,,,,,,,,,,,,,,
6584.599999904633,,familiar_rating,284167,Hilo,,50,Hilo,US,2,,,,,,,,,,,,,,,
null,,confidence_buffer,284285,confidence_buffer,,null,,,,,,,,,,,,,,,,,,
5077.399999856949,,unique_rating,289365,Hilo,,51,,,3,,,,,,,,,,,,,,,
null,,confidence_buffer,289468,confidence_buffer,,null,,,,,,,,,,,,,,,,,,
2711,,memorable_rating,292181,Hilo,,51,,,3,,,,,,,,,,,,,,,
null,,confidence_buffer,292285,confidence_buffer,,null,,,,,,,,,,,,,,,,,,
null,,thebreak,292790,break,,null,,,,,,,,,,,,,,,,,,
2576.0999999046326,,familiar_rating,295368,Orr,,52,Orr,US,4,,,,,,,,,,,,,,,
null,,confidence_buffer,295478,confidence_buffer,,null,,,,,,,,,,,,,,,,,,
2373.7000000476837,,unique_rating,297854,Orr,,52,,,4,,,,,,,,,,,,,,,
null,,confidence_buffer,297958,confidence_buffer,,null,,,,,,,,,,,,,,,,,,
2421.4000000953674,,memorable_rating,300382,Orr,,52,,,4,,,,,,,,,,,,,,,
null,,confidence_buffer,300487,confidence_buffer,,null,,,,,,,,,,,,,,,,,,
null,,thebreak,300996,break,,null,,,,,,,,,,,,,,,,,,
2286.2999999523163,,familiar_rating,303285,Shreveport,,53,Shreveport,US,5,,,,,,,,,,,,,,,
null,,confidence_buffer,303396,confidence_buffer,,null,,,,,,,,,,,,,,,,,,
3691.5999999046326,,unique_rating,307090,Shreveport,,52,,,4,,,,,,,,,,,,,,,
null,,confidence_buffer,307198,confidence_buffer,,null,,,,,,,,,,,,,,,,,,
2553,,memorable_rating,309753,Shreveport,,52,,,4,,,,,,,,,,,,,,,
null,,confidence_buffer,309863,confidence_buffer,,null,,,,,,,,,,,,,,,,,,
null,,thebreak,310381,break,,null,,,,,,,,,,,,,,,,,,
5035.299999952316,,familiar_rating,315418,Millstone,,53,Millstone,Fictional,5,,,,,,,,,,,,,,,
null,,confidence_buffer,315528,confidence_buffer,,null,,,,,,,,,,,,,,,,,,
2946.5999999046326,,unique_rating,318477,Millstone,,51,,,3,,,,,,,,,,,,,,,
null,,confidence_buffer,318582,confidence_buffer,,null,,,,,,,,,,,,,,,,,,
1528,,memorable_rating,320112,Millstone,,52,,,4,,,,,,,,,,,,,,,
null,,confidence_buffer,320219,confidence_buffer,,null,,,,,,,,,,,,,,,,,,
null,,thebreak,320727,break,,null,,,,,,,,,,,,,,,,,,
6405.599999904633,,familiar_rating,327135,Gloucester,,53,Gloucester,US,5,,,,,,,,,,,,,,,
null,,confidence_buffer,327245,confidence_buffer,,null,,,,,,,,,,,,,,,,,,
2983.4000000953674,,unique_rating,330229,Gloucester,,53,,,5,,,,,,,,,,,,,,,
null,,confidence_buffer,330333,confidence_buffer,,null,,,,,,,,,,,,,,,,,,
1757.4000000953674,,memorable_rating,332092,Gloucester,,53,,,5,,,,,,,,,,,,,,,
null,,confidence_buffer,332195,confidence_buffer,,null,,,,,,,,,,,,,,,,,,
null,,thebreak,332700,break,,null,,,,,,,,,,,,,,,,,,
2232,,familiar_rating,334934,Lake of the Ozarks,,53,Lake of the Ozarks,US,5,,,,,,,,,,,,,,,
null,,confidence_buffer,335038,confidence_buffer,,null,,,,,,,,,,,,,,,,,,
3070.7000000476837,,unique_rating,338111,Lake of the Ozarks,,52,,,4,,,,,,,,,,,,,,,
null,,confidence_buffer,338222,confidence_buffer,,null,,,,,,,,,,,,,,,,,,
2788,,memorable_rating,341012,Lake of the Ozarks,,53,,,5,,,,,,,,,,,,,,,
null,,confidence_buffer,341130,confidence_buffer,,null,,,,,,,,,,,,,,,,,,
null,,thebreak,341647,break,,null,,,,,,,,,,,,,,,,,,
4435.700000047684,,familiar_rating,346085,Ashford Hills,,51,Ashford Hills,Fictional,3,,,,,,,,,,,,,,,
null,,confidence_buffer,346190,confidence_buffer,,null,,,,,,,,,,,,,,,,,,
2359.100000143051,,unique_rating,348551,Ashford Hills,,51,,,3,,,,,,,,,,,,,,,
null,,confidence_buffer,348668,confidence_buffer,,null,,,,,,,,,,,,,,,,,,
2440.399999856949,,memorable_rating,351112,Ashford Hills,,51,,,3,,,,,,,,,,,,,,,
null,,confidence_buffer,351218,confidence_buffer,,null,,,,,,,,,,,,,,,,,,
null,,thebreak,351728,break,,null,,,,,,,,,,,,,,,,,,
6960.900000095367,,familiar_rating,358692,Rosehollow,,50,Rosehollow,Fictional,2,,,,,,,,,,,,,,,
null,,confidence_buffer,358798,confidence_buffer,,null,,,,,,,,,,,,,,,,,,
4503.699999809265,,unique_rating,363304,Rosehollow,,51,,,3,,,,,,,,,,,,,,,
null,,confidence_buffer,363410,confidence_buffer,,null,,,,,,,,,,,,,,,,,,
3056.899999856949,,memorable_rating,366469,Rosehollow,,51,,,3,,,,,,,,,,,,,,,
null,,confidence_buffer,366576,confidence_buffer,,null,,,,,,,,,,,,,,,,,,
null,,thebreak,367080,break,,null,,,,,,,,,,,,,,,,,,
3602.300000190735,,familiar_rating,370685,Driftwood Bay,,51,Driftwood Bay,Fictional,3,,,,,,,,,,,,,,,
null,,confidence_buffer,370802,confidence_buffer,,null,,,,,,,,,,,,,,,,,,
2093.600000143051,,unique_rating,372897,Driftwood Bay,,51,,,3,,,,,,,,,,,,,,,
null,,confidence_buffer,373000,confidence_buffer,,null,,,,,,,,,,,,,,,,,,
6426,,memorable_rating,379428,Driftwood Bay,,52,,,4,,,,,,,,,,,,,,,
null,,confidence_buffer,379539,confidence_buffer,,null,,,,,,,,,,,,,,,,,,
null,,thebreak,380047,break,,null,,,,,,,,,,,,,,,,,,
5414.200000047684,,familiar_rating,385463,Solara Glen,,50,Solara Glen,Fictional,2,,,,,,,,,,,,,,,
null,,confidence_buffer,385576,confidence_buffer,,null,,,,,,,,,,,,,,,,,,
3284.5,,unique_rating,388863,Solara Glen,,53,,,5,,,,,,,,,,,,,,,
null,,confidence_buffer,388970,confidence_buffer,,null,,,,,,,,,,,,,,,,,,
4653.699999809265,,memorable_rating,393625,Solara Glen,,52,,,4,,,,,,,,,,,,,,,
null,,confidence_buffer,393730,confidence_buffer,,null,,,,,,,,,,,,,,,,,,
null,,thebreak,394237,break,,null,,,,,,,,,,,,,,,,,,
23732.700000047684,,familiar_rating,417972,Hawthorne Bluffs,,50,Hawthorne Bluffs,Fictional,2,,,,,,,,,,,,,,,
null,,confidence_buffer,418075,confidence_buffer,,null,,,,,,,,,,,,,,,,,,
1785.9000000953674,,probe_rating,419864,probe_rating,,50,,,,2,1,,,,,,,,,,,,,
null,,confidence_buffer,419977,confidence_buffer,,null,,,,,,,,,,,,,,,,,,
3160.9000000953674,,unique_rating,423140,Hawthorne Bluffs,,51,,,3,,,,,,,,,,,,,,,
null,,confidence_buffer,423251,confidence_buffer,,null,,,,,,,,,,,,,,,,,,
3063.5999999046326,,memorable_rating,426317,Hawthorne Bluffs,,51,,,3,,,,,,,,,,,,,,,
null,,confidence_buffer,426420,confidence_buffer,,null,,,,,,,,,,,,,,,,,,
null,,thebreak,426933,break,,null,,,,,,,,,,,,,,,,,,
4656.5,,familiar_rating,431592,Park City,,51,Park City,US,3,,,,,,,,,,,,,,,
null,,confidence_buffer,431709,confidence_buffer,,null,,,,,,,,,,,,,,,,,,
2231.300000190735,,unique_rating,433942,Park City,,51,,,3,,,,,,,,,,,,,,,
null,,confidence_buffer,434050,confidence_buffer,,null,,,,,,,,,,,,,,,,,,
2152.7000000476837,,probe_rating,436205,probe_rating,,53,,,,5,1,,,,,,,,,,,,,
null,,confidence_buffer,436316,confidence_buffer,,null,,,,,,,,,,,,,,,,,,
4299.399999856949,,memorable_rating,440618,Park City,,52,,,4,,,,,,,,,,,,,,,
null,,confidence_buffer,440731,confidence_buffer,,null,,,,,,,,,,,,,,,,,,
null,,thebreak,441237,break,,null,,,,,,,,,,,,,,,,,,
24697.299999952316,,familiar_rating,465937,Briarfield,,51,Briarfield,Fictional,3,,,,,,,,,,,,,,,
null,,confidence_buffer,466046,confidence_buffer,,null,,,,,,,,,,,,,,,,,,
3758.7000000476837,,unique_rating,469806,Briarfield,,51,,,3,,,,,,,,,,,,,,,
null,,confidence_buffer,469914,confidence_buffer,,null,,,,,,,,,,,,,,,,,,
2033.5999999046326,,memorable_rating,471950,Briarfield,,51,,,3,,,,,,,,,,,,,,,
null,,confidence_buffer,472059,confidence_buffer,,null,,,,,,,,,,,,,,,,,,
null,,thebreak,472563,break,,null,,,,,,,,,,,,,,,,,,
4937.899999856949,,familiar_rating,477502,Willowford,,50,Willowford,Fictional,2,,,,,,,,,,,,,,,
null,,confidence_buffer,477621,confidence_buffer,,null,,,,,,,,,,,,,,,,,,
2701,,unique_rating,480325,Willowford,,51,,,3,,,,,,,,,,,,,,,
null,,confidence_buffer,480438,confidence_buffer,,null,,,,,,,,,,,,,,,,,,
2612.7000000476837,,memorable_rating,483053,Willowford,,51,,,3,,,,,,,,,,,,,,,
null,,confidence_buffer,483167,confidence_buffer,,null,,,,,,,,,,,,,,,,,,
null,,thebreak,483677,break,,null,,,,,,,,,,,,,,,,,,
2621.5,,familiar_rating,486301,Racine,,53,Racine,US,5,,,,,,,,,,,,,,,
null,,confidence_buffer,486411,confidence_buffer,,null,,,,,,,,,,,,,,,,,,
2919.399999856949,,unique_rating,489332,Racine,,53,,,5,,,,,,,,,,,,,,,
null,,confidence_buffer,489439,confidence_buffer,,null,,,,,,,,,,,,,,,,,,
1321.9000000953674,,memorable_rating,490764,Racine,,53,,,5,,,,,,,,,,,,,,,
null,,confidence_buffer,490877,confidence_buffer,,null,,,,,,,,,,,,,,,,,,
null,,thebreak,491381,break,,null,,,,,,,,,,,,,,,,,,
5951.100000143051,,familiar_rating,497334,Silverpine,,51,Silverpine,Fictional,3,,,,,,,,,,,,,,,
null,,confidence_buffer,497450,confidence_buffer,,null,,,,,,,,,,,,,,,,,,
2328.100000143051,,unique_rating,499780,Silverpine,,51,,,3,,,,,,,,,,,,,,,
null,,confidence_buffer,499890,confidence_buffer,,null,,,,,,,,,,,,,,,,,,
2594.4000000953674,,memorable_rating,502486,Silverpine,,51,,,3,,,,,,,,,,,,,,,
null,,confidence_buffer,502597,confidence_buffer,,null,,,,,,,,,,,,,,,,,,
null,,thebreak,503107,break,,null,,,,,,,,,,,,,,,,,,
8133.400000095367,,intro_0,511242,instruct,,32,,,,,,,,,,,,,,,,,,
9655.699999809265,,intro_1,520899,instruct,,32,,,,,,,,,,,,,,,,,,
24071,,intro_2,544972,instruct,,32,,,,,,,,,,,,,,,,,,
null,,instruct_dir_4,546477,instruct,,null,,,,,,,,,,,,,,,,,,
15848.900000095367,,realistic_rating,562328,Driftwood Bay,,53,Driftwood Bay,Fictional,5,,,,,,,,,,,,,,,
null,,confidence_buffer,562442,confidence_buffer,,null,,,,,,,,,,,,,,,,,,
3386,,pt2_unique_rating,565831,Driftwood Bay,,52,,,4,,,,,,,,,,,,,,,
null,,confidence_buffer,565942,confidence_buffer,,null,,,,,,,,,,,,,,,,,,
2098.9000000953674,,pt2_memorable_rating,568043,Driftwood Bay,,52,,,4,,,,,,,,,,,,,,,
null,,confidence_buffer,568152,confidence_buffer,,null,,,,,,,,,,,,,,,,,,
5357.600000143051,,recognition_phase,573512,Driftwood Bay,,49,,,,,,old,1,1,,,,,,,,,,
null,,confidence_buffer,573623,confidence_buffer,,null,,,,,,,,,,,,,,,,,,
null,,thebreak,574135,break,,null,,,,,,,,,,,,,,,,,,
7560.099999904633,,realistic_rating,581697,Okoboji,,52,Okoboji,US,4,,,,,,,,,,,,,,,
null,,confidence_buffer,581808,confidence_buffer,,null,,,,,,,,,,,,,,,,,,
1926.4000000953674,,pt2_unique_rating,583737,Okoboji,,52,,,4,,,,,,,,,,,,,,,
null,,confidence_buffer,583844,confidence_buffer,,null,,,,,,,,,,,,,,,,,,
4614.5,,pt2_memorable_rating,588461,Okoboji,,51,,,3,,,,,,,,,,,,,,,
null,,confidence_buffer,588565,confidence_buffer,,null,,,,,,,,,,,,,,,,,,
2022.5999999046326,,recognition_phase,590590,Okoboji,,49,,,,,,old,1,1,,,,,,,,,,
null,,confidence_buffer,590700,confidence_buffer,,null,,,,,,,,,,,,,,,,,,
null,,thebreak,591208,break,,null,,,,,,,,,,,,,,,,,,
5631.700000047684,,realistic_rating,596841,Coralridge,,53,Coralridge,Fictional,5,,,,,,,,,,,,,,,
null,,confidence_buffer,596957,confidence_buffer,,null,,,,,,,,,,,,,,,,,,
5093.299999952316,,pt2_unique_rating,602053,Coralridge,,52,,,4,,,,,,,,,,,,,,,
null,,confidence_buffer,602157,confidence_buffer,,null,,,,,,,,,,,,,,,,,,
2564.100000143051,,pt2_memorable_rating,604723,Coralridge,,51,,,3,,,,,,,,,,,,,,,
null,,confidence_buffer,604833,confidence_buffer,,null,,,,,,,,,,,,,,,,,,
2602.5,,recognition_phase,607437,Coralridge,,49,,,,,,old,1,1,,,,,,,,,,
null,,confidence_buffer,607550,confidence_buffer,,null,,,,,,,,,,,,,,,,,,
null,,thebreak,608056,break,,null,,,,,,,,,,,,,,,,,,
4576.899999856949,,realistic_rating,612635,Millstone,,53,Millstone,Fictional,5,,,,,,,,,,,,,,,
null,,confidence_buffer,612741,confidence_buffer,,null,,,,,,,,,,,,,,,,,,
5016.700000047684,,pt2_unique_rating,617760,Millstone,,51,,,3,,,,,,,,,,,,,,,
null,,confidence_buffer,617863,confidence_buffer,,null,,,,,,,,,,,,,,,,,,
2047.2999999523163,,pt2_memorable_rating,619913,Millstone,,51,,,3,,,,,,,,,,,,,,,
null,,confidence_buffer,620018,confidence_buffer,,null,,,,,,,,,,,,,,,,,,
2534,,recognition_phase,622555,Millstone,,49,,,,,,old,1,1,,,,,,,,,,
null,,confidence_buffer,622658,confidence_buffer,,null,,,,,,,,,,,,,,,,,,
null,,thebreak,623172,break,,null,,,,,,,,,,,,,,,,,,
5700.099999904633,,realistic_rating,628874,Albuquerque,,53,Albuquerque,US,5,,,,,,,,,,,,,,,
null,,confidence_buffer,628980,confidence_buffer,,null,,,,,,,,,,,,,,,,,,
1985.8000001907349,,pt2_unique_rating,630968,Albuquerque,,53,,,5,,,,,,,,,,,,,,,
null,,confidence_buffer,631082,confidence_buffer,,null,,,,,,,,,,,,,,,,,,
1572.2999999523163,,pt2_memorable_rating,632656,Albuquerque,,53,,,5,,,,,,,,,,,,,,,
null,,confidence_buffer,632767,confidence_buffer,,null,,,,,,,,,,,,,,,,,,
3700.9000000953674,,recognition_phase,636470,Albuquerque,,52,,,,,,new,1,1,,,,,,,,,,
null,,confidence_buffer,636586,confidence_buffer,,null,,,,,,,,,,,,,,,,,,
null,,thebreak,637092,break,,null,,,,,,,,,,,,,,,,,,
7700.600000143051,,realistic_rating,644795,Bar Harbor,,52,Bar Harbor,US,4,,,,,,,,,,,,,,,
null,,confidence_buffer,644908,confidence_buffer,,null,,,,,,,,,,,,,,,,,,
2618.600000143051,,pt2_unique_rating,647529,Bar Harbor,,51,,,3,,,,,,,,,,,,,,,
null,,confidence_buffer,647637,confidence_buffer,,null,,,,,,,,,,,,,,,,,,
5328.399999856949,,pt2_memorable_rating,652967,Bar Harbor,,52,,,4,,,,,,,,,,,,,,,
null,,confidence_buffer,653075,confidence_buffer,,null,,,,,,,,,,,,,,,,,,
2132.7999999523163,,recognition_phase,655210,Bar Harbor,,49,,,,,,old,0,0.8333333333333334,,,,,,,,,,
null,,confidence_buffer,655317,confidence_buffer,,null,,,,,,,,,,,,,,,,,,
null,,thebreak,655830,break,,null,,,,,,,,,,,,,,,,,,
5207.600000143051,,realistic_rating,661040,Bayshore Haven,,53,Bayshore Haven,Fictional,5,,,,,,,,,,,,,,,
null,,confidence_buffer,661147,confidence_buffer,,null,,,,,,,,,,,,,,,,,,
1939.8999998569489,,pt2_unique_rating,663089,Bayshore Haven,,52,,,4,,,,,,,,,,,,,,,
null,,confidence_buffer,663192,confidence_buffer,,null,,,,,,,,,,,,,,,,,,
2102.699999809265,,pt2_memorable_rating,665297,Bayshore Haven,,52,,,4,,,,,,,,,,,,,,,
null,,confidence_buffer,665399,confidence_buffer,,null,,,,,,,,,,,,,,,,,,
2494.100000143051,,recognition_phase,667896,Bayshore Haven,,49,,,,,,old,1,0.8571428571428571,,,,,,,,,,
null,,confidence_buffer,668005,confidence_buffer,,null,,,,,,,,,,,,,,,,,,
null,,thebreak,668511,break,,null,,,,,,,,,,,,,,,,,,
7902.799999952316,,realistic_rating,676416,Ravenport,,52,Ravenport,Fictional,4,,,,,,,,,,,,,,,
null,,confidence_buffer,676528,confidence_buffer,,null,,,,,,,,,,,,,,,,,,
2795.7999999523163,,pt2_unique_rating,679326,Ravenport,,51,,,3,,,,,,,,,,,,,,,
null,,confidence_buffer,679432,confidence_buffer,,null,,,,,,,,,,,,,,,,,,
2419.2999999523163,,pt2_memorable_rating,681854,Ravenport,,51,,,3,,,,,,,,,,,,,,,
null,,confidence_buffer,681966,confidence_buffer,,null,,,,,,,,,,,,,,,,,,
3814.100000143051,,recognition_phase,685782,Ravenport,,52,,,,,,new,1,0.875,,,,,,,,,,
null,,confidence_buffer,685896,confidence_buffer,,null,,,,,,,,,,,,,,,,,,
null,,thebreak,686411,break,,null,,,,,,,,,,,,,,,,,,
8350.799999952316,,realistic_rating,694763,Delaware City,,52,Delaware City,US,4,,,,,,,,,,,,,,,
null,,confidence_buffer,694871,confidence_buffer,,null,,,,,,,,,,,,,,,,,,
2368.899999856949,,pt2_unique_rating,697242,Delaware City,,51,,,3,,,,,,,,,,,,,,,
null,,confidence_buffer,697353,confidence_buffer,,null,,,,,,,,,,,,,,,,,,
2679,,pt2_memorable_rating,700035,Delaware City,,51,,,3,,,,,,,,,,,,,,,
null,,confidence_buffer,700143,confidence_buffer,,null,,,,,,,,,,,,,,,,,,
4809.299999952316,,recognition_phase,704954,Delaware City,,52,,,,,,new,1,0.8888888888888888,,,,,,,,,,
null,,confidence_buffer,705058,confidence_buffer,,null,,,,,,,,,,,,,,,,,,
null,,thebreak,705565,break,,null,,,,,,,,,,,,,,,,,,
2697.7000000476837,,realistic_rating,708266,West Palm Beach,,53,West Palm Beach,US,5,,,,,,,,,,,,,,,
null,,confidence_buffer,708375,confidence_buffer,,null,,,,,,,,,,,,,,,,,,
3099.2999999523163,,pt2_unique_rating,711477,West Palm Beach,,52,,,4,,,,,,,,,,,,,,,
null,,confidence_buffer,711593,confidence_buffer,,null,,,,,,,,,,,,,,,,,,
3827.2000000476837,,pt2_memorable_rating,715422,West Palm Beach,,52,,,4,,,,,,,,,,,,,,,
null,,confidence_buffer,715535,confidence_buffer,,null,,,,,,,,,,,,,,,,,,
4396.599999904633,,recognition_phase,719934,West Palm Beach,,52,,,,,,new,1,0.9,,,,,,,,,,
null,,confidence_buffer,720037,confidence_buffer,,null,,,,,,,,,,,,,,,,,,
null,,thebreak,720547,break,,null,,,,,,,,,,,,,,,,,,
10041,,realistic_rating,730590,Ironwood Heights,,52,Ironwood Heights,Fictional,4,,,,,,,,,,,,,,,
null,,confidence_buffer,730699,confidence_buffer,,null,,,,,,,,,,,,,,,,,,
2582.5,,pt2_unique_rating,733283,Ironwood Heights,,52,,,4,,,,,,,,,,,,,,,
null,,confidence_buffer,733401,confidence_buffer,,null,,,,,,,,,,,,,,,,,,
2397.2000000476837,,pt2_memorable_rating,735800,Ironwood Heights,,52,,,4,,,,,,,,,,,,,,,
null,,confidence_buffer,735915,confidence_buffer,,null,,,,,,,,,,,,,,,,,,
3315.9000000953674,,probe_rating,739233,probe_rating,,51,,,,3,1,,,,,,,,,,,,,
null,,confidence_buffer,739338,confidence_buffer,,null,,,,,,,,,,,,,,,,,,
3570.5,,recognition_phase,742911,Ironwood Heights,,52,,,,,,new,1,0.9090909090909091,,,,,,,,,,
null,,confidence_buffer,743025,confidence_buffer,,null,,,,,,,,,,,,,,,,,,
null,,thebreak,743535,break,,null,,,,,,,,,,,,,,,,,,
10891.200000047684,,realistic_rating,754428,Solara Glen,,51,Solara Glen,Fictional,3,,,,,,,,,,,,,,,
null,,confidence_buffer,754541,confidence_buffer,,null,,,,,,,,,,,,,,,,,,
2660.699999809265,,pt2_unique_rating,757205,Solara Glen,,52,,,4,,,,,,,,,,,,,,,
null,,confidence_buffer,757314,confidence_buffer,,null,,,,,,,,,,,,,,,,,,
2402.899999856949,,probe_rating,759719,probe_rating,,50,,,,2,1,,,,,,,,,,,,,
null,,confidence_buffer,759836,confidence_buffer,,null,,,,,,,,,,,,,,,,,,
2950,,pt2_memorable_rating,762788,Solara Glen,,52,,,4,,,,,,,,,,,,,,,
null,,confidence_buffer,762894,confidence_buffer,,null,,,,,,,,,,,,,,,,,,
2707.7000000476837,,recognition_phase,765604,Solara Glen,,49,,,,,,old,1,0.9166666666666666,,,,,,,,,,
null,,confidence_buffer,765710,confidence_buffer,,null,,,,,,,,,,,,,,,,,,
null,,thebreak,766227,break,,null,,,,,,,,,,,,,,,,,,
4804.5,,realistic_rating,771034,Riverlyn,,52,Riverlyn,Fictional,4,,,,,,,,,,,,,,,
null,,confidence_buffer,771147,confidence_buffer,,null,,,,,,,,,,,,,,,,,,
3131.7999999523163,,pt2_unique_rating,774281,Riverlyn,,52,,,4,,,,,,,,,,,,,,,
null,,confidence_buffer,774385,confidence_buffer,,null,,,,,,,,,,,,,,,,,,
2298.5999999046326,,pt2_memorable_rating,776686,Riverlyn,,52,,,4,,,,,,,,,,,,,,,
null,,confidence_buffer,776803,confidence_buffer,,null,,,,,,,,,,,,,,,,,,
4358,,recognition_phase,781164,Riverlyn,,52,,,,,,new,1,0.9230769230769231,,,,,,,,,,
null,,confidence_buffer,781268,confidence_buffer,,null,,,,,,,,,,,,,,,,,,
null,,thebreak,781782,break,,null,,,,,,,,,,,,,,,,,,
6149.799999952316,,realistic_rating,787934,Hawthorne Bluffs,,52,Hawthorne Bluffs,Fictional,4,,,,,,,,,,,,,,,
null,,confidence_buffer,788038,confidence_buffer,,null,,,,,,,,,,,,,,,,,,
2831.2999999523163,,pt2_unique_rating,790872,Hawthorne Bluffs,,52,,,4,,,,,,,,,,,,,,,
null,,confidence_buffer,790979,confidence_buffer,,null,,,,,,,,,,,,,,,,,,
3441.9000000953674,,pt2_memorable_rating,794423,Hawthorne Bluffs,,52,,,4,,,,,,,,,,,,,,,
null,,confidence_buffer,794535,confidence_buffer,,null,,,,,,,,,,,,,,,,,,
7317.900000095367,,recognition_phase,801855,Hawthorne Bluffs,,50,,,,,,old,1,0.9285714285714286,,,,,,,,,,
null,,confidence_buffer,801959,confidence_buffer,,null,,,,,,,,,,,,,,,,,,
null,,thebreak,802475,break,,null,,,,,,,,,,,,,,,,,,
4627.700000047684,,realistic_rating,807105,Bowling Green,,53,Bowling Green,US,5,,,,,,,,,,,,,,,
null,,confidence_buffer,807207,confidence_buffer,,null,,,,,,,,,,,,,,,,,,
2683.5,,pt2_unique_rating,809893,Bowling Green,,52,,,4,,,,,,,,,,,,,,,
null,,confidence_buffer,810003,confidence_buffer,,null,,,,,,,,,,,,,,,,,,
2378.9000000953674,,pt2_memorable_rating,812384,Bowling Green,,52,,,4,,,,,,,,,,,,,,,
null,,confidence_buffer,812497,confidence_buffer,,null,,,,,,,,,,,,,,,,,,
2278.800000190735,,recognition_phase,814778,Bowling Green,,49,,,,,,old,1,0.9333333333333333,,,,,,,,,,
null,,confidence_buffer,814885,confidence_buffer,,null,,,,,,,,,,,,,,,,,,
null,,thebreak,815391,break,,null,,,,,,,,,,,,,,,,,,
4859.299999952316,,realistic_rating,820252,Briarfield,,53,Briarfield,Fictional,5,,,,,,,,,,,,,,,
null,,confidence_buffer,820363,confidence_buffer,,null,,,,,,,,,,,,,,,,,,
4599.899999856949,,pt2_unique_rating,824965,Briarfield,,51,,,3,,,,,,,,,,,,,,,
null,,confidence_buffer,825068,confidence_buffer,,null,,,,,,,,,,,,,,,,,,
2509.7000000476837,,pt2_memorable_rating,827580,Briarfield,,51,,,3,,,,,,,,,,,,,,,
null,,confidence_buffer,827684,confidence_buffer,,null,,,,,,,,,,,,,,,,,,
3015.399999856949,,recognition_phase,830702,Briarfield,,49,,,,,,old,1,0.9375,,,,,,,,,,
null,,confidence_buffer,830811,confidence_buffer,,null,,,,,,,,,,,,,,,,,,
null,,thebreak,831321,break,,null,,,,,,,,,,,,,,,,,,
9085.299999952316,,realistic_rating,840409,Watkins Glen,,53,Watkins Glen,US,5,,,,,,,,,,,,,,,
null,,confidence_buffer,840512,confidence_buffer,,null,,,,,,,,,,,,,,,,,,
2219.600000143051,,pt2_unique_rating,842735,Watkins Glen,,52,,,4,,,,,,,,,,,,,,,
null,,confidence_buffer,842843,confidence_buffer,,null,,,,,,,,,,,,,,,,,,
2932.7000000476837,,pt2_memorable_rating,845778,Watkins Glen,,52,,,4,,,,,,,,,,,,,,,
null,,confidence_buffer,845892,confidence_buffer,,null,,,,,,,,,,,,,,,,,,
5955.299999952316,,recognition_phase,851849,Watkins Glen,,52,,,,,,new,1,0.9411764705882353,,,,,,,,,,
null,,confidence_buffer,851954,confidence_buffer,,null,,,,,,,,,,,,,,,,,,
null,,thebreak,852458,break,,null,,,,,,,,,,,,,,,,,,
8304.5,,realistic_rating,860765,Stonebrook,,52,Stonebrook,Fictional,4,,,,,,,,,,,,,,,
null,,confidence_buffer,860873,confidence_buffer,,null,,,,,,,,,,,,,,,,,,
4551.700000047684,,pt2_unique_rating,865427,Stonebrook,,51,,,3,,,,,,,,,,,,,,,
null,,confidence_buffer,865543,confidence_buffer,,null,,,,,,,,,,,,,,,,,,
3027.899999856949,,pt2_memorable_rating,868573,Stonebrook,,52,,,4,,,,,,,,,,,,,,,
null,,confidence_buffer,868676,confidence_buffer,,null,,,,,,,,,,,,,,,,,,
2744.5,,probe_rating,871424,probe_rating,,51,,,,3,1,,,,,,,,,,,,,
null,,confidence_buffer,871541,confidence_buffer,,null,,,,,,,,,,,,,,,,,,
5536.799999952316,,recognition_phase,877080,Stonebrook,,51,,,,,,new,1,0.9444444444444444,,,,,,,,,,
null,,confidence_buffer,877187,confidence_buffer,,null,,,,,,,,,,,,,,,,,,
null,,thebreak,877701,break,,null,,,,,,,,,,,,,,,,,,
3642.0999999046326,,realistic_rating,881346,Sisters,,53,Sisters,US,5,,,,,,,,,,,,,,,
null,,confidence_buffer,881450,confidence_buffer,,null,,,,,,,,,,,,,,,,,,
1950.2999999523163,,pt2_unique_rating,883402,Sisters,,53,,,5,,,,,,,,,,,,,,,
null,,confidence_buffer,883512,confidence_buffer,,null,,,,,,,,,,,,,,,,,,
1999.3000001907349,,pt2_memorable_rating,885514,Sisters,,53,,,5,,,,,,,,,,,,,,,
null,,confidence_buffer,885628,confidence_buffer,,null,,,,,,,,,,,,,,,,,,
3474.399999856949,,probe_rating,889105,probe_rating,,52,,,,4,1,,,,,,,,,,,,,
null,,confidence_buffer,889208,confidence_buffer,,null,,,,,,,,,,,,,,,,,,
2342.0999999046326,,recognition_phase,891553,Sisters,,52,,,,,,new,1,0.9473684210526315,,,,,,,,,,
null,,confidence_buffer,891662,confidence_buffer,,null,,,,,,,,,,,,,,,,,,
null,,thebreak,892172,break,,null,,,,,,,,,,,,,,,,,,
4623.399999856949,,realistic_rating,896798,Summershade,,52,Summershade,Fictional,4,,,,,,,,,,,,,,,
null,,confidence_buffer,896902,confidence_buffer,,null,,,,,,,,,,,,,,,,,,
3129.7000000476837,,pt2_unique_rating,900035,Summershade,,52,,,4,,,,,,,,,,,,,,,
null,,confidence_buffer,900139,confidence_buffer,,null,,,,,,,,,,,,,,,,,,
1678.2999999523163,,pt2_memorable_rating,901820,Summershade,,52,,,4,,,,,,,,,,,,,,,
null,,confidence_buffer,901926,confidence_buffer,,null,,,,,,,,,,,,,,,,,,
3138.0999999046326,,recognition_phase,905066,Summershade,,49,,,,,,old,1,0.95,,,,,,,,,,
null,,confidence_buffer,905183,confidence_buffer,,null,,,,,,,,,,,,,,,,,,
null,,thebreak,905690,break,,null,,,,,,,,,,,,,,,,,,
2904.9000000953674,,realistic_rating,908597,Barnard,,53,Barnard,US,5,,,,,,,,,,,,,,,
null,,confidence_buffer,908701,confidence_buffer,,null,,,,,,,,,,,,,,,,,,
2998.7000000476837,,pt2_unique_rating,911702,Barnard,,52,,,4,,,,,,,,,,,,,,,
null,,confidence_buffer,911805,confidence_buffer,,null,,,,,,,,,,,,,,,,,,
2911,,pt2_memorable_rating,914719,Barnard,,52,,,4,,,,,,,,,,,,,,,
null,,confidence_buffer,914835,confidence_buffer,,null,,,,,,,,,,,,,,,,,,
1877.9000000953674,,recognition_phase,916716,Barnard,,49,,,,,,old,1,0.9523809523809523,,,,,,,,,,
null,,confidence_buffer,916824,confidence_buffer,,null,,,,,,,,,,,,,,,,,,
null,,thebreak,917335,break,,null,,,,,,,,,,,,,,,,,,
6377.200000047684,,realistic_rating,923714,Berkeley Springs,,53,Berkeley Springs,US,5,,,,,,,,,,,,,,,
null,,confidence_buffer,923823,confidence_buffer,,null,,,,,,,,,,,,,,,,,,
2593.2999999523163,,pt2_unique_rating,926418,Berkeley Springs,,52,,,4,,,,,,,,,,,,,,,
null,,confidence_buffer,926526,confidence_buffer,,null,,,,,,,,,,,,,,,,,,
2008.2000000476837,,pt2_memorable_rating,928537,Berkeley Springs,,52,,,4,,,,,,,,,,,,,,,
null,,confidence_buffer,928640,confidence_buffer,,null,,,,,,,,,,,,,,,,,,
2739.2000000476837,,recognition_phase,931382,Berkeley Springs,,52,,,,,,new,1,0.9545454545454546,,,,,,,,,,
null,,confidence_buffer,931492,confidence_buffer,,null,,,,,,,,,,,,,,,,,,
null,,thebreak,932001,break,,null,,,,,,,,,,,,,,,,,,
3081.7000000476837,,realistic_rating,935085,Huntsville,,53,Huntsville,US,5,,,,,,,,,,,,,,,
null,,confidence_buffer,935202,confidence_buffer,,null,,,,,,,,,,,,,,,,,,
2687.7999999523163,,pt2_unique_rating,937893,Huntsville,,52,,,4,,,,,,,,,,,,,,,
null,,confidence_buffer,938010,confidence_buffer,,null,,,,,,,,,,,,,,,,,,
1416.7999999523163,,pt2_memorable_rating,939429,Huntsville,,52,,,4,,,,,,,,,,,,,,,
null,,confidence_buffer,939532,confidence_buffer,,null,,,,,,,,,,,,,,,,,,
3365.5,,recognition_phase,942900,Huntsville,,52,,,,,,new,1,0.9565217391304348,,,,,,,,,,
null,,confidence_buffer,943005,confidence_buffer,,null,,,,,,,,,,,,,,,,,,
null,,thebreak,943515,break,,null,,,,,,,,,,,,,,,,,,
6253.200000047684,,realistic_rating,949770,Claywater,,52,Claywater,Fictional,4,,,,,,,,,,,,,,,
null,,confidence_buffer,949881,confidence_buffer,,null,,,,,,,,,,,,,,,,,,
2265.5,,probe_rating,952149,probe_rating,,52,,,,4,1,,,,,,,,,,,,,
null,,confidence_buffer,952264,confidence_buffer,,null,,,,,,,,,,,,,,,,,,
9260.399999856949,,pt2_unique_rating,961526,Claywater,,51,,,3,,,,,,,,,,,,,,,
null,,confidence_buffer,961628,confidence_buffer,,null,,,,,,,,,,,,,,,,,,
3621.7999999523163,,pt2_memorable_rating,965253,Claywater,,51,,,3,,,,,,,,,,,,,,,
null,,confidence_buffer,965363,confidence_buffer,,null,,,,,,,,,,,,,,,,,,
3480.5999999046326,,recognition_phase,968847,Claywater,,52,,,,,,new,1,0.9583333333333334,,,,,,,,,,
null,,confidence_buffer,968952,confidence_buffer,,null,,,,,,,,,,,,,,,,,,
null,,thebreak,969460,break,,null,,,,,,,,,,,,,,,,,,
6886.5,,realistic_rating,976349,Baymarsh,,51,Baymarsh,Fictional,3,,,,,,,,,,,,,,,
null,,confidence_buffer,976463,confidence_buffer,,null,,,,,,,,,,,,,,,,,,
1969.7999999523163,,pt2_unique_rating,978435,Baymarsh,,51,,,3,,,,,,,,,,,,,,,
null,,confidence_buffer,978544,confidence_buffer,,null,,,,,,,,,,,,,,,,,,
2386.0999999046326,,pt2_memorable_rating,980932,Baymarsh,,51,,,3,,,,,,,,,,,,,,,
null,,confidence_buffer,981039,confidence_buffer,,null,,,,,,,,,,,,,,,,,,
3810.100000143051,,recognition_phase,984852,Baymarsh,,52,,,,,,new,1,0.96,,,,,,,,,,
null,,confidence_buffer,984966,confidence_buffer,,null,,,,,,,,,,,,,,,,,,
null,,thebreak,985470,break,,null,,,,,,,,,,,,,,,,,,
2600.300000190735,,realistic_rating,988073,Abilene,,53,Abilene,US,5,,,,,,,,,,,,,,,
null,,confidence_buffer,988177,confidence_buffer,,null,,,,,,,,,,,,,,,,,,
3782.699999809265,,pt2_unique_rating,991962,Abilene,,52,,,4,,,,,,,,,,,,,,,
null,,confidence_buffer,992073,confidence_buffer,,null,,,,,,,,,,,,,,,,,,
1437.5999999046326,,pt2_memorable_rating,993513,Abilene,,52,,,4,,,,,,,,,,,,,,,
null,,confidence_buffer,993626,confidence_buffer,,null,,,,,,,,,,,,,,,,,,
6143.599999904633,,recognition_phase,999772,Abilene,,49,,,,,,old,1,0.9615384615384616,,,,,,,,,,
null,,confidence_buffer,999876,confidence_buffer,,null,,,,,,,,,,,,,,,,,,
null,,thebreak,1000383,break,,null,,,,,,,,,,,,,,,,,,
10626.5,,realistic_rating,1011011,Folly Beach,,51,Folly Beach,US,3,,,,,,,,,,,,,,,
null,,confidence_buffer,1011129,confidence_buffer,,null,,,,,,,,,,,,,,,,,,
2240,,probe_rating,1013371,probe_rating,,52,,,,4,1,,,,,,,,,,,,,
null,,confidence_buffer,1013484,confidence_buffer,,null,,,,,,,,,,,,,,,,,,
3666.7999999523163,,pt2_unique_rating,1017153,Folly Beach,,51,,,3,,,,,,,,,,,,,,,
null,,confidence_buffer,1017256,confidence_buffer,,null,,,,,,,,,,,,,,,,,,
2487.399999856949,,pt2_memorable_rating,1019747,Folly Beach,,51,,,3,,,,,,,,,,,,,,,
null,,confidence_buffer,1019849,confidence_buffer,,null,,,,,,,,,,,,,,,,,,
3032.300000190735,,recognition_phase,1022884,Folly Beach,,52,,,,,,new,1,0.9629629629629629,,,,,,,,,,
null,,confidence_buffer,1022986,confidence_buffer,,null,,,,,,,,,,,,,,,,,,
null,,thebreak,1023493,break,,null,,,,,,,,,,,,,,,,,,
3971.399999856949,,realistic_rating,1027467,Hilo,,53,Hilo,US,5,,,,,,,,,,,,,,,
null,,confidence_buffer,1027575,confidence_buffer,,null,,,,,,,,,,,,,,,,,,
1975.6000001430511,,probe_rating,1029553,probe_rating,,52,,,,4,1,,,,,,,,,,,,,
null,,confidence_buffer,1029672,confidence_buffer,,null,,,,,,,,,,,,,,,,,,
3853.100000143051,,pt2_unique_rating,1033527,Hilo,,52,,,4,,,,,,,,,,,,,,,
null,,confidence_buffer,1033638,confidence_buffer,,null,,,,,,,,,,,,,,,,,,
1643.5999999046326,,pt2_memorable_rating,1035284,Hilo,,52,,,4,,,,,,,,,,,,,,,
null,,confidence_buffer,1035390,confidence_buffer,,null,,,,,,,,,,,,,,,,,,
2388.7999999523163,,recognition_phase,1037781,Hilo,,49,,,,,,old,1,0.9642857142857143,,,,,,,,,,
null,,confidence_buffer,1037887,confidence_buffer,,null,,,,,,,,,,,,,,,,,,
null,,thebreak,1038397,break,,null,,,,,,,,,,,,,,,,,,
9348.200000047684,,realistic_rating,1047747,Lakehaven,,51,Lakehaven,Fictional,3,,,,,,,,,,,,,,,
null,,confidence_buffer,1047851,confidence_buffer,,null,,,,,,,,,,,,,,,,,,
2107.7999999523163,,pt2_unique_rating,1049960,Lakehaven,,51,,,3,,,,,,,,,,,,,,,
null,,confidence_buffer,1050073,confidence_buffer,,null,,,,,,,,,,,,,,,,,,
4794,,pt2_memorable_rating,1054869,Lakehaven,,51,,,3,,,,,,,,,,,,,,,
null,,confidence_buffer,1054979,confidence_buffer,,null,,,,,,,,,,,,,,,,,,
4099.600000143051,,recognition_phase,1059080,Lakehaven,,49,,,,,,old,1,0.9655172413793104,,,,,,,,,,
null,,confidence_buffer,1059186,confidence_buffer,,null,,,,,,,,,,,,,,,,,,
null,,thebreak,1059699,break,,null,,,,,,,,,,,,,,,,,,
6250.5,,realistic_rating,1065951,Silverpine,,52,Silverpine,Fictional,4,,,,,,,,,,,,,,,
null,,confidence_buffer,1066066,confidence_buffer,,null,,,,,,,,,,,,,,,,,,
1484.4000000953674,,pt2_unique_rating,1067553,Silverpine,,52,,,4,,,,,,,,,,,,,,,
null,,confidence_buffer,1067666,confidence_buffer,,null,,,,,,,,,,,,,,,,,,
1839.5,,probe_rating,1069507,probe_rating,,50,,,,2,1,,,,,,,,,,,,,
null,,confidence_buffer,1069612,confidence_buffer,,null,,,,,,,,,,,,,,,,,,
4094.4000000953674,,pt2_memorable_rating,1073710,Silverpine,,52,,,4,,,,,,,,,,,,,,,
null,,confidence_buffer,1073821,confidence_buffer,,null,,,,,,,,,,,,,,,,,,
1886.5,,recognition_phase,1075709,Silverpine,,49,,,,,,old,1,0.9666666666666667,,,,,,,,,,
null,,confidence_buffer,1075817,confidence_buffer,,null,,,,,,,,,,,,,,,,,,
null,,thebreak,1076327,break,,null,,,,,,,,,,,,,,,,,,
4338.700000047684,,realistic_rating,1080668,Fairhaven,,53,Fairhaven,Fictional,5,,,,,,,,,,,,,,,
null,,confidence_buffer,1080774,confidence_buffer,,null,,,,,,,,,,,,,,,,,,
3342.100000143051,,pt2_unique_rating,1084119,Fairhaven,,52,,,4,,,,,,,,,,,,,,,
null,,confidence_buffer,1084227,confidence_buffer,,null,,,,,,,,,,,,,,,,,,
2487.7999999523163,,pt2_memorable_rating,1086718,Fairhaven,,52,,,4,,,,,,,,,,,,,,,
null,,confidence_buffer,1086823,confidence_buffer,,null,,,,,,,,,,,,,,,,,,
1826.5,,probe_rating,1088651,probe_rating,,49,,,,1,1,,,,,,,,,,,,,
null,,confidence_buffer,1088765,confidence_buffer,,null,,,,,,,,,,,,,,,,,,
4916.299999952316,,recognition_phase,1093684,Fairhaven,,49,,,,,,old,0,0.9354838709677419,,,,,,,,,,
null,,confidence_buffer,1093790,confidence_buffer,,null,,,,,,,,,,,,,,,,,,
null,,thebreak,1094297,break,,null,,,,,,,,,,,,,,,,,,
10725.199999809265,,realistic_rating,1105024,Northbridge,,51,Northbridge,Fictional,3,,,,,,,,,,,,,,,
null,,confidence_buffer,1105127,confidence_buffer,,null,,,,,,,,,,,,,,,,,,
1804.5999999046326,,pt2_unique_rating,1106934,Northbridge,,51,,,3,,,,,,,,,,,,,,,
null,,confidence_buffer,1107043,confidence_buffer,,null,,,,,,,,,,,,,,,,,,
1982.5,,pt2_memorable_rating,1109028,Northbridge,,51,,,3,,,,,,,,,,,,,,,
null,,confidence_buffer,1109144,confidence_buffer,,null,,,,,,,,,,,,,,,,,,
4633.400000095367,,recognition_phase,1113780,Northbridge,,51,,,,,,new,1,0.9375,,,,,,,,,,
null,,confidence_buffer,1113894,confidence_buffer,,null,,,,,,,,,,,,,,,,,,
null,,thebreak,1114412,break,,null,,,,,,,,,,,,,,,,,,
16322,,realistic_rating,1130736,Assateague Island,,51,Assateague Island,US,3,,,,,,,,,,,,,,,
null,,confidence_buffer,1130851,confidence_buffer,,null,,,,,,,,,,,,,,,,,,
2810.4000000953674,,pt2_unique_rating,1133663,Assateague Island,,53,,,5,,,,,,,,,,,,,,,
null,,confidence_buffer,1133771,confidence_buffer,,null,,,,,,,,,,,,,,,,,,
2225.100000143051,,pt2_memorable_rating,1135998,Assateague Island,,52,,,4,,,,,,,,,,,,,,,
null,,confidence_buffer,1136108,confidence_buffer,,null,,,,,,,,,,,,,,,,,,
4159.299999952316,,recognition_phase,1140270,Assateague Island,,52,,,,,,new,1,0.9393939393939394,,,,,,,,,,
null,,confidence_buffer,1140379,confidence_buffer,,null,,,,,,,,,,,,,,,,,,
null,,thebreak,1140883,break,,null,,,,,,,,,,,,,,,,,,
7121.200000047684,,realistic_rating,1148006,Clearbrook,,52,Clearbrook,Fictional,4,,,,,,,,,,,,,,,
null,,confidence_buffer,1148114,confidence_buffer,,null,,,,,,,,,,,,,,,,,,
3732.4000000953674,,pt2_unique_rating,1151849,Clearbrook,,51,,,3,,,,,,,,,,,,,,,
null,,confidence_buffer,1151968,confidence_buffer,,null,,,,,,,,,,,,,,,,,,
2323.300000190735,,pt2_memorable_rating,1154294,Clearbrook,,51,,,3,,,,,,,,,,,,,,,
null,,confidence_buffer,1154398,confidence_buffer,,null,,,,,,,,,,,,,,,,,,
14515.400000095367,,recognition_phase,1168915,Clearbrook,,51,,,,,,new,1,0.9411764705882353,,,,,,,,,,
null,,confidence_buffer,1169025,confidence_buffer,,null,,,,,,,,,,,,,,,,,,
null,,thebreak,1169541,break,,null,,,,,,,,,,,,,,,,,,
6407.700000047684,,realistic_rating,1175951,Park City,,52,Park City,US,4,,,,,,,,,,,,,,,
null,,confidence_buffer,1176058,confidence_buffer,,null,,,,,,,,,,,,,,,,,,
1726.7999999523163,,pt2_unique_rating,1177788,Park City,,51,,,3,,,,,,,,,,,,,,,
null,,confidence_buffer,1177898,confidence_buffer,,null,,,,,,,,,,,,,,,,,,
1720,,probe_rating,1179620,probe_rating,,49,,,,1,1,,,,,,,,,,,,,
null,,confidence_buffer,1179724,confidence_buffer,,null,,,,,,,,,,,,,,,,,,
2572.2000000476837,,pt2_memorable_rating,1182299,Park City,,51,,,3,,,,,,,,,,,,,,,
null,,confidence_buffer,1182403,confidence_buffer,,null,,,,,,,,,,,,,,,,,,
2986.2000000476837,,recognition_phase,1185392,Park City,,49,,,,,,old,1,0.9428571428571428,,,,,,,,,,
null,,confidence_buffer,1185502,confidence_buffer,,null,,,,,,,,,,,,,,,,,,
null,,thebreak,1186009,break,,null,,,,,,,,,,,,,,,,,,
12039.799999952316,,realistic_rating,1198050,Duck,,50,Duck,US,2,,,,,,,,,,,,,,,
null,,confidence_buffer,1198157,confidence_buffer,,null,,,,,,,,,,,,,,,,,,
3653.2000000476837,,pt2_unique_rating,1201812,Duck,,51,,,3,,,,,,,,,,,,,,,
null,,confidence_buffer,1201915,confidence_buffer,,null,,,,,,,,,,,,,,,,,,
4399.5,,pt2_memorable_rating,1206317,Duck,,50,,,2,,,,,,,,,,,,,,,
null,,confidence_buffer,1206425,confidence_buffer,,null,,,,,,,,,,,,,,,,,,
2327.4000000953674,,recognition_phase,1208755,Duck,,52,,,,,,new,1,0.9444444444444444,,,,,,,,,,
null,,confidence_buffer,1208866,confidence_buffer,,null,,,,,,,,,,,,,,,,,,
null,,thebreak,1209380,break,,null,,,,,,,,,,,,,,,,,,
6031.100000143051,,realistic_rating,1215413,Falconridge,,52,Falconridge,Fictional,4,,,,,,,,,,,,,,,
null,,confidence_buffer,1215522,confidence_buffer,,null,,,,,,,,,,,,,,,,,,
2426.100000143051,,pt2_unique_rating,1217950,Falconridge,,51,,,3,,,,,,,,,,,,,,,
null,,confidence_buffer,1218055,confidence_buffer,,null,,,,,,,,,,,,,,,,,,
1855.2000000476837,,probe_rating,1219912,probe_rating,,53,,,,5,1,,,,,,,,,,,,,
null,,confidence_buffer,1220023,confidence_buffer,,null,,,,,,,,,,,,,,,,,,
3276,,pt2_memorable_rating,1223301,Falconridge,,52,,,4,,,,,,,,,,,,,,,
null,,confidence_buffer,1223404,confidence_buffer,,null,,,,,,,,,,,,,,,,,,
23347.60000014305,,recognition_phase,1246754,Falconridge,,50,,,,,,old,0,0.918918918918919,,,,,,,,,,
null,,confidence_buffer,1246866,confidence_buffer,,null,,,,,,,,,,,,,,,,,,
null,,thebreak,1247382,break,,null,,,,,,,,,,,,,,,,,,
2790.2000000476837,,realistic_rating,1250174,Cornwall,,53,Cornwall,US,5,,,,,,,,,,,,,,,
null,,confidence_buffer,1250283,confidence_buffer,,null,,,,,,,,,,,,,,,,,,
3968.100000143051,,pt2_unique_rating,1254253,Cornwall,,51,,,3,,,,,,,,,,,,,,,
null,,confidence_buffer,1254359,confidence_buffer,,null,,,,,,,,,,,,,,,,,,
1585.2999999523163,,pt2_memorable_rating,1255946,Cornwall,,52,,,4,,,,,,,,,,,,,,,
null,,confidence_buffer,1256057,confidence_buffer,,null,,,,,,,,,,,,,,,,,,
2129.5,,recognition_phase,1258189,Cornwall,,49,,,,,,old,1,0.9210526315789473,,,,,,,,,,
null,,confidence_buffer,1258304,confidence_buffer,,null,,,,,,,,,,,,,,,,,,
null,,thebreak,1258819,break,,null,,,,,,,,,,,,,,,,,,
7230.700000047684,,realistic_rating,1266052,Sierra Hollow,,52,Sierra Hollow,Fictional,4,,,,,,,,,,,,,,,
null,,confidence_buffer,1266161,confidence_buffer,,null,,,,,,,,,,,,,,,,,,
1617,,pt2_unique_rating,1267780,Sierra Hollow,,52,,,4,,,,,,,,,,,,,,,
null,,confidence_buffer,1267894,confidence_buffer,,null,,,,,,,,,,,,,,,,,,
2107,,pt2_memorable_rating,1270004,Sierra Hollow,,52,,,4,,,,,,,,,,,,,,,
null,,confidence_buffer,1270108,confidence_buffer,,null,,,,,,,,,,,,,,,,,,
2412,,recognition_phase,1272522,Sierra Hollow,,49,,,,,,old,1,0.9230769230769231,,,,,,,,,,
null,,confidence_buffer,1272633,confidence_buffer,,null,,,,,,,,,,,,,,,,,,
null,,thebreak,1273140,break,,null,,,,,,,,,,,,,,,,,,
3440.7999999523163,,realistic_rating,1276583,Shreveport,,53,Shreveport,US,5,,,,,,,,,,,,,,,
null,,confidence_buffer,1276694,confidence_buffer,,null,,,,,,,,,,,,,,,,,,
2622.7999999523163,,pt2_unique_rating,1279320,Shreveport,,52,,,4,,,,,,,,,,,,,,,
null,,confidence_buffer,1279434,confidence_buffer,,null,,,,,,,,,,,,,,,,,,
1900.7999999523163,,pt2_memorable_rating,1281337,Shreveport,,52,,,4,,,,,,,,,,,,,,,
null,,confidence_buffer,1281441,confidence_buffer,,null,,,,,,,,,,,,,,,,,,
2248.4000000953674,,recognition_phase,1283692,Shreveport,,49,,,,,,old,1,0.925,,,,,,,,,,
null,,confidence_buffer,1283803,confidence_buffer,,null,,,,,,,,,,,,,,,,,,
null,,thebreak,1284305,break,,null,,,,,,,,,,,,,,,,,,
3533.7999999523163,,realistic_rating,1287841,Lake of the Ozarks,,53,Lake of the Ozarks,US,5,,,,,,,,,,,,,,,
null,,confidence_buffer,1287957,confidence_buffer,,null,,,,,,,,,,,,,,,,,,
1365.2999999523163,,pt2_unique_rating,1289324,Lake of the Ozarks,,53,,,5,,,,,,,,,,,,,,,
null,,confidence_buffer,1289440,confidence_buffer,,null,,,,,,,,,,,,,,,,,,
1430.7000000476837,,probe_rating,1290873,probe_rating,,52,,,,4,1,,,,,,,,,,,,,
null,,confidence_buffer,1290983,confidence_buffer,,null,,,,,,,,,,,,,,,,,,
1372.8999998569489,,pt2_memorable_rating,1292358,Lake of the Ozarks,,52,,,4,,,,,,,,,,,,,,,
null,,confidence_buffer,1292461,confidence_buffer,,null,,,,,,,,,,,,,,,,,,
2533.5999999046326,,recognition_phase,1294998,Lake of the Ozarks,,49,,,,,,old,1,0.926829268292683,,,,,,,,,,
null,,confidence_buffer,1295112,confidence_buffer,,null,,,,,,,,,,,,,,,,,,
null,,thebreak,1295618,break,,null,,,,,,,,,,,,,,,,,,
23610.5,,realistic_rating,1319231,Granton Ridge,,52,Granton Ridge,Fictional,4,,,,,,,,,,,,,,,
null,,confidence_buffer,1319343,confidence_buffer,,null,,,,,,,,,,,,,,,,,,
1332.7000000476837,,pt2_unique_rating,1320678,Granton Ridge,,52,,,4,,,,,,,,,,,,,,,
null,,confidence_buffer,1320792,confidence_buffer,,null,,,,,,,,,,,,,,,,,,
1827.0999999046326,,pt2_memorable_rating,1322621,Granton Ridge,,52,,,4,,,,,,,,,,,,,,,
null,,confidence_buffer,1322733,confidence_buffer,,null,,,,,,,,,,,,,,,,,,
3481.5,,recognition_phase,1326217,Granton Ridge,,52,,,,,,new,1,0.9285714285714286,,,,,,,,,,
null,,confidence_buffer,1326329,confidence_buffer,,null,,,,,,,,,,,,,,,,,,
null,,thebreak,1326841,break,,null,,,,,,,,,,,,,,,,,,
3262.0999999046326,,realistic_rating,1330106,Crestwood,,53,Crestwood,Fictional,5,,,,,,,,,,,,,,,
null,,confidence_buffer,1330218,confidence_buffer,,null,,,,,,,,,,,,,,,,,,
5387.5,,pt2_unique_rating,1335608,Crestwood,,51,,,3,,,,,,,,,,,,,,,
null,,confidence_buffer,1335722,confidence_buffer,,null,,,,,,,,,,,,,,,,,,
1635.7000000476837,,pt2_memorable_rating,1337360,Crestwood,,52,,,4,,,,,,,,,,,,,,,
null,,confidence_buffer,1337476,confidence_buffer,,null,,,,,,,,,,,,,,,,,,
10912.199999809265,,recognition_phase,1348391,Crestwood,,49,,,,,,old,0,0.9069767441860465,,,,,,,,,,
null,,confidence_buffer,1348494,confidence_buffer,,null,,,,,,,,,,,,,,,,,,
null,,thebreak,1348998,break,,null,,,,,,,,,,,,,,,,,,
6422.5,,realistic_rating,1355423,Cape May,,51,Cape May,US,3,,,,,,,,,,,,,,,
null,,confidence_buffer,1355530,confidence_buffer,,null,,,,,,,,,,,,,,,,,,
2013.5999999046326,,pt2_unique_rating,1357546,Cape May,,51,,,3,,,,,,,,,,,,,,,
null,,confidence_buffer,1357653,confidence_buffer,,null,,,,,,,,,,,,,,,,,,
2983,,pt2_memorable_rating,1360639,Cape May,,51,,,3,,,,,,,,,,,,,,,
null,,confidence_buffer,1360750,confidence_buffer,,null,,,,,,,,,,,,,,,,,,
2966.5999999046326,,recognition_phase,1363719,Cape May,,49,,,,,,old,1,0.9090909090909091,,,,,,,,,,
null,,confidence_buffer,1363833,confidence_buffer,,null,,,,,,,,,,,,,,,,,,
null,,thebreak,1364347,break,,null,,,,,,,,,,,,,,,,,,
2314.2999999523163,,realistic_rating,1366664,Racine,,53,Racine,US,5,,,,,,,,,,,,,,,
null,,confidence_buffer,1366782,confidence_buffer,,null,,,,,,,,,,,,,,,,,,
2072.5,,probe_rating,1368857,probe_rating,,50,,,,2,1,,,,,,,,,,,,,
null,,confidence_buffer,1368966,confidence_buffer,,null,,,,,,,,,,,,,,,,,,
2227.399999856949,,pt2_unique_rating,1371196,Racine,,52,,,4,,,,,,,,,,,,,,,
null,,confidence_buffer,1371301,confidence_buffer,,null,,,,,,,,,,,,,,,,,,
3849.399999856949,,pt2_memorable_rating,1375153,Racine,,53,,,5,,,,,,,,,,,,,,,
null,,confidence_buffer,1375259,confidence_buffer,,null,,,,,,,,,,,,,,,,,,
2593.7000000476837,,recognition_phase,1377855,Racine,,49,,,,,,old,1,0.9111111111111111,,,,,,,,,,
null,,confidence_buffer,1377965,confidence_buffer,,null,,,,,,,,,,,,,,,,,,
null,,thebreak,1378477,break,,null,,,,,,,,,,,,,,,,,,
5680.900000095367,,realistic_rating,1384159,Pine Hollow,,52,Pine Hollow,Fictional,4,,,,,,,,,,,,,,,
null,,confidence_buffer,1384268,confidence_buffer,,null,,,,,,,,,,,,,,,,,,
4304.800000190735,,pt2_unique_rating,1388576,Pine Hollow,,51,,,3,,,,,,,,,,,,,,,
null,,confidence_buffer,1388682,confidence_buffer,,null,,,,,,,,,,,,,,,,,,
2010,,pt2_memorable_rating,1390695,Pine Hollow,,51,,,3,,,,,,,,,,,,,,,
null,,confidence_buffer,1390811,confidence_buffer,,null,,,,,,,,,,,,,,,,,,
3128.100000143051,,probe_rating,1393942,probe_rating,,52,,,,4,1,,,,,,,,,,,,,
null,,confidence_buffer,1394052,confidence_buffer,,null,,,,,,,,,,,,,,,,,,
2084.600000143051,,recognition_phase,1396138,Pine Hollow,,49,,,,,,old,1,0.9130434782608695,,,,,,,,,,
null,,confidence_buffer,1396246,confidence_buffer,,null,,,,,,,,,,,,,,,,,,
null,,thebreak,1396757,break,,null,,,,,,,,,,,,,,,,,,
6228.799999952316,,realistic_rating,1402989,Orr,,52,Orr,US,4,,,,,,,,,,,,,,,
null,,confidence_buffer,1403096,confidence_buffer,,null,,,,,,,,,,,,,,,,,,
1131.1000001430511,,pt2_unique_rating,1404229,Orr,,52,,,4,,,,,,,,,,,,,,,
null,,confidence_buffer,1404348,confidence_buffer,,null,,,,,,,,,,,,,,,,,,
1613.5999999046326,,pt2_memorable_rating,1405964,Orr,,52,,,4,,,,,,,,,,,,,,,
null,,confidence_buffer,1406067,confidence_buffer,,null,,,,,,,,,,,,,,,,,,
1866,,recognition_phase,1407934,Orr,,49,,,,,,old,1,0.9148936170212766,,,,,,,,,,
null,,confidence_buffer,1408038,confidence_buffer,,null,,,,,,,,,,,,,,,,,,
null,,thebreak,1408545,break,,null,,,,,,,,,,,,,,,,,,
6999.400000095367,,realistic_rating,1415547,Highvale,,51,Highvale,Fictional,3,,,,,,,,,,,,,,,
null,,confidence_buffer,1415651,confidence_buffer,,null,,,,,,,,,,,,,,,,,,
1937.2000000476837,,pt2_unique_rating,1417591,Highvale,,51,,,3,,,,,,,,,,,,,,,
null,,confidence_buffer,1417699,confidence_buffer,,null,,,,,,,,,,,,,,,,,,
4317.699999809265,,pt2_memorable_rating,1422019,Highvale,,51,,,3,,,,,,,,,,,,,,,
null,,confidence_buffer,1422131,confidence_buffer,,null,,,,,,,,,,,,,,,,,,
2007.2000000476837,,recognition_phase,1424141,Highvale,,52,,,,,,new,1,0.9166666666666666,,,,,,,,,,
null,,confidence_buffer,1424257,confidence_buffer,,null,,,,,,,,,,,,,,,,,,
null,,thebreak,1424764,break,,null,,,,,,,,,,,,,,,,,,
2083,,realistic_rating,1426849,Boulder,,53,Boulder,US,5,,,,,,,,,,,,,,,
null,,confidence_buffer,1426962,confidence_buffer,,null,,,,,,,,,,,,,,,,,,
1715.2999999523163,,pt2_unique_rating,1428680,Boulder,,53,,,5,,,,,,,,,,,,,,,
null,,confidence_buffer,1428793,confidence_buffer,,null,,,,,,,,,,,,,,,,,,
1593.7000000476837,,pt2_memorable_rating,1430389,Boulder,,53,,,5,,,,,,,,,,,,,,,
null,,confidence_buffer,1430493,confidence_buffer,,null,,,,,,,,,,,,,,,,,,
7940.399999856949,,recognition_phase,1438436,Boulder,,52,,,,,,new,1,0.9183673469387755,,,,,,,,,,
null,,confidence_buffer,1438553,confidence_buffer,,null,,,,,,,,,,,,,,,,,,
null,,thebreak,1439057,break,,null,,,,,,,,,,,,,,,,,,
11475.200000047684,,realistic_rating,1450534,Ashford Hills,,52,Ashford Hills,Fictional,4,,,,,,,,,,,,,,,
null,,confidence_buffer,1450640,confidence_buffer,,null,,,,,,,,,,,,,,,,,,
6064.199999809265,,pt2_unique_rating,1456707,Ashford Hills,,52,,,4,,,,,,,,,,,,,,,
null,,confidence_buffer,1456824,confidence_buffer,,null,,,,,,,,,,,,,,,,,,
2814.5,,pt2_memorable_rating,1459640,Ashford Hills,,52,,,4,,,,,,,,,,,,,,,
null,,confidence_buffer,1459751,confidence_buffer,,null,,,,,,,,,,,,,,,,,,
2505.399999856949,,probe_rating,1462260,probe_rating,,51,,,,3,1,,,,,,,,,,,,,
null,,confidence_buffer,1462373,confidence_buffer,,null,,,,,,,,,,,,,,,,,,
1813.5,,recognition_phase,1464189,Ashford Hills,,49,,,,,,old,1,0.92,,,,,,,,,,
null,,confidence_buffer,1464295,confidence_buffer,,null,,,,,,,,,,,,,,,,,,
null,,thebreak,1464800,break,,null,,,,,,,,,,,,,,,,,,
6167.299999952316,,realistic_rating,1470969,Willowford,,52,Willowford,Fictional,4,,,,,,,,,,,,,,,
null,,confidence_buffer,1471077,confidence_buffer,,null,,,,,,,,,,,,,,,,,,
2095.2999999523163,,pt2_unique_rating,1473174,Willowford,,51,,,3,,,,,,,,,,,,,,,
null,,confidence_buffer,1473280,confidence_buffer,,null,,,,,,,,,,,,,,,,,,
2878.4000000953674,,pt2_memorable_rating,1476160,Willowford,,51,,,3,,,,,,,,,,,,,,,
null,,confidence_buffer,1476273,confidence_buffer,,null,,,,,,,,,,,,,,,,,,
2340.0999999046326,,recognition_phase,1478615,Willowford,,49,,,,,,old,1,0.9215686274509803,,,,,,,,,,
null,,confidence_buffer,1478726,confidence_buffer,,null,,,,,,,,,,,,,,,,,,
null,,thebreak,1479238,break,,null,,,,,,,,,,,,,,,,,,
9233.599999904633,,realistic_rating,1488474,Gardnerville,,52,Gardnerville,US,4,,,,,,,,,,,,,,,
null,,confidence_buffer,1488593,confidence_buffer,,null,,,,,,,,,,,,,,,,,,
3402.899999856949,,pt2_unique_rating,1491998,Gardnerville,,51,,,3,,,,,,,,,,,,,,,
null,,confidence_buffer,1492108,confidence_buffer,,null,,,,,,,,,,,,,,,,,,
2686.399999856949,,pt2_memorable_rating,1494797,Gardnerville,,52,,,4,,,,,,,,,,,,,,,
null,,confidence_buffer,1494907,confidence_buffer,,null,,,,,,,,,,,,,,,,,,
9412.299999952316,,recognition_phase,1504322,Gardnerville,,51,,,,,,new,1,0.9230769230769231,,,,,,,,,,
null,,confidence_buffer,1504427,confidence_buffer,,null,,,,,,,,,,,,,,,,,,
null,,thebreak,1504931,break,,null,,,,,,,,,,,,,,,,,,
2879.4000000953674,,realistic_rating,1507812,Cleveland,,53,Cleveland,US,5,,,,,,,,,,,,,,,
null,,confidence_buffer,1507926,confidence_buffer,,null,,,,,,,,,,,,,,,,,,
2680.2000000476837,,pt2_unique_rating,1510608,Cleveland,,53,,,5,,,,,,,,,,,,,,,
null,,confidence_buffer,1510723,confidence_buffer,,null,,,,,,,,,,,,,,,,,,
1173.5999999046326,,pt2_memorable_rating,1511899,Cleveland,,53,,,5,,,,,,,,,,,,,,,
null,,confidence_buffer,1512005,confidence_buffer,,null,,,,,,,,,,,,,,,,,,
17721.10000014305,,recognition_phase,1529729,Cleveland,,51,,,,,,new,1,0.9245283018867925,,,,,,,,,,
null,,confidence_buffer,1529839,confidence_buffer,,null,,,,,,,,,,,,,,,,,,
null,,thebreak,1530341,break,,null,,,,,,,,,,,,,,,,,,
11849.299999952316,,realistic_rating,1542193,Rosehollow,,52,Rosehollow,Fictional,4,,,,,,,,,,,,,,,
null,,confidence_buffer,1542309,confidence_buffer,,null,,,,,,,,,,,,,,,,,,
1582.0999999046326,,pt2_unique_rating,1543894,Rosehollow,,52,,,4,,,,,,,,,,,,,,,
null,,confidence_buffer,1544006,confidence_buffer,,null,,,,,,,,,,,,,,,,,,
1646.1000001430511,,pt2_memorable_rating,1545654,Rosehollow,,52,,,4,,,,,,,,,,,,,,,
null,,confidence_buffer,1545766,confidence_buffer,,null,,,,,,,,,,,,,,,,,,
2959.2000000476837,,recognition_phase,1548727,Rosehollow,,49,,,,,,old,1,0.9259259259259259,,,,,,,,,,
null,,confidence_buffer,1548841,confidence_buffer,,null,,,,,,,,,,,,,,,,,,
null,,thebreak,1549344,break,,null,,,,,,,,,,,,,,,,,,
3799,,realistic_rating,1553145,New Hope,,53,New Hope,US,5,,,,,,,,,,,,,,,
null,,confidence_buffer,1553263,confidence_buffer,,null,,,,,,,,,,,,,,,,,,
2114.600000143051,,pt2_unique_rating,1555380,New Hope,,53,,,5,,,,,,,,,,,,,,,
null,,confidence_buffer,1555486,confidence_buffer,,null,,,,,,,,,,,,,,,,,,
1585.7999999523163,,probe_rating,1557074,probe_rating,,52,,,,4,1,,,,,,,,,,,,,
null,,confidence_buffer,1557189,confidence_buffer,,null,,,,,,,,,,,,,,,,,,
2277.5,,pt2_memorable_rating,1559469,New Hope,,52,,,4,,,,,,,,,,,,,,,
null,,confidence_buffer,1559585,confidence_buffer,,null,,,,,,,,,,,,,,,,,,
5099.599999904633,,recognition_phase,1564687,New Hope,,52,,,,,,new,1,0.9272727272727272,,,,,,,,,,
null,,confidence_buffer,1564795,confidence_buffer,,null,,,,,,,,,,,,,,,,,,
null,,thebreak,1565301,break,,null,,,,,,,,,,,,,,,,,,
7209.400000095367,,realistic_rating,1572512,Linden Trace,,51,Linden Trace,Fictional,3,,,,,,,,,,,,,,,
null,,confidence_buffer,1572625,confidence_buffer,,null,,,,,,,,,,,,,,,,,,
2421.5,,pt2_unique_rating,1575049,Linden Trace,,52,,,4,,,,,,,,,,,,,,,
null,,confidence_buffer,1575154,confidence_buffer,,null,,,,,,,,,,,,,,,,,,
2827.7000000476837,,pt2_memorable_rating,1577984,Linden Trace,,52,,,4,,,,,,,,,,,,,,,
null,,confidence_buffer,1578088,confidence_buffer,,null,,,,,,,,,,,,,,,,,,
3918.199999809265,,recognition_phase,1582008,Linden Trace,,52,,,,,,new,1,0.9285714285714286,,,,,,,,,,
null,,confidence_buffer,1582127,confidence_buffer,,null,,,,,,,,,,,,,,,,,,
null,,thebreak,1582639,break,,null,,,,,,,,,,,,,,,,,,
5208.5,,realistic_rating,1587850,Sitka,,53,Sitka,US,5,,,,,,,,,,,,,,,
null,,confidence_buffer,1587962,confidence_buffer,,null,,,,,,,,,,,,,,,,,,
1618.5999999046326,,pt2_unique_rating,1589583,Sitka,,53,,,5,,,,,,,,,,,,,,,
null,,confidence_buffer,1589693,confidence_buffer,,null,,,,,,,,,,,,,,,,,,
3231.899999856949,,pt2_memorable_rating,1592927,Sitka,,53,,,5,,,,,,,,,,,,,,,
null,,confidence_buffer,1593036,confidence_buffer,,null,,,,,,,,,,,,,,,,,,
1668.4000000953674,,recognition_phase,1594707,Sitka,,49,,,,,,old,1,0.9298245614035088,,,,,,,,,,
null,,confidence_buffer,1594821,confidence_buffer,,null,,,,,,,,,,,,,,,,,,
null,,thebreak,1595329,break,,null,,,,,,,,,,,,,,,,,,
6055.700000047684,,realistic_rating,1601386,Gloucester,,53,Gloucester,US,5,,,,,,,,,,,,,,,
null,,confidence_buffer,1601502,confidence_buffer,,null,,,,,,,,,,,,,,,,,,
1506.1000001430511,,pt2_unique_rating,1603011,Gloucester,,53,,,5,,,,,,,,,,,,,,,
null,,confidence_buffer,1603121,confidence_buffer,,null,,,,,,,,,,,,,,,,,,
1317.7999999523163,,pt2_memorable_rating,1604441,Gloucester,,53,,,5,,,,,,,,,,,,,,,
null,,confidence_buffer,1604554,confidence_buffer,,null,,,,,,,,,,,,,,,,,,
1460,,recognition_phase,1606016,Gloucester,,49,,,,,,old,1,0.9310344827586207,,,,,,,,,,
null,,confidence_buffer,1606132,confidence_buffer,,null,,,,,,,,,,,,,,,,,,
null,,thebreak,1606650,break,,null,,,,,,,,,,,,,,,,,,
6843.399999856949,,realistic_rating,1613495,Elmsbury,,53,Elmsbury,Fictional,5,,,,,,,,,,,,,,,
null,,confidence_buffer,1613603,confidence_buffer,,null,,,,,,,,,,,,,,,,,,
6528.400000095367,,pt2_unique_rating,1620134,Elmsbury,,53,,,5,,,,,,,,,,,,,,,
null,,confidence_buffer,1620241,confidence_buffer,,null,,,,,,,,,,,,,,,,,,
2120.7000000476837,,pt2_memorable_rating,1622365,Elmsbury,,53,,,5,,,,,,,,,,,,,,,
null,,confidence_buffer,1622479,confidence_buffer,,null,,,,,,,,,,,,,,,,,,
1967.1000001430511,,recognition_phase,1624448,Elmsbury,,52,,,,,,new,1,0.9322033898305084,,,,,,,,,,
null,,confidence_buffer,1624561,confidence_buffer,,null,,,,,,,,,,,,,,,,,,
null,,thebreak,1625064,break,,null,,,,,,,,,,,,,,,,,,
4632.900000095367,,realistic_rating,1629699,Manistee,,52,Manistee,US,4,,,,,,,,,,,,,,,
null,,confidence_buffer,1629807,confidence_buffer,,null,,,,,,,,,,,,,,,,,,
1282.5,,pt2_unique_rating,1631092,Manistee,,52,,,4,,,,,,,,,,,,,,,
null,,confidence_buffer,1631197,confidence_buffer,,null,,,,,,,,,,,,,,,,,,
1405.7999999523163,,pt2_memorable_rating,1632605,Manistee,,52,,,4,,,,,,,,,,,,,,,
null,,confidence_buffer,1632713,confidence_buffer,,null,,,,,,,,,,,,,,,,,,
1523.5,,recognition_phase,1634240,Manistee,,49,,,,,,old,1,0.9333333333333333,,,,,,,,,,
null,,confidence_buffer,1634351,confidence_buffer,,null,,,,,,,,,,,,,,,,,,
null,,thebreak,1634862,break,,null,,,,,,,,,,,,,,,,,,
,,survey,2198664,survey-questions,,,,,,,,,,,none,high,No,No particular strategy,Well-known city names of course were highly rated.  Those I never heard of were the lowest.  If they seemed feasible, they would be somewhere in the middle.,Names that are unique or well-known to actually exist were highly rated.  Names that seemed more commonplace were rated lower.,Names which had special words or spelling were rated highly unique.  Sitka and Albuquerque seem unique to me.,Realistic names which are known city names were rated a 5, as highly realistic.  Those which seemed unlikely to exist were rated lower.  Some names that were likely to exist even if I never heard of them were in between.,No,Just about right!
