rt,responses,trial_type,time_elapsed,stimulus,button_pressed,key_press,name_trial,rating,probe,probe_accuracy,response,correct,accuracy,problems,smooth,distraction,strategies,familiar,memorable,unique,realistic,similar,comments
6242.29999999702,{worker_id:5df97abeabec5d6fcbbc764d},id_enter,6244,,,,,,,,,,,,,,,,,,,,
14981.199999988079,,fullscreen,21228,fullscreen,0,,,,,,,,,,,,,,,,,,
15290.5,,intro_0,36519,instruct,,32,,,,,,,,,,,,,,,,,
9129.39999999106,,intro_1,45650,instruct,,32,,,,,,,,,,,,,,,,,
8084.5,,intro_2,53735,instruct,,32,,,,,,,,,,,,,,,,,
null,,instruct_dir_4,55237,instruct,,null,,,,,,,,,,,,,,,,,
null,,thebreak,55738,break,,null,,,,,,,,,,,,,,,,,
16189.5,,familiar_rating,71929,Terre Haute,,51,Terre Haute,3,,,,,,,,,,,,,,,
null,,confidence_buffer,72031,confidence_buffer,,null,,,,,,,,,,,,,,,,,
19830.40000000596,,unique_rating,91862,Terre Haute,,53,,5,,,,,,,,,,,,,,,
null,,confidence_buffer,91964,confidence_buffer,,null,,,,,,,,,,,,,,,,,
6471.5999999940395,,memorable_rating,98436,Terre Haute,,50,,2,,,,,,,,,,,,,,,
null,,confidence_buffer,98538,confidence_buffer,,null,,,,,,,,,,,,,,,,,
null,,thebreak,99039,break,,null,,,,,,,,,,,,,,,,,
9480.39999999106,,familiar_rating,108520,Champaign,,51,Champaign,3,,,,,,,,,,,,,,,
null,,confidence_buffer,108622,confidence_buffer,,null,,,,,,,,,,,,,,,,,
6950.70000000298,,unique_rating,115574,Champaign,,52,,4,,,,,,,,,,,,,,,
null,,confidence_buffer,115675,confidence_buffer,,null,,,,,,,,,,,,,,,,,
6997.899999991059,,memorable_rating,122674,Champaign,,51,,3,,,,,,,,,,,,,,,
null,,confidence_buffer,122775,confidence_buffer,,null,,,,,,,,,,,,,,,,,
null,,thebreak,123276,break,,null,,,,,,,,,,,,,,,,,
8576.79999999702,,familiar_rating,131853,Fort Wayne,,50,Fort Wayne,2,,,,,,,,,,,,,,,
null,,confidence_buffer,131954,confidence_buffer,,null,,,,,,,,,,,,,,,,,
7369.9000000059605,,unique_rating,139325,Fort Wayne,,53,,5,,,,,,,,,,,,,,,
null,,confidence_buffer,139426,confidence_buffer,,null,,,,,,,,,,,,,,,,,
7031.100000008941,,memorable_rating,146458,Fort Wayne,,49,,1,,,,,,,,,,,,,,,
null,,confidence_buffer,146559,confidence_buffer,,null,,,,,,,,,,,,,,,,,
null,,thebreak,147060,break,,null,,,,,,,,,,,,,,,,,
9458.79999999702,,familiar_rating,156519,Tallahassee,,53,Tallahassee,5,,,,,,,,,,,,,,,
null,,confidence_buffer,156620,confidence_buffer,,null,,,,,,,,,,,,,,,,,
7240.20000000298,,unique_rating,163861,Tallahassee,,52,,4,,,,,,,,,,,,,,,
null,,confidence_buffer,163963,confidence_buffer,,null,,,,,,,,,,,,,,,,,
4328,,probe_rating,168292,probe_rating,,49,,,1,1,,,,,,,,,,,,,
null,,confidence_buffer,168394,confidence_buffer,,null,,,,,,,,,,,,,,,,,
8604.70000000298,,memorable_rating,177000,Tallahassee,,52,,4,,,,,,,,,,,,,,,
null,,confidence_buffer,177102,confidence_buffer,,null,,,,,,,,,,,,,,,,,
null,,thebreak,177603,break,,null,,,,,,,,,,,,,,,,,
8015,,familiar_rating,185619,Fargo,,52,Fargo,4,,,,,,,,,,,,,,,
null,,confidence_buffer,185721,confidence_buffer,,null,,,,,,,,,,,,,,,,,
7788.5,,unique_rating,193510,Fargo,,53,,5,,,,,,,,,,,,,,,
null,,confidence_buffer,193611,confidence_buffer,,null,,,,,,,,,,,,,,,,,
3113.5999999940395,,memorable_rating,196726,Fargo,,53,,5,,,,,,,,,,,,,,,
null,,confidence_buffer,196827,confidence_buffer,,null,,,,,,,,,,,,,,,,,
null,,thebreak,197329,break,,null,,,,,,,,,,,,,,,,,
6529.20000000298,,familiar_rating,203859,Burlington,,50,Burlington,2,,,,,,,,,,,,,,,
null,,confidence_buffer,203959,confidence_buffer,,null,,,,,,,,,,,,,,,,,
6633,,unique_rating,210593,Burlington,,52,,4,,,,,,,,,,,,,,,
null,,confidence_buffer,210694,confidence_buffer,,null,,,,,,,,,,,,,,,,,
6881.899999991059,,memorable_rating,217577,Burlington,,50,,2,,,,,,,,,,,,,,,
null,,confidence_buffer,217679,confidence_buffer,,null,,,,,,,,,,,,,,,,,
null,,thebreak,218180,break,,null,,,,,,,,,,,,,,,,,
7181.899999991059,,familiar_rating,225363,Ithaca,,50,Ithaca,2,,,,,,,,,,,,,,,
null,,confidence_buffer,225464,confidence_buffer,,null,,,,,,,,,,,,,,,,,
9673.5,,unique_rating,235138,Ithaca,,52,,4,,,,,,,,,,,,,,,
null,,confidence_buffer,235239,confidence_buffer,,null,,,,,,,,,,,,,,,,,
5765,,memorable_rating,241005,Ithaca,,50,,2,,,,,,,,,,,,,,,
null,,confidence_buffer,241106,confidence_buffer,,null,,,,,,,,,,,,,,,,,
null,,thebreak,241607,break,,null,,,,,,,,,,,,,,,,,
6271.29999999702,,familiar_rating,247879,Muncie,,50,Muncie,2,,,,,,,,,,,,,,,
null,,confidence_buffer,247981,confidence_buffer,,null,,,,,,,,,,,,,,,,,
5664.300000011921,,unique_rating,253646,Muncie,,52,,4,,,,,,,,,,,,,,,
null,,confidence_buffer,253747,confidence_buffer,,null,,,,,,,,,,,,,,,,,
5200.79999999702,,memorable_rating,258949,Muncie,,51,,3,,,,,,,,,,,,,,,
null,,confidence_buffer,259051,confidence_buffer,,null,,,,,,,,,,,,,,,,,
null,,thebreak,259551,break,,null,,,,,,,,,,,,,,,,,
8011,,familiar_rating,267563,Pueblo,,50,Pueblo,2,,,,,,,,,,,,,,,
null,,confidence_buffer,267665,confidence_buffer,,null,,,,,,,,,,,,,,,,,
3426.1000000089407,,unique_rating,271092,Pueblo,,51,,3,,,,,,,,,,,,,,,
null,,confidence_buffer,271198,confidence_buffer,,null,,,,,,,,,,,,,,,,,
2960.3999999910593,,memorable_rating,274159,Pueblo,,52,,4,,,,,,,,,,,,,,,
null,,confidence_buffer,274260,confidence_buffer,,null,,,,,,,,,,,,,,,,,
null,,thebreak,274761,break,,null,,,,,,,,,,,,,,,,,
6703.800000011921,,familiar_rating,281466,Altoona,,50,Altoona,2,,,,,,,,,,,,,,,
null,,confidence_buffer,281567,confidence_buffer,,null,,,,,,,,,,,,,,,,,
6009.899999991059,,unique_rating,287577,Altoona,,53,,5,,,,,,,,,,,,,,,
null,,confidence_buffer,287679,confidence_buffer,,null,,,,,,,,,,,,,,,,,
7090.5999999940395,,memorable_rating,294770,Altoona,,50,,2,,,,,,,,,,,,,,,
null,,confidence_buffer,294872,confidence_buffer,,null,,,,,,,,,,,,,,,,,
null,,thebreak,295374,break,,null,,,,,,,,,,,,,,,,,
4977.79999999702,,familiar_rating,300353,Bellingham,,49,Bellingham,1,,,,,,,,,,,,,,,
null,,confidence_buffer,300455,confidence_buffer,,null,,,,,,,,,,,,,,,,,
6113.29999999702,,probe_rating,306569,probe_rating,,52,,,4,1,,,,,,,,,,,,,
null,,confidence_buffer,306670,confidence_buffer,,null,,,,,,,,,,,,,,,,,
8690.70000000298,,unique_rating,315362,Bellingham,,52,,4,,,,,,,,,,,,,,,
null,,confidence_buffer,315464,confidence_buffer,,null,,,,,,,,,,,,,,,,,
5979.100000008941,,memorable_rating,321443,Bellingham,,50,,2,,,,,,,,,,,,,,,
null,,confidence_buffer,321545,confidence_buffer,,null,,,,,,,,,,,,,,,,,
null,,thebreak,322046,break,,null,,,,,,,,,,,,,,,,,
7915.600000008941,,familiar_rating,329963,Topeka,,52,Topeka,4,,,,,,,,,,,,,,,
null,,confidence_buffer,330065,confidence_buffer,,null,,,,,,,,,,,,,,,,,
3027.5999999940395,,unique_rating,333093,Topeka,,53,,5,,,,,,,,,,,,,,,
null,,confidence_buffer,333194,confidence_buffer,,null,,,,,,,,,,,,,,,,,
2390.3999999910593,,memorable_rating,335586,Topeka,,52,,4,,,,,,,,,,,,,,,
null,,confidence_buffer,335688,confidence_buffer,,null,,,,,,,,,,,,,,,,,
5884,,probe_rating,341573,probe_rating,,52,,,4,1,,,,,,,,,,,,,
null,,confidence_buffer,341674,confidence_buffer,,null,,,,,,,,,,,,,,,,,
null,,thebreak,342176,break,,null,,,,,,,,,,,,,,,,,
15228.70000000298,,familiar_rating,357405,Stamford,,51,Stamford,3,,,,,,,,,,,,,,,
null,,confidence_buffer,357512,confidence_buffer,,null,,,,,,,,,,,,,,,,,
5785.399999991059,,unique_rating,363298,Stamford,,52,,4,,,,,,,,,,,,,,,
null,,confidence_buffer,363400,confidence_buffer,,null,,,,,,,,,,,,,,,,,
3800.5999999940395,,memorable_rating,367201,Stamford,,50,,2,,,,,,,,,,,,,,,
null,,confidence_buffer,367314,confidence_buffer,,null,,,,,,,,,,,,,,,,,
null,,thebreak,367815,break,,null,,,,,,,,,,,,,,,,,
6818,,familiar_rating,374634,Marquette,,49,Marquette,1,,,,,,,,,,,,,,,
null,,confidence_buffer,374735,confidence_buffer,,null,,,,,,,,,,,,,,,,,
7266.29999999702,,unique_rating,382002,Marquette,,53,,5,,,,,,,,,,,,,,,
null,,confidence_buffer,382106,confidence_buffer,,null,,,,,,,,,,,,,,,,,
3818.0999999940395,,probe_rating,385925,probe_rating,,51,,,3,1,,,,,,,,,,,,,
null,,confidence_buffer,386026,confidence_buffer,,null,,,,,,,,,,,,,,,,,
8506.199999988079,,memorable_rating,394533,Marquette,,50,,2,,,,,,,,,,,,,,,
null,,confidence_buffer,394633,confidence_buffer,,null,,,,,,,,,,,,,,,,,
null,,thebreak,395135,break,,null,,,,,,,,,,,,,,,,,
10220,,familiar_rating,405355,Frankfort,,50,Frankfort,2,,,,,,,,,,,,,,,
null,,confidence_buffer,405458,confidence_buffer,,null,,,,,,,,,,,,,,,,,
4379.100000008941,,unique_rating,409838,Frankfort,,50,,2,,,,,,,,,,,,,,,
null,,confidence_buffer,409939,confidence_buffer,,null,,,,,,,,,,,,,,,,,
4348.79999999702,,memorable_rating,414289,Frankfort,,49,,1,,,,,,,,,,,,,,,
null,,confidence_buffer,414390,confidence_buffer,,null,,,,,,,,,,,,,,,,,
null,,thebreak,414891,break,,null,,,,,,,,,,,,,,,,,
7492.20000000298,,familiar_rating,422385,Gainesville,,50,Gainesville,2,,,,,,,,,,,,,,,
null,,confidence_buffer,422486,confidence_buffer,,null,,,,,,,,,,,,,,,,,
6522.600000008941,,unique_rating,429010,Gainesville,,52,,4,,,,,,,,,,,,,,,
null,,confidence_buffer,429112,confidence_buffer,,null,,,,,,,,,,,,,,,,,
6819.100000008941,,memorable_rating,435932,Gainesville,,50,,2,,,,,,,,,,,,,,,
null,,confidence_buffer,436047,confidence_buffer,,null,,,,,,,,,,,,,,,,,
null,,thebreak,436548,break,,null,,,,,,,,,,,,,,,,,
16672,,familiar_rating,453221,Pasadena,,53,Pasadena,5,,,,,,,,,,,,,,,
null,,confidence_buffer,453322,confidence_buffer,,null,,,,,,,,,,,,,,,,,
4409,,unique_rating,457732,Pasadena,,52,,4,,,,,,,,,,,,,,,
null,,confidence_buffer,457844,confidence_buffer,,null,,,,,,,,,,,,,,,,,
4288.4000000059605,,memorable_rating,462134,Pasadena,,53,,5,,,,,,,,,,,,,,,
null,,confidence_buffer,462235,confidence_buffer,,null,,,,,,,,,,,,,,,,,
null,,thebreak,462736,break,,null,,,,,,,,,,,,,,,,,
8693.90000000596,,familiar_rating,471431,Bozeman,,52,Bozeman,4,,,,,,,,,,,,,,,
null,,confidence_buffer,471536,confidence_buffer,,null,,,,,,,,,,,,,,,,,
2296.5,,unique_rating,473833,Bozeman,,53,,5,,,,,,,,,,,,,,,
null,,confidence_buffer,473934,confidence_buffer,,null,,,,,,,,,,,,,,,,,
4105.20000000298,,memorable_rating,478040,Bozeman,,51,,3,,,,,,,,,,,,,,,
null,,confidence_buffer,478142,confidence_buffer,,null,,,,,,,,,,,,,,,,,
3402.7000000029802,,probe_rating,481545,probe_rating,,51,,,3,1,,,,,,,,,,,,,
null,,confidence_buffer,481647,confidence_buffer,,null,,,,,,,,,,,,,,,,,
null,,thebreak,482148,break,,null,,,,,,,,,,,,,,,,,
7073.20000000298,,familiar_rating,489222,Montpelier,,50,Montpelier,2,,,,,,,,,,,,,,,
null,,confidence_buffer,489323,confidence_buffer,,null,,,,,,,,,,,,,,,,,
4957.5,,unique_rating,494282,Montpelier,,53,,5,,,,,,,,,,,,,,,
null,,confidence_buffer,494383,confidence_buffer,,null,,,,,,,,,,,,,,,,,
4095.2000000029802,,memorable_rating,498479,Montpelier,,49,,1,,,,,,,,,,,,,,,
null,,confidence_buffer,498580,confidence_buffer,,null,,,,,,,,,,,,,,,,,
null,,thebreak,499081,break,,null,,,,,,,,,,,,,,,,,
9591.90000000596,,familiar_rating,508674,Boise,,52,Boise,4,,,,,,,,,,,,,,,
null,,confidence_buffer,508775,confidence_buffer,,null,,,,,,,,,,,,,,,,,
4484.20000000298,,unique_rating,513260,Boise,,53,,5,,,,,,,,,,,,,,,
null,,confidence_buffer,513361,confidence_buffer,,null,,,,,,,,,,,,,,,,,
2863.4000000059605,,memorable_rating,516225,Boise,,51,,3,,,,,,,,,,,,,,,
null,,confidence_buffer,516327,confidence_buffer,,null,,,,,,,,,,,,,,,,,
null,,thebreak,516828,break,,null,,,,,,,,,,,,,,,,,
5837.5,,familiar_rating,522666,Helena,,51,Helena,3,,,,,,,,,,,,,,,
null,,confidence_buffer,522769,confidence_buffer,,null,,,,,,,,,,,,,,,,,
6158.4000000059605,,unique_rating,528928,Helena,,53,,5,,,,,,,,,,,,,,,
null,,confidence_buffer,529029,confidence_buffer,,null,,,,,,,,,,,,,,,,,
2574,,memorable_rating,531604,Helena,,51,,3,,,,,,,,,,,,,,,
null,,confidence_buffer,531705,confidence_buffer,,null,,,,,,,,,,,,,,,,,
null,,thebreak,532207,break,,null,,,,,,,,,,,,,,,,,
5174.9000000059605,,familiar_rating,537383,Rock Springs,,49,Rock Springs,1,,,,,,,,,,,,,,,
null,,confidence_buffer,537484,confidence_buffer,,null,,,,,,,,,,,,,,,,,
2799.9000000059605,,unique_rating,540285,Rock Springs,,50,,2,,,,,,,,,,,,,,,
null,,confidence_buffer,540387,confidence_buffer,,null,,,,,,,,,,,,,,,,,
6212.4000000059605,,memorable_rating,546600,Rock Springs,,53,,5,,,,,,,,,,,,,,,
null,,confidence_buffer,546702,confidence_buffer,,null,,,,,,,,,,,,,,,,,
null,,thebreak,547203,break,,null,,,,,,,,,,,,,,,,,
8892.79999999702,,familiar_rating,556097,Athens,,51,Athens,3,,,,,,,,,,,,,,,
null,,confidence_buffer,556197,confidence_buffer,,null,,,,,,,,,,,,,,,,,
4654.29999999702,,unique_rating,560852,Athens,,53,,5,,,,,,,,,,,,,,,
null,,confidence_buffer,560960,confidence_buffer,,null,,,,,,,,,,,,,,,,,
2628.9000000059605,,memorable_rating,563590,Athens,,53,,5,,,,,,,,,,,,,,,
null,,confidence_buffer,563691,confidence_buffer,,null,,,,,,,,,,,,,,,,,
null,,thebreak,564193,break,,null,,,,,,,,,,,,,,,,,
7666.5999999940395,,familiar_rating,571860,Dover,,52,Dover,4,,,,,,,,,,,,,,,
null,,confidence_buffer,571962,confidence_buffer,,null,,,,,,,,,,,,,,,,,
8261.29999999702,,unique_rating,580224,Dover,,53,,5,,,,,,,,,,,,,,,
null,,confidence_buffer,580325,confidence_buffer,,null,,,,,,,,,,,,,,,,,
2445.9000000059605,,memorable_rating,582772,Dover,,53,,5,,,,,,,,,,,,,,,
null,,confidence_buffer,582873,confidence_buffer,,null,,,,,,,,,,,,,,,,,
null,,thebreak,583374,break,,null,,,,,,,,,,,,,,,,,
5138.4000000059605,,familiar_rating,588514,Ann Arbor,,52,Ann Arbor,4,,,,,,,,,,,,,,,
null,,confidence_buffer,588615,confidence_buffer,,null,,,,,,,,,,,,,,,,,
3372.5,,probe_rating,591988,probe_rating,,52,,,4,1,,,,,,,,,,,,,
null,,confidence_buffer,592090,confidence_buffer,,null,,,,,,,,,,,,,,,,,
5296.399999991059,,unique_rating,597387,Ann Arbor,,52,,4,,,,,,,,,,,,,,,
null,,confidence_buffer,597489,confidence_buffer,,null,,,,,,,,,,,,,,,,,
5005.5,,memorable_rating,602495,Ann Arbor,,51,,3,,,,,,,,,,,,,,,
null,,confidence_buffer,602597,confidence_buffer,,null,,,,,,,,,,,,,,,,,
null,,thebreak,603098,break,,null,,,,,,,,,,,,,,,,,
5544,,intro_0,608643,instruct,,32,,,,,,,,,,,,,,,,,
10546.59999999404,,intro_1,619190,instruct,,32,,,,,,,,,,,,,,,,,
67737.90000000596,,intro_2,686928,instruct,,32,,,,,,,,,,,,,,,,,
null,,instruct_dir_4,688430,instruct,,null,,,,,,,,,,,,,,,,,
11915.10000000894,,realistic_rating,700346,Decatur,,53,Decatur,5,,,,,,,,,,,,,,,
null,,confidence_buffer,700447,confidence_buffer,,null,,,,,,,,,,,,,,,,,
2760.7999999970198,,pt2_unique_rating,703209,Decatur,,52,,4,,,,,,,,,,,,,,,
null,,confidence_buffer,703311,confidence_buffer,,null,,,,,,,,,,,,,,,,,
3576,,pt2_memorable_rating,706887,Decatur,,50,,2,,,,,,,,,,,,,,,
null,,confidence_buffer,706990,confidence_buffer,,null,,,,,,,,,,,,,,,,,
8890,,recognition_phase,715881,Decatur,,52,,,,,new,1,1,,,,,,,,,,
null,,confidence_buffer,715983,confidence_buffer,,null,,,,,,,,,,,,,,,,,
null,,thebreak,716484,break,,null,,,,,,,,,,,,,,,,,
6952.70000000298,,realistic_rating,723437,Abilene,,53,Abilene,5,,,,,,,,,,,,,,,
null,,confidence_buffer,723540,confidence_buffer,,null,,,,,,,,,,,,,,,,,
4557.79999999702,,pt2_unique_rating,728098,Abilene,,53,,5,,,,,,,,,,,,,,,
null,,confidence_buffer,728200,confidence_buffer,,null,,,,,,,,,,,,,,,,,
3776.5,,probe_rating,731977,probe_rating,,50,,,2,1,,,,,,,,,,,,,
null,,confidence_buffer,732079,confidence_buffer,,null,,,,,,,,,,,,,,,,,
6587.399999991059,,pt2_memorable_rating,738667,Abilene,,52,,4,,,,,,,,,,,,,,,
null,,confidence_buffer,738768,confidence_buffer,,null,,,,,,,,,,,,,,,,,
10131.59999999404,,recognition_phase,748900,Abilene,,52,,,,,new,1,1,,,,,,,,,,
null,,confidence_buffer,749005,confidence_buffer,,null,,,,,,,,,,,,,,,,,
null,,thebreak,749506,break,,null,,,,,,,,,,,,,,,,,
10644.09999999404,,realistic_rating,760151,Terre Haute,,53,Terre Haute,5,,,,,,,,,,,,,,,
null,,confidence_buffer,760262,confidence_buffer,,null,,,,,,,,,,,,,,,,,
2933.4000000059605,,pt2_unique_rating,763197,Terre Haute,,52,,4,,,,,,,,,,,,,,,
null,,confidence_buffer,763298,confidence_buffer,,null,,,,,,,,,,,,,,,,,
4907.5,,pt2_memorable_rating,768206,Terre Haute,,52,,4,,,,,,,,,,,,,,,
null,,confidence_buffer,768307,confidence_buffer,,null,,,,,,,,,,,,,,,,,
5935.399999991059,,recognition_phase,774243,Terre Haute,,49,,,,,old,1,1,,,,,,,,,,
null,,confidence_buffer,774345,confidence_buffer,,null,,,,,,,,,,,,,,,,,
null,,thebreak,774846,break,,null,,,,,,,,,,,,,,,,,
7930.70000000298,,realistic_rating,782777,Fort Collins,,53,Fort Collins,5,,,,,,,,,,,,,,,
null,,confidence_buffer,782878,confidence_buffer,,null,,,,,,,,,,,,,,,,,
5131.9000000059605,,pt2_unique_rating,788011,Fort Collins,,51,,3,,,,,,,,,,,,,,,
null,,confidence_buffer,788114,confidence_buffer,,null,,,,,,,,,,,,,,,,,
5400.5,,pt2_memorable_rating,793515,Fort Collins,,52,,4,,,,,,,,,,,,,,,
null,,confidence_buffer,793616,confidence_buffer,,null,,,,,,,,,,,,,,,,,
7792.4000000059605,,recognition_phase,801409,Fort Collins,,52,,,,,new,1,1,,,,,,,,,,
null,,confidence_buffer,801511,confidence_buffer,,null,,,,,,,,,,,,,,,,,
null,,thebreak,802012,break,,null,,,,,,,,,,,,,,,,,
7892,,realistic_rating,809905,Las Cruces,,53,Las Cruces,5,,,,,,,,,,,,,,,
null,,confidence_buffer,810006,confidence_buffer,,null,,,,,,,,,,,,,,,,,
4768.29999999702,,pt2_unique_rating,814775,Las Cruces,,52,,4,,,,,,,,,,,,,,,
null,,confidence_buffer,814876,confidence_buffer,,null,,,,,,,,,,,,,,,,,
4998.0999999940395,,pt2_memorable_rating,819875,Las Cruces,,50,,2,,,,,,,,,,,,,,,
null,,confidence_buffer,819977,confidence_buffer,,null,,,,,,,,,,,,,,,,,
12145.29999999702,,recognition_phase,832123,Las Cruces,,51,,,,,new,1,1,,,,,,,,,,
null,,confidence_buffer,832225,confidence_buffer,,null,,,,,,,,,,,,,,,,,
null,,thebreak,832726,break,,null,,,,,,,,,,,,,,,,,
4038.4000000059605,,realistic_rating,836766,Tallahassee,,53,Tallahassee,5,,,,,,,,,,,,,,,
null,,confidence_buffer,836867,confidence_buffer,,null,,,,,,,,,,,,,,,,,
2826.8999999910593,,pt2_unique_rating,839694,Tallahassee,,52,,4,,,,,,,,,,,,,,,
null,,confidence_buffer,839796,confidence_buffer,,null,,,,,,,,,,,,,,,,,
4209.4000000059605,,pt2_memorable_rating,844006,Tallahassee,,51,,3,,,,,,,,,,,,,,,
null,,confidence_buffer,844108,confidence_buffer,,null,,,,,,,,,,,,,,,,,
5909.699999988079,,recognition_phase,850019,Tallahassee,,49,,,,,old,1,1,,,,,,,,,,
null,,confidence_buffer,850121,confidence_buffer,,null,,,,,,,,,,,,,,,,,
null,,thebreak,850622,break,,null,,,,,,,,,,,,,,,,,
7525.899999991059,,realistic_rating,858148,Annapolis,,53,Annapolis,5,,,,,,,,,,,,,,,
null,,confidence_buffer,858250,confidence_buffer,,null,,,,,,,,,,,,,,,,,
4422.79999999702,,pt2_unique_rating,862674,Annapolis,,53,,5,,,,,,,,,,,,,,,
null,,confidence_buffer,862775,confidence_buffer,,null,,,,,,,,,,,,,,,,,
3391.7999999970198,,pt2_memorable_rating,866168,Annapolis,,50,,2,,,,,,,,,,,,,,,
null,,confidence_buffer,866270,confidence_buffer,,null,,,,,,,,,,,,,,,,,
11173.79999999702,,recognition_phase,877444,Annapolis,,52,,,,,new,1,1,,,,,,,,,,
null,,confidence_buffer,877545,confidence_buffer,,null,,,,,,,,,,,,,,,,,
null,,thebreak,878046,break,,null,,,,,,,,,,,,,,,,,
4884.79999999702,,realistic_rating,882932,Cheyenne,,53,Cheyenne,5,,,,,,,,,,,,,,,
null,,confidence_buffer,883033,confidence_buffer,,null,,,,,,,,,,,,,,,,,
5540.5999999940395,,pt2_unique_rating,888574,Cheyenne,,51,,3,,,,,,,,,,,,,,,
null,,confidence_buffer,888676,confidence_buffer,,null,,,,,,,,,,,,,,,,,
4139.5,,pt2_memorable_rating,892816,Cheyenne,,53,,5,,,,,,,,,,,,,,,
null,,confidence_buffer,892917,confidence_buffer,,null,,,,,,,,,,,,,,,,,
6737,,recognition_phase,899655,Cheyenne,,52,,,,,new,1,1,,,,,,,,,,
null,,confidence_buffer,899757,confidence_buffer,,null,,,,,,,,,,,,,,,,,
null,,thebreak,900258,break,,null,,,,,,,,,,,,,,,,,
11628.90000000596,,realistic_rating,911887,Pueblo,,53,Pueblo,5,,,,,,,,,,,,,,,
null,,confidence_buffer,911989,confidence_buffer,,null,,,,,,,,,,,,,,,,,
4025.1000000089407,,pt2_unique_rating,916015,Pueblo,,51,,3,,,,,,,,,,,,,,,
null,,confidence_buffer,916116,confidence_buffer,,null,,,,,,,,,,,,,,,,,
4244.4000000059605,,pt2_memorable_rating,920362,Pueblo,,51,,3,,,,,,,,,,,,,,,
null,,confidence_buffer,920474,confidence_buffer,,null,,,,,,,,,,,,,,,,,
6925.0999999940395,,recognition_phase,927399,Pueblo,,51,,,,,new,0,0.8888888888888888,,,,,,,,,,
null,,confidence_buffer,927502,confidence_buffer,,null,,,,,,,,,,,,,,,,,
null,,thebreak,928002,break,,null,,,,,,,,,,,,,,,,,
4675.199999988079,,realistic_rating,932678,Helena,,53,Helena,5,,,,,,,,,,,,,,,
null,,confidence_buffer,932780,confidence_buffer,,null,,,,,,,,,,,,,,,,,
3018.2000000029802,,pt2_unique_rating,935799,Helena,,52,,4,,,,,,,,,,,,,,,
null,,confidence_buffer,935900,confidence_buffer,,null,,,,,,,,,,,,,,,,,
3576.9000000059605,,pt2_memorable_rating,939478,Helena,,52,,4,,,,,,,,,,,,,,,
null,,confidence_buffer,939579,confidence_buffer,,null,,,,,,,,,,,,,,,,,
5166.600000008941,,recognition_phase,944746,Helena,,49,,,,,old,1,0.9,,,,,,,,,,
null,,confidence_buffer,944848,confidence_buffer,,null,,,,,,,,,,,,,,,,,
null,,thebreak,945349,break,,null,,,,,,,,,,,,,,,,,
5547.9000000059605,,realistic_rating,950897,Stamford,,53,Stamford,5,,,,,,,,,,,,,,,
null,,confidence_buffer,950999,confidence_buffer,,null,,,,,,,,,,,,,,,,,
3596.5,,pt2_unique_rating,954596,Stamford,,52,,4,,,,,,,,,,,,,,,
null,,confidence_buffer,954698,confidence_buffer,,null,,,,,,,,,,,,,,,,,
4947.5,,probe_rating,959646,probe_rating,,52,,,4,1,,,,,,,,,,,,,
null,,confidence_buffer,959747,confidence_buffer,,null,,,,,,,,,,,,,,,,,
6747.0999999940395,,pt2_memorable_rating,966495,Stamford,,51,,3,,,,,,,,,,,,,,,
null,,confidence_buffer,966596,confidence_buffer,,null,,,,,,,,,,,,,,,,,
4827.5999999940395,,recognition_phase,971425,Stamford,,49,,,,,old,1,0.9090909090909091,,,,,,,,,,
null,,confidence_buffer,971526,confidence_buffer,,null,,,,,,,,,,,,,,,,,
null,,thebreak,972027,break,,null,,,,,,,,,,,,,,,,,
8315.10000000894,,realistic_rating,980343,Youngstown,,53,Youngstown,5,,,,,,,,,,,,,,,
null,,confidence_buffer,980445,confidence_buffer,,null,,,,,,,,,,,,,,,,,
7464.0999999940395,,pt2_unique_rating,987910,Youngstown,,51,,3,,,,,,,,,,,,,,,
null,,confidence_buffer,988012,confidence_buffer,,null,,,,,,,,,,,,,,,,,
3660.7999999970198,,pt2_memorable_rating,991674,Youngstown,,49,,1,,,,,,,,,,,,,,,
null,,confidence_buffer,991776,confidence_buffer,,null,,,,,,,,,,,,,,,,,
4631.600000008941,,recognition_phase,996409,Youngstown,,52,,,,,new,1,0.9166666666666666,,,,,,,,,,
null,,confidence_buffer,996510,confidence_buffer,,null,,,,,,,,,,,,,,,,,
null,,thebreak,997011,break,,null,,,,,,,,,,,,,,,,,
9352.5,,realistic_rating,1006364,Rock Springs,,53,Rock Springs,5,,,,,,,,,,,,,,,
null,,confidence_buffer,1006465,confidence_buffer,,null,,,,,,,,,,,,,,,,,
5212,,pt2_unique_rating,1011678,Rock Springs,,50,,2,,,,,,,,,,,,,,,
null,,confidence_buffer,1011779,confidence_buffer,,null,,,,,,,,,,,,,,,,,
4683.100000008941,,pt2_memorable_rating,1016463,Rock Springs,,52,,4,,,,,,,,,,,,,,,
null,,confidence_buffer,1016564,confidence_buffer,,null,,,,,,,,,,,,,,,,,
6133.29999999702,,recognition_phase,1022698,Rock Springs,,50,,,,,old,1,0.9230769230769231,,,,,,,,,,
null,,confidence_buffer,1022799,confidence_buffer,,null,,,,,,,,,,,,,,,,,
null,,thebreak,1023301,break,,null,,,,,,,,,,,,,,,,,
6970,,realistic_rating,1030272,Santa Monica,,53,Santa Monica,5,,,,,,,,,,,,,,,
null,,confidence_buffer,1030374,confidence_buffer,,null,,,,,,,,,,,,,,,,,
6302.600000008941,,pt2_unique_rating,1036678,Santa Monica,,51,,3,,,,,,,,,,,,,,,
null,,confidence_buffer,1036779,confidence_buffer,,null,,,,,,,,,,,,,,,,,
4179.5999999940395,,probe_rating,1040960,probe_rating,,49,,,1,1,,,,,,,,,,,,,
null,,confidence_buffer,1041061,confidence_buffer,,null,,,,,,,,,,,,,,,,,
4538.5,,pt2_memorable_rating,1045600,Santa Monica,,51,,3,,,,,,,,,,,,,,,
null,,confidence_buffer,1045702,confidence_buffer,,null,,,,,,,,,,,,,,,,,
8328.59999999404,,recognition_phase,1054032,Santa Monica,,52,,,,,new,1,0.9285714285714286,,,,,,,,,,
null,,confidence_buffer,1054145,confidence_buffer,,null,,,,,,,,,,,,,,,,,
null,,thebreak,1054645,break,,null,,,,,,,,,,,,,,,,,
4618.9000000059605,,realistic_rating,1059265,Dover,,53,Dover,5,,,,,,,,,,,,,,,
null,,confidence_buffer,1059366,confidence_buffer,,null,,,,,,,,,,,,,,,,,
2794.699999988079,,pt2_unique_rating,1062162,Dover,,52,,4,,,,,,,,,,,,,,,
null,,confidence_buffer,1062263,confidence_buffer,,null,,,,,,,,,,,,,,,,,
2749.5,,probe_rating,1065014,probe_rating,,52,,,4,1,,,,,,,,,,,,,
null,,confidence_buffer,1065115,confidence_buffer,,null,,,,,,,,,,,,,,,,,
3620.7000000029802,,pt2_memorable_rating,1068737,Dover,,53,,5,,,,,,,,,,,,,,,
null,,confidence_buffer,1068838,confidence_buffer,,null,,,,,,,,,,,,,,,,,
4140.20000000298,,recognition_phase,1072979,Dover,,49,,,,,old,1,0.9333333333333333,,,,,,,,,,
null,,confidence_buffer,1073080,confidence_buffer,,null,,,,,,,,,,,,,,,,,
null,,thebreak,1073581,break,,null,,,,,,,,,,,,,,,,,
6370.5999999940395,,realistic_rating,1079953,Altoona,,53,Altoona,5,,,,,,,,,,,,,,,
null,,confidence_buffer,1080055,confidence_buffer,,null,,,,,,,,,,,,,,,,,
3126.9000000059605,,pt2_unique_rating,1083183,Altoona,,53,,5,,,,,,,,,,,,,,,
null,,confidence_buffer,1083284,confidence_buffer,,null,,,,,,,,,,,,,,,,,
5181.4000000059605,,probe_rating,1088466,probe_rating,,51,,,3,1,,,,,,,,,,,,,
null,,confidence_buffer,1088568,confidence_buffer,,null,,,,,,,,,,,,,,,,,
3715.9000000059605,,pt2_memorable_rating,1092284,Altoona,,50,,2,,,,,,,,,,,,,,,
null,,confidence_buffer,1092386,confidence_buffer,,null,,,,,,,,,,,,,,,,,
10863.39999999106,,recognition_phase,1103250,Altoona,,51,,,,,new,0,0.875,,,,,,,,,,
null,,confidence_buffer,1103352,confidence_buffer,,null,,,,,,,,,,,,,,,,,
null,,thebreak,1103854,break,,null,,,,,,,,,,,,,,,,,
6050,,realistic_rating,1109905,Bozeman,,53,Bozeman,5,,,,,,,,,,,,,,,
null,,confidence_buffer,1110007,confidence_buffer,,null,,,,,,,,,,,,,,,,,
5474.5999999940395,,pt2_unique_rating,1115483,Bozeman,,52,,4,,,,,,,,,,,,,,,
null,,confidence_buffer,1115584,confidence_buffer,,null,,,,,,,,,,,,,,,,,
6327.899999991059,,pt2_memorable_rating,1121913,Bozeman,,52,,4,,,,,,,,,,,,,,,
null,,confidence_buffer,1122015,confidence_buffer,,null,,,,,,,,,,,,,,,,,
4283.79999999702,,probe_rating,1126299,probe_rating,,50,,,2,1,,,,,,,,,,,,,
null,,confidence_buffer,1126400,confidence_buffer,,null,,,,,,,,,,,,,,,,,
3827.0999999940395,,recognition_phase,1130228,Bozeman,,49,,,,,old,1,0.8823529411764706,,,,,,,,,,
null,,confidence_buffer,1130330,confidence_buffer,,null,,,,,,,,,,,,,,,,,
null,,thebreak,1130831,break,,null,,,,,,,,,,,,,,,,,
5861.5999999940395,,realistic_rating,1136693,Scottsdale,,53,Scottsdale,5,,,,,,,,,,,,,,,
null,,confidence_buffer,1136795,confidence_buffer,,null,,,,,,,,,,,,,,,,,
4467.79999999702,,pt2_unique_rating,1141263,Scottsdale,,51,,3,,,,,,,,,,,,,,,
null,,confidence_buffer,1141364,confidence_buffer,,null,,,,,,,,,,,,,,,,,
3986.5,,pt2_memorable_rating,1145351,Scottsdale,,52,,4,,,,,,,,,,,,,,,
null,,confidence_buffer,1145460,confidence_buffer,,null,,,,,,,,,,,,,,,,,
6209.0999999940395,,recognition_phase,1151670,Scottsdale,,52,,,,,new,1,0.8888888888888888,,,,,,,,,,
null,,confidence_buffer,1151771,confidence_buffer,,null,,,,,,,,,,,,,,,,,
null,,thebreak,1152272,break,,null,,,,,,,,,,,,,,,,,
5029.5999999940395,,realistic_rating,1157303,Palo Alto,,53,Palo Alto,5,,,,,,,,,,,,,,,
null,,confidence_buffer,1157407,confidence_buffer,,null,,,,,,,,,,,,,,,,,
3952.5,,pt2_unique_rating,1161360,Palo Alto,,51,,3,,,,,,,,,,,,,,,
null,,confidence_buffer,1161462,confidence_buffer,,null,,,,,,,,,,,,,,,,,
3915.2999999970198,,probe_rating,1165378,probe_rating,,49,,,1,1,,,,,,,,,,,,,
null,,confidence_buffer,1165479,confidence_buffer,,null,,,,,,,,,,,,,,,,,
3222.6000000089407,,pt2_memorable_rating,1168702,Palo Alto,,50,,2,,,,,,,,,,,,,,,
null,,confidence_buffer,1168804,confidence_buffer,,null,,,,,,,,,,,,,,,,,
7315.300000011921,,recognition_phase,1176120,Palo Alto,,51,,,,,new,1,0.8947368421052632,,,,,,,,,,
null,,confidence_buffer,1176222,confidence_buffer,,null,,,,,,,,,,,,,,,,,
null,,thebreak,1176724,break,,null,,,,,,,,,,,,,,,,,
6487.5,,realistic_rating,1183213,Boulder,,53,Boulder,5,,,,,,,,,,,,,,,
null,,confidence_buffer,1183315,confidence_buffer,,null,,,,,,,,,,,,,,,,,
3686.2999999970198,,pt2_unique_rating,1187002,Boulder,,51,,3,,,,,,,,,,,,,,,
null,,confidence_buffer,1187103,confidence_buffer,,null,,,,,,,,,,,,,,,,,
3161.9000000059605,,pt2_memorable_rating,1190266,Boulder,,52,,4,,,,,,,,,,,,,,,
null,,confidence_buffer,1190368,confidence_buffer,,null,,,,,,,,,,,,,,,,,
5496.4000000059605,,recognition_phase,1195865,Boulder,,52,,,,,new,1,0.9,,,,,,,,,,
null,,confidence_buffer,1195966,confidence_buffer,,null,,,,,,,,,,,,,,,,,
null,,thebreak,1196468,break,,null,,,,,,,,,,,,,,,,,
7671.70000000298,,realistic_rating,1204140,Yakima,,53,Yakima,5,,,,,,,,,,,,,,,
null,,confidence_buffer,1204242,confidence_buffer,,null,,,,,,,,,,,,,,,,,
3456.0999999940395,,pt2_unique_rating,1207699,Yakima,,53,,5,,,,,,,,,,,,,,,
null,,confidence_buffer,1207800,confidence_buffer,,null,,,,,,,,,,,,,,,,,
4051.0999999940395,,pt2_memorable_rating,1211852,Yakima,,51,,3,,,,,,,,,,,,,,,
null,,confidence_buffer,1211966,confidence_buffer,,null,,,,,,,,,,,,,,,,,
5278.0999999940395,,recognition_phase,1217245,Yakima,,51,,,,,new,1,0.9047619047619048,,,,,,,,,,
null,,confidence_buffer,1217347,confidence_buffer,,null,,,,,,,,,,,,,,,,,
null,,thebreak,1217848,break,,null,,,,,,,,,,,,,,,,,
5309.100000008941,,realistic_rating,1223158,Muncie,,53,Muncie,5,,,,,,,,,,,,,,,
null,,confidence_buffer,1223260,confidence_buffer,,null,,,,,,,,,,,,,,,,,
2714,,probe_rating,1225974,probe_rating,,50,,,2,1,,,,,,,,,,,,,
null,,confidence_buffer,1226075,confidence_buffer,,null,,,,,,,,,,,,,,,,,
6045.800000011921,,pt2_unique_rating,1232122,Muncie,,51,,3,,,,,,,,,,,,,,,
null,,confidence_buffer,1232224,confidence_buffer,,null,,,,,,,,,,,,,,,,,
3833.8999999910593,,pt2_memorable_rating,1236059,Muncie,,50,,2,,,,,,,,,,,,,,,
null,,confidence_buffer,1236161,confidence_buffer,,null,,,,,,,,,,,,,,,,,
5466.5999999940395,,recognition_phase,1241628,Muncie,,51,,,,,new,0,0.8636363636363636,,,,,,,,,,
null,,confidence_buffer,1241729,confidence_buffer,,null,,,,,,,,,,,,,,,,,
null,,thebreak,1242231,break,,null,,,,,,,,,,,,,,,,,
4595.4000000059605,,realistic_rating,1246827,Boise,,53,Boise,5,,,,,,,,,,,,,,,
null,,confidence_buffer,1246928,confidence_buffer,,null,,,,,,,,,,,,,,,,,
4637.4000000059605,,pt2_unique_rating,1251566,Boise,,52,,4,,,,,,,,,,,,,,,
null,,confidence_buffer,1251668,confidence_buffer,,null,,,,,,,,,,,,,,,,,
3527.5999999940395,,pt2_memorable_rating,1255197,Boise,,51,,3,,,,,,,,,,,,,,,
null,,confidence_buffer,1255298,confidence_buffer,,null,,,,,,,,,,,,,,,,,
4878.5,,recognition_phase,1260177,Boise,,49,,,,,old,1,0.8695652173913043,,,,,,,,,,
null,,confidence_buffer,1260279,confidence_buffer,,null,,,,,,,,,,,,,,,,,
null,,thebreak,1260780,break,,null,,,,,,,,,,,,,,,,,
6200.800000011921,,realistic_rating,1266982,Topeka,,53,Topeka,5,,,,,,,,,,,,,,,
null,,confidence_buffer,1267085,confidence_buffer,,null,,,,,,,,,,,,,,,,,
2957.7000000029802,,pt2_unique_rating,1270043,Topeka,,52,,4,,,,,,,,,,,,,,,
null,,confidence_buffer,1270145,confidence_buffer,,null,,,,,,,,,,,,,,,,,
2369.6000000089407,,pt2_memorable_rating,1272515,Topeka,,52,,4,,,,,,,,,,,,,,,
null,,confidence_buffer,1272616,confidence_buffer,,null,,,,,,,,,,,,,,,,,
3448,,recognition_phase,1276065,Topeka,,49,,,,,old,1,0.875,,,,,,,,,,
null,,confidence_buffer,1276166,confidence_buffer,,null,,,,,,,,,,,,,,,,,
null,,thebreak,1276668,break,,null,,,,,,,,,,,,,,,,,
4730.199999988079,,realistic_rating,1281399,Fargo,,53,Fargo,5,,,,,,,,,,,,,,,
null,,confidence_buffer,1281501,confidence_buffer,,null,,,,,,,,,,,,,,,,,
12071.09999999404,,pt2_unique_rating,1293573,Fargo,,52,,4,,,,,,,,,,,,,,,
null,,confidence_buffer,1293675,confidence_buffer,,null,,,,,,,,,,,,,,,,,
2778.7999999970198,,probe_rating,1296454,probe_rating,,49,,,1,1,,,,,,,,,,,,,
null,,confidence_buffer,1296555,confidence_buffer,,null,,,,,,,,,,,,,,,,,
5959.5999999940395,,pt2_memorable_rating,1302516,Fargo,,51,,3,,,,,,,,,,,,,,,
null,,confidence_buffer,1302617,confidence_buffer,,null,,,,,,,,,,,,,,,,,
4105.300000011921,,recognition_phase,1306723,Fargo,,49,,,,,old,1,0.88,,,,,,,,,,
null,,confidence_buffer,1306825,confidence_buffer,,null,,,,,,,,,,,,,,,,,
null,,thebreak,1307327,break,,null,,,,,,,,,,,,,,,,,
6424.29999999702,,realistic_rating,1313752,Marquette,,53,Marquette,5,,,,,,,,,,,,,,,
null,,confidence_buffer,1313857,confidence_buffer,,null,,,,,,,,,,,,,,,,,
2876.2000000029802,,probe_rating,1316734,probe_rating,,51,,,3,1,,,,,,,,,,,,,
null,,confidence_buffer,1316836,confidence_buffer,,null,,,,,,,,,,,,,,,,,
2947.7000000029802,,pt2_unique_rating,1319784,Marquette,,52,,4,,,,,,,,,,,,,,,
null,,confidence_buffer,1319885,confidence_buffer,,null,,,,,,,,,,,,,,,,,
4434.0999999940395,,pt2_memorable_rating,1324320,Marquette,,49,,1,,,,,,,,,,,,,,,
null,,confidence_buffer,1324421,confidence_buffer,,null,,,,,,,,,,,,,,,,,
7545.100000008941,,recognition_phase,1331967,Marquette,,50,,,,,old,1,0.8846153846153846,,,,,,,,,,
null,,confidence_buffer,1332068,confidence_buffer,,null,,,,,,,,,,,,,,,,,
null,,thebreak,1332569,break,,null,,,,,,,,,,,,,,,,,
4472.5,,realistic_rating,1337042,Athens,,53,Athens,5,,,,,,,,,,,,,,,
null,,confidence_buffer,1337155,confidence_buffer,,null,,,,,,,,,,,,,,,,,
3320.1000000089407,,pt2_unique_rating,1340476,Athens,,52,,4,,,,,,,,,,,,,,,
null,,confidence_buffer,1340578,confidence_buffer,,null,,,,,,,,,,,,,,,,,
2140.699999988079,,pt2_memorable_rating,1342719,Athens,,53,,5,,,,,,,,,,,,,,,
null,,confidence_buffer,1342821,confidence_buffer,,null,,,,,,,,,,,,,,,,,
4803.29999999702,,recognition_phase,1347625,Athens,,49,,,,,old,1,0.8888888888888888,,,,,,,,,,
null,,confidence_buffer,1347726,confidence_buffer,,null,,,,,,,,,,,,,,,,,
null,,thebreak,1348227,break,,null,,,,,,,,,,,,,,,,,
5767.600000008941,,realistic_rating,1353995,Bellingham,,53,Bellingham,5,,,,,,,,,,,,,,,
null,,confidence_buffer,1354097,confidence_buffer,,null,,,,,,,,,,,,,,,,,
3108.0999999940395,,pt2_unique_rating,1357206,Bellingham,,51,,3,,,,,,,,,,,,,,,
null,,confidence_buffer,1357307,confidence_buffer,,null,,,,,,,,,,,,,,,,,
4459.800000011921,,pt2_memorable_rating,1361768,Bellingham,,50,,2,,,,,,,,,,,,,,,
null,,confidence_buffer,1361869,confidence_buffer,,null,,,,,,,,,,,,,,,,,
4483.5,,recognition_phase,1366353,Bellingham,,50,,,,,old,1,0.8928571428571429,,,,,,,,,,
null,,confidence_buffer,1366455,confidence_buffer,,null,,,,,,,,,,,,,,,,,
null,,thebreak,1366956,break,,null,,,,,,,,,,,,,,,,,
8374.10000000894,,realistic_rating,1375330,Newport News,,52,Newport News,4,,,,,,,,,,,,,,,
null,,confidence_buffer,1375432,confidence_buffer,,null,,,,,,,,,,,,,,,,,
4017.7999999970198,,pt2_unique_rating,1379451,Newport News,,53,,5,,,,,,,,,,,,,,,
null,,confidence_buffer,1379552,confidence_buffer,,null,,,,,,,,,,,,,,,,,
6295.899999991059,,pt2_memorable_rating,1385849,Newport News,,50,,2,,,,,,,,,,,,,,,
null,,confidence_buffer,1385950,confidence_buffer,,null,,,,,,,,,,,,,,,,,
5462.20000000298,,recognition_phase,1391413,Newport News,,52,,,,,new,1,0.896551724137931,,,,,,,,,,
null,,confidence_buffer,1391514,confidence_buffer,,null,,,,,,,,,,,,,,,,,
null,,thebreak,1392015,break,,null,,,,,,,,,,,,,,,,,
5118.600000008941,,realistic_rating,1397135,Gainesville,,53,Gainesville,5,,,,,,,,,,,,,,,
null,,confidence_buffer,1397236,confidence_buffer,,null,,,,,,,,,,,,,,,,,
2122.3999999910593,,pt2_unique_rating,1399359,Gainesville,,52,,4,,,,,,,,,,,,,,,
null,,confidence_buffer,1399460,confidence_buffer,,null,,,,,,,,,,,,,,,,,
3163.9000000059605,,pt2_memorable_rating,1402625,Gainesville,,49,,1,,,,,,,,,,,,,,,
null,,confidence_buffer,1402726,confidence_buffer,,null,,,,,,,,,,,,,,,,,
7724,,recognition_phase,1410451,Gainesville,,51,,,,,new,0,0.8666666666666667,,,,,,,,,,
null,,confidence_buffer,1410552,confidence_buffer,,null,,,,,,,,,,,,,,,,,
null,,thebreak,1411053,break,,null,,,,,,,,,,,,,,,,,
6730.70000000298,,realistic_rating,1417784,Dothan,,53,Dothan,5,,,,,,,,,,,,,,,
null,,confidence_buffer,1417886,confidence_buffer,,null,,,,,,,,,,,,,,,,,
3216.9000000059605,,pt2_unique_rating,1421103,Dothan,,52,,4,,,,,,,,,,,,,,,
null,,confidence_buffer,1421205,confidence_buffer,,null,,,,,,,,,,,,,,,,,
4509.0999999940395,,pt2_memorable_rating,1425715,Dothan,,53,,5,,,,,,,,,,,,,,,
null,,confidence_buffer,1425816,confidence_buffer,,null,,,,,,,,,,,,,,,,,
6358.70000000298,,recognition_phase,1432175,Dothan,,51,,,,,new,1,0.8709677419354839,,,,,,,,,,
null,,confidence_buffer,1432277,confidence_buffer,,null,,,,,,,,,,,,,,,,,
null,,thebreak,1432778,break,,null,,,,,,,,,,,,,,,,,
5283.70000000298,,realistic_rating,1438062,Burlington,,53,Burlington,5,,,,,,,,,,,,,,,
null,,confidence_buffer,1438164,confidence_buffer,,null,,,,,,,,,,,,,,,,,
3317.2000000029802,,pt2_unique_rating,1441482,Burlington,,51,,3,,,,,,,,,,,,,,,
null,,confidence_buffer,1441591,confidence_buffer,,null,,,,,,,,,,,,,,,,,
4598.5,,pt2_memorable_rating,1446190,Burlington,,51,,3,,,,,,,,,,,,,,,
null,,confidence_buffer,1446292,confidence_buffer,,null,,,,,,,,,,,,,,,,,
11069.29999999702,,recognition_phase,1457362,Burlington,,50,,,,,old,1,0.875,,,,,,,,,,
null,,confidence_buffer,1457464,confidence_buffer,,null,,,,,,,,,,,,,,,,,
null,,thebreak,1457965,break,,null,,,,,,,,,,,,,,,,,
3438.5,,realistic_rating,1461404,Peoria,,53,Peoria,5,,,,,,,,,,,,,,,
null,,confidence_buffer,1461505,confidence_buffer,,null,,,,,,,,,,,,,,,,,
3243.0999999940395,,pt2_unique_rating,1464749,Peoria,,53,,5,,,,,,,,,,,,,,,
null,,confidence_buffer,1464851,confidence_buffer,,null,,,,,,,,,,,,,,,,,
3656.7000000029802,,pt2_memorable_rating,1468508,Peoria,,52,,4,,,,,,,,,,,,,,,
null,,confidence_buffer,1468610,confidence_buffer,,null,,,,,,,,,,,,,,,,,
5495.9000000059605,,recognition_phase,1474107,Peoria,,51,,,,,new,1,0.8787878787878788,,,,,,,,,,
null,,confidence_buffer,1474208,confidence_buffer,,null,,,,,,,,,,,,,,,,,
null,,thebreak,1474709,break,,null,,,,,,,,,,,,,,,,,
3793.7000000029802,,realistic_rating,1478503,Reno,,53,Reno,5,,,,,,,,,,,,,,,
null,,confidence_buffer,1478604,confidence_buffer,,null,,,,,,,,,,,,,,,,,
3378.0999999940395,,pt2_unique_rating,1481983,Reno,,52,,4,,,,,,,,,,,,,,,
null,,confidence_buffer,1482085,confidence_buffer,,null,,,,,,,,,,,,,,,,,
4253.5999999940395,,pt2_memorable_rating,1486339,Reno,,53,,5,,,,,,,,,,,,,,,
null,,confidence_buffer,1486441,confidence_buffer,,null,,,,,,,,,,,,,,,,,
3815.3999999910593,,probe_rating,1490258,probe_rating,,52,,,4,1,,,,,,,,,,,,,
null,,confidence_buffer,1490359,confidence_buffer,,null,,,,,,,,,,,,,,,,,
4409.899999991059,,recognition_phase,1494770,Reno,,51,,,,,new,1,0.8823529411764706,,,,,,,,,,
null,,confidence_buffer,1494871,confidence_buffer,,null,,,,,,,,,,,,,,,,,
null,,thebreak,1495373,break,,null,,,,,,,,,,,,,,,,,
6006.29999999702,,realistic_rating,1501380,Ithaca,,53,Ithaca,5,,,,,,,,,,,,,,,
null,,confidence_buffer,1501482,confidence_buffer,,null,,,,,,,,,,,,,,,,,
2130.7000000029802,,pt2_unique_rating,1503613,Ithaca,,52,,4,,,,,,,,,,,,,,,
null,,confidence_buffer,1503715,confidence_buffer,,null,,,,,,,,,,,,,,,,,
3382.5,,pt2_memorable_rating,1507099,Ithaca,,53,,5,,,,,,,,,,,,,,,
null,,confidence_buffer,1507200,confidence_buffer,,null,,,,,,,,,,,,,,,,,
5789.0999999940395,,recognition_phase,1512990,Ithaca,,50,,,,,old,1,0.8857142857142857,,,,,,,,,,
null,,confidence_buffer,1513091,confidence_buffer,,null,,,,,,,,,,,,,,,,,
null,,thebreak,1513593,break,,null,,,,,,,,,,,,,,,,,
3992.2000000029802,,realistic_rating,1517585,Frankfort,,53,Frankfort,5,,,,,,,,,,,,,,,
null,,confidence_buffer,1517687,confidence_buffer,,null,,,,,,,,,,,,,,,,,
4280.20000000298,,pt2_unique_rating,1521968,Frankfort,,50,,2,,,,,,,,,,,,,,,
null,,confidence_buffer,1522069,confidence_buffer,,null,,,,,,,,,,,,,,,,,
4882.9000000059605,,pt2_memorable_rating,1526953,Frankfort,,50,,2,,,,,,,,,,,,,,,
null,,confidence_buffer,1527054,confidence_buffer,,null,,,,,,,,,,,,,,,,,
4439.5,,recognition_phase,1531494,Frankfort,,50,,,,,old,1,0.8888888888888888,,,,,,,,,,
null,,confidence_buffer,1531596,confidence_buffer,,null,,,,,,,,,,,,,,,,,
null,,thebreak,1532098,break,,null,,,,,,,,,,,,,,,,,
6449.5,,realistic_rating,1538548,Montpelier,,53,Montpelier,5,,,,,,,,,,,,,,,
null,,confidence_buffer,1538650,confidence_buffer,,null,,,,,,,,,,,,,,,,,
2609,,pt2_unique_rating,1541259,Montpelier,,52,,4,,,,,,,,,,,,,,,
null,,confidence_buffer,1541360,confidence_buffer,,null,,,,,,,,,,,,,,,,,
3213.5,,pt2_memorable_rating,1544575,Montpelier,,50,,2,,,,,,,,,,,,,,,
null,,confidence_buffer,1544676,confidence_buffer,,null,,,,,,,,,,,,,,,,,
7415,,recognition_phase,1552092,Montpelier,,50,,,,,old,1,0.8918918918918919,,,,,,,,,,
null,,confidence_buffer,1552194,confidence_buffer,,null,,,,,,,,,,,,,,,,,
null,,thebreak,1552695,break,,null,,,,,,,,,,,,,,,,,
9378.5,,realistic_rating,1562074,Hagerstown,,52,Hagerstown,4,,,,,,,,,,,,,,,
null,,confidence_buffer,1562176,confidence_buffer,,null,,,,,,,,,,,,,,,,,
4789.899999991059,,pt2_unique_rating,1566967,Hagerstown,,53,,5,,,,,,,,,,,,,,,
null,,confidence_buffer,1567069,confidence_buffer,,null,,,,,,,,,,,,,,,,,
4922.29999999702,,pt2_memorable_rating,1571992,Hagerstown,,50,,2,,,,,,,,,,,,,,,
null,,confidence_buffer,1572094,confidence_buffer,,null,,,,,,,,,,,,,,,,,
6137.79999999702,,recognition_phase,1578233,Hagerstown,,52,,,,,new,1,0.8947368421052632,,,,,,,,,,
null,,confidence_buffer,1578335,confidence_buffer,,null,,,,,,,,,,,,,,,,,
null,,thebreak,1578837,break,,null,,,,,,,,,,,,,,,,,
4649.5,,realistic_rating,1583487,Pasadena,,53,Pasadena,5,,,,,,,,,,,,,,,
null,,confidence_buffer,1583590,confidence_buffer,,null,,,,,,,,,,,,,,,,,
2578.4000000059605,,probe_rating,1586169,probe_rating,,50,,,2,1,,,,,,,,,,,,,
null,,confidence_buffer,1586270,confidence_buffer,,null,,,,,,,,,,,,,,,,,
5033,,pt2_unique_rating,1591304,Pasadena,,53,,5,,,,,,,,,,,,,,,
null,,confidence_buffer,1591406,confidence_buffer,,null,,,,,,,,,,,,,,,,,
7718.5,,pt2_memorable_rating,1599125,Pasadena,,52,,4,,,,,,,,,,,,,,,
null,,confidence_buffer,1599227,confidence_buffer,,null,,,,,,,,,,,,,,,,,
4139.4000000059605,,recognition_phase,1603367,Pasadena,,49,,,,,old,1,0.8974358974358975,,,,,,,,,,
null,,confidence_buffer,1603469,confidence_buffer,,null,,,,,,,,,,,,,,,,,
null,,thebreak,1603985,break,,null,,,,,,,,,,,,,,,,,
6429.699999988079,,realistic_rating,1610416,Norfolk,,53,Norfolk,5,,,,,,,,,,,,,,,
null,,confidence_buffer,1610517,confidence_buffer,,null,,,,,,,,,,,,,,,,,
3253,,pt2_unique_rating,1613771,Norfolk,,52,,4,,,,,,,,,,,,,,,
null,,confidence_buffer,1613883,confidence_buffer,,null,,,,,,,,,,,,,,,,,
5675.70000000298,,pt2_memorable_rating,1619559,Norfolk,,50,,2,,,,,,,,,,,,,,,
null,,confidence_buffer,1619661,confidence_buffer,,null,,,,,,,,,,,,,,,,,
2673.1000000089407,,probe_rating,1622335,probe_rating,,49,,,1,1,,,,,,,,,,,,,
null,,confidence_buffer,1622437,confidence_buffer,,null,,,,,,,,,,,,,,,,,
5456.199999988079,,recognition_phase,1627894,Norfolk,,51,,,,,new,1,0.9,,,,,,,,,,
null,,confidence_buffer,1627995,confidence_buffer,,null,,,,,,,,,,,,,,,,,
null,,thebreak,1628497,break,,null,,,,,,,,,,,,,,,,,
5592.100000008941,,realistic_rating,1634089,Berkeley,,52,Berkeley,4,,,,,,,,,,,,,,,
null,,confidence_buffer,1634191,confidence_buffer,,null,,,,,,,,,,,,,,,,,
6373,,pt2_unique_rating,1640565,Berkeley,,53,,5,,,,,,,,,,,,,,,
null,,confidence_buffer,1640666,confidence_buffer,,null,,,,,,,,,,,,,,,,,
4797.70000000298,,pt2_memorable_rating,1645465,Berkeley,,51,,3,,,,,,,,,,,,,,,
null,,confidence_buffer,1645566,confidence_buffer,,null,,,,,,,,,,,,,,,,,
5740.20000000298,,recognition_phase,1651307,Berkeley,,51,,,,,new,1,0.9024390243902439,,,,,,,,,,
null,,confidence_buffer,1651408,confidence_buffer,,null,,,,,,,,,,,,,,,,,
null,,thebreak,1651909,break,,null,,,,,,,,,,,,,,,,,
5064.600000008941,,realistic_rating,1656974,Ann Arbor,,53,Ann Arbor,5,,,,,,,,,,,,,,,
null,,confidence_buffer,1657076,confidence_buffer,,null,,,,,,,,,,,,,,,,,
1936.7999999970198,,pt2_unique_rating,1659014,Ann Arbor,,52,,4,,,,,,,,,,,,,,,
null,,confidence_buffer,1659115,confidence_buffer,,null,,,,,,,,,,,,,,,,,
4205.0999999940395,,pt2_memorable_rating,1663321,Ann Arbor,,53,,5,,,,,,,,,,,,,,,
null,,confidence_buffer,1663432,confidence_buffer,,null,,,,,,,,,,,,,,,,,
3795.7999999970198,,recognition_phase,1667229,Ann Arbor,,49,,,,,old,1,0.9047619047619048,,,,,,,,,,
null,,confidence_buffer,1667331,confidence_buffer,,null,,,,,,,,,,,,,,,,,
null,,thebreak,1667832,break,,null,,,,,,,,,,,,,,,,,
5208.0999999940395,,realistic_rating,1673041,Fort Wayne,,53,Fort Wayne,5,,,,,,,,,,,,,,,
null,,confidence_buffer,1673142,confidence_buffer,,null,,,,,,,,,,,,,,,,,
2360.9000000059605,,probe_rating,1675504,probe_rating,,50,,,2,1,,,,,,,,,,,,,
null,,confidence_buffer,1675606,confidence_buffer,,null,,,,,,,,,,,,,,,,,
7274.79999999702,,pt2_unique_rating,1682881,Fort Wayne,,50,,2,,,,,,,,,,,,,,,
null,,confidence_buffer,1682983,confidence_buffer,,null,,,,,,,,,,,,,,,,,
3536.2999999970198,,pt2_memorable_rating,1686520,Fort Wayne,,49,,1,,,,,,,,,,,,,,,
null,,confidence_buffer,1686636,confidence_buffer,,null,,,,,,,,,,,,,,,,,
4080.2999999970198,,recognition_phase,1690717,Fort Wayne,,51,,,,,new,0,0.8837209302325582,,,,,,,,,,
null,,confidence_buffer,1690819,confidence_buffer,,null,,,,,,,,,,,,,,,,,
null,,thebreak,1691319,break,,null,,,,,,,,,,,,,,,,,
4187.70000000298,,realistic_rating,1695508,McKinney,,52,McKinney,4,,,,,,,,,,,,,,,
null,,confidence_buffer,1695609,confidence_buffer,,null,,,,,,,,,,,,,,,,,
8229,,pt2_unique_rating,1703839,McKinney,,52,,4,,,,,,,,,,,,,,,
null,,confidence_buffer,1703940,confidence_buffer,,null,,,,,,,,,,,,,,,,,
4772.699999988079,,pt2_memorable_rating,1708713,McKinney,,49,,1,,,,,,,,,,,,,,,
null,,confidence_buffer,1708815,confidence_buffer,,null,,,,,,,,,,,,,,,,,
6482.899999991059,,recognition_phase,1715298,McKinney,,52,,,,,new,1,0.8863636363636364,,,,,,,,,,
null,,confidence_buffer,1715399,confidence_buffer,,null,,,,,,,,,,,,,,,,,
null,,thebreak,1715900,break,,null,,,,,,,,,,,,,,,,,
4312.5,,realistic_rating,1720213,Carson City,,53,Carson City,5,,,,,,,,,,,,,,,
null,,confidence_buffer,1720315,confidence_buffer,,null,,,,,,,,,,,,,,,,,
2898.199999988079,,pt2_unique_rating,1723214,Carson City,,51,,3,,,,,,,,,,,,,,,
null,,confidence_buffer,1723316,confidence_buffer,,null,,,,,,,,,,,,,,,,,
2440.4000000059605,,pt2_memorable_rating,1725757,Carson City,,52,,4,,,,,,,,,,,,,,,
null,,confidence_buffer,1725858,confidence_buffer,,null,,,,,,,,,,,,,,,,,
6312.79999999702,,recognition_phase,1732172,Carson City,,52,,,,,new,1,0.8888888888888888,,,,,,,,,,
null,,confidence_buffer,1732274,confidence_buffer,,null,,,,,,,,,,,,,,,,,
null,,thebreak,1732776,break,,null,,,,,,,,,,,,,,,,,
7317.600000008941,,realistic_rating,1740094,Concord,,52,Concord,4,,,,,,,,,,,,,,,
null,,confidence_buffer,1740196,confidence_buffer,,null,,,,,,,,,,,,,,,,,
2933,,pt2_unique_rating,1743130,Concord,,51,,3,,,,,,,,,,,,,,,
null,,confidence_buffer,1743231,confidence_buffer,,null,,,,,,,,,,,,,,,,,
2957.5,,pt2_memorable_rating,1746190,Concord,,50,,2,,,,,,,,,,,,,,,
null,,confidence_buffer,1746292,confidence_buffer,,null,,,,,,,,,,,,,,,,,
7654.0999999940395,,recognition_phase,1753947,Concord,,52,,,,,new,1,0.8913043478260869,,,,,,,,,,
null,,confidence_buffer,1754048,confidence_buffer,,null,,,,,,,,,,,,,,,,,
null,,thebreak,1754549,break,,null,,,,,,,,,,,,,,,,,
4410.9000000059605,,realistic_rating,1758961,Champaign,,53,Champaign,5,,,,,,,,,,,,,,,
null,,confidence_buffer,1759062,confidence_buffer,,null,,,,,,,,,,,,,,,,,
2679.5,,pt2_unique_rating,1761743,Champaign,,52,,4,,,,,,,,,,,,,,,
null,,confidence_buffer,1761845,confidence_buffer,,null,,,,,,,,,,,,,,,,,
5068.70000000298,,pt2_memorable_rating,1766915,Champaign,,50,,2,,,,,,,,,,,,,,,
null,,confidence_buffer,1767016,confidence_buffer,,null,,,,,,,,,,,,,,,,,
3336.4000000059605,,recognition_phase,1770354,Champaign,,49,,,,,old,1,0.8936170212765957,,,,,,,,,,
null,,confidence_buffer,1770455,confidence_buffer,,null,,,,,,,,,,,,,,,,,
null,,thebreak,1770957,break,,null,,,,,,,,,,,,,,,,,
3692.4000000059605,,realistic_rating,1774650,Cambridge,,53,Cambridge,5,,,,,,,,,,,,,,,
null,,confidence_buffer,1774751,confidence_buffer,,null,,,,,,,,,,,,,,,,,
9211.20000000298,,pt2_unique_rating,1783963,Cambridge,,50,,2,,,,,,,,,,,,,,,
null,,confidence_buffer,1784065,confidence_buffer,,null,,,,,,,,,,,,,,,,,
5788.600000008941,,pt2_memorable_rating,1789854,Cambridge,,52,,4,,,,,,,,,,,,,,,
null,,confidence_buffer,1789956,confidence_buffer,,null,,,,,,,,,,,,,,,,,
7878.199999988079,,recognition_phase,1797835,Cambridge,,52,,,,,new,1,0.8958333333333334,,,,,,,,,,
null,,confidence_buffer,1797937,confidence_buffer,,null,,,,,,,,,,,,,,,,,
null,,thebreak,1798437,break,,null,,,,,,,,,,,,,,,,,
4053.1000000089407,,realistic_rating,1802491,Dubuque,,53,Dubuque,5,,,,,,,,,,,,,,,
null,,confidence_buffer,1802594,confidence_buffer,,null,,,,,,,,,,,,,,,,,
1934.7000000029802,,pt2_unique_rating,1804530,Dubuque,,52,,4,,,,,,,,,,,,,,,
null,,confidence_buffer,1804631,confidence_buffer,,null,,,,,,,,,,,,,,,,,
3916.4000000059605,,pt2_memorable_rating,1808548,Dubuque,,50,,2,,,,,,,,,,,,,,,
null,,confidence_buffer,1808650,confidence_buffer,,null,,,,,,,,,,,,,,,,,
3993.8999999910593,,recognition_phase,1812645,Dubuque,,52,,,,,new,1,0.8979591836734694,,,,,,,,,,
null,,confidence_buffer,1812746,confidence_buffer,,null,,,,,,,,,,,,,,,,,
null,,thebreak,1813247,break,,null,,,,,,,,,,,,,,,,,
3495.7999999970198,,realistic_rating,1816744,Salem,,53,Salem,5,,,,,,,,,,,,,,,
null,,confidence_buffer,1816844,confidence_buffer,,null,,,,,,,,,,,,,,,,,
3561.9000000059605,,pt2_unique_rating,1820407,Salem,,52,,4,,,,,,,,,,,,,,,
null,,confidence_buffer,1820508,confidence_buffer,,null,,,,,,,,,,,,,,,,,
5196.5,,pt2_memorable_rating,1825705,Salem,,53,,5,,,,,,,,,,,,,,,
null,,confidence_buffer,1825807,confidence_buffer,,null,,,,,,,,,,,,,,,,,
5327.20000000298,,recognition_phase,1831135,Salem,,51,,,,,new,1,0.9,,,,,,,,,,
null,,confidence_buffer,1831237,confidence_buffer,,null,,,,,,,,,,,,,,,,,
null,,thebreak,1831738,break,,null,,,,,,,,,,,,,,,,,
,,survey,2309409,survey-questions,,,,,,,,,,none,high,No,I have been to many of the places named. I would think something like Pasadena; parade; great museum; Pasadena.,Have I been there? Often; yes. If not; have I ever heard of it? Often yes; in a meeting.,Many names like that are memorable to me. But the more vowels in the name; the more difficult for me.,If I've only heard of one of them; then I deemed the unique.,As I said; a town can be named pretty much anything. So most names are realistic.,No,It was a bit long. For some reason my number pad would not work so I had to stretch to the numbers at the top of my keyboard. That was odd; it always works and I know about the num lock. Now my back is really hurting.
