rt,responses,trial_type,time_elapsed,stimulus,button_pressed,key_press,name_trial,rating,probe,probe_accuracy,response,correct,accuracy,problems,smooth,distraction,strategies,familiar,memorable,unique,realistic,similar,comments
4964.299999998882,{worker_id:5de5dba9ff87c15699804260},id_enter,4968,,,,,,,,,,,,,,,,,,,,
11918.800000000745,,fullscreen,16891,fullscreen,0,,,,,,,,,,,,,,,,,,
8029.4000000003725,,intro_0,24969,instruct,,32,,,,,,,,,,,,,,,,,
9655.199999999255,,intro_1,34625,instruct,,32,,,,,,,,,,,,,,,,,
9591,,intro_2,44217,instruct,,32,,,,,,,,,,,,,,,,,
null,,instruct_dir_4,45720,instruct,,null,,,,,,,,,,,,,,,,,
null,,thebreak,46222,break,,null,,,,,,,,,,,,,,,,,
6194,,familiar_rating,52417,Peoria,,52,Peoria,4,,,,,,,,,,,,,,,
null,,confidence_buffer,52520,confidence_buffer,,null,,,,,,,,,,,,,,,,,
6248.299999998882,,unique_rating,58769,Peoria,,50,,2,,,,,,,,,,,,,,,
null,,confidence_buffer,58871,confidence_buffer,,null,,,,,,,,,,,,,,,,,
4833.800000000745,,memorable_rating,63706,Peoria,,52,,4,,,,,,,,,,,,,,,
null,,confidence_buffer,63808,confidence_buffer,,null,,,,,,,,,,,,,,,,,
null,,thebreak,64309,break,,null,,,,,,,,,,,,,,,,,
4595,,familiar_rating,68905,Salem,,52,Salem,4,,,,,,,,,,,,,,,
null,,confidence_buffer,69007,confidence_buffer,,null,,,,,,,,,,,,,,,,,
5082,,unique_rating,74085,Salem,,49,,1,,,,,,,,,,,,,,,
null,,confidence_buffer,74187,confidence_buffer,,null,,,,,,,,,,,,,,,,,
4729.0999999996275,,memorable_rating,78906,Salem,,53,,5,,,,,,,,,,,,,,,
null,,confidence_buffer,79008,confidence_buffer,,null,,,,,,,,,,,,,,,,,
null,,thebreak,79509,break,,null,,,,,,,,,,,,,,,,,
6355.299999998882,,familiar_rating,85856,Santa Monica,,53,Santa Monica,5,,,,,,,,,,,,,,,
null,,confidence_buffer,85957,confidence_buffer,,null,,,,,,,,,,,,,,,,,
4521.199999999255,,unique_rating,90475,Santa Monica,,51,,3,,,,,,,,,,,,,,,
null,,confidence_buffer,90576,confidence_buffer,,null,,,,,,,,,,,,,,,,,
3569.60000000149,,memorable_rating,94144,Santa Monica,,53,,5,,,,,,,,,,,,,,,
null,,confidence_buffer,94246,confidence_buffer,,null,,,,,,,,,,,,,,,,,
null,,thebreak,94748,break,,null,,,,,,,,,,,,,,,,,
5819.299999998882,,familiar_rating,100564,Athens,,53,Athens,5,,,,,,,,,,,,,,,
null,,confidence_buffer,100666,confidence_buffer,,null,,,,,,,,,,,,,,,,,
2641.60000000149,,unique_rating,103307,Athens,,49,,1,,,,,,,,,,,,,,,
null,,confidence_buffer,103409,confidence_buffer,,null,,,,,,,,,,,,,,,,,
3713.2999999988824,,memorable_rating,107121,Athens,,53,,5,,,,,,,,,,,,,,,
null,,confidence_buffer,107223,confidence_buffer,,null,,,,,,,,,,,,,,,,,
null,,thebreak,107725,break,,null,,,,,,,,,,,,,,,,,
4740.199999999255,,familiar_rating,112465,Hagerstown,,50,Hagerstown,2,,,,,,,,,,,,,,,
null,,confidence_buffer,112567,confidence_buffer,,null,,,,,,,,,,,,,,,,,
4729,,unique_rating,117295,Hagerstown,,50,,2,,,,,,,,,,,,,,,
null,,confidence_buffer,117398,confidence_buffer,,null,,,,,,,,,,,,,,,,,
3096.5,,memorable_rating,120495,Hagerstown,,51,,3,,,,,,,,,,,,,,,
null,,confidence_buffer,120597,confidence_buffer,,null,,,,,,,,,,,,,,,,,
null,,thebreak,121099,break,,null,,,,,,,,,,,,,,,,,
3819.5,,familiar_rating,124919,Altoona,,50,Altoona,2,,,,,,,,,,,,,,,
null,,confidence_buffer,125021,confidence_buffer,,null,,,,,,,,,,,,,,,,,
3496.4000000003725,,unique_rating,128518,Altoona,,52,,4,,,,,,,,,,,,,,,
null,,confidence_buffer,128620,confidence_buffer,,null,,,,,,,,,,,,,,,,,
1833.2000000011176,,memorable_rating,130454,Altoona,,53,,5,,,,,,,,,,,,,,,
null,,confidence_buffer,130555,confidence_buffer,,null,,,,,,,,,,,,,,,,,
null,,thebreak,131058,break,,null,,,,,,,,,,,,,,,,,
4507.89999999851,,familiar_rating,135566,Muncie,,50,Muncie,2,,,,,,,,,,,,,,,
null,,confidence_buffer,135668,confidence_buffer,,null,,,,,,,,,,,,,,,,,
6496.9000000003725,,unique_rating,142165,Muncie,,52,,4,,,,,,,,,,,,,,,
null,,confidence_buffer,142267,confidence_buffer,,null,,,,,,,,,,,,,,,,,
3497.5,,memorable_rating,145765,Muncie,,53,,5,,,,,,,,,,,,,,,
null,,confidence_buffer,145868,confidence_buffer,,null,,,,,,,,,,,,,,,,,
null,,thebreak,146370,break,,null,,,,,,,,,,,,,,,,,
4810.800000000745,,familiar_rating,151181,Burlington,,53,Burlington,5,,,,,,,,,,,,,,,
null,,confidence_buffer,151283,confidence_buffer,,null,,,,,,,,,,,,,,,,,
3465.5,,unique_rating,154749,Burlington,,49,,1,,,,,,,,,,,,,,,
null,,confidence_buffer,154851,confidence_buffer,,null,,,,,,,,,,,,,,,,,
3481.199999999255,,memorable_rating,158333,Burlington,,51,,3,,,,,,,,,,,,,,,
null,,confidence_buffer,158435,confidence_buffer,,null,,,,,,,,,,,,,,,,,
null,,thebreak,158937,break,,null,,,,,,,,,,,,,,,,,
4227.4000000003725,,familiar_rating,163165,Terre Haute,,50,Terre Haute,2,,,,,,,,,,,,,,,
null,,confidence_buffer,163268,confidence_buffer,,null,,,,,,,,,,,,,,,,,
5072.799999998882,,unique_rating,168341,Terre Haute,,53,,5,,,,,,,,,,,,,,,
null,,confidence_buffer,168443,confidence_buffer,,null,,,,,,,,,,,,,,,,,
2560.800000000745,,memorable_rating,171005,Terre Haute,,53,,5,,,,,,,,,,,,,,,
null,,confidence_buffer,171106,confidence_buffer,,null,,,,,,,,,,,,,,,,,
2689.800000000745,,probe_rating,173797,probe_rating,,51,,,3,1,,,,,,,,,,,,,
null,,confidence_buffer,173899,confidence_buffer,,null,,,,,,,,,,,,,,,,,
null,,thebreak,174401,break,,null,,,,,,,,,,,,,,,,,
14611.5,,familiar_rating,189013,Norfolk,,50,Norfolk,2,,,,,,,,,,,,,,,
null,,confidence_buffer,189115,confidence_buffer,,null,,,,,,,,,,,,,,,,,
4224.799999998882,,unique_rating,193341,Norfolk,,49,,1,,,,,,,,,,,,,,,
null,,confidence_buffer,193443,confidence_buffer,,null,,,,,,,,,,,,,,,,,
3817,,memorable_rating,197261,Norfolk,,51,,3,,,,,,,,,,,,,,,
null,,confidence_buffer,197363,confidence_buffer,,null,,,,,,,,,,,,,,,,,
null,,thebreak,197865,break,,null,,,,,,,,,,,,,,,,,
6411.5,,familiar_rating,204277,Las Cruces,,51,Las Cruces,3,,,,,,,,,,,,,,,
null,,confidence_buffer,204379,confidence_buffer,,null,,,,,,,,,,,,,,,,,
1624.800000000745,,unique_rating,206005,Las Cruces,,49,,1,,,,,,,,,,,,,,,
null,,confidence_buffer,206107,confidence_buffer,,null,,,,,,,,,,,,,,,,,
2128.800000000745,,memorable_rating,208237,Las Cruces,,50,,2,,,,,,,,,,,,,,,
null,,confidence_buffer,208340,confidence_buffer,,null,,,,,,,,,,,,,,,,,
2536.4000000003725,,probe_rating,210877,probe_rating,,51,,,3,1,,,,,,,,,,,,,
null,,confidence_buffer,210979,confidence_buffer,,null,,,,,,,,,,,,,,,,,
null,,thebreak,211480,break,,null,,,,,,,,,,,,,,,,,
7932.0999999996275,,familiar_rating,219413,Ithaca,,52,Ithaca,4,,,,,,,,,,,,,,,
null,,confidence_buffer,219515,confidence_buffer,,null,,,,,,,,,,,,,,,,,
2200.5,,unique_rating,221717,Ithaca,,49,,1,,,,,,,,,,,,,,,
null,,confidence_buffer,221819,confidence_buffer,,null,,,,,,,,,,,,,,,,,
2512.800000000745,,memorable_rating,224333,Ithaca,,53,,5,,,,,,,,,,,,,,,
null,,confidence_buffer,224434,confidence_buffer,,null,,,,,,,,,,,,,,,,,
null,,thebreak,224936,break,,null,,,,,,,,,,,,,,,,,
3171.800000000745,,familiar_rating,228109,Helena,,53,Helena,5,,,,,,,,,,,,,,,
null,,confidence_buffer,228211,confidence_buffer,,null,,,,,,,,,,,,,,,,,
3969.199999999255,,unique_rating,232181,Helena,,51,,3,,,,,,,,,,,,,,,
null,,confidence_buffer,232283,confidence_buffer,,null,,,,,,,,,,,,,,,,,
3832.300000000745,,memorable_rating,236116,Helena,,53,,5,,,,,,,,,,,,,,,
null,,confidence_buffer,236219,confidence_buffer,,null,,,,,,,,,,,,,,,,,
null,,thebreak,236721,break,,null,,,,,,,,,,,,,,,,,
3962.800000000745,,familiar_rating,240685,Fort Wayne,,50,Fort Wayne,2,,,,,,,,,,,,,,,
null,,confidence_buffer,240787,confidence_buffer,,null,,,,,,,,,,,,,,,,,
3241.199999999255,,unique_rating,244029,Fort Wayne,,50,,2,,,,,,,,,,,,,,,
null,,confidence_buffer,244131,confidence_buffer,,null,,,,,,,,,,,,,,,,,
2185,,memorable_rating,246317,Fort Wayne,,51,,3,,,,,,,,,,,,,,,
null,,confidence_buffer,246419,confidence_buffer,,null,,,,,,,,,,,,,,,,,
null,,thebreak,246920,break,,null,,,,,,,,,,,,,,,,,
3947.300000000745,,familiar_rating,250868,Berkeley,,53,Berkeley,5,,,,,,,,,,,,,,,
null,,confidence_buffer,250970,confidence_buffer,,null,,,,,,,,,,,,,,,,,
4753.799999998882,,unique_rating,255725,Berkeley,,52,,4,,,,,,,,,,,,,,,
null,,confidence_buffer,255827,confidence_buffer,,null,,,,,,,,,,,,,,,,,
3449.10000000149,,memorable_rating,259276,Berkeley,,52,,4,,,,,,,,,,,,,,,
null,,confidence_buffer,259378,confidence_buffer,,null,,,,,,,,,,,,,,,,,
null,,thebreak,259880,break,,null,,,,,,,,,,,,,,,,,
2979.5999999996275,,familiar_rating,262861,Annapolis,,51,Annapolis,3,,,,,,,,,,,,,,,
null,,confidence_buffer,262963,confidence_buffer,,null,,,,,,,,,,,,,,,,,
6552.9000000003725,,unique_rating,269517,Annapolis,,51,,3,,,,,,,,,,,,,,,
null,,confidence_buffer,269618,confidence_buffer,,null,,,,,,,,,,,,,,,,,
2929.800000000745,,memorable_rating,272548,Annapolis,,53,,5,,,,,,,,,,,,,,,
null,,confidence_buffer,272650,confidence_buffer,,null,,,,,,,,,,,,,,,,,
null,,thebreak,273152,break,,null,,,,,,,,,,,,,,,,,
4555.5999999996275,,familiar_rating,277708,Tallahassee,,51,Tallahassee,3,,,,,,,,,,,,,,,
null,,confidence_buffer,277810,confidence_buffer,,null,,,,,,,,,,,,,,,,,
5618.5999999996275,,unique_rating,283429,Tallahassee,,53,,5,,,,,,,,,,,,,,,
null,,confidence_buffer,283531,confidence_buffer,,null,,,,,,,,,,,,,,,,,
2352.60000000149,,probe_rating,285884,probe_rating,,51,,,3,1,,,,,,,,,,,,,
null,,confidence_buffer,285987,confidence_buffer,,null,,,,,,,,,,,,,,,,,
3424.89999999851,,memorable_rating,289412,Tallahassee,,52,,4,,,,,,,,,,,,,,,
null,,confidence_buffer,289513,confidence_buffer,,null,,,,,,,,,,,,,,,,,
null,,thebreak,290015,break,,null,,,,,,,,,,,,,,,,,
3412.300000000745,,familiar_rating,293428,Bozeman,,53,Bozeman,5,,,,,,,,,,,,,,,
null,,confidence_buffer,293530,confidence_buffer,,null,,,,,,,,,,,,,,,,,
4017.699999999255,,unique_rating,297549,Bozeman,,52,,4,,,,,,,,,,,,,,,
null,,confidence_buffer,297650,confidence_buffer,,null,,,,,,,,,,,,,,,,,
2953.300000000745,,memorable_rating,300604,Bozeman,,52,,4,,,,,,,,,,,,,,,
null,,confidence_buffer,300707,confidence_buffer,,null,,,,,,,,,,,,,,,,,
null,,thebreak,301210,break,,null,,,,,,,,,,,,,,,,,
4778,,familiar_rating,305988,Dubuque,,50,Dubuque,2,,,,,,,,,,,,,,,
null,,confidence_buffer,306091,confidence_buffer,,null,,,,,,,,,,,,,,,,,
4345.4000000003725,,unique_rating,310437,Dubuque,,52,,4,,,,,,,,,,,,,,,
null,,confidence_buffer,310539,confidence_buffer,,null,,,,,,,,,,,,,,,,,
2320.60000000149,,memorable_rating,312860,Dubuque,,51,,3,,,,,,,,,,,,,,,
null,,confidence_buffer,312963,confidence_buffer,,null,,,,,,,,,,,,,,,,,
2144.800000000745,,probe_rating,315108,probe_rating,,51,,,3,1,,,,,,,,,,,,,
null,,confidence_buffer,315210,confidence_buffer,,null,,,,,,,,,,,,,,,,,
null,,thebreak,315712,break,,null,,,,,,,,,,,,,,,,,
8371.5,,familiar_rating,324085,McKinney,,50,McKinney,2,,,,,,,,,,,,,,,
null,,confidence_buffer,324187,confidence_buffer,,null,,,,,,,,,,,,,,,,,
2856.7000000011176,,unique_rating,327044,McKinney,,50,,2,,,,,,,,,,,,,,,
null,,confidence_buffer,327147,confidence_buffer,,null,,,,,,,,,,,,,,,,,
5617,,memorable_rating,332764,McKinney,,51,,3,,,,,,,,,,,,,,,
null,,confidence_buffer,332866,confidence_buffer,,null,,,,,,,,,,,,,,,,,
null,,thebreak,333368,break,,null,,,,,,,,,,,,,,,,,
4651.699999999255,,familiar_rating,338020,Syracuse,,52,Syracuse,4,,,,,,,,,,,,,,,
null,,confidence_buffer,338123,confidence_buffer,,null,,,,,,,,,,,,,,,,,
2064.699999999255,,unique_rating,340188,Syracuse,,49,,1,,,,,,,,,,,,,,,
null,,confidence_buffer,340290,confidence_buffer,,null,,,,,,,,,,,,,,,,,
3425.5,,memorable_rating,343716,Syracuse,,53,,5,,,,,,,,,,,,,,,
null,,confidence_buffer,343817,confidence_buffer,,null,,,,,,,,,,,,,,,,,
null,,thebreak,344320,break,,null,,,,,,,,,,,,,,,,,
2851.9000000003725,,familiar_rating,347172,Fort Collins,,53,Fort Collins,5,,,,,,,,,,,,,,,
null,,confidence_buffer,347274,confidence_buffer,,null,,,,,,,,,,,,,,,,,
4929.5999999996275,,unique_rating,352204,Fort Collins,,53,,5,,,,,,,,,,,,,,,
null,,confidence_buffer,352307,confidence_buffer,,null,,,,,,,,,,,,,,,,,
1632.4000000003725,,memorable_rating,353940,Fort Collins,,53,,5,,,,,,,,,,,,,,,
null,,confidence_buffer,354042,confidence_buffer,,null,,,,,,,,,,,,,,,,,
null,,thebreak,354545,break,,null,,,,,,,,,,,,,,,,,
5275.0999999996275,,familiar_rating,359820,Yakima,,52,Yakima,4,,,,,,,,,,,,,,,
null,,confidence_buffer,359922,confidence_buffer,,null,,,,,,,,,,,,,,,,,
3449.7999999988824,,unique_rating,363373,Yakima,,52,,4,,,,,,,,,,,,,,,
null,,confidence_buffer,363475,confidence_buffer,,null,,,,,,,,,,,,,,,,,
2816.4000000003725,,memorable_rating,366292,Yakima,,53,,5,,,,,,,,,,,,,,,
null,,confidence_buffer,366395,confidence_buffer,,null,,,,,,,,,,,,,,,,,
null,,thebreak,366897,break,,null,,,,,,,,,,,,,,,,,
4954.800000000745,,familiar_rating,371852,Carson City,,53,Carson City,5,,,,,,,,,,,,,,,
null,,confidence_buffer,371954,confidence_buffer,,null,,,,,,,,,,,,,,,,,
4313.799999998882,,unique_rating,376269,Carson City,,52,,4,,,,,,,,,,,,,,,
null,,confidence_buffer,376371,confidence_buffer,,null,,,,,,,,,,,,,,,,,
3185,,memorable_rating,379556,Carson City,,52,,4,,,,,,,,,,,,,,,
null,,confidence_buffer,379659,confidence_buffer,,null,,,,,,,,,,,,,,,,,
null,,thebreak,380161,break,,null,,,,,,,,,,,,,,,,,
3811.0999999996275,,familiar_rating,383972,New Haven,,50,New Haven,2,,,,,,,,,,,,,,,
null,,confidence_buffer,384074,confidence_buffer,,null,,,,,,,,,,,,,,,,,
1649.1000000014901,,unique_rating,385724,New Haven,,49,,1,,,,,,,,,,,,,,,
null,,confidence_buffer,385827,confidence_buffer,,null,,,,,,,,,,,,,,,,,
1992.699999999255,,memorable_rating,387820,New Haven,,50,,2,,,,,,,,,,,,,,,
null,,confidence_buffer,387923,confidence_buffer,,null,,,,,,,,,,,,,,,,,
null,,thebreak,388424,break,,null,,,,,,,,,,,,,,,,,
7595.300000000745,,intro_0,396020,instruct,,32,,,,,,,,,,,,,,,,,
14295.700000001118,,intro_1,410317,instruct,,32,,,,,,,,,,,,,,,,,
16559.5,,intro_2,426877,instruct,,32,,,,,,,,,,,,,,,,,
null,,instruct_dir_4,428379,instruct,,null,,,,,,,,,,,,,,,,,
4856.800000000745,,realistic_rating,433236,Dover,,52,Dover,4,,,,,,,,,,,,,,,
null,,confidence_buffer,433339,confidence_buffer,,null,,,,,,,,,,,,,,,,,
1904.4000000003725,,probe_rating,435244,probe_rating,,52,,,4,1,,,,,,,,,,,,,
null,,confidence_buffer,435346,confidence_buffer,,null,,,,,,,,,,,,,,,,,
10913.5,,pt2_unique_rating,446261,Dover,,49,,1,,,,,,,,,,,,,,,
null,,confidence_buffer,446362,confidence_buffer,,null,,,,,,,,,,,,,,,,,
2353.39999999851,,pt2_memorable_rating,448716,Dover,,50,,2,,,,,,,,,,,,,,,
null,,confidence_buffer,448818,confidence_buffer,,null,,,,,,,,,,,,,,,,,
4497.60000000149,,recognition_phase,453316,Dover,,52,,,,,new,1,1,,,,,,,,,,
null,,confidence_buffer,453418,confidence_buffer,,null,,,,,,,,,,,,,,,,,
null,,thebreak,453920,break,,null,,,,,,,,,,,,,,,,,
8172,,realistic_rating,462092,Pasadena,,53,Pasadena,5,,,,,,,,,,,,,,,
null,,confidence_buffer,462194,confidence_buffer,,null,,,,,,,,,,,,,,,,,
6185,,pt2_unique_rating,468380,Pasadena,,51,,3,,,,,,,,,,,,,,,
null,,confidence_buffer,468482,confidence_buffer,,null,,,,,,,,,,,,,,,,,
2937.2000000011176,,pt2_memorable_rating,471420,Pasadena,,52,,4,,,,,,,,,,,,,,,
null,,confidence_buffer,471522,confidence_buffer,,null,,,,,,,,,,,,,,,,,
2609.5,,recognition_phase,474132,Pasadena,,52,,,,,new,1,1,,,,,,,,,,
null,,confidence_buffer,474235,confidence_buffer,,null,,,,,,,,,,,,,,,,,
null,,thebreak,474737,break,,null,,,,,,,,,,,,,,,,,
4202.5999999996275,,realistic_rating,478940,Santa Monica,,53,Santa Monica,5,,,,,,,,,,,,,,,
null,,confidence_buffer,479041,confidence_buffer,,null,,,,,,,,,,,,,,,,,
7890.300000000745,,pt2_unique_rating,486932,Santa Monica,,51,,3,,,,,,,,,,,,,,,
null,,confidence_buffer,487034,confidence_buffer,,null,,,,,,,,,,,,,,,,,
3032.5999999996275,,pt2_memorable_rating,490068,Santa Monica,,51,,3,,,,,,,,,,,,,,,
null,,confidence_buffer,490169,confidence_buffer,,null,,,,,,,,,,,,,,,,,
2354.0999999996275,,recognition_phase,492524,Santa Monica,,49,,,,,old,1,1,,,,,,,,,,
null,,confidence_buffer,492627,confidence_buffer,,null,,,,,,,,,,,,,,,,,
null,,thebreak,493128,break,,null,,,,,,,,,,,,,,,,,
9539.300000000745,,realistic_rating,502668,McKinney,,51,McKinney,3,,,,,,,,,,,,,,,
null,,confidence_buffer,502771,confidence_buffer,,null,,,,,,,,,,,,,,,,,
2576.2000000011176,,pt2_unique_rating,505348,McKinney,,50,,2,,,,,,,,,,,,,,,
null,,confidence_buffer,505449,confidence_buffer,,null,,,,,,,,,,,,,,,,,
2394,,probe_rating,507844,probe_rating,,49,,,1,1,,,,,,,,,,,,,
null,,confidence_buffer,507946,confidence_buffer,,null,,,,,,,,,,,,,,,,,
3697.10000000149,,pt2_memorable_rating,511644,McKinney,,50,,2,,,,,,,,,,,,,,,
null,,confidence_buffer,511746,confidence_buffer,,null,,,,,,,,,,,,,,,,,
2673.7999999988824,,recognition_phase,514420,McKinney,,49,,,,,old,1,1,,,,,,,,,,
null,,confidence_buffer,514522,confidence_buffer,,null,,,,,,,,,,,,,,,,,
null,,thebreak,515024,break,,null,,,,,,,,,,,,,,,,,
4275.60000000149,,realistic_rating,519300,Reno,,53,Reno,5,,,,,,,,,,,,,,,
null,,confidence_buffer,519401,confidence_buffer,,null,,,,,,,,,,,,,,,,,
4922.0999999996275,,pt2_unique_rating,524324,Reno,,51,,3,,,,,,,,,,,,,,,
null,,confidence_buffer,524426,confidence_buffer,,null,,,,,,,,,,,,,,,,,
3633.2999999988824,,pt2_memorable_rating,528060,Reno,,52,,4,,,,,,,,,,,,,,,
null,,confidence_buffer,528162,confidence_buffer,,null,,,,,,,,,,,,,,,,,
3376.7000000011176,,recognition_phase,531540,Reno,,52,,,,,new,1,1,,,,,,,,,,
null,,confidence_buffer,531642,confidence_buffer,,null,,,,,,,,,,,,,,,,,
null,,thebreak,532144,break,,null,,,,,,,,,,,,,,,,,
3714.800000000745,,realistic_rating,535860,Fort Collins,,53,Fort Collins,5,,,,,,,,,,,,,,,
null,,confidence_buffer,535961,confidence_buffer,,null,,,,,,,,,,,,,,,,,
2706.5,,pt2_unique_rating,538668,Fort Collins,,53,,5,,,,,,,,,,,,,,,
null,,confidence_buffer,538771,confidence_buffer,,null,,,,,,,,,,,,,,,,,
2608.5,,pt2_memorable_rating,541380,Fort Collins,,53,,5,,,,,,,,,,,,,,,
null,,confidence_buffer,541481,confidence_buffer,,null,,,,,,,,,,,,,,,,,
2330.2000000011176,,recognition_phase,543812,Fort Collins,,49,,,,,old,1,1,,,,,,,,,,
null,,confidence_buffer,543914,confidence_buffer,,null,,,,,,,,,,,,,,,,,
null,,thebreak,544416,break,,null,,,,,,,,,,,,,,,,,
3731.300000000745,,realistic_rating,548148,Muncie,,53,Muncie,5,,,,,,,,,,,,,,,
null,,confidence_buffer,548249,confidence_buffer,,null,,,,,,,,,,,,,,,,,
5130.199999999255,,pt2_unique_rating,553380,Muncie,,51,,3,,,,,,,,,,,,,,,
null,,confidence_buffer,553482,confidence_buffer,,null,,,,,,,,,,,,,,,,,
2273.4000000003725,,pt2_memorable_rating,555756,Muncie,,51,,3,,,,,,,,,,,,,,,
null,,confidence_buffer,555858,confidence_buffer,,null,,,,,,,,,,,,,,,,,
2392.5999999996275,,recognition_phase,558252,Muncie,,49,,,,,old,1,1,,,,,,,,,,
null,,confidence_buffer,558353,confidence_buffer,,null,,,,,,,,,,,,,,,,,
null,,thebreak,558855,break,,null,,,,,,,,,,,,,,,,,
2411.60000000149,,realistic_rating,561268,Helena,,53,Helena,5,,,,,,,,,,,,,,,
null,,confidence_buffer,561370,confidence_buffer,,null,,,,,,,,,,,,,,,,,
3497.4000000003725,,pt2_unique_rating,564868,Helena,,52,,4,,,,,,,,,,,,,,,
null,,confidence_buffer,564971,confidence_buffer,,null,,,,,,,,,,,,,,,,,
3256.5999999996275,,pt2_memorable_rating,568228,Helena,,52,,4,,,,,,,,,,,,,,,
null,,confidence_buffer,568330,confidence_buffer,,null,,,,,,,,,,,,,,,,,
2104.7000000011176,,recognition_phase,570436,Helena,,49,,,,,old,1,1,,,,,,,,,,
null,,confidence_buffer,570539,confidence_buffer,,null,,,,,,,,,,,,,,,,,
null,,thebreak,571041,break,,null,,,,,,,,,,,,,,,,,
3073.9000000003725,,realistic_rating,574116,Terre Haute,,53,Terre Haute,5,,,,,,,,,,,,,,,
null,,confidence_buffer,574217,confidence_buffer,,null,,,,,,,,,,,,,,,,,
6186.799999998882,,pt2_unique_rating,580404,Terre Haute,,53,,5,,,,,,,,,,,,,,,
null,,confidence_buffer,580506,confidence_buffer,,null,,,,,,,,,,,,,,,,,
2329,,pt2_memorable_rating,582836,Terre Haute,,53,,5,,,,,,,,,,,,,,,
null,,confidence_buffer,582938,confidence_buffer,,null,,,,,,,,,,,,,,,,,
2393.300000000745,,probe_rating,585332,probe_rating,,51,,,3,1,,,,,,,,,,,,,
null,,confidence_buffer,585433,confidence_buffer,,null,,,,,,,,,,,,,,,,,
2073.9000000003725,,recognition_phase,587508,Terre Haute,,49,,,,,old,1,1,,,,,,,,,,
null,,confidence_buffer,587609,confidence_buffer,,null,,,,,,,,,,,,,,,,,
null,,thebreak,588111,break,,null,,,,,,,,,,,,,,,,,
3787.9000000003725,,realistic_rating,591900,Frankfort,,53,Frankfort,5,,,,,,,,,,,,,,,
null,,confidence_buffer,592002,confidence_buffer,,null,,,,,,,,,,,,,,,,,
4696.39999999851,,pt2_unique_rating,596700,Frankfort,,52,,4,,,,,,,,,,,,,,,
null,,confidence_buffer,596801,confidence_buffer,,null,,,,,,,,,,,,,,,,,
2465.9000000003725,,pt2_memorable_rating,599268,Frankfort,,53,,5,,,,,,,,,,,,,,,
null,,confidence_buffer,599370,confidence_buffer,,null,,,,,,,,,,,,,,,,,
2577.199999999255,,recognition_phase,601948,Frankfort,,52,,,,,new,1,1,,,,,,,,,,
null,,confidence_buffer,602050,confidence_buffer,,null,,,,,,,,,,,,,,,,,
null,,thebreak,602552,break,,null,,,,,,,,,,,,,,,,,
2979.300000000745,,realistic_rating,605532,Hagerstown,,53,Hagerstown,5,,,,,,,,,,,,,,,
null,,confidence_buffer,605633,confidence_buffer,,null,,,,,,,,,,,,,,,,,
2329.5,,probe_rating,607964,probe_rating,,52,,,4,1,,,,,,,,,,,,,
null,,confidence_buffer,608065,confidence_buffer,,null,,,,,,,,,,,,,,,,,
7449.9000000003725,,pt2_unique_rating,615516,Hagerstown,,51,,3,,,,,,,,,,,,,,,
null,,confidence_buffer,615618,confidence_buffer,,null,,,,,,,,,,,,,,,,,
2897.0999999996275,,pt2_memorable_rating,618516,Hagerstown,,51,,3,,,,,,,,,,,,,,,
null,,confidence_buffer,618618,confidence_buffer,,null,,,,,,,,,,,,,,,,,
2625,,recognition_phase,621244,Hagerstown,,49,,,,,old,1,1,,,,,,,,,,
null,,confidence_buffer,621346,confidence_buffer,,null,,,,,,,,,,,,,,,,,
null,,thebreak,621849,break,,null,,,,,,,,,,,,,,,,,
2906.2000000011176,,realistic_rating,624756,Toledo,,53,Toledo,5,,,,,,,,,,,,,,,
null,,confidence_buffer,624857,confidence_buffer,,null,,,,,,,,,,,,,,,,,
6657.89999999851,,pt2_unique_rating,631516,Toledo,,49,,1,,,,,,,,,,,,,,,
null,,confidence_buffer,631618,confidence_buffer,,null,,,,,,,,,,,,,,,,,
1993.2000000011176,,pt2_memorable_rating,633612,Toledo,,50,,2,,,,,,,,,,,,,,,
null,,confidence_buffer,633714,confidence_buffer,,null,,,,,,,,,,,,,,,,,
2665.300000000745,,recognition_phase,636380,Toledo,,52,,,,,new,1,1,,,,,,,,,,
null,,confidence_buffer,636481,confidence_buffer,,null,,,,,,,,,,,,,,,,,
null,,thebreak,636982,break,,null,,,,,,,,,,,,,,,,,
2548.7000000011176,,realistic_rating,639532,Las Cruces,,53,Las Cruces,5,,,,,,,,,,,,,,,
null,,confidence_buffer,639634,confidence_buffer,,null,,,,,,,,,,,,,,,,,
2897.0999999996275,,pt2_unique_rating,642532,Las Cruces,,50,,2,,,,,,,,,,,,,,,
null,,confidence_buffer,642634,confidence_buffer,,null,,,,,,,,,,,,,,,,,
2000.800000000745,,pt2_memorable_rating,644636,Las Cruces,,50,,2,,,,,,,,,,,,,,,
null,,confidence_buffer,644737,confidence_buffer,,null,,,,,,,,,,,,,,,,,
2009.5999999996275,,recognition_phase,646748,Las Cruces,,49,,,,,old,1,1,,,,,,,,,,
null,,confidence_buffer,646849,confidence_buffer,,null,,,,,,,,,,,,,,,,,
null,,thebreak,647352,break,,null,,,,,,,,,,,,,,,,,
6755.5,,realistic_rating,654108,Dothan,,51,Dothan,3,,,,,,,,,,,,,,,
null,,confidence_buffer,654209,confidence_buffer,,null,,,,,,,,,,,,,,,,,
3753.7000000011176,,pt2_unique_rating,657964,Dothan,,50,,2,,,,,,,,,,,,,,,
null,,confidence_buffer,658066,confidence_buffer,,null,,,,,,,,,,,,,,,,,
2561.2000000011176,,pt2_memorable_rating,660628,Dothan,,50,,2,,,,,,,,,,,,,,,
null,,confidence_buffer,660729,confidence_buffer,,null,,,,,,,,,,,,,,,,,
2761.300000000745,,recognition_phase,663492,Dothan,,52,,,,,new,1,1,,,,,,,,,,
null,,confidence_buffer,663594,confidence_buffer,,null,,,,,,,,,,,,,,,,,
null,,thebreak,664095,break,,null,,,,,,,,,,,,,,,,,
2580.199999999255,,realistic_rating,666676,Scottsdale,,53,Scottsdale,5,,,,,,,,,,,,,,,
null,,confidence_buffer,666778,confidence_buffer,,null,,,,,,,,,,,,,,,,,
4337,,pt2_unique_rating,671116,Scottsdale,,51,,3,,,,,,,,,,,,,,,
null,,confidence_buffer,671218,confidence_buffer,,null,,,,,,,,,,,,,,,,,
1936.7999999988824,,pt2_memorable_rating,673155,Scottsdale,,52,,4,,,,,,,,,,,,,,,
null,,confidence_buffer,673257,confidence_buffer,,null,,,,,,,,,,,,,,,,,
2441.699999999255,,recognition_phase,675700,Scottsdale,,52,,,,,new,1,1,,,,,,,,,,
null,,confidence_buffer,675801,confidence_buffer,,null,,,,,,,,,,,,,,,,,
null,,thebreak,676303,break,,null,,,,,,,,,,,,,,,,,
4596.199999999255,,realistic_rating,680900,Pueblo,,53,Pueblo,5,,,,,,,,,,,,,,,
null,,confidence_buffer,681002,confidence_buffer,,null,,,,,,,,,,,,,,,,,
3088.7999999988824,,pt2_unique_rating,684091,Pueblo,,51,,3,,,,,,,,,,,,,,,
null,,confidence_buffer,684193,confidence_buffer,,null,,,,,,,,,,,,,,,,,
2225.9000000003725,,pt2_memorable_rating,686420,Pueblo,,52,,4,,,,,,,,,,,,,,,
null,,confidence_buffer,686522,confidence_buffer,,null,,,,,,,,,,,,,,,,,
2601,,recognition_phase,689123,Pueblo,,52,,,,,new,1,1,,,,,,,,,,
null,,confidence_buffer,689225,confidence_buffer,,null,,,,,,,,,,,,,,,,,
null,,thebreak,689726,break,,null,,,,,,,,,,,,,,,,,
3044.5999999996275,,realistic_rating,692772,Dubuque,,53,Dubuque,5,,,,,,,,,,,,,,,
null,,confidence_buffer,692874,confidence_buffer,,null,,,,,,,,,,,,,,,,,
5776.699999999255,,pt2_unique_rating,698651,Dubuque,,51,,3,,,,,,,,,,,,,,,
null,,confidence_buffer,698753,confidence_buffer,,null,,,,,,,,,,,,,,,,,
1689.699999999255,,pt2_memorable_rating,700444,Dubuque,,51,,3,,,,,,,,,,,,,,,
null,,confidence_buffer,700546,confidence_buffer,,null,,,,,,,,,,,,,,,,,
2088.7000000011176,,probe_rating,702635,probe_rating,,49,,,1,1,,,,,,,,,,,,,
null,,confidence_buffer,702738,confidence_buffer,,null,,,,,,,,,,,,,,,,,
2121,,recognition_phase,704860,Dubuque,,49,,,,,old,1,1,,,,,,,,,,
null,,confidence_buffer,704962,confidence_buffer,,null,,,,,,,,,,,,,,,,,
null,,thebreak,705465,break,,null,,,,,,,,,,,,,,,,,
3386.0999999996275,,realistic_rating,708852,Abilene,,53,Abilene,5,,,,,,,,,,,,,,,
null,,confidence_buffer,708954,confidence_buffer,,null,,,,,,,,,,,,,,,,,
2145.0999999996275,,pt2_unique_rating,711100,Abilene,,52,,4,,,,,,,,,,,,,,,
null,,confidence_buffer,711201,confidence_buffer,,null,,,,,,,,,,,,,,,,,
1777.4000000003725,,pt2_memorable_rating,712980,Abilene,,52,,4,,,,,,,,,,,,,,,
null,,confidence_buffer,713081,confidence_buffer,,null,,,,,,,,,,,,,,,,,
2361.699999999255,,recognition_phase,715444,Abilene,,52,,,,,new,1,1,,,,,,,,,,
null,,confidence_buffer,715546,confidence_buffer,,null,,,,,,,,,,,,,,,,,
null,,thebreak,716048,break,,null,,,,,,,,,,,,,,,,,
3330.5,,realistic_rating,719379,Cheyenne,,53,Cheyenne,5,,,,,,,,,,,,,,,
null,,confidence_buffer,719482,confidence_buffer,,null,,,,,,,,,,,,,,,,,
4728.800000000745,,pt2_unique_rating,724211,Cheyenne,,52,,4,,,,,,,,,,,,,,,
null,,confidence_buffer,724314,confidence_buffer,,null,,,,,,,,,,,,,,,,,
2481.199999999255,,pt2_memorable_rating,726796,Cheyenne,,53,,5,,,,,,,,,,,,,,,
null,,confidence_buffer,726898,confidence_buffer,,null,,,,,,,,,,,,,,,,,
2016.4000000003725,,recognition_phase,728915,Cheyenne,,52,,,,,new,1,1,,,,,,,,,,
null,,confidence_buffer,729016,confidence_buffer,,null,,,,,,,,,,,,,,,,,
null,,thebreak,729517,break,,null,,,,,,,,,,,,,,,,,
3077.60000000149,,realistic_rating,732595,Decatur,,53,Decatur,5,,,,,,,,,,,,,,,
null,,confidence_buffer,732697,confidence_buffer,,null,,,,,,,,,,,,,,,,,
7722,,pt2_unique_rating,740420,Decatur,,50,,2,,,,,,,,,,,,,,,
null,,confidence_buffer,740522,confidence_buffer,,null,,,,,,,,,,,,,,,,,
1480.9000000003725,,pt2_memorable_rating,742003,Decatur,,51,,3,,,,,,,,,,,,,,,
null,,confidence_buffer,742105,confidence_buffer,,null,,,,,,,,,,,,,,,,,
3057.2000000011176,,recognition_phase,745163,Decatur,,52,,,,,new,1,1,,,,,,,,,,
null,,confidence_buffer,745265,confidence_buffer,,null,,,,,,,,,,,,,,,,,
null,,thebreak,745768,break,,null,,,,,,,,,,,,,,,,,
3003,,realistic_rating,748771,Gainesville,,53,Gainesville,5,,,,,,,,,,,,,,,
null,,confidence_buffer,748873,confidence_buffer,,null,,,,,,,,,,,,,,,,,
2722.199999999255,,pt2_unique_rating,751596,Gainesville,,50,,2,,,,,,,,,,,,,,,
null,,confidence_buffer,751697,confidence_buffer,,null,,,,,,,,,,,,,,,,,
1921.2000000011176,,pt2_memorable_rating,753619,Gainesville,,51,,3,,,,,,,,,,,,,,,
null,,confidence_buffer,753721,confidence_buffer,,null,,,,,,,,,,,,,,,,,
2265.2999999988824,,recognition_phase,755987,Gainesville,,52,,,,,new,1,1,,,,,,,,,,
null,,confidence_buffer,756090,confidence_buffer,,null,,,,,,,,,,,,,,,,,
null,,thebreak,756591,break,,null,,,,,,,,,,,,,,,,,
2851.0999999996275,,realistic_rating,759443,Bellingham,,53,Bellingham,5,,,,,,,,,,,,,,,
null,,confidence_buffer,759546,confidence_buffer,,null,,,,,,,,,,,,,,,,,
3745,,pt2_unique_rating,763292,Bellingham,,49,,1,,,,,,,,,,,,,,,
null,,confidence_buffer,763394,confidence_buffer,,null,,,,,,,,,,,,,,,,,
4168.10000000149,,pt2_memorable_rating,767563,Bellingham,,50,,2,,,,,,,,,,,,,,,
null,,confidence_buffer,767665,confidence_buffer,,null,,,,,,,,,,,,,,,,,
2601.2000000011176,,recognition_phase,770267,Bellingham,,52,,,,,new,1,1,,,,,,,,,,
null,,confidence_buffer,770369,confidence_buffer,,null,,,,,,,,,,,,,,,,,
null,,thebreak,770871,break,,null,,,,,,,,,,,,,,,,,
2891.7999999988824,,realistic_rating,773764,Yakima,,53,Yakima,5,,,,,,,,,,,,,,,
null,,confidence_buffer,773866,confidence_buffer,,null,,,,,,,,,,,,,,,,,
3304.9000000003725,,pt2_unique_rating,777171,Yakima,,52,,4,,,,,,,,,,,,,,,
null,,confidence_buffer,777273,confidence_buffer,,null,,,,,,,,,,,,,,,,,
2145.0999999996275,,pt2_memorable_rating,779419,Yakima,,53,,5,,,,,,,,,,,,,,,
null,,confidence_buffer,779521,confidence_buffer,,null,,,,,,,,,,,,,,,,,
2185.9000000003725,,recognition_phase,781707,Yakima,,49,,,,,old,1,1,,,,,,,,,,
null,,confidence_buffer,781809,confidence_buffer,,null,,,,,,,,,,,,,,,,,
null,,thebreak,782311,break,,null,,,,,,,,,,,,,,,,,
2804.199999999255,,realistic_rating,785116,Cambridge,,53,Cambridge,5,,,,,,,,,,,,,,,
null,,confidence_buffer,785218,confidence_buffer,,null,,,,,,,,,,,,,,,,,
1632.699999999255,,pt2_unique_rating,786851,Cambridge,,49,,1,,,,,,,,,,,,,,,
null,,confidence_buffer,786954,confidence_buffer,,null,,,,,,,,,,,,,,,,,
1913,,pt2_memorable_rating,788867,Cambridge,,50,,2,,,,,,,,,,,,,,,
null,,confidence_buffer,788970,confidence_buffer,,null,,,,,,,,,,,,,,,,,
2264.7000000011176,,recognition_phase,791235,Cambridge,,52,,,,,new,1,1,,,,,,,,,,
null,,confidence_buffer,791337,confidence_buffer,,null,,,,,,,,,,,,,,,,,
null,,thebreak,791839,break,,null,,,,,,,,,,,,,,,,,
3195.2000000011176,,realistic_rating,795035,Salem,,53,Salem,5,,,,,,,,,,,,,,,
null,,confidence_buffer,795137,confidence_buffer,,null,,,,,,,,,,,,,,,,,
2113.5,,pt2_unique_rating,797251,Salem,,49,,1,,,,,,,,,,,,,,,
null,,confidence_buffer,797354,confidence_buffer,,null,,,,,,,,,,,,,,,,,
2056.199999999255,,probe_rating,799411,probe_rating,,51,,,3,1,,,,,,,,,,,,,
null,,confidence_buffer,799514,confidence_buffer,,null,,,,,,,,,,,,,,,,,
2200.9000000003725,,pt2_memorable_rating,801715,Salem,,52,,4,,,,,,,,,,,,,,,
null,,confidence_buffer,801817,confidence_buffer,,null,,,,,,,,,,,,,,,,,
2313.4000000003725,,recognition_phase,804131,Salem,,49,,,,,old,1,1,,,,,,,,,,
null,,confidence_buffer,804233,confidence_buffer,,null,,,,,,,,,,,,,,,,,
null,,thebreak,804735,break,,null,,,,,,,,,,,,,,,,,
2828.2999999988824,,realistic_rating,807563,Syracuse,,53,Syracuse,5,,,,,,,,,,,,,,,
null,,confidence_buffer,807665,confidence_buffer,,null,,,,,,,,,,,,,,,,,
1841.1000000014901,,pt2_unique_rating,809507,Syracuse,,49,,1,,,,,,,,,,,,,,,
null,,confidence_buffer,809608,confidence_buffer,,null,,,,,,,,,,,,,,,,,
1369.8999999985099,,pt2_memorable_rating,810979,Syracuse,,50,,2,,,,,,,,,,,,,,,
null,,confidence_buffer,811082,confidence_buffer,,null,,,,,,,,,,,,,,,,,
2304.9000000003725,,recognition_phase,813387,Syracuse,,49,,,,,old,1,1,,,,,,,,,,
null,,confidence_buffer,813489,confidence_buffer,,null,,,,,,,,,,,,,,,,,
null,,thebreak,813991,break,,null,,,,,,,,,,,,,,,,,
2755.4000000003725,,realistic_rating,816747,Berkeley,,53,Berkeley,5,,,,,,,,,,,,,,,
null,,confidence_buffer,816850,confidence_buffer,,null,,,,,,,,,,,,,,,,,
3016.9000000003725,,pt2_unique_rating,819867,Berkeley,,51,,3,,,,,,,,,,,,,,,
null,,confidence_buffer,819969,confidence_buffer,,null,,,,,,,,,,,,,,,,,
1481,,pt2_memorable_rating,821451,Berkeley,,52,,4,,,,,,,,,,,,,,,
null,,confidence_buffer,821554,confidence_buffer,,null,,,,,,,,,,,,,,,,,
2088.5,,recognition_phase,823643,Berkeley,,49,,,,,old,1,1,,,,,,,,,,
null,,confidence_buffer,823746,confidence_buffer,,null,,,,,,,,,,,,,,,,,
null,,thebreak,824248,break,,null,,,,,,,,,,,,,,,,,
2858.7999999988824,,realistic_rating,827107,Burlington,,53,Burlington,5,,,,,,,,,,,,,,,
null,,confidence_buffer,827209,confidence_buffer,,null,,,,,,,,,,,,,,,,,
2329.7000000011176,,pt2_unique_rating,829539,Burlington,,49,,1,,,,,,,,,,,,,,,
null,,confidence_buffer,829640,confidence_buffer,,null,,,,,,,,,,,,,,,,,
1762.4000000003725,,pt2_memorable_rating,831403,Burlington,,50,,2,,,,,,,,,,,,,,,
null,,confidence_buffer,831505,confidence_buffer,,null,,,,,,,,,,,,,,,,,
2545.7999999970198,,recognition_phase,834051,Burlington,,49,,,,,old,1,1,,,,,,,,,,
null,,confidence_buffer,834154,confidence_buffer,,null,,,,,,,,,,,,,,,,,
null,,thebreak,834655,break,,null,,,,,,,,,,,,,,,,,
2683.39999999851,,realistic_rating,837339,Olympia,,53,Olympia,5,,,,,,,,,,,,,,,
null,,confidence_buffer,837441,confidence_buffer,,null,,,,,,,,,,,,,,,,,
1793.5,,probe_rating,839235,probe_rating,,50,,,2,1,,,,,,,,,,,,,
null,,confidence_buffer,839337,confidence_buffer,,null,,,,,,,,,,,,,,,,,
1673.0999999977648,,pt2_unique_rating,841011,Olympia,,49,,1,,,,,,,,,,,,,,,
null,,confidence_buffer,841113,confidence_buffer,,null,,,,,,,,,,,,,,,,,
1585.300000000745,,pt2_memorable_rating,842699,Olympia,,50,,2,,,,,,,,,,,,,,,
null,,confidence_buffer,842801,confidence_buffer,,null,,,,,,,,,,,,,,,,,
2201.099999997765,,recognition_phase,845003,Olympia,,52,,,,,new,1,1,,,,,,,,,,
null,,confidence_buffer,845105,confidence_buffer,,null,,,,,,,,,,,,,,,,,
null,,thebreak,845607,break,,null,,,,,,,,,,,,,,,,,
4578.800000000745,,realistic_rating,850187,Stamford,,53,Stamford,5,,,,,,,,,,,,,,,
null,,confidence_buffer,850290,confidence_buffer,,null,,,,,,,,,,,,,,,,,
2577.10000000149,,pt2_unique_rating,852867,Stamford,,50,,2,,,,,,,,,,,,,,,
null,,confidence_buffer,852969,confidence_buffer,,null,,,,,,,,,,,,,,,,,
1697.199999999255,,pt2_memorable_rating,854667,Stamford,,50,,2,,,,,,,,,,,,,,,
null,,confidence_buffer,854770,confidence_buffer,,null,,,,,,,,,,,,,,,,,
2544.599999997765,,recognition_phase,857315,Stamford,,52,,,,,new,1,1,,,,,,,,,,
null,,confidence_buffer,857417,confidence_buffer,,null,,,,,,,,,,,,,,,,,
null,,thebreak,857920,break,,null,,,,,,,,,,,,,,,,,
2450.699999999255,,realistic_rating,860371,Peoria,,53,Peoria,5,,,,,,,,,,,,,,,
null,,confidence_buffer,860473,confidence_buffer,,null,,,,,,,,,,,,,,,,,
4433.300000000745,,pt2_unique_rating,864907,Peoria,,49,,1,,,,,,,,,,,,,,,
null,,confidence_buffer,865010,confidence_buffer,,null,,,,,,,,,,,,,,,,,
1584.4000000022352,,pt2_memorable_rating,866595,Peoria,,50,,2,,,,,,,,,,,,,,,
null,,confidence_buffer,866696,confidence_buffer,,null,,,,,,,,,,,,,,,,,
2170.2999999970198,,recognition_phase,868867,Peoria,,49,,,,,old,1,1,,,,,,,,,,
null,,confidence_buffer,868969,confidence_buffer,,null,,,,,,,,,,,,,,,,,
null,,thebreak,869472,break,,null,,,,,,,,,,,,,,,,,
4210.79999999702,,realistic_rating,873683,Norfolk,,53,Norfolk,5,,,,,,,,,,,,,,,
null,,confidence_buffer,873786,confidence_buffer,,null,,,,,,,,,,,,,,,,,
2872.7000000029802,,pt2_unique_rating,876659,Norfolk,,49,,1,,,,,,,,,,,,,,,
null,,confidence_buffer,876762,confidence_buffer,,null,,,,,,,,,,,,,,,,,
1480.8999999985099,,pt2_memorable_rating,878243,Norfolk,,50,,2,,,,,,,,,,,,,,,
null,,confidence_buffer,878345,confidence_buffer,,null,,,,,,,,,,,,,,,,,
1841.199999999255,,recognition_phase,880187,Norfolk,,49,,,,,old,1,1,,,,,,,,,,
null,,confidence_buffer,880290,confidence_buffer,,null,,,,,,,,,,,,,,,,,
null,,thebreak,880792,break,,null,,,,,,,,,,,,,,,,,
3610.800000000745,,realistic_rating,884403,Ithaca,,53,Ithaca,5,,,,,,,,,,,,,,,
null,,confidence_buffer,884505,confidence_buffer,,null,,,,,,,,,,,,,,,,,
2761.599999997765,,pt2_unique_rating,887267,Ithaca,,49,,1,,,,,,,,,,,,,,,
null,,confidence_buffer,887370,confidence_buffer,,null,,,,,,,,,,,,,,,,,
936.6999999992549,,pt2_memorable_rating,888307,Ithaca,,50,,2,,,,,,,,,,,,,,,
null,,confidence_buffer,888409,confidence_buffer,,null,,,,,,,,,,,,,,,,,
1441.199999999255,,recognition_phase,889851,Ithaca,,49,,,,,old,1,1,,,,,,,,,,
null,,confidence_buffer,889953,confidence_buffer,,null,,,,,,,,,,,,,,,,,
null,,thebreak,890455,break,,null,,,,,,,,,,,,,,,,,
2707.400000002235,,realistic_rating,893163,Boulder,,53,Boulder,5,,,,,,,,,,,,,,,
null,,confidence_buffer,893265,confidence_buffer,,null,,,,,,,,,,,,,,,,,
1945.4000000022352,,probe_rating,895211,probe_rating,,53,,,5,1,,,,,,,,,,,,,
null,,confidence_buffer,895313,confidence_buffer,,null,,,,,,,,,,,,,,,,,
2993.60000000149,,pt2_unique_rating,898307,Boulder,,49,,1,,,,,,,,,,,,,,,
null,,confidence_buffer,898410,confidence_buffer,,null,,,,,,,,,,,,,,,,,
2728.89999999851,,pt2_memorable_rating,901139,Boulder,,53,,5,,,,,,,,,,,,,,,
null,,confidence_buffer,901241,confidence_buffer,,null,,,,,,,,,,,,,,,,,
2232.699999999255,,recognition_phase,903475,Boulder,,52,,,,,new,1,1,,,,,,,,,,
null,,confidence_buffer,903577,confidence_buffer,,null,,,,,,,,,,,,,,,,,
null,,thebreak,904078,break,,null,,,,,,,,,,,,,,,,,
4476.70000000298,,realistic_rating,908555,Annapolis,,53,Annapolis,5,,,,,,,,,,,,,,,
null,,confidence_buffer,908658,confidence_buffer,,null,,,,,,,,,,,,,,,,,
2480.699999999255,,pt2_unique_rating,911139,Annapolis,,52,,4,,,,,,,,,,,,,,,
null,,confidence_buffer,911241,confidence_buffer,,null,,,,,,,,,,,,,,,,,
1457.199999999255,,pt2_memorable_rating,912699,Annapolis,,52,,4,,,,,,,,,,,,,,,
null,,confidence_buffer,912801,confidence_buffer,,null,,,,,,,,,,,,,,,,,
2097.10000000149,,recognition_phase,914899,Annapolis,,49,,,,,old,1,1,,,,,,,,,,
null,,confidence_buffer,915001,confidence_buffer,,null,,,,,,,,,,,,,,,,,
null,,thebreak,915503,break,,null,,,,,,,,,,,,,,,,,
3771.699999999255,,realistic_rating,919275,Rock Springs,,53,Rock Springs,5,,,,,,,,,,,,,,,
null,,confidence_buffer,919377,confidence_buffer,,null,,,,,,,,,,,,,,,,,
2785.10000000149,,pt2_unique_rating,922163,Rock Springs,,50,,2,,,,,,,,,,,,,,,
null,,confidence_buffer,922265,confidence_buffer,,null,,,,,,,,,,,,,,,,,
1585.300000000745,,pt2_memorable_rating,923851,Rock Springs,,51,,3,,,,,,,,,,,,,,,
null,,confidence_buffer,923954,confidence_buffer,,null,,,,,,,,,,,,,,,,,
2616.39999999851,,recognition_phase,926571,Rock Springs,,52,,,,,new,1,1,,,,,,,,,,
null,,confidence_buffer,926673,confidence_buffer,,null,,,,,,,,,,,,,,,,,
null,,thebreak,927175,break,,null,,,,,,,,,,,,,,,,,
2539.5,,realistic_rating,929715,Fargo,,53,Fargo,5,,,,,,,,,,,,,,,
null,,confidence_buffer,929817,confidence_buffer,,null,,,,,,,,,,,,,,,,,
3425.300000000745,,pt2_unique_rating,933243,Fargo,,52,,4,,,,,,,,,,,,,,,
null,,confidence_buffer,933345,confidence_buffer,,null,,,,,,,,,,,,,,,,,
1432.9000000022352,,probe_rating,934779,probe_rating,,52,,,4,1,,,,,,,,,,,,,
null,,confidence_buffer,934881,confidence_buffer,,null,,,,,,,,,,,,,,,,,
5569.60000000149,,pt2_memorable_rating,940451,Fargo,,53,,5,,,,,,,,,,,,,,,
null,,confidence_buffer,940553,confidence_buffer,,null,,,,,,,,,,,,,,,,,
2232.699999999255,,recognition_phase,942787,Fargo,,52,,,,,new,1,1,,,,,,,,,,
null,,confidence_buffer,942889,confidence_buffer,,null,,,,,,,,,,,,,,,,,
null,,thebreak,943392,break,,null,,,,,,,,,,,,,,,,,
3594.2999999970198,,realistic_rating,946987,Topeka,,53,Topeka,5,,,,,,,,,,,,,,,
null,,confidence_buffer,947089,confidence_buffer,,null,,,,,,,,,,,,,,,,,
5617.89999999851,,pt2_unique_rating,952707,Topeka,,52,,4,,,,,,,,,,,,,,,
null,,confidence_buffer,952809,confidence_buffer,,null,,,,,,,,,,,,,,,,,
1657,,pt2_memorable_rating,954467,Topeka,,52,,4,,,,,,,,,,,,,,,
null,,confidence_buffer,954569,confidence_buffer,,null,,,,,,,,,,,,,,,,,
3536.900000002235,,recognition_phase,958107,Topeka,,52,,,,,new,1,1,,,,,,,,,,
null,,confidence_buffer,958209,confidence_buffer,,null,,,,,,,,,,,,,,,,,
null,,thebreak,958711,break,,null,,,,,,,,,,,,,,,,,
3915.60000000149,,realistic_rating,962627,Altoona,,53,Altoona,5,,,,,,,,,,,,,,,
null,,confidence_buffer,962728,confidence_buffer,,null,,,,,,,,,,,,,,,,,
6514.199999999255,,pt2_unique_rating,969243,Altoona,,52,,4,,,,,,,,,,,,,,,
null,,confidence_buffer,969345,confidence_buffer,,null,,,,,,,,,,,,,,,,,
2936.699999999255,,pt2_memorable_rating,972283,Altoona,,53,,5,,,,,,,,,,,,,,,
null,,confidence_buffer,972385,confidence_buffer,,null,,,,,,,,,,,,,,,,,
4137.5,,recognition_phase,976528,Altoona,,50,,,,,old,1,1,,,,,,,,,,
null,,confidence_buffer,976630,confidence_buffer,,null,,,,,,,,,,,,,,,,,
null,,thebreak,977133,break,,null,,,,,,,,,,,,,,,,,
2715.5,,realistic_rating,979851,Athens,,53,Athens,5,,,,,,,,,,,,,,,
null,,confidence_buffer,979953,confidence_buffer,,null,,,,,,,,,,,,,,,,,
1840.800000000745,,pt2_unique_rating,981796,Athens,,49,,1,,,,,,,,,,,,,,,
null,,confidence_buffer,981899,confidence_buffer,,null,,,,,,,,,,,,,,,,,
1560.3999999985099,,pt2_memorable_rating,983461,Athens,,50,,2,,,,,,,,,,,,,,,
null,,confidence_buffer,983564,confidence_buffer,,null,,,,,,,,,,,,,,,,,
2000.4000000022352,,recognition_phase,985567,Athens,,49,,,,,old,1,1,,,,,,,,,,
null,,confidence_buffer,985668,confidence_buffer,,null,,,,,,,,,,,,,,,,,
null,,thebreak,986171,break,,null,,,,,,,,,,,,,,,,,
3739.39999999851,,realistic_rating,989913,Bozeman,,53,Bozeman,5,,,,,,,,,,,,,,,
null,,confidence_buffer,990015,confidence_buffer,,null,,,,,,,,,,,,,,,,,
4136.39999999851,,pt2_unique_rating,994154,Bozeman,,52,,4,,,,,,,,,,,,,,,
null,,confidence_buffer,994256,confidence_buffer,,null,,,,,,,,,,,,,,,,,
2385.39999999851,,pt2_memorable_rating,996643,Bozeman,,53,,5,,,,,,,,,,,,,,,
null,,confidence_buffer,996746,confidence_buffer,,null,,,,,,,,,,,,,,,,,
1968.2999999970198,,recognition_phase,998715,Bozeman,,49,,,,,old,1,1,,,,,,,,,,
null,,confidence_buffer,998818,confidence_buffer,,null,,,,,,,,,,,,,,,,,
null,,thebreak,999320,break,,null,,,,,,,,,,,,,,,,,
2954.800000000745,,realistic_rating,1002276,Marquette,,53,Marquette,5,,,,,,,,,,,,,,,
null,,confidence_buffer,1002379,confidence_buffer,,null,,,,,,,,,,,,,,,,,
3672.800000000745,,pt2_unique_rating,1006053,Marquette,,50,,2,,,,,,,,,,,,,,,
null,,confidence_buffer,1006154,confidence_buffer,,null,,,,,,,,,,,,,,,,,
1842.199999999255,,pt2_memorable_rating,1007997,Marquette,,51,,3,,,,,,,,,,,,,,,
null,,confidence_buffer,1008099,confidence_buffer,,null,,,,,,,,,,,,,,,,,
2745.5,,recognition_phase,1010845,Marquette,,52,,,,,new,1,1,,,,,,,,,,
null,,confidence_buffer,1010947,confidence_buffer,,null,,,,,,,,,,,,,,,,,
null,,thebreak,1011448,break,,null,,,,,,,,,,,,,,,,,
4748.400000002235,,realistic_rating,1016198,Fort Wayne,,53,Fort Wayne,5,,,,,,,,,,,,,,,
null,,confidence_buffer,1016300,confidence_buffer,,null,,,,,,,,,,,,,,,,,
2920.800000000745,,pt2_unique_rating,1019222,Fort Wayne,,50,,2,,,,,,,,,,,,,,,
null,,confidence_buffer,1019324,confidence_buffer,,null,,,,,,,,,,,,,,,,,
1377.5999999977648,,pt2_memorable_rating,1020702,Fort Wayne,,50,,2,,,,,,,,,,,,,,,
null,,confidence_buffer,1020804,confidence_buffer,,null,,,,,,,,,,,,,,,,,
3760.800000000745,,recognition_phase,1024566,Fort Wayne,,50,,,,,old,1,1,,,,,,,,,,
null,,confidence_buffer,1024668,confidence_buffer,,null,,,,,,,,,,,,,,,,,
null,,thebreak,1025170,break,,null,,,,,,,,,,,,,,,,,
2955.699999999255,,realistic_rating,1028127,Boise,,53,Boise,5,,,,,,,,,,,,,,,
null,,confidence_buffer,1028229,confidence_buffer,,null,,,,,,,,,,,,,,,,,
4153.199999999255,,pt2_unique_rating,1032383,Boise,,52,,4,,,,,,,,,,,,,,,
null,,confidence_buffer,1032484,confidence_buffer,,null,,,,,,,,,,,,,,,,,
1809.5,,pt2_memorable_rating,1034295,Boise,,52,,4,,,,,,,,,,,,,,,
null,,confidence_buffer,1034397,confidence_buffer,,null,,,,,,,,,,,,,,,,,
3064.900000002235,,recognition_phase,1037463,Boise,,52,,,,,new,1,1,,,,,,,,,,
null,,confidence_buffer,1037565,confidence_buffer,,null,,,,,,,,,,,,,,,,,
null,,thebreak,1038067,break,,null,,,,,,,,,,,,,,,,,
3579.10000000149,,realistic_rating,1041647,Montpelier,,53,Montpelier,5,,,,,,,,,,,,,,,
null,,confidence_buffer,1041749,confidence_buffer,,null,,,,,,,,,,,,,,,,,
3337.39999999851,,pt2_unique_rating,1045087,Montpelier,,50,,2,,,,,,,,,,,,,,,
null,,confidence_buffer,1045189,confidence_buffer,,null,,,,,,,,,,,,,,,,,
2305.400000002235,,pt2_memorable_rating,1047495,Montpelier,,51,,3,,,,,,,,,,,,,,,
null,,confidence_buffer,1047598,confidence_buffer,,null,,,,,,,,,,,,,,,,,
3776.599999997765,,recognition_phase,1051375,Montpelier,,52,,,,,new,1,1,,,,,,,,,,
null,,confidence_buffer,1051477,confidence_buffer,,null,,,,,,,,,,,,,,,,,
null,,thebreak,1051979,break,,null,,,,,,,,,,,,,,,,,
2995.400000002235,,realistic_rating,1054975,Carson City,,53,Carson City,5,,,,,,,,,,,,,,,
null,,confidence_buffer,1055077,confidence_buffer,,null,,,,,,,,,,,,,,,,,
3712.800000000745,,pt2_unique_rating,1058791,Carson City,,51,,3,,,,,,,,,,,,,,,
null,,confidence_buffer,1058894,confidence_buffer,,null,,,,,,,,,,,,,,,,,
2248.5,,pt2_memorable_rating,1061143,Carson City,,51,,3,,,,,,,,,,,,,,,
null,,confidence_buffer,1061246,confidence_buffer,,null,,,,,,,,,,,,,,,,,
2896.699999999255,,recognition_phase,1064143,Carson City,,49,,,,,old,1,1,,,,,,,,,,
null,,confidence_buffer,1064245,confidence_buffer,,null,,,,,,,,,,,,,,,,,
null,,thebreak,1064747,break,,null,,,,,,,,,,,,,,,,,
2827.300000000745,,realistic_rating,1067575,Tallahassee,,53,Tallahassee,5,,,,,,,,,,,,,,,
null,,confidence_buffer,1067678,confidence_buffer,,null,,,,,,,,,,,,,,,,,
6320.79999999702,,pt2_unique_rating,1073999,Tallahassee,,52,,4,,,,,,,,,,,,,,,
null,,confidence_buffer,1074101,confidence_buffer,,null,,,,,,,,,,,,,,,,,
1593.4000000022352,,pt2_memorable_rating,1075695,Tallahassee,,52,,4,,,,,,,,,,,,,,,
null,,confidence_buffer,1075797,confidence_buffer,,null,,,,,,,,,,,,,,,,,
2505.5,,recognition_phase,1078304,Tallahassee,,49,,,,,old,1,1,,,,,,,,,,
null,,confidence_buffer,1078405,confidence_buffer,,null,,,,,,,,,,,,,,,,,
null,,thebreak,1078908,break,,null,,,,,,,,,,,,,,,,,
7074.800000000745,,realistic_rating,1085983,New Haven,,53,New Haven,5,,,,,,,,,,,,,,,
null,,confidence_buffer,1086085,confidence_buffer,,null,,,,,,,,,,,,,,,,,
3569.599999997765,,pt2_unique_rating,1089656,New Haven,,50,,2,,,,,,,,,,,,,,,
null,,confidence_buffer,1089758,confidence_buffer,,null,,,,,,,,,,,,,,,,,
1584.800000000745,,pt2_memorable_rating,1091343,New Haven,,51,,3,,,,,,,,,,,,,,,
null,,confidence_buffer,1091445,confidence_buffer,,null,,,,,,,,,,,,,,,,,
4025.199999999255,,recognition_phase,1095471,New Haven,,49,,,,,old,1,1,,,,,,,,,,
null,,confidence_buffer,1095573,confidence_buffer,,null,,,,,,,,,,,,,,,,,
null,,thebreak,1096075,break,,null,,,,,,,,,,,,,,,,,
3043.10000000149,,realistic_rating,1099119,Concord,,53,Concord,5,,,,,,,,,,,,,,,
null,,confidence_buffer,1099221,confidence_buffer,,null,,,,,,,,,,,,,,,,,
4649.70000000298,,pt2_unique_rating,1103872,Concord,,49,,1,,,,,,,,,,,,,,,
null,,confidence_buffer,1103974,confidence_buffer,,null,,,,,,,,,,,,,,,,,
2032.6000000014901,,pt2_memorable_rating,1106007,Concord,,50,,2,,,,,,,,,,,,,,,
null,,confidence_buffer,1106110,confidence_buffer,,null,,,,,,,,,,,,,,,,,
2577,,recognition_phase,1108687,Concord,,52,,,,,new,1,1,,,,,,,,,,
null,,confidence_buffer,1108789,confidence_buffer,,null,,,,,,,,,,,,,,,,,
null,,thebreak,1109291,break,,null,,,,,,,,,,,,,,,,,
2476,,realistic_rating,1111767,Newport News,,53,Newport News,5,,,,,,,,,,,,,,,
null,,confidence_buffer,1111869,confidence_buffer,,null,,,,,,,,,,,,,,,,,
8169.699999999255,,pt2_unique_rating,1120040,Newport News,,52,,4,,,,,,,,,,,,,,,
null,,confidence_buffer,1120142,confidence_buffer,,null,,,,,,,,,,,,,,,,,
2080.89999999851,,pt2_memorable_rating,1122224,Newport News,,52,,4,,,,,,,,,,,,,,,
null,,confidence_buffer,1122326,confidence_buffer,,null,,,,,,,,,,,,,,,,,
2408.300000000745,,recognition_phase,1124735,Newport News,,52,,,,,new,1,1,,,,,,,,,,
null,,confidence_buffer,1124837,confidence_buffer,,null,,,,,,,,,,,,,,,,,
null,,thebreak,1125340,break,,null,,,,,,,,,,,,,,,,,
,,survey,1495100,survey-questions,,,,,,,,,,none,high,I was not doing anything else.,I just called up a mental image of the town.,I was familiar with all of the town names; but I have also visited many of them.  ,I was trying to think of how easy it would be to remember the town name if I was driving through en route to another town.,If I couldn't think of another town of that name; I gave it a higher rating.,It seemed to me that they were all real towns; except perhaps for one.,No.,Seems about right to me.  In the second section I started to question whether the town was mentioned before.
