rt,responses,trial_type,time_elapsed,stimulus,button_pressed,key_press,name_trial,rating,probe,probe_accuracy,response,correct,accuracy,problems,smooth,distraction,strategies,familiar,memorable,unique,realistic,similar,comments
8438.89999999106,{worker_id:5d0dd940312297000137d2a7},id_enter,8447,,,,,,,,,,,,,,,,,,,,
20438.09999999404,,fullscreen,28899,fullscreen,0,,,,,,,,,,,,,,,,,,
2617.5,,intro_0,31523,instruct,,32,,,,,,,,,,,,,,,,,
13812.10000000894,,intro_1,45337,instruct,,32,,,,,,,,,,,,,,,,,
29217,,intro_2,74555,instruct,,32,,,,,,,,,,,,,,,,,
null,,instruct_dir_4,76063,instruct,,null,,,,,,,,,,,,,,,,,
null,,thebreak,76579,break,,null,,,,,,,,,,,,,,,,,
31662.89999999106,,familiar_rating,108247,Marquette,,51,Marquette,3,,,,,,,,,,,,,,,
null,,confidence_buffer,108355,confidence_buffer,,null,,,,,,,,,,,,,,,,,
15290.20000000298,,unique_rating,123647,Marquette,,51,,3,,,,,,,,,,,,,,,
null,,confidence_buffer,123755,confidence_buffer,,null,,,,,,,,,,,,,,,,,
8810.79999999702,,memorable_rating,132567,Marquette,,51,,3,,,,,,,,,,,,,,,
null,,confidence_buffer,132671,confidence_buffer,,null,,,,,,,,,,,,,,,,,
null,,thebreak,133180,break,,null,,,,,,,,,,,,,,,,,
9609.59999999404,,familiar_rating,142791,Yakima,,51,Yakima,3,,,,,,,,,,,,,,,
null,,confidence_buffer,142894,confidence_buffer,,null,,,,,,,,,,,,,,,,,
2506.7999999970198,,probe_rating,145402,probe_rating,,51,,,3,1,,,,,,,,,,,,,
null,,confidence_buffer,145512,confidence_buffer,,null,,,,,,,,,,,,,,,,,
9826.60000000894,,unique_rating,155340,Yakima,,53,,5,,,,,,,,,,,,,,,
null,,confidence_buffer,155455,confidence_buffer,,null,,,,,,,,,,,,,,,,,
4871.199999988079,,memorable_rating,160327,Yakima,,52,,4,,,,,,,,,,,,,,,
null,,confidence_buffer,160435,confidence_buffer,,null,,,,,,,,,,,,,,,,,
null,,thebreak,160938,break,,null,,,,,,,,,,,,,,,,,
5061.20000000298,,familiar_rating,166001,Champaign,,51,Champaign,3,,,,,,,,,,,,,,,
null,,confidence_buffer,166110,confidence_buffer,,null,,,,,,,,,,,,,,,,,
2294,,unique_rating,168406,Champaign,,51,,3,,,,,,,,,,,,,,,
null,,confidence_buffer,168511,confidence_buffer,,null,,,,,,,,,,,,,,,,,
5235.899999991059,,memorable_rating,173748,Champaign,,51,,3,,,,,,,,,,,,,,,
null,,confidence_buffer,173853,confidence_buffer,,null,,,,,,,,,,,,,,,,,
null,,thebreak,174359,break,,null,,,,,,,,,,,,,,,,,
2863.199999988079,,familiar_rating,177223,Concord,,51,Concord,3,,,,,,,,,,,,,,,
null,,confidence_buffer,177330,confidence_buffer,,null,,,,,,,,,,,,,,,,,
3216.5999999940395,,unique_rating,180548,Concord,,51,,3,,,,,,,,,,,,,,,
null,,confidence_buffer,180663,confidence_buffer,,null,,,,,,,,,,,,,,,,,
2738.2999999970198,,memorable_rating,183403,Concord,,51,,3,,,,,,,,,,,,,,,
null,,confidence_buffer,183509,confidence_buffer,,null,,,,,,,,,,,,,,,,,
3159,,probe_rating,186669,probe_rating,,53,,,5,1,,,,,,,,,,,,,
null,,confidence_buffer,186776,confidence_buffer,,null,,,,,,,,,,,,,,,,,
null,,thebreak,187282,break,,null,,,,,,,,,,,,,,,,,
6408.0999999940395,,familiar_rating,193691,Montpelier,,51,Montpelier,3,,,,,,,,,,,,,,,
null,,confidence_buffer,193799,confidence_buffer,,null,,,,,,,,,,,,,,,,,
4419.800000011921,,unique_rating,198220,Montpelier,,53,,5,,,,,,,,,,,,,,,
null,,confidence_buffer,198324,confidence_buffer,,null,,,,,,,,,,,,,,,,,
3992.9000000059605,,memorable_rating,202318,Montpelier,,52,,4,,,,,,,,,,,,,,,
null,,confidence_buffer,202429,confidence_buffer,,null,,,,,,,,,,,,,,,,,
2680.5,,probe_rating,205111,probe_rating,,51,,,3,1,,,,,,,,,,,,,
null,,confidence_buffer,205219,confidence_buffer,,null,,,,,,,,,,,,,,,,,
null,,thebreak,205728,break,,null,,,,,,,,,,,,,,,,,
6203,,familiar_rating,211932,Cheyenne,,51,Cheyenne,3,,,,,,,,,,,,,,,
null,,confidence_buffer,212041,confidence_buffer,,null,,,,,,,,,,,,,,,,,
2435.5,,probe_rating,214478,probe_rating,,50,,,2,1,,,,,,,,,,,,,
null,,confidence_buffer,214583,confidence_buffer,,null,,,,,,,,,,,,,,,,,
4212.79999999702,,unique_rating,218797,Cheyenne,,52,,4,,,,,,,,,,,,,,,
null,,confidence_buffer,218908,confidence_buffer,,null,,,,,,,,,,,,,,,,,
3388.8999999910593,,memorable_rating,222299,Cheyenne,,52,,4,,,,,,,,,,,,,,,
null,,confidence_buffer,222416,confidence_buffer,,null,,,,,,,,,,,,,,,,,
null,,thebreak,222922,break,,null,,,,,,,,,,,,,,,,,
2146.4000000059605,,familiar_rating,225069,Peoria,,52,Peoria,4,,,,,,,,,,,,,,,
null,,confidence_buffer,225184,confidence_buffer,,null,,,,,,,,,,,,,,,,,
4486.5999999940395,,unique_rating,229672,Peoria,,52,,4,,,,,,,,,,,,,,,
null,,confidence_buffer,229790,confidence_buffer,,null,,,,,,,,,,,,,,,,,
4100.79999999702,,memorable_rating,233892,Peoria,,53,,5,,,,,,,,,,,,,,,
null,,confidence_buffer,233994,confidence_buffer,,null,,,,,,,,,,,,,,,,,
null,,thebreak,234504,break,,null,,,,,,,,,,,,,,,,,
4628.70000000298,,familiar_rating,239133,Dover,,51,Dover,3,,,,,,,,,,,,,,,
null,,confidence_buffer,239241,confidence_buffer,,null,,,,,,,,,,,,,,,,,
3717.0999999940395,,unique_rating,242959,Dover,,51,,3,,,,,,,,,,,,,,,
null,,confidence_buffer,243073,confidence_buffer,,null,,,,,,,,,,,,,,,,,
3756.1000000089407,,memorable_rating,246830,Dover,,50,,2,,,,,,,,,,,,,,,
null,,confidence_buffer,246932,confidence_buffer,,null,,,,,,,,,,,,,,,,,
null,,thebreak,247442,break,,null,,,,,,,,,,,,,,,,,
4889.399999991059,,familiar_rating,252332,Hagerstown,,50,Hagerstown,2,,,,,,,,,,,,,,,
null,,confidence_buffer,252447,confidence_buffer,,null,,,,,,,,,,,,,,,,,
5356.300000011921,,unique_rating,257805,Hagerstown,,52,,4,,,,,,,,,,,,,,,
null,,confidence_buffer,257911,confidence_buffer,,null,,,,,,,,,,,,,,,,,
5221.70000000298,,memorable_rating,263134,Hagerstown,,52,,4,,,,,,,,,,,,,,,
null,,confidence_buffer,263250,confidence_buffer,,null,,,,,,,,,,,,,,,,,
null,,thebreak,263767,break,,null,,,,,,,,,,,,,,,,,
5058,,familiar_rating,268826,Gainesville,,51,Gainesville,3,,,,,,,,,,,,,,,
null,,confidence_buffer,268941,confidence_buffer,,null,,,,,,,,,,,,,,,,,
2815.5999999940395,,unique_rating,271758,Gainesville,,51,,3,,,,,,,,,,,,,,,
null,,confidence_buffer,271861,confidence_buffer,,null,,,,,,,,,,,,,,,,,
7870.20000000298,,memorable_rating,279733,Gainesville,,52,,4,,,,,,,,,,,,,,,
null,,confidence_buffer,279841,confidence_buffer,,null,,,,,,,,,,,,,,,,,
null,,thebreak,280350,break,,null,,,,,,,,,,,,,,,,,
4099.70000000298,,familiar_rating,284451,Ann Arbor,,51,Ann Arbor,3,,,,,,,,,,,,,,,
null,,confidence_buffer,284567,confidence_buffer,,null,,,,,,,,,,,,,,,,,
2136.2999999970198,,unique_rating,286704,Ann Arbor,,52,,4,,,,,,,,,,,,,,,
null,,confidence_buffer,286817,confidence_buffer,,null,,,,,,,,,,,,,,,,,
2374,,memorable_rating,289192,Ann Arbor,,52,,4,,,,,,,,,,,,,,,
null,,confidence_buffer,289294,confidence_buffer,,null,,,,,,,,,,,,,,,,,
null,,thebreak,289804,break,,null,,,,,,,,,,,,,,,,,
3590.6000000089407,,familiar_rating,293396,Helena,,51,Helena,3,,,,,,,,,,,,,,,
null,,confidence_buffer,293504,confidence_buffer,,null,,,,,,,,,,,,,,,,,
1705.4000000059605,,unique_rating,295210,Helena,,51,,3,,,,,,,,,,,,,,,
null,,confidence_buffer,295318,confidence_buffer,,null,,,,,,,,,,,,,,,,,
5146.5,,memorable_rating,300466,Helena,,52,,4,,,,,,,,,,,,,,,
null,,confidence_buffer,300571,confidence_buffer,,null,,,,,,,,,,,,,,,,,
null,,thebreak,301080,break,,null,,,,,,,,,,,,,,,,,
2957.7999999970198,,familiar_rating,304039,Fargo,,51,Fargo,3,,,,,,,,,,,,,,,
null,,confidence_buffer,304154,confidence_buffer,,null,,,,,,,,,,,,,,,,,
3713.5999999940395,,unique_rating,307869,Fargo,,53,,5,,,,,,,,,,,,,,,
null,,confidence_buffer,307974,confidence_buffer,,null,,,,,,,,,,,,,,,,,
2656.7000000029802,,memorable_rating,310632,Fargo,,53,,5,,,,,,,,,,,,,,,
null,,confidence_buffer,310737,confidence_buffer,,null,,,,,,,,,,,,,,,,,
2382.2000000029802,,probe_rating,313121,probe_rating,,52,,,4,1,,,,,,,,,,,,,
null,,confidence_buffer,313234,confidence_buffer,,null,,,,,,,,,,,,,,,,,
null,,thebreak,313749,break,,null,,,,,,,,,,,,,,,,,
9313.29999999702,,familiar_rating,323064,Reno,,51,Reno,3,,,,,,,,,,,,,,,
null,,confidence_buffer,323166,confidence_buffer,,null,,,,,,,,,,,,,,,,,
4832.20000000298,,unique_rating,327999,Reno,,52,,4,,,,,,,,,,,,,,,
null,,confidence_buffer,328105,confidence_buffer,,null,,,,,,,,,,,,,,,,,
3053.5999999940395,,memorable_rating,331160,Reno,,52,,4,,,,,,,,,,,,,,,
null,,confidence_buffer,331264,confidence_buffer,,null,,,,,,,,,,,,,,,,,
null,,thebreak,331766,break,,null,,,,,,,,,,,,,,,,,
6484.0999999940395,,familiar_rating,338252,Fort Wayne,,51,Fort Wayne,3,,,,,,,,,,,,,,,
null,,confidence_buffer,338360,confidence_buffer,,null,,,,,,,,,,,,,,,,,
3764.5,,unique_rating,342126,Fort Wayne,,51,,3,,,,,,,,,,,,,,,
null,,confidence_buffer,342233,confidence_buffer,,null,,,,,,,,,,,,,,,,,
4328.0999999940395,,memorable_rating,346562,Fort Wayne,,52,,4,,,,,,,,,,,,,,,
null,,confidence_buffer,346671,confidence_buffer,,null,,,,,,,,,,,,,,,,,
null,,thebreak,347173,break,,null,,,,,,,,,,,,,,,,,
6459,,familiar_rating,353634,Terre Haute,,52,Terre Haute,4,,,,,,,,,,,,,,,
null,,confidence_buffer,353745,confidence_buffer,,null,,,,,,,,,,,,,,,,,
3393.4000000059605,,unique_rating,357139,Terre Haute,,52,,4,,,,,,,,,,,,,,,
null,,confidence_buffer,357244,confidence_buffer,,null,,,,,,,,,,,,,,,,,
2867.5999999940395,,memorable_rating,360113,Terre Haute,,52,,4,,,,,,,,,,,,,,,
null,,confidence_buffer,360223,confidence_buffer,,null,,,,,,,,,,,,,,,,,
null,,thebreak,360728,break,,null,,,,,,,,,,,,,,,,,
4487.0999999940395,,familiar_rating,365217,Rock Springs,,51,Rock Springs,3,,,,,,,,,,,,,,,
null,,confidence_buffer,365325,confidence_buffer,,null,,,,,,,,,,,,,,,,,
2578.5,,unique_rating,367904,Rock Springs,,51,,3,,,,,,,,,,,,,,,
null,,confidence_buffer,368014,confidence_buffer,,null,,,,,,,,,,,,,,,,,
2345.7999999970198,,probe_rating,370361,probe_rating,,53,,,5,1,,,,,,,,,,,,,
null,,confidence_buffer,370463,confidence_buffer,,null,,,,,,,,,,,,,,,,,
3750,,memorable_rating,374214,Rock Springs,,51,,3,,,,,,,,,,,,,,,
null,,confidence_buffer,374328,confidence_buffer,,null,,,,,,,,,,,,,,,,,
null,,thebreak,374837,break,,null,,,,,,,,,,,,,,,,,
4087.0999999940395,,familiar_rating,378926,Olympia,,51,Olympia,3,,,,,,,,,,,,,,,
null,,confidence_buffer,379041,confidence_buffer,,null,,,,,,,,,,,,,,,,,
2553.7000000029802,,unique_rating,381595,Olympia,,52,,4,,,,,,,,,,,,,,,
null,,confidence_buffer,381702,confidence_buffer,,null,,,,,,,,,,,,,,,,,
1800.1000000089407,,memorable_rating,383503,Olympia,,52,,4,,,,,,,,,,,,,,,
null,,confidence_buffer,383611,confidence_buffer,,null,,,,,,,,,,,,,,,,,
null,,thebreak,384119,break,,null,,,,,,,,,,,,,,,,,
3508.2000000029802,,familiar_rating,387629,Las Cruces,,51,Las Cruces,3,,,,,,,,,,,,,,,
null,,confidence_buffer,387738,confidence_buffer,,null,,,,,,,,,,,,,,,,,
2811.9000000059605,,unique_rating,390551,Las Cruces,,52,,4,,,,,,,,,,,,,,,
null,,confidence_buffer,390660,confidence_buffer,,null,,,,,,,,,,,,,,,,,
2062.2999999970198,,memorable_rating,392724,Las Cruces,,51,,3,,,,,,,,,,,,,,,
null,,confidence_buffer,392833,confidence_buffer,,null,,,,,,,,,,,,,,,,,
2415.800000011921,,probe_rating,395251,probe_rating,,50,,,2,1,,,,,,,,,,,,,
null,,confidence_buffer,395355,confidence_buffer,,null,,,,,,,,,,,,,,,,,
null,,thebreak,395861,break,,null,,,,,,,,,,,,,,,,,
3854.2999999970198,,familiar_rating,399717,Muncie,,51,Muncie,3,,,,,,,,,,,,,,,
null,,confidence_buffer,399821,confidence_buffer,,null,,,,,,,,,,,,,,,,,
1704.7999999970198,,unique_rating,401527,Muncie,,52,,4,,,,,,,,,,,,,,,
null,,confidence_buffer,401636,confidence_buffer,,null,,,,,,,,,,,,,,,,,
1384.199999988079,,memorable_rating,403022,Muncie,,52,,4,,,,,,,,,,,,,,,
null,,confidence_buffer,403129,confidence_buffer,,null,,,,,,,,,,,,,,,,,
null,,thebreak,403636,break,,null,,,,,,,,,,,,,,,,,
3225.7000000029802,,familiar_rating,406863,Scottsdale,,51,Scottsdale,3,,,,,,,,,,,,,,,
null,,confidence_buffer,406975,confidence_buffer,,null,,,,,,,,,,,,,,,,,
5013.79999999702,,unique_rating,411990,Scottsdale,,51,,3,,,,,,,,,,,,,,,
null,,confidence_buffer,412099,confidence_buffer,,null,,,,,,,,,,,,,,,,,
3572.5,,memorable_rating,415672,Scottsdale,,51,,3,,,,,,,,,,,,,,,
null,,confidence_buffer,415780,confidence_buffer,,null,,,,,,,,,,,,,,,,,
null,,thebreak,416281,break,,null,,,,,,,,,,,,,,,,,
4113.5,,familiar_rating,420396,Annapolis,,52,Annapolis,4,,,,,,,,,,,,,,,
null,,confidence_buffer,420497,confidence_buffer,,null,,,,,,,,,,,,,,,,,
3242.5999999940395,,unique_rating,423741,Annapolis,,52,,4,,,,,,,,,,,,,,,
null,,confidence_buffer,423849,confidence_buffer,,null,,,,,,,,,,,,,,,,,
3800.8999999910593,,memorable_rating,427651,Annapolis,,52,,4,,,,,,,,,,,,,,,
null,,confidence_buffer,427767,confidence_buffer,,null,,,,,,,,,,,,,,,,,
null,,thebreak,428275,break,,null,,,,,,,,,,,,,,,,,
3764.2000000029802,,familiar_rating,432041,Syracuse,,51,Syracuse,3,,,,,,,,,,,,,,,
null,,confidence_buffer,432147,confidence_buffer,,null,,,,,,,,,,,,,,,,,
2178.5999999940395,,unique_rating,434326,Syracuse,,51,,3,,,,,,,,,,,,,,,
null,,confidence_buffer,434436,confidence_buffer,,null,,,,,,,,,,,,,,,,,
2322.5,,memorable_rating,436760,Syracuse,,51,,3,,,,,,,,,,,,,,,
null,,confidence_buffer,436869,confidence_buffer,,null,,,,,,,,,,,,,,,,,
null,,thebreak,437384,break,,null,,,,,,,,,,,,,,,,,
3866.0999999940395,,familiar_rating,441252,Pasadena,,51,Pasadena,3,,,,,,,,,,,,,,,
null,,confidence_buffer,441358,confidence_buffer,,null,,,,,,,,,,,,,,,,,
2869.7999999970198,,unique_rating,444230,Pasadena,,52,,4,,,,,,,,,,,,,,,
null,,confidence_buffer,444335,confidence_buffer,,null,,,,,,,,,,,,,,,,,
3474.2999999970198,,memorable_rating,447811,Pasadena,,52,,4,,,,,,,,,,,,,,,
null,,confidence_buffer,447917,confidence_buffer,,null,,,,,,,,,,,,,,,,,
null,,thebreak,448427,break,,null,,,,,,,,,,,,,,,,,
7362.9000000059605,,familiar_rating,455791,Dothan,,49,Dothan,1,,,,,,,,,,,,,,,
null,,confidence_buffer,455894,confidence_buffer,,null,,,,,,,,,,,,,,,,,
3188.8999999910593,,unique_rating,459084,Dothan,,53,,5,,,,,,,,,,,,,,,
null,,confidence_buffer,459190,confidence_buffer,,null,,,,,,,,,,,,,,,,,
1469.5,,memorable_rating,460661,Dothan,,53,,5,,,,,,,,,,,,,,,
null,,confidence_buffer,460766,confidence_buffer,,null,,,,,,,,,,,,,,,,,
null,,thebreak,461271,break,,null,,,,,,,,,,,,,,,,,
5569.20000000298,,intro_0,466841,instruct,,32,,,,,,,,,,,,,,,,,
11931.09999999404,,intro_1,478773,instruct,,32,,,,,,,,,,,,,,,,,
12096,,intro_2,490870,instruct,,32,,,,,,,,,,,,,,,,,
null,,instruct_dir_4,492373,instruct,,null,,,,,,,,,,,,,,,,,
12377.300000011921,,realistic_rating,504752,Pueblo,,53,Pueblo,5,,,,,,,,,,,,,,,
null,,confidence_buffer,504866,confidence_buffer,,null,,,,,,,,,,,,,,,,,
7161.20000000298,,pt2_unique_rating,512029,Pueblo,,52,,4,,,,,,,,,,,,,,,
null,,confidence_buffer,512136,confidence_buffer,,null,,,,,,,,,,,,,,,,,
5697.199999988079,,pt2_memorable_rating,517834,Pueblo,,52,,4,,,,,,,,,,,,,,,
null,,confidence_buffer,517941,confidence_buffer,,null,,,,,,,,,,,,,,,,,
3580.2000000029802,,recognition_phase,521523,Pueblo,,52,,,,,new,1,1,,,,,,,,,,
null,,confidence_buffer,521629,confidence_buffer,,null,,,,,,,,,,,,,,,,,
null,,thebreak,522132,break,,null,,,,,,,,,,,,,,,,,
10597,,realistic_rating,532730,Peoria,,53,Peoria,5,,,,,,,,,,,,,,,
null,,confidence_buffer,532838,confidence_buffer,,null,,,,,,,,,,,,,,,,,
3390,,pt2_unique_rating,536229,Peoria,,52,,4,,,,,,,,,,,,,,,
null,,confidence_buffer,536333,confidence_buffer,,null,,,,,,,,,,,,,,,,,
3514.4000000059605,,pt2_memorable_rating,539848,Peoria,,52,,4,,,,,,,,,,,,,,,
null,,confidence_buffer,539954,confidence_buffer,,null,,,,,,,,,,,,,,,,,
3593.1000000089407,,recognition_phase,543548,Peoria,,49,,,,,old,1,1,,,,,,,,,,
null,,confidence_buffer,543666,confidence_buffer,,null,,,,,,,,,,,,,,,,,
null,,thebreak,544174,break,,null,,,,,,,,,,,,,,,,,
4397.4000000059605,,realistic_rating,548573,Yakima,,53,Yakima,5,,,,,,,,,,,,,,,
null,,confidence_buffer,548677,confidence_buffer,,null,,,,,,,,,,,,,,,,,
3787.2999999970198,,pt2_unique_rating,552466,Yakima,,52,,4,,,,,,,,,,,,,,,
null,,confidence_buffer,552571,confidence_buffer,,null,,,,,,,,,,,,,,,,,
2507.5999999940395,,pt2_memorable_rating,555080,Yakima,,52,,4,,,,,,,,,,,,,,,
null,,confidence_buffer,555192,confidence_buffer,,null,,,,,,,,,,,,,,,,,
2595.3999999910593,,recognition_phase,557789,Yakima,,49,,,,,old,1,1,,,,,,,,,,
null,,confidence_buffer,557905,confidence_buffer,,null,,,,,,,,,,,,,,,,,
null,,thebreak,558413,break,,null,,,,,,,,,,,,,,,,,
4952.399999991059,,realistic_rating,563366,Ithaca,,53,Ithaca,5,,,,,,,,,,,,,,,
null,,confidence_buffer,563472,confidence_buffer,,null,,,,,,,,,,,,,,,,,
2234.0999999940395,,pt2_unique_rating,565708,Ithaca,,53,,5,,,,,,,,,,,,,,,
null,,confidence_buffer,565811,confidence_buffer,,null,,,,,,,,,,,,,,,,,
2125.699999988079,,pt2_memorable_rating,567938,Ithaca,,53,,5,,,,,,,,,,,,,,,
null,,confidence_buffer,568049,confidence_buffer,,null,,,,,,,,,,,,,,,,,
3859.7000000029802,,recognition_phase,571911,Ithaca,,52,,,,,new,1,1,,,,,,,,,,
null,,confidence_buffer,572015,confidence_buffer,,null,,,,,,,,,,,,,,,,,
null,,thebreak,572517,break,,null,,,,,,,,,,,,,,,,,
4513.5,,realistic_rating,577031,Fargo,,53,Fargo,5,,,,,,,,,,,,,,,
null,,confidence_buffer,577134,confidence_buffer,,null,,,,,,,,,,,,,,,,,
4005.2999999970198,,pt2_unique_rating,581141,Fargo,,52,,4,,,,,,,,,,,,,,,
null,,confidence_buffer,581245,confidence_buffer,,null,,,,,,,,,,,,,,,,,
2491.7000000029802,,pt2_memorable_rating,583738,Fargo,,52,,4,,,,,,,,,,,,,,,
null,,confidence_buffer,583840,confidence_buffer,,null,,,,,,,,,,,,,,,,,
1866.5,,recognition_phase,585708,Fargo,,49,,,,,old,1,1,,,,,,,,,,
null,,confidence_buffer,585826,confidence_buffer,,null,,,,,,,,,,,,,,,,,
null,,thebreak,586340,break,,null,,,,,,,,,,,,,,,,,
3967.2000000029802,,realistic_rating,590309,Berkeley,,53,Berkeley,5,,,,,,,,,,,,,,,
null,,confidence_buffer,590425,confidence_buffer,,null,,,,,,,,,,,,,,,,,
3661.2999999970198,,pt2_unique_rating,594087,Berkeley,,51,,3,,,,,,,,,,,,,,,
null,,confidence_buffer,594195,confidence_buffer,,null,,,,,,,,,,,,,,,,,
2450.5,,pt2_memorable_rating,596646,Berkeley,,51,,3,,,,,,,,,,,,,,,
null,,confidence_buffer,596748,confidence_buffer,,null,,,,,,,,,,,,,,,,,
2920.0999999940395,,recognition_phase,599670,Berkeley,,52,,,,,new,1,1,,,,,,,,,,
null,,confidence_buffer,599786,confidence_buffer,,null,,,,,,,,,,,,,,,,,
null,,thebreak,600288,break,,null,,,,,,,,,,,,,,,,,
3563,,realistic_rating,603853,Ann Arbor,,53,Ann Arbor,5,,,,,,,,,,,,,,,
null,,confidence_buffer,603955,confidence_buffer,,null,,,,,,,,,,,,,,,,,
4384.5999999940395,,pt2_unique_rating,608341,Ann Arbor,,51,,3,,,,,,,,,,,,,,,
null,,confidence_buffer,608449,confidence_buffer,,null,,,,,,,,,,,,,,,,,
2271.7000000029802,,pt2_memorable_rating,610722,Ann Arbor,,52,,4,,,,,,,,,,,,,,,
null,,confidence_buffer,610833,confidence_buffer,,null,,,,,,,,,,,,,,,,,
1712.5999999940395,,recognition_phase,612547,Ann Arbor,,49,,,,,old,1,1,,,,,,,,,,
null,,confidence_buffer,612653,confidence_buffer,,null,,,,,,,,,,,,,,,,,
null,,thebreak,613163,break,,null,,,,,,,,,,,,,,,,,
4449.29999999702,,realistic_rating,617614,Reno,,53,Reno,5,,,,,,,,,,,,,,,
null,,confidence_buffer,617715,confidence_buffer,,null,,,,,,,,,,,,,,,,,
7339.699999988079,,pt2_unique_rating,625056,Reno,,51,,3,,,,,,,,,,,,,,,
null,,confidence_buffer,625160,confidence_buffer,,null,,,,,,,,,,,,,,,,,
2667,,pt2_memorable_rating,627829,Reno,,51,,3,,,,,,,,,,,,,,,
null,,confidence_buffer,627934,confidence_buffer,,null,,,,,,,,,,,,,,,,,
2570.300000011921,,recognition_phase,630506,Reno,,49,,,,,old,1,1,,,,,,,,,,
null,,confidence_buffer,630611,confidence_buffer,,null,,,,,,,,,,,,,,,,,
null,,thebreak,631126,break,,null,,,,,,,,,,,,,,,,,
3262.5,,realistic_rating,634390,Pasadena,,53,Pasadena,5,,,,,,,,,,,,,,,
null,,confidence_buffer,634503,confidence_buffer,,null,,,,,,,,,,,,,,,,,
4638.0999999940395,,pt2_unique_rating,639142,Pasadena,,51,,3,,,,,,,,,,,,,,,
null,,confidence_buffer,639250,confidence_buffer,,null,,,,,,,,,,,,,,,,,
2706,,pt2_memorable_rating,641957,Pasadena,,51,,3,,,,,,,,,,,,,,,
null,,confidence_buffer,642063,confidence_buffer,,null,,,,,,,,,,,,,,,,,
1842.2000000029802,,recognition_phase,643907,Pasadena,,49,,,,,old,1,1,,,,,,,,,,
null,,confidence_buffer,644012,confidence_buffer,,null,,,,,,,,,,,,,,,,,
null,,thebreak,644517,break,,null,,,,,,,,,,,,,,,,,
8084,,realistic_rating,652602,Boulder,,53,Boulder,5,,,,,,,,,,,,,,,
null,,confidence_buffer,652709,confidence_buffer,,null,,,,,,,,,,,,,,,,,
3133.2999999970198,,pt2_unique_rating,655844,Boulder,,51,,3,,,,,,,,,,,,,,,
null,,confidence_buffer,655950,confidence_buffer,,null,,,,,,,,,,,,,,,,,
2739.6000000089407,,pt2_memorable_rating,658690,Boulder,,51,,3,,,,,,,,,,,,,,,
null,,confidence_buffer,658797,confidence_buffer,,null,,,,,,,,,,,,,,,,,
7201,,recognition_phase,665999,Boulder,,51,,,,,new,1,1,,,,,,,,,,
null,,confidence_buffer,666104,confidence_buffer,,null,,,,,,,,,,,,,,,,,
null,,thebreak,666607,break,,null,,,,,,,,,,,,,,,,,
12347,,realistic_rating,678955,Bellingham,,53,Bellingham,5,,,,,,,,,,,,,,,
null,,confidence_buffer,679068,confidence_buffer,,null,,,,,,,,,,,,,,,,,
4439.899999991059,,pt2_unique_rating,683509,Bellingham,,52,,4,,,,,,,,,,,,,,,
null,,confidence_buffer,683619,confidence_buffer,,null,,,,,,,,,,,,,,,,,
4441.399999991059,,pt2_memorable_rating,688061,Bellingham,,51,,3,,,,,,,,,,,,,,,
null,,confidence_buffer,688177,confidence_buffer,,null,,,,,,,,,,,,,,,,,
3656.2000000029802,,recognition_phase,691834,Bellingham,,51,,,,,new,1,1,,,,,,,,,,
null,,confidence_buffer,691941,confidence_buffer,,null,,,,,,,,,,,,,,,,,
null,,thebreak,692447,break,,null,,,,,,,,,,,,,,,,,
3483.4000000059605,,realistic_rating,695932,Fort Collins,,53,Fort Collins,5,,,,,,,,,,,,,,,
null,,confidence_buffer,696041,confidence_buffer,,null,,,,,,,,,,,,,,,,,
2220.1000000089407,,pt2_unique_rating,698263,Fort Collins,,51,,3,,,,,,,,,,,,,,,
null,,confidence_buffer,698364,confidence_buffer,,null,,,,,,,,,,,,,,,,,
1539.2999999970198,,pt2_memorable_rating,699905,Fort Collins,,51,,3,,,,,,,,,,,,,,,
null,,confidence_buffer,700011,confidence_buffer,,null,,,,,,,,,,,,,,,,,
1308.7000000029802,,recognition_phase,701321,Fort Collins,,49,,,,,old,0,0.9166666666666666,,,,,,,,,,
null,,confidence_buffer,701437,confidence_buffer,,null,,,,,,,,,,,,,,,,,
null,,thebreak,701940,break,,null,,,,,,,,,,,,,,,,,
5611,,realistic_rating,707552,Norfolk,,53,Norfolk,5,,,,,,,,,,,,,,,
null,,confidence_buffer,707659,confidence_buffer,,null,,,,,,,,,,,,,,,,,
3299.2999999970198,,pt2_unique_rating,710959,Norfolk,,51,,3,,,,,,,,,,,,,,,
null,,confidence_buffer,711070,confidence_buffer,,null,,,,,,,,,,,,,,,,,
1261.5,,pt2_memorable_rating,712333,Norfolk,,51,,3,,,,,,,,,,,,,,,
null,,confidence_buffer,712436,confidence_buffer,,null,,,,,,,,,,,,,,,,,
2406.2999999970198,,recognition_phase,714844,Norfolk,,50,,,,,old,0,0.8461538461538461,,,,,,,,,,
null,,confidence_buffer,714953,confidence_buffer,,null,,,,,,,,,,,,,,,,,
null,,thebreak,715456,break,,null,,,,,,,,,,,,,,,,,
4630,,realistic_rating,720088,Topeka,,53,Topeka,5,,,,,,,,,,,,,,,
null,,confidence_buffer,720191,confidence_buffer,,null,,,,,,,,,,,,,,,,,
5741.4000000059605,,pt2_unique_rating,725934,Topeka,,51,,3,,,,,,,,,,,,,,,
null,,confidence_buffer,726039,confidence_buffer,,null,,,,,,,,,,,,,,,,,
1556.2999999970198,,pt2_memorable_rating,727597,Topeka,,51,,3,,,,,,,,,,,,,,,
null,,confidence_buffer,727703,confidence_buffer,,null,,,,,,,,,,,,,,,,,
3491.5999999940395,,recognition_phase,731196,Topeka,,50,,,,,old,0,0.7857142857142857,,,,,,,,,,
null,,confidence_buffer,731303,confidence_buffer,,null,,,,,,,,,,,,,,,,,
null,,thebreak,731814,break,,null,,,,,,,,,,,,,,,,,
4008.4000000059605,,realistic_rating,735824,Las Cruces,,53,Las Cruces,5,,,,,,,,,,,,,,,
null,,confidence_buffer,735930,confidence_buffer,,null,,,,,,,,,,,,,,,,,
2740.7000000029802,,pt2_unique_rating,738672,Las Cruces,,51,,3,,,,,,,,,,,,,,,
null,,confidence_buffer,738779,confidence_buffer,,null,,,,,,,,,,,,,,,,,
5217.5999999940395,,pt2_memorable_rating,743998,Las Cruces,,51,,3,,,,,,,,,,,,,,,
null,,confidence_buffer,744101,confidence_buffer,,null,,,,,,,,,,,,,,,,,
4040.9000000059605,,recognition_phase,748143,Las Cruces,,49,,,,,old,1,0.8,,,,,,,,,,
null,,confidence_buffer,748247,confidence_buffer,,null,,,,,,,,,,,,,,,,,
null,,thebreak,748757,break,,null,,,,,,,,,,,,,,,,,
4650.20000000298,,realistic_rating,753408,Fort Wayne,,53,Fort Wayne,5,,,,,,,,,,,,,,,
null,,confidence_buffer,753525,confidence_buffer,,null,,,,,,,,,,,,,,,,,
5832,,pt2_unique_rating,759358,Fort Wayne,,51,,3,,,,,,,,,,,,,,,
null,,confidence_buffer,759461,confidence_buffer,,null,,,,,,,,,,,,,,,,,
2213.2999999970198,,pt2_memorable_rating,761676,Fort Wayne,,51,,3,,,,,,,,,,,,,,,
null,,confidence_buffer,761782,confidence_buffer,,null,,,,,,,,,,,,,,,,,
2833.7000000029802,,recognition_phase,764617,Fort Wayne,,49,,,,,old,1,0.8125,,,,,,,,,,
null,,confidence_buffer,764729,confidence_buffer,,null,,,,,,,,,,,,,,,,,
null,,thebreak,765230,break,,null,,,,,,,,,,,,,,,,,
4287.300000011921,,realistic_rating,769518,New Haven,,53,New Haven,5,,,,,,,,,,,,,,,
null,,confidence_buffer,769623,confidence_buffer,,null,,,,,,,,,,,,,,,,,
2215.5999999940395,,pt2_unique_rating,771839,New Haven,,51,,3,,,,,,,,,,,,,,,
null,,confidence_buffer,771954,confidence_buffer,,null,,,,,,,,,,,,,,,,,
2708.5999999940395,,pt2_memorable_rating,774664,New Haven,,51,,3,,,,,,,,,,,,,,,
null,,confidence_buffer,774774,confidence_buffer,,null,,,,,,,,,,,,,,,,,
7752,,recognition_phase,782527,New Haven,,50,,,,,old,0,0.7647058823529411,,,,,,,,,,
null,,confidence_buffer,782629,confidence_buffer,,null,,,,,,,,,,,,,,,,,
null,,thebreak,783145,break,,null,,,,,,,,,,,,,,,,,
2273.199999988079,,realistic_rating,785419,Dover,,53,Dover,5,,,,,,,,,,,,,,,
null,,confidence_buffer,785529,confidence_buffer,,null,,,,,,,,,,,,,,,,,
3881.9000000059605,,pt2_unique_rating,789412,Dover,,51,,3,,,,,,,,,,,,,,,
null,,confidence_buffer,789529,confidence_buffer,,null,,,,,,,,,,,,,,,,,
2895.7999999970198,,pt2_memorable_rating,792426,Dover,,51,,3,,,,,,,,,,,,,,,
null,,confidence_buffer,792534,confidence_buffer,,null,,,,,,,,,,,,,,,,,
2600.5999999940395,,recognition_phase,795136,Dover,,49,,,,,old,1,0.7777777777777778,,,,,,,,,,
null,,confidence_buffer,795250,confidence_buffer,,null,,,,,,,,,,,,,,,,,
null,,thebreak,795763,break,,null,,,,,,,,,,,,,,,,,
2669.5,,realistic_rating,798440,Olympia,,53,Olympia,5,,,,,,,,,,,,,,,
null,,confidence_buffer,798545,confidence_buffer,,null,,,,,,,,,,,,,,,,,
1931.4000000059605,,probe_rating,800478,probe_rating,,49,,,1,1,,,,,,,,,,,,,
null,,confidence_buffer,800588,confidence_buffer,,null,,,,,,,,,,,,,,,,,
4456.20000000298,,pt2_unique_rating,805045,Olympia,,51,,3,,,,,,,,,,,,,,,
null,,confidence_buffer,805147,confidence_buffer,,null,,,,,,,,,,,,,,,,,
3563.3999999910593,,pt2_memorable_rating,808711,Olympia,,52,,4,,,,,,,,,,,,,,,
null,,confidence_buffer,808817,confidence_buffer,,null,,,,,,,,,,,,,,,,,
2449.5,,recognition_phase,811268,Olympia,,49,,,,,old,1,0.7894736842105263,,,,,,,,,,
null,,confidence_buffer,811378,confidence_buffer,,null,,,,,,,,,,,,,,,,,
null,,thebreak,811883,break,,null,,,,,,,,,,,,,,,,,
3209.5999999940395,,realistic_rating,815093,Helena,,53,Helena,5,,,,,,,,,,,,,,,
null,,confidence_buffer,815209,confidence_buffer,,null,,,,,,,,,,,,,,,,,
2036.199999988079,,probe_rating,817246,probe_rating,,50,,,2,1,,,,,,,,,,,,,
null,,confidence_buffer,817358,confidence_buffer,,null,,,,,,,,,,,,,,,,,
3645.7999999970198,,pt2_unique_rating,821005,Helena,,51,,3,,,,,,,,,,,,,,,
null,,confidence_buffer,821110,confidence_buffer,,null,,,,,,,,,,,,,,,,,
1364.4000000059605,,pt2_memorable_rating,822476,Helena,,52,,4,,,,,,,,,,,,,,,
null,,confidence_buffer,822583,confidence_buffer,,null,,,,,,,,,,,,,,,,,
2090,,recognition_phase,824674,Helena,,49,,,,,old,1,0.8,,,,,,,,,,
null,,confidence_buffer,824779,confidence_buffer,,null,,,,,,,,,,,,,,,,,
null,,thebreak,825281,break,,null,,,,,,,,,,,,,,,,,
9642.5,,realistic_rating,834925,Dubuque,,53,Dubuque,5,,,,,,,,,,,,,,,
null,,confidence_buffer,835034,confidence_buffer,,null,,,,,,,,,,,,,,,,,
2156.3999999910593,,pt2_unique_rating,837192,Dubuque,,51,,3,,,,,,,,,,,,,,,
null,,confidence_buffer,837302,confidence_buffer,,null,,,,,,,,,,,,,,,,,
5033.79999999702,,pt2_memorable_rating,842337,Dubuque,,52,,4,,,,,,,,,,,,,,,
null,,confidence_buffer,842444,confidence_buffer,,null,,,,,,,,,,,,,,,,,
2999.7999999970198,,recognition_phase,845445,Dubuque,,50,,,,,old,0,0.7619047619047619,,,,,,,,,,
null,,confidence_buffer,845555,confidence_buffer,,null,,,,,,,,,,,,,,,,,
null,,thebreak,846065,break,,null,,,,,,,,,,,,,,,,,
4412.79999999702,,realistic_rating,850479,Frankfort,,53,Frankfort,5,,,,,,,,,,,,,,,
null,,confidence_buffer,850585,confidence_buffer,,null,,,,,,,,,,,,,,,,,
4128,,pt2_unique_rating,854714,Frankfort,,51,,3,,,,,,,,,,,,,,,
null,,confidence_buffer,854819,confidence_buffer,,null,,,,,,,,,,,,,,,,,
2579.7000000029802,,pt2_memorable_rating,857400,Frankfort,,51,,3,,,,,,,,,,,,,,,
null,,confidence_buffer,857504,confidence_buffer,,null,,,,,,,,,,,,,,,,,
2748.7000000029802,,recognition_phase,860255,Frankfort,,52,,,,,new,1,0.7727272727272727,,,,,,,,,,
null,,confidence_buffer,860359,confidence_buffer,,null,,,,,,,,,,,,,,,,,
null,,thebreak,860873,break,,null,,,,,,,,,,,,,,,,,
3175.7000000029802,,realistic_rating,864050,Dothan,,53,Dothan,5,,,,,,,,,,,,,,,
null,,confidence_buffer,864164,confidence_buffer,,null,,,,,,,,,,,,,,,,,
4652,,pt2_unique_rating,868817,Dothan,,53,,5,,,,,,,,,,,,,,,
null,,confidence_buffer,868921,confidence_buffer,,null,,,,,,,,,,,,,,,,,
2828.1000000089407,,pt2_memorable_rating,871750,Dothan,,53,,5,,,,,,,,,,,,,,,
null,,confidence_buffer,871863,confidence_buffer,,null,,,,,,,,,,,,,,,,,
2478.1000000089407,,recognition_phase,874342,Dothan,,49,,,,,old,1,0.782608695652174,,,,,,,,,,
null,,confidence_buffer,874444,confidence_buffer,,null,,,,,,,,,,,,,,,,,
null,,thebreak,874952,break,,null,,,,,,,,,,,,,,,,,
4812.20000000298,,realistic_rating,879766,Annapolis,,53,Annapolis,5,,,,,,,,,,,,,,,
null,,confidence_buffer,879870,confidence_buffer,,null,,,,,,,,,,,,,,,,,
2390.8999999910593,,pt2_unique_rating,882262,Annapolis,,51,,3,,,,,,,,,,,,,,,
null,,confidence_buffer,882378,confidence_buffer,,null,,,,,,,,,,,,,,,,,
2247.2999999970198,,pt2_memorable_rating,884627,Annapolis,,51,,3,,,,,,,,,,,,,,,
null,,confidence_buffer,884730,confidence_buffer,,null,,,,,,,,,,,,,,,,,
3614.7000000029802,,recognition_phase,888346,Annapolis,,49,,,,,old,1,0.7916666666666666,,,,,,,,,,
null,,confidence_buffer,888463,confidence_buffer,,null,,,,,,,,,,,,,,,,,
null,,thebreak,888971,break,,null,,,,,,,,,,,,,,,,,
4698.29999999702,,realistic_rating,893671,Decatur,,53,Decatur,5,,,,,,,,,,,,,,,
null,,confidence_buffer,893782,confidence_buffer,,null,,,,,,,,,,,,,,,,,
2472.5,,pt2_unique_rating,896256,Decatur,,51,,3,,,,,,,,,,,,,,,
null,,confidence_buffer,896360,confidence_buffer,,null,,,,,,,,,,,,,,,,,
2490.2000000029802,,probe_rating,898852,probe_rating,,50,,,2,1,,,,,,,,,,,,,
null,,confidence_buffer,898961,confidence_buffer,,null,,,,,,,,,,,,,,,,,
6396.0999999940395,,pt2_memorable_rating,905358,Decatur,,52,,4,,,,,,,,,,,,,,,
null,,confidence_buffer,905468,confidence_buffer,,null,,,,,,,,,,,,,,,,,
4056.5,,recognition_phase,909525,Decatur,,50,,,,,old,0,0.76,,,,,,,,,,
null,,confidence_buffer,909629,confidence_buffer,,null,,,,,,,,,,,,,,,,,
null,,thebreak,910131,break,,null,,,,,,,,,,,,,,,,,
4042,,realistic_rating,914175,Boise,,53,Boise,5,,,,,,,,,,,,,,,
null,,confidence_buffer,914279,confidence_buffer,,null,,,,,,,,,,,,,,,,,
4709.5,,pt2_unique_rating,918990,Boise,,53,,5,,,,,,,,,,,,,,,
null,,confidence_buffer,919091,confidence_buffer,,null,,,,,,,,,,,,,,,,,
1814.7000000029802,,pt2_memorable_rating,920907,Boise,,53,,5,,,,,,,,,,,,,,,
null,,confidence_buffer,921012,confidence_buffer,,null,,,,,,,,,,,,,,,,,
7128.4000000059605,,recognition_phase,928141,Boise,,52,,,,,new,1,0.7692307692307693,,,,,,,,,,
null,,confidence_buffer,928243,confidence_buffer,,null,,,,,,,,,,,,,,,,,
null,,thebreak,928758,break,,null,,,,,,,,,,,,,,,,,
5856.4000000059605,,realistic_rating,934616,Newport News,,53,Newport News,5,,,,,,,,,,,,,,,
null,,confidence_buffer,934722,confidence_buffer,,null,,,,,,,,,,,,,,,,,
3127.2000000029802,,pt2_unique_rating,937850,Newport News,,52,,4,,,,,,,,,,,,,,,
null,,confidence_buffer,937964,confidence_buffer,,null,,,,,,,,,,,,,,,,,
2708.2999999970198,,pt2_memorable_rating,940673,Newport News,,52,,4,,,,,,,,,,,,,,,
null,,confidence_buffer,940780,confidence_buffer,,null,,,,,,,,,,,,,,,,,
2241.2000000029802,,recognition_phase,943023,Newport News,,52,,,,,new,1,0.7777777777777778,,,,,,,,,,
null,,confidence_buffer,943139,confidence_buffer,,null,,,,,,,,,,,,,,,,,
null,,thebreak,943646,break,,null,,,,,,,,,,,,,,,,,
11255.09999999404,,realistic_rating,954902,Burlington,,53,Burlington,5,,,,,,,,,,,,,,,
null,,confidence_buffer,955004,confidence_buffer,,null,,,,,,,,,,,,,,,,,
4866.5,,pt2_unique_rating,959872,Burlington,,52,,4,,,,,,,,,,,,,,,
null,,confidence_buffer,959982,confidence_buffer,,null,,,,,,,,,,,,,,,,,
2969.5,,pt2_memorable_rating,962952,Burlington,,51,,3,,,,,,,,,,,,,,,
null,,confidence_buffer,963058,confidence_buffer,,null,,,,,,,,,,,,,,,,,
2219.7000000029802,,probe_rating,965279,probe_rating,,52,,,4,1,,,,,,,,,,,,,
null,,confidence_buffer,965394,confidence_buffer,,null,,,,,,,,,,,,,,,,,
3091.4000000059605,,recognition_phase,968486,Burlington,,50,,,,,old,0,0.75,,,,,,,,,,
null,,confidence_buffer,968596,confidence_buffer,,null,,,,,,,,,,,,,,,,,
null,,thebreak,969102,break,,null,,,,,,,,,,,,,,,,,
4861.4000000059605,,realistic_rating,973965,Terre Haute,,53,Terre Haute,5,,,,,,,,,,,,,,,
null,,confidence_buffer,974075,confidence_buffer,,null,,,,,,,,,,,,,,,,,
2979.8999999910593,,pt2_unique_rating,977056,Terre Haute,,51,,3,,,,,,,,,,,,,,,
null,,confidence_buffer,977158,confidence_buffer,,null,,,,,,,,,,,,,,,,,
3986.1000000089407,,pt2_memorable_rating,981145,Terre Haute,,51,,3,,,,,,,,,,,,,,,
null,,confidence_buffer,981253,confidence_buffer,,null,,,,,,,,,,,,,,,,,
2976.2999999970198,,recognition_phase,984231,Terre Haute,,49,,,,,old,1,0.7586206896551724,,,,,,,,,,
null,,confidence_buffer,984344,confidence_buffer,,null,,,,,,,,,,,,,,,,,
null,,thebreak,984854,break,,null,,,,,,,,,,,,,,,,,
4331.5,,realistic_rating,989186,Athens,,53,Athens,5,,,,,,,,,,,,,,,
null,,confidence_buffer,989290,confidence_buffer,,null,,,,,,,,,,,,,,,,,
4606.600000008941,,pt2_unique_rating,993897,Athens,,52,,4,,,,,,,,,,,,,,,
null,,confidence_buffer,994011,confidence_buffer,,null,,,,,,,,,,,,,,,,,
1928,,pt2_memorable_rating,995940,Athens,,52,,4,,,,,,,,,,,,,,,
null,,confidence_buffer,996046,confidence_buffer,,null,,,,,,,,,,,,,,,,,
4776.70000000298,,recognition_phase,1000824,Athens,,51,,,,,new,1,0.7666666666666667,,,,,,,,,,
null,,confidence_buffer,1000940,confidence_buffer,,null,,,,,,,,,,,,,,,,,
null,,thebreak,1001454,break,,null,,,,,,,,,,,,,,,,,
4672.70000000298,,realistic_rating,1006128,Cambridge,,53,Cambridge,5,,,,,,,,,,,,,,,
null,,confidence_buffer,1006238,confidence_buffer,,null,,,,,,,,,,,,,,,,,
1783.0999999940395,,probe_rating,1008023,probe_rating,,50,,,2,1,,,,,,,,,,,,,
null,,confidence_buffer,1008134,confidence_buffer,,null,,,,,,,,,,,,,,,,,
16254.29999999702,,pt2_unique_rating,1024390,Cambridge,,51,,3,,,,,,,,,,,,,,,
null,,confidence_buffer,1024494,confidence_buffer,,null,,,,,,,,,,,,,,,,,
3358.300000011921,,pt2_memorable_rating,1027854,Cambridge,,51,,3,,,,,,,,,,,,,,,
null,,confidence_buffer,1027970,confidence_buffer,,null,,,,,,,,,,,,,,,,,
5861.70000000298,,recognition_phase,1033833,Cambridge,,50,,,,,old,0,0.7419354838709677,,,,,,,,,,
null,,confidence_buffer,1033951,confidence_buffer,,null,,,,,,,,,,,,,,,,,
null,,thebreak,1034467,break,,null,,,,,,,,,,,,,,,,,
3405.9000000059605,,realistic_rating,1037874,Montpelier,,53,Montpelier,5,,,,,,,,,,,,,,,
null,,confidence_buffer,1037983,confidence_buffer,,null,,,,,,,,,,,,,,,,,
4713.20000000298,,pt2_unique_rating,1042697,Montpelier,,53,,5,,,,,,,,,,,,,,,
null,,confidence_buffer,1042803,confidence_buffer,,null,,,,,,,,,,,,,,,,,
1204.2999999970198,,pt2_memorable_rating,1044009,Montpelier,,53,,5,,,,,,,,,,,,,,,
null,,confidence_buffer,1044116,confidence_buffer,,null,,,,,,,,,,,,,,,,,
2938.4000000059605,,recognition_phase,1047056,Montpelier,,52,,,,,new,0,0.71875,,,,,,,,,,
null,,confidence_buffer,1047165,confidence_buffer,,null,,,,,,,,,,,,,,,,,
null,,thebreak,1047670,break,,null,,,,,,,,,,,,,,,,,
2807.0999999940395,,realistic_rating,1050478,Bozeman,,53,Bozeman,5,,,,,,,,,,,,,,,
null,,confidence_buffer,1050588,confidence_buffer,,null,,,,,,,,,,,,,,,,,
2320.0999999940395,,pt2_unique_rating,1052909,Bozeman,,51,,3,,,,,,,,,,,,,,,
null,,confidence_buffer,1053019,confidence_buffer,,null,,,,,,,,,,,,,,,,,
4949,,pt2_memorable_rating,1057970,Bozeman,,52,,4,,,,,,,,,,,,,,,
null,,confidence_buffer,1058079,confidence_buffer,,null,,,,,,,,,,,,,,,,,
8097.899999991059,,recognition_phase,1066179,Bozeman,,51,,,,,new,1,0.7272727272727273,,,,,,,,,,
null,,confidence_buffer,1066290,confidence_buffer,,null,,,,,,,,,,,,,,,,,
null,,thebreak,1066797,break,,null,,,,,,,,,,,,,,,,,
2761.2000000029802,,realistic_rating,1069560,Muncie,,53,Muncie,5,,,,,,,,,,,,,,,
null,,confidence_buffer,1069665,confidence_buffer,,null,,,,,,,,,,,,,,,,,
7742.29999999702,,pt2_unique_rating,1077408,Muncie,,51,,3,,,,,,,,,,,,,,,
null,,confidence_buffer,1077518,confidence_buffer,,null,,,,,,,,,,,,,,,,,
7328.399999991059,,pt2_memorable_rating,1084848,Muncie,,52,,4,,,,,,,,,,,,,,,
null,,confidence_buffer,1084965,confidence_buffer,,null,,,,,,,,,,,,,,,,,
4986.100000008941,,recognition_phase,1089953,Muncie,,49,,,,,old,1,0.7352941176470589,,,,,,,,,,
null,,confidence_buffer,1090078,confidence_buffer,,null,,,,,,,,,,,,,,,,,
null,,thebreak,1090583,break,,null,,,,,,,,,,,,,,,,,
5234.199999988079,,realistic_rating,1095819,Santa Monica,,51,Santa Monica,3,,,,,,,,,,,,,,,
null,,confidence_buffer,1095926,confidence_buffer,,null,,,,,,,,,,,,,,,,,
7531.699999988079,,pt2_unique_rating,1103459,Santa Monica,,51,,3,,,,,,,,,,,,,,,
null,,confidence_buffer,1103571,confidence_buffer,,null,,,,,,,,,,,,,,,,,
6440,,pt2_memorable_rating,1110012,Santa Monica,,51,,3,,,,,,,,,,,,,,,
null,,confidence_buffer,1110114,confidence_buffer,,null,,,,,,,,,,,,,,,,,
2971.7999999970198,,recognition_phase,1113087,Santa Monica,,51,,,,,new,1,0.7428571428571429,,,,,,,,,,
null,,confidence_buffer,1113189,confidence_buffer,,null,,,,,,,,,,,,,,,,,
null,,thebreak,1113696,break,,null,,,,,,,,,,,,,,,,,
3052.7000000029802,,realistic_rating,1116750,Hagerstown,,53,Hagerstown,5,,,,,,,,,,,,,,,
null,,confidence_buffer,1116853,confidence_buffer,,null,,,,,,,,,,,,,,,,,
5112,,pt2_unique_rating,1121966,Hagerstown,,52,,4,,,,,,,,,,,,,,,
null,,confidence_buffer,1122070,confidence_buffer,,null,,,,,,,,,,,,,,,,,
4284.70000000298,,pt2_memorable_rating,1126356,Hagerstown,,51,,3,,,,,,,,,,,,,,,
null,,confidence_buffer,1126790,confidence_buffer,,null,,,,,,,,,,,,,,,,,
2339.5,,recognition_phase,1129131,Hagerstown,,49,,,,,old,1,0.75,,,,,,,,,,
null,,confidence_buffer,1129243,confidence_buffer,,null,,,,,,,,,,,,,,,,,
null,,thebreak,1129753,break,,null,,,,,,,,,,,,,,,,,
8748.90000000596,,realistic_rating,1138503,Palo Alto,,52,Palo Alto,4,,,,,,,,,,,,,,,
null,,confidence_buffer,1138610,confidence_buffer,,null,,,,,,,,,,,,,,,,,
3271.7999999970198,,pt2_unique_rating,1141883,Palo Alto,,51,,3,,,,,,,,,,,,,,,
null,,confidence_buffer,1141993,confidence_buffer,,null,,,,,,,,,,,,,,,,,
3976.7999999970198,,pt2_memorable_rating,1145971,Palo Alto,,51,,3,,,,,,,,,,,,,,,
null,,confidence_buffer,1146073,confidence_buffer,,null,,,,,,,,,,,,,,,,,
6225.899999991059,,recognition_phase,1152300,Palo Alto,,51,,,,,new,1,0.7567567567567568,,,,,,,,,,
null,,confidence_buffer,1152402,confidence_buffer,,null,,,,,,,,,,,,,,,,,
null,,thebreak,1152908,break,,null,,,,,,,,,,,,,,,,,
3552.5999999940395,,realistic_rating,1156462,Cheyenne,,53,Cheyenne,5,,,,,,,,,,,,,,,
null,,confidence_buffer,1156576,confidence_buffer,,null,,,,,,,,,,,,,,,,,
3782.4000000059605,,pt2_unique_rating,1160359,Cheyenne,,52,,4,,,,,,,,,,,,,,,
null,,confidence_buffer,1160462,confidence_buffer,,null,,,,,,,,,,,,,,,,,
1922.2000000029802,,probe_rating,1162385,probe_rating,,51,,,3,1,,,,,,,,,,,,,
null,,confidence_buffer,1162487,confidence_buffer,,null,,,,,,,,,,,,,,,,,
3119.7999999970198,,pt2_memorable_rating,1165608,Cheyenne,,51,,3,,,,,,,,,,,,,,,
null,,confidence_buffer,1165723,confidence_buffer,,null,,,,,,,,,,,,,,,,,
2043.2999999970198,,recognition_phase,1167768,Cheyenne,,49,,,,,old,1,0.7631578947368421,,,,,,,,,,
null,,confidence_buffer,1167870,confidence_buffer,,null,,,,,,,,,,,,,,,,,
null,,thebreak,1168387,break,,null,,,,,,,,,,,,,,,,,
4216.300000011921,,realistic_rating,1172605,Syracuse,,53,Syracuse,5,,,,,,,,,,,,,,,
null,,confidence_buffer,1172719,confidence_buffer,,null,,,,,,,,,,,,,,,,,
2726.0999999940395,,pt2_unique_rating,1175446,Syracuse,,51,,3,,,,,,,,,,,,,,,
null,,confidence_buffer,1175558,confidence_buffer,,null,,,,,,,,,,,,,,,,,
3640.8999999910593,,pt2_memorable_rating,1179200,Syracuse,,51,,3,,,,,,,,,,,,,,,
null,,confidence_buffer,1179304,confidence_buffer,,null,,,,,,,,,,,,,,,,,
6412.0999999940395,,recognition_phase,1185718,Syracuse,,52,,,,,new,0,0.7435897435897436,,,,,,,,,,
null,,confidence_buffer,1185823,confidence_buffer,,null,,,,,,,,,,,,,,,,,
null,,thebreak,1186332,break,,null,,,,,,,,,,,,,,,,,
5515.100000008941,,realistic_rating,1191849,Stamford,,53,Stamford,5,,,,,,,,,,,,,,,
null,,confidence_buffer,1191955,confidence_buffer,,null,,,,,,,,,,,,,,,,,
3206.199999988079,,pt2_unique_rating,1195163,Stamford,,51,,3,,,,,,,,,,,,,,,
null,,confidence_buffer,1195273,confidence_buffer,,null,,,,,,,,,,,,,,,,,
2229.0999999940395,,pt2_memorable_rating,1197503,Stamford,,52,,4,,,,,,,,,,,,,,,
null,,confidence_buffer,1197617,confidence_buffer,,null,,,,,,,,,,,,,,,,,
4152.20000000298,,recognition_phase,1201771,Stamford,,50,,,,,old,0,0.725,,,,,,,,,,
null,,confidence_buffer,1201874,confidence_buffer,,null,,,,,,,,,,,,,,,,,
null,,thebreak,1202380,break,,null,,,,,,,,,,,,,,,,,
5158.9000000059605,,realistic_rating,1207540,Concord,,53,Concord,5,,,,,,,,,,,,,,,
null,,confidence_buffer,1207650,confidence_buffer,,null,,,,,,,,,,,,,,,,,
1766.2999999970198,,probe_rating,1209418,probe_rating,,49,,,1,1,,,,,,,,,,,,,
null,,confidence_buffer,1209524,confidence_buffer,,null,,,,,,,,,,,,,,,,,
5412.5999999940395,,pt2_unique_rating,1214938,Concord,,51,,3,,,,,,,,,,,,,,,
null,,confidence_buffer,1215043,confidence_buffer,,null,,,,,,,,,,,,,,,,,
2817.3999999910593,,pt2_memorable_rating,1217862,Concord,,51,,3,,,,,,,,,,,,,,,
null,,confidence_buffer,1217966,confidence_buffer,,null,,,,,,,,,,,,,,,,,
2505.8999999910593,,recognition_phase,1220473,Concord,,49,,,,,old,1,0.7317073170731707,,,,,,,,,,
null,,confidence_buffer,1220583,confidence_buffer,,null,,,,,,,,,,,,,,,,,
null,,thebreak,1221087,break,,null,,,,,,,,,,,,,,,,,
3458.2999999970198,,realistic_rating,1224547,Carson City,,53,Carson City,5,,,,,,,,,,,,,,,
null,,confidence_buffer,1224661,confidence_buffer,,null,,,,,,,,,,,,,,,,,
4656.70000000298,,pt2_unique_rating,1229319,Carson City,,51,,3,,,,,,,,,,,,,,,
null,,confidence_buffer,1229427,confidence_buffer,,null,,,,,,,,,,,,,,,,,
1805.5999999940395,,pt2_memorable_rating,1231234,Carson City,,51,,3,,,,,,,,,,,,,,,
null,,confidence_buffer,1231336,confidence_buffer,,null,,,,,,,,,,,,,,,,,
3264.199999988079,,recognition_phase,1234602,Carson City,,50,,,,,old,0,0.7142857142857143,,,,,,,,,,
null,,confidence_buffer,1234709,confidence_buffer,,null,,,,,,,,,,,,,,,,,
null,,thebreak,1235214,break,,null,,,,,,,,,,,,,,,,,
2419.5999999940395,,realistic_rating,1237635,Gainesville,,53,Gainesville,5,,,,,,,,,,,,,,,
null,,confidence_buffer,1237745,confidence_buffer,,null,,,,,,,,,,,,,,,,,
2176.6000000089407,,pt2_unique_rating,1239923,Gainesville,,51,,3,,,,,,,,,,,,,,,
null,,confidence_buffer,1240029,confidence_buffer,,null,,,,,,,,,,,,,,,,,
1741.300000011921,,pt2_memorable_rating,1241772,Gainesville,,52,,4,,,,,,,,,,,,,,,
null,,confidence_buffer,1241875,confidence_buffer,,null,,,,,,,,,,,,,,,,,
2225.3999999910593,,probe_rating,1244101,probe_rating,,53,,,5,1,,,,,,,,,,,,,
null,,confidence_buffer,1244215,confidence_buffer,,null,,,,,,,,,,,,,,,,,
5086.199999988079,,recognition_phase,1249302,Gainesville,,49,,,,,old,1,0.7209302325581395,,,,,,,,,,
null,,confidence_buffer,1249411,confidence_buffer,,null,,,,,,,,,,,,,,,,,
null,,thebreak,1249919,break,,null,,,,,,,,,,,,,,,,,
3122.2999999970198,,realistic_rating,1253043,Champaign,,53,Champaign,5,,,,,,,,,,,,,,,
null,,confidence_buffer,1253152,confidence_buffer,,null,,,,,,,,,,,,,,,,,
3144.5,,pt2_unique_rating,1256298,Champaign,,51,,3,,,,,,,,,,,,,,,
null,,confidence_buffer,1256407,confidence_buffer,,null,,,,,,,,,,,,,,,,,
2169.2000000029802,,pt2_memorable_rating,1258577,Champaign,,51,,3,,,,,,,,,,,,,,,
null,,confidence_buffer,1258685,confidence_buffer,,null,,,,,,,,,,,,,,,,,
3376.699999988079,,recognition_phase,1262064,Champaign,,49,,,,,old,1,0.7272727272727273,,,,,,,,,,
null,,confidence_buffer,1262167,confidence_buffer,,null,,,,,,,,,,,,,,,,,
null,,thebreak,1262670,break,,null,,,,,,,,,,,,,,,,,
5706.70000000298,,realistic_rating,1268378,Abilene,,51,Abilene,3,,,,,,,,,,,,,,,
null,,confidence_buffer,1268483,confidence_buffer,,null,,,,,,,,,,,,,,,,,
2680.5,,pt2_unique_rating,1271165,Abilene,,51,,3,,,,,,,,,,,,,,,
null,,confidence_buffer,1271270,confidence_buffer,,null,,,,,,,,,,,,,,,,,
3904.5,,pt2_memorable_rating,1275175,Abilene,,51,,3,,,,,,,,,,,,,,,
null,,confidence_buffer,1275281,confidence_buffer,,null,,,,,,,,,,,,,,,,,
6071.100000008941,,recognition_phase,1281354,Abilene,,52,,,,,new,1,0.7333333333333333,,,,,,,,,,
null,,confidence_buffer,1281460,confidence_buffer,,null,,,,,,,,,,,,,,,,,
null,,thebreak,1281963,break,,null,,,,,,,,,,,,,,,,,
5240.5,,realistic_rating,1287205,Altoona,,53,Altoona,5,,,,,,,,,,,,,,,
null,,confidence_buffer,1287317,confidence_buffer,,null,,,,,,,,,,,,,,,,,
2680.8999999910593,,pt2_unique_rating,1289999,Altoona,,51,,3,,,,,,,,,,,,,,,
null,,confidence_buffer,1290103,confidence_buffer,,null,,,,,,,,,,,,,,,,,
1846.5999999940395,,pt2_memorable_rating,1291951,Altoona,,52,,4,,,,,,,,,,,,,,,
null,,confidence_buffer,1292056,confidence_buffer,,null,,,,,,,,,,,,,,,,,
2921.9000000059605,,recognition_phase,1294979,Altoona,,50,,,,,old,0,0.717391304347826,,,,,,,,,,
null,,confidence_buffer,1295081,confidence_buffer,,null,,,,,,,,,,,,,,,,,
null,,thebreak,1295590,break,,null,,,,,,,,,,,,,,,,,
3891.7999999970198,,realistic_rating,1299483,Scottsdale,,51,Scottsdale,3,,,,,,,,,,,,,,,
null,,confidence_buffer,1299586,confidence_buffer,,null,,,,,,,,,,,,,,,,,
2126.199999988079,,pt2_unique_rating,1301714,Scottsdale,,51,,3,,,,,,,,,,,,,,,
null,,confidence_buffer,1301821,confidence_buffer,,null,,,,,,,,,,,,,,,,,
2682.300000011921,,pt2_memorable_rating,1304504,Scottsdale,,51,,3,,,,,,,,,,,,,,,
null,,confidence_buffer,1304607,confidence_buffer,,null,,,,,,,,,,,,,,,,,
3388.7000000029802,,recognition_phase,1307997,Scottsdale,,50,,,,,old,1,0.723404255319149,,,,,,,,,,
null,,confidence_buffer,1308100,confidence_buffer,,null,,,,,,,,,,,,,,,,,
null,,thebreak,1308607,break,,null,,,,,,,,,,,,,,,,,
3668.3999999910593,,realistic_rating,1312277,Rock Springs,,51,Rock Springs,3,,,,,,,,,,,,,,,
null,,confidence_buffer,1312385,confidence_buffer,,null,,,,,,,,,,,,,,,,,
1793.7999999970198,,pt2_unique_rating,1314180,Rock Springs,,51,,3,,,,,,,,,,,,,,,
null,,confidence_buffer,1314284,confidence_buffer,,null,,,,,,,,,,,,,,,,,
1988.5999999940395,,pt2_memorable_rating,1316274,Rock Springs,,51,,3,,,,,,,,,,,,,,,
null,,confidence_buffer,1316390,confidence_buffer,,null,,,,,,,,,,,,,,,,,
3185.4000000059605,,recognition_phase,1319577,Rock Springs,,49,,,,,old,1,0.7291666666666666,,,,,,,,,,
null,,confidence_buffer,1319683,confidence_buffer,,null,,,,,,,,,,,,,,,,,
null,,thebreak,1320198,break,,null,,,,,,,,,,,,,,,,,
9949.79999999702,,realistic_rating,1330149,Marquette,,53,Marquette,5,,,,,,,,,,,,,,,
null,,confidence_buffer,1330256,confidence_buffer,,null,,,,,,,,,,,,,,,,,
5503.70000000298,,pt2_unique_rating,1335761,Marquette,,51,,3,,,,,,,,,,,,,,,
null,,confidence_buffer,1335874,confidence_buffer,,null,,,,,,,,,,,,,,,,,
292.70000000298023,,pt2_memorable_rating,1336168,Marquette,,51,,3,,,,,,,,,,,,,,,
null,,confidence_buffer,1336274,confidence_buffer,,null,,,,,,,,,,,,,,,,,
7460.20000000298,,recognition_phase,1343735,Marquette,,49,,,,,old,1,0.7346938775510204,,,,,,,,,,
null,,confidence_buffer,1343841,confidence_buffer,,null,,,,,,,,,,,,,,,,,
null,,thebreak,1344344,break,,null,,,,,,,,,,,,,,,,,
3823.5,,realistic_rating,1348169,Salem,,51,Salem,3,,,,,,,,,,,,,,,
null,,confidence_buffer,1348271,confidence_buffer,,null,,,,,,,,,,,,,,,,,
7910.399999991059,,pt2_unique_rating,1356183,Salem,,51,,3,,,,,,,,,,,,,,,
null,,confidence_buffer,1356294,confidence_buffer,,null,,,,,,,,,,,,,,,,,
4832.70000000298,,pt2_memorable_rating,1361128,Salem,,52,,4,,,,,,,,,,,,,,,
null,,confidence_buffer,1361234,confidence_buffer,,null,,,,,,,,,,,,,,,,,
2930,,recognition_phase,1364165,Salem,,52,,,,,new,1,0.74,,,,,,,,,,
null,,confidence_buffer,1364270,confidence_buffer,,null,,,,,,,,,,,,,,,,,
null,,thebreak,1364783,break,,null,,,,,,,,,,,,,,,,,
,,survey,1679359,survey-questions,,,,,,,,,,connection,med,No.,None.,What was familiar.,What seemed memorable.,What seemed unique.,What was realistic in name (2 should have been 5s).,No.,There were two realistic choices that should have been fives.
