rt,responses,trial_type,time_elapsed,stimulus,button_pressed,key_press,name_trial,city_type,rating,probe,probe_accuracy,response,correct,accuracy,problems,smooth,distraction,strategies,familiar,memorable,unique,realistic,similar,comments
15794.100000023842,{worker_id:5d4c7ac3e8ec490018b0050d},id_enter,15799,,,,,,,,,,,,,,,,,,,,,
10766.200000017881,,fullscreen,26569,fullscreen,0,,,,,,,,,,,,,,,,,,,
7151.300000011921,,intro_0,33723,instruct,,32,,,,,,,,,,,,,,,,,,
13597.200000017881,,intro_1,47322,instruct,,32,,,,,,,,,,,,,,,,,,
10254.300000011921,,intro_2,57578,instruct,,32,,,,,,,,,,,,,,,,,,
null,,instruct_dir_4,59080,instruct,,null,,,,,,,,,,,,,,,,,,
null,,thebreak,59582,break,,null,,,,,,,,,,,,,,,,,,
13217.09999999404,,familiar_rating,72801,Livingston,,50,Livingston,US,2,,,,,,,,,,,,,,,
null,,confidence_buffer,72903,confidence_buffer,,null,,,,,,,,,,,,,,,,,,
7257.5,,unique_rating,80162,Livingston,,50,,,2,,,,,,,,,,,,,,,
null,,confidence_buffer,80264,confidence_buffer,,null,,,,,,,,,,,,,,,,,,
4992.199999988079,,memorable_rating,85257,Livingston,,51,,,3,,,,,,,,,,,,,,,
null,,confidence_buffer,85363,confidence_buffer,,null,,,,,,,,,,,,,,,,,,
null,,thebreak,85865,break,,null,,,,,,,,,,,,,,,,,,
4807.5,,familiar_rating,90674,Stonebrook,,51,Stonebrook,Fictional,3,,,,,,,,,,,,,,,
null,,confidence_buffer,90775,confidence_buffer,,null,,,,,,,,,,,,,,,,,,
3072.0999999940395,,unique_rating,93849,Stonebrook,,49,,,1,,,,,,,,,,,,,,,
null,,confidence_buffer,93950,confidence_buffer,,null,,,,,,,,,,,,,,,,,,
3410.199999988079,,memorable_rating,97361,Stonebrook,,51,,,3,,,,,,,,,,,,,,,
null,,confidence_buffer,97463,confidence_buffer,,null,,,,,,,,,,,,,,,,,,
null,,thebreak,97964,break,,null,,,,,,,,,,,,,,,,,,
5483.799999982119,,familiar_rating,103449,West Palm Beach,,52,West Palm Beach,US,4,,,,,,,,,,,,,,,
null,,confidence_buffer,103551,confidence_buffer,,null,,,,,,,,,,,,,,,,,,
3672.300000011921,,probe_rating,107225,probe_rating,,49,,,,1,1,,,,,,,,,,,,,
null,,confidence_buffer,107328,confidence_buffer,,null,,,,,,,,,,,,,,,,,,
5239.4000000059605,,unique_rating,112569,West Palm Beach,,51,,,3,,,,,,,,,,,,,,,
null,,confidence_buffer,112672,confidence_buffer,,null,,,,,,,,,,,,,,,,,,
3432.4000000059605,,memorable_rating,116105,West Palm Beach,,51,,,3,,,,,,,,,,,,,,,
null,,confidence_buffer,116208,confidence_buffer,,null,,,,,,,,,,,,,,,,,,
null,,thebreak,116710,break,,null,,,,,,,,,,,,,,,,,,
5161.9000000059605,,familiar_rating,121873,Racine,,49,Racine,US,1,,,,,,,,,,,,,,,
null,,confidence_buffer,121975,confidence_buffer,,null,,,,,,,,,,,,,,,,,,
3648.5999999940395,,unique_rating,125625,Racine,,53,,,5,,,,,,,,,,,,,,,
null,,confidence_buffer,125727,confidence_buffer,,null,,,,,,,,,,,,,,,,,,
3512,,memorable_rating,129240,Racine,,49,,,1,,,,,,,,,,,,,,,
null,,confidence_buffer,129342,confidence_buffer,,null,,,,,,,,,,,,,,,,,,
null,,thebreak,129843,break,,null,,,,,,,,,,,,,,,,,,
7739.799999982119,,familiar_rating,137584,Ravenport,,50,Ravenport,Fictional,2,,,,,,,,,,,,,,,
null,,confidence_buffer,137685,confidence_buffer,,null,,,,,,,,,,,,,,,,,,
2555,,probe_rating,140241,probe_rating,,51,,,,3,1,,,,,,,,,,,,,
null,,confidence_buffer,140343,confidence_buffer,,null,,,,,,,,,,,,,,,,,,
3672.199999988079,,unique_rating,144017,Ravenport,,51,,,3,,,,,,,,,,,,,,,
null,,confidence_buffer,144120,confidence_buffer,,null,,,,,,,,,,,,,,,,,,
3407.5,,memorable_rating,147529,Ravenport,,50,,,2,,,,,,,,,,,,,,,
null,,confidence_buffer,147630,confidence_buffer,,null,,,,,,,,,,,,,,,,,,
null,,thebreak,148132,break,,null,,,,,,,,,,,,,,,,,,
5883.799999982119,,familiar_rating,154017,Briarfield,,50,Briarfield,Fictional,2,,,,,,,,,,,,,,,
null,,confidence_buffer,154120,confidence_buffer,,null,,,,,,,,,,,,,,,,,,
2391.5,,probe_rating,156513,probe_rating,,50,,,,2,1,,,,,,,,,,,,,
null,,confidence_buffer,156615,confidence_buffer,,null,,,,,,,,,,,,,,,,,,
4736,,unique_rating,161352,Briarfield,,52,,,4,,,,,,,,,,,,,,,
null,,confidence_buffer,161453,confidence_buffer,,null,,,,,,,,,,,,,,,,,,
3282.5,,memorable_rating,164737,Briarfield,,52,,,4,,,,,,,,,,,,,,,
null,,confidence_buffer,164840,confidence_buffer,,null,,,,,,,,,,,,,,,,,,
null,,thebreak,165342,break,,null,,,,,,,,,,,,,,,,,,
6537.0999999940395,,familiar_rating,171881,Willowford,,51,Willowford,Fictional,3,,,,,,,,,,,,,,,
null,,confidence_buffer,171983,confidence_buffer,,null,,,,,,,,,,,,,,,,,,
3815.7999999821186,,unique_rating,175801,Willowford,,51,,,3,,,,,,,,,,,,,,,
null,,confidence_buffer,175904,confidence_buffer,,null,,,,,,,,,,,,,,,,,,
4103,,memorable_rating,180007,Willowford,,52,,,4,,,,,,,,,,,,,,,
null,,confidence_buffer,180110,confidence_buffer,,null,,,,,,,,,,,,,,,,,,
null,,thebreak,180612,break,,null,,,,,,,,,,,,,,,,,,
3610.9000000059605,,familiar_rating,184224,Tamarisk Hills,,49,Tamarisk Hills,Fictional,1,,,,,,,,,,,,,,,
null,,confidence_buffer,184326,confidence_buffer,,null,,,,,,,,,,,,,,,,,,
4672.699999988079,,unique_rating,189001,Tamarisk Hills,,53,,,5,,,,,,,,,,,,,,,
null,,confidence_buffer,189103,confidence_buffer,,null,,,,,,,,,,,,,,,,,,
3599.0999999940395,,memorable_rating,192703,Tamarisk Hills,,51,,,3,,,,,,,,,,,,,,,
null,,confidence_buffer,192805,confidence_buffer,,null,,,,,,,,,,,,,,,,,,
null,,thebreak,193307,break,,null,,,,,,,,,,,,,,,,,,
4283.800000011921,,familiar_rating,197592,New Hope,,50,New Hope,US,2,,,,,,,,,,,,,,,
null,,confidence_buffer,197694,confidence_buffer,,null,,,,,,,,,,,,,,,,,,
3681.199999988079,,unique_rating,201376,New Hope,,51,,,3,,,,,,,,,,,,,,,
null,,confidence_buffer,201478,confidence_buffer,,null,,,,,,,,,,,,,,,,,,
3095.7999999821186,,memorable_rating,204575,New Hope,,53,,,5,,,,,,,,,,,,,,,
null,,confidence_buffer,204676,confidence_buffer,,null,,,,,,,,,,,,,,,,,,
null,,thebreak,205178,break,,null,,,,,,,,,,,,,,,,,,
3948.7999999821186,,familiar_rating,209128,Fairhaven,,51,Fairhaven,Fictional,3,,,,,,,,,,,,,,,
null,,confidence_buffer,209231,confidence_buffer,,null,,,,,,,,,,,,,,,,,,
3111.300000011921,,unique_rating,212344,Fairhaven,,50,,,2,,,,,,,,,,,,,,,
null,,confidence_buffer,212446,confidence_buffer,,null,,,,,,,,,,,,,,,,,,
2784.5,,memorable_rating,215232,Fairhaven,,51,,,3,,,,,,,,,,,,,,,
null,,confidence_buffer,215334,confidence_buffer,,null,,,,,,,,,,,,,,,,,,
null,,thebreak,215835,break,,null,,,,,,,,,,,,,,,,,,
4563.0999999940395,,familiar_rating,220400,Albuquerque,,52,Albuquerque,US,4,,,,,,,,,,,,,,,
null,,confidence_buffer,220502,confidence_buffer,,null,,,,,,,,,,,,,,,,,,
4408.799999982119,,unique_rating,224912,Albuquerque,,53,,,5,,,,,,,,,,,,,,,
null,,confidence_buffer,225014,confidence_buffer,,null,,,,,,,,,,,,,,,,,,
2936.4000000059605,,memorable_rating,227952,Albuquerque,,52,,,4,,,,,,,,,,,,,,,
null,,confidence_buffer,228054,confidence_buffer,,null,,,,,,,,,,,,,,,,,,
null,,thebreak,228555,break,,null,,,,,,,,,,,,,,,,,,
3211,,familiar_rating,231768,Alliance,,50,Alliance,US,2,,,,,,,,,,,,,,,
null,,confidence_buffer,231870,confidence_buffer,,null,,,,,,,,,,,,,,,,,,
3680.0999999940395,,unique_rating,235552,Alliance,,51,,,3,,,,,,,,,,,,,,,
null,,confidence_buffer,235655,confidence_buffer,,null,,,,,,,,,,,,,,,,,,
3215.600000023842,,memorable_rating,238872,Alliance,,52,,,4,,,,,,,,,,,,,,,
null,,confidence_buffer,238973,confidence_buffer,,null,,,,,,,,,,,,,,,,,,
null,,thebreak,239475,break,,null,,,,,,,,,,,,,,,,,,
3619.5,,familiar_rating,243096,Oakridge,,51,Oakridge,Fictional,3,,,,,,,,,,,,,,,
null,,confidence_buffer,243198,confidence_buffer,,null,,,,,,,,,,,,,,,,,,
1712.9000000059605,,unique_rating,244912,Oakridge,,50,,,2,,,,,,,,,,,,,,,
null,,confidence_buffer,245014,confidence_buffer,,null,,,,,,,,,,,,,,,,,,
2265,,memorable_rating,247280,Oakridge,,51,,,3,,,,,,,,,,,,,,,
null,,confidence_buffer,247381,confidence_buffer,,null,,,,,,,,,,,,,,,,,,
null,,thebreak,247883,break,,null,,,,,,,,,,,,,,,,,,
3691.100000023842,,familiar_rating,251576,Newport,,52,Newport,US,4,,,,,,,,,,,,,,,
null,,confidence_buffer,251681,confidence_buffer,,null,,,,,,,,,,,,,,,,,,
4596.699999988079,,unique_rating,256279,Newport,,50,,,2,,,,,,,,,,,,,,,
null,,confidence_buffer,256381,confidence_buffer,,null,,,,,,,,,,,,,,,,,,
4073.300000011921,,memorable_rating,260455,Newport,,53,,,5,,,,,,,,,,,,,,,
null,,confidence_buffer,260556,confidence_buffer,,null,,,,,,,,,,,,,,,,,,
null,,thebreak,261058,break,,null,,,,,,,,,,,,,,,,,,
6900.200000017881,,familiar_rating,267959,Silverpine,,50,Silverpine,Fictional,2,,,,,,,,,,,,,,,
null,,confidence_buffer,268062,confidence_buffer,,null,,,,,,,,,,,,,,,,,,
3552,,unique_rating,271615,Silverpine,,51,,,3,,,,,,,,,,,,,,,
null,,confidence_buffer,271717,confidence_buffer,,null,,,,,,,,,,,,,,,,,,
1993,,memorable_rating,273711,Silverpine,,51,,,3,,,,,,,,,,,,,,,
null,,confidence_buffer,273813,confidence_buffer,,null,,,,,,,,,,,,,,,,,,
null,,thebreak,274319,break,,null,,,,,,,,,,,,,,,,,,
5335.0999999940395,,familiar_rating,279655,Abilene,,52,Abilene,US,4,,,,,,,,,,,,,,,
null,,confidence_buffer,279757,confidence_buffer,,null,,,,,,,,,,,,,,,,,,
3032.7999999821186,,unique_rating,282791,Abilene,,52,,,4,,,,,,,,,,,,,,,
null,,confidence_buffer,282893,confidence_buffer,,null,,,,,,,,,,,,,,,,,,
2352.2000000178814,,memorable_rating,285247,Abilene,,51,,,3,,,,,,,,,,,,,,,
null,,confidence_buffer,285354,confidence_buffer,,null,,,,,,,,,,,,,,,,,,
null,,thebreak,285856,break,,null,,,,,,,,,,,,,,,,,,
3677.699999988079,,familiar_rating,289535,Coeur d'Alene,,49,Coeur d'Alene,US,1,,,,,,,,,,,,,,,
null,,confidence_buffer,289637,confidence_buffer,,null,,,,,,,,,,,,,,,,,,
2793.0999999940395,,unique_rating,292431,Coeur d'Alene,,53,,,5,,,,,,,,,,,,,,,
null,,confidence_buffer,292534,confidence_buffer,,null,,,,,,,,,,,,,,,,,,
2767.7000000178814,,probe_rating,295303,probe_rating,,51,,,,3,1,,,,,,,,,,,,,
null,,confidence_buffer,295405,confidence_buffer,,null,,,,,,,,,,,,,,,,,,
4736.299999982119,,memorable_rating,300143,Coeur d'Alene,,50,,,2,,,,,,,,,,,,,,,
null,,confidence_buffer,300245,confidence_buffer,,null,,,,,,,,,,,,,,,,,,
null,,thebreak,300746,break,,null,,,,,,,,,,,,,,,,,,
3146.800000011921,,familiar_rating,303895,Redgrove,,51,Redgrove,Fictional,3,,,,,,,,,,,,,,,
null,,confidence_buffer,303997,confidence_buffer,,null,,,,,,,,,,,,,,,,,,
2720.7999999821186,,unique_rating,306719,Redgrove,,50,,,2,,,,,,,,,,,,,,,
null,,confidence_buffer,306821,confidence_buffer,,null,,,,,,,,,,,,,,,,,,
2241.4000000059605,,memorable_rating,309064,Redgrove,,50,,,2,,,,,,,,,,,,,,,
null,,confidence_buffer,309166,confidence_buffer,,null,,,,,,,,,,,,,,,,,,
null,,thebreak,309668,break,,null,,,,,,,,,,,,,,,,,,
4049.4000000059605,,familiar_rating,313718,Baymarsh,,49,Baymarsh,Fictional,1,,,,,,,,,,,,,,,
null,,confidence_buffer,313820,confidence_buffer,,null,,,,,,,,,,,,,,,,,,
2904.9000000059605,,unique_rating,316726,Baymarsh,,52,,,4,,,,,,,,,,,,,,,
null,,confidence_buffer,316828,confidence_buffer,,null,,,,,,,,,,,,,,,,,,
2090.100000023842,,memorable_rating,318919,Baymarsh,,51,,,3,,,,,,,,,,,,,,,
null,,confidence_buffer,319024,confidence_buffer,,null,,,,,,,,,,,,,,,,,,
null,,thebreak,319530,break,,null,,,,,,,,,,,,,,,,,,
9132,,familiar_rating,328663,Rosehollow,,50,Rosehollow,Fictional,2,,,,,,,,,,,,,,,
null,,confidence_buffer,328765,confidence_buffer,,null,,,,,,,,,,,,,,,,,,
3247.899999976158,,probe_rating,332015,probe_rating,,53,,,,5,1,,,,,,,,,,,,,
null,,confidence_buffer,332117,confidence_buffer,,null,,,,,,,,,,,,,,,,,,
3000.2999999821186,,unique_rating,335119,Rosehollow,,52,,,4,,,,,,,,,,,,,,,
null,,confidence_buffer,335221,confidence_buffer,,null,,,,,,,,,,,,,,,,,,
2496.4000000059605,,memorable_rating,337718,Rosehollow,,52,,,4,,,,,,,,,,,,,,,
null,,confidence_buffer,337821,confidence_buffer,,null,,,,,,,,,,,,,,,,,,
null,,thebreak,338323,break,,null,,,,,,,,,,,,,,,,,,
2890,,familiar_rating,341215,Hollendale,,49,Hollendale,Fictional,1,,,,,,,,,,,,,,,
null,,confidence_buffer,341317,confidence_buffer,,null,,,,,,,,,,,,,,,,,,
2800,,unique_rating,344118,Hollendale,,52,,,4,,,,,,,,,,,,,,,
null,,confidence_buffer,344220,confidence_buffer,,null,,,,,,,,,,,,,,,,,,
2272.9000000059605,,memorable_rating,346494,Hollendale,,51,,,3,,,,,,,,,,,,,,,
null,,confidence_buffer,346596,confidence_buffer,,null,,,,,,,,,,,,,,,,,,
null,,thebreak,347097,break,,null,,,,,,,,,,,,,,,,,,
3203.5999999940395,,familiar_rating,350302,Northbridge,,50,Northbridge,Fictional,2,,,,,,,,,,,,,,,
null,,confidence_buffer,350404,confidence_buffer,,null,,,,,,,,,,,,,,,,,,
2065,,unique_rating,352471,Northbridge,,51,,,3,,,,,,,,,,,,,,,
null,,confidence_buffer,352573,confidence_buffer,,null,,,,,,,,,,,,,,,,,,
2232.2999999821186,,memorable_rating,354806,Northbridge,,51,,,3,,,,,,,,,,,,,,,
null,,confidence_buffer,354908,confidence_buffer,,null,,,,,,,,,,,,,,,,,,
null,,thebreak,355410,break,,null,,,,,,,,,,,,,,,,,,
6650.5999999940395,,familiar_rating,362061,Leesburg,,50,Leesburg,US,2,,,,,,,,,,,,,,,
null,,confidence_buffer,362162,confidence_buffer,,null,,,,,,,,,,,,,,,,,,
3283,,unique_rating,365446,Leesburg,,52,,,4,,,,,,,,,,,,,,,
null,,confidence_buffer,365548,confidence_buffer,,null,,,,,,,,,,,,,,,,,,
2344.5,,memorable_rating,367894,Leesburg,,51,,,3,,,,,,,,,,,,,,,
null,,confidence_buffer,367996,confidence_buffer,,null,,,,,,,,,,,,,,,,,,
null,,thebreak,368497,break,,null,,,,,,,,,,,,,,,,,,
3627.5999999940395,,familiar_rating,372126,Bar Harbor,,50,Bar Harbor,US,2,,,,,,,,,,,,,,,
null,,confidence_buffer,372228,confidence_buffer,,null,,,,,,,,,,,,,,,,,,
3409,,unique_rating,375638,Bar Harbor,,52,,,4,,,,,,,,,,,,,,,
null,,confidence_buffer,375740,confidence_buffer,,null,,,,,,,,,,,,,,,,,,
3376.199999988079,,memorable_rating,379118,Bar Harbor,,52,,,4,,,,,,,,,,,,,,,
null,,confidence_buffer,379220,confidence_buffer,,null,,,,,,,,,,,,,,,,,,
null,,thebreak,379721,break,,null,,,,,,,,,,,,,,,,,,
3531.5,,familiar_rating,383254,Sitka,,49,Sitka,US,1,,,,,,,,,,,,,,,
null,,confidence_buffer,383357,confidence_buffer,,null,,,,,,,,,,,,,,,,,,
2416.100000023842,,unique_rating,385774,Sitka,,53,,,5,,,,,,,,,,,,,,,
null,,confidence_buffer,385876,confidence_buffer,,null,,,,,,,,,,,,,,,,,,
3312.300000011921,,memorable_rating,389190,Sitka,,50,,,2,,,,,,,,,,,,,,,
null,,confidence_buffer,389292,confidence_buffer,,null,,,,,,,,,,,,,,,,,,
null,,thebreak,389794,break,,null,,,,,,,,,,,,,,,,,,
4091,,familiar_rating,393886,Sisters,,49,Sisters,US,1,,,,,,,,,,,,,,,
null,,confidence_buffer,393987,confidence_buffer,,null,,,,,,,,,,,,,,,,,,
2769.5,,unique_rating,396758,Sisters,,52,,,4,,,,,,,,,,,,,,,
null,,confidence_buffer,396860,confidence_buffer,,null,,,,,,,,,,,,,,,,,,
2464.0999999940395,,memorable_rating,399326,Sisters,,53,,,5,,,,,,,,,,,,,,,
null,,confidence_buffer,399432,confidence_buffer,,null,,,,,,,,,,,,,,,,,,
null,,thebreak,399933,break,,null,,,,,,,,,,,,,,,,,,
2614.7000000178814,,familiar_rating,402550,Cornwall,,50,Cornwall,US,2,,,,,,,,,,,,,,,
null,,confidence_buffer,402652,confidence_buffer,,null,,,,,,,,,,,,,,,,,,
2784.4000000059605,,unique_rating,405438,Cornwall,,51,,,3,,,,,,,,,,,,,,,
null,,confidence_buffer,405539,confidence_buffer,,null,,,,,,,,,,,,,,,,,,
1929.0999999940395,,memorable_rating,407470,Cornwall,,51,,,3,,,,,,,,,,,,,,,
null,,confidence_buffer,407572,confidence_buffer,,null,,,,,,,,,,,,,,,,,,
null,,thebreak,408074,break,,null,,,,,,,,,,,,,,,,,,
6330.199999988079,,familiar_rating,414406,Claywater,,49,Claywater,Fictional,1,,,,,,,,,,,,,,,
null,,confidence_buffer,414507,confidence_buffer,,null,,,,,,,,,,,,,,,,,,
1872.8999999761581,,unique_rating,416382,Claywater,,52,,,4,,,,,,,,,,,,,,,
null,,confidence_buffer,416484,confidence_buffer,,null,,,,,,,,,,,,,,,,,,
2129,,memorable_rating,418614,Claywater,,50,,,2,,,,,,,,,,,,,,,
null,,confidence_buffer,418716,confidence_buffer,,null,,,,,,,,,,,,,,,,,,
null,,thebreak,419217,break,,null,,,,,,,,,,,,,,,,,,
5412.9000000059605,,familiar_rating,424631,Manistee,,49,Manistee,US,1,,,,,,,,,,,,,,,
null,,confidence_buffer,424733,confidence_buffer,,null,,,,,,,,,,,,,,,,,,
1870.699999988079,,unique_rating,426606,Manistee,,53,,,5,,,,,,,,,,,,,,,
null,,confidence_buffer,426707,confidence_buffer,,null,,,,,,,,,,,,,,,,,,
1752.5999999940395,,memorable_rating,428461,Manistee,,51,,,3,,,,,,,,,,,,,,,
null,,confidence_buffer,428564,confidence_buffer,,null,,,,,,,,,,,,,,,,,,
null,,thebreak,429065,break,,null,,,,,,,,,,,,,,,,,,
3139.399999976158,,familiar_rating,432206,Westridge,,51,Westridge,Fictional,3,,,,,,,,,,,,,,,
null,,confidence_buffer,432308,confidence_buffer,,null,,,,,,,,,,,,,,,,,,
2609.0999999940395,,unique_rating,434918,Westridge,,49,,,1,,,,,,,,,,,,,,,
null,,confidence_buffer,435020,confidence_buffer,,null,,,,,,,,,,,,,,,,,,
3279.600000023842,,memorable_rating,438300,Westridge,,50,,,2,,,,,,,,,,,,,,,
null,,confidence_buffer,438402,confidence_buffer,,null,,,,,,,,,,,,,,,,,,
null,,thebreak,438904,break,,null,,,,,,,,,,,,,,,,,,
7004.199999988079,,intro_0,445909,instruct,,32,,,,,,,,,,,,,,,,,,
10950.5,,intro_1,456861,instruct,,32,,,,,,,,,,,,,,,,,,
19910.59999999404,,intro_2,476773,instruct,,32,,,,,,,,,,,,,,,,,,
null,,instruct_dir_4,478275,instruct,,null,,,,,,,,,,,,,,,,,,
12040,,realistic_rating,490316,Barnard,,52,Barnard,US,4,,,,,,,,,,,,,,,
null,,confidence_buffer,490418,confidence_buffer,,null,,,,,,,,,,,,,,,,,,
6247.800000011921,,pt2_unique_rating,496667,Barnard,,52,,,4,,,,,,,,,,,,,,,
null,,confidence_buffer,496770,confidence_buffer,,null,,,,,,,,,,,,,,,,,,
1960.9000000059605,,pt2_memorable_rating,498732,Barnard,,51,,,3,,,,,,,,,,,,,,,
null,,confidence_buffer,498834,confidence_buffer,,null,,,,,,,,,,,,,,,,,,
7664.600000023842,,recognition_phase,506501,Barnard,,51,,,,,,new,1,1,,,,,,,,,,
null,,confidence_buffer,506602,confidence_buffer,,null,,,,,,,,,,,,,,,,,,
null,,thebreak,507104,break,,null,,,,,,,,,,,,,,,,,,
6411.199999988079,,realistic_rating,513516,Athens,,53,Athens,US,5,,,,,,,,,,,,,,,
null,,confidence_buffer,513618,confidence_buffer,,null,,,,,,,,,,,,,,,,,,
3552.5999999940395,,pt2_unique_rating,517172,Athens,,50,,,2,,,,,,,,,,,,,,,
null,,confidence_buffer,517274,confidence_buffer,,null,,,,,,,,,,,,,,,,,,
2025.0999999940395,,pt2_memorable_rating,519300,Athens,,52,,,4,,,,,,,,,,,,,,,
null,,confidence_buffer,519403,confidence_buffer,,null,,,,,,,,,,,,,,,,,,
3871.5,,recognition_phase,523276,Athens,,52,,,,,,new,1,1,,,,,,,,,,
null,,confidence_buffer,523378,confidence_buffer,,null,,,,,,,,,,,,,,,,,,
null,,thebreak,523881,break,,null,,,,,,,,,,,,,,,,,,
10714.40000000596,,realistic_rating,534596,Stonebrook,,52,Stonebrook,Fictional,4,,,,,,,,,,,,,,,
null,,confidence_buffer,534699,confidence_buffer,,null,,,,,,,,,,,,,,,,,,
2920,,pt2_unique_rating,537620,Stonebrook,,50,,,2,,,,,,,,,,,,,,,
null,,confidence_buffer,537723,confidence_buffer,,null,,,,,,,,,,,,,,,,,,
2007.300000011921,,pt2_memorable_rating,539732,Stonebrook,,51,,,3,,,,,,,,,,,,,,,
null,,confidence_buffer,539834,confidence_buffer,,null,,,,,,,,,,,,,,,,,,
3304.800000011921,,recognition_phase,543140,Stonebrook,,50,,,,,,old,1,1,,,,,,,,,,
null,,confidence_buffer,543242,confidence_buffer,,null,,,,,,,,,,,,,,,,,,
null,,thebreak,543744,break,,null,,,,,,,,,,,,,,,,,,
5666.9000000059605,,realistic_rating,549412,Bisbee,,50,Bisbee,US,2,,,,,,,,,,,,,,,
null,,confidence_buffer,549514,confidence_buffer,,null,,,,,,,,,,,,,,,,,,
4007.5999999940395,,pt2_unique_rating,553523,Bisbee,,51,,,3,,,,,,,,,,,,,,,
null,,confidence_buffer,553624,confidence_buffer,,null,,,,,,,,,,,,,,,,,,
4897.299999982119,,pt2_memorable_rating,558523,Bisbee,,50,,,2,,,,,,,,,,,,,,,
null,,confidence_buffer,558626,confidence_buffer,,null,,,,,,,,,,,,,,,,,,
2721,,probe_rating,561347,probe_rating,,53,,,,5,1,,,,,,,,,,,,,
null,,confidence_buffer,561450,confidence_buffer,,null,,,,,,,,,,,,,,,,,,
4480.600000023842,,recognition_phase,565932,Bisbee,,51,,,,,,new,1,1,,,,,,,,,,
null,,confidence_buffer,566034,confidence_buffer,,null,,,,,,,,,,,,,,,,,,
null,,thebreak,566535,break,,null,,,,,,,,,,,,,,,,,,
3555.300000011921,,realistic_rating,570092,Natchez,,50,Natchez,US,2,,,,,,,,,,,,,,,
null,,confidence_buffer,570194,confidence_buffer,,null,,,,,,,,,,,,,,,,,,
4080.699999988079,,pt2_unique_rating,574276,Natchez,,53,,,5,,,,,,,,,,,,,,,
null,,confidence_buffer,574378,confidence_buffer,,null,,,,,,,,,,,,,,,,,,
2736,,pt2_memorable_rating,577116,Natchez,,50,,,2,,,,,,,,,,,,,,,
null,,confidence_buffer,577218,confidence_buffer,,null,,,,,,,,,,,,,,,,,,
2520.2999999821186,,probe_rating,579740,probe_rating,,51,,,,3,1,,,,,,,,,,,,,
null,,confidence_buffer,579842,confidence_buffer,,null,,,,,,,,,,,,,,,,,,
3408,,recognition_phase,583252,Natchez,,52,,,,,,new,1,1,,,,,,,,,,
null,,confidence_buffer,583354,confidence_buffer,,null,,,,,,,,,,,,,,,,,,
null,,thebreak,583856,break,,null,,,,,,,,,,,,,,,,,,
6170.300000011921,,realistic_rating,590028,Gloucester,,52,Gloucester,US,4,,,,,,,,,,,,,,,
null,,confidence_buffer,590130,confidence_buffer,,null,,,,,,,,,,,,,,,,,,
2664.800000011921,,pt2_unique_rating,592796,Gloucester,,51,,,3,,,,,,,,,,,,,,,
null,,confidence_buffer,592903,confidence_buffer,,null,,,,,,,,,,,,,,,,,,
2522.5,,pt2_memorable_rating,595427,Gloucester,,51,,,3,,,,,,,,,,,,,,,
null,,confidence_buffer,595529,confidence_buffer,,null,,,,,,,,,,,,,,,,,,
2137,,recognition_phase,597667,Gloucester,,52,,,,,,new,1,1,,,,,,,,,,
null,,confidence_buffer,597769,confidence_buffer,,null,,,,,,,,,,,,,,,,,,
null,,thebreak,598272,break,,null,,,,,,,,,,,,,,,,,,
4330.300000011921,,realistic_rating,602604,Watkins Glen,,50,Watkins Glen,US,2,,,,,,,,,,,,,,,
null,,confidence_buffer,602706,confidence_buffer,,null,,,,,,,,,,,,,,,,,,
2200.5999999940395,,probe_rating,604908,probe_rating,,51,,,,3,1,,,,,,,,,,,,,
null,,confidence_buffer,605010,confidence_buffer,,null,,,,,,,,,,,,,,,,,,
4855.800000011921,,pt2_unique_rating,609867,Watkins Glen,,52,,,4,,,,,,,,,,,,,,,
null,,confidence_buffer,609984,confidence_buffer,,null,,,,,,,,,,,,,,,,,,
2946.0999999940395,,pt2_memorable_rating,612932,Watkins Glen,,51,,,3,,,,,,,,,,,,,,,
null,,confidence_buffer,613034,confidence_buffer,,null,,,,,,,,,,,,,,,,,,
3631.199999988079,,recognition_phase,616666,Watkins Glen,,52,,,,,,new,1,1,,,,,,,,,,
null,,confidence_buffer,616769,confidence_buffer,,null,,,,,,,,,,,,,,,,,,
null,,thebreak,617271,break,,null,,,,,,,,,,,,,,,,,,
3476.0999999940395,,realistic_rating,620748,Cornwall,,52,Cornwall,US,4,,,,,,,,,,,,,,,
null,,confidence_buffer,620850,confidence_buffer,,null,,,,,,,,,,,,,,,,,,
3360.5,,pt2_unique_rating,624211,Cornwall,,51,,,3,,,,,,,,,,,,,,,
null,,confidence_buffer,624313,confidence_buffer,,null,,,,,,,,,,,,,,,,,,
2624.300000011921,,pt2_memorable_rating,626939,Cornwall,,51,,,3,,,,,,,,,,,,,,,
null,,confidence_buffer,627040,confidence_buffer,,null,,,,,,,,,,,,,,,,,,
6512.800000011921,,recognition_phase,633555,Cornwall,,49,,,,,,old,1,1,,,,,,,,,,
null,,confidence_buffer,633657,confidence_buffer,,null,,,,,,,,,,,,,,,,,,
null,,thebreak,634158,break,,null,,,,,,,,,,,,,,,,,,
3603.600000023842,,realistic_rating,637763,Millstone,,51,Millstone,Fictional,3,,,,,,,,,,,,,,,
null,,confidence_buffer,637865,confidence_buffer,,null,,,,,,,,,,,,,,,,,,
2560.5,,pt2_unique_rating,640427,Millstone,,50,,,2,,,,,,,,,,,,,,,
null,,confidence_buffer,640529,confidence_buffer,,null,,,,,,,,,,,,,,,,,,
1880.699999988079,,pt2_memorable_rating,642411,Millstone,,50,,,2,,,,,,,,,,,,,,,
null,,confidence_buffer,642512,confidence_buffer,,null,,,,,,,,,,,,,,,,,,
2096.9000000059605,,recognition_phase,644611,Millstone,,50,,,,,,old,0,0.8888888888888888,,,,,,,,,,
null,,confidence_buffer,644713,confidence_buffer,,null,,,,,,,,,,,,,,,,,,
null,,thebreak,645214,break,,null,,,,,,,,,,,,,,,,,,
4507.100000023842,,realistic_rating,649723,Abilene,,53,Abilene,US,5,,,,,,,,,,,,,,,
null,,confidence_buffer,649825,confidence_buffer,,null,,,,,,,,,,,,,,,,,,
2856.2000000178814,,pt2_unique_rating,652683,Abilene,,51,,,3,,,,,,,,,,,,,,,
null,,confidence_buffer,652784,confidence_buffer,,null,,,,,,,,,,,,,,,,,,
2593,,pt2_memorable_rating,655379,Abilene,,51,,,3,,,,,,,,,,,,,,,
null,,confidence_buffer,655482,confidence_buffer,,null,,,,,,,,,,,,,,,,,,
1887.1000000238419,,recognition_phase,657371,Abilene,,49,,,,,,old,1,0.9,,,,,,,,,,
null,,confidence_buffer,657472,confidence_buffer,,null,,,,,,,,,,,,,,,,,,
null,,thebreak,657973,break,,null,,,,,,,,,,,,,,,,,,
5955.199999988079,,realistic_rating,663930,Riverlyn,,50,Riverlyn,Fictional,2,,,,,,,,,,,,,,,
null,,confidence_buffer,664032,confidence_buffer,,null,,,,,,,,,,,,,,,,,,
2345.699999988079,,pt2_unique_rating,666379,Riverlyn,,52,,,4,,,,,,,,,,,,,,,
null,,confidence_buffer,666480,confidence_buffer,,null,,,,,,,,,,,,,,,,,,
2432.699999988079,,pt2_memorable_rating,668914,Riverlyn,,50,,,2,,,,,,,,,,,,,,,
null,,confidence_buffer,669016,confidence_buffer,,null,,,,,,,,,,,,,,,,,,
2673.5999999940395,,recognition_phase,671691,Riverlyn,,52,,,,,,new,1,0.9090909090909091,,,,,,,,,,
null,,confidence_buffer,671794,confidence_buffer,,null,,,,,,,,,,,,,,,,,,
null,,thebreak,672295,break,,null,,,,,,,,,,,,,,,,,,
3273.5,,realistic_rating,675570,Hanover,,51,Hanover,US,3,,,,,,,,,,,,,,,
null,,confidence_buffer,675672,confidence_buffer,,null,,,,,,,,,,,,,,,,,,
2937.300000011921,,pt2_unique_rating,678610,Hanover,,50,,,2,,,,,,,,,,,,,,,
null,,confidence_buffer,678712,confidence_buffer,,null,,,,,,,,,,,,,,,,,,
2272.5,,pt2_memorable_rating,680986,Hanover,,50,,,2,,,,,,,,,,,,,,,
null,,confidence_buffer,681099,confidence_buffer,,null,,,,,,,,,,,,,,,,,,
4206.199999988079,,recognition_phase,685306,Hanover,,51,,,,,,new,1,0.9166666666666666,,,,,,,,,,
null,,confidence_buffer,685415,confidence_buffer,,null,,,,,,,,,,,,,,,,,,
null,,thebreak,685916,break,,null,,,,,,,,,,,,,,,,,,
3636.5999999940395,,realistic_rating,689554,Ironwood Heights,,51,Ironwood Heights,Fictional,3,,,,,,,,,,,,,,,
null,,confidence_buffer,689657,confidence_buffer,,null,,,,,,,,,,,,,,,,,,
3032.100000023842,,pt2_unique_rating,692690,Ironwood Heights,,51,,,3,,,,,,,,,,,,,,,
null,,confidence_buffer,692792,confidence_buffer,,null,,,,,,,,,,,,,,,,,,
1688.7000000178814,,probe_rating,694482,probe_rating,,50,,,,2,1,,,,,,,,,,,,,
null,,confidence_buffer,694584,confidence_buffer,,null,,,,,,,,,,,,,,,,,,
3080.399999976158,,pt2_memorable_rating,697666,Ironwood Heights,,50,,,2,,,,,,,,,,,,,,,
null,,confidence_buffer,697778,confidence_buffer,,null,,,,,,,,,,,,,,,,,,
3006.2999999821186,,recognition_phase,700786,Ironwood Heights,,50,,,,,,old,0,0.8461538461538461,,,,,,,,,,
null,,confidence_buffer,700888,confidence_buffer,,null,,,,,,,,,,,,,,,,,,
null,,thebreak,701389,break,,null,,,,,,,,,,,,,,,,,,
3555.300000011921,,realistic_rating,704946,Meadowspire,,50,Meadowspire,Fictional,2,,,,,,,,,,,,,,,
null,,confidence_buffer,705048,confidence_buffer,,null,,,,,,,,,,,,,,,,,,
2296.199999988079,,pt2_unique_rating,707346,Meadowspire,,52,,,4,,,,,,,,,,,,,,,
null,,confidence_buffer,707447,confidence_buffer,,null,,,,,,,,,,,,,,,,,,
3273,,pt2_memorable_rating,710722,Meadowspire,,50,,,2,,,,,,,,,,,,,,,
null,,confidence_buffer,710826,confidence_buffer,,null,,,,,,,,,,,,,,,,,,
1814.4000000059605,,recognition_phase,712642,Meadowspire,,52,,,,,,new,1,0.8571428571428571,,,,,,,,,,
null,,confidence_buffer,712744,confidence_buffer,,null,,,,,,,,,,,,,,,,,,
null,,thebreak,713246,break,,null,,,,,,,,,,,,,,,,,,
3578.699999988079,,realistic_rating,716826,West Palm Beach,,53,West Palm Beach,US,5,,,,,,,,,,,,,,,
null,,confidence_buffer,716928,confidence_buffer,,null,,,,,,,,,,,,,,,,,,
2648.5999999940395,,pt2_unique_rating,719578,West Palm Beach,,50,,,2,,,,,,,,,,,,,,,
null,,confidence_buffer,719680,confidence_buffer,,null,,,,,,,,,,,,,,,,,,
1896.800000011921,,pt2_memorable_rating,721578,West Palm Beach,,52,,,4,,,,,,,,,,,,,,,
null,,confidence_buffer,721680,confidence_buffer,,null,,,,,,,,,,,,,,,,,,
1881.4000000059605,,recognition_phase,723563,West Palm Beach,,49,,,,,,old,1,0.8666666666666667,,,,,,,,,,
null,,confidence_buffer,723665,confidence_buffer,,null,,,,,,,,,,,,,,,,,,
null,,thebreak,724166,break,,null,,,,,,,,,,,,,,,,,,
4921.9000000059605,,realistic_rating,729090,Baymarsh,,51,Baymarsh,Fictional,3,,,,,,,,,,,,,,,
null,,confidence_buffer,729192,confidence_buffer,,null,,,,,,,,,,,,,,,,,,
2360.5999999940395,,pt2_unique_rating,731554,Baymarsh,,51,,,3,,,,,,,,,,,,,,,
null,,confidence_buffer,731655,confidence_buffer,,null,,,,,,,,,,,,,,,,,,
1801.1000000238419,,pt2_memorable_rating,733458,Baymarsh,,50,,,2,,,,,,,,,,,,,,,
null,,confidence_buffer,733560,confidence_buffer,,null,,,,,,,,,,,,,,,,,,
2194,,recognition_phase,735755,Baymarsh,,51,,,,,,new,0,0.8125,,,,,,,,,,
null,,confidence_buffer,735856,confidence_buffer,,null,,,,,,,,,,,,,,,,,,
null,,thebreak,736357,break,,null,,,,,,,,,,,,,,,,,,
4340.300000011921,,realistic_rating,740700,Manistee,,50,Manistee,US,2,,,,,,,,,,,,,,,
null,,confidence_buffer,740802,confidence_buffer,,null,,,,,,,,,,,,,,,,,,
2374.2000000178814,,probe_rating,743178,probe_rating,,53,,,,5,1,,,,,,,,,,,,,
null,,confidence_buffer,743280,confidence_buffer,,null,,,,,,,,,,,,,,,,,,
3752.7999999821186,,pt2_unique_rating,747034,Manistee,,52,,,4,,,,,,,,,,,,,,,
null,,confidence_buffer,747136,confidence_buffer,,null,,,,,,,,,,,,,,,,,,
1992.0999999940395,,pt2_memorable_rating,749130,Manistee,,51,,,3,,,,,,,,,,,,,,,
null,,confidence_buffer,749231,confidence_buffer,,null,,,,,,,,,,,,,,,,,,
1784.300000011921,,recognition_phase,751017,Manistee,,49,,,,,,old,1,0.8235294117647058,,,,,,,,,,
null,,confidence_buffer,751123,confidence_buffer,,null,,,,,,,,,,,,,,,,,,
null,,thebreak,751624,break,,null,,,,,,,,,,,,,,,,,,
4559.4000000059605,,realistic_rating,756186,Assateague Island,,50,Assateague Island,US,2,,,,,,,,,,,,,,,
null,,confidence_buffer,756287,confidence_buffer,,null,,,,,,,,,,,,,,,,,,
3617.0999999940395,,pt2_unique_rating,759906,Assateague Island,,52,,,4,,,,,,,,,,,,,,,
null,,confidence_buffer,760019,confidence_buffer,,null,,,,,,,,,,,,,,,,,,
2372.699999988079,,pt2_memorable_rating,762393,Assateague Island,,50,,,2,,,,,,,,,,,,,,,
null,,confidence_buffer,762495,confidence_buffer,,null,,,,,,,,,,,,,,,,,,
3960.5,,probe_rating,766458,probe_rating,,51,,,,3,1,,,,,,,,,,,,,
null,,confidence_buffer,766559,confidence_buffer,,null,,,,,,,,,,,,,,,,,,
2392.5,,recognition_phase,768953,Assateague Island,,52,,,,,,new,1,0.8333333333333334,,,,,,,,,,
null,,confidence_buffer,769056,confidence_buffer,,null,,,,,,,,,,,,,,,,,,
null,,thebreak,769557,break,,null,,,,,,,,,,,,,,,,,,
2730.5,,realistic_rating,772290,Cody,,50,Cody,US,2,,,,,,,,,,,,,,,
null,,confidence_buffer,772392,confidence_buffer,,null,,,,,,,,,,,,,,,,,,
2351.100000023842,,pt2_unique_rating,774745,Cody,,51,,,3,,,,,,,,,,,,,,,
null,,confidence_buffer,774847,confidence_buffer,,null,,,,,,,,,,,,,,,,,,
1497.199999988079,,pt2_memorable_rating,776345,Cody,,50,,,2,,,,,,,,,,,,,,,
null,,confidence_buffer,776447,confidence_buffer,,null,,,,,,,,,,,,,,,,,,
2120,,recognition_phase,778569,Cody,,52,,,,,,new,1,0.8421052631578947,,,,,,,,,,
null,,confidence_buffer,778672,confidence_buffer,,null,,,,,,,,,,,,,,,,,,
null,,thebreak,779173,break,,null,,,,,,,,,,,,,,,,,,
2754.300000011921,,realistic_rating,781929,Fairhaven,,51,Fairhaven,Fictional,3,,,,,,,,,,,,,,,
null,,confidence_buffer,782032,confidence_buffer,,null,,,,,,,,,,,,,,,,,,
1823.9000000059605,,pt2_unique_rating,783857,Fairhaven,,50,,,2,,,,,,,,,,,,,,,
null,,confidence_buffer,783959,confidence_buffer,,null,,,,,,,,,,,,,,,,,,
2248.5999999940395,,pt2_memorable_rating,786209,Fairhaven,,50,,,2,,,,,,,,,,,,,,,
null,,confidence_buffer,786311,confidence_buffer,,null,,,,,,,,,,,,,,,,,,
2712.699999988079,,recognition_phase,789025,Fairhaven,,50,,,,,,old,1,0.85,,,,,,,,,,
null,,confidence_buffer,789127,confidence_buffer,,null,,,,,,,,,,,,,,,,,,
null,,thebreak,789628,break,,null,,,,,,,,,,,,,,,,,,
5723.300000011921,,realistic_rating,795352,Okoboji,,50,Okoboji,US,2,,,,,,,,,,,,,,,
null,,confidence_buffer,795455,confidence_buffer,,null,,,,,,,,,,,,,,,,,,
2816.5999999940395,,pt2_unique_rating,798272,Okoboji,,53,,,5,,,,,,,,,,,,,,,
null,,confidence_buffer,798375,confidence_buffer,,null,,,,,,,,,,,,,,,,,,
2768.300000011921,,pt2_memorable_rating,801144,Okoboji,,50,,,2,,,,,,,,,,,,,,,
null,,confidence_buffer,801246,confidence_buffer,,null,,,,,,,,,,,,,,,,,,
2361.800000011921,,recognition_phase,803609,Okoboji,,52,,,,,,new,1,0.8571428571428571,,,,,,,,,,
null,,confidence_buffer,803711,confidence_buffer,,null,,,,,,,,,,,,,,,,,,
null,,thebreak,804212,break,,null,,,,,,,,,,,,,,,,,,
2931.2000000178814,,realistic_rating,807145,Peoria,,50,Peoria,US,2,,,,,,,,,,,,,,,
null,,confidence_buffer,807256,confidence_buffer,,null,,,,,,,,,,,,,,,,,,
2463.699999988079,,pt2_unique_rating,809721,Peoria,,51,,,3,,,,,,,,,,,,,,,
null,,confidence_buffer,809823,confidence_buffer,,null,,,,,,,,,,,,,,,,,,
1824.5999999940395,,pt2_memorable_rating,811649,Peoria,,50,,,2,,,,,,,,,,,,,,,
null,,confidence_buffer,811751,confidence_buffer,,null,,,,,,,,,,,,,,,,,,
2231.800000011921,,recognition_phase,813985,Peoria,,52,,,,,,new,1,0.8636363636363636,,,,,,,,,,
null,,confidence_buffer,814086,confidence_buffer,,null,,,,,,,,,,,,,,,,,,
null,,thebreak,814588,break,,null,,,,,,,,,,,,,,,,,,
3915.9000000059605,,realistic_rating,818505,Sisters,,50,Sisters,US,2,,,,,,,,,,,,,,,
null,,confidence_buffer,818607,confidence_buffer,,null,,,,,,,,,,,,,,,,,,
2832,,pt2_unique_rating,821441,Sisters,,52,,,4,,,,,,,,,,,,,,,
null,,confidence_buffer,821542,confidence_buffer,,null,,,,,,,,,,,,,,,,,,
2153.2000000178814,,pt2_memorable_rating,823697,Sisters,,52,,,4,,,,,,,,,,,,,,,
null,,confidence_buffer,823813,confidence_buffer,,null,,,,,,,,,,,,,,,,,,
1834.5999999940395,,recognition_phase,825649,Sisters,,49,,,,,,old,1,0.8695652173913043,,,,,,,,,,
null,,confidence_buffer,825750,confidence_buffer,,null,,,,,,,,,,,,,,,,,,
null,,thebreak,826252,break,,null,,,,,,,,,,,,,,,,,,
3539.2000000178814,,realistic_rating,829793,Ravenport,,52,Ravenport,Fictional,4,,,,,,,,,,,,,,,
null,,confidence_buffer,829894,confidence_buffer,,null,,,,,,,,,,,,,,,,,,
2616.800000011921,,pt2_unique_rating,832513,Ravenport,,50,,,2,,,,,,,,,,,,,,,
null,,confidence_buffer,832615,confidence_buffer,,null,,,,,,,,,,,,,,,,,,
2352,,pt2_memorable_rating,834969,Ravenport,,50,,,2,,,,,,,,,,,,,,,
null,,confidence_buffer,835071,confidence_buffer,,null,,,,,,,,,,,,,,,,,,
1528,,recognition_phase,836600,Ravenport,,50,,,,,,old,1,0.875,,,,,,,,,,
null,,confidence_buffer,836702,confidence_buffer,,null,,,,,,,,,,,,,,,,,,
null,,thebreak,837204,break,,null,,,,,,,,,,,,,,,,,,
4299.200000017881,,realistic_rating,841505,Tamarisk Hills,,51,Tamarisk Hills,Fictional,3,,,,,,,,,,,,,,,
null,,confidence_buffer,841607,confidence_buffer,,null,,,,,,,,,,,,,,,,,,
1320.0999999940395,,pt2_unique_rating,842928,Tamarisk Hills,,51,,,3,,,,,,,,,,,,,,,
null,,confidence_buffer,843032,confidence_buffer,,null,,,,,,,,,,,,,,,,,,
1695.0999999940395,,pt2_memorable_rating,844728,Tamarisk Hills,,51,,,3,,,,,,,,,,,,,,,
null,,confidence_buffer,844832,confidence_buffer,,null,,,,,,,,,,,,,,,,,,
1519.4000000059605,,recognition_phase,846352,Tamarisk Hills,,50,,,,,,old,1,0.88,,,,,,,,,,
null,,confidence_buffer,846454,confidence_buffer,,null,,,,,,,,,,,,,,,,,,
null,,thebreak,846956,break,,null,,,,,,,,,,,,,,,,,,
2866.800000011921,,realistic_rating,849824,Northbridge,,52,Northbridge,Fictional,4,,,,,,,,,,,,,,,
null,,confidence_buffer,849927,confidence_buffer,,null,,,,,,,,,,,,,,,,,,
1856.4000000059605,,pt2_unique_rating,851785,Northbridge,,50,,,2,,,,,,,,,,,,,,,
null,,confidence_buffer,851886,confidence_buffer,,null,,,,,,,,,,,,,,,,,,
1896.5,,pt2_memorable_rating,853784,Northbridge,,50,,,2,,,,,,,,,,,,,,,
null,,confidence_buffer,853886,confidence_buffer,,null,,,,,,,,,,,,,,,,,,
2647.699999988079,,recognition_phase,856535,Northbridge,,50,,,,,,old,1,0.8846153846153846,,,,,,,,,,
null,,confidence_buffer,856637,confidence_buffer,,null,,,,,,,,,,,,,,,,,,
null,,thebreak,857139,break,,null,,,,,,,,,,,,,,,,,,
2755.5999999940395,,realistic_rating,859895,Golden Trace,,51,Golden Trace,Fictional,3,,,,,,,,,,,,,,,
null,,confidence_buffer,859997,confidence_buffer,,null,,,,,,,,,,,,,,,,,,
1905,,pt2_unique_rating,861903,Golden Trace,,50,,,2,,,,,,,,,,,,,,,
null,,confidence_buffer,862005,confidence_buffer,,null,,,,,,,,,,,,,,,,,,
2434.2000000178814,,probe_rating,864440,probe_rating,,52,,,,4,1,,,,,,,,,,,,,
null,,confidence_buffer,864543,confidence_buffer,,null,,,,,,,,,,,,,,,,,,
3288,,pt2_memorable_rating,867832,Golden Trace,,50,,,2,,,,,,,,,,,,,,,
null,,confidence_buffer,867934,confidence_buffer,,null,,,,,,,,,,,,,,,,,,
1792.199999988079,,recognition_phase,869728,Golden Trace,,52,,,,,,new,1,0.8888888888888888,,,,,,,,,,
null,,confidence_buffer,869831,confidence_buffer,,null,,,,,,,,,,,,,,,,,,
null,,thebreak,870332,break,,null,,,,,,,,,,,,,,,,,,
2714.9000000059605,,realistic_rating,873048,Alliance,,51,Alliance,US,3,,,,,,,,,,,,,,,
null,,confidence_buffer,873151,confidence_buffer,,null,,,,,,,,,,,,,,,,,,
2127.2999999821186,,pt2_unique_rating,875280,Alliance,,50,,,2,,,,,,,,,,,,,,,
null,,confidence_buffer,875383,confidence_buffer,,null,,,,,,,,,,,,,,,,,,
1847.7999999821186,,pt2_memorable_rating,877232,Alliance,,51,,,3,,,,,,,,,,,,,,,
null,,confidence_buffer,877334,confidence_buffer,,null,,,,,,,,,,,,,,,,,,
2728.7999999821186,,recognition_phase,880064,Alliance,,51,,,,,,new,0,0.8571428571428571,,,,,,,,,,
null,,confidence_buffer,880166,confidence_buffer,,null,,,,,,,,,,,,,,,,,,
null,,thebreak,880667,break,,null,,,,,,,,,,,,,,,,,,
6851.300000011921,,realistic_rating,887520,Rosehollow,,51,Rosehollow,Fictional,3,,,,,,,,,,,,,,,
null,,confidence_buffer,887623,confidence_buffer,,null,,,,,,,,,,,,,,,,,,
3319,,pt2_unique_rating,890943,Rosehollow,,51,,,3,,,,,,,,,,,,,,,
null,,confidence_buffer,891044,confidence_buffer,,null,,,,,,,,,,,,,,,,,,
1442.0999999940395,,pt2_memorable_rating,892488,Rosehollow,,51,,,3,,,,,,,,,,,,,,,
null,,confidence_buffer,892590,confidence_buffer,,null,,,,,,,,,,,,,,,,,,
1320,,recognition_phase,893912,Rosehollow,,49,,,,,,old,1,0.8620689655172413,,,,,,,,,,
null,,confidence_buffer,894014,confidence_buffer,,null,,,,,,,,,,,,,,,,,,
null,,thebreak,894516,break,,null,,,,,,,,,,,,,,,,,,
3203.5,,realistic_rating,897721,Hollendale,,51,Hollendale,Fictional,3,,,,,,,,,,,,,,,
null,,confidence_buffer,897823,confidence_buffer,,null,,,,,,,,,,,,,,,,,,
2310.600000023842,,pt2_unique_rating,900135,Hollendale,,50,,,2,,,,,,,,,,,,,,,
null,,confidence_buffer,900237,confidence_buffer,,null,,,,,,,,,,,,,,,,,,
1480.5,,pt2_memorable_rating,901719,Hollendale,,50,,,2,,,,,,,,,,,,,,,
null,,confidence_buffer,901822,confidence_buffer,,null,,,,,,,,,,,,,,,,,,
2112.2000000178814,,probe_rating,903936,probe_rating,,53,,,,5,1,,,,,,,,,,,,,
null,,confidence_buffer,904038,confidence_buffer,,null,,,,,,,,,,,,,,,,,,
2744,,recognition_phase,906784,Hollendale,,51,,,,,,new,0,0.8333333333333334,,,,,,,,,,
null,,confidence_buffer,906885,confidence_buffer,,null,,,,,,,,,,,,,,,,,,
null,,thebreak,907387,break,,null,,,,,,,,,,,,,,,,,,
3867.5999999940395,,realistic_rating,911256,Leesburg,,52,Leesburg,US,4,,,,,,,,,,,,,,,
null,,confidence_buffer,911362,confidence_buffer,,null,,,,,,,,,,,,,,,,,,
1964.3999999761581,,pt2_unique_rating,913328,Leesburg,,50,,,2,,,,,,,,,,,,,,,
null,,confidence_buffer,913431,confidence_buffer,,null,,,,,,,,,,,,,,,,,,
1967.5999999940395,,probe_rating,915400,probe_rating,,52,,,,4,1,,,,,,,,,,,,,
null,,confidence_buffer,915502,confidence_buffer,,null,,,,,,,,,,,,,,,,,,
3680.5,,pt2_memorable_rating,919184,Leesburg,,51,,,3,,,,,,,,,,,,,,,
null,,confidence_buffer,919285,confidence_buffer,,null,,,,,,,,,,,,,,,,,,
3056.7000000178814,,recognition_phase,922344,Leesburg,,50,,,,,,old,1,0.8387096774193549,,,,,,,,,,
null,,confidence_buffer,922447,confidence_buffer,,null,,,,,,,,,,,,,,,,,,
null,,thebreak,922948,break,,null,,,,,,,,,,,,,,,,,,
3026.0999999940395,,realistic_rating,925975,Hawthorne Bluffs,,51,Hawthorne Bluffs,Fictional,3,,,,,,,,,,,,,,,
null,,confidence_buffer,926077,confidence_buffer,,null,,,,,,,,,,,,,,,,,,
2352.5,,pt2_unique_rating,928431,Hawthorne Bluffs,,51,,,3,,,,,,,,,,,,,,,
null,,confidence_buffer,928533,confidence_buffer,,null,,,,,,,,,,,,,,,,,,
1927.800000011921,,pt2_memorable_rating,930463,Hawthorne Bluffs,,50,,,2,,,,,,,,,,,,,,,
null,,confidence_buffer,930571,confidence_buffer,,null,,,,,,,,,,,,,,,,,,
3202.2000000178814,,recognition_phase,933776,Hawthorne Bluffs,,51,,,,,,new,1,0.84375,,,,,,,,,,
null,,confidence_buffer,933878,confidence_buffer,,null,,,,,,,,,,,,,,,,,,
null,,thebreak,934380,break,,null,,,,,,,,,,,,,,,,,,
3225.7000000178814,,realistic_rating,937607,Clearbrook,,52,Clearbrook,Fictional,4,,,,,,,,,,,,,,,
null,,confidence_buffer,937710,confidence_buffer,,null,,,,,,,,,,,,,,,,,,
3695.9000000059605,,pt2_unique_rating,941407,Clearbrook,,50,,,2,,,,,,,,,,,,,,,
null,,confidence_buffer,941509,confidence_buffer,,null,,,,,,,,,,,,,,,,,,
1784.5,,pt2_memorable_rating,943295,Clearbrook,,50,,,2,,,,,,,,,,,,,,,
null,,confidence_buffer,943397,confidence_buffer,,null,,,,,,,,,,,,,,,,,,
2985,,recognition_phase,946384,Clearbrook,,51,,,,,,new,1,0.8484848484848485,,,,,,,,,,
null,,confidence_buffer,946486,confidence_buffer,,null,,,,,,,,,,,,,,,,,,
null,,thebreak,946998,break,,null,,,,,,,,,,,,,,,,,,
4495.700000017881,,realistic_rating,951495,Livingston,,51,Livingston,US,3,,,,,,,,,,,,,,,
null,,confidence_buffer,951598,confidence_buffer,,null,,,,,,,,,,,,,,,,,,
2111.5,,pt2_unique_rating,953711,Livingston,,50,,,2,,,,,,,,,,,,,,,
null,,confidence_buffer,953813,confidence_buffer,,null,,,,,,,,,,,,,,,,,,
1664.7000000178814,,pt2_memorable_rating,955479,Livingston,,50,,,2,,,,,,,,,,,,,,,
null,,confidence_buffer,955582,confidence_buffer,,null,,,,,,,,,,,,,,,,,,
2807.5999999940395,,recognition_phase,958391,Livingston,,50,,,,,,old,1,0.8529411764705882,,,,,,,,,,
null,,confidence_buffer,958494,confidence_buffer,,null,,,,,,,,,,,,,,,,,,
null,,thebreak,958995,break,,null,,,,,,,,,,,,,,,,,,
3666.800000011921,,realistic_rating,962663,Lake of the Ozarks,,52,Lake of the Ozarks,US,4,,,,,,,,,,,,,,,
null,,confidence_buffer,962765,confidence_buffer,,null,,,,,,,,,,,,,,,,,,
3176.199999988079,,pt2_unique_rating,965942,Lake of the Ozarks,,51,,,3,,,,,,,,,,,,,,,
null,,confidence_buffer,966043,confidence_buffer,,null,,,,,,,,,,,,,,,,,,
3162.300000011921,,probe_rating,969207,probe_rating,,52,,,,4,1,,,,,,,,,,,,,
null,,confidence_buffer,969309,confidence_buffer,,null,,,,,,,,,,,,,,,,,,
3305.5,,pt2_memorable_rating,972616,Lake of the Ozarks,,52,,,4,,,,,,,,,,,,,,,
null,,confidence_buffer,972718,confidence_buffer,,null,,,,,,,,,,,,,,,,,,
2006.9000000059605,,recognition_phase,974726,Lake of the Ozarks,,52,,,,,,new,1,0.8571428571428571,,,,,,,,,,
null,,confidence_buffer,974829,confidence_buffer,,null,,,,,,,,,,,,,,,,,,
null,,thebreak,975330,break,,null,,,,,,,,,,,,,,,,,,
3475.2000000178814,,realistic_rating,978807,Westridge,,52,Westridge,Fictional,4,,,,,,,,,,,,,,,
null,,confidence_buffer,978909,confidence_buffer,,null,,,,,,,,,,,,,,,,,,
1752.300000011921,,pt2_unique_rating,980663,Westridge,,50,,,2,,,,,,,,,,,,,,,
null,,confidence_buffer,980765,confidence_buffer,,null,,,,,,,,,,,,,,,,,,
2368.4000000059605,,pt2_memorable_rating,983135,Westridge,,50,,,2,,,,,,,,,,,,,,,
null,,confidence_buffer,983237,confidence_buffer,,null,,,,,,,,,,,,,,,,,,
3328.4000000059605,,recognition_phase,986567,Westridge,,51,,,,,,new,0,0.8333333333333334,,,,,,,,,,
null,,confidence_buffer,986669,confidence_buffer,,null,,,,,,,,,,,,,,,,,,
null,,thebreak,987170,break,,null,,,,,,,,,,,,,,,,,,
5835.199999988079,,realistic_rating,993007,Bar Harbor,,51,Bar Harbor,US,3,,,,,,,,,,,,,,,
null,,confidence_buffer,993108,confidence_buffer,,null,,,,,,,,,,,,,,,,,,
2112.0999999940395,,pt2_unique_rating,995222,Bar Harbor,,51,,,3,,,,,,,,,,,,,,,
null,,confidence_buffer,995324,confidence_buffer,,null,,,,,,,,,,,,,,,,,,
1793.5999999940395,,pt2_memorable_rating,997119,Bar Harbor,,50,,,2,,,,,,,,,,,,,,,
null,,confidence_buffer,997221,confidence_buffer,,null,,,,,,,,,,,,,,,,,,
1976.3999999761581,,recognition_phase,999199,Bar Harbor,,50,,,,,,old,1,0.8378378378378378,,,,,,,,,,
null,,confidence_buffer,999301,confidence_buffer,,null,,,,,,,,,,,,,,,,,,
null,,thebreak,999802,break,,null,,,,,,,,,,,,,,,,,,
3931.2999999821186,,realistic_rating,1003735,Cedarwyn,,50,Cedarwyn,Fictional,2,,,,,,,,,,,,,,,
null,,confidence_buffer,1003837,confidence_buffer,,null,,,,,,,,,,,,,,,,,,
2208.600000023842,,pt2_unique_rating,1006047,Cedarwyn,,52,,,4,,,,,,,,,,,,,,,
null,,confidence_buffer,1006148,confidence_buffer,,null,,,,,,,,,,,,,,,,,,
2144.7999999821186,,pt2_memorable_rating,1008294,Cedarwyn,,50,,,2,,,,,,,,,,,,,,,
null,,confidence_buffer,1008397,confidence_buffer,,null,,,,,,,,,,,,,,,,,,
2543.4000000059605,,recognition_phase,1010941,Cedarwyn,,52,,,,,,new,1,0.8421052631578947,,,,,,,,,,
null,,confidence_buffer,1011043,confidence_buffer,,null,,,,,,,,,,,,,,,,,,
null,,thebreak,1011549,break,,null,,,,,,,,,,,,,,,,,,
10775.899999976158,,realistic_rating,1022326,Solara Glen,,50,Solara Glen,Fictional,2,,,,,,,,,,,,,,,
null,,confidence_buffer,1022427,confidence_buffer,,null,,,,,,,,,,,,,,,,,,
1873.3999999761581,,pt2_unique_rating,1024302,Solara Glen,,52,,,4,,,,,,,,,,,,,,,
null,,confidence_buffer,1024404,confidence_buffer,,null,,,,,,,,,,,,,,,,,,
2240.399999976158,,pt2_memorable_rating,1026645,Solara Glen,,50,,,2,,,,,,,,,,,,,,,
null,,confidence_buffer,1026747,confidence_buffer,,null,,,,,,,,,,,,,,,,,,
2409.5,,recognition_phase,1029158,Solara Glen,,51,,,,,,new,1,0.8461538461538461,,,,,,,,,,
null,,confidence_buffer,1029262,confidence_buffer,,null,,,,,,,,,,,,,,,,,,
null,,thebreak,1029768,break,,null,,,,,,,,,,,,,,,,,,
2797,,realistic_rating,1032566,Sitka,,51,Sitka,US,3,,,,,,,,,,,,,,,
null,,confidence_buffer,1032668,confidence_buffer,,null,,,,,,,,,,,,,,,,,,
1840.300000011921,,pt2_unique_rating,1034510,Sitka,,52,,,4,,,,,,,,,,,,,,,
null,,confidence_buffer,1034612,confidence_buffer,,null,,,,,,,,,,,,,,,,,,
1416.300000011921,,pt2_memorable_rating,1036030,Sitka,,50,,,2,,,,,,,,,,,,,,,
null,,confidence_buffer,1036132,confidence_buffer,,null,,,,,,,,,,,,,,,,,,
1688.2999999821186,,probe_rating,1037822,probe_rating,,49,,,,1,1,,,,,,,,,,,,,
null,,confidence_buffer,1037924,confidence_buffer,,null,,,,,,,,,,,,,,,,,,
2176,,recognition_phase,1040102,Sitka,,50,,,,,,old,1,0.85,,,,,,,,,,
null,,confidence_buffer,1040203,confidence_buffer,,null,,,,,,,,,,,,,,,,,,
null,,thebreak,1040717,break,,null,,,,,,,,,,,,,,,,,,
2832.2999999821186,,realistic_rating,1043550,Oakridge,,52,Oakridge,Fictional,4,,,,,,,,,,,,,,,
null,,confidence_buffer,1043663,confidence_buffer,,null,,,,,,,,,,,,,,,,,,
2077,,pt2_unique_rating,1045741,Oakridge,,50,,,2,,,,,,,,,,,,,,,
null,,confidence_buffer,1045843,confidence_buffer,,null,,,,,,,,,,,,,,,,,,
2625.9000000059605,,pt2_memorable_rating,1048470,Oakridge,,50,,,2,,,,,,,,,,,,,,,
null,,confidence_buffer,1048572,confidence_buffer,,null,,,,,,,,,,,,,,,,,,
1687.699999988079,,probe_rating,1050261,probe_rating,,50,,,,2,1,,,,,,,,,,,,,
null,,confidence_buffer,1050362,confidence_buffer,,null,,,,,,,,,,,,,,,,,,
1898.5999999940395,,recognition_phase,1052262,Oakridge,,50,,,,,,old,1,0.8536585365853658,,,,,,,,,,
null,,confidence_buffer,1052364,confidence_buffer,,null,,,,,,,,,,,,,,,,,,
null,,thebreak,1052866,break,,null,,,,,,,,,,,,,,,,,,
4987,,realistic_rating,1057854,Coeur d'Alene,,51,Coeur d'Alene,US,3,,,,,,,,,,,,,,,
null,,confidence_buffer,1057957,confidence_buffer,,null,,,,,,,,,,,,,,,,,,
4327.300000011921,,pt2_unique_rating,1062286,Coeur d'Alene,,53,,,5,,,,,,,,,,,,,,,
null,,confidence_buffer,1062388,confidence_buffer,,null,,,,,,,,,,,,,,,,,,
2120.4000000059605,,pt2_memorable_rating,1064510,Coeur d'Alene,,50,,,2,,,,,,,,,,,,,,,
null,,confidence_buffer,1064612,confidence_buffer,,null,,,,,,,,,,,,,,,,,,
1888,,recognition_phase,1066502,Coeur d'Alene,,50,,,,,,old,1,0.8571428571428571,,,,,,,,,,
null,,confidence_buffer,1066604,confidence_buffer,,null,,,,,,,,,,,,,,,,,,
null,,thebreak,1067105,break,,null,,,,,,,,,,,,,,,,,,
3451.0999999940395,,realistic_rating,1070558,Redgrove,,52,Redgrove,Fictional,4,,,,,,,,,,,,,,,
null,,confidence_buffer,1070661,confidence_buffer,,null,,,,,,,,,,,,,,,,,,
2374.7000000178814,,pt2_unique_rating,1073038,Redgrove,,50,,,2,,,,,,,,,,,,,,,
null,,confidence_buffer,1073140,confidence_buffer,,null,,,,,,,,,,,,,,,,,,
1504.6000000238419,,pt2_memorable_rating,1074646,Redgrove,,50,,,2,,,,,,,,,,,,,,,
null,,confidence_buffer,1074747,confidence_buffer,,null,,,,,,,,,,,,,,,,,,
3633.4000000059605,,recognition_phase,1078382,Redgrove,,50,,,,,,old,1,0.8604651162790697,,,,,,,,,,
null,,confidence_buffer,1078484,confidence_buffer,,null,,,,,,,,,,,,,,,,,,
null,,thebreak,1078985,break,,null,,,,,,,,,,,,,,,,,,
2746.600000023842,,realistic_rating,1081733,Pine Hollow,,52,Pine Hollow,Fictional,4,,,,,,,,,,,,,,,
null,,confidence_buffer,1081836,confidence_buffer,,null,,,,,,,,,,,,,,,,,,
2112.7999999821186,,pt2_unique_rating,1083950,Pine Hollow,,50,,,2,,,,,,,,,,,,,,,
null,,confidence_buffer,1084052,confidence_buffer,,null,,,,,,,,,,,,,,,,,,
1936.0999999940395,,probe_rating,1085990,probe_rating,,50,,,,2,1,,,,,,,,,,,,,
null,,confidence_buffer,1086092,confidence_buffer,,null,,,,,,,,,,,,,,,,,,
3302.699999988079,,pt2_memorable_rating,1089396,Pine Hollow,,50,,,2,,,,,,,,,,,,,,,
null,,confidence_buffer,1089498,confidence_buffer,,null,,,,,,,,,,,,,,,,,,
3274,,recognition_phase,1092774,Pine Hollow,,50,,,,,,old,0,0.8409090909090909,,,,,,,,,,
null,,confidence_buffer,1092876,confidence_buffer,,null,,,,,,,,,,,,,,,,,,
null,,thebreak,1093377,break,,null,,,,,,,,,,,,,,,,,,
2427.0999999940395,,realistic_rating,1095805,Boulder,,52,Boulder,US,4,,,,,,,,,,,,,,,
null,,confidence_buffer,1095908,confidence_buffer,,null,,,,,,,,,,,,,,,,,,
2904,,pt2_unique_rating,1098813,Boulder,,51,,,3,,,,,,,,,,,,,,,
null,,confidence_buffer,1098915,confidence_buffer,,null,,,,,,,,,,,,,,,,,,
1777.1000000238419,,pt2_memorable_rating,1100694,Boulder,,52,,,4,,,,,,,,,,,,,,,
null,,confidence_buffer,1100796,confidence_buffer,,null,,,,,,,,,,,,,,,,,,
2472,,recognition_phase,1103270,Boulder,,52,,,,,,new,1,0.8444444444444444,,,,,,,,,,
null,,confidence_buffer,1103372,confidence_buffer,,null,,,,,,,,,,,,,,,,,,
null,,thebreak,1103873,break,,null,,,,,,,,,,,,,,,,,,
5794.5,,realistic_rating,1109669,Juniper Creek,,51,Juniper Creek,Fictional,3,,,,,,,,,,,,,,,
null,,confidence_buffer,1109771,confidence_buffer,,null,,,,,,,,,,,,,,,,,,
2320.199999988079,,pt2_unique_rating,1112093,Juniper Creek,,52,,,4,,,,,,,,,,,,,,,
null,,confidence_buffer,1112195,confidence_buffer,,null,,,,,,,,,,,,,,,,,,
2561.0999999940395,,probe_rating,1114757,probe_rating,,52,,,,4,1,,,,,,,,,,,,,
null,,confidence_buffer,1114859,confidence_buffer,,null,,,,,,,,,,,,,,,,,,
4248.300000011921,,pt2_memorable_rating,1119109,Juniper Creek,,50,,,2,,,,,,,,,,,,,,,
null,,confidence_buffer,1119211,confidence_buffer,,null,,,,,,,,,,,,,,,,,,
1568.699999988079,,recognition_phase,1120781,Juniper Creek,,52,,,,,,new,1,0.8478260869565217,,,,,,,,,,
null,,confidence_buffer,1120882,confidence_buffer,,null,,,,,,,,,,,,,,,,,,
null,,thebreak,1121384,break,,null,,,,,,,,,,,,,,,,,,
4267.699999988079,,realistic_rating,1125654,Willowford,,53,Willowford,Fictional,5,,,,,,,,,,,,,,,
null,,confidence_buffer,1125756,confidence_buffer,,null,,,,,,,,,,,,,,,,,,
1599.7999999821186,,probe_rating,1127357,probe_rating,,50,,,,2,1,,,,,,,,,,,,,
null,,confidence_buffer,1127460,confidence_buffer,,null,,,,,,,,,,,,,,,,,,
3039.9000000059605,,pt2_unique_rating,1130501,Willowford,,51,,,3,,,,,,,,,,,,,,,
null,,confidence_buffer,1130603,confidence_buffer,,null,,,,,,,,,,,,,,,,,,
1680.5,,pt2_memorable_rating,1132285,Willowford,,50,,,2,,,,,,,,,,,,,,,
null,,confidence_buffer,1132387,confidence_buffer,,null,,,,,,,,,,,,,,,,,,
1536,,recognition_phase,1133924,Willowford,,50,,,,,,old,1,0.851063829787234,,,,,,,,,,
null,,confidence_buffer,1134027,confidence_buffer,,null,,,,,,,,,,,,,,,,,,
null,,thebreak,1134532,break,,null,,,,,,,,,,,,,,,,,,
4022.899999976158,,realistic_rating,1138556,Silverpine,,52,Silverpine,Fictional,4,,,,,,,,,,,,,,,
null,,confidence_buffer,1138668,confidence_buffer,,null,,,,,,,,,,,,,,,,,,
2128.800000011921,,pt2_unique_rating,1140798,Silverpine,,50,,,2,,,,,,,,,,,,,,,
null,,confidence_buffer,1140899,confidence_buffer,,null,,,,,,,,,,,,,,,,,,
1552.699999988079,,pt2_memorable_rating,1142453,Silverpine,,50,,,2,,,,,,,,,,,,,,,
null,,confidence_buffer,1142554,confidence_buffer,,null,,,,,,,,,,,,,,,,,,
2024.9000000059605,,recognition_phase,1144581,Silverpine,,50,,,,,,old,1,0.8541666666666666,,,,,,,,,,
null,,confidence_buffer,1144683,confidence_buffer,,null,,,,,,,,,,,,,,,,,,
null,,thebreak,1145184,break,,null,,,,,,,,,,,,,,,,,,
2843.0999999940395,,realistic_rating,1148029,Hilo,,52,Hilo,US,4,,,,,,,,,,,,,,,
null,,confidence_buffer,1148132,confidence_buffer,,null,,,,,,,,,,,,,,,,,,
3183.2999999821186,,pt2_unique_rating,1151316,Hilo,,53,,,5,,,,,,,,,,,,,,,
null,,confidence_buffer,1151417,confidence_buffer,,null,,,,,,,,,,,,,,,,,,
1057.800000011921,,pt2_memorable_rating,1152477,Hilo,,53,,,5,,,,,,,,,,,,,,,
null,,confidence_buffer,1152578,confidence_buffer,,null,,,,,,,,,,,,,,,,,,
2145,,recognition_phase,1154725,Hilo,,52,,,,,,new,1,0.8571428571428571,,,,,,,,,,
null,,confidence_buffer,1154827,confidence_buffer,,null,,,,,,,,,,,,,,,,,,
null,,thebreak,1155328,break,,null,,,,,,,,,,,,,,,,,,
3298.9000000059605,,realistic_rating,1158629,Ashford Hills,,52,Ashford Hills,Fictional,4,,,,,,,,,,,,,,,
null,,confidence_buffer,1158732,confidence_buffer,,null,,,,,,,,,,,,,,,,,,
2935.5,,pt2_unique_rating,1161669,Ashford Hills,,50,,,2,,,,,,,,,,,,,,,
null,,confidence_buffer,1161771,confidence_buffer,,null,,,,,,,,,,,,,,,,,,
1327.5,,pt2_memorable_rating,1163101,Ashford Hills,,50,,,2,,,,,,,,,,,,,,,
null,,confidence_buffer,1163203,confidence_buffer,,null,,,,,,,,,,,,,,,,,,
1240.3999999761581,,recognition_phase,1164445,Ashford Hills,,50,,,,,,old,0,0.84,,,,,,,,,,
null,,confidence_buffer,1164546,confidence_buffer,,null,,,,,,,,,,,,,,,,,,
null,,thebreak,1165048,break,,null,,,,,,,,,,,,,,,,,,
3147.2999999821186,,realistic_rating,1168197,New Hope,,51,New Hope,US,3,,,,,,,,,,,,,,,
null,,confidence_buffer,1168298,confidence_buffer,,null,,,,,,,,,,,,,,,,,,
1840.7999999821186,,pt2_unique_rating,1170141,New Hope,,51,,,3,,,,,,,,,,,,,,,
null,,confidence_buffer,1170243,confidence_buffer,,null,,,,,,,,,,,,,,,,,,
1840.4000000059605,,pt2_memorable_rating,1172085,New Hope,,50,,,2,,,,,,,,,,,,,,,
null,,confidence_buffer,1172188,confidence_buffer,,null,,,,,,,,,,,,,,,,,,
1375.2999999821186,,recognition_phase,1173564,New Hope,,49,,,,,,old,1,0.8431372549019608,,,,,,,,,,
null,,confidence_buffer,1173668,confidence_buffer,,null,,,,,,,,,,,,,,,,,,
null,,thebreak,1174169,break,,null,,,,,,,,,,,,,,,,,,
4776.9000000059605,,realistic_rating,1178947,Montelake,,51,Montelake,Fictional,3,,,,,,,,,,,,,,,
null,,confidence_buffer,1179049,confidence_buffer,,null,,,,,,,,,,,,,,,,,,
2083.0999999940395,,pt2_unique_rating,1181133,Montelake,,51,,,3,,,,,,,,,,,,,,,
null,,confidence_buffer,1181235,confidence_buffer,,null,,,,,,,,,,,,,,,,,,
1495.7999999821186,,pt2_memorable_rating,1182732,Montelake,,50,,,2,,,,,,,,,,,,,,,
null,,confidence_buffer,1182833,confidence_buffer,,null,,,,,,,,,,,,,,,,,,
2545.7000000178814,,recognition_phase,1185379,Montelake,,51,,,,,,new,1,0.8461538461538461,,,,,,,,,,
null,,confidence_buffer,1185481,confidence_buffer,,null,,,,,,,,,,,,,,,,,,
null,,thebreak,1185983,break,,null,,,,,,,,,,,,,,,,,,
3420.699999988079,,realistic_rating,1189404,Linden Trace,,51,Linden Trace,Fictional,3,,,,,,,,,,,,,,,
null,,confidence_buffer,1189506,confidence_buffer,,null,,,,,,,,,,,,,,,,,,
3568.199999988079,,pt2_unique_rating,1193077,Linden Trace,,51,,,3,,,,,,,,,,,,,,,
null,,confidence_buffer,1193179,confidence_buffer,,null,,,,,,,,,,,,,,,,,,
1824,,pt2_memorable_rating,1195004,Linden Trace,,50,,,2,,,,,,,,,,,,,,,
null,,confidence_buffer,1195107,confidence_buffer,,null,,,,,,,,,,,,,,,,,,
2576,,recognition_phase,1197684,Linden Trace,,51,,,,,,new,1,0.8490566037735849,,,,,,,,,,
null,,confidence_buffer,1197786,confidence_buffer,,null,,,,,,,,,,,,,,,,,,
null,,thebreak,1198287,break,,null,,,,,,,,,,,,,,,,,,
2435.800000011921,,realistic_rating,1200724,Albuquerque,,52,Albuquerque,US,4,,,,,,,,,,,,,,,
null,,confidence_buffer,1200827,confidence_buffer,,null,,,,,,,,,,,,,,,,,,
1935.6000000238419,,pt2_unique_rating,1202764,Albuquerque,,53,,,5,,,,,,,,,,,,,,,
null,,confidence_buffer,1202866,confidence_buffer,,null,,,,,,,,,,,,,,,,,,
2081.199999988079,,pt2_memorable_rating,1204948,Albuquerque,,52,,,4,,,,,,,,,,,,,,,
null,,confidence_buffer,1205052,confidence_buffer,,null,,,,,,,,,,,,,,,,,,
1814.3999999761581,,recognition_phase,1206868,Albuquerque,,49,,,,,,old,1,0.8518518518518519,,,,,,,,,,
null,,confidence_buffer,1206970,confidence_buffer,,null,,,,,,,,,,,,,,,,,,
null,,thebreak,1207472,break,,null,,,,,,,,,,,,,,,,,,
3818.7999999821186,,realistic_rating,1211292,Healdsburg,,51,Healdsburg,US,3,,,,,,,,,,,,,,,
null,,confidence_buffer,1211394,confidence_buffer,,null,,,,,,,,,,,,,,,,,,
2240.0999999940395,,pt2_unique_rating,1213636,Healdsburg,,51,,,3,,,,,,,,,,,,,,,
null,,confidence_buffer,1213738,confidence_buffer,,null,,,,,,,,,,,,,,,,,,
1936.800000011921,,probe_rating,1215676,probe_rating,,52,,,,4,1,,,,,,,,,,,,,
null,,confidence_buffer,1215779,confidence_buffer,,null,,,,,,,,,,,,,,,,,,
3063.5,,pt2_memorable_rating,1218844,Healdsburg,,50,,,2,,,,,,,,,,,,,,,
null,,confidence_buffer,1218945,confidence_buffer,,null,,,,,,,,,,,,,,,,,,
2360.9000000059605,,recognition_phase,1221308,Healdsburg,,51,,,,,,new,1,0.8545454545454545,,,,,,,,,,
null,,confidence_buffer,1221410,confidence_buffer,,null,,,,,,,,,,,,,,,,,,
null,,thebreak,1221912,break,,null,,,,,,,,,,,,,,,,,,
4433.9000000059605,,realistic_rating,1226347,Racine,,50,Racine,US,2,,,,,,,,,,,,,,,
null,,confidence_buffer,1226449,confidence_buffer,,null,,,,,,,,,,,,,,,,,,
2272.800000011921,,pt2_unique_rating,1228724,Racine,,52,,,4,,,,,,,,,,,,,,,
null,,confidence_buffer,1228826,confidence_buffer,,null,,,,,,,,,,,,,,,,,,
3400.0999999940395,,pt2_memorable_rating,1232228,Racine,,49,,,1,,,,,,,,,,,,,,,
null,,confidence_buffer,1232336,confidence_buffer,,null,,,,,,,,,,,,,,,,,,
1593.699999988079,,recognition_phase,1233931,Racine,,50,,,,,,old,1,0.8571428571428571,,,,,,,,,,
null,,confidence_buffer,1234032,confidence_buffer,,null,,,,,,,,,,,,,,,,,,
null,,thebreak,1234534,break,,null,,,,,,,,,,,,,,,,,,
6636.5,,realistic_rating,1241172,Briarfield,,52,Briarfield,Fictional,4,,,,,,,,,,,,,,,
null,,confidence_buffer,1241274,confidence_buffer,,null,,,,,,,,,,,,,,,,,,
2312.0999999940395,,pt2_unique_rating,1243588,Briarfield,,50,,,2,,,,,,,,,,,,,,,
null,,confidence_buffer,1243689,confidence_buffer,,null,,,,,,,,,,,,,,,,,,
2064.5999999940395,,pt2_memorable_rating,1245756,Briarfield,,50,,,2,,,,,,,,,,,,,,,
null,,confidence_buffer,1245857,confidence_buffer,,null,,,,,,,,,,,,,,,,,,
2328.5999999940395,,recognition_phase,1248187,Briarfield,,50,,,,,,old,1,0.8596491228070176,,,,,,,,,,
null,,confidence_buffer,1248290,confidence_buffer,,null,,,,,,,,,,,,,,,,,,
null,,thebreak,1248791,break,,null,,,,,,,,,,,,,,,,,,
2291.199999988079,,realistic_rating,1251083,Newport,,52,Newport,US,4,,,,,,,,,,,,,,,
null,,confidence_buffer,1251186,confidence_buffer,,null,,,,,,,,,,,,,,,,,,
4488.5999999940395,,pt2_unique_rating,1255676,Newport,,51,,,3,,,,,,,,,,,,,,,
null,,confidence_buffer,1255777,confidence_buffer,,null,,,,,,,,,,,,,,,,,,
1391.7000000178814,,pt2_memorable_rating,1257170,Newport,,52,,,4,,,,,,,,,,,,,,,
null,,confidence_buffer,1257273,confidence_buffer,,null,,,,,,,,,,,,,,,,,,
3520.5,,probe_rating,1260795,probe_rating,,50,,,,2,1,,,,,,,,,,,,,
null,,confidence_buffer,1260897,confidence_buffer,,null,,,,,,,,,,,,,,,,,,
1346.199999988079,,recognition_phase,1262244,Newport,,49,,,,,,old,1,0.8620689655172413,,,,,,,,,,
null,,confidence_buffer,1262347,confidence_buffer,,null,,,,,,,,,,,,,,,,,,
null,,thebreak,1262849,break,,null,,,,,,,,,,,,,,,,,,
3689.7000000178814,,realistic_rating,1266540,Claywater,,51,Claywater,Fictional,3,,,,,,,,,,,,,,,
null,,confidence_buffer,1266642,confidence_buffer,,null,,,,,,,,,,,,,,,,,,
1599.5999999940395,,pt2_unique_rating,1268243,Claywater,,50,,,2,,,,,,,,,,,,,,,
null,,confidence_buffer,1268345,confidence_buffer,,null,,,,,,,,,,,,,,,,,,
1512.4000000059605,,pt2_memorable_rating,1269859,Claywater,,50,,,2,,,,,,,,,,,,,,,
null,,confidence_buffer,1269962,confidence_buffer,,null,,,,,,,,,,,,,,,,,,
1431.9000000059605,,recognition_phase,1271395,Claywater,,50,,,,,,old,1,0.864406779661017,,,,,,,,,,
null,,confidence_buffer,1271497,confidence_buffer,,null,,,,,,,,,,,,,,,,,,
null,,thebreak,1271999,break,,null,,,,,,,,,,,,,,,,,,
3114.5,,realistic_rating,1275115,New Verdan,,50,New Verdan,Fictional,2,,,,,,,,,,,,,,,
null,,confidence_buffer,1275217,confidence_buffer,,null,,,,,,,,,,,,,,,,,,
2272.699999988079,,pt2_unique_rating,1277491,New Verdan,,52,,,4,,,,,,,,,,,,,,,
null,,confidence_buffer,1277594,confidence_buffer,,null,,,,,,,,,,,,,,,,,,
2111.9000000059605,,probe_rating,1279707,probe_rating,,50,,,,2,1,,,,,,,,,,,,,
null,,confidence_buffer,1279812,confidence_buffer,,null,,,,,,,,,,,,,,,,,,
3613.7999999821186,,pt2_memorable_rating,1283427,New Verdan,,50,,,2,,,,,,,,,,,,,,,
null,,confidence_buffer,1283540,confidence_buffer,,null,,,,,,,,,,,,,,,,,,
1933.0999999940395,,recognition_phase,1285475,New Verdan,,52,,,,,,new,1,0.8666666666666667,,,,,,,,,,
null,,confidence_buffer,1285578,confidence_buffer,,null,,,,,,,,,,,,,,,,,,
null,,thebreak,1286080,break,,null,,,,,,,,,,,,,,,,,,
,,survey,1532290,survey-questions,,,,,,,,,,,none,high,no I wasn't doing anything else,I tried my best to remember names and how I reacted to them before ,I thought how familiar they sounded to me,I went by how well I thought I would remember them,I chose names that were unusual even if they were familiar to me,I tried to decide if they sounded like they could be an actual city,no I haven't,It was difficult at times and a bit repetitive
