rt,responses,trial_type,time_elapsed,stimulus,button_pressed,key_press,name_trial,city_type,rating,probe,probe_accuracy,response,correct,accuracy,problems,smooth,distraction,strategies,familiar,memorable,unique,realistic,similar,comments
3642.7000000476837,{worker_id:5e12213b6f6c638c6165dcfc},id_enter,3645,,,,,,,,,,,,,,,,,,,,,
109164.19999998808,,fullscreen,112813,fullscreen,0,,,,,,,,,,,,,,,,,,,
9233,,intro_0,122048,instruct,,32,,,,,,,,,,,,,,,,,,
10489.800000011921,,intro_1,132540,instruct,,32,,,,,,,,,,,,,,,,,,
10975,,intro_2,143516,instruct,,32,,,,,,,,,,,,,,,,,,
null,,instruct_dir_4,145017,instruct,,null,,,,,,,,,,,,,,,,,,
null,,thebreak,145519,break,,null,,,,,,,,,,,,,,,,,,
6394.399999976158,,familiar_rating,151916,Pine Hollow,,49,Pine Hollow,Fictional,1,,,,,,,,,,,,,,,
null,,confidence_buffer,152019,confidence_buffer,,null,,,,,,,,,,,,,,,,,,
6236.400000035763,,unique_rating,158257,Pine Hollow,,51,,,3,,,,,,,,,,,,,,,
null,,confidence_buffer,158359,confidence_buffer,,null,,,,,,,,,,,,,,,,,,
6313.800000011921,,memorable_rating,164675,Pine Hollow,,50,,,2,,,,,,,,,,,,,,,
null,,confidence_buffer,164777,confidence_buffer,,null,,,,,,,,,,,,,,,,,,
null,,thebreak,165278,break,,null,,,,,,,,,,,,,,,,,,
7032.600000023842,,familiar_rating,172312,Leesburg,,49,Leesburg,US,1,,,,,,,,,,,,,,,
null,,confidence_buffer,172415,confidence_buffer,,null,,,,,,,,,,,,,,,,,,
4451.899999976158,,unique_rating,176868,Leesburg,,51,,,3,,,,,,,,,,,,,,,
null,,confidence_buffer,176971,confidence_buffer,,null,,,,,,,,,,,,,,,,,,
3924.199999988079,,memorable_rating,180896,Leesburg,,51,,,3,,,,,,,,,,,,,,,
null,,confidence_buffer,180999,confidence_buffer,,null,,,,,,,,,,,,,,,,,,
null,,thebreak,181501,break,,null,,,,,,,,,,,,,,,,,,
6355.199999988079,,familiar_rating,187857,Cape May,,50,Cape May,US,2,,,,,,,,,,,,,,,
null,,confidence_buffer,187959,confidence_buffer,,null,,,,,,,,,,,,,,,,,,
3320.699999988079,,unique_rating,191281,Cape May,,49,,,1,,,,,,,,,,,,,,,
null,,confidence_buffer,191384,confidence_buffer,,null,,,,,,,,,,,,,,,,,,
4319,,memorable_rating,195704,Cape May,,51,,,3,,,,,,,,,,,,,,,
null,,confidence_buffer,195807,confidence_buffer,,null,,,,,,,,,,,,,,,,,,
null,,thebreak,196309,break,,null,,,,,,,,,,,,,,,,,,
4197.5,,familiar_rating,200508,Brookmere,,49,Brookmere,Fictional,1,,,,,,,,,,,,,,,
null,,confidence_buffer,200610,confidence_buffer,,null,,,,,,,,,,,,,,,,,,
6144.800000011921,,unique_rating,206755,Brookmere,,52,,,4,,,,,,,,,,,,,,,
null,,confidence_buffer,206862,confidence_buffer,,null,,,,,,,,,,,,,,,,,,
4551.900000035763,,memorable_rating,211415,Brookmere,,50,,,2,,,,,,,,,,,,,,,
null,,confidence_buffer,211518,confidence_buffer,,null,,,,,,,,,,,,,,,,,,
null,,thebreak,212020,break,,null,,,,,,,,,,,,,,,,,,
2293.800000011921,,familiar_rating,214315,Cleveland,,53,Cleveland,US,5,,,,,,,,,,,,,,,
null,,confidence_buffer,214416,confidence_buffer,,null,,,,,,,,,,,,,,,,,,
2963,,unique_rating,217381,Cleveland,,50,,,2,,,,,,,,,,,,,,,
null,,confidence_buffer,217483,confidence_buffer,,null,,,,,,,,,,,,,,,,,,
2219.100000023842,,memorable_rating,219704,Cleveland,,53,,,5,,,,,,,,,,,,,,,
null,,confidence_buffer,219820,confidence_buffer,,null,,,,,,,,,,,,,,,,,,
null,,thebreak,220321,break,,null,,,,,,,,,,,,,,,,,,
2810.900000035763,,familiar_rating,223134,Summershade,,49,Summershade,Fictional,1,,,,,,,,,,,,,,,
null,,confidence_buffer,223236,confidence_buffer,,null,,,,,,,,,,,,,,,,,,
4839.299999952316,,unique_rating,228076,Summershade,,50,,,2,,,,,,,,,,,,,,,
null,,confidence_buffer,228179,confidence_buffer,,null,,,,,,,,,,,,,,,,,,
1848.1000000238419,,memorable_rating,230029,Summershade,,50,,,2,,,,,,,,,,,,,,,
null,,confidence_buffer,230131,confidence_buffer,,null,,,,,,,,,,,,,,,,,,
null,,thebreak,230633,break,,null,,,,,,,,,,,,,,,,,,
7330.300000011921,,familiar_rating,237964,Lake of the Ozarks,,51,Lake of the Ozarks,US,3,,,,,,,,,,,,,,,
null,,confidence_buffer,238066,confidence_buffer,,null,,,,,,,,,,,,,,,,,,
3036.699999988079,,unique_rating,241105,Lake of the Ozarks,,50,,,2,,,,,,,,,,,,,,,
null,,confidence_buffer,241207,confidence_buffer,,null,,,,,,,,,,,,,,,,,,
3045.800000011921,,memorable_rating,244254,Lake of the Ozarks,,52,,,4,,,,,,,,,,,,,,,
null,,confidence_buffer,244355,confidence_buffer,,null,,,,,,,,,,,,,,,,,,
null,,thebreak,244857,break,,null,,,,,,,,,,,,,,,,,,
4077.899999976158,,familiar_rating,248936,Hanover,,53,Hanover,US,5,,,,,,,,,,,,,,,
null,,confidence_buffer,249038,confidence_buffer,,null,,,,,,,,,,,,,,,,,,
3103.399999976158,,unique_rating,252142,Hanover,,50,,,2,,,,,,,,,,,,,,,
null,,confidence_buffer,252244,confidence_buffer,,null,,,,,,,,,,,,,,,,,,
2497.5,,memorable_rating,254743,Hanover,,53,,,5,,,,,,,,,,,,,,,
null,,confidence_buffer,254845,confidence_buffer,,null,,,,,,,,,,,,,,,,,,
2317.899999976158,,probe_rating,257164,probe_rating,,52,,,,4,1,,,,,,,,,,,,,
null,,confidence_buffer,257265,confidence_buffer,,null,,,,,,,,,,,,,,,,,,
null,,thebreak,257766,break,,null,,,,,,,,,,,,,,,,,,
1984.5,,familiar_rating,259752,Shreveport,,53,Shreveport,US,5,,,,,,,,,,,,,,,
null,,confidence_buffer,259854,confidence_buffer,,null,,,,,,,,,,,,,,,,,,
3559.899999976158,,unique_rating,263415,Shreveport,,51,,,3,,,,,,,,,,,,,,,
null,,confidence_buffer,263520,confidence_buffer,,null,,,,,,,,,,,,,,,,,,
1765.5,,memorable_rating,265287,Shreveport,,53,,,5,,,,,,,,,,,,,,,
null,,confidence_buffer,265388,confidence_buffer,,null,,,,,,,,,,,,,,,,,,
1520.8999999761581,,probe_rating,266910,probe_rating,,52,,,,4,1,,,,,,,,,,,,,
null,,confidence_buffer,267012,confidence_buffer,,null,,,,,,,,,,,,,,,,,,
null,,thebreak,267514,break,,null,,,,,,,,,,,,,,,,,,
2117.300000011921,,familiar_rating,269633,Maravilla Springs,,49,Maravilla Springs,Fictional,1,,,,,,,,,,,,,,,
null,,confidence_buffer,269735,confidence_buffer,,null,,,,,,,,,,,,,,,,,,
4422.5,,unique_rating,274158,Maravilla Springs,,50,,,2,,,,,,,,,,,,,,,
null,,confidence_buffer,274260,confidence_buffer,,null,,,,,,,,,,,,,,,,,,
2997.199999988079,,memorable_rating,277258,Maravilla Springs,,51,,,3,,,,,,,,,,,,,,,
null,,confidence_buffer,277361,confidence_buffer,,null,,,,,,,,,,,,,,,,,,
null,,thebreak,277869,break,,null,,,,,,,,,,,,,,,,,,
6396.099999964237,,familiar_rating,284267,Bar Harbor,,53,Bar Harbor,US,5,,,,,,,,,,,,,,,
null,,confidence_buffer,284369,confidence_buffer,,null,,,,,,,,,,,,,,,,,,
3021.099999964237,,unique_rating,287391,Bar Harbor,,50,,,2,,,,,,,,,,,,,,,
null,,confidence_buffer,287492,confidence_buffer,,null,,,,,,,,,,,,,,,,,,
1247.6000000238419,,memorable_rating,288741,Bar Harbor,,53,,,5,,,,,,,,,,,,,,,
null,,confidence_buffer,288844,confidence_buffer,,null,,,,,,,,,,,,,,,,,,
null,,thebreak,289346,break,,null,,,,,,,,,,,,,,,,,,
2167.300000011921,,familiar_rating,291514,Highvale,,49,Highvale,Fictional,1,,,,,,,,,,,,,,,
null,,confidence_buffer,291617,confidence_buffer,,null,,,,,,,,,,,,,,,,,,
2009.300000011921,,unique_rating,293627,Highvale,,51,,,3,,,,,,,,,,,,,,,
null,,confidence_buffer,293729,confidence_buffer,,null,,,,,,,,,,,,,,,,,,
1357.199999988079,,memorable_rating,295087,Highvale,,53,,,5,,,,,,,,,,,,,,,
null,,confidence_buffer,295188,confidence_buffer,,null,,,,,,,,,,,,,,,,,,
null,,thebreak,295690,break,,null,,,,,,,,,,,,,,,,,,
3423.699999988079,,familiar_rating,299115,Yukon,,52,Yukon,US,4,,,,,,,,,,,,,,,
null,,confidence_buffer,299216,confidence_buffer,,null,,,,,,,,,,,,,,,,,,
2960.900000035763,,unique_rating,302179,Yukon,,50,,,2,,,,,,,,,,,,,,,
null,,confidence_buffer,302281,confidence_buffer,,null,,,,,,,,,,,,,,,,,,
1419.300000011921,,memorable_rating,303701,Yukon,,51,,,3,,,,,,,,,,,,,,,
null,,confidence_buffer,303804,confidence_buffer,,null,,,,,,,,,,,,,,,,,,
null,,thebreak,304306,break,,null,,,,,,,,,,,,,,,,,,
2492.5,,familiar_rating,306799,Tamarisk Hills,,49,Tamarisk Hills,Fictional,1,,,,,,,,,,,,,,,
null,,confidence_buffer,306901,confidence_buffer,,null,,,,,,,,,,,,,,,,,,
2579.300000011921,,unique_rating,309481,Tamarisk Hills,,51,,,3,,,,,,,,,,,,,,,
null,,confidence_buffer,309583,confidence_buffer,,null,,,,,,,,,,,,,,,,,,
3638.400000035763,,memorable_rating,313223,Tamarisk Hills,,50,,,2,,,,,,,,,,,,,,,
null,,confidence_buffer,313325,confidence_buffer,,null,,,,,,,,,,,,,,,,,,
null,,thebreak,313827,break,,null,,,,,,,,,,,,,,,,,,
1993.6000000238419,,familiar_rating,315822,Sitka,,49,Sitka,US,1,,,,,,,,,,,,,,,
null,,confidence_buffer,315924,confidence_buffer,,null,,,,,,,,,,,,,,,,,,
2393.800000011921,,probe_rating,318319,probe_rating,,51,,,,3,1,,,,,,,,,,,,,
null,,confidence_buffer,318421,confidence_buffer,,null,,,,,,,,,,,,,,,,,,
2948.300000011921,,unique_rating,321371,Sitka,,52,,,4,,,,,,,,,,,,,,,
null,,confidence_buffer,321473,confidence_buffer,,null,,,,,,,,,,,,,,,,,,
2114.7000000476837,,memorable_rating,323589,Sitka,,51,,,3,,,,,,,,,,,,,,,
null,,confidence_buffer,323690,confidence_buffer,,null,,,,,,,,,,,,,,,,,,
null,,thebreak,324192,break,,null,,,,,,,,,,,,,,,,,,
5061.699999988079,,familiar_rating,329255,Cedarwyn,,49,Cedarwyn,Fictional,1,,,,,,,,,,,,,,,
null,,confidence_buffer,329360,confidence_buffer,,null,,,,,,,,,,,,,,,,,,
2479.600000023842,,unique_rating,331840,Cedarwyn,,50,,,2,,,,,,,,,,,,,,,
null,,confidence_buffer,331942,confidence_buffer,,null,,,,,,,,,,,,,,,,,,
3469.5,,memorable_rating,335413,Cedarwyn,,52,,,4,,,,,,,,,,,,,,,
null,,confidence_buffer,335518,confidence_buffer,,null,,,,,,,,,,,,,,,,,,
null,,thebreak,336019,break,,null,,,,,,,,,,,,,,,,,,
3189.699999988079,,familiar_rating,339210,Riverlyn,,49,Riverlyn,Fictional,1,,,,,,,,,,,,,,,
null,,confidence_buffer,339312,confidence_buffer,,null,,,,,,,,,,,,,,,,,,
2998.5,,unique_rating,342312,Riverlyn,,50,,,2,,,,,,,,,,,,,,,
null,,confidence_buffer,342413,confidence_buffer,,null,,,,,,,,,,,,,,,,,,
1327.199999988079,,memorable_rating,343741,Riverlyn,,51,,,3,,,,,,,,,,,,,,,
null,,confidence_buffer,343843,confidence_buffer,,null,,,,,,,,,,,,,,,,,,
null,,thebreak,344351,break,,null,,,,,,,,,,,,,,,,,,
2994,,familiar_rating,347347,Folly Beach,,49,Folly Beach,US,1,,,,,,,,,,,,,,,
null,,confidence_buffer,347450,confidence_buffer,,null,,,,,,,,,,,,,,,,,,
2264.2999999523163,,unique_rating,349715,Folly Beach,,51,,,3,,,,,,,,,,,,,,,
null,,confidence_buffer,349817,confidence_buffer,,null,,,,,,,,,,,,,,,,,,
1822.800000011921,,memorable_rating,351641,Folly Beach,,52,,,4,,,,,,,,,,,,,,,
null,,confidence_buffer,351743,confidence_buffer,,null,,,,,,,,,,,,,,,,,,
null,,thebreak,352252,break,,null,,,,,,,,,,,,,,,,,,
2936.5,,familiar_rating,355190,Willowford,,49,Willowford,Fictional,1,,,,,,,,,,,,,,,
null,,confidence_buffer,355293,confidence_buffer,,null,,,,,,,,,,,,,,,,,,
3538.600000023842,,unique_rating,358833,Willowford,,51,,,3,,,,,,,,,,,,,,,
null,,confidence_buffer,358936,confidence_buffer,,null,,,,,,,,,,,,,,,,,,
1651.5999999642372,,memorable_rating,360589,Willowford,,51,,,3,,,,,,,,,,,,,,,
null,,confidence_buffer,360690,confidence_buffer,,null,,,,,,,,,,,,,,,,,,
null,,thebreak,361202,break,,null,,,,,,,,,,,,,,,,,,
2436.699999988079,,familiar_rating,363640,Huntsville,,53,Huntsville,US,5,,,,,,,,,,,,,,,
null,,confidence_buffer,363741,confidence_buffer,,null,,,,,,,,,,,,,,,,,,
2484.599999964237,,unique_rating,366227,Huntsville,,50,,,2,,,,,,,,,,,,,,,
null,,confidence_buffer,366330,confidence_buffer,,null,,,,,,,,,,,,,,,,,,
1543.800000011921,,memorable_rating,367875,Huntsville,,53,,,5,,,,,,,,,,,,,,,
null,,confidence_buffer,367977,confidence_buffer,,null,,,,,,,,,,,,,,,,,,
null,,thebreak,368479,break,,null,,,,,,,,,,,,,,,,,,
3364.100000023842,,familiar_rating,371845,Gardnerville,,49,Gardnerville,US,1,,,,,,,,,,,,,,,
null,,confidence_buffer,371960,confidence_buffer,,null,,,,,,,,,,,,,,,,,,
4088,,unique_rating,376049,Gardnerville,,50,,,2,,,,,,,,,,,,,,,
null,,confidence_buffer,376150,confidence_buffer,,null,,,,,,,,,,,,,,,,,,
2154.400000035763,,memorable_rating,378305,Gardnerville,,51,,,3,,,,,,,,,,,,,,,
null,,confidence_buffer,378407,confidence_buffer,,null,,,,,,,,,,,,,,,,,,
null,,thebreak,378909,break,,null,,,,,,,,,,,,,,,,,,
3216.5,,familiar_rating,382126,Carmel,,51,Carmel,US,3,,,,,,,,,,,,,,,
null,,confidence_buffer,382229,confidence_buffer,,null,,,,,,,,,,,,,,,,,,
2536.5,,unique_rating,384766,Carmel,,50,,,2,,,,,,,,,,,,,,,
null,,confidence_buffer,384868,confidence_buffer,,null,,,,,,,,,,,,,,,,,,
1440.8999999761581,,probe_rating,386310,probe_rating,,52,,,,4,1,,,,,,,,,,,,,
null,,confidence_buffer,386411,confidence_buffer,,null,,,,,,,,,,,,,,,,,,
2425.100000023842,,memorable_rating,388838,Carmel,,51,,,3,,,,,,,,,,,,,,,
null,,confidence_buffer,388940,confidence_buffer,,null,,,,,,,,,,,,,,,,,,
null,,thebreak,389441,break,,null,,,,,,,,,,,,,,,,,,
3018,,familiar_rating,392460,Lakehaven,,49,Lakehaven,Fictional,1,,,,,,,,,,,,,,,
null,,confidence_buffer,392562,confidence_buffer,,null,,,,,,,,,,,,,,,,,,
3073.199999988079,,unique_rating,395637,Lakehaven,,50,,,2,,,,,,,,,,,,,,,
null,,confidence_buffer,395738,confidence_buffer,,null,,,,,,,,,,,,,,,,,,
1809.1000000238419,,memorable_rating,397549,Lakehaven,,51,,,3,,,,,,,,,,,,,,,
null,,confidence_buffer,397652,confidence_buffer,,null,,,,,,,,,,,,,,,,,,
null,,thebreak,398153,break,,null,,,,,,,,,,,,,,,,,,
6048.099999964237,,familiar_rating,404202,Crestwood,,52,Crestwood,Fictional,4,,,,,,,,,,,,,,,
null,,confidence_buffer,404303,confidence_buffer,,null,,,,,,,,,,,,,,,,,,
1911.3999999761581,,unique_rating,406216,Crestwood,,49,,,1,,,,,,,,,,,,,,,
null,,confidence_buffer,406318,confidence_buffer,,null,,,,,,,,,,,,,,,,,,
1627.800000011921,,probe_rating,407947,probe_rating,,50,,,,2,1,,,,,,,,,,,,,
null,,confidence_buffer,408049,confidence_buffer,,null,,,,,,,,,,,,,,,,,,
3090.300000011921,,memorable_rating,411140,Crestwood,,52,,,4,,,,,,,,,,,,,,,
null,,confidence_buffer,411243,confidence_buffer,,null,,,,,,,,,,,,,,,,,,
null,,thebreak,411745,break,,null,,,,,,,,,,,,,,,,,,
4054.100000023842,,familiar_rating,415801,Coralridge,,49,Coralridge,Fictional,1,,,,,,,,,,,,,,,
null,,confidence_buffer,415902,confidence_buffer,,null,,,,,,,,,,,,,,,,,,
5136.599999964237,,unique_rating,421040,Coralridge,,50,,,2,,,,,,,,,,,,,,,
null,,confidence_buffer,421143,confidence_buffer,,null,,,,,,,,,,,,,,,,,,
4010.099999964237,,memorable_rating,425154,Coralridge,,51,,,3,,,,,,,,,,,,,,,
null,,confidence_buffer,425256,confidence_buffer,,null,,,,,,,,,,,,,,,,,,
null,,thebreak,425759,break,,null,,,,,,,,,,,,,,,,,,
1725.5,,familiar_rating,427486,Duck,,49,Duck,US,1,,,,,,,,,,,,,,,
null,,confidence_buffer,427587,confidence_buffer,,null,,,,,,,,,,,,,,,,,,
2794.800000011921,,unique_rating,430384,Duck,,52,,,4,,,,,,,,,,,,,,,
null,,confidence_buffer,430486,confidence_buffer,,null,,,,,,,,,,,,,,,,,,
1439.8999999761581,,memorable_rating,431927,Duck,,53,,,5,,,,,,,,,,,,,,,
null,,confidence_buffer,432044,confidence_buffer,,null,,,,,,,,,,,,,,,,,,
null,,thebreak,432546,break,,null,,,,,,,,,,,,,,,,,,
2307.699999988079,,familiar_rating,434855,Albuquerque,,53,Albuquerque,US,5,,,,,,,,,,,,,,,
null,,confidence_buffer,434956,confidence_buffer,,null,,,,,,,,,,,,,,,,,,
2582.2000000476837,,unique_rating,437539,Albuquerque,,51,,,3,,,,,,,,,,,,,,,
null,,confidence_buffer,437642,confidence_buffer,,null,,,,,,,,,,,,,,,,,,
1731.800000011921,,memorable_rating,439375,Albuquerque,,53,,,5,,,,,,,,,,,,,,,
null,,confidence_buffer,439476,confidence_buffer,,null,,,,,,,,,,,,,,,,,,
null,,thebreak,439978,break,,null,,,,,,,,,,,,,,,,,,
2550.300000011921,,familiar_rating,442530,Ironwood Heights,,49,Ironwood Heights,Fictional,1,,,,,,,,,,,,,,,
null,,confidence_buffer,442631,confidence_buffer,,null,,,,,,,,,,,,,,,,,,
6252.600000023842,,unique_rating,448885,Ironwood Heights,,51,,,3,,,,,,,,,,,,,,,
null,,confidence_buffer,448988,confidence_buffer,,null,,,,,,,,,,,,,,,,,,
3726.399999976158,,memorable_rating,452716,Ironwood Heights,,50,,,2,,,,,,,,,,,,,,,
null,,confidence_buffer,452817,confidence_buffer,,null,,,,,,,,,,,,,,,,,,
null,,thebreak,453320,break,,null,,,,,,,,,,,,,,,,,,
1903.699999988079,,familiar_rating,455225,Elmsbury,,49,Elmsbury,Fictional,1,,,,,,,,,,,,,,,
null,,confidence_buffer,455326,confidence_buffer,,null,,,,,,,,,,,,,,,,,,
4564.100000023842,,unique_rating,459891,Elmsbury,,51,,,3,,,,,,,,,,,,,,,
null,,confidence_buffer,459994,confidence_buffer,,null,,,,,,,,,,,,,,,,,,
2051.100000023842,,memorable_rating,462046,Elmsbury,,51,,,3,,,,,,,,,,,,,,,
null,,confidence_buffer,462148,confidence_buffer,,null,,,,,,,,,,,,,,,,,,
1437.5,,probe_rating,463587,probe_rating,,49,,,,1,1,,,,,,,,,,,,,
null,,confidence_buffer,463688,confidence_buffer,,null,,,,,,,,,,,,,,,,,,
null,,thebreak,464190,break,,null,,,,,,,,,,,,,,,,,,
4590.300000011921,,familiar_rating,468781,North Arroya,,51,North Arroya,Fictional,3,,,,,,,,,,,,,,,
null,,confidence_buffer,468884,confidence_buffer,,null,,,,,,,,,,,,,,,,,,
2995.699999988079,,unique_rating,471881,North Arroya,,52,,,4,,,,,,,,,,,,,,,
null,,confidence_buffer,471983,confidence_buffer,,null,,,,,,,,,,,,,,,,,,
2468.100000023842,,memorable_rating,474453,North Arroya,,51,,,3,,,,,,,,,,,,,,,
null,,confidence_buffer,474555,confidence_buffer,,null,,,,,,,,,,,,,,,,,,
null,,thebreak,475056,break,,null,,,,,,,,,,,,,,,,,,
6760.699999988079,,intro_0,481818,instruct,,32,,,,,,,,,,,,,,,,,,
9301.5,,intro_1,491121,instruct,,32,,,,,,,,,,,,,,,,,,
17538.600000023842,,intro_2,508661,instruct,,32,,,,,,,,,,,,,,,,,,
null,,instruct_dir_4,510163,instruct,,null,,,,,,,,,,,,,,,,,,
7329.599999964237,,realistic_rating,517494,Coralridge,,51,Coralridge,Fictional,3,,,,,,,,,,,,,,,
null,,confidence_buffer,517596,confidence_buffer,,null,,,,,,,,,,,,,,,,,,
3992.5,,pt2_unique_rating,521589,Coralridge,,51,,,3,,,,,,,,,,,,,,,
null,,confidence_buffer,521690,confidence_buffer,,null,,,,,,,,,,,,,,,,,,
4962.399999976158,,pt2_memorable_rating,526654,Coralridge,,52,,,4,,,,,,,,,,,,,,,
null,,confidence_buffer,526757,confidence_buffer,,null,,,,,,,,,,,,,,,,,,
2189.099999964237,,recognition_phase,528947,Coralridge,,49,,,,,,old,1,1,,,,,,,,,,
null,,confidence_buffer,529051,confidence_buffer,,null,,,,,,,,,,,,,,,,,,
null,,thebreak,529565,break,,null,,,,,,,,,,,,,,,,,,
6133.5,,realistic_rating,535699,East Ladera,,52,East Ladera,Fictional,4,,,,,,,,,,,,,,,
null,,confidence_buffer,535802,confidence_buffer,,null,,,,,,,,,,,,,,,,,,
3908,,pt2_unique_rating,539711,East Ladera,,51,,,3,,,,,,,,,,,,,,,
null,,confidence_buffer,539813,confidence_buffer,,null,,,,,,,,,,,,,,,,,,
4010.5,,pt2_memorable_rating,543825,East Ladera,,51,,,3,,,,,,,,,,,,,,,
null,,confidence_buffer,543927,confidence_buffer,,null,,,,,,,,,,,,,,,,,,
2072.100000023842,,recognition_phase,546000,East Ladera,,52,,,,,,new,1,1,,,,,,,,,,
null,,confidence_buffer,546101,confidence_buffer,,null,,,,,,,,,,,,,,,,,,
null,,thebreak,546603,break,,null,,,,,,,,,,,,,,,,,,
5496.199999988079,,realistic_rating,552100,Pine Hollow,,52,Pine Hollow,Fictional,4,,,,,,,,,,,,,,,
null,,confidence_buffer,552202,confidence_buffer,,null,,,,,,,,,,,,,,,,,,
2985.699999988079,,pt2_unique_rating,555188,Pine Hollow,,50,,,2,,,,,,,,,,,,,,,
null,,confidence_buffer,555291,confidence_buffer,,null,,,,,,,,,,,,,,,,,,
2749.100000023842,,pt2_memorable_rating,558041,Pine Hollow,,51,,,3,,,,,,,,,,,,,,,
null,,confidence_buffer,558143,confidence_buffer,,null,,,,,,,,,,,,,,,,,,
1500.8999999761581,,recognition_phase,559646,Pine Hollow,,49,,,,,,old,1,1,,,,,,,,,,
null,,confidence_buffer,559748,confidence_buffer,,null,,,,,,,,,,,,,,,,,,
null,,thebreak,560251,break,,null,,,,,,,,,,,,,,,,,,
3428.2999999523163,,realistic_rating,563680,Delaware City,,53,Delaware City,US,5,,,,,,,,,,,,,,,
null,,confidence_buffer,563783,confidence_buffer,,null,,,,,,,,,,,,,,,,,,
2366.699999988079,,pt2_unique_rating,566151,Delaware City,,49,,,1,,,,,,,,,,,,,,,
null,,confidence_buffer,566253,confidence_buffer,,null,,,,,,,,,,,,,,,,,,
2770.800000011921,,pt2_memorable_rating,569026,Delaware City,,51,,,3,,,,,,,,,,,,,,,
null,,confidence_buffer,569127,confidence_buffer,,null,,,,,,,,,,,,,,,,,,
1762.7999999523163,,recognition_phase,570891,Delaware City,,49,,,,,,old,0,0.75,,,,,,,,,,
null,,confidence_buffer,570994,confidence_buffer,,null,,,,,,,,,,,,,,,,,,
null,,thebreak,571496,break,,null,,,,,,,,,,,,,,,,,,
10166.5,,realistic_rating,581664,Juniper Creek,,52,Juniper Creek,Fictional,4,,,,,,,,,,,,,,,
null,,confidence_buffer,581765,confidence_buffer,,null,,,,,,,,,,,,,,,,,,
2650.899999976158,,pt2_unique_rating,584417,Juniper Creek,,50,,,2,,,,,,,,,,,,,,,
null,,confidence_buffer,584521,confidence_buffer,,null,,,,,,,,,,,,,,,,,,
3256.100000023842,,pt2_memorable_rating,587778,Juniper Creek,,50,,,2,,,,,,,,,,,,,,,
null,,confidence_buffer,587879,confidence_buffer,,null,,,,,,,,,,,,,,,,,,
4114.199999988079,,recognition_phase,591995,Juniper Creek,,51,,,,,,new,1,0.8,,,,,,,,,,
null,,confidence_buffer,592096,confidence_buffer,,null,,,,,,,,,,,,,,,,,,
null,,thebreak,592597,break,,null,,,,,,,,,,,,,,,,,,
3868.2000000476837,,realistic_rating,596466,Brookmere,,52,Brookmere,Fictional,4,,,,,,,,,,,,,,,
null,,confidence_buffer,596568,confidence_buffer,,null,,,,,,,,,,,,,,,,,,
3157.300000011921,,pt2_unique_rating,599727,Brookmere,,50,,,2,,,,,,,,,,,,,,,
null,,confidence_buffer,599830,confidence_buffer,,null,,,,,,,,,,,,,,,,,,
2344.800000011921,,pt2_memorable_rating,602176,Brookmere,,51,,,3,,,,,,,,,,,,,,,
null,,confidence_buffer,602279,confidence_buffer,,null,,,,,,,,,,,,,,,,,,
2046.699999988079,,recognition_phase,604327,Brookmere,,49,,,,,,old,1,0.8333333333333334,,,,,,,,,,
null,,confidence_buffer,604431,confidence_buffer,,null,,,,,,,,,,,,,,,,,,
null,,thebreak,604933,break,,null,,,,,,,,,,,,,,,,,,
4753.399999976158,,realistic_rating,609688,Sierra Hollow,,52,Sierra Hollow,Fictional,4,,,,,,,,,,,,,,,
null,,confidence_buffer,609790,confidence_buffer,,null,,,,,,,,,,,,,,,,,,
1953.300000011921,,pt2_unique_rating,611745,Sierra Hollow,,51,,,3,,,,,,,,,,,,,,,
null,,confidence_buffer,611847,confidence_buffer,,null,,,,,,,,,,,,,,,,,,
5289.600000023842,,pt2_memorable_rating,617138,Sierra Hollow,,50,,,2,,,,,,,,,,,,,,,
null,,confidence_buffer,617241,confidence_buffer,,null,,,,,,,,,,,,,,,,,,
4269.699999988079,,recognition_phase,621512,Sierra Hollow,,51,,,,,,new,1,0.8571428571428571,,,,,,,,,,
null,,confidence_buffer,621614,confidence_buffer,,null,,,,,,,,,,,,,,,,,,
null,,thebreak,622115,break,,null,,,,,,,,,,,,,,,,,,
2705.5,,realistic_rating,624821,Crestwood,,53,Crestwood,Fictional,5,,,,,,,,,,,,,,,
null,,confidence_buffer,624924,confidence_buffer,,null,,,,,,,,,,,,,,,,,,
1149.699999988079,,probe_rating,626075,probe_rating,,50,,,,2,1,,,,,,,,,,,,,
null,,confidence_buffer,626177,confidence_buffer,,null,,,,,,,,,,,,,,,,,,
4368.099999964237,,pt2_unique_rating,630546,Crestwood,,50,,,2,,,,,,,,,,,,,,,
null,,confidence_buffer,630647,confidence_buffer,,null,,,,,,,,,,,,,,,,,,
4268.300000011921,,pt2_memorable_rating,634916,Crestwood,,52,,,4,,,,,,,,,,,,,,,
null,,confidence_buffer,635019,confidence_buffer,,null,,,,,,,,,,,,,,,,,,
2916.5,,recognition_phase,637937,Crestwood,,49,,,,,,old,1,0.875,,,,,,,,,,
null,,confidence_buffer,638038,confidence_buffer,,null,,,,,,,,,,,,,,,,,,
null,,thebreak,638540,break,,null,,,,,,,,,,,,,,,,,,
5536.700000047684,,realistic_rating,644078,West Talora,,51,West Talora,Fictional,3,,,,,,,,,,,,,,,
null,,confidence_buffer,644181,confidence_buffer,,null,,,,,,,,,,,,,,,,,,
4035.100000023842,,pt2_unique_rating,648217,West Talora,,52,,,4,,,,,,,,,,,,,,,
null,,confidence_buffer,648320,confidence_buffer,,null,,,,,,,,,,,,,,,,,,
2922.100000023842,,pt2_memorable_rating,651243,West Talora,,50,,,2,,,,,,,,,,,,,,,
null,,confidence_buffer,651345,confidence_buffer,,null,,,,,,,,,,,,,,,,,,
5092.199999988079,,recognition_phase,656439,West Talora,,52,,,,,,new,1,0.8888888888888888,,,,,,,,,,
null,,confidence_buffer,656541,confidence_buffer,,null,,,,,,,,,,,,,,,,,,
null,,thebreak,657048,break,,null,,,,,,,,,,,,,,,,,,
2395.800000011921,,realistic_rating,659445,Gloucester,,53,Gloucester,US,5,,,,,,,,,,,,,,,
null,,confidence_buffer,659547,confidence_buffer,,null,,,,,,,,,,,,,,,,,,
2433.899999976158,,pt2_unique_rating,661983,Gloucester,,51,,,3,,,,,,,,,,,,,,,
null,,confidence_buffer,662084,confidence_buffer,,null,,,,,,,,,,,,,,,,,,
1547,,pt2_memorable_rating,663632,Gloucester,,52,,,4,,,,,,,,,,,,,,,
null,,confidence_buffer,663733,confidence_buffer,,null,,,,,,,,,,,,,,,,,,
1450.199999988079,,probe_rating,665185,probe_rating,,52,,,,4,1,,,,,,,,,,,,,
null,,confidence_buffer,665287,confidence_buffer,,null,,,,,,,,,,,,,,,,,,
2796.199999988079,,recognition_phase,668085,Gloucester,,52,,,,,,new,1,0.9,,,,,,,,,,
null,,confidence_buffer,668187,confidence_buffer,,null,,,,,,,,,,,,,,,,,,
null,,thebreak,668689,break,,null,,,,,,,,,,,,,,,,,,
4996.800000011921,,realistic_rating,673687,Silverpine,,51,Silverpine,Fictional,3,,,,,,,,,,,,,,,
null,,confidence_buffer,673789,confidence_buffer,,null,,,,,,,,,,,,,,,,,,
6607.600000023842,,pt2_unique_rating,680398,Silverpine,,50,,,2,,,,,,,,,,,,,,,
null,,confidence_buffer,680500,confidence_buffer,,null,,,,,,,,,,,,,,,,,,
2053.7999999523163,,pt2_memorable_rating,682555,Silverpine,,51,,,3,,,,,,,,,,,,,,,
null,,confidence_buffer,682657,confidence_buffer,,null,,,,,,,,,,,,,,,,,,
2513.800000011921,,recognition_phase,685173,Silverpine,,52,,,,,,new,1,0.9090909090909091,,,,,,,,,,
null,,confidence_buffer,685275,confidence_buffer,,null,,,,,,,,,,,,,,,,,,
null,,thebreak,685776,break,,null,,,,,,,,,,,,,,,,,,
3025.5,,realistic_rating,688803,Albuquerque,,53,Albuquerque,US,5,,,,,,,,,,,,,,,
null,,confidence_buffer,688905,confidence_buffer,,null,,,,,,,,,,,,,,,,,,
2220.199999988079,,pt2_unique_rating,691127,Albuquerque,,51,,,3,,,,,,,,,,,,,,,
null,,confidence_buffer,691228,confidence_buffer,,null,,,,,,,,,,,,,,,,,,
1337.3999999761581,,pt2_memorable_rating,692567,Albuquerque,,53,,,5,,,,,,,,,,,,,,,
null,,confidence_buffer,692669,confidence_buffer,,null,,,,,,,,,,,,,,,,,,
2274.5,,recognition_phase,694945,Albuquerque,,49,,,,,,old,1,0.9166666666666666,,,,,,,,,,
null,,confidence_buffer,695047,confidence_buffer,,null,,,,,,,,,,,,,,,,,,
null,,thebreak,695550,break,,null,,,,,,,,,,,,,,,,,,
8123.300000011921,,realistic_rating,703674,Maplehurst,,51,Maplehurst,Fictional,3,,,,,,,,,,,,,,,
null,,confidence_buffer,703777,confidence_buffer,,null,,,,,,,,,,,,,,,,,,
2700.699999988079,,pt2_unique_rating,706479,Maplehurst,,52,,,4,,,,,,,,,,,,,,,
null,,confidence_buffer,706582,confidence_buffer,,null,,,,,,,,,,,,,,,,,,
2335.300000011921,,pt2_memorable_rating,708919,Maplehurst,,51,,,3,,,,,,,,,,,,,,,
null,,confidence_buffer,709020,confidence_buffer,,null,,,,,,,,,,,,,,,,,,
3019.099999964237,,recognition_phase,712041,Maplehurst,,52,,,,,,new,1,0.9230769230769231,,,,,,,,,,
null,,confidence_buffer,712143,confidence_buffer,,null,,,,,,,,,,,,,,,,,,
null,,thebreak,712646,break,,null,,,,,,,,,,,,,,,,,,
2298.900000035763,,realistic_rating,714946,Cleveland,,53,Cleveland,US,5,,,,,,,,,,,,,,,
null,,confidence_buffer,715049,confidence_buffer,,null,,,,,,,,,,,,,,,,,,
1353.3999999761581,,probe_rating,716404,probe_rating,,49,,,,1,1,,,,,,,,,,,,,
null,,confidence_buffer,716506,confidence_buffer,,null,,,,,,,,,,,,,,,,,,
5268.899999976158,,pt2_unique_rating,721776,Cleveland,,50,,,2,,,,,,,,,,,,,,,
null,,confidence_buffer,721877,confidence_buffer,,null,,,,,,,,,,,,,,,,,,
2324.399999976158,,pt2_memorable_rating,724203,Cleveland,,53,,,5,,,,,,,,,,,,,,,
null,,confidence_buffer,724306,confidence_buffer,,null,,,,,,,,,,,,,,,,,,
2920.5,,recognition_phase,727228,Cleveland,,49,,,,,,old,1,0.9285714285714286,,,,,,,,,,
null,,confidence_buffer,727330,confidence_buffer,,null,,,,,,,,,,,,,,,,,,
null,,thebreak,727832,break,,null,,,,,,,,,,,,,,,,,,
4107.900000035763,,realistic_rating,731941,Driftwood Bay,,52,Driftwood Bay,Fictional,4,,,,,,,,,,,,,,,
null,,confidence_buffer,732043,confidence_buffer,,null,,,,,,,,,,,,,,,,,,
2205.899999976158,,pt2_unique_rating,734251,Driftwood Bay,,50,,,2,,,,,,,,,,,,,,,
null,,confidence_buffer,734353,confidence_buffer,,null,,,,,,,,,,,,,,,,,,
1574.199999988079,,pt2_memorable_rating,735928,Driftwood Bay,,51,,,3,,,,,,,,,,,,,,,
null,,confidence_buffer,736031,confidence_buffer,,null,,,,,,,,,,,,,,,,,,
2888.599999964237,,recognition_phase,738921,Driftwood Bay,,52,,,,,,new,1,0.9333333333333333,,,,,,,,,,
null,,confidence_buffer,739023,confidence_buffer,,null,,,,,,,,,,,,,,,,,,
null,,thebreak,739524,break,,null,,,,,,,,,,,,,,,,,,
3778,,realistic_rating,743303,Willowford,,51,Willowford,Fictional,3,,,,,,,,,,,,,,,
null,,confidence_buffer,743404,confidence_buffer,,null,,,,,,,,,,,,,,,,,,
3602.5,,pt2_unique_rating,747008,Willowford,,50,,,2,,,,,,,,,,,,,,,
null,,confidence_buffer,747111,confidence_buffer,,null,,,,,,,,,,,,,,,,,,
4512.199999988079,,pt2_memorable_rating,751624,Willowford,,51,,,3,,,,,,,,,,,,,,,
null,,confidence_buffer,751725,confidence_buffer,,null,,,,,,,,,,,,,,,,,,
1862.9000000357628,,recognition_phase,753589,Willowford,,49,,,,,,old,1,0.9375,,,,,,,,,,
null,,confidence_buffer,753690,confidence_buffer,,null,,,,,,,,,,,,,,,,,,
null,,thebreak,754191,break,,null,,,,,,,,,,,,,,,,,,
5747.599999964237,,realistic_rating,759940,Manistee,,51,Manistee,US,3,,,,,,,,,,,,,,,
null,,confidence_buffer,760042,confidence_buffer,,null,,,,,,,,,,,,,,,,,,
3923.099999964237,,pt2_unique_rating,763966,Manistee,,52,,,4,,,,,,,,,,,,,,,
null,,confidence_buffer,764069,confidence_buffer,,null,,,,,,,,,,,,,,,,,,
2556.7999999523163,,pt2_memorable_rating,766627,Manistee,,51,,,3,,,,,,,,,,,,,,,
null,,confidence_buffer,766728,confidence_buffer,,null,,,,,,,,,,,,,,,,,,
1530.300000011921,,recognition_phase,768260,Manistee,,52,,,,,,new,1,0.9411764705882353,,,,,,,,,,
null,,confidence_buffer,768361,confidence_buffer,,null,,,,,,,,,,,,,,,,,,
null,,thebreak,768864,break,,null,,,,,,,,,,,,,,,,,,
1812.6000000238419,,realistic_rating,770678,Racine,,53,Racine,US,5,,,,,,,,,,,,,,,
null,,confidence_buffer,770780,confidence_buffer,,null,,,,,,,,,,,,,,,,,,
1972.199999988079,,pt2_unique_rating,772753,Racine,,51,,,3,,,,,,,,,,,,,,,
null,,confidence_buffer,772856,confidence_buffer,,null,,,,,,,,,,,,,,,,,,
1679.0999999642372,,pt2_memorable_rating,774536,Racine,,53,,,5,,,,,,,,,,,,,,,
null,,confidence_buffer,774637,confidence_buffer,,null,,,,,,,,,,,,,,,,,,
1664.3999999761581,,recognition_phase,776303,Racine,,49,,,,,,old,0,0.8888888888888888,,,,,,,,,,
null,,confidence_buffer,776404,confidence_buffer,,null,,,,,,,,,,,,,,,,,,
null,,thebreak,776906,break,,null,,,,,,,,,,,,,,,,,,
4196.899999976158,,realistic_rating,781105,West Palm Beach,,53,West Palm Beach,US,5,,,,,,,,,,,,,,,
null,,confidence_buffer,781206,confidence_buffer,,null,,,,,,,,,,,,,,,,,,
2816.800000011921,,pt2_unique_rating,784024,West Palm Beach,,50,,,2,,,,,,,,,,,,,,,
null,,confidence_buffer,784130,confidence_buffer,,null,,,,,,,,,,,,,,,,,,
2561.800000011921,,pt2_memorable_rating,786693,West Palm Beach,,52,,,4,,,,,,,,,,,,,,,
null,,confidence_buffer,786795,confidence_buffer,,null,,,,,,,,,,,,,,,,,,
2838,,recognition_phase,789634,West Palm Beach,,52,,,,,,new,1,0.8947368421052632,,,,,,,,,,
null,,confidence_buffer,789736,confidence_buffer,,null,,,,,,,,,,,,,,,,,,
null,,thebreak,790237,break,,null,,,,,,,,,,,,,,,,,,
8453.5,,realistic_rating,798693,Leesburg,,52,Leesburg,US,4,,,,,,,,,,,,,,,
null,,confidence_buffer,798795,confidence_buffer,,null,,,,,,,,,,,,,,,,,,
1673.4000000357628,,pt2_unique_rating,800470,Leesburg,,50,,,2,,,,,,,,,,,,,,,
null,,confidence_buffer,800572,confidence_buffer,,null,,,,,,,,,,,,,,,,,,
2237.300000011921,,pt2_memorable_rating,802811,Leesburg,,51,,,3,,,,,,,,,,,,,,,
null,,confidence_buffer,802912,confidence_buffer,,null,,,,,,,,,,,,,,,,,,
1913.199999988079,,recognition_phase,804826,Leesburg,,49,,,,,,old,1,0.9,,,,,,,,,,
null,,confidence_buffer,804928,confidence_buffer,,null,,,,,,,,,,,,,,,,,,
null,,thebreak,805429,break,,null,,,,,,,,,,,,,,,,,,
4844.199999988079,,realistic_rating,810274,Rosehollow,,52,Rosehollow,Fictional,4,,,,,,,,,,,,,,,
null,,confidence_buffer,810376,confidence_buffer,,null,,,,,,,,,,,,,,,,,,
1242.1000000238419,,pt2_unique_rating,811619,Rosehollow,,50,,,2,,,,,,,,,,,,,,,
null,,confidence_buffer,811722,confidence_buffer,,null,,,,,,,,,,,,,,,,,,
1444.0999999642372,,pt2_memorable_rating,813167,Rosehollow,,51,,,3,,,,,,,,,,,,,,,
null,,confidence_buffer,813269,confidence_buffer,,null,,,,,,,,,,,,,,,,,,
1563.8999999761581,,recognition_phase,814835,Rosehollow,,50,,,,,,old,0,0.8571428571428571,,,,,,,,,,
null,,confidence_buffer,814937,confidence_buffer,,null,,,,,,,,,,,,,,,,,,
null,,thebreak,815439,break,,null,,,,,,,,,,,,,,,,,,
6380.899999976158,,realistic_rating,821821,Folly Beach,,51,Folly Beach,US,3,,,,,,,,,,,,,,,
null,,confidence_buffer,821925,confidence_buffer,,null,,,,,,,,,,,,,,,,,,
2078.800000011921,,pt2_unique_rating,824005,Folly Beach,,52,,,4,,,,,,,,,,,,,,,
null,,confidence_buffer,824108,confidence_buffer,,null,,,,,,,,,,,,,,,,,,
1942.800000011921,,pt2_memorable_rating,826052,Folly Beach,,52,,,4,,,,,,,,,,,,,,,
null,,confidence_buffer,826154,confidence_buffer,,null,,,,,,,,,,,,,,,,,,
5651.199999988079,,recognition_phase,831807,Folly Beach,,49,,,,,,old,1,0.8636363636363636,,,,,,,,,,
null,,confidence_buffer,831909,confidence_buffer,,null,,,,,,,,,,,,,,,,,,
null,,thebreak,832411,break,,null,,,,,,,,,,,,,,,,,,
4997.399999976158,,realistic_rating,837409,New Hope,,52,New Hope,US,4,,,,,,,,,,,,,,,
null,,confidence_buffer,837511,confidence_buffer,,null,,,,,,,,,,,,,,,,,,
2218,,probe_rating,839730,probe_rating,,50,,,,2,1,,,,,,,,,,,,,
null,,confidence_buffer,839832,confidence_buffer,,null,,,,,,,,,,,,,,,,,,
3446.600000023842,,pt2_unique_rating,843280,New Hope,,50,,,2,,,,,,,,,,,,,,,
null,,confidence_buffer,843382,confidence_buffer,,null,,,,,,,,,,,,,,,,,,
2192.899999976158,,pt2_memorable_rating,845577,New Hope,,51,,,3,,,,,,,,,,,,,,,
null,,confidence_buffer,845678,confidence_buffer,,null,,,,,,,,,,,,,,,,,,
2152,,recognition_phase,847832,New Hope,,51,,,,,,new,1,0.8695652173913043,,,,,,,,,,
null,,confidence_buffer,847934,confidence_buffer,,null,,,,,,,,,,,,,,,,,,
null,,thebreak,848436,break,,null,,,,,,,,,,,,,,,,,,
2124.300000011921,,realistic_rating,850562,Carmel,,52,Carmel,US,4,,,,,,,,,,,,,,,
null,,confidence_buffer,850664,confidence_buffer,,null,,,,,,,,,,,,,,,,,,
1858,,pt2_unique_rating,852523,Carmel,,50,,,2,,,,,,,,,,,,,,,
null,,confidence_buffer,852624,confidence_buffer,,null,,,,,,,,,,,,,,,,,,
1432.9000000357628,,probe_rating,854058,probe_rating,,49,,,,1,1,,,,,,,,,,,,,
null,,confidence_buffer,854161,confidence_buffer,,null,,,,,,,,,,,,,,,,,,
3311.2999999523163,,pt2_memorable_rating,857473,Carmel,,52,,,4,,,,,,,,,,,,,,,
null,,confidence_buffer,857575,confidence_buffer,,null,,,,,,,,,,,,,,,,,,
1863.8999999761581,,recognition_phase,859441,Carmel,,49,,,,,,old,1,0.875,,,,,,,,,,
null,,confidence_buffer,859542,confidence_buffer,,null,,,,,,,,,,,,,,,,,,
null,,thebreak,860044,break,,null,,,,,,,,,,,,,,,,,,
2711.100000023842,,realistic_rating,862756,Watkins Glen,,52,Watkins Glen,US,4,,,,,,,,,,,,,,,
null,,confidence_buffer,862857,confidence_buffer,,null,,,,,,,,,,,,,,,,,,
1559.3999999761581,,pt2_unique_rating,864418,Watkins Glen,,50,,,2,,,,,,,,,,,,,,,
null,,confidence_buffer,864521,confidence_buffer,,null,,,,,,,,,,,,,,,,,,
2483.400000035763,,pt2_memorable_rating,867006,Watkins Glen,,51,,,3,,,,,,,,,,,,,,,
null,,confidence_buffer,867107,confidence_buffer,,null,,,,,,,,,,,,,,,,,,
2014,,recognition_phase,869122,Watkins Glen,,52,,,,,,new,1,0.88,,,,,,,,,,
null,,confidence_buffer,869224,confidence_buffer,,null,,,,,,,,,,,,,,,,,,
null,,thebreak,869725,break,,null,,,,,,,,,,,,,,,,,,
2068.5,,realistic_rating,871795,Hanover,,53,Hanover,US,5,,,,,,,,,,,,,,,
null,,confidence_buffer,871899,confidence_buffer,,null,,,,,,,,,,,,,,,,,,
2005.1000000238419,,pt2_unique_rating,873904,Hanover,,51,,,3,,,,,,,,,,,,,,,
null,,confidence_buffer,874013,confidence_buffer,,null,,,,,,,,,,,,,,,,,,
3709.699999988079,,pt2_memorable_rating,877724,Hanover,,53,,,5,,,,,,,,,,,,,,,
null,,confidence_buffer,877825,confidence_buffer,,null,,,,,,,,,,,,,,,,,,
1157.3999999761581,,probe_rating,878984,probe_rating,,52,,,,4,1,,,,,,,,,,,,,
null,,confidence_buffer,879085,confidence_buffer,,null,,,,,,,,,,,,,,,,,,
1937.6000000238419,,recognition_phase,881024,Hanover,,49,,,,,,old,1,0.8846153846153846,,,,,,,,,,
null,,confidence_buffer,881126,confidence_buffer,,null,,,,,,,,,,,,,,,,,,
null,,thebreak,881629,break,,null,,,,,,,,,,,,,,,,,,
3981.699999988079,,realistic_rating,885611,Maravilla Springs,,51,Maravilla Springs,Fictional,3,,,,,,,,,,,,,,,
null,,confidence_buffer,885713,confidence_buffer,,null,,,,,,,,,,,,,,,,,,
3485.900000035763,,pt2_unique_rating,889200,Maravilla Springs,,50,,,2,,,,,,,,,,,,,,,
null,,confidence_buffer,889301,confidence_buffer,,null,,,,,,,,,,,,,,,,,,
1630.1000000238419,,pt2_memorable_rating,890932,Maravilla Springs,,51,,,3,,,,,,,,,,,,,,,
null,,confidence_buffer,891037,confidence_buffer,,null,,,,,,,,,,,,,,,,,,
2562.300000011921,,recognition_phase,893601,Maravilla Springs,,49,,,,,,old,1,0.8888888888888888,,,,,,,,,,
null,,confidence_buffer,893703,confidence_buffer,,null,,,,,,,,,,,,,,,,,,
null,,thebreak,894204,break,,null,,,,,,,,,,,,,,,,,,
1685.6000000238419,,realistic_rating,895890,Huntsville,,53,Huntsville,US,5,,,,,,,,,,,,,,,
null,,confidence_buffer,895993,confidence_buffer,,null,,,,,,,,,,,,,,,,,,
2258.399999976158,,pt2_unique_rating,898253,Huntsville,,50,,,2,,,,,,,,,,,,,,,
null,,confidence_buffer,898354,confidence_buffer,,null,,,,,,,,,,,,,,,,,,
1667.300000011921,,pt2_memorable_rating,900023,Huntsville,,53,,,5,,,,,,,,,,,,,,,
null,,confidence_buffer,900124,confidence_buffer,,null,,,,,,,,,,,,,,,,,,
1870.699999988079,,recognition_phase,901997,Huntsville,,49,,,,,,old,1,0.8928571428571429,,,,,,,,,,
null,,confidence_buffer,902099,confidence_buffer,,null,,,,,,,,,,,,,,,,,,
null,,thebreak,902600,break,,null,,,,,,,,,,,,,,,,,,
1730.800000011921,,realistic_rating,904332,Newport,,53,Newport,US,5,,,,,,,,,,,,,,,
null,,confidence_buffer,904433,confidence_buffer,,null,,,,,,,,,,,,,,,,,,
2038.300000011921,,pt2_unique_rating,906473,Newport,,50,,,2,,,,,,,,,,,,,,,
null,,confidence_buffer,906575,confidence_buffer,,null,,,,,,,,,,,,,,,,,,
1614.800000011921,,pt2_memorable_rating,908191,Newport,,52,,,4,,,,,,,,,,,,,,,
null,,confidence_buffer,908293,confidence_buffer,,null,,,,,,,,,,,,,,,,,,
2465.199999988079,,recognition_phase,910759,Newport,,49,,,,,,old,0,0.8620689655172413,,,,,,,,,,
null,,confidence_buffer,910862,confidence_buffer,,null,,,,,,,,,,,,,,,,,,
null,,thebreak,911364,break,,null,,,,,,,,,,,,,,,,,,
5196,,realistic_rating,916561,Sisters,,51,Sisters,US,3,,,,,,,,,,,,,,,
null,,confidence_buffer,916664,confidence_buffer,,null,,,,,,,,,,,,,,,,,,
4720.400000035763,,pt2_unique_rating,921386,Sisters,,53,,,5,,,,,,,,,,,,,,,
null,,confidence_buffer,921488,confidence_buffer,,null,,,,,,,,,,,,,,,,,,
2960.900000035763,,pt2_memorable_rating,924450,Sisters,,52,,,4,,,,,,,,,,,,,,,
null,,confidence_buffer,924552,confidence_buffer,,null,,,,,,,,,,,,,,,,,,
1506.8999999761581,,recognition_phase,926061,Sisters,,52,,,,,,new,1,0.8666666666666667,,,,,,,,,,
null,,confidence_buffer,926163,confidence_buffer,,null,,,,,,,,,,,,,,,,,,
null,,thebreak,926664,break,,null,,,,,,,,,,,,,,,,,,
3158.699999988079,,realistic_rating,929823,Summershade,,51,Summershade,Fictional,3,,,,,,,,,,,,,,,
null,,confidence_buffer,929926,confidence_buffer,,null,,,,,,,,,,,,,,,,,,
1270.6000000238419,,probe_rating,931198,probe_rating,,52,,,,4,1,,,,,,,,,,,,,
null,,confidence_buffer,931301,confidence_buffer,,null,,,,,,,,,,,,,,,,,,
4032.599999964237,,pt2_unique_rating,935335,Summershade,,51,,,3,,,,,,,,,,,,,,,
null,,confidence_buffer,935437,confidence_buffer,,null,,,,,,,,,,,,,,,,,,
3049.099999964237,,pt2_memorable_rating,938487,Summershade,,52,,,4,,,,,,,,,,,,,,,
null,,confidence_buffer,938588,confidence_buffer,,null,,,,,,,,,,,,,,,,,,
2875,,recognition_phase,941464,Summershade,,49,,,,,,old,1,0.8709677419354839,,,,,,,,,,
null,,confidence_buffer,941567,confidence_buffer,,null,,,,,,,,,,,,,,,,,,
null,,thebreak,942069,break,,null,,,,,,,,,,,,,,,,,,
13554.699999988079,,realistic_rating,955624,Riverlyn,,50,Riverlyn,Fictional,2,,,,,,,,,,,,,,,
null,,confidence_buffer,955727,confidence_buffer,,null,,,,,,,,,,,,,,,,,,
2570.5,,pt2_unique_rating,958298,Riverlyn,,51,,,3,,,,,,,,,,,,,,,
null,,confidence_buffer,958402,confidence_buffer,,null,,,,,,,,,,,,,,,,,,
2520.100000023842,,pt2_memorable_rating,960923,Riverlyn,,51,,,3,,,,,,,,,,,,,,,
null,,confidence_buffer,961025,confidence_buffer,,null,,,,,,,,,,,,,,,,,,
1906.199999988079,,recognition_phase,962933,Riverlyn,,49,,,,,,old,1,0.875,,,,,,,,,,
null,,confidence_buffer,963036,confidence_buffer,,null,,,,,,,,,,,,,,,,,,
null,,thebreak,963538,break,,null,,,,,,,,,,,,,,,,,,
3385.899999976158,,realistic_rating,966925,Yukon,,52,Yukon,US,4,,,,,,,,,,,,,,,
null,,confidence_buffer,967027,confidence_buffer,,null,,,,,,,,,,,,,,,,,,
2335.2999999523163,,pt2_unique_rating,969364,Yukon,,51,,,3,,,,,,,,,,,,,,,
null,,confidence_buffer,969466,confidence_buffer,,null,,,,,,,,,,,,,,,,,,
2701.399999976158,,pt2_memorable_rating,972168,Yukon,,52,,,4,,,,,,,,,,,,,,,
null,,confidence_buffer,972271,confidence_buffer,,null,,,,,,,,,,,,,,,,,,
2320.100000023842,,recognition_phase,974593,Yukon,,49,,,,,,old,1,0.8787878787878788,,,,,,,,,,
null,,confidence_buffer,974695,confidence_buffer,,null,,,,,,,,,,,,,,,,,,
null,,thebreak,975204,break,,null,,,,,,,,,,,,,,,,,,
6350.899999976158,,realistic_rating,981556,Highvale,,50,Highvale,Fictional,2,,,,,,,,,,,,,,,
null,,confidence_buffer,981657,confidence_buffer,,null,,,,,,,,,,,,,,,,,,
2712,,pt2_unique_rating,984371,Highvale,,51,,,3,,,,,,,,,,,,,,,
null,,confidence_buffer,984474,confidence_buffer,,null,,,,,,,,,,,,,,,,,,
1529.0999999642372,,pt2_memorable_rating,986005,Highvale,,53,,,5,,,,,,,,,,,,,,,
null,,confidence_buffer,986108,confidence_buffer,,null,,,,,,,,,,,,,,,,,,
1658.3999999761581,,recognition_phase,987767,Highvale,,49,,,,,,old,1,0.8823529411764706,,,,,,,,,,
null,,confidence_buffer,987868,confidence_buffer,,null,,,,,,,,,,,,,,,,,,
null,,thebreak,988370,break,,null,,,,,,,,,,,,,,,,,,
10719.699999988079,,realistic_rating,999091,Gardnerville,,52,Gardnerville,US,4,,,,,,,,,,,,,,,
null,,confidence_buffer,999193,confidence_buffer,,null,,,,,,,,,,,,,,,,,,
1726.4000000357628,,probe_rating,1000921,probe_rating,,51,,,,3,1,,,,,,,,,,,,,
null,,confidence_buffer,1001023,confidence_buffer,,null,,,,,,,,,,,,,,,,,,
1685.199999988079,,pt2_unique_rating,1002710,Gardnerville,,50,,,2,,,,,,,,,,,,,,,
null,,confidence_buffer,1002811,confidence_buffer,,null,,,,,,,,,,,,,,,,,,
2732.199999988079,,pt2_memorable_rating,1005545,Gardnerville,,51,,,3,,,,,,,,,,,,,,,
null,,confidence_buffer,1005647,confidence_buffer,,null,,,,,,,,,,,,,,,,,,
1527.800000011921,,recognition_phase,1007177,Gardnerville,,49,,,,,,old,1,0.8857142857142857,,,,,,,,,,
null,,confidence_buffer,1007279,confidence_buffer,,null,,,,,,,,,,,,,,,,,,
null,,thebreak,1007780,break,,null,,,,,,,,,,,,,,,,,,
4629.800000011921,,realistic_rating,1012411,Cedarwyn,,51,Cedarwyn,Fictional,3,,,,,,,,,,,,,,,
null,,confidence_buffer,1012514,confidence_buffer,,null,,,,,,,,,,,,,,,,,,
4229.399999976158,,pt2_unique_rating,1016745,Cedarwyn,,52,,,4,,,,,,,,,,,,,,,
null,,confidence_buffer,1016846,confidence_buffer,,null,,,,,,,,,,,,,,,,,,
3099.5,,pt2_memorable_rating,1019946,Cedarwyn,,52,,,4,,,,,,,,,,,,,,,
null,,confidence_buffer,1020048,confidence_buffer,,null,,,,,,,,,,,,,,,,,,
1338.1000000238419,,recognition_phase,1021387,Cedarwyn,,49,,,,,,old,1,0.8888888888888888,,,,,,,,,,
null,,confidence_buffer,1021490,confidence_buffer,,null,,,,,,,,,,,,,,,,,,
null,,thebreak,1021992,break,,null,,,,,,,,,,,,,,,,,,
3808.099999964237,,realistic_rating,1025802,Hollendale,,53,Hollendale,Fictional,5,,,,,,,,,,,,,,,
null,,confidence_buffer,1025904,confidence_buffer,,null,,,,,,,,,,,,,,,,,,
1859.5999999642372,,pt2_unique_rating,1027765,Hollendale,,50,,,2,,,,,,,,,,,,,,,
null,,confidence_buffer,1027867,confidence_buffer,,null,,,,,,,,,,,,,,,,,,
2156.2000000476837,,pt2_memorable_rating,1030024,Hollendale,,51,,,3,,,,,,,,,,,,,,,
null,,confidence_buffer,1030125,confidence_buffer,,null,,,,,,,,,,,,,,,,,,
1576.800000011921,,recognition_phase,1031703,Hollendale,,52,,,,,,new,1,0.8918918918918919,,,,,,,,,,
null,,confidence_buffer,1031805,confidence_buffer,,null,,,,,,,,,,,,,,,,,,
null,,thebreak,1032306,break,,null,,,,,,,,,,,,,,,,,,
3487.699999988079,,realistic_rating,1035795,Linden Trace,,52,Linden Trace,Fictional,4,,,,,,,,,,,,,,,
null,,confidence_buffer,1035898,confidence_buffer,,null,,,,,,,,,,,,,,,,,,
2211,,pt2_unique_rating,1038110,Linden Trace,,51,,,3,,,,,,,,,,,,,,,
null,,confidence_buffer,1038223,confidence_buffer,,null,,,,,,,,,,,,,,,,,,
2040.199999988079,,pt2_memorable_rating,1040265,Linden Trace,,51,,,3,,,,,,,,,,,,,,,
null,,confidence_buffer,1040368,confidence_buffer,,null,,,,,,,,,,,,,,,,,,
3185.300000011921,,recognition_phase,1043555,Linden Trace,,51,,,,,,new,1,0.8947368421052632,,,,,,,,,,
null,,confidence_buffer,1043657,confidence_buffer,,null,,,,,,,,,,,,,,,,,,
null,,thebreak,1044160,break,,null,,,,,,,,,,,,,,,,,,
1481.800000011921,,realistic_rating,1045644,Shreveport,,53,Shreveport,US,5,,,,,,,,,,,,,,,
null,,confidence_buffer,1045746,confidence_buffer,,null,,,,,,,,,,,,,,,,,,
1794.300000011921,,pt2_unique_rating,1047541,Shreveport,,51,,,3,,,,,,,,,,,,,,,
null,,confidence_buffer,1047643,confidence_buffer,,null,,,,,,,,,,,,,,,,,,
2181.5,,pt2_memorable_rating,1049826,Shreveport,,53,,,5,,,,,,,,,,,,,,,
null,,confidence_buffer,1049928,confidence_buffer,,null,,,,,,,,,,,,,,,,,,
1818.199999988079,,recognition_phase,1051748,Shreveport,,49,,,,,,old,1,0.8974358974358975,,,,,,,,,,
null,,confidence_buffer,1051849,confidence_buffer,,null,,,,,,,,,,,,,,,,,,
null,,thebreak,1052352,break,,null,,,,,,,,,,,,,,,,,,
3708.5,,realistic_rating,1056061,North Arroya,,52,North Arroya,Fictional,4,,,,,,,,,,,,,,,
null,,confidence_buffer,1056164,confidence_buffer,,null,,,,,,,,,,,,,,,,,,
1863.800000011921,,pt2_unique_rating,1058029,North Arroya,,51,,,3,,,,,,,,,,,,,,,
null,,confidence_buffer,1058131,confidence_buffer,,null,,,,,,,,,,,,,,,,,,
7964.899999976158,,pt2_memorable_rating,1066097,North Arroya,,51,,,3,,,,,,,,,,,,,,,
null,,confidence_buffer,1066199,confidence_buffer,,null,,,,,,,,,,,,,,,,,,
1222.8999999761581,,recognition_phase,1067424,North Arroya,,49,,,,,,old,1,0.9,,,,,,,,,,
null,,confidence_buffer,1067526,confidence_buffer,,null,,,,,,,,,,,,,,,,,,
null,,thebreak,1068028,break,,null,,,,,,,,,,,,,,,,,,
2082.400000035763,,realistic_rating,1070112,Lake of the Ozarks,,52,Lake of the Ozarks,US,4,,,,,,,,,,,,,,,
null,,confidence_buffer,1070213,confidence_buffer,,null,,,,,,,,,,,,,,,,,,
3246.300000011921,,pt2_unique_rating,1073461,Lake of the Ozarks,,51,,,3,,,,,,,,,,,,,,,
null,,confidence_buffer,1073562,confidence_buffer,,null,,,,,,,,,,,,,,,,,,
1878.199999988079,,pt2_memorable_rating,1075442,Lake of the Ozarks,,53,,,5,,,,,,,,,,,,,,,
null,,confidence_buffer,1075544,confidence_buffer,,null,,,,,,,,,,,,,,,,,,
2058.300000011921,,recognition_phase,1077603,Lake of the Ozarks,,49,,,,,,old,1,0.9024390243902439,,,,,,,,,,
null,,confidence_buffer,1077704,confidence_buffer,,null,,,,,,,,,,,,,,,,,,
null,,thebreak,1078205,break,,null,,,,,,,,,,,,,,,,,,
3008.899999976158,,realistic_rating,1081215,Delaro Park,,53,Delaro Park,Fictional,5,,,,,,,,,,,,,,,
null,,confidence_buffer,1081317,confidence_buffer,,null,,,,,,,,,,,,,,,,,,
3419.300000011921,,pt2_unique_rating,1084737,Delaro Park,,50,,,2,,,,,,,,,,,,,,,
null,,confidence_buffer,1084840,confidence_buffer,,null,,,,,,,,,,,,,,,,,,
1954.300000011921,,pt2_memorable_rating,1086795,Delaro Park,,51,,,3,,,,,,,,,,,,,,,
null,,confidence_buffer,1086898,confidence_buffer,,null,,,,,,,,,,,,,,,,,,
3032.800000011921,,recognition_phase,1089932,Delaro Park,,52,,,,,,new,1,0.9047619047619048,,,,,,,,,,
null,,confidence_buffer,1090033,confidence_buffer,,null,,,,,,,,,,,,,,,,,,
null,,thebreak,1090535,break,,null,,,,,,,,,,,,,,,,,,
4102.699999988079,,realistic_rating,1094639,Cape May,,52,Cape May,US,4,,,,,,,,,,,,,,,
null,,confidence_buffer,1094742,confidence_buffer,,null,,,,,,,,,,,,,,,,,,
1361.199999988079,,pt2_unique_rating,1096104,Cape May,,50,,,2,,,,,,,,,,,,,,,
null,,confidence_buffer,1096206,confidence_buffer,,null,,,,,,,,,,,,,,,,,,
1805.1000000238419,,pt2_memorable_rating,1098012,Cape May,,51,,,3,,,,,,,,,,,,,,,
null,,confidence_buffer,1098116,confidence_buffer,,null,,,,,,,,,,,,,,,,,,
2319.5,,recognition_phase,1100436,Cape May,,49,,,,,,old,1,0.9069767441860465,,,,,,,,,,
null,,confidence_buffer,1100539,confidence_buffer,,null,,,,,,,,,,,,,,,,,,
null,,thebreak,1101041,break,,null,,,,,,,,,,,,,,,,,,
6378.099999964237,,realistic_rating,1107421,Duck,,51,Duck,US,3,,,,,,,,,,,,,,,
null,,confidence_buffer,1107523,confidence_buffer,,null,,,,,,,,,,,,,,,,,,
2391.399999976158,,pt2_unique_rating,1109915,Duck,,52,,,4,,,,,,,,,,,,,,,
null,,confidence_buffer,1110017,confidence_buffer,,null,,,,,,,,,,,,,,,,,,
342.19999998807907,,probe_rating,1110360,probe_rating,,52,,,,4,0,,,,,,,,,,,,,
null,,confidence_buffer,1110463,confidence_buffer,,null,,,,,,,,,,,,,,,,,,
9600.300000011921,,pt2_memorable_rating,1120065,Duck,,53,,,5,,,,,,,,,,,,,,,
null,,confidence_buffer,1120168,confidence_buffer,,null,,,,,,,,,,,,,,,,,,
2390.800000011921,,recognition_phase,1122560,Duck,,49,,,,,,old,1,0.9090909090909091,,,,,,,,,,
null,,confidence_buffer,1122662,confidence_buffer,,null,,,,,,,,,,,,,,,,,,
null,,thebreak,1123164,break,,null,,,,,,,,,,,,,,,,,,
4183,,realistic_rating,1127348,Custer,,52,Custer,US,4,,,,,,,,,,,,,,,
null,,confidence_buffer,1127450,confidence_buffer,,null,,,,,,,,,,,,,,,,,,
2344.699999988079,,pt2_unique_rating,1129796,Custer,,52,,,4,,,,,,,,,,,,,,,
null,,confidence_buffer,1129898,confidence_buffer,,null,,,,,,,,,,,,,,,,,,
2188.699999988079,,pt2_memorable_rating,1132088,Custer,,52,,,4,,,,,,,,,,,,,,,
null,,confidence_buffer,1132191,confidence_buffer,,null,,,,,,,,,,,,,,,,,,
2558,,recognition_phase,1134750,Custer,,52,,,,,,new,1,0.9111111111111111,,,,,,,,,,
null,,confidence_buffer,1134852,confidence_buffer,,null,,,,,,,,,,,,,,,,,,
null,,thebreak,1135354,break,,null,,,,,,,,,,,,,,,,,,
1393.4000000357628,,realistic_rating,1136749,Bar Harbor,,53,Bar Harbor,US,5,,,,,,,,,,,,,,,
null,,confidence_buffer,1136851,confidence_buffer,,null,,,,,,,,,,,,,,,,,,
4202.799999952316,,pt2_unique_rating,1141055,Bar Harbor,,50,,,2,,,,,,,,,,,,,,,
null,,confidence_buffer,1141158,confidence_buffer,,null,,,,,,,,,,,,,,,,,,
2170.900000035763,,pt2_memorable_rating,1143330,Bar Harbor,,53,,,5,,,,,,,,,,,,,,,
null,,confidence_buffer,1143432,confidence_buffer,,null,,,,,,,,,,,,,,,,,,
1831.199999988079,,recognition_phase,1145264,Bar Harbor,,49,,,,,,old,1,0.9130434782608695,,,,,,,,,,
null,,confidence_buffer,1145367,confidence_buffer,,null,,,,,,,,,,,,,,,,,,
null,,thebreak,1145869,break,,null,,,,,,,,,,,,,,,,,,
2441.899999976158,,realistic_rating,1148312,Ironwood Heights,,52,Ironwood Heights,Fictional,4,,,,,,,,,,,,,,,
null,,confidence_buffer,1148414,confidence_buffer,,null,,,,,,,,,,,,,,,,,,
2576.800000011921,,pt2_unique_rating,1150991,Ironwood Heights,,50,,,2,,,,,,,,,,,,,,,
null,,confidence_buffer,1151093,confidence_buffer,,null,,,,,,,,,,,,,,,,,,
2488.099999964237,,pt2_memorable_rating,1153583,Ironwood Heights,,51,,,3,,,,,,,,,,,,,,,
null,,confidence_buffer,1153685,confidence_buffer,,null,,,,,,,,,,,,,,,,,,
2465.300000011921,,recognition_phase,1156152,Ironwood Heights,,50,,,,,,old,1,0.9148936170212766,,,,,,,,,,
null,,confidence_buffer,1156254,confidence_buffer,,null,,,,,,,,,,,,,,,,,,
null,,thebreak,1156756,break,,null,,,,,,,,,,,,,,,,,,
2584,,realistic_rating,1159341,Natchez,,52,Natchez,US,4,,,,,,,,,,,,,,,
null,,confidence_buffer,1159444,confidence_buffer,,null,,,,,,,,,,,,,,,,,,
2308.699999988079,,pt2_unique_rating,1161753,Natchez,,51,,,3,,,,,,,,,,,,,,,
null,,confidence_buffer,1161855,confidence_buffer,,null,,,,,,,,,,,,,,,,,,
1895.199999988079,,pt2_memorable_rating,1163752,Natchez,,52,,,4,,,,,,,,,,,,,,,
null,,confidence_buffer,1163854,confidence_buffer,,null,,,,,,,,,,,,,,,,,,
1497.1000000238419,,recognition_phase,1165352,Natchez,,52,,,,,,new,1,0.9166666666666666,,,,,,,,,,
null,,confidence_buffer,1165455,confidence_buffer,,null,,,,,,,,,,,,,,,,,,
null,,thebreak,1165957,break,,null,,,,,,,,,,,,,,,,,,
3489.699999988079,,realistic_rating,1169448,Lakehaven,,52,Lakehaven,Fictional,4,,,,,,,,,,,,,,,
null,,confidence_buffer,1169550,confidence_buffer,,null,,,,,,,,,,,,,,,,,,
2369.300000011921,,pt2_unique_rating,1171921,Lakehaven,,50,,,2,,,,,,,,,,,,,,,
null,,confidence_buffer,1172024,confidence_buffer,,null,,,,,,,,,,,,,,,,,,
1942.4000000357628,,pt2_memorable_rating,1173968,Lakehaven,,51,,,3,,,,,,,,,,,,,,,
null,,confidence_buffer,1174071,confidence_buffer,,null,,,,,,,,,,,,,,,,,,
3587.5,,recognition_phase,1177660,Lakehaven,,50,,,,,,old,1,0.9183673469387755,,,,,,,,,,
null,,confidence_buffer,1177761,confidence_buffer,,null,,,,,,,,,,,,,,,,,,
null,,thebreak,1178263,break,,null,,,,,,,,,,,,,,,,,,
2917.100000023842,,realistic_rating,1181181,Elmsbury,,52,Elmsbury,Fictional,4,,,,,,,,,,,,,,,
null,,confidence_buffer,1181288,confidence_buffer,,null,,,,,,,,,,,,,,,,,,
955.8999999761581,,pt2_unique_rating,1182245,Elmsbury,,50,,,2,,,,,,,,,,,,,,,
null,,confidence_buffer,1182347,confidence_buffer,,null,,,,,,,,,,,,,,,,,,
4116.600000023842,,pt2_memorable_rating,1186465,Elmsbury,,50,,,2,,,,,,,,,,,,,,,
null,,confidence_buffer,1186568,confidence_buffer,,null,,,,,,,,,,,,,,,,,,
3033.300000011921,,recognition_phase,1189602,Elmsbury,,50,,,,,,old,1,0.92,,,,,,,,,,
null,,confidence_buffer,1189704,confidence_buffer,,null,,,,,,,,,,,,,,,,,,
null,,thebreak,1190206,break,,null,,,,,,,,,,,,,,,,,,
5010.100000023842,,realistic_rating,1195218,Cody,,51,Cody,US,3,,,,,,,,,,,,,,,
null,,confidence_buffer,1195320,confidence_buffer,,null,,,,,,,,,,,,,,,,,,
4440.100000023842,,pt2_unique_rating,1199761,Cody,,52,,,4,,,,,,,,,,,,,,,
null,,confidence_buffer,1199863,confidence_buffer,,null,,,,,,,,,,,,,,,,,,
3375.099999964237,,pt2_memorable_rating,1203240,Cody,,52,,,4,,,,,,,,,,,,,,,
null,,confidence_buffer,1203341,confidence_buffer,,null,,,,,,,,,,,,,,,,,,
5213.199999988079,,recognition_phase,1208556,Cody,,52,,,,,,new,1,0.9215686274509803,,,,,,,,,,
null,,confidence_buffer,1208659,confidence_buffer,,null,,,,,,,,,,,,,,,,,,
null,,thebreak,1209161,break,,null,,,,,,,,,,,,,,,,,,
4196.600000023842,,realistic_rating,1213359,Solara Glen,,52,Solara Glen,Fictional,4,,,,,,,,,,,,,,,
null,,confidence_buffer,1213461,confidence_buffer,,null,,,,,,,,,,,,,,,,,,
3176.699999988079,,pt2_unique_rating,1216640,Solara Glen,,52,,,4,,,,,,,,,,,,,,,
null,,confidence_buffer,1216742,confidence_buffer,,null,,,,,,,,,,,,,,,,,,
1626.800000011921,,pt2_memorable_rating,1218370,Solara Glen,,51,,,3,,,,,,,,,,,,,,,
null,,confidence_buffer,1218472,confidence_buffer,,null,,,,,,,,,,,,,,,,,,
1826.300000011921,,recognition_phase,1220300,Solara Glen,,52,,,,,,new,1,0.9230769230769231,,,,,,,,,,
null,,confidence_buffer,1220402,confidence_buffer,,null,,,,,,,,,,,,,,,,,,
null,,thebreak,1220905,break,,null,,,,,,,,,,,,,,,,,,
3168.5,,realistic_rating,1224075,Sitka,,51,Sitka,US,3,,,,,,,,,,,,,,,
null,,confidence_buffer,1224176,confidence_buffer,,null,,,,,,,,,,,,,,,,,,
1595.300000011921,,pt2_unique_rating,1225773,Sitka,,52,,,4,,,,,,,,,,,,,,,
null,,confidence_buffer,1225876,confidence_buffer,,null,,,,,,,,,,,,,,,,,,
1872.0999999642372,,pt2_memorable_rating,1227749,Sitka,,52,,,4,,,,,,,,,,,,,,,
null,,confidence_buffer,1227852,confidence_buffer,,null,,,,,,,,,,,,,,,,,,
1929.5,,recognition_phase,1229783,Sitka,,49,,,,,,old,1,0.9245283018867925,,,,,,,,,,
null,,confidence_buffer,1229885,confidence_buffer,,null,,,,,,,,,,,,,,,,,,
null,,thebreak,1230388,break,,null,,,,,,,,,,,,,,,,,,
3017.800000011921,,realistic_rating,1233407,Berkeley Springs,,52,Berkeley Springs,US,4,,,,,,,,,,,,,,,
null,,confidence_buffer,1233508,confidence_buffer,,null,,,,,,,,,,,,,,,,,,
1987.699999988079,,pt2_unique_rating,1235497,Berkeley Springs,,50,,,2,,,,,,,,,,,,,,,
null,,confidence_buffer,1235600,confidence_buffer,,null,,,,,,,,,,,,,,,,,,
1898.800000011921,,pt2_memorable_rating,1237499,Berkeley Springs,,51,,,3,,,,,,,,,,,,,,,
null,,confidence_buffer,1237602,confidence_buffer,,null,,,,,,,,,,,,,,,,,,
2679.399999976158,,recognition_phase,1240283,Berkeley Springs,,49,,,,,,old,0,0.9074074074074074,,,,,,,,,,
null,,confidence_buffer,1240385,confidence_buffer,,null,,,,,,,,,,,,,,,,,,
null,,thebreak,1240886,break,,null,,,,,,,,,,,,,,,,,,
37137,,realistic_rating,1278025,Bowling Green,,53,Bowling Green,US,5,,,,,,,,,,,,,,,
null,,confidence_buffer,1278127,confidence_buffer,,null,,,,,,,,,,,,,,,,,,
2813.400000035763,,pt2_unique_rating,1280942,Bowling Green,,52,,,4,,,,,,,,,,,,,,,
null,,confidence_buffer,1281044,confidence_buffer,,null,,,,,,,,,,,,,,,,,,
1737.1000000238419,,pt2_memorable_rating,1282783,Bowling Green,,53,,,5,,,,,,,,,,,,,,,
null,,confidence_buffer,1282886,confidence_buffer,,null,,,,,,,,,,,,,,,,,,
2673.800000011921,,recognition_phase,1285561,Bowling Green,,52,,,,,,new,1,0.9090909090909091,,,,,,,,,,
null,,confidence_buffer,1285664,confidence_buffer,,null,,,,,,,,,,,,,,,,,,
null,,thebreak,1286165,break,,null,,,,,,,,,,,,,,,,,,
3568.400000035763,,realistic_rating,1289735,Orr,,52,Orr,US,4,,,,,,,,,,,,,,,
null,,confidence_buffer,1289838,confidence_buffer,,null,,,,,,,,,,,,,,,,,,
2337.099999964237,,pt2_unique_rating,1292177,Orr,,51,,,3,,,,,,,,,,,,,,,
null,,confidence_buffer,1292279,confidence_buffer,,null,,,,,,,,,,,,,,,,,,
1588,,pt2_memorable_rating,1293869,Orr,,51,,,3,,,,,,,,,,,,,,,
null,,confidence_buffer,1293972,confidence_buffer,,null,,,,,,,,,,,,,,,,,,
1867.199999988079,,recognition_phase,1295840,Orr,,52,,,,,,new,1,0.9107142857142857,,,,,,,,,,
null,,confidence_buffer,1295942,confidence_buffer,,null,,,,,,,,,,,,,,,,,,
null,,thebreak,1296445,break,,null,,,,,,,,,,,,,,,,,,
3134.699999988079,,realistic_rating,1299581,Granton Ridge,,52,Granton Ridge,Fictional,4,,,,,,,,,,,,,,,
null,,confidence_buffer,1299683,confidence_buffer,,null,,,,,,,,,,,,,,,,,,
2401.100000023842,,pt2_unique_rating,1302085,Granton Ridge,,51,,,3,,,,,,,,,,,,,,,
null,,confidence_buffer,1302187,confidence_buffer,,null,,,,,,,,,,,,,,,,,,
2622.399999976158,,pt2_memorable_rating,1304810,Granton Ridge,,52,,,4,,,,,,,,,,,,,,,
null,,confidence_buffer,1304913,confidence_buffer,,null,,,,,,,,,,,,,,,,,,
1969.3999999761581,,recognition_phase,1306884,Granton Ridge,,52,,,,,,new,1,0.9122807017543859,,,,,,,,,,
null,,confidence_buffer,1306986,confidence_buffer,,null,,,,,,,,,,,,,,,,,,
null,,thebreak,1307488,break,,null,,,,,,,,,,,,,,,,,,
3906,,realistic_rating,1311396,Hawthorne Bluffs,,51,Hawthorne Bluffs,Fictional,3,,,,,,,,,,,,,,,
null,,confidence_buffer,1311498,confidence_buffer,,null,,,,,,,,,,,,,,,,,,
1467.1000000238419,,probe_rating,1312967,probe_rating,,49,,,,1,1,,,,,,,,,,,,,
null,,confidence_buffer,1313069,confidence_buffer,,null,,,,,,,,,,,,,,,,,,
6335.400000035763,,pt2_unique_rating,1319406,Hawthorne Bluffs,,50,,,2,,,,,,,,,,,,,,,
null,,confidence_buffer,1319509,confidence_buffer,,null,,,,,,,,,,,,,,,,,,
4734.299999952316,,pt2_memorable_rating,1324244,Hawthorne Bluffs,,49,,,1,,,,,,,,,,,,,,,
null,,confidence_buffer,1324349,confidence_buffer,,null,,,,,,,,,,,,,,,,,,
3400.400000035763,,recognition_phase,1327751,Hawthorne Bluffs,,52,,,,,,new,1,0.9137931034482759,,,,,,,,,,
null,,confidence_buffer,1327853,confidence_buffer,,null,,,,,,,,,,,,,,,,,,
null,,thebreak,1328356,break,,null,,,,,,,,,,,,,,,,,,
3735.699999988079,,realistic_rating,1332093,Claywater,,52,Claywater,Fictional,4,,,,,,,,,,,,,,,
null,,confidence_buffer,1332195,confidence_buffer,,null,,,,,,,,,,,,,,,,,,
2217.5,,pt2_unique_rating,1334414,Claywater,,50,,,2,,,,,,,,,,,,,,,
null,,confidence_buffer,1334521,confidence_buffer,,null,,,,,,,,,,,,,,,,,,
1788.1000000238419,,pt2_memorable_rating,1336311,Claywater,,51,,,3,,,,,,,,,,,,,,,
null,,confidence_buffer,1336413,confidence_buffer,,null,,,,,,,,,,,,,,,,,,
2504.300000011921,,recognition_phase,1338919,Claywater,,52,,,,,,new,1,0.9152542372881356,,,,,,,,,,
null,,confidence_buffer,1339022,confidence_buffer,,null,,,,,,,,,,,,,,,,,,
null,,thebreak,1339523,break,,null,,,,,,,,,,,,,,,,,,
4130.100000023842,,realistic_rating,1343655,Tamarisk Hills,,51,Tamarisk Hills,Fictional,3,,,,,,,,,,,,,,,
null,,confidence_buffer,1343758,confidence_buffer,,null,,,,,,,,,,,,,,,,,,
1788.5,,pt2_unique_rating,1345548,Tamarisk Hills,,52,,,4,,,,,,,,,,,,,,,
null,,confidence_buffer,1345650,confidence_buffer,,null,,,,,,,,,,,,,,,,,,
1525.0999999642372,,pt2_memorable_rating,1347176,Tamarisk Hills,,52,,,4,,,,,,,,,,,,,,,
null,,confidence_buffer,1347280,confidence_buffer,,null,,,,,,,,,,,,,,,,,,
1490.300000011921,,probe_rating,1348771,probe_rating,,49,,,,1,1,,,,,,,,,,,,,
null,,confidence_buffer,1348875,confidence_buffer,,null,,,,,,,,,,,,,,,,,,
5839.199999988079,,recognition_phase,1354715,Tamarisk Hills,,50,,,,,,old,1,0.9166666666666666,,,,,,,,,,
null,,confidence_buffer,1354817,confidence_buffer,,null,,,,,,,,,,,,,,,,,,
null,,thebreak,1355319,break,,null,,,,,,,,,,,,,,,,,,
,,survey,1848677,survey-questions,,,,,,,,,,,none,high,I was not doing anything else,I didn't really use any strategies. ,There were no images in this study, I don't understand what is being asked here,There were no images in this study, I don't understand what is being asked here,There were no images in this study, I don't understand what is being asked here,There were no images in this study, I don't understand what is being asked here,I have never participated in anything similar to this study.,There were 3 specific times I answered incorrectly and realized right after. First time was Delaware City... I chose 1 on the scale. I do not remember now what that scale was for or what I meant to choose instead (I think probably 4). I know for certain I did not mean to choose 1 though.

The second time was an attention check, I think it said press 1 and I accidentally tapped 4 because my finger was still on it from the previous question.

3rd one was about the city just before it asked about Bowling Green... now i don't remember what I answered or what I meant to answer I just know I chose the incorrect number for that question as well
