rt,responses,trial_type,time_elapsed,stimulus,button_pressed,key_press,name_trial,city_type,rating,probe,probe_accuracy,response,correct,accuracy,problems,smooth,distraction,strategies,familiar,memorable,unique,realistic,similar,comments
10132,{worker_id:5e27107888daaf016b0daada},id_enter,10135,,,,,,,,,,,,,,,,,,,,,
23994.80000001192,,fullscreen,34134,fullscreen,0,,,,,,,,,,,,,,,,,,,
12598.400000035763,,intro_0,46734,instruct,,32,,,,,,,,,,,,,,,,,,
11134.599999964237,,intro_1,57870,instruct,,32,,,,,,,,,,,,,,,,,,
8166.400000035763,,intro_2,66038,instruct,,32,,,,,,,,,,,,,,,,,,
null,,instruct_dir_4,67540,instruct,,null,,,,,,,,,,,,,,,,,,
null,,thebreak,68041,break,,null,,,,,,,,,,,,,,,,,,
8283.399999976158,,familiar_rating,76326,Bisbee,,49,Bisbee,US,1,,,,,,,,,,,,,,,
null,,confidence_buffer,76429,confidence_buffer,,null,,,,,,,,,,,,,,,,,,
7343.800000011921,,unique_rating,83774,Bisbee,,51,,,3,,,,,,,,,,,,,,,
null,,confidence_buffer,83876,confidence_buffer,,null,,,,,,,,,,,,,,,,,,
5401.399999976158,,memorable_rating,89278,Bisbee,,52,,,4,,,,,,,,,,,,,,,
null,,confidence_buffer,89380,confidence_buffer,,null,,,,,,,,,,,,,,,,,,
null,,thebreak,89883,break,,null,,,,,,,,,,,,,,,,,,
6058.099999964237,,familiar_rating,95942,Sunmere,,49,Sunmere,Fictional,1,,,,,,,,,,,,,,,
null,,confidence_buffer,96044,confidence_buffer,,null,,,,,,,,,,,,,,,,,,
4184.800000011921,,unique_rating,100230,Sunmere,,50,,,2,,,,,,,,,,,,,,,
null,,confidence_buffer,100332,confidence_buffer,,null,,,,,,,,,,,,,,,,,,
2129,,memorable_rating,102462,Sunmere,,50,,,2,,,,,,,,,,,,,,,
null,,confidence_buffer,102563,confidence_buffer,,null,,,,,,,,,,,,,,,,,,
null,,thebreak,103065,break,,null,,,,,,,,,,,,,,,,,,
5700.599999964237,,familiar_rating,108767,New Verdan,,49,New Verdan,Fictional,1,,,,,,,,,,,,,,,
null,,confidence_buffer,108868,confidence_buffer,,null,,,,,,,,,,,,,,,,,,
3096.800000011921,,unique_rating,111966,New Verdan,,50,,,2,,,,,,,,,,,,,,,
null,,confidence_buffer,112067,confidence_buffer,,null,,,,,,,,,,,,,,,,,,
2121.100000023842,,memorable_rating,114189,New Verdan,,50,,,2,,,,,,,,,,,,,,,
null,,confidence_buffer,114291,confidence_buffer,,null,,,,,,,,,,,,,,,,,,
null,,thebreak,114793,break,,null,,,,,,,,,,,,,,,,,,
4227.199999988079,,familiar_rating,119022,Coeur d'Alene,,49,Coeur d'Alene,US,1,,,,,,,,,,,,,,,
null,,confidence_buffer,119123,confidence_buffer,,null,,,,,,,,,,,,,,,,,,
3761.300000011921,,unique_rating,122886,Coeur d'Alene,,53,,,5,,,,,,,,,,,,,,,
null,,confidence_buffer,122988,confidence_buffer,,null,,,,,,,,,,,,,,,,,,
5592.299999952316,,memorable_rating,128582,Coeur d'Alene,,52,,,4,,,,,,,,,,,,,,,
null,,confidence_buffer,128684,confidence_buffer,,null,,,,,,,,,,,,,,,,,,
null,,thebreak,129186,break,,null,,,,,,,,,,,,,,,,,,
6547,,familiar_rating,135734,Oakridge,,52,Oakridge,Fictional,4,,,,,,,,,,,,,,,
null,,confidence_buffer,135836,confidence_buffer,,null,,,,,,,,,,,,,,,,,,
3688.899999976158,,unique_rating,139526,Oakridge,,49,,,1,,,,,,,,,,,,,,,
null,,confidence_buffer,139628,confidence_buffer,,null,,,,,,,,,,,,,,,,,,
3800.300000011921,,memorable_rating,143429,Oakridge,,50,,,2,,,,,,,,,,,,,,,
null,,confidence_buffer,143541,confidence_buffer,,null,,,,,,,,,,,,,,,,,,
null,,thebreak,144055,break,,null,,,,,,,,,,,,,,,,,,
10197.300000011921,,familiar_rating,154254,Delaware City,,49,Delaware City,US,1,,,,,,,,,,,,,,,
null,,confidence_buffer,154356,confidence_buffer,,null,,,,,,,,,,,,,,,,,,
4576.5,,probe_rating,158933,probe_rating,,50,,,,2,1,,,,,,,,,,,,,
null,,confidence_buffer,159036,confidence_buffer,,null,,,,,,,,,,,,,,,,,,
5431.800000011921,,unique_rating,164469,Delaware City,,49,,,1,,,,,,,,,,,,,,,
null,,confidence_buffer,164570,confidence_buffer,,null,,,,,,,,,,,,,,,,,,
4122,,memorable_rating,168693,Delaware City,,50,,,2,,,,,,,,,,,,,,,
null,,confidence_buffer,168795,confidence_buffer,,null,,,,,,,,,,,,,,,,,,
null,,thebreak,169296,break,,null,,,,,,,,,,,,,,,,,,
3606.800000011921,,familiar_rating,172903,Lake of the Ozarks,,50,Lake of the Ozarks,US,2,,,,,,,,,,,,,,,
null,,confidence_buffer,173006,confidence_buffer,,null,,,,,,,,,,,,,,,,,,
4064.600000023842,,unique_rating,177072,Lake of the Ozarks,,51,,,3,,,,,,,,,,,,,,,
null,,confidence_buffer,177172,confidence_buffer,,null,,,,,,,,,,,,,,,,,,
3136.099999964237,,memorable_rating,180309,Lake of the Ozarks,,51,,,3,,,,,,,,,,,,,,,
null,,confidence_buffer,180411,confidence_buffer,,null,,,,,,,,,,,,,,,,,,
null,,thebreak,180912,break,,null,,,,,,,,,,,,,,,,,,
6708.799999952316,,familiar_rating,187622,Carmel,,51,Carmel,US,3,,,,,,,,,,,,,,,
null,,confidence_buffer,187724,confidence_buffer,,null,,,,,,,,,,,,,,,,,,
4288.400000035763,,unique_rating,192013,Carmel,,52,,,4,,,,,,,,,,,,,,,
null,,confidence_buffer,192115,confidence_buffer,,null,,,,,,,,,,,,,,,,,,
1825.0999999642372,,memorable_rating,193942,Carmel,,52,,,4,,,,,,,,,,,,,,,
null,,confidence_buffer,194043,confidence_buffer,,null,,,,,,,,,,,,,,,,,,
null,,thebreak,194545,break,,null,,,,,,,,,,,,,,,,,,
3915.800000011921,,familiar_rating,198462,Summershade,,49,Summershade,Fictional,1,,,,,,,,,,,,,,,
null,,confidence_buffer,198565,confidence_buffer,,null,,,,,,,,,,,,,,,,,,
3247.7999999523163,,unique_rating,201813,Summershade,,51,,,3,,,,,,,,,,,,,,,
null,,confidence_buffer,201914,confidence_buffer,,null,,,,,,,,,,,,,,,,,,
2794.600000023842,,memorable_rating,204709,Summershade,,51,,,3,,,,,,,,,,,,,,,
null,,confidence_buffer,204811,confidence_buffer,,null,,,,,,,,,,,,,,,,,,
null,,thebreak,205312,break,,null,,,,,,,,,,,,,,,,,,
7004,,familiar_rating,212317,Hot Springs,,50,Hot Springs,US,2,,,,,,,,,,,,,,,
null,,confidence_buffer,212419,confidence_buffer,,null,,,,,,,,,,,,,,,,,,
1875,,unique_rating,214295,Hot Springs,,51,,,3,,,,,,,,,,,,,,,
null,,confidence_buffer,214396,confidence_buffer,,null,,,,,,,,,,,,,,,,,,
4055.699999988079,,memorable_rating,218453,Hot Springs,,51,,,3,,,,,,,,,,,,,,,
null,,confidence_buffer,218555,confidence_buffer,,null,,,,,,,,,,,,,,,,,,
null,,thebreak,219056,break,,null,,,,,,,,,,,,,,,,,,
3476.800000011921,,familiar_rating,222534,Cape May,,49,Cape May,US,1,,,,,,,,,,,,,,,
null,,confidence_buffer,222635,confidence_buffer,,null,,,,,,,,,,,,,,,,,,
3313.599999964237,,unique_rating,225949,Cape May,,51,,,3,,,,,,,,,,,,,,,
null,,confidence_buffer,226051,confidence_buffer,,null,,,,,,,,,,,,,,,,,,
4305.100000023842,,memorable_rating,230357,Cape May,,50,,,2,,,,,,,,,,,,,,,
null,,confidence_buffer,230459,confidence_buffer,,null,,,,,,,,,,,,,,,,,,
null,,thebreak,230960,break,,null,,,,,,,,,,,,,,,,,,
4204.899999976158,,familiar_rating,235166,West Palm Beach,,53,West Palm Beach,US,5,,,,,,,,,,,,,,,
null,,confidence_buffer,235267,confidence_buffer,,null,,,,,,,,,,,,,,,,,,
7465.099999964237,,unique_rating,242733,West Palm Beach,,50,,,2,,,,,,,,,,,,,,,
null,,confidence_buffer,242835,confidence_buffer,,null,,,,,,,,,,,,,,,,,,
2665.5,,memorable_rating,245502,West Palm Beach,,50,,,2,,,,,,,,,,,,,,,
null,,confidence_buffer,245605,confidence_buffer,,null,,,,,,,,,,,,,,,,,,
null,,thebreak,246106,break,,null,,,,,,,,,,,,,,,,,,
4922.399999976158,,familiar_rating,251029,Coralridge,,49,Coralridge,Fictional,1,,,,,,,,,,,,,,,
null,,confidence_buffer,251131,confidence_buffer,,null,,,,,,,,,,,,,,,,,,
3193.300000011921,,unique_rating,254325,Coralridge,,51,,,3,,,,,,,,,,,,,,,
null,,confidence_buffer,254427,confidence_buffer,,null,,,,,,,,,,,,,,,,,,
5065.300000011921,,memorable_rating,259494,Coralridge,,51,,,3,,,,,,,,,,,,,,,
null,,confidence_buffer,259595,confidence_buffer,,null,,,,,,,,,,,,,,,,,,
null,,thebreak,260097,break,,null,,,,,,,,,,,,,,,,,,
5250.800000011921,,familiar_rating,265349,Livingston,,51,Livingston,US,3,,,,,,,,,,,,,,,
null,,confidence_buffer,265451,confidence_buffer,,null,,,,,,,,,,,,,,,,,,
3505.5,,unique_rating,268957,Livingston,,49,,,1,,,,,,,,,,,,,,,
null,,confidence_buffer,269059,confidence_buffer,,null,,,,,,,,,,,,,,,,,,
3681.699999988079,,memorable_rating,272742,Livingston,,49,,,1,,,,,,,,,,,,,,,
null,,confidence_buffer,272844,confidence_buffer,,null,,,,,,,,,,,,,,,,,,
null,,thebreak,273345,break,,null,,,,,,,,,,,,,,,,,,
3811.800000011921,,familiar_rating,277158,Okoboji,,49,Okoboji,US,1,,,,,,,,,,,,,,,
null,,confidence_buffer,277259,confidence_buffer,,null,,,,,,,,,,,,,,,,,,
2953.100000023842,,unique_rating,280213,Okoboji,,53,,,5,,,,,,,,,,,,,,,
null,,confidence_buffer,280315,confidence_buffer,,null,,,,,,,,,,,,,,,,,,
4418.099999964237,,memorable_rating,284734,Okoboji,,53,,,5,,,,,,,,,,,,,,,
null,,confidence_buffer,284835,confidence_buffer,,null,,,,,,,,,,,,,,,,,,
null,,thebreak,285337,break,,null,,,,,,,,,,,,,,,,,,
3851.300000011921,,familiar_rating,289189,Ironwood Heights,,50,Ironwood Heights,Fictional,2,,,,,,,,,,,,,,,
null,,confidence_buffer,289291,confidence_buffer,,null,,,,,,,,,,,,,,,,,,
6953.5,,unique_rating,296245,Ironwood Heights,,50,,,2,,,,,,,,,,,,,,,
null,,confidence_buffer,296346,confidence_buffer,,null,,,,,,,,,,,,,,,,,,
5513.199999988079,,probe_rating,301861,probe_rating,,53,,,,5,1,,,,,,,,,,,,,
null,,confidence_buffer,301964,confidence_buffer,,null,,,,,,,,,,,,,,,,,,
3991.7000000476837,,memorable_rating,305956,Ironwood Heights,,50,,,2,,,,,,,,,,,,,,,
null,,confidence_buffer,306059,confidence_buffer,,null,,,,,,,,,,,,,,,,,,
null,,thebreak,306561,break,,null,,,,,,,,,,,,,,,,,,
6698.699999988079,,familiar_rating,313261,Gatlinburg,,52,Gatlinburg,US,4,,,,,,,,,,,,,,,
null,,confidence_buffer,313363,confidence_buffer,,null,,,,,,,,,,,,,,,,,,
5383.600000023842,,unique_rating,318748,Gatlinburg,,51,,,3,,,,,,,,,,,,,,,
null,,confidence_buffer,318849,confidence_buffer,,null,,,,,,,,,,,,,,,,,,
2721.7999999523163,,memorable_rating,321572,Gatlinburg,,51,,,3,,,,,,,,,,,,,,,
null,,confidence_buffer,321685,confidence_buffer,,null,,,,,,,,,,,,,,,,,,
3254.199999988079,,probe_rating,324940,probe_rating,,50,,,,2,1,,,,,,,,,,,,,
null,,confidence_buffer,325042,confidence_buffer,,null,,,,,,,,,,,,,,,,,,
null,,thebreak,325543,break,,null,,,,,,,,,,,,,,,,,,
4492.199999988079,,familiar_rating,330036,East Ladera,,49,East Ladera,Fictional,1,,,,,,,,,,,,,,,
null,,confidence_buffer,330138,confidence_buffer,,null,,,,,,,,,,,,,,,,,,
4297.5,,unique_rating,334437,East Ladera,,52,,,4,,,,,,,,,,,,,,,
null,,confidence_buffer,334539,confidence_buffer,,null,,,,,,,,,,,,,,,,,,
2330.899999976158,,memorable_rating,336871,East Ladera,,52,,,4,,,,,,,,,,,,,,,
null,,confidence_buffer,336972,confidence_buffer,,null,,,,,,,,,,,,,,,,,,
null,,thebreak,337475,break,,null,,,,,,,,,,,,,,,,,,
3928.599999964237,,familiar_rating,341405,Park City,,50,Park City,US,2,,,,,,,,,,,,,,,
null,,confidence_buffer,341507,confidence_buffer,,null,,,,,,,,,,,,,,,,,,
2657.100000023842,,unique_rating,344165,Park City,,49,,,1,,,,,,,,,,,,,,,
null,,confidence_buffer,344267,confidence_buffer,,null,,,,,,,,,,,,,,,,,,
3793.199999988079,,memorable_rating,348061,Park City,,49,,,1,,,,,,,,,,,,,,,
null,,confidence_buffer,348164,confidence_buffer,,null,,,,,,,,,,,,,,,,,,
3384.800000011921,,probe_rating,351549,probe_rating,,53,,,,5,1,,,,,,,,,,,,,
null,,confidence_buffer,351651,confidence_buffer,,null,,,,,,,,,,,,,,,,,,
null,,thebreak,352152,break,,null,,,,,,,,,,,,,,,,,,
3571.400000035763,,familiar_rating,355725,West Talora,,49,West Talora,Fictional,1,,,,,,,,,,,,,,,
null,,confidence_buffer,355828,confidence_buffer,,null,,,,,,,,,,,,,,,,,,
5145.099999964237,,unique_rating,360974,West Talora,,52,,,4,,,,,,,,,,,,,,,
null,,confidence_buffer,361075,confidence_buffer,,null,,,,,,,,,,,,,,,,,,
2784.699999988079,,memorable_rating,363861,West Talora,,52,,,4,,,,,,,,,,,,,,,
null,,confidence_buffer,363964,confidence_buffer,,null,,,,,,,,,,,,,,,,,,
null,,thebreak,364465,break,,null,,,,,,,,,,,,,,,,,,
5818.599999964237,,familiar_rating,370285,Sitka,,52,Sitka,US,4,,,,,,,,,,,,,,,
null,,confidence_buffer,370386,confidence_buffer,,null,,,,,,,,,,,,,,,,,,
5249.400000035763,,unique_rating,375637,Sitka,,52,,,4,,,,,,,,,,,,,,,
null,,confidence_buffer,375739,confidence_buffer,,null,,,,,,,,,,,,,,,,,,
3281,,memorable_rating,379021,Sitka,,52,,,4,,,,,,,,,,,,,,,
null,,confidence_buffer,379123,confidence_buffer,,null,,,,,,,,,,,,,,,,,,
null,,thebreak,379625,break,,null,,,,,,,,,,,,,,,,,,
6955.599999964237,,familiar_rating,386581,Sierra Hollow,,50,Sierra Hollow,Fictional,2,,,,,,,,,,,,,,,
null,,confidence_buffer,386684,confidence_buffer,,null,,,,,,,,,,,,,,,,,,
4464.399999976158,,unique_rating,391149,Sierra Hollow,,51,,,3,,,,,,,,,,,,,,,
null,,confidence_buffer,391259,confidence_buffer,,null,,,,,,,,,,,,,,,,,,
1440.9000000357628,,memorable_rating,392701,Sierra Hollow,,51,,,3,,,,,,,,,,,,,,,
null,,confidence_buffer,392802,confidence_buffer,,null,,,,,,,,,,,,,,,,,,
null,,thebreak,393312,break,,null,,,,,,,,,,,,,,,,,,
4723.599999964237,,familiar_rating,398037,Ashford Hills,,50,Ashford Hills,Fictional,2,,,,,,,,,,,,,,,
null,,confidence_buffer,398139,confidence_buffer,,null,,,,,,,,,,,,,,,,,,
4680.699999988079,,unique_rating,402821,Ashford Hills,,49,,,1,,,,,,,,,,,,,,,
null,,confidence_buffer,402924,confidence_buffer,,null,,,,,,,,,,,,,,,,,,
4696.099999964237,,memorable_rating,407621,Ashford Hills,,49,,,1,,,,,,,,,,,,,,,
null,,confidence_buffer,407724,confidence_buffer,,null,,,,,,,,,,,,,,,,,,
null,,thebreak,408225,break,,null,,,,,,,,,,,,,,,,,,
5699.099999964237,,familiar_rating,413925,Maplehurst,,49,Maplehurst,Fictional,1,,,,,,,,,,,,,,,
null,,confidence_buffer,414026,confidence_buffer,,null,,,,,,,,,,,,,,,,,,
2985.100000023842,,unique_rating,417013,Maplehurst,,50,,,2,,,,,,,,,,,,,,,
null,,confidence_buffer,417114,confidence_buffer,,null,,,,,,,,,,,,,,,,,,
2353.600000023842,,memorable_rating,419469,Maplehurst,,50,,,2,,,,,,,,,,,,,,,
null,,confidence_buffer,419570,confidence_buffer,,null,,,,,,,,,,,,,,,,,,
null,,thebreak,420073,break,,null,,,,,,,,,,,,,,,,,,
5342.400000035763,,familiar_rating,425417,Gloucester,,51,Gloucester,US,3,,,,,,,,,,,,,,,
null,,confidence_buffer,425519,confidence_buffer,,null,,,,,,,,,,,,,,,,,,
3092.5,,unique_rating,428612,Gloucester,,52,,,4,,,,,,,,,,,,,,,
null,,confidence_buffer,428714,confidence_buffer,,null,,,,,,,,,,,,,,,,,,
1681.199999988079,,memorable_rating,430397,Gloucester,,52,,,4,,,,,,,,,,,,,,,
null,,confidence_buffer,430498,confidence_buffer,,null,,,,,,,,,,,,,,,,,,
null,,thebreak,430999,break,,null,,,,,,,,,,,,,,,,,,
3637.100000023842,,familiar_rating,434637,Ravenport,,49,Ravenport,Fictional,1,,,,,,,,,,,,,,,
null,,confidence_buffer,434738,confidence_buffer,,null,,,,,,,,,,,,,,,,,,
3816.699999988079,,unique_rating,438556,Ravenport,,51,,,3,,,,,,,,,,,,,,,
null,,confidence_buffer,438658,confidence_buffer,,null,,,,,,,,,,,,,,,,,,
2225.5,,memorable_rating,440884,Ravenport,,50,,,2,,,,,,,,,,,,,,,
null,,confidence_buffer,440986,confidence_buffer,,null,,,,,,,,,,,,,,,,,,
null,,thebreak,441488,break,,null,,,,,,,,,,,,,,,,,,
2674.900000035763,,familiar_rating,444165,Orr,,49,Orr,US,1,,,,,,,,,,,,,,,
null,,confidence_buffer,444267,confidence_buffer,,null,,,,,,,,,,,,,,,,,,
2760.199999988079,,unique_rating,447028,Orr,,52,,,4,,,,,,,,,,,,,,,
null,,confidence_buffer,447130,confidence_buffer,,null,,,,,,,,,,,,,,,,,,
2330.199999988079,,memorable_rating,449461,Orr,,51,,,3,,,,,,,,,,,,,,,
null,,confidence_buffer,449564,confidence_buffer,,null,,,,,,,,,,,,,,,,,,
3527.600000023842,,probe_rating,453092,probe_rating,,51,,,,3,1,,,,,,,,,,,,,
null,,confidence_buffer,453194,confidence_buffer,,null,,,,,,,,,,,,,,,,,,
null,,thebreak,453696,break,,null,,,,,,,,,,,,,,,,,,
3643.5,,familiar_rating,457341,Briarfield,,50,Briarfield,Fictional,2,,,,,,,,,,,,,,,
null,,confidence_buffer,457442,confidence_buffer,,null,,,,,,,,,,,,,,,,,,
3104.800000011921,,unique_rating,460548,Briarfield,,50,,,2,,,,,,,,,,,,,,,
null,,confidence_buffer,460650,confidence_buffer,,null,,,,,,,,,,,,,,,,,,
2065.199999988079,,memorable_rating,462717,Briarfield,,50,,,2,,,,,,,,,,,,,,,
null,,confidence_buffer,462819,confidence_buffer,,null,,,,,,,,,,,,,,,,,,
null,,thebreak,463320,break,,null,,,,,,,,,,,,,,,,,,
3067.699999988079,,familiar_rating,466389,Willowford,,50,Willowford,Fictional,2,,,,,,,,,,,,,,,
null,,confidence_buffer,466497,confidence_buffer,,null,,,,,,,,,,,,,,,,,,
3482.600000023842,,unique_rating,469981,Willowford,,50,,,2,,,,,,,,,,,,,,,
null,,confidence_buffer,470083,confidence_buffer,,null,,,,,,,,,,,,,,,,,,
2368.600000023842,,memorable_rating,472453,Willowford,,50,,,2,,,,,,,,,,,,,,,
null,,confidence_buffer,472554,confidence_buffer,,null,,,,,,,,,,,,,,,,,,
null,,thebreak,473057,break,,null,,,,,,,,,,,,,,,,,,
4426.399999976158,,familiar_rating,477484,Hollendale,,49,Hollendale,Fictional,1,,,,,,,,,,,,,,,
null,,confidence_buffer,477587,confidence_buffer,,null,,,,,,,,,,,,,,,,,,
3872.199999988079,,unique_rating,481461,Hollendale,,51,,,3,,,,,,,,,,,,,,,
null,,confidence_buffer,481563,confidence_buffer,,null,,,,,,,,,,,,,,,,,,
2226,,memorable_rating,483790,Hollendale,,51,,,3,,,,,,,,,,,,,,,
null,,confidence_buffer,483891,confidence_buffer,,null,,,,,,,,,,,,,,,,,,
null,,thebreak,484393,break,,null,,,,,,,,,,,,,,,,,,
7618.100000023842,,intro_0,492012,instruct,,32,,,,,,,,,,,,,,,,,,
10430.699999988079,,intro_1,502444,instruct,,32,,,,,,,,,,,,,,,,,,
31991.30000001192,,intro_2,534436,instruct,,32,,,,,,,,,,,,,,,,,,
null,,instruct_dir_4,535938,instruct,,null,,,,,,,,,,,,,,,,,,
7208.5,,realistic_rating,543148,Duck,,49,Duck,US,1,,,,,,,,,,,,,,,
null,,confidence_buffer,543251,confidence_buffer,,null,,,,,,,,,,,,,,,,,,
4296.5,,pt2_unique_rating,547548,Duck,,52,,,4,,,,,,,,,,,,,,,
null,,confidence_buffer,547650,confidence_buffer,,null,,,,,,,,,,,,,,,,,,
2665.100000023842,,pt2_memorable_rating,550316,Duck,,53,,,5,,,,,,,,,,,,,,,
null,,confidence_buffer,550418,confidence_buffer,,null,,,,,,,,,,,,,,,,,,
4864.700000047684,,recognition_phase,555284,Duck,,52,,,,,,new,1,1,,,,,,,,,,
null,,confidence_buffer,555387,confidence_buffer,,null,,,,,,,,,,,,,,,,,,
null,,thebreak,555888,break,,null,,,,,,,,,,,,,,,,,,
7595.399999976158,,realistic_rating,563484,Sammamish,,49,Sammamish,US,1,,,,,,,,,,,,,,,
null,,confidence_buffer,563586,confidence_buffer,,null,,,,,,,,,,,,,,,,,,
3161.5,,pt2_unique_rating,566748,Sammamish,,53,,,5,,,,,,,,,,,,,,,
null,,confidence_buffer,566850,confidence_buffer,,null,,,,,,,,,,,,,,,,,,
3456.5,,probe_rating,570308,probe_rating,,51,,,,3,1,,,,,,,,,,,,,
null,,confidence_buffer,570409,confidence_buffer,,null,,,,,,,,,,,,,,,,,,
3938.5,,pt2_memorable_rating,574348,Sammamish,,52,,,4,,,,,,,,,,,,,,,
null,,confidence_buffer,574450,confidence_buffer,,null,,,,,,,,,,,,,,,,,,
2641.2000000476837,,recognition_phase,577092,Sammamish,,52,,,,,,new,1,1,,,,,,,,,,
null,,confidence_buffer,577194,confidence_buffer,,null,,,,,,,,,,,,,,,,,,
null,,thebreak,577695,break,,null,,,,,,,,,,,,,,,,,,
5715.300000011921,,realistic_rating,583412,Bisbee,,53,Bisbee,US,5,,,,,,,,,,,,,,,
null,,confidence_buffer,583514,confidence_buffer,,null,,,,,,,,,,,,,,,,,,
4513.199999988079,,pt2_unique_rating,588028,Bisbee,,52,,,4,,,,,,,,,,,,,,,
null,,confidence_buffer,588130,confidence_buffer,,null,,,,,,,,,,,,,,,,,,
1513.7000000476837,,pt2_memorable_rating,589644,Bisbee,,52,,,4,,,,,,,,,,,,,,,
null,,confidence_buffer,589746,confidence_buffer,,null,,,,,,,,,,,,,,,,,,
2664.400000035763,,recognition_phase,592412,Bisbee,,49,,,,,,old,1,1,,,,,,,,,,
null,,confidence_buffer,592514,confidence_buffer,,null,,,,,,,,,,,,,,,,,,
null,,thebreak,593015,break,,null,,,,,,,,,,,,,,,,,,
5324.399999976158,,realistic_rating,598341,Hollendale,,53,Hollendale,Fictional,5,,,,,,,,,,,,,,,
null,,confidence_buffer,598443,confidence_buffer,,null,,,,,,,,,,,,,,,,,,
4872.199999988079,,pt2_unique_rating,603316,Hollendale,,51,,,3,,,,,,,,,,,,,,,
null,,confidence_buffer,603418,confidence_buffer,,null,,,,,,,,,,,,,,,,,,
2489,,probe_rating,605908,probe_rating,,50,,,,2,1,,,,,,,,,,,,,
null,,confidence_buffer,606010,confidence_buffer,,null,,,,,,,,,,,,,,,,,,
4009.5,,pt2_memorable_rating,610020,Hollendale,,51,,,3,,,,,,,,,,,,,,,
null,,confidence_buffer,610122,confidence_buffer,,null,,,,,,,,,,,,,,,,,,
3049.100000023842,,recognition_phase,613172,Hollendale,,49,,,,,,old,1,1,,,,,,,,,,
null,,confidence_buffer,613274,confidence_buffer,,null,,,,,,,,,,,,,,,,,,
null,,thebreak,613776,break,,null,,,,,,,,,,,,,,,,,,
4091.7000000476837,,realistic_rating,617868,Park City,,53,Park City,US,5,,,,,,,,,,,,,,,
null,,confidence_buffer,617971,confidence_buffer,,null,,,,,,,,,,,,,,,,,,
4383.699999988079,,pt2_unique_rating,622356,Park City,,49,,,1,,,,,,,,,,,,,,,
null,,confidence_buffer,622457,confidence_buffer,,null,,,,,,,,,,,,,,,,,,
1665.2999999523163,,pt2_memorable_rating,624124,Park City,,49,,,1,,,,,,,,,,,,,,,
null,,confidence_buffer,624225,confidence_buffer,,null,,,,,,,,,,,,,,,,,,
3746.199999988079,,recognition_phase,627972,Park City,,49,,,,,,old,1,1,,,,,,,,,,
null,,confidence_buffer,628075,confidence_buffer,,null,,,,,,,,,,,,,,,,,,
null,,thebreak,628576,break,,null,,,,,,,,,,,,,,,,,,
4634.799999952316,,realistic_rating,633212,Stonebrook,,53,Stonebrook,Fictional,5,,,,,,,,,,,,,,,
null,,confidence_buffer,633314,confidence_buffer,,null,,,,,,,,,,,,,,,,,,
3912.699999988079,,pt2_unique_rating,637228,Stonebrook,,50,,,2,,,,,,,,,,,,,,,
null,,confidence_buffer,637330,confidence_buffer,,null,,,,,,,,,,,,,,,,,,
4962.5,,pt2_memorable_rating,642293,Stonebrook,,49,,,1,,,,,,,,,,,,,,,
null,,confidence_buffer,642394,confidence_buffer,,null,,,,,,,,,,,,,,,,,,
5576.899999976158,,recognition_phase,647972,Stonebrook,,51,,,,,,new,1,1,,,,,,,,,,
null,,confidence_buffer,648074,confidence_buffer,,null,,,,,,,,,,,,,,,,,,
null,,thebreak,648576,break,,null,,,,,,,,,,,,,,,,,,
6234.699999988079,,realistic_rating,654812,Briarfield,,52,Briarfield,Fictional,4,,,,,,,,,,,,,,,
null,,confidence_buffer,654913,confidence_buffer,,null,,,,,,,,,,,,,,,,,,
3265.300000011921,,pt2_unique_rating,658180,Briarfield,,51,,,3,,,,,,,,,,,,,,,
null,,confidence_buffer,658288,confidence_buffer,,null,,,,,,,,,,,,,,,,,,
2307.199999988079,,pt2_memorable_rating,660596,Briarfield,,51,,,3,,,,,,,,,,,,,,,
null,,confidence_buffer,660697,confidence_buffer,,null,,,,,,,,,,,,,,,,,,
3137.300000011921,,recognition_phase,663836,Briarfield,,49,,,,,,old,1,1,,,,,,,,,,
null,,confidence_buffer,663937,confidence_buffer,,null,,,,,,,,,,,,,,,,,,
null,,thebreak,664438,break,,null,,,,,,,,,,,,,,,,,,
6564.800000011921,,realistic_rating,671004,Orr,,49,Orr,US,1,,,,,,,,,,,,,,,
null,,confidence_buffer,671105,confidence_buffer,,null,,,,,,,,,,,,,,,,,,
2041.6000000238419,,pt2_unique_rating,673148,Orr,,53,,,5,,,,,,,,,,,,,,,
null,,confidence_buffer,673249,confidence_buffer,,null,,,,,,,,,,,,,,,,,,
4209.300000011921,,pt2_memorable_rating,677460,Orr,,52,,,4,,,,,,,,,,,,,,,
null,,confidence_buffer,677567,confidence_buffer,,null,,,,,,,,,,,,,,,,,,
2579,,recognition_phase,680148,Orr,,49,,,,,,old,1,1,,,,,,,,,,
null,,confidence_buffer,680250,confidence_buffer,,null,,,,,,,,,,,,,,,,,,
null,,thebreak,680752,break,,null,,,,,,,,,,,,,,,,,,
6155.5,,realistic_rating,686909,Sunmere,,49,Sunmere,Fictional,1,,,,,,,,,,,,,,,
null,,confidence_buffer,687011,confidence_buffer,,null,,,,,,,,,,,,,,,,,,
3512.900000035763,,pt2_unique_rating,690525,Sunmere,,52,,,4,,,,,,,,,,,,,,,
null,,confidence_buffer,690626,confidence_buffer,,null,,,,,,,,,,,,,,,,,,
2456.5,,pt2_memorable_rating,693084,Sunmere,,51,,,3,,,,,,,,,,,,,,,
null,,confidence_buffer,693186,confidence_buffer,,null,,,,,,,,,,,,,,,,,,
2161,,recognition_phase,695348,Sunmere,,49,,,,,,old,1,1,,,,,,,,,,
null,,confidence_buffer,695449,confidence_buffer,,null,,,,,,,,,,,,,,,,,,
null,,thebreak,695950,break,,null,,,,,,,,,,,,,,,,,,
5196.600000023842,,realistic_rating,701148,Pine Hollow,,53,Pine Hollow,Fictional,5,,,,,,,,,,,,,,,
null,,confidence_buffer,701251,confidence_buffer,,null,,,,,,,,,,,,,,,,,,
5578.5,,pt2_unique_rating,706830,Pine Hollow,,49,,,1,,,,,,,,,,,,,,,
null,,confidence_buffer,706932,confidence_buffer,,null,,,,,,,,,,,,,,,,,,
2543.099999964237,,pt2_memorable_rating,709476,Pine Hollow,,49,,,1,,,,,,,,,,,,,,,
null,,confidence_buffer,709577,confidence_buffer,,null,,,,,,,,,,,,,,,,,,
3833.7000000476837,,recognition_phase,713412,Pine Hollow,,50,,,,,,old,0,0.9,,,,,,,,,,
null,,confidence_buffer,713514,confidence_buffer,,null,,,,,,,,,,,,,,,,,,
null,,thebreak,714015,break,,null,,,,,,,,,,,,,,,,,,
4675.5,,realistic_rating,718692,Falconridge,,52,Falconridge,Fictional,4,,,,,,,,,,,,,,,
null,,confidence_buffer,718793,confidence_buffer,,null,,,,,,,,,,,,,,,,,,
4952.800000011921,,pt2_unique_rating,723747,Falconridge,,50,,,2,,,,,,,,,,,,,,,
null,,confidence_buffer,723848,confidence_buffer,,null,,,,,,,,,,,,,,,,,,
2834.899999976158,,pt2_memorable_rating,726684,Falconridge,,51,,,3,,,,,,,,,,,,,,,
null,,confidence_buffer,726786,confidence_buffer,,null,,,,,,,,,,,,,,,,,,
3808.5,,recognition_phase,730596,Falconridge,,52,,,,,,new,1,0.9090909090909091,,,,,,,,,,
null,,confidence_buffer,730697,confidence_buffer,,null,,,,,,,,,,,,,,,,,,
null,,thebreak,731198,break,,null,,,,,,,,,,,,,,,,,,
4324.399999976158,,realistic_rating,735524,New Verdan,,52,New Verdan,Fictional,4,,,,,,,,,,,,,,,
null,,confidence_buffer,735626,confidence_buffer,,null,,,,,,,,,,,,,,,,,,
3049.100000023842,,pt2_unique_rating,738676,New Verdan,,50,,,2,,,,,,,,,,,,,,,
null,,confidence_buffer,738778,confidence_buffer,,null,,,,,,,,,,,,,,,,,,
1312.800000011921,,pt2_memorable_rating,740091,New Verdan,,50,,,2,,,,,,,,,,,,,,,
null,,confidence_buffer,740193,confidence_buffer,,null,,,,,,,,,,,,,,,,,,
2330,,recognition_phase,742524,New Verdan,,49,,,,,,old,1,0.9166666666666666,,,,,,,,,,
null,,confidence_buffer,742626,confidence_buffer,,null,,,,,,,,,,,,,,,,,,
null,,thebreak,743128,break,,null,,,,,,,,,,,,,,,,,,
4267.5,,realistic_rating,747396,Ashford Hills,,53,Ashford Hills,Fictional,5,,,,,,,,,,,,,,,
null,,confidence_buffer,747498,confidence_buffer,,null,,,,,,,,,,,,,,,,,,
5439.200000047684,,pt2_unique_rating,752939,Ashford Hills,,49,,,1,,,,,,,,,,,,,,,
null,,confidence_buffer,753042,confidence_buffer,,null,,,,,,,,,,,,,,,,,,
1768.0999999642372,,pt2_memorable_rating,754811,Ashford Hills,,49,,,1,,,,,,,,,,,,,,,
null,,confidence_buffer,754913,confidence_buffer,,null,,,,,,,,,,,,,,,,,,
3905.2000000476837,,recognition_phase,758820,Ashford Hills,,50,,,,,,old,1,0.9230769230769231,,,,,,,,,,
null,,confidence_buffer,758921,confidence_buffer,,null,,,,,,,,,,,,,,,,,,
null,,thebreak,759423,break,,null,,,,,,,,,,,,,,,,,,
4211.199999988079,,realistic_rating,763636,Cleveland,,53,Cleveland,US,5,,,,,,,,,,,,,,,
null,,confidence_buffer,763737,confidence_buffer,,null,,,,,,,,,,,,,,,,,,
6313.300000011921,,pt2_unique_rating,770052,Cleveland,,52,,,4,,,,,,,,,,,,,,,
null,,confidence_buffer,770154,confidence_buffer,,null,,,,,,,,,,,,,,,,,,
3112.5,,pt2_memorable_rating,773268,Cleveland,,52,,,4,,,,,,,,,,,,,,,
null,,confidence_buffer,773369,confidence_buffer,,null,,,,,,,,,,,,,,,,,,
2801.300000011921,,recognition_phase,776172,Cleveland,,52,,,,,,new,1,0.9285714285714286,,,,,,,,,,
null,,confidence_buffer,776273,confidence_buffer,,null,,,,,,,,,,,,,,,,,,
null,,thebreak,776775,break,,null,,,,,,,,,,,,,,,,,,
4747.399999976158,,realistic_rating,781524,Brookmere,,52,Brookmere,Fictional,4,,,,,,,,,,,,,,,
null,,confidence_buffer,781625,confidence_buffer,,null,,,,,,,,,,,,,,,,,,
3089.900000035763,,pt2_unique_rating,784716,Brookmere,,51,,,3,,,,,,,,,,,,,,,
null,,confidence_buffer,784818,confidence_buffer,,null,,,,,,,,,,,,,,,,,,
3120.900000035763,,probe_rating,787940,probe_rating,,53,,,,5,1,,,,,,,,,,,,,
null,,confidence_buffer,788051,confidence_buffer,,null,,,,,,,,,,,,,,,,,,
2831,,pt2_memorable_rating,790883,Brookmere,,51,,,3,,,,,,,,,,,,,,,
null,,confidence_buffer,790985,confidence_buffer,,null,,,,,,,,,,,,,,,,,,
2017.800000011921,,recognition_phase,793004,Brookmere,,50,,,,,,old,0,0.8666666666666667,,,,,,,,,,
null,,confidence_buffer,793105,confidence_buffer,,null,,,,,,,,,,,,,,,,,,
null,,thebreak,793606,break,,null,,,,,,,,,,,,,,,,,,
4572.899999976158,,realistic_rating,798180,Livingston,,52,Livingston,US,4,,,,,,,,,,,,,,,
null,,confidence_buffer,798281,confidence_buffer,,null,,,,,,,,,,,,,,,,,,
2497.600000023842,,pt2_unique_rating,800780,Livingston,,50,,,2,,,,,,,,,,,,,,,
null,,confidence_buffer,800888,confidence_buffer,,null,,,,,,,,,,,,,,,,,,
1874.800000011921,,pt2_memorable_rating,802764,Livingston,,50,,,2,,,,,,,,,,,,,,,
null,,confidence_buffer,802866,confidence_buffer,,null,,,,,,,,,,,,,,,,,,
5807.800000011921,,recognition_phase,808674,Livingston,,50,,,,,,old,1,0.875,,,,,,,,,,
null,,confidence_buffer,808777,confidence_buffer,,null,,,,,,,,,,,,,,,,,,
null,,thebreak,809289,break,,null,,,,,,,,,,,,,,,,,,
3417.2000000476837,,realistic_rating,812707,Cape May,,51,Cape May,US,3,,,,,,,,,,,,,,,
null,,confidence_buffer,812810,confidence_buffer,,null,,,,,,,,,,,,,,,,,,
3920.2000000476837,,pt2_unique_rating,816731,Cape May,,50,,,2,,,,,,,,,,,,,,,
null,,confidence_buffer,816834,confidence_buffer,,null,,,,,,,,,,,,,,,,,,
1416.5999999642372,,pt2_memorable_rating,818252,Cape May,,50,,,2,,,,,,,,,,,,,,,
null,,confidence_buffer,818354,confidence_buffer,,null,,,,,,,,,,,,,,,,,,
2128.399999976158,,recognition_phase,820484,Cape May,,49,,,,,,old,1,0.8823529411764706,,,,,,,,,,
null,,confidence_buffer,820585,confidence_buffer,,null,,,,,,,,,,,,,,,,,,
null,,thebreak,821087,break,,null,,,,,,,,,,,,,,,,,,
5827.600000023842,,realistic_rating,826916,Natchez,,49,Natchez,US,1,,,,,,,,,,,,,,,
null,,confidence_buffer,827018,confidence_buffer,,null,,,,,,,,,,,,,,,,,,
2600.300000011921,,pt2_unique_rating,829620,Natchez,,53,,,5,,,,,,,,,,,,,,,
null,,confidence_buffer,829721,confidence_buffer,,null,,,,,,,,,,,,,,,,,,
2761.600000023842,,pt2_memorable_rating,832483,Natchez,,53,,,5,,,,,,,,,,,,,,,
null,,confidence_buffer,832585,confidence_buffer,,null,,,,,,,,,,,,,,,,,,
2376.699999988079,,recognition_phase,834963,Natchez,,52,,,,,,new,1,0.8888888888888888,,,,,,,,,,
null,,confidence_buffer,835065,confidence_buffer,,null,,,,,,,,,,,,,,,,,,
null,,thebreak,835566,break,,null,,,,,,,,,,,,,,,,,,
3268.2999999523163,,realistic_rating,838836,Gatlinburg,,53,Gatlinburg,US,5,,,,,,,,,,,,,,,
null,,confidence_buffer,838937,confidence_buffer,,null,,,,,,,,,,,,,,,,,,
3393,,pt2_unique_rating,842331,Gatlinburg,,52,,,4,,,,,,,,,,,,,,,
null,,confidence_buffer,842432,confidence_buffer,,null,,,,,,,,,,,,,,,,,,
1641.3999999761581,,pt2_memorable_rating,844074,Gatlinburg,,52,,,4,,,,,,,,,,,,,,,
null,,confidence_buffer,844175,confidence_buffer,,null,,,,,,,,,,,,,,,,,,
3171.5,,probe_rating,847348,probe_rating,,51,,,,3,1,,,,,,,,,,,,,
null,,confidence_buffer,847450,confidence_buffer,,null,,,,,,,,,,,,,,,,,,
2456.400000035763,,recognition_phase,849908,Gatlinburg,,49,,,,,,old,1,0.8947368421052632,,,,,,,,,,
null,,confidence_buffer,850009,confidence_buffer,,null,,,,,,,,,,,,,,,,,,
null,,thebreak,850510,break,,null,,,,,,,,,,,,,,,,,,
3532.099999964237,,realistic_rating,854044,New Hope,,53,New Hope,US,5,,,,,,,,,,,,,,,
null,,confidence_buffer,854145,confidence_buffer,,null,,,,,,,,,,,,,,,,,,
3881.5,,pt2_unique_rating,858028,New Hope,,51,,,3,,,,,,,,,,,,,,,
null,,confidence_buffer,858129,confidence_buffer,,null,,,,,,,,,,,,,,,,,,
1505.300000011921,,pt2_memorable_rating,859636,New Hope,,51,,,3,,,,,,,,,,,,,,,
null,,confidence_buffer,859737,confidence_buffer,,null,,,,,,,,,,,,,,,,,,
2921,,recognition_phase,862659,New Hope,,50,,,,,,old,0,0.85,,,,,,,,,,
null,,confidence_buffer,862761,confidence_buffer,,null,,,,,,,,,,,,,,,,,,
null,,thebreak,863262,break,,null,,,,,,,,,,,,,,,,,,
5805,,realistic_rating,869068,Summershade,,49,Summershade,Fictional,1,,,,,,,,,,,,,,,
null,,confidence_buffer,869170,confidence_buffer,,null,,,,,,,,,,,,,,,,,,
2270.7999999523163,,pt2_unique_rating,871442,Summershade,,50,,,2,,,,,,,,,,,,,,,
null,,confidence_buffer,871544,confidence_buffer,,null,,,,,,,,,,,,,,,,,,
1722.5,,pt2_memorable_rating,873267,Summershade,,50,,,2,,,,,,,,,,,,,,,
null,,confidence_buffer,873368,confidence_buffer,,null,,,,,,,,,,,,,,,,,,
2394.099999964237,,recognition_phase,875763,Summershade,,50,,,,,,old,1,0.8571428571428571,,,,,,,,,,
null,,confidence_buffer,875865,confidence_buffer,,null,,,,,,,,,,,,,,,,,,
null,,thebreak,876366,break,,null,,,,,,,,,,,,,,,,,,
7908.300000011921,,realistic_rating,884276,Coralridge,,51,Coralridge,Fictional,3,,,,,,,,,,,,,,,
null,,confidence_buffer,884377,confidence_buffer,,null,,,,,,,,,,,,,,,,,,
3313.199999988079,,pt2_unique_rating,887692,Coralridge,,51,,,3,,,,,,,,,,,,,,,
null,,confidence_buffer,887793,confidence_buffer,,null,,,,,,,,,,,,,,,,,,
3520.7999999523163,,pt2_memorable_rating,891315,Coralridge,,51,,,3,,,,,,,,,,,,,,,
null,,confidence_buffer,891417,confidence_buffer,,null,,,,,,,,,,,,,,,,,,
1953.699999988079,,recognition_phase,893372,Coralridge,,49,,,,,,old,1,0.8636363636363636,,,,,,,,,,
null,,confidence_buffer,893474,confidence_buffer,,null,,,,,,,,,,,,,,,,,,
null,,thebreak,893976,break,,null,,,,,,,,,,,,,,,,,,
3082.699999988079,,realistic_rating,897060,Watkins Glen,,52,Watkins Glen,US,4,,,,,,,,,,,,,,,
null,,confidence_buffer,897171,confidence_buffer,,null,,,,,,,,,,,,,,,,,,
1791,,pt2_unique_rating,898963,Watkins Glen,,51,,,3,,,,,,,,,,,,,,,
null,,confidence_buffer,899064,confidence_buffer,,null,,,,,,,,,,,,,,,,,,
1857.300000011921,,pt2_memorable_rating,900923,Watkins Glen,,50,,,2,,,,,,,,,,,,,,,
null,,confidence_buffer,901024,confidence_buffer,,null,,,,,,,,,,,,,,,,,,
3354,,recognition_phase,904379,Watkins Glen,,52,,,,,,new,1,0.8695652173913043,,,,,,,,,,
null,,confidence_buffer,904481,confidence_buffer,,null,,,,,,,,,,,,,,,,,,
null,,thebreak,904982,break,,null,,,,,,,,,,,,,,,,,,
2460.7999999523163,,realistic_rating,907444,Bar Harbor,,53,Bar Harbor,US,5,,,,,,,,,,,,,,,
null,,confidence_buffer,907546,confidence_buffer,,null,,,,,,,,,,,,,,,,,,
2440.599999964237,,pt2_unique_rating,909987,Bar Harbor,,50,,,2,,,,,,,,,,,,,,,
null,,confidence_buffer,910089,confidence_buffer,,null,,,,,,,,,,,,,,,,,,
1281.699999988079,,pt2_memorable_rating,911371,Bar Harbor,,50,,,2,,,,,,,,,,,,,,,
null,,confidence_buffer,911474,confidence_buffer,,null,,,,,,,,,,,,,,,,,,
3905.2999999523163,,recognition_phase,915380,Bar Harbor,,52,,,,,,new,1,0.875,,,,,,,,,,
null,,confidence_buffer,915484,confidence_buffer,,null,,,,,,,,,,,,,,,,,,
null,,thebreak,915986,break,,null,,,,,,,,,,,,,,,,,,
4232.300000011921,,realistic_rating,920220,Maravilla Springs,,52,Maravilla Springs,Fictional,4,,,,,,,,,,,,,,,
null,,confidence_buffer,920321,confidence_buffer,,null,,,,,,,,,,,,,,,,,,
2656.300000011921,,pt2_unique_rating,922979,Maravilla Springs,,51,,,3,,,,,,,,,,,,,,,
null,,confidence_buffer,923080,confidence_buffer,,null,,,,,,,,,,,,,,,,,,
2634.600000023842,,pt2_memorable_rating,925715,Maravilla Springs,,51,,,3,,,,,,,,,,,,,,,
null,,confidence_buffer,925817,confidence_buffer,,null,,,,,,,,,,,,,,,,,,
2017.1000000238419,,recognition_phase,927835,Maravilla Springs,,52,,,,,,new,1,0.88,,,,,,,,,,
null,,confidence_buffer,927937,confidence_buffer,,null,,,,,,,,,,,,,,,,,,
null,,thebreak,928438,break,,null,,,,,,,,,,,,,,,,,,
5476,,realistic_rating,933915,Sierra Hollow,,52,Sierra Hollow,Fictional,4,,,,,,,,,,,,,,,
null,,confidence_buffer,934018,confidence_buffer,,null,,,,,,,,,,,,,,,,,,
3656,,pt2_unique_rating,937675,Sierra Hollow,,50,,,2,,,,,,,,,,,,,,,
null,,confidence_buffer,937780,confidence_buffer,,null,,,,,,,,,,,,,,,,,,
1173.5999999642372,,pt2_memorable_rating,938955,Sierra Hollow,,50,,,2,,,,,,,,,,,,,,,
null,,confidence_buffer,939056,confidence_buffer,,null,,,,,,,,,,,,,,,,,,
2609.300000011921,,recognition_phase,941667,Sierra Hollow,,50,,,,,,old,1,0.8846153846153846,,,,,,,,,,
null,,confidence_buffer,941769,confidence_buffer,,null,,,,,,,,,,,,,,,,,,
null,,thebreak,942270,break,,null,,,,,,,,,,,,,,,,,,
4148,,realistic_rating,946419,Elmsbury,,52,Elmsbury,Fictional,4,,,,,,,,,,,,,,,
null,,confidence_buffer,946521,confidence_buffer,,null,,,,,,,,,,,,,,,,,,
4641.199999988079,,pt2_unique_rating,951163,Elmsbury,,50,,,2,,,,,,,,,,,,,,,
null,,confidence_buffer,951264,confidence_buffer,,null,,,,,,,,,,,,,,,,,,
1305.300000011921,,pt2_memorable_rating,952571,Elmsbury,,50,,,2,,,,,,,,,,,,,,,
null,,confidence_buffer,952674,confidence_buffer,,null,,,,,,,,,,,,,,,,,,
2112.099999964237,,recognition_phase,954787,Elmsbury,,52,,,,,,new,1,0.8888888888888888,,,,,,,,,,
null,,confidence_buffer,954889,confidence_buffer,,null,,,,,,,,,,,,,,,,,,
null,,thebreak,955390,break,,null,,,,,,,,,,,,,,,,,,
2227.900000035763,,realistic_rating,957619,West Palm Beach,,53,West Palm Beach,US,5,,,,,,,,,,,,,,,
null,,confidence_buffer,957721,confidence_buffer,,null,,,,,,,,,,,,,,,,,,
2833.100000023842,,pt2_unique_rating,960555,West Palm Beach,,50,,,2,,,,,,,,,,,,,,,
null,,confidence_buffer,960656,confidence_buffer,,null,,,,,,,,,,,,,,,,,,
6441.300000011921,,probe_rating,967099,probe_rating,,50,,,,2,1,,,,,,,,,,,,,
null,,confidence_buffer,967201,confidence_buffer,,null,,,,,,,,,,,,,,,,,,
3073.199999988079,,pt2_memorable_rating,970275,West Palm Beach,,50,,,2,,,,,,,,,,,,,,,
null,,confidence_buffer,970377,confidence_buffer,,null,,,,,,,,,,,,,,,,,,
2736.099999964237,,recognition_phase,973115,West Palm Beach,,49,,,,,,old,1,0.8928571428571429,,,,,,,,,,
null,,confidence_buffer,973216,confidence_buffer,,null,,,,,,,,,,,,,,,,,,
null,,thebreak,973719,break,,null,,,,,,,,,,,,,,,,,,
3931.5,,realistic_rating,977652,Cody,,50,Cody,US,2,,,,,,,,,,,,,,,
null,,confidence_buffer,977754,confidence_buffer,,null,,,,,,,,,,,,,,,,,,
3720.300000011921,,pt2_unique_rating,981475,Cody,,51,,,3,,,,,,,,,,,,,,,
null,,confidence_buffer,981577,confidence_buffer,,null,,,,,,,,,,,,,,,,,,
1809.5,,pt2_memorable_rating,983387,Cody,,50,,,2,,,,,,,,,,,,,,,
null,,confidence_buffer,983489,confidence_buffer,,null,,,,,,,,,,,,,,,,,,
1745,,recognition_phase,985235,Cody,,52,,,,,,new,1,0.896551724137931,,,,,,,,,,
null,,confidence_buffer,985337,confidence_buffer,,null,,,,,,,,,,,,,,,,,,
null,,thebreak,985838,break,,null,,,,,,,,,,,,,,,,,,
4195.099999964237,,realistic_rating,990035,Bayshore Haven,,51,Bayshore Haven,Fictional,3,,,,,,,,,,,,,,,
null,,confidence_buffer,990137,confidence_buffer,,null,,,,,,,,,,,,,,,,,,
2536.800000011921,,pt2_unique_rating,992675,Bayshore Haven,,51,,,3,,,,,,,,,,,,,,,
null,,confidence_buffer,992777,confidence_buffer,,null,,,,,,,,,,,,,,,,,,
2865.300000011921,,pt2_memorable_rating,995643,Bayshore Haven,,51,,,3,,,,,,,,,,,,,,,
null,,confidence_buffer,995745,confidence_buffer,,null,,,,,,,,,,,,,,,,,,
2112.5,,recognition_phase,997859,Bayshore Haven,,52,,,,,,new,1,0.9,,,,,,,,,,
null,,confidence_buffer,997961,confidence_buffer,,null,,,,,,,,,,,,,,,,,,
null,,thebreak,998464,break,,null,,,,,,,,,,,,,,,,,,
2906,,realistic_rating,1001371,Okoboji,,49,Okoboji,US,1,,,,,,,,,,,,,,,
null,,confidence_buffer,1001474,confidence_buffer,,null,,,,,,,,,,,,,,,,,,
2343.699999988079,,pt2_unique_rating,1003819,Okoboji,,53,,,5,,,,,,,,,,,,,,,
null,,confidence_buffer,1003921,confidence_buffer,,null,,,,,,,,,,,,,,,,,,
2345.300000011921,,pt2_memorable_rating,1006267,Okoboji,,52,,,4,,,,,,,,,,,,,,,
null,,confidence_buffer,1006368,confidence_buffer,,null,,,,,,,,,,,,,,,,,,
1873.5,,recognition_phase,1008243,Okoboji,,49,,,,,,old,1,0.9032258064516129,,,,,,,,,,
null,,confidence_buffer,1008344,confidence_buffer,,null,,,,,,,,,,,,,,,,,,
null,,thebreak,1008845,break,,null,,,,,,,,,,,,,,,,,,
5444.899999976158,,realistic_rating,1014291,Lake of the Ozarks,,52,Lake of the Ozarks,US,4,,,,,,,,,,,,,,,
null,,confidence_buffer,1014394,confidence_buffer,,null,,,,,,,,,,,,,,,,,,
2071.5,,pt2_unique_rating,1016467,Lake of the Ozarks,,51,,,3,,,,,,,,,,,,,,,
null,,confidence_buffer,1016569,confidence_buffer,,null,,,,,,,,,,,,,,,,,,
1304.5999999642372,,pt2_memorable_rating,1017874,Lake of the Ozarks,,51,,,3,,,,,,,,,,,,,,,
null,,confidence_buffer,1017976,confidence_buffer,,null,,,,,,,,,,,,,,,,,,
2729.800000011921,,recognition_phase,1020707,Lake of the Ozarks,,50,,,,,,old,1,0.90625,,,,,,,,,,
null,,confidence_buffer,1020809,confidence_buffer,,null,,,,,,,,,,,,,,,,,,
null,,thebreak,1021310,break,,null,,,,,,,,,,,,,,,,,,
2570.600000023842,,realistic_rating,1023882,Northbridge,,53,Northbridge,Fictional,5,,,,,,,,,,,,,,,
null,,confidence_buffer,1023983,confidence_buffer,,null,,,,,,,,,,,,,,,,,,
1635.300000011921,,pt2_unique_rating,1025619,Northbridge,,49,,,1,,,,,,,,,,,,,,,
null,,confidence_buffer,1025721,confidence_buffer,,null,,,,,,,,,,,,,,,,,,
1249.3999999761581,,pt2_memorable_rating,1026971,Northbridge,,49,,,1,,,,,,,,,,,,,,,
null,,confidence_buffer,1027074,confidence_buffer,,null,,,,,,,,,,,,,,,,,,
1383.800000011921,,recognition_phase,1028459,Northbridge,,50,,,,,,old,0,0.8787878787878788,,,,,,,,,,
null,,confidence_buffer,1028562,confidence_buffer,,null,,,,,,,,,,,,,,,,,,
null,,thebreak,1029064,break,,null,,,,,,,,,,,,,,,,,,
2474.2000000476837,,realistic_rating,1031540,Sitka,,53,Sitka,US,5,,,,,,,,,,,,,,,
null,,confidence_buffer,1031642,confidence_buffer,,null,,,,,,,,,,,,,,,,,,
1831.6000000238419,,pt2_unique_rating,1033474,Sitka,,53,,,5,,,,,,,,,,,,,,,
null,,confidence_buffer,1033575,confidence_buffer,,null,,,,,,,,,,,,,,,,,,
1458.699999988079,,pt2_memorable_rating,1035035,Sitka,,53,,,5,,,,,,,,,,,,,,,
null,,confidence_buffer,1035137,confidence_buffer,,null,,,,,,,,,,,,,,,,,,
1849.300000011921,,recognition_phase,1036987,Sitka,,49,,,,,,old,1,0.8823529411764706,,,,,,,,,,
null,,confidence_buffer,1037089,confidence_buffer,,null,,,,,,,,,,,,,,,,,,
null,,thebreak,1037590,break,,null,,,,,,,,,,,,,,,,,,
3996.100000023842,,realistic_rating,1041587,Delaware City,,52,Delaware City,US,4,,,,,,,,,,,,,,,
null,,confidence_buffer,1041688,confidence_buffer,,null,,,,,,,,,,,,,,,,,,
2689.899999976158,,pt2_unique_rating,1044379,Delaware City,,49,,,1,,,,,,,,,,,,,,,
null,,confidence_buffer,1044481,confidence_buffer,,null,,,,,,,,,,,,,,,,,,
1049.4000000357628,,pt2_memorable_rating,1045531,Delaware City,,49,,,1,,,,,,,,,,,,,,,
null,,confidence_buffer,1045633,confidence_buffer,,null,,,,,,,,,,,,,,,,,,
2185.300000011921,,recognition_phase,1047819,Delaware City,,49,,,,,,old,1,0.8857142857142857,,,,,,,,,,
null,,confidence_buffer,1047921,confidence_buffer,,null,,,,,,,,,,,,,,,,,,
null,,thebreak,1048424,break,,null,,,,,,,,,,,,,,,,,,
4490,,realistic_rating,1052915,East Ladera,,52,East Ladera,Fictional,4,,,,,,,,,,,,,,,
null,,confidence_buffer,1053016,confidence_buffer,,null,,,,,,,,,,,,,,,,,,
3250.7000000476837,,pt2_unique_rating,1056268,East Ladera,,50,,,2,,,,,,,,,,,,,,,
null,,confidence_buffer,1056370,confidence_buffer,,null,,,,,,,,,,,,,,,,,,
1192.2000000476837,,pt2_memorable_rating,1057563,East Ladera,,50,,,2,,,,,,,,,,,,,,,
null,,confidence_buffer,1057664,confidence_buffer,,null,,,,,,,,,,,,,,,,,,
3257.800000011921,,recognition_phase,1060923,East Ladera,,49,,,,,,old,1,0.8888888888888888,,,,,,,,,,
null,,confidence_buffer,1061025,confidence_buffer,,null,,,,,,,,,,,,,,,,,,
null,,thebreak,1061526,break,,null,,,,,,,,,,,,,,,,,,
3138.5,,realistic_rating,1064666,Ironwood Heights,,53,Ironwood Heights,Fictional,5,,,,,,,,,,,,,,,
null,,confidence_buffer,1064767,confidence_buffer,,null,,,,,,,,,,,,,,,,,,
2362.199999988079,,pt2_unique_rating,1067130,Ironwood Heights,,49,,,1,,,,,,,,,,,,,,,
null,,confidence_buffer,1067232,confidence_buffer,,null,,,,,,,,,,,,,,,,,,
1146,,pt2_memorable_rating,1068379,Ironwood Heights,,49,,,1,,,,,,,,,,,,,,,
null,,confidence_buffer,1068480,confidence_buffer,,null,,,,,,,,,,,,,,,,,,
2121.399999976158,,recognition_phase,1070603,Ironwood Heights,,50,,,,,,old,1,0.8918918918918919,,,,,,,,,,
null,,confidence_buffer,1070704,confidence_buffer,,null,,,,,,,,,,,,,,,,,,
null,,thebreak,1071206,break,,null,,,,,,,,,,,,,,,,,,
2180.399999976158,,realistic_rating,1073387,Huntsville,,53,Huntsville,US,5,,,,,,,,,,,,,,,
null,,confidence_buffer,1073489,confidence_buffer,,null,,,,,,,,,,,,,,,,,,
2328.5,,pt2_unique_rating,1075819,Huntsville,,49,,,1,,,,,,,,,,,,,,,
null,,confidence_buffer,1075921,confidence_buffer,,null,,,,,,,,,,,,,,,,,,
2328.5,,pt2_memorable_rating,1078251,Huntsville,,50,,,2,,,,,,,,,,,,,,,
null,,confidence_buffer,1078354,confidence_buffer,,null,,,,,,,,,,,,,,,,,,
4023.7000000476837,,recognition_phase,1082379,Huntsville,,51,,,,,,new,1,0.8947368421052632,,,,,,,,,,
null,,confidence_buffer,1082481,confidence_buffer,,null,,,,,,,,,,,,,,,,,,
null,,thebreak,1082983,break,,null,,,,,,,,,,,,,,,,,,
3250.900000035763,,realistic_rating,1086235,Fairhaven,,53,Fairhaven,Fictional,5,,,,,,,,,,,,,,,
null,,confidence_buffer,1086337,confidence_buffer,,null,,,,,,,,,,,,,,,,,,
4392.900000035763,,pt2_unique_rating,1090731,Fairhaven,,51,,,3,,,,,,,,,,,,,,,
null,,confidence_buffer,1090833,confidence_buffer,,null,,,,,,,,,,,,,,,,,,
1248.199999988079,,pt2_memorable_rating,1092083,Fairhaven,,51,,,3,,,,,,,,,,,,,,,
null,,confidence_buffer,1092184,confidence_buffer,,null,,,,,,,,,,,,,,,,,,
2705.599999964237,,probe_rating,1094891,probe_rating,,49,,,,1,1,,,,,,,,,,,,,
null,,confidence_buffer,1094992,confidence_buffer,,null,,,,,,,,,,,,,,,,,,
3961.400000035763,,recognition_phase,1098955,Fairhaven,,52,,,,,,new,1,0.8974358974358975,,,,,,,,,,
null,,confidence_buffer,1099056,confidence_buffer,,null,,,,,,,,,,,,,,,,,,
null,,thebreak,1099558,break,,null,,,,,,,,,,,,,,,,,,
3539.800000011921,,realistic_rating,1103099,Barnard,,50,Barnard,US,2,,,,,,,,,,,,,,,
null,,confidence_buffer,1103200,confidence_buffer,,null,,,,,,,,,,,,,,,,,,
2689.5,,pt2_unique_rating,1105891,Barnard,,50,,,2,,,,,,,,,,,,,,,
null,,confidence_buffer,1105994,confidence_buffer,,null,,,,,,,,,,,,,,,,,,
895.8000000119209,,pt2_memorable_rating,1106891,Barnard,,50,,,2,,,,,,,,,,,,,,,
null,,confidence_buffer,1106993,confidence_buffer,,null,,,,,,,,,,,,,,,,,,
1784.300000011921,,recognition_phase,1108779,Barnard,,52,,,,,,new,1,0.9,,,,,,,,,,
null,,confidence_buffer,1108881,confidence_buffer,,null,,,,,,,,,,,,,,,,,,
null,,thebreak,1109384,break,,null,,,,,,,,,,,,,,,,,,
2058.400000035763,,realistic_rating,1111443,Oakridge,,53,Oakridge,Fictional,5,,,,,,,,,,,,,,,
null,,confidence_buffer,1111544,confidence_buffer,,null,,,,,,,,,,,,,,,,,,
1761.4000000357628,,pt2_unique_rating,1113307,Oakridge,,50,,,2,,,,,,,,,,,,,,,
null,,confidence_buffer,1113409,confidence_buffer,,null,,,,,,,,,,,,,,,,,,
1321.2000000476837,,pt2_memorable_rating,1114731,Oakridge,,50,,,2,,,,,,,,,,,,,,,
null,,confidence_buffer,1114832,confidence_buffer,,null,,,,,,,,,,,,,,,,,,
2889.600000023842,,recognition_phase,1117723,Oakridge,,49,,,,,,old,1,0.9024390243902439,,,,,,,,,,
null,,confidence_buffer,1117825,confidence_buffer,,null,,,,,,,,,,,,,,,,,,
null,,thebreak,1118326,break,,null,,,,,,,,,,,,,,,,,,
2483.699999988079,,realistic_rating,1120811,Coeur d'Alene,,49,Coeur d'Alene,US,1,,,,,,,,,,,,,,,
null,,confidence_buffer,1120913,confidence_buffer,,null,,,,,,,,,,,,,,,,,,
1832.8999999761581,,pt2_unique_rating,1122747,Coeur d'Alene,,53,,,5,,,,,,,,,,,,,,,
null,,confidence_buffer,1122849,confidence_buffer,,null,,,,,,,,,,,,,,,,,,
1088.199999988079,,pt2_memorable_rating,1123939,Coeur d'Alene,,53,,,5,,,,,,,,,,,,,,,
null,,confidence_buffer,1124040,confidence_buffer,,null,,,,,,,,,,,,,,,,,,
1881.5,,recognition_phase,1125923,Coeur d'Alene,,49,,,,,,old,1,0.9047619047619048,,,,,,,,,,
null,,confidence_buffer,1126024,confidence_buffer,,null,,,,,,,,,,,,,,,,,,
null,,thebreak,1126526,break,,null,,,,,,,,,,,,,,,,,,
4379.399999976158,,realistic_rating,1130906,Peoria,,53,Peoria,US,5,,,,,,,,,,,,,,,
null,,confidence_buffer,1131008,confidence_buffer,,null,,,,,,,,,,,,,,,,,,
3249.699999988079,,probe_rating,1134259,probe_rating,,52,,,,4,1,,,,,,,,,,,,,
null,,confidence_buffer,1134361,confidence_buffer,,null,,,,,,,,,,,,,,,,,,
3481.099999964237,,pt2_unique_rating,1137843,Peoria,,52,,,4,,,,,,,,,,,,,,,
null,,confidence_buffer,1137944,confidence_buffer,,null,,,,,,,,,,,,,,,,,,
2160.900000035763,,pt2_memorable_rating,1140106,Peoria,,52,,,4,,,,,,,,,,,,,,,
null,,confidence_buffer,1140208,confidence_buffer,,null,,,,,,,,,,,,,,,,,,
2329.600000023842,,recognition_phase,1142539,Peoria,,52,,,,,,new,1,0.9069767441860465,,,,,,,,,,
null,,confidence_buffer,1142640,confidence_buffer,,null,,,,,,,,,,,,,,,,,,
null,,thebreak,1143142,break,,null,,,,,,,,,,,,,,,,,,
1931.1000000238419,,realistic_rating,1145074,Carmel,,53,Carmel,US,5,,,,,,,,,,,,,,,
null,,confidence_buffer,1145176,confidence_buffer,,null,,,,,,,,,,,,,,,,,,
3129.199999988079,,pt2_unique_rating,1148307,Carmel,,53,,,5,,,,,,,,,,,,,,,
null,,confidence_buffer,1148408,confidence_buffer,,null,,,,,,,,,,,,,,,,,,
728.8000000119209,,pt2_memorable_rating,1149138,Carmel,,53,,,5,,,,,,,,,,,,,,,
null,,confidence_buffer,1149239,confidence_buffer,,null,,,,,,,,,,,,,,,,,,
1801.8999999761581,,recognition_phase,1151043,Carmel,,49,,,,,,old,1,0.9090909090909091,,,,,,,,,,
null,,confidence_buffer,1151144,confidence_buffer,,null,,,,,,,,,,,,,,,,,,
null,,thebreak,1151646,break,,null,,,,,,,,,,,,,,,,,,
3243.100000023842,,realistic_rating,1154890,Willowford,,53,Willowford,Fictional,5,,,,,,,,,,,,,,,
null,,confidence_buffer,1154991,confidence_buffer,,null,,,,,,,,,,,,,,,,,,
1883.4000000357628,,pt2_unique_rating,1156876,Willowford,,51,,,3,,,,,,,,,,,,,,,
null,,confidence_buffer,1156977,confidence_buffer,,null,,,,,,,,,,,,,,,,,,
3008.300000011921,,probe_rating,1159987,probe_rating,,50,,,,2,1,,,,,,,,,,,,,
null,,confidence_buffer,1160088,confidence_buffer,,null,,,,,,,,,,,,,,,,,,
2368.900000035763,,pt2_memorable_rating,1162458,Willowford,,50,,,2,,,,,,,,,,,,,,,
null,,confidence_buffer,1162561,confidence_buffer,,null,,,,,,,,,,,,,,,,,,
2146.300000011921,,recognition_phase,1164708,Willowford,,50,,,,,,old,1,0.9111111111111111,,,,,,,,,,
null,,confidence_buffer,1164809,confidence_buffer,,null,,,,,,,,,,,,,,,,,,
null,,thebreak,1165311,break,,null,,,,,,,,,,,,,,,,,,
3346.800000011921,,realistic_rating,1168659,Meadowspire,,50,Meadowspire,Fictional,2,,,,,,,,,,,,,,,
null,,confidence_buffer,1168760,confidence_buffer,,null,,,,,,,,,,,,,,,,,,
2112.5,,pt2_unique_rating,1170874,Meadowspire,,52,,,4,,,,,,,,,,,,,,,
null,,confidence_buffer,1170976,confidence_buffer,,null,,,,,,,,,,,,,,,,,,
2432.7999999523163,,probe_rating,1173410,probe_rating,,51,,,,3,1,,,,,,,,,,,,,
null,,confidence_buffer,1173512,confidence_buffer,,null,,,,,,,,,,,,,,,,,,
3849.300000011921,,pt2_memorable_rating,1177363,Meadowspire,,51,,,3,,,,,,,,,,,,,,,
null,,confidence_buffer,1177464,confidence_buffer,,null,,,,,,,,,,,,,,,,,,
2248.400000035763,,recognition_phase,1179714,Meadowspire,,52,,,,,,new,1,0.9130434782608695,,,,,,,,,,
null,,confidence_buffer,1179815,confidence_buffer,,null,,,,,,,,,,,,,,,,,,
null,,thebreak,1180317,break,,null,,,,,,,,,,,,,,,,,,
3228.2999999523163,,realistic_rating,1183547,Linden Trace,,50,Linden Trace,Fictional,2,,,,,,,,,,,,,,,
null,,confidence_buffer,1183648,confidence_buffer,,null,,,,,,,,,,,,,,,,,,
2017.0999999642372,,pt2_unique_rating,1185666,Linden Trace,,51,,,3,,,,,,,,,,,,,,,
null,,confidence_buffer,1185768,confidence_buffer,,null,,,,,,,,,,,,,,,,,,
2713.900000035763,,pt2_memorable_rating,1188482,Linden Trace,,51,,,3,,,,,,,,,,,,,,,
null,,confidence_buffer,1188584,confidence_buffer,,null,,,,,,,,,,,,,,,,,,
1728.800000011921,,recognition_phase,1190314,Linden Trace,,52,,,,,,new,1,0.9148936170212766,,,,,,,,,,
null,,confidence_buffer,1190416,confidence_buffer,,null,,,,,,,,,,,,,,,,,,
null,,thebreak,1190917,break,,null,,,,,,,,,,,,,,,,,,
2220.900000035763,,realistic_rating,1193139,Crestwood,,53,Crestwood,Fictional,5,,,,,,,,,,,,,,,
null,,confidence_buffer,1193241,confidence_buffer,,null,,,,,,,,,,,,,,,,,,
1992,,pt2_unique_rating,1195234,Crestwood,,49,,,1,,,,,,,,,,,,,,,
null,,confidence_buffer,1195336,confidence_buffer,,null,,,,,,,,,,,,,,,,,,
1697.5,,pt2_memorable_rating,1197034,Crestwood,,49,,,1,,,,,,,,,,,,,,,
null,,confidence_buffer,1197135,confidence_buffer,,null,,,,,,,,,,,,,,,,,,
2017.300000011921,,recognition_phase,1199154,Crestwood,,52,,,,,,new,1,0.9166666666666666,,,,,,,,,,
null,,confidence_buffer,1199256,confidence_buffer,,null,,,,,,,,,,,,,,,,,,
null,,thebreak,1199757,break,,null,,,,,,,,,,,,,,,,,,
2084.2000000476837,,realistic_rating,1201843,Boulder,,53,Boulder,US,5,,,,,,,,,,,,,,,
null,,confidence_buffer,1201944,confidence_buffer,,null,,,,,,,,,,,,,,,,,,
2457.399999976158,,pt2_unique_rating,1204402,Boulder,,51,,,3,,,,,,,,,,,,,,,
null,,confidence_buffer,1204504,confidence_buffer,,null,,,,,,,,,,,,,,,,,,
1322,,pt2_memorable_rating,1205827,Boulder,,51,,,3,,,,,,,,,,,,,,,
null,,confidence_buffer,1205928,confidence_buffer,,null,,,,,,,,,,,,,,,,,,
2889.100000023842,,probe_rating,1208819,probe_rating,,53,,,,5,1,,,,,,,,,,,,,
null,,confidence_buffer,1208920,confidence_buffer,,null,,,,,,,,,,,,,,,,,,
1809.1000000238419,,recognition_phase,1210730,Boulder,,52,,,,,,new,1,0.9183673469387755,,,,,,,,,,
null,,confidence_buffer,1210832,confidence_buffer,,null,,,,,,,,,,,,,,,,,,
null,,thebreak,1211333,break,,null,,,,,,,,,,,,,,,,,,
3484.2000000476837,,realistic_rating,1214818,Hot Springs,,53,Hot Springs,US,5,,,,,,,,,,,,,,,
null,,confidence_buffer,1214920,confidence_buffer,,null,,,,,,,,,,,,,,,,,,
2209.5,,pt2_unique_rating,1217130,Hot Springs,,51,,,3,,,,,,,,,,,,,,,
null,,confidence_buffer,1217232,confidence_buffer,,null,,,,,,,,,,,,,,,,,,
1617.699999988079,,pt2_memorable_rating,1218850,Hot Springs,,51,,,3,,,,,,,,,,,,,,,
null,,confidence_buffer,1218952,confidence_buffer,,null,,,,,,,,,,,,,,,,,,
1793.5,,recognition_phase,1220747,Hot Springs,,49,,,,,,old,1,0.92,,,,,,,,,,
null,,confidence_buffer,1220848,confidence_buffer,,null,,,,,,,,,,,,,,,,,,
null,,thebreak,1221349,break,,null,,,,,,,,,,,,,,,,,,
3732.5,,realistic_rating,1225083,Assateague Island,,50,Assateague Island,US,2,,,,,,,,,,,,,,,
null,,confidence_buffer,1225185,confidence_buffer,,null,,,,,,,,,,,,,,,,,,
2136.400000035763,,pt2_unique_rating,1227322,Assateague Island,,53,,,5,,,,,,,,,,,,,,,
null,,confidence_buffer,1227424,confidence_buffer,,null,,,,,,,,,,,,,,,,,,
2288.899999976158,,pt2_memorable_rating,1229714,Assateague Island,,53,,,5,,,,,,,,,,,,,,,
null,,confidence_buffer,1229815,confidence_buffer,,null,,,,,,,,,,,,,,,,,,
4114.100000023842,,recognition_phase,1233930,Assateague Island,,50,,,,,,old,0,0.9019607843137255,,,,,,,,,,
null,,confidence_buffer,1234032,confidence_buffer,,null,,,,,,,,,,,,,,,,,,
null,,thebreak,1234534,break,,null,,,,,,,,,,,,,,,,,,
3620.5,,realistic_rating,1238155,Solara Glen,,53,Solara Glen,Fictional,5,,,,,,,,,,,,,,,
null,,confidence_buffer,1238257,confidence_buffer,,null,,,,,,,,,,,,,,,,,,
2424.5,,pt2_unique_rating,1240682,Solara Glen,,51,,,3,,,,,,,,,,,,,,,
null,,confidence_buffer,1240784,confidence_buffer,,null,,,,,,,,,,,,,,,,,,
1793,,pt2_memorable_rating,1242578,Solara Glen,,50,,,2,,,,,,,,,,,,,,,
null,,confidence_buffer,1242680,confidence_buffer,,null,,,,,,,,,,,,,,,,,,
3832.300000011921,,recognition_phase,1246513,Solara Glen,,51,,,,,,new,1,0.9038461538461539,,,,,,,,,,
null,,confidence_buffer,1246614,confidence_buffer,,null,,,,,,,,,,,,,,,,,,
null,,thebreak,1247116,break,,null,,,,,,,,,,,,,,,,,,
2461.399999976158,,realistic_rating,1249579,Sisters,,49,Sisters,US,1,,,,,,,,,,,,,,,
null,,confidence_buffer,1249680,confidence_buffer,,null,,,,,,,,,,,,,,,,,,
2575.7999999523163,,pt2_unique_rating,1252257,Sisters,,52,,,4,,,,,,,,,,,,,,,
null,,confidence_buffer,1252358,confidence_buffer,,null,,,,,,,,,,,,,,,,,,
2475,,pt2_memorable_rating,1254834,Sisters,,52,,,4,,,,,,,,,,,,,,,
null,,confidence_buffer,1254936,confidence_buffer,,null,,,,,,,,,,,,,,,,,,
1722,,recognition_phase,1256659,Sisters,,52,,,,,,new,1,0.9056603773584906,,,,,,,,,,
null,,confidence_buffer,1256760,confidence_buffer,,null,,,,,,,,,,,,,,,,,,
null,,thebreak,1257261,break,,null,,,,,,,,,,,,,,,,,,
2396.199999988079,,realistic_rating,1259659,Maplehurst,,53,Maplehurst,Fictional,5,,,,,,,,,,,,,,,
null,,confidence_buffer,1259761,confidence_buffer,,null,,,,,,,,,,,,,,,,,,
2167.800000011921,,pt2_unique_rating,1261930,Maplehurst,,49,,,1,,,,,,,,,,,,,,,
null,,confidence_buffer,1262033,confidence_buffer,,null,,,,,,,,,,,,,,,,,,
2118.699999988079,,pt2_memorable_rating,1264153,Maplehurst,,49,,,1,,,,,,,,,,,,,,,
null,,confidence_buffer,1264254,confidence_buffer,,null,,,,,,,,,,,,,,,,,,
1915.4000000357628,,recognition_phase,1266170,Maplehurst,,50,,,,,,old,1,0.9074074074074074,,,,,,,,,,
null,,confidence_buffer,1266272,confidence_buffer,,null,,,,,,,,,,,,,,,,,,
null,,thebreak,1266774,break,,null,,,,,,,,,,,,,,,,,,
3396,,realistic_rating,1270171,Driftwood Bay,,52,Driftwood Bay,Fictional,4,,,,,,,,,,,,,,,
null,,confidence_buffer,1270274,confidence_buffer,,null,,,,,,,,,,,,,,,,,,
1758.9000000357628,,pt2_unique_rating,1272034,Driftwood Bay,,51,,,3,,,,,,,,,,,,,,,
null,,confidence_buffer,1272136,confidence_buffer,,null,,,,,,,,,,,,,,,,,,
2153.5,,pt2_memorable_rating,1274290,Driftwood Bay,,50,,,2,,,,,,,,,,,,,,,
null,,confidence_buffer,1274393,confidence_buffer,,null,,,,,,,,,,,,,,,,,,
2928.800000011921,,probe_rating,1277322,probe_rating,,52,,,,4,1,,,,,,,,,,,,,
null,,confidence_buffer,1277424,confidence_buffer,,null,,,,,,,,,,,,,,,,,,
1992.800000011921,,recognition_phase,1279418,Driftwood Bay,,52,,,,,,new,1,0.9090909090909091,,,,,,,,,,
null,,confidence_buffer,1279520,confidence_buffer,,null,,,,,,,,,,,,,,,,,,
null,,thebreak,1280023,break,,null,,,,,,,,,,,,,,,,,,
3268.100000023842,,realistic_rating,1283292,Leesburg,,53,Leesburg,US,5,,,,,,,,,,,,,,,
null,,confidence_buffer,1283394,confidence_buffer,,null,,,,,,,,,,,,,,,,,,
2503.399999976158,,pt2_unique_rating,1285898,Leesburg,,50,,,2,,,,,,,,,,,,,,,
null,,confidence_buffer,1286000,confidence_buffer,,null,,,,,,,,,,,,,,,,,,
3545.800000011921,,pt2_memorable_rating,1289546,Leesburg,,50,,,2,,,,,,,,,,,,,,,
null,,confidence_buffer,1289648,confidence_buffer,,null,,,,,,,,,,,,,,,,,,
2769.600000023842,,recognition_phase,1292418,Leesburg,,51,,,,,,new,1,0.9107142857142857,,,,,,,,,,
null,,confidence_buffer,1292521,confidence_buffer,,null,,,,,,,,,,,,,,,,,,
null,,thebreak,1293022,break,,null,,,,,,,,,,,,,,,,,,
3483.199999988079,,realistic_rating,1296506,Ravenport,,51,Ravenport,Fictional,3,,,,,,,,,,,,,,,
null,,confidence_buffer,1296608,confidence_buffer,,null,,,,,,,,,,,,,,,,,,
1697.9000000357628,,pt2_unique_rating,1298307,Ravenport,,50,,,2,,,,,,,,,,,,,,,
null,,confidence_buffer,1298409,confidence_buffer,,null,,,,,,,,,,,,,,,,,,
1343.800000011921,,pt2_memorable_rating,1299754,Ravenport,,50,,,2,,,,,,,,,,,,,,,
null,,confidence_buffer,1299855,confidence_buffer,,null,,,,,,,,,,,,,,,,,,
3113.800000011921,,recognition_phase,1302970,Ravenport,,51,,,,,,new,0,0.8947368421052632,,,,,,,,,,
null,,confidence_buffer,1303072,confidence_buffer,,null,,,,,,,,,,,,,,,,,,
null,,thebreak,1303573,break,,null,,,,,,,,,,,,,,,,,,
2099.800000011921,,realistic_rating,1305674,Gloucester,,53,Gloucester,US,5,,,,,,,,,,,,,,,
null,,confidence_buffer,1305776,confidence_buffer,,null,,,,,,,,,,,,,,,,,,
2481.399999976158,,pt2_unique_rating,1308258,Gloucester,,53,,,5,,,,,,,,,,,,,,,
null,,confidence_buffer,1308360,confidence_buffer,,null,,,,,,,,,,,,,,,,,,
1289.300000011921,,pt2_memorable_rating,1309650,Gloucester,,53,,,5,,,,,,,,,,,,,,,
null,,confidence_buffer,1309767,confidence_buffer,,null,,,,,,,,,,,,,,,,,,
2738.5,,probe_rating,1312506,probe_rating,,52,,,,4,1,,,,,,,,,,,,,
null,,confidence_buffer,1312609,confidence_buffer,,null,,,,,,,,,,,,,,,,,,
1943.800000011921,,recognition_phase,1314554,Gloucester,,49,,,,,,old,1,0.896551724137931,,,,,,,,,,
null,,confidence_buffer,1314655,confidence_buffer,,null,,,,,,,,,,,,,,,,,,
null,,thebreak,1315157,break,,null,,,,,,,,,,,,,,,,,,
3083.600000023842,,realistic_rating,1318242,Delaro Park,,52,Delaro Park,Fictional,4,,,,,,,,,,,,,,,
null,,confidence_buffer,1318344,confidence_buffer,,null,,,,,,,,,,,,,,,,,,
2369.100000023842,,probe_rating,1320714,probe_rating,,51,,,,3,1,,,,,,,,,,,,,
null,,confidence_buffer,1320816,confidence_buffer,,null,,,,,,,,,,,,,,,,,,
3048.2000000476837,,pt2_unique_rating,1323865,Delaro Park,,50,,,2,,,,,,,,,,,,,,,
null,,confidence_buffer,1323967,confidence_buffer,,null,,,,,,,,,,,,,,,,,,
1370.2000000476837,,pt2_memorable_rating,1325338,Delaro Park,,50,,,2,,,,,,,,,,,,,,,
null,,confidence_buffer,1325439,confidence_buffer,,null,,,,,,,,,,,,,,,,,,
3185.100000023842,,recognition_phase,1328626,Delaro Park,,50,,,,,,old,0,0.8813559322033898,,,,,,,,,,
null,,confidence_buffer,1328727,confidence_buffer,,null,,,,,,,,,,,,,,,,,,
null,,thebreak,1329228,break,,null,,,,,,,,,,,,,,,,,,
3452.099999964237,,realistic_rating,1332681,West Talora,,51,West Talora,Fictional,3,,,,,,,,,,,,,,,
null,,confidence_buffer,1332783,confidence_buffer,,null,,,,,,,,,,,,,,,,,,
2482.100000023842,,pt2_unique_rating,1335266,West Talora,,50,,,2,,,,,,,,,,,,,,,
null,,confidence_buffer,1335368,confidence_buffer,,null,,,,,,,,,,,,,,,,,,
1393.2999999523163,,pt2_memorable_rating,1336762,West Talora,,50,,,2,,,,,,,,,,,,,,,
null,,confidence_buffer,1336864,confidence_buffer,,null,,,,,,,,,,,,,,,,,,
1937.4000000357628,,recognition_phase,1338802,West Talora,,49,,,,,,old,1,0.8833333333333333,,,,,,,,,,
null,,confidence_buffer,1338904,confidence_buffer,,null,,,,,,,,,,,,,,,,,,
null,,thebreak,1339406,break,,null,,,,,,,,,,,,,,,,,,
,,survey,1638209,survey-questions,,,,,,,,,,,none,high,I was doing nothing else.,Just concentrating on the name of the city as I read it. Some were familiar, so easier to remember, and some stuck out because they were so unusual.,That's easy. I asked myself if I had heard of the city before. For example, I heard of Sitka, Alaska on a movie I watched with Ryan Reynolds in it.,I read the name again and just tried to guess if I would remember it later.,It wasn't just unique because I never heard of it before but because of unusual spellings or pronunciations.,That's easy. I asked myself, does it sound like the name of a real city or does it sound just made up.,I have never done a survey like this before.,Nothing, but thanks for asking.
