rt,responses,trial_type,time_elapsed,stimulus,button_pressed,key_press,name_trial,rating,probe,probe_accuracy,response,correct,accuracy
8220.799999982119,{worker_id:608437f0b139060610c9f0c1},id_enter,8222,,,,,,,,,,
9998.699999988079,,fullscreen,18223,fullscreen,0,,,,,,,,
7448.299999982119,,intro_0,25673,instruct,,32,,,,,,,
18780.19999998808,,intro_1,44453,instruct,,32,,,,,,,
7655.699999988079,,intro_2,52110,instruct,,32,,,,,,,
null,,instruct_dir_4,53611,instruct,,null,,,,,,,
null,,thebreak,54113,break,,null,,,,,,,
8234,,familiar_rating,62348,Cambridge,,52,Cambridge,4,,,,,
null,,confidence_buffer,62449,confidence_buffer,,null,,,,,,,
8124.699999988079,,unique_rating,70575,Cambridge,,50,,2,,,,,
null,,confidence_buffer,70675,confidence_buffer,,null,,,,,,,
2783,,probe_rating,73459,probe_rating,,52,,,4,1,,,
null,,confidence_buffer,73560,confidence_buffer,,null,,,,,,,
5527.5,,memorable_rating,79089,Cambridge,,51,,3,,,,,
null,,confidence_buffer,79190,confidence_buffer,,null,,,,,,,
null,,thebreak,79691,break,,null,,,,,,,
4093.9000000059605,,familiar_rating,83785,Altoona,,50,Altoona,2,,,,,
null,,confidence_buffer,83886,confidence_buffer,,null,,,,,,,
4327.199999988079,,unique_rating,88214,Altoona,,53,,5,,,,,
null,,confidence_buffer,88315,confidence_buffer,,null,,,,,,,
5804.200000017881,,memorable_rating,94120,Altoona,,51,,3,,,,,
null,,confidence_buffer,94221,confidence_buffer,,null,,,,,,,
null,,thebreak,94723,break,,null,,,,,,,
3975.5,,familiar_rating,98699,Cheyenne,,53,Cheyenne,5,,,,,
null,,confidence_buffer,98800,confidence_buffer,,null,,,,,,,
2463.899999976158,,unique_rating,101264,Cheyenne,,53,,5,,,,,
null,,confidence_buffer,101366,confidence_buffer,,null,,,,,,,
4340.800000011921,,memorable_rating,105707,Cheyenne,,52,,4,,,,,
null,,confidence_buffer,105808,confidence_buffer,,null,,,,,,,
null,,thebreak,106309,break,,null,,,,,,,
4236.300000011921,,familiar_rating,110546,Terre Haute,,52,Terre Haute,4,,,,,
null,,confidence_buffer,110648,confidence_buffer,,null,,,,,,,
4074.399999976158,,probe_rating,114723,probe_rating,,52,,,4,1,,,
null,,confidence_buffer,114823,confidence_buffer,,null,,,,,,,
5138.800000011921,,unique_rating,119963,Terre Haute,,52,,4,,,,,
null,,confidence_buffer,120065,confidence_buffer,,null,,,,,,,
4100.9000000059605,,memorable_rating,124166,Terre Haute,,53,,5,,,,,
null,,confidence_buffer,124277,confidence_buffer,,null,,,,,,,
null,,thebreak,124778,break,,null,,,,,,,
3035,,familiar_rating,127814,Boulder,,52,Boulder,4,,,,,
null,,confidence_buffer,127926,confidence_buffer,,null,,,,,,,
5021.5999999940395,,unique_rating,132949,Boulder,,53,,5,,,,,
null,,confidence_buffer,133050,confidence_buffer,,null,,,,,,,
2212.7999999821186,,memorable_rating,135264,Boulder,,51,,3,,,,,
null,,confidence_buffer,135366,confidence_buffer,,null,,,,,,,
null,,thebreak,135867,break,,null,,,,,,,
2956.9000000059605,,familiar_rating,138824,Pasadena,,53,Pasadena,5,,,,,
null,,confidence_buffer,138926,confidence_buffer,,null,,,,,,,
1882,,unique_rating,140808,Pasadena,,52,,4,,,,,
null,,confidence_buffer,140922,confidence_buffer,,null,,,,,,,
3610.5,,memorable_rating,144534,Pasadena,,53,,5,,,,,
null,,confidence_buffer,144636,confidence_buffer,,null,,,,,,,
null,,thebreak,145138,break,,null,,,,,,,
3892,,familiar_rating,149030,Bozeman,,51,Bozeman,3,,,,,
null,,confidence_buffer,149131,confidence_buffer,,null,,,,,,,
2918.199999988079,,unique_rating,152050,Bozeman,,53,,5,,,,,
null,,confidence_buffer,152164,confidence_buffer,,null,,,,,,,
1868.5,,memorable_rating,154033,Bozeman,,52,,4,,,,,
null,,confidence_buffer,154135,confidence_buffer,,null,,,,,,,
null,,thebreak,154636,break,,null,,,,,,,
2810.5999999940395,,familiar_rating,157447,Carson City,,53,Carson City,5,,,,,
null,,confidence_buffer,157549,confidence_buffer,,null,,,,,,,
3085.4000000059605,,unique_rating,160635,Carson City,,52,,4,,,,,
null,,confidence_buffer,160737,confidence_buffer,,null,,,,,,,
1672.7000000178814,,memorable_rating,162410,Carson City,,53,,5,,,,,
null,,confidence_buffer,162511,confidence_buffer,,null,,,,,,,
null,,thebreak,163012,break,,null,,,,,,,
4094.2000000178814,,familiar_rating,167107,Salem,,52,Salem,4,,,,,
null,,confidence_buffer,167209,confidence_buffer,,null,,,,,,,
6785.5999999940395,,unique_rating,173996,Salem,,50,,2,,,,,
null,,confidence_buffer,174097,confidence_buffer,,null,,,,,,,
1804.199999988079,,memorable_rating,175902,Salem,,51,,3,,,,,
null,,confidence_buffer,176003,confidence_buffer,,null,,,,,,,
null,,thebreak,176505,break,,null,,,,,,,
11332.40000000596,,familiar_rating,187838,Athens,,53,Athens,5,,,,,
null,,confidence_buffer,187939,confidence_buffer,,null,,,,,,,
597.2000000178814,,unique_rating,188537,Athens,,53,,5,,,,,
null,,confidence_buffer,188638,confidence_buffer,,null,,,,,,,
1226.5,,memorable_rating,189865,Athens,,53,,5,,,,,
null,,confidence_buffer,189967,confidence_buffer,,null,,,,,,,
null,,thebreak,190468,break,,null,,,,,,,
2893.0999999940395,,familiar_rating,193362,Helena,,52,Helena,4,,,,,
null,,confidence_buffer,193474,confidence_buffer,,null,,,,,,,
1465.800000011921,,unique_rating,194941,Helena,,53,,5,,,,,
null,,confidence_buffer,195056,confidence_buffer,,null,,,,,,,
4074.7999999821186,,memorable_rating,199131,Helena,,52,,4,,,,,
null,,confidence_buffer,199233,confidence_buffer,,null,,,,,,,
null,,thebreak,199734,break,,null,,,,,,,
1950.7999999821186,,familiar_rating,201685,Bellingham,,51,Bellingham,3,,,,,
null,,confidence_buffer,201786,confidence_buffer,,null,,,,,,,
2239.4000000059605,,unique_rating,204026,Bellingham,,51,,3,,,,,
null,,confidence_buffer,204127,confidence_buffer,,null,,,,,,,
2569.199999988079,,probe_rating,206697,probe_rating,,53,,,5,1,,,
null,,confidence_buffer,206799,confidence_buffer,,null,,,,,,,
4055.9000000059605,,memorable_rating,210856,Bellingham,,52,,4,,,,,
null,,confidence_buffer,210957,confidence_buffer,,null,,,,,,,
null,,thebreak,211459,break,,null,,,,,,,
4187.300000011921,,familiar_rating,215647,Hagerstown,,51,Hagerstown,3,,,,,
null,,confidence_buffer,215748,confidence_buffer,,null,,,,,,,
2546,,unique_rating,218295,Hagerstown,,51,,3,,,,,
null,,confidence_buffer,218397,confidence_buffer,,null,,,,,,,
2845.7999999821186,,memorable_rating,221243,Hagerstown,,52,,4,,,,,
null,,confidence_buffer,221345,confidence_buffer,,null,,,,,,,
null,,thebreak,221846,break,,null,,,,,,,
1910,,familiar_rating,223757,Berkeley,,53,Berkeley,5,,,,,
null,,confidence_buffer,223858,confidence_buffer,,null,,,,,,,
1824.5,,unique_rating,225683,Berkeley,,51,,3,,,,,
null,,confidence_buffer,225785,confidence_buffer,,null,,,,,,,
1296.4000000059605,,memorable_rating,227082,Berkeley,,52,,4,,,,,
null,,confidence_buffer,227184,confidence_buffer,,null,,,,,,,
null,,thebreak,227685,break,,null,,,,,,,
1968.5,,familiar_rating,229654,Topeka,,53,Topeka,5,,,,,
null,,confidence_buffer,229755,confidence_buffer,,null,,,,,,,
1692.2000000178814,,unique_rating,231448,Topeka,,53,,5,,,,,
null,,confidence_buffer,231549,confidence_buffer,,null,,,,,,,
1194.300000011921,,memorable_rating,232744,Topeka,,52,,4,,,,,
null,,confidence_buffer,232846,confidence_buffer,,null,,,,,,,
null,,thebreak,233347,break,,null,,,,,,,
1833.7999999821186,,familiar_rating,235182,Concord,,51,Concord,3,,,,,
null,,confidence_buffer,235283,confidence_buffer,,null,,,,,,,
3892.9000000059605,,unique_rating,239176,Concord,,51,,3,,,,,
null,,confidence_buffer,239278,confidence_buffer,,null,,,,,,,
2162.0999999940395,,memorable_rating,241441,Concord,,52,,4,,,,,
null,,confidence_buffer,241542,confidence_buffer,,null,,,,,,,
null,,thebreak,242043,break,,null,,,,,,,
3923.300000011921,,familiar_rating,245967,New Haven,,52,New Haven,4,,,,,
null,,confidence_buffer,246076,confidence_buffer,,null,,,,,,,
2391.9000000059605,,unique_rating,248469,New Haven,,52,,4,,,,,
null,,confidence_buffer,248569,confidence_buffer,,null,,,,,,,
1565.9000000059605,,memorable_rating,250136,New Haven,,51,,3,,,,,
null,,confidence_buffer,250237,confidence_buffer,,null,,,,,,,
null,,thebreak,250739,break,,null,,,,,,,
3236.2000000178814,,familiar_rating,253976,Santa Monica,,53,Santa Monica,5,,,,,
null,,confidence_buffer,254077,confidence_buffer,,null,,,,,,,
835.8999999761581,,probe_rating,254913,probe_rating,,52,,,4,0,,,
null,,confidence_buffer,255015,confidence_buffer,,null,,,,,,,
5288.0999999940395,,unique_rating,260303,Santa Monica,,50,,2,,,,,
null,,confidence_buffer,260404,confidence_buffer,,null,,,,,,,
4263.699999988079,,memorable_rating,264668,Santa Monica,,52,,4,,,,,
null,,confidence_buffer,264769,confidence_buffer,,null,,,,,,,
null,,thebreak,265271,break,,null,,,,,,,
4152.699999988079,,familiar_rating,269425,Dubuque,,52,Dubuque,4,,,,,
null,,confidence_buffer,269526,confidence_buffer,,null,,,,,,,
2118.5999999940395,,unique_rating,271645,Dubuque,,53,,5,,,,,
null,,confidence_buffer,271750,confidence_buffer,,null,,,,,,,
2128.5999999940395,,probe_rating,273879,probe_rating,,53,,,5,1,,,
null,,confidence_buffer,273980,confidence_buffer,,null,,,,,,,
2454.9000000059605,,memorable_rating,276436,Dubuque,,51,,3,,,,,
null,,confidence_buffer,276537,confidence_buffer,,null,,,,,,,
null,,thebreak,277038,break,,null,,,,,,,
3234.0999999940395,,familiar_rating,280273,Dothan,,53,Dothan,5,,,,,
null,,confidence_buffer,280378,confidence_buffer,,null,,,,,,,
3007,,unique_rating,283386,Dothan,,52,,4,,,,,
null,,confidence_buffer,283487,confidence_buffer,,null,,,,,,,
4307.299999982119,,memorable_rating,287795,Dothan,,51,,3,,,,,
null,,confidence_buffer,287898,confidence_buffer,,null,,,,,,,
null,,thebreak,288399,break,,null,,,,,,,
2482.7999999821186,,familiar_rating,290882,Burlington,,52,Burlington,4,,,,,
null,,confidence_buffer,290984,confidence_buffer,,null,,,,,,,
2125.7999999821186,,unique_rating,293111,Burlington,,50,,2,,,,,
null,,confidence_buffer,293211,confidence_buffer,,null,,,,,,,
1591.2999999821186,,memorable_rating,294804,Burlington,,50,,2,,,,,
null,,confidence_buffer,294905,confidence_buffer,,null,,,,,,,
null,,thebreak,295406,break,,null,,,,,,,
2846,,familiar_rating,298253,Toledo,,52,Toledo,4,,,,,
null,,confidence_buffer,298354,confidence_buffer,,null,,,,,,,
1407.4000000059605,,unique_rating,299762,Toledo,,51,,3,,,,,
null,,confidence_buffer,299863,confidence_buffer,,null,,,,,,,
1667.4000000059605,,memorable_rating,301531,Toledo,,50,,2,,,,,
null,,confidence_buffer,301632,confidence_buffer,,null,,,,,,,
null,,thebreak,302134,break,,null,,,,,,,
3081.199999988079,,familiar_rating,305215,Dover,,53,Dover,5,,,,,
null,,confidence_buffer,305317,confidence_buffer,,null,,,,,,,
2187,,unique_rating,307505,Dover,,51,,3,,,,,
null,,confidence_buffer,307606,confidence_buffer,,null,,,,,,,
1895.2000000178814,,probe_rating,309501,probe_rating,,50,,,2,1,,,
null,,confidence_buffer,309603,confidence_buffer,,null,,,,,,,
2378.4000000059605,,memorable_rating,311982,Dover,,51,,3,,,,,
null,,confidence_buffer,312083,confidence_buffer,,null,,,,,,,
null,,thebreak,312584,break,,null,,,,,,,
3458.199999988079,,familiar_rating,316043,Yakima,,51,Yakima,3,,,,,
null,,confidence_buffer,316145,confidence_buffer,,null,,,,,,,
1778.800000011921,,unique_rating,317925,Yakima,,53,,5,,,,,
null,,confidence_buffer,318026,confidence_buffer,,null,,,,,,,
1666.5,,memorable_rating,319693,Yakima,,52,,4,,,,,
null,,confidence_buffer,319794,confidence_buffer,,null,,,,,,,
null,,thebreak,320296,break,,null,,,,,,,
3433.7999999821186,,familiar_rating,323731,Ann Arbor,,52,Ann Arbor,4,,,,,
null,,confidence_buffer,323832,confidence_buffer,,null,,,,,,,
2414.399999976158,,unique_rating,326247,Ann Arbor,,51,,3,,,,,
null,,confidence_buffer,326348,confidence_buffer,,null,,,,,,,
1643.300000011921,,memorable_rating,327992,Ann Arbor,,51,,3,,,,,
null,,confidence_buffer,328093,confidence_buffer,,null,,,,,,,
null,,thebreak,328594,break,,null,,,,,,,
7095.199999988079,,intro_0,335690,instruct,,32,,,,,,,
7964.0999999940395,,intro_1,343654,instruct,,32,,,,,,,
1034.5,,intro_2,344689,instruct,,32,,,,,,,
null,,instruct_dir_4,346190,instruct,,null,,,,,,,
8785.09999999404,,realistic_rating,354976,Olympia,,51,Olympia,3,,,,,
null,,confidence_buffer,355077,confidence_buffer,,null,,,,,,,
2516.7999999821186,,pt2_unique_rating,357595,Olympia,,52,,4,,,,,
null,,confidence_buffer,357697,confidence_buffer,,null,,,,,,,
4354.299999982119,,pt2_memorable_rating,362051,Olympia,,50,,2,,,,,
null,,confidence_buffer,362153,confidence_buffer,,null,,,,,,,
6768.200000017881,,recognition_phase,368922,Olympia,,52,,,,,new,1,1
null,,confidence_buffer,369023,confidence_buffer,,null,,,,,,,
null,,thebreak,369524,break,,null,,,,,,,
2962.399999976158,,realistic_rating,372488,Youngstown,,51,Youngstown,3,,,,,
null,,confidence_buffer,372589,confidence_buffer,,null,,,,,,,
1134.9000000059605,,pt2_unique_rating,373725,Youngstown,,52,,4,,,,,
null,,confidence_buffer,373827,confidence_buffer,,null,,,,,,,
826.5999999940395,,pt2_memorable_rating,374654,Youngstown,,51,,3,,,,,
null,,confidence_buffer,374755,confidence_buffer,,null,,,,,,,
4537.799999982119,,recognition_phase,379293,Youngstown,,52,,,,,new,1,1
null,,confidence_buffer,379395,confidence_buffer,,null,,,,,,,
null,,thebreak,379896,break,,null,,,,,,,
6416.800000011921,,realistic_rating,386313,Fort Collins,,53,Fort Collins,5,,,,,
null,,confidence_buffer,386415,confidence_buffer,,null,,,,,,,
1062.9000000059605,,pt2_unique_rating,387479,Fort Collins,,51,,3,,,,,
null,,confidence_buffer,387581,confidence_buffer,,null,,,,,,,
3082,,pt2_memorable_rating,390663,Fort Collins,,51,,3,,,,,
null,,confidence_buffer,390765,confidence_buffer,,null,,,,,,,
3512.5,,recognition_phase,394278,Fort Collins,,52,,,,,new,1,1
null,,confidence_buffer,394380,confidence_buffer,,null,,,,,,,
null,,thebreak,394882,break,,null,,,,,,,
4996.699999988079,,realistic_rating,399879,Helena,,53,Helena,5,,,,,
null,,confidence_buffer,399981,confidence_buffer,,null,,,,,,,
2037,,pt2_unique_rating,402018,Helena,,51,,3,,,,,
null,,confidence_buffer,402119,confidence_buffer,,null,,,,,,,
3794,,pt2_memorable_rating,405913,Helena,,51,,3,,,,,
null,,confidence_buffer,406016,confidence_buffer,,null,,,,,,,
1810.4000000059605,,recognition_phase,407827,Helena,,49,,,,,old,1,1
null,,confidence_buffer,407930,confidence_buffer,,null,,,,,,,
null,,thebreak,408431,break,,null,,,,,,,
2475.5999999940395,,realistic_rating,410907,Stamford,,52,Stamford,4,,,,,
null,,confidence_buffer,411009,confidence_buffer,,null,,,,,,,
796.5,,pt2_unique_rating,411806,Stamford,,51,,3,,,,,
null,,confidence_buffer,411907,confidence_buffer,,null,,,,,,,
1155.5,,pt2_memorable_rating,413063,Stamford,,51,,3,,,,,
null,,confidence_buffer,413165,confidence_buffer,,null,,,,,,,
3400.800000011921,,recognition_phase,416567,Stamford,,52,,,,,new,1,1
null,,confidence_buffer,416668,confidence_buffer,,null,,,,,,,
null,,thebreak,417172,break,,null,,,,,,,
2012.8999999761581,,realistic_rating,419186,Annapolis,,53,Annapolis,5,,,,,
null,,confidence_buffer,419297,confidence_buffer,,null,,,,,,,
858.9000000059605,,pt2_unique_rating,420156,Annapolis,,51,,3,,,,,
null,,confidence_buffer,420270,confidence_buffer,,null,,,,,,,
439,,probe_rating,420710,probe_rating,,52,,,4,0,,,
null,,confidence_buffer,420811,confidence_buffer,,null,,,,,,,
3552.399999976158,,pt2_memorable_rating,424364,Annapolis,,51,,3,,,,,
null,,confidence_buffer,424466,confidence_buffer,,null,,,,,,,
4243.5,,recognition_phase,428710,Annapolis,,52,,,,,new,1,1
null,,confidence_buffer,428811,confidence_buffer,,null,,,,,,,
null,,thebreak,429311,break,,null,,,,,,,
2545.600000023842,,realistic_rating,431858,Dubuque,,53,Dubuque,5,,,,,
null,,confidence_buffer,431959,confidence_buffer,,null,,,,,,,
1602.699999988079,,pt2_unique_rating,433562,Dubuque,,53,,5,,,,,
null,,confidence_buffer,433664,confidence_buffer,,null,,,,,,,
514.8000000119209,,pt2_memorable_rating,434179,Dubuque,,52,,4,,,,,
null,,confidence_buffer,434280,confidence_buffer,,null,,,,,,,
4412.299999982119,,recognition_phase,438693,Dubuque,,52,,,,,new,0,0.8571428571428571
null,,confidence_buffer,438793,confidence_buffer,,null,,,,,,,
null,,thebreak,439294,break,,null,,,,,,,
3617.9000000059605,,realistic_rating,442913,Boise,,52,Boise,4,,,,,
null,,confidence_buffer,443014,confidence_buffer,,null,,,,,,,
472.90000000596046,,pt2_unique_rating,443488,Boise,,53,,5,,,,,
null,,confidence_buffer,443589,confidence_buffer,,null,,,,,,,
721.7999999821186,,pt2_memorable_rating,444311,Boise,,51,,3,,,,,
null,,confidence_buffer,444412,confidence_buffer,,null,,,,,,,
3484.9000000059605,,recognition_phase,447898,Boise,,52,,,,,new,1,0.875
null,,confidence_buffer,447999,confidence_buffer,,null,,,,,,,
null,,thebreak,448500,break,,null,,,,,,,
2878.5,,realistic_rating,451379,Newport News,,53,Newport News,5,,,,,
null,,confidence_buffer,451480,confidence_buffer,,null,,,,,,,
717.5999999940395,,pt2_unique_rating,452198,Newport News,,51,,3,,,,,
null,,confidence_buffer,452300,confidence_buffer,,null,,,,,,,
548.3000000119209,,pt2_memorable_rating,452848,Newport News,,52,,4,,,,,
null,,confidence_buffer,452950,confidence_buffer,,null,,,,,,,
2058.5,,recognition_phase,455009,Newport News,,52,,,,,new,1,0.8888888888888888
null,,confidence_buffer,455110,confidence_buffer,,null,,,,,,,
null,,thebreak,455613,break,,null,,,,,,,
3449,,realistic_rating,459062,Terre Haute,,52,Terre Haute,4,,,,,
null,,confidence_buffer,459164,confidence_buffer,,null,,,,,,,
380,,pt2_unique_rating,459544,Terre Haute,,51,,3,,,,,
null,,confidence_buffer,459645,confidence_buffer,,null,,,,,,,
505,,pt2_memorable_rating,460151,Terre Haute,,50,,2,,,,,
null,,confidence_buffer,460252,confidence_buffer,,null,,,,,,,
2569.4000000059605,,recognition_phase,462822,Terre Haute,,49,,,,,old,1,0.9
null,,confidence_buffer,462923,confidence_buffer,,null,,,,,,,
null,,thebreak,463424,break,,null,,,,,,,
2302.5999999940395,,realistic_rating,465727,Cheyenne,,52,Cheyenne,4,,,,,
null,,confidence_buffer,465829,confidence_buffer,,null,,,,,,,
504.80000001192093,,pt2_unique_rating,466334,Cheyenne,,53,,5,,,,,
null,,confidence_buffer,466435,confidence_buffer,,null,,,,,,,
785.2000000178814,,pt2_memorable_rating,467221,Cheyenne,,52,,4,,,,,
null,,confidence_buffer,467323,confidence_buffer,,null,,,,,,,
3348,,recognition_phase,470672,Cheyenne,,49,,,,,old,1,0.9090909090909091
null,,confidence_buffer,470773,confidence_buffer,,null,,,,,,,
null,,thebreak,471275,break,,null,,,,,,,
2257.5,,realistic_rating,473533,Santa Monica,,53,Santa Monica,5,,,,,
null,,confidence_buffer,473634,confidence_buffer,,null,,,,,,,
529,,pt2_unique_rating,474164,Santa Monica,,52,,4,,,,,
null,,confidence_buffer,474266,confidence_buffer,,null,,,,,,,
606.1999999880791,,pt2_memorable_rating,474872,Santa Monica,,53,,5,,,,,
null,,confidence_buffer,474974,confidence_buffer,,null,,,,,,,
5844.0999999940395,,recognition_phase,480819,Santa Monica,,49,,,,,old,1,0.9166666666666666
null,,confidence_buffer,480927,confidence_buffer,,null,,,,,,,
null,,thebreak,481429,break,,null,,,,,,,
1375.0999999940395,,realistic_rating,482804,Berkeley,,51,Berkeley,3,,,,,
null,,confidence_buffer,482906,confidence_buffer,,null,,,,,,,
365.19999998807907,,pt2_unique_rating,483272,Berkeley,,52,,4,,,,,
null,,confidence_buffer,483374,confidence_buffer,,null,,,,,,,
382.80000001192093,,pt2_memorable_rating,483758,Berkeley,,53,,5,,,,,
null,,confidence_buffer,483860,confidence_buffer,,null,,,,,,,
2778.4000000059605,,recognition_phase,486639,Berkeley,,49,,,,,old,1,0.9230769230769231
null,,confidence_buffer,486740,confidence_buffer,,null,,,,,,,
null,,thebreak,487241,break,,null,,,,,,,
3454.9000000059605,,realistic_rating,490696,Decatur,,53,Decatur,5,,,,,
null,,confidence_buffer,490798,confidence_buffer,,null,,,,,,,
535.0999999940395,,pt2_unique_rating,491334,Decatur,,52,,4,,,,,
null,,confidence_buffer,491435,confidence_buffer,,null,,,,,,,
1040.800000011921,,pt2_memorable_rating,492476,Decatur,,51,,3,,,,,
null,,confidence_buffer,492579,confidence_buffer,,null,,,,,,,
2603.2000000178814,,probe_rating,495183,probe_rating,,53,,,5,1,,,
null,,confidence_buffer,495284,confidence_buffer,,null,,,,,,,
4374.5999999940395,,recognition_phase,499660,Decatur,,52,,,,,new,1,0.9285714285714286
null,,confidence_buffer,499762,confidence_buffer,,null,,,,,,,
null,,thebreak,500263,break,,null,,,,,,,
3522.199999988079,,realistic_rating,503786,Bellingham,,52,Bellingham,4,,,,,
null,,confidence_buffer,503888,confidence_buffer,,null,,,,,,,
556.6999999880791,,pt2_unique_rating,504445,Bellingham,,53,,5,,,,,
null,,confidence_buffer,504546,confidence_buffer,,null,,,,,,,
1558.199999988079,,pt2_memorable_rating,506104,Bellingham,,51,,3,,,,,
null,,confidence_buffer,506206,confidence_buffer,,null,,,,,,,
3579.0999999940395,,recognition_phase,509786,Bellingham,,52,,,,,new,0,0.8666666666666667
null,,confidence_buffer,509887,confidence_buffer,,null,,,,,,,
null,,thebreak,510388,break,,null,,,,,,,
2824.9000000059605,,realistic_rating,513213,Boulder,,52,Boulder,4,,,,,
null,,confidence_buffer,513321,confidence_buffer,,null,,,,,,,
436.80000001192093,,probe_rating,513759,probe_rating,,51,,,3,0,,,
null,,confidence_buffer,513860,confidence_buffer,,null,,,,,,,
589.3999999761581,,pt2_unique_rating,514450,Boulder,,52,,4,,,,,
null,,confidence_buffer,514566,confidence_buffer,,null,,,,,,,
2622.2999999821186,,pt2_memorable_rating,517189,Boulder,,52,,4,,,,,
null,,confidence_buffer,517290,confidence_buffer,,null,,,,,,,
3930.9000000059605,,recognition_phase,521222,Boulder,,49,,,,,old,1,0.875
null,,confidence_buffer,521323,confidence_buffer,,null,,,,,,,
null,,thebreak,521824,break,,null,,,,,,,
3057.4000000059605,,realistic_rating,524882,Ann Arbor,,52,Ann Arbor,4,,,,,
null,,confidence_buffer,524998,confidence_buffer,,null,,,,,,,
380.30000001192093,,pt2_unique_rating,525379,Ann Arbor,,53,,5,,,,,
null,,confidence_buffer,525480,confidence_buffer,,null,,,,,,,
497.59999999403954,,pt2_memorable_rating,525978,Ann Arbor,,52,,4,,,,,
null,,confidence_buffer,526079,confidence_buffer,,null,,,,,,,
2450.2000000178814,,recognition_phase,528530,Ann Arbor,,49,,,,,old,1,0.8823529411764706
null,,confidence_buffer,528631,confidence_buffer,,null,,,,,,,
null,,thebreak,529133,break,,null,,,,,,,
3004.5999999940395,,realistic_rating,532138,Gainesville,,52,Gainesville,4,,,,,
null,,confidence_buffer,532239,confidence_buffer,,null,,,,,,,
1035.5,,pt2_unique_rating,533275,Gainesville,,53,,5,,,,,
null,,confidence_buffer,533376,confidence_buffer,,null,,,,,,,
693.5,,pt2_memorable_rating,534070,Gainesville,,53,,5,,,,,
null,,confidence_buffer,534172,confidence_buffer,,null,,,,,,,
5139.200000017881,,recognition_phase,539312,Gainesville,,52,,,,,new,1,0.8888888888888888
null,,confidence_buffer,539414,confidence_buffer,,null,,,,,,,
null,,thebreak,539915,break,,null,,,,,,,
1941.4000000059605,,realistic_rating,541857,Carson City,,51,Carson City,3,,,,,
null,,confidence_buffer,541959,confidence_buffer,,null,,,,,,,
920.9000000059605,,pt2_unique_rating,542880,Carson City,,52,,4,,,,,
null,,confidence_buffer,542982,confidence_buffer,,null,,,,,,,
1165.300000011921,,pt2_memorable_rating,544148,Carson City,,52,,4,,,,,
null,,confidence_buffer,544249,confidence_buffer,,null,,,,,,,
2737.0999999940395,,recognition_phase,546987,Carson City,,49,,,,,old,1,0.8947368421052632
null,,confidence_buffer,547088,confidence_buffer,,null,,,,,,,
null,,thebreak,547589,break,,null,,,,,,,
1620,,realistic_rating,549210,Rock Springs,,51,Rock Springs,3,,,,,
null,,confidence_buffer,549310,confidence_buffer,,null,,,,,,,
610.7000000178814,,pt2_unique_rating,549922,Rock Springs,,52,,4,,,,,
null,,confidence_buffer,550023,confidence_buffer,,null,,,,,,,
575.2000000178814,,pt2_memorable_rating,550599,Rock Springs,,52,,4,,,,,
null,,confidence_buffer,550709,confidence_buffer,,null,,,,,,,
5127.200000017881,,recognition_phase,555837,Rock Springs,,52,,,,,new,1,0.9
null,,confidence_buffer,555946,confidence_buffer,,null,,,,,,,
null,,thebreak,556447,break,,null,,,,,,,
2601.0999999940395,,realistic_rating,559048,Scottsdale,,51,Scottsdale,3,,,,,
null,,confidence_buffer,559163,confidence_buffer,,null,,,,,,,
1584.5,,pt2_unique_rating,560748,Scottsdale,,52,,4,,,,,
null,,confidence_buffer,560850,confidence_buffer,,null,,,,,,,
1055.9000000059605,,pt2_memorable_rating,561906,Scottsdale,,51,,3,,,,,
null,,confidence_buffer,562008,confidence_buffer,,null,,,,,,,
3588.4000000059605,,recognition_phase,565597,Scottsdale,,52,,,,,new,1,0.9047619047619048
null,,confidence_buffer,565703,confidence_buffer,,null,,,,,,,
null,,thebreak,566204,break,,null,,,,,,,
3244.4000000059605,,realistic_rating,569449,New Haven,,51,New Haven,3,,,,,
null,,confidence_buffer,569550,confidence_buffer,,null,,,,,,,
599.9000000059605,,pt2_unique_rating,570150,New Haven,,50,,2,,,,,
null,,confidence_buffer,570251,confidence_buffer,,null,,,,,,,
2391,,probe_rating,572642,probe_rating,,53,,,5,1,,,
null,,confidence_buffer,572744,confidence_buffer,,null,,,,,,,
12766.200000017881,,pt2_memorable_rating,585511,New Haven,,51,,3,,,,,
null,,confidence_buffer,585612,confidence_buffer,,null,,,,,,,
4919.399999976158,,recognition_phase,590532,New Haven,,52,,,,,new,0,0.8636363636363636
null,,confidence_buffer,590634,confidence_buffer,,null,,,,,,,
null,,thebreak,591135,break,,null,,,,,,,
2697.4000000059605,,realistic_rating,593833,Abilene,,51,Abilene,3,,,,,
null,,confidence_buffer,593934,confidence_buffer,,null,,,,,,,
751.2000000178814,,pt2_unique_rating,594686,Abilene,,52,,4,,,,,
null,,confidence_buffer,594788,confidence_buffer,,null,,,,,,,
485.10000002384186,,pt2_memorable_rating,595274,Abilene,,51,,3,,,,,
null,,confidence_buffer,595375,confidence_buffer,,null,,,,,,,
4104.5,,recognition_phase,599480,Abilene,,52,,,,,new,1,0.8695652173913043
null,,confidence_buffer,599581,confidence_buffer,,null,,,,,,,
null,,thebreak,600083,break,,null,,,,,,,
9155.09999999404,,realistic_rating,609239,Marquette,,51,Marquette,3,,,,,
null,,confidence_buffer,609340,confidence_buffer,,null,,,,,,,
1096.8999999761581,,pt2_unique_rating,610437,Marquette,,52,,4,,,,,
null,,confidence_buffer,610539,confidence_buffer,,null,,,,,,,
1231.9000000059605,,pt2_memorable_rating,611771,Marquette,,52,,4,,,,,
null,,confidence_buffer,611872,confidence_buffer,,null,,,,,,,
2122.399999976158,,probe_rating,613996,probe_rating,,49,,,1,1,,,
null,,confidence_buffer,614097,confidence_buffer,,null,,,,,,,
4165.800000011921,,recognition_phase,618263,Marquette,,52,,,,,new,1,0.875
null,,confidence_buffer,618364,confidence_buffer,,null,,,,,,,
null,,thebreak,618866,break,,null,,,,,,,
2836.100000023842,,realistic_rating,621703,Bozeman,,51,Bozeman,3,,,,,
null,,confidence_buffer,621815,confidence_buffer,,null,,,,,,,
740.2999999821186,,pt2_unique_rating,622556,Bozeman,,51,,3,,,,,
null,,confidence_buffer,622658,confidence_buffer,,null,,,,,,,
3701.4000000059605,,pt2_memorable_rating,626360,Bozeman,,51,,3,,,,,
null,,confidence_buffer,626462,confidence_buffer,,null,,,,,,,
4846.5,,recognition_phase,631309,Bozeman,,52,,,,,new,0,0.84
null,,confidence_buffer,631410,confidence_buffer,,null,,,,,,,
null,,thebreak,631910,break,,null,,,,,,,
2450.9000000059605,,realistic_rating,634362,Ithaca,,51,Ithaca,3,,,,,
null,,confidence_buffer,634463,confidence_buffer,,null,,,,,,,
1762.2000000178814,,pt2_unique_rating,636226,Ithaca,,50,,2,,,,,
null,,confidence_buffer,636328,confidence_buffer,,null,,,,,,,
711.0999999940395,,pt2_memorable_rating,637040,Ithaca,,51,,3,,,,,
null,,confidence_buffer,637141,confidence_buffer,,null,,,,,,,
3232.4000000059605,,recognition_phase,640374,Ithaca,,52,,,,,new,1,0.8461538461538461
null,,confidence_buffer,640475,confidence_buffer,,null,,,,,,,
null,,thebreak,640976,break,,null,,,,,,,
2948.7000000178814,,realistic_rating,643926,Altoona,,51,Altoona,3,,,,,
null,,confidence_buffer,644027,confidence_buffer,,null,,,,,,,
390.59999999403954,,pt2_unique_rating,644419,Altoona,,50,,2,,,,,
null,,confidence_buffer,644520,confidence_buffer,,null,,,,,,,
409.40000000596046,,pt2_memorable_rating,644930,Altoona,,51,,3,,,,,
null,,confidence_buffer,645031,confidence_buffer,,null,,,,,,,
3705,,recognition_phase,648737,Altoona,,49,,,,,old,1,0.8518518518518519
null,,confidence_buffer,648838,confidence_buffer,,null,,,,,,,
null,,thebreak,649339,break,,null,,,,,,,
2452.7000000178814,,realistic_rating,651793,Concord,,51,Concord,3,,,,,
null,,confidence_buffer,651895,confidence_buffer,,null,,,,,,,
461.59999999403954,,pt2_unique_rating,652357,Concord,,50,,2,,,,,
null,,confidence_buffer,652459,confidence_buffer,,null,,,,,,,
354.59999999403954,,pt2_memorable_rating,652814,Concord,,51,,3,,,,,
null,,confidence_buffer,652915,confidence_buffer,,null,,,,,,,
3678.800000011921,,recognition_phase,656594,Concord,,49,,,,,old,1,0.8571428571428571
null,,confidence_buffer,656696,confidence_buffer,,null,,,,,,,
null,,thebreak,657197,break,,null,,,,,,,
1953.300000011921,,realistic_rating,659151,Topeka,,51,Topeka,3,,,,,
null,,confidence_buffer,659252,confidence_buffer,,null,,,,,,,
895.3000000119209,,pt2_unique_rating,660148,Topeka,,52,,4,,,,,
null,,confidence_buffer,660249,confidence_buffer,,null,,,,,,,
628.4000000059605,,pt2_memorable_rating,660878,Topeka,,51,,3,,,,,
null,,confidence_buffer,660979,confidence_buffer,,null,,,,,,,
1659.800000011921,,recognition_phase,662639,Topeka,,49,,,,,old,1,0.8620689655172413
null,,confidence_buffer,662740,confidence_buffer,,null,,,,,,,
null,,thebreak,663241,break,,null,,,,,,,
1976.0999999940395,,realistic_rating,665218,Muncie,,51,Muncie,3,,,,,
null,,confidence_buffer,665319,confidence_buffer,,null,,,,,,,
433.5,,pt2_unique_rating,665753,Muncie,,52,,4,,,,,
null,,confidence_buffer,665855,confidence_buffer,,null,,,,,,,
607.5999999940395,,pt2_memorable_rating,666463,Muncie,,51,,3,,,,,
null,,confidence_buffer,666565,confidence_buffer,,null,,,,,,,
2354.4000000059605,,recognition_phase,668920,Muncie,,52,,,,,new,1,0.8666666666666667
null,,confidence_buffer,669022,confidence_buffer,,null,,,,,,,
null,,thebreak,669523,break,,null,,,,,,,
2371.699999988079,,realistic_rating,671896,Pasadena,,50,Pasadena,2,,,,,
null,,confidence_buffer,671997,confidence_buffer,,null,,,,,,,
335.5,,pt2_unique_rating,672333,Pasadena,,51,,3,,,,,
null,,confidence_buffer,672434,confidence_buffer,,null,,,,,,,
538,,pt2_memorable_rating,672973,Pasadena,,50,,2,,,,,
null,,confidence_buffer,673074,confidence_buffer,,null,,,,,,,
3661.0999999940395,,recognition_phase,676736,Pasadena,,49,,,,,old,1,0.8709677419354839
null,,confidence_buffer,676837,confidence_buffer,,null,,,,,,,
null,,thebreak,677339,break,,null,,,,,,,
2001.0999999940395,,realistic_rating,679341,Hagerstown,,51,Hagerstown,3,,,,,
null,,confidence_buffer,679442,confidence_buffer,,null,,,,,,,
582.8999999761581,,pt2_unique_rating,680025,Hagerstown,,52,,4,,,,,
null,,confidence_buffer,680126,confidence_buffer,,null,,,,,,,
336.59999999403954,,pt2_memorable_rating,680464,Hagerstown,,51,,3,,,,,
null,,confidence_buffer,680564,confidence_buffer,,null,,,,,,,
4396.199999988079,,recognition_phase,684961,Hagerstown,,52,,,,,new,0,0.84375
null,,confidence_buffer,685063,confidence_buffer,,null,,,,,,,
null,,thebreak,685564,break,,null,,,,,,,
2063.5999999940395,,realistic_rating,687629,Dothan,,51,Dothan,3,,,,,
null,,confidence_buffer,687730,confidence_buffer,,null,,,,,,,
579.5,,pt2_unique_rating,688310,Dothan,,50,,2,,,,,
null,,confidence_buffer,688412,confidence_buffer,,null,,,,,,,
623.3000000119209,,pt2_memorable_rating,689036,Dothan,,51,,3,,,,,
null,,confidence_buffer,689137,confidence_buffer,,null,,,,,,,
1875.5999999940395,,recognition_phase,691014,Dothan,,49,,,,,old,1,0.8484848484848485
null,,confidence_buffer,691115,confidence_buffer,,null,,,,,,,
null,,thebreak,691631,break,,null,,,,,,,
2646.7000000178814,,realistic_rating,694279,Dover,,52,Dover,4,,,,,
null,,confidence_buffer,694380,confidence_buffer,,null,,,,,,,
749.7000000178814,,pt2_unique_rating,695130,Dover,,52,,4,,,,,
null,,confidence_buffer,695231,confidence_buffer,,null,,,,,,,
1034.5999999940395,,pt2_memorable_rating,696266,Dover,,51,,3,,,,,
null,,confidence_buffer,696368,confidence_buffer,,null,,,,,,,
2456.2000000178814,,recognition_phase,698825,Dover,,49,,,,,old,1,0.8529411764705882
null,,confidence_buffer,698926,confidence_buffer,,null,,,,,,,
null,,thebreak,699427,break,,null,,,,,,,
2565.300000011921,,realistic_rating,701993,Reno,,51,Reno,3,,,,,
null,,confidence_buffer,702103,confidence_buffer,,null,,,,,,,
715.5999999940395,,pt2_unique_rating,702819,Reno,,51,,3,,,,,
null,,confidence_buffer,702920,confidence_buffer,,null,,,,,,,
823.4000000059605,,pt2_memorable_rating,703744,Reno,,52,,4,,,,,
null,,confidence_buffer,703845,confidence_buffer,,null,,,,,,,
13832.40000000596,,recognition_phase,717678,Reno,,52,,,,,new,1,0.8571428571428571
null,,confidence_buffer,717779,confidence_buffer,,null,,,,,,,
null,,thebreak,718282,break,,null,,,,,,,
2492.9000000059605,,realistic_rating,720775,Burlington,,51,Burlington,3,,,,,
null,,confidence_buffer,720877,confidence_buffer,,null,,,,,,,
361.5,,pt2_unique_rating,721239,Burlington,,50,,2,,,,,
null,,confidence_buffer,721341,confidence_buffer,,null,,,,,,,
783,,pt2_memorable_rating,722125,Burlington,,51,,3,,,,,
null,,confidence_buffer,722227,confidence_buffer,,null,,,,,,,
2884.0999999940395,,recognition_phase,725112,Burlington,,49,,,,,old,1,0.8611111111111112
null,,confidence_buffer,725214,confidence_buffer,,null,,,,,,,
null,,thebreak,725715,break,,null,,,,,,,
2744.199999988079,,realistic_rating,728460,Syracuse,,51,Syracuse,3,,,,,
null,,confidence_buffer,728561,confidence_buffer,,null,,,,,,,
528.5,,pt2_unique_rating,729090,Syracuse,,52,,4,,,,,
null,,confidence_buffer,729192,confidence_buffer,,null,,,,,,,
2257,,probe_rating,731450,probe_rating,,49,,,1,0,,,
