rt,responses,trial_type,time_elapsed,stimulus,button_pressed,key_press,name_trial,city_type,rating,probe,probe_accuracy,response,correct,accuracy,problems,smooth,distraction,strategies,familiar,memorable,unique,realistic,similar,comments
4642,{worker_id:6134d8a566bc3dffe880e879},id_enter,4643,,,,,,,,,,,,,,,,,,,,,
8702,,fullscreen,13348,fullscreen,0,,,,,,,,,,,,,,,,,,,
2645,,intro_0,15996,instruct,,32,,,,,,,,,,,,,,,,,,
6021,,intro_1,22018,instruct,,32,,,,,,,,,,,,,,,,,,
152709,,intro_2,174728,instruct,,32,,,,,,,,,,,,,,,,,,
null,,instruct_dir_4,176242,instruct,,null,,,,,,,,,,,,,,,,,,
null,,thebreak,176755,break,,null,,,,,,,,,,,,,,,,,,
16290,,familiar_rating,193047,Healdsburg,,50,Healdsburg,US,2,,,,,,,,,,,,,,,
null,,confidence_buffer,193152,confidence_buffer,,null,,,,,,,,,,,,,,,,,,
8052,,unique_rating,201206,Healdsburg,,50,,,2,,,,,,,,,,,,,,,
null,,confidence_buffer,201314,confidence_buffer,,null,,,,,,,,,,,,,,,,,,
6054,,memorable_rating,207370,Healdsburg,,51,,,3,,,,,,,,,,,,,,,
null,,confidence_buffer,207475,confidence_buffer,,null,,,,,,,,,,,,,,,,,,
null,,thebreak,207986,break,,null,,,,,,,,,,,,,,,,,,
13129,,familiar_rating,221116,Sisters,,49,Sisters,US,1,,,,,,,,,,,,,,,
null,,confidence_buffer,221220,confidence_buffer,,null,,,,,,,,,,,,,,,,,,
5197,,unique_rating,226417,Sisters,,52,,,4,,,,,,,,,,,,,,,
null,,confidence_buffer,226528,confidence_buffer,,null,,,,,,,,,,,,,,,,,,
3648,,memorable_rating,230177,Sisters,,52,,,4,,,,,,,,,,,,,,,
null,,confidence_buffer,230293,confidence_buffer,,null,,,,,,,,,,,,,,,,,,
null,,thebreak,230803,break,,null,,,,,,,,,,,,,,,,,,
4521,,familiar_rating,235325,Clearbrook,,52,Clearbrook,Fictional,4,,,,,,,,,,,,,,,
null,,confidence_buffer,235438,confidence_buffer,,null,,,,,,,,,,,,,,,,,,
1902,,unique_rating,237342,Clearbrook,,49,,,1,,,,,,,,,,,,,,,
null,,confidence_buffer,237446,confidence_buffer,,null,,,,,,,,,,,,,,,,,,
4674,,memorable_rating,242121,Clearbrook,,50,,,2,,,,,,,,,,,,,,,
null,,confidence_buffer,242228,confidence_buffer,,null,,,,,,,,,,,,,,,,,,
null,,thebreak,242742,break,,null,,,,,,,,,,,,,,,,,,
5180,,familiar_rating,247922,Yukon,,52,Yukon,US,4,,,,,,,,,,,,,,,
null,,confidence_buffer,248030,confidence_buffer,,null,,,,,,,,,,,,,,,,,,
2483,,unique_rating,250513,Yukon,,51,,,3,,,,,,,,,,,,,,,
null,,confidence_buffer,250618,confidence_buffer,,null,,,,,,,,,,,,,,,,,,
2865,,memorable_rating,253484,Yukon,,51,,,3,,,,,,,,,,,,,,,
null,,confidence_buffer,253590,confidence_buffer,,null,,,,,,,,,,,,,,,,,,
null,,thebreak,254102,break,,null,,,,,,,,,,,,,,,,,,
3075,,familiar_rating,257177,Fairhaven,,50,Fairhaven,Fictional,2,,,,,,,,,,,,,,,
null,,confidence_buffer,257279,confidence_buffer,,null,,,,,,,,,,,,,,,,,,
1400,,unique_rating,258680,Fairhaven,,50,,,2,,,,,,,,,,,,,,,
null,,confidence_buffer,258784,confidence_buffer,,null,,,,,,,,,,,,,,,,,,
5504,,memorable_rating,264289,Fairhaven,,50,,,2,,,,,,,,,,,,,,,
null,,confidence_buffer,264397,confidence_buffer,,null,,,,,,,,,,,,,,,,,,
null,,thebreak,264909,break,,null,,,,,,,,,,,,,,,,,,
3929,,familiar_rating,268839,Hawthorne Bluffs,,49,Hawthorne Bluffs,Fictional,1,,,,,,,,,,,,,,,
null,,confidence_buffer,268952,confidence_buffer,,null,,,,,,,,,,,,,,,,,,
2356,,unique_rating,271309,Hawthorne Bluffs,,52,,,4,,,,,,,,,,,,,,,
null,,confidence_buffer,271417,confidence_buffer,,null,,,,,,,,,,,,,,,,,,
4108,,memorable_rating,275527,Hawthorne Bluffs,,52,,,4,,,,,,,,,,,,,,,
null,,confidence_buffer,275631,confidence_buffer,,null,,,,,,,,,,,,,,,,,,
null,,thebreak,276144,break,,null,,,,,,,,,,,,,,,,,,
2088,,familiar_rating,278232,Bayshore Haven,,50,Bayshore Haven,Fictional,2,,,,,,,,,,,,,,,
null,,confidence_buffer,278344,confidence_buffer,,null,,,,,,,,,,,,,,,,,,
2265,,unique_rating,280609,Bayshore Haven,,50,,,2,,,,,,,,,,,,,,,
null,,confidence_buffer,280712,confidence_buffer,,null,,,,,,,,,,,,,,,,,,
1354,,memorable_rating,282065,Bayshore Haven,,50,,,2,,,,,,,,,,,,,,,
null,,confidence_buffer,282173,confidence_buffer,,null,,,,,,,,,,,,,,,,,,
null,,thebreak,282686,break,,null,,,,,,,,,,,,,,,,,,
3403,,familiar_rating,286091,Ravenport,,49,Ravenport,Fictional,1,,,,,,,,,,,,,,,
null,,confidence_buffer,286192,confidence_buffer,,null,,,,,,,,,,,,,,,,,,
1668,,unique_rating,287862,Ravenport,,50,,,2,,,,,,,,,,,,,,,
null,,confidence_buffer,287968,confidence_buffer,,null,,,,,,,,,,,,,,,,,,
4883,,memorable_rating,292851,Ravenport,,50,,,2,,,,,,,,,,,,,,,
null,,confidence_buffer,292953,confidence_buffer,,null,,,,,,,,,,,,,,,,,,
null,,thebreak,293469,break,,null,,,,,,,,,,,,,,,,,,
33762,,familiar_rating,327232,Abilene,,52,Abilene,US,4,,,,,,,,,,,,,,,
null,,confidence_buffer,327339,confidence_buffer,,null,,,,,,,,,,,,,,,,,,
4683,,unique_rating,332024,Abilene,,50,,,2,,,,,,,,,,,,,,,
null,,confidence_buffer,332129,confidence_buffer,,null,,,,,,,,,,,,,,,,,,
1998,,memorable_rating,334128,Abilene,,51,,,3,,,,,,,,,,,,,,,
null,,confidence_buffer,334230,confidence_buffer,,null,,,,,,,,,,,,,,,,,,
null,,thebreak,334743,break,,null,,,,,,,,,,,,,,,,,,
4293,,familiar_rating,339037,Coralridge,,49,Coralridge,Fictional,1,,,,,,,,,,,,,,,
null,,confidence_buffer,339142,confidence_buffer,,null,,,,,,,,,,,,,,,,,,
1216,,unique_rating,340358,Coralridge,,50,,,2,,,,,,,,,,,,,,,
null,,confidence_buffer,340473,confidence_buffer,,null,,,,,,,,,,,,,,,,,,
2742,,memorable_rating,343216,Coralridge,,50,,,2,,,,,,,,,,,,,,,
null,,confidence_buffer,343331,confidence_buffer,,null,,,,,,,,,,,,,,,,,,
null,,thebreak,343834,break,,null,,,,,,,,,,,,,,,,,,
4249,,familiar_rating,348084,Pine Hollow,,51,Pine Hollow,Fictional,3,,,,,,,,,,,,,,,
null,,confidence_buffer,348188,confidence_buffer,,null,,,,,,,,,,,,,,,,,,
2009,,unique_rating,350199,Pine Hollow,,50,,,2,,,,,,,,,,,,,,,
null,,confidence_buffer,350303,confidence_buffer,,null,,,,,,,,,,,,,,,,,,
4032,,memorable_rating,354336,Pine Hollow,,50,,,2,,,,,,,,,,,,,,,
null,,confidence_buffer,354442,confidence_buffer,,null,,,,,,,,,,,,,,,,,,
null,,thebreak,354953,break,,null,,,,,,,,,,,,,,,,,,
6570,,familiar_rating,361524,Claywater,,49,Claywater,Fictional,1,,,,,,,,,,,,,,,
null,,confidence_buffer,361631,confidence_buffer,,null,,,,,,,,,,,,,,,,,,
2026,,unique_rating,363659,Claywater,,50,,,2,,,,,,,,,,,,,,,
null,,confidence_buffer,363767,confidence_buffer,,null,,,,,,,,,,,,,,,,,,
1179,,memorable_rating,364947,Claywater,,50,,,2,,,,,,,,,,,,,,,
null,,confidence_buffer,365051,confidence_buffer,,null,,,,,,,,,,,,,,,,,,
null,,thebreak,365551,break,,null,,,,,,,,,,,,,,,,,,
4277,,familiar_rating,369828,Lake of the Ozarks,,49,Lake of the Ozarks,US,1,,,,,,,,,,,,,,,
null,,confidence_buffer,369936,confidence_buffer,,null,,,,,,,,,,,,,,,,,,
2373,,probe_rating,372310,probe_rating,,53,,,,5,1,,,,,,,,,,,,,
null,,confidence_buffer,372422,confidence_buffer,,null,,,,,,,,,,,,,,,,,,
7373,,unique_rating,379796,Lake of the Ozarks,,51,,,3,,,,,,,,,,,,,,,
null,,confidence_buffer,379910,confidence_buffer,,null,,,,,,,,,,,,,,,,,,
5087,,memorable_rating,384999,Lake of the Ozarks,,52,,,4,,,,,,,,,,,,,,,
null,,confidence_buffer,385111,confidence_buffer,,null,,,,,,,,,,,,,,,,,,
null,,thebreak,385618,break,,null,,,,,,,,,,,,,,,,,,
2472,,familiar_rating,388091,Albuquerque,,53,Albuquerque,US,5,,,,,,,,,,,,,,,
null,,confidence_buffer,388195,confidence_buffer,,null,,,,,,,,,,,,,,,,,,
3791,,unique_rating,391986,Albuquerque,,51,,,3,,,,,,,,,,,,,,,
null,,confidence_buffer,392096,confidence_buffer,,null,,,,,,,,,,,,,,,,,,
1534,,memorable_rating,393631,Albuquerque,,52,,,4,,,,,,,,,,,,,,,
null,,confidence_buffer,393736,confidence_buffer,,null,,,,,,,,,,,,,,,,,,
null,,thebreak,394247,break,,null,,,,,,,,,,,,,,,,,,
5126,,familiar_rating,399373,Bowling Green,,51,Bowling Green,US,3,,,,,,,,,,,,,,,
null,,confidence_buffer,399486,confidence_buffer,,null,,,,,,,,,,,,,,,,,,
3752,,unique_rating,403239,Bowling Green,,53,,,5,,,,,,,,,,,,,,,
null,,confidence_buffer,403354,confidence_buffer,,null,,,,,,,,,,,,,,,,,,
4072,,memorable_rating,407427,Bowling Green,,52,,,4,,,,,,,,,,,,,,,
null,,confidence_buffer,407538,confidence_buffer,,null,,,,,,,,,,,,,,,,,,
null,,thebreak,408050,break,,null,,,,,,,,,,,,,,,,,,
4407,,familiar_rating,412460,Hilo,,49,Hilo,US,1,,,,,,,,,,,,,,,
null,,confidence_buffer,412564,confidence_buffer,,null,,,,,,,,,,,,,,,,,,
2267,,unique_rating,414831,Hilo,,52,,,4,,,,,,,,,,,,,,,
null,,confidence_buffer,414936,confidence_buffer,,null,,,,,,,,,,,,,,,,,,
8555,,memorable_rating,423492,Hilo,,52,,,4,,,,,,,,,,,,,,,
null,,confidence_buffer,423595,confidence_buffer,,null,,,,,,,,,,,,,,,,,,
null,,thebreak,424108,break,,null,,,,,,,,,,,,,,,,,,
3984,,familiar_rating,428093,Juniper Creek,,52,Juniper Creek,Fictional,4,,,,,,,,,,,,,,,
null,,confidence_buffer,428203,confidence_buffer,,null,,,,,,,,,,,,,,,,,,
1444,,unique_rating,429648,Juniper Creek,,50,,,2,,,,,,,,,,,,,,,
null,,confidence_buffer,429759,confidence_buffer,,null,,,,,,,,,,,,,,,,,,
871,,memorable_rating,430632,Juniper Creek,,51,,,3,,,,,,,,,,,,,,,
null,,confidence_buffer,430732,confidence_buffer,,null,,,,,,,,,,,,,,,,,,
null,,thebreak,431246,break,,null,,,,,,,,,,,,,,,,,,
1837,,familiar_rating,433085,Riverlyn,,49,Riverlyn,Fictional,1,,,,,,,,,,,,,,,
null,,confidence_buffer,433202,confidence_buffer,,null,,,,,,,,,,,,,,,,,,
1256,,unique_rating,434459,Riverlyn,,49,,,1,,,,,,,,,,,,,,,
null,,confidence_buffer,434567,confidence_buffer,,null,,,,,,,,,,,,,,,,,,
879,,memorable_rating,435446,Riverlyn,,49,,,1,,,,,,,,,,,,,,,
null,,confidence_buffer,435559,confidence_buffer,,null,,,,,,,,,,,,,,,,,,
null,,thebreak,436070,break,,null,,,,,,,,,,,,,,,,,,
2385,,familiar_rating,438456,Delaware City,,50,Delaware City,US,2,,,,,,,,,,,,,,,
null,,confidence_buffer,438564,confidence_buffer,,null,,,,,,,,,,,,,,,,,,
1496,,unique_rating,440060,Delaware City,,49,,,1,,,,,,,,,,,,,,,
null,,confidence_buffer,440163,confidence_buffer,,null,,,,,,,,,,,,,,,,,,
1009,,memorable_rating,441173,Delaware City,,50,,,2,,,,,,,,,,,,,,,
null,,confidence_buffer,441285,confidence_buffer,,null,,,,,,,,,,,,,,,,,,
null,,thebreak,441797,break,,null,,,,,,,,,,,,,,,,,,
2330,,familiar_rating,444129,Meadowspire,,50,Meadowspire,Fictional,2,,,,,,,,,,,,,,,
null,,confidence_buffer,444236,confidence_buffer,,null,,,,,,,,,,,,,,,,,,
545,,unique_rating,444781,Meadowspire,,49,,,1,,,,,,,,,,,,,,,
null,,confidence_buffer,444893,confidence_buffer,,null,,,,,,,,,,,,,,,,,,
428,,memorable_rating,445321,Meadowspire,,49,,,1,,,,,,,,,,,,,,,
null,,confidence_buffer,445435,confidence_buffer,,null,,,,,,,,,,,,,,,,,,
null,,thebreak,445948,break,,null,,,,,,,,,,,,,,,,,,
2698,,familiar_rating,448647,Berkeley Springs,,50,Berkeley Springs,US,2,,,,,,,,,,,,,,,
null,,confidence_buffer,448754,confidence_buffer,,null,,,,,,,,,,,,,,,,,,
1819,,probe_rating,450574,probe_rating,,52,,,,4,1,,,,,,,,,,,,,
null,,confidence_buffer,450676,confidence_buffer,,null,,,,,,,,,,,,,,,,,,
2685,,unique_rating,453362,Berkeley Springs,,49,,,1,,,,,,,,,,,,,,,
null,,confidence_buffer,453467,confidence_buffer,,null,,,,,,,,,,,,,,,,,,
1048,,memorable_rating,454517,Berkeley Springs,,49,,,1,,,,,,,,,,,,,,,
null,,confidence_buffer,454619,confidence_buffer,,null,,,,,,,,,,,,,,,,,,
null,,thebreak,455134,break,,null,,,,,,,,,,,,,,,,,,
2952,,familiar_rating,458088,Racine,,52,Racine,US,4,,,,,,,,,,,,,,,
null,,confidence_buffer,458198,confidence_buffer,,null,,,,,,,,,,,,,,,,,,
2054,,unique_rating,460253,Racine,,51,,,3,,,,,,,,,,,,,,,
null,,confidence_buffer,460364,confidence_buffer,,null,,,,,,,,,,,,,,,,,,
1343,,memorable_rating,461708,Racine,,52,,,4,,,,,,,,,,,,,,,
null,,confidence_buffer,461811,confidence_buffer,,null,,,,,,,,,,,,,,,,,,
null,,thebreak,462324,break,,null,,,,,,,,,,,,,,,,,,
15189,,familiar_rating,477514,North Arroya,,49,North Arroya,Fictional,1,,,,,,,,,,,,,,,
null,,confidence_buffer,477621,confidence_buffer,,null,,,,,,,,,,,,,,,,,,
833,,unique_rating,478456,North Arroya,,49,,,1,,,,,,,,,,,,,,,
null,,confidence_buffer,478571,confidence_buffer,,null,,,,,,,,,,,,,,,,,,
833,,memorable_rating,479405,North Arroya,,49,,,1,,,,,,,,,,,,,,,
null,,confidence_buffer,479520,confidence_buffer,,null,,,,,,,,,,,,,,,,,,
null,,thebreak,480032,break,,null,,,,,,,,,,,,,,,,,,
4322,,familiar_rating,484354,Cornwall,,50,Cornwall,US,2,,,,,,,,,,,,,,,
null,,confidence_buffer,484455,confidence_buffer,,null,,,,,,,,,,,,,,,,,,
1228,,unique_rating,485685,Cornwall,,50,,,2,,,,,,,,,,,,,,,
null,,confidence_buffer,485797,confidence_buffer,,null,,,,,,,,,,,,,,,,,,
416,,memorable_rating,486214,Cornwall,,50,,,2,,,,,,,,,,,,,,,
null,,confidence_buffer,486322,confidence_buffer,,null,,,,,,,,,,,,,,,,,,
null,,thebreak,486836,break,,null,,,,,,,,,,,,,,,,,,
1378,,familiar_rating,488215,Linden Trace,,49,Linden Trace,Fictional,1,,,,,,,,,,,,,,,
null,,confidence_buffer,488333,confidence_buffer,,null,,,,,,,,,,,,,,,,,,
767,,unique_rating,489101,Linden Trace,,49,,,1,,,,,,,,,,,,,,,
null,,confidence_buffer,489204,confidence_buffer,,null,,,,,,,,,,,,,,,,,,
663,,memorable_rating,489867,Linden Trace,,49,,,1,,,,,,,,,,,,,,,
null,,confidence_buffer,489968,confidence_buffer,,null,,,,,,,,,,,,,,,,,,
null,,thebreak,490473,break,,null,,,,,,,,,,,,,,,,,,
2073,,familiar_rating,492546,Hanover,,49,Hanover,US,1,,,,,,,,,,,,,,,
null,,confidence_buffer,492661,confidence_buffer,,null,,,,,,,,,,,,,,,,,,
2521,,unique_rating,495183,Hanover,,51,,,3,,,,,,,,,,,,,,,
null,,confidence_buffer,495297,confidence_buffer,,null,,,,,,,,,,,,,,,,,,
1564,,memorable_rating,496863,Hanover,,51,,,3,,,,,,,,,,,,,,,
null,,confidence_buffer,496977,confidence_buffer,,null,,,,,,,,,,,,,,,,,,
1972,,probe_rating,498950,probe_rating,,53,,,,5,1,,,,,,,,,,,,,
null,,confidence_buffer,499051,confidence_buffer,,null,,,,,,,,,,,,,,,,,,
null,,thebreak,499564,break,,null,,,,,,,,,,,,,,,,,,
5135,,familiar_rating,504700,Gloucester,,50,Gloucester,US,2,,,,,,,,,,,,,,,
null,,confidence_buffer,504814,confidence_buffer,,null,,,,,,,,,,,,,,,,,,
1403,,unique_rating,506219,Gloucester,,50,,,2,,,,,,,,,,,,,,,
null,,confidence_buffer,506331,confidence_buffer,,null,,,,,,,,,,,,,,,,,,
2112,,memorable_rating,508444,Gloucester,,51,,,3,,,,,,,,,,,,,,,
null,,confidence_buffer,508559,confidence_buffer,,null,,,,,,,,,,,,,,,,,,
null,,thebreak,509071,break,,null,,,,,,,,,,,,,,,,,,
3597,,familiar_rating,512670,Elmsbury,,50,Elmsbury,Fictional,2,,,,,,,,,,,,,,,
null,,confidence_buffer,512786,confidence_buffer,,null,,,,,,,,,,,,,,,,,,
1088,,unique_rating,513876,Elmsbury,,49,,,1,,,,,,,,,,,,,,,
null,,confidence_buffer,513979,confidence_buffer,,null,,,,,,,,,,,,,,,,,,
1888,,memorable_rating,515866,Elmsbury,,50,,,2,,,,,,,,,,,,,,,
null,,confidence_buffer,515968,confidence_buffer,,null,,,,,,,,,,,,,,,,,,
null,,thebreak,516479,break,,null,,,,,,,,,,,,,,,,,,
3798,,familiar_rating,520278,Summershade,,49,Summershade,Fictional,1,,,,,,,,,,,,,,,
null,,confidence_buffer,520379,confidence_buffer,,null,,,,,,,,,,,,,,,,,,
1057,,unique_rating,521436,Summershade,,50,,,2,,,,,,,,,,,,,,,
null,,confidence_buffer,521548,confidence_buffer,,null,,,,,,,,,,,,,,,,,,
1888,,memorable_rating,523438,Summershade,,51,,,3,,,,,,,,,,,,,,,
null,,confidence_buffer,523550,confidence_buffer,,null,,,,,,,,,,,,,,,,,,
null,,thebreak,524062,break,,null,,,,,,,,,,,,,,,,,,
5544,,familiar_rating,529608,Assateague Island,,49,Assateague Island,US,1,,,,,,,,,,,,,,,
null,,confidence_buffer,529714,confidence_buffer,,null,,,,,,,,,,,,,,,,,,
3433,,unique_rating,533148,Assateague Island,,53,,,5,,,,,,,,,,,,,,,
null,,confidence_buffer,533262,confidence_buffer,,null,,,,,,,,,,,,,,,,,,
2002,,memorable_rating,535266,Assateague Island,,50,,,2,,,,,,,,,,,,,,,
null,,confidence_buffer,535375,confidence_buffer,,null,,,,,,,,,,,,,,,,,,
null,,thebreak,535888,break,,null,,,,,,,,,,,,,,,,,,
4223,,intro_0,540112,instruct,,32,,,,,,,,,,,,,,,,,,
5142,,intro_1,545256,instruct,,32,,,,,,,,,,,,,,,,,,
7459,,intro_2,552715,instruct,,32,,,,,,,,,,,,,,,,,,
null,,instruct_dir_4,554217,instruct,,null,,,,,,,,,,,,,,,,,,
8061,,realistic_rating,562279,Summershade,,51,Summershade,Fictional,3,,,,,,,,,,,,,,,
null,,confidence_buffer,562382,confidence_buffer,,null,,,,,,,,,,,,,,,,,,
2988,,pt2_unique_rating,565371,Summershade,,52,,,4,,,,,,,,,,,,,,,
null,,confidence_buffer,565476,confidence_buffer,,null,,,,,,,,,,,,,,,,,,
2467,,pt2_memorable_rating,567945,Summershade,,52,,,4,,,,,,,,,,,,,,,
null,,confidence_buffer,568045,confidence_buffer,,null,,,,,,,,,,,,,,,,,,
4201,,recognition_phase,572248,Summershade,,49,,,,,,old,1,1,,,,,,,,,,
null,,confidence_buffer,572363,confidence_buffer,,null,,,,,,,,,,,,,,,,,,
null,,thebreak,572864,break,,null,,,,,,,,,,,,,,,,,,
3929,,realistic_rating,576794,Claywater,,50,Claywater,Fictional,2,,,,,,,,,,,,,,,
null,,confidence_buffer,576910,confidence_buffer,,null,,,,,,,,,,,,,,,,,,
1024,,pt2_unique_rating,577936,Claywater,,50,,,2,,,,,,,,,,,,,,,
null,,confidence_buffer,578048,confidence_buffer,,null,,,,,,,,,,,,,,,,,,
2203,,pt2_memorable_rating,580252,Claywater,,50,,,2,,,,,,,,,,,,,,,
null,,confidence_buffer,580361,confidence_buffer,,null,,,,,,,,,,,,,,,,,,
1993,,recognition_phase,582355,Claywater,,49,,,,,,old,1,1,,,,,,,,,,
null,,confidence_buffer,582463,confidence_buffer,,null,,,,,,,,,,,,,,,,,,
null,,thebreak,582976,break,,null,,,,,,,,,,,,,,,,,,
2962,,realistic_rating,585940,Sisters,,51,Sisters,US,3,,,,,,,,,,,,,,,
null,,confidence_buffer,586054,confidence_buffer,,null,,,,,,,,,,,,,,,,,,
1028,,pt2_unique_rating,587082,Sisters,,52,,,4,,,,,,,,,,,,,,,
null,,confidence_buffer,587193,confidence_buffer,,null,,,,,,,,,,,,,,,,,,
1688,,pt2_memorable_rating,588882,Sisters,,52,,,4,,,,,,,,,,,,,,,
null,,confidence_buffer,588987,confidence_buffer,,null,,,,,,,,,,,,,,,,,,
1951,,recognition_phase,590940,Sisters,,49,,,,,,old,1,1,,,,,,,,,,
null,,confidence_buffer,591047,confidence_buffer,,null,,,,,,,,,,,,,,,,,,
null,,thebreak,591560,break,,null,,,,,,,,,,,,,,,,,,
4879,,realistic_rating,596440,Duck,,51,Duck,US,3,,,,,,,,,,,,,,,
null,,confidence_buffer,596557,confidence_buffer,,null,,,,,,,,,,,,,,,,,,
1690,,pt2_unique_rating,598247,Duck,,50,,,2,,,,,,,,,,,,,,,
null,,confidence_buffer,598351,confidence_buffer,,null,,,,,,,,,,,,,,,,,,
4111,,pt2_memorable_rating,602464,Duck,,50,,,2,,,,,,,,,,,,,,,
null,,confidence_buffer,602570,confidence_buffer,,null,,,,,,,,,,,,,,,,,,
3489,,recognition_phase,606061,Duck,,52,,,,,,new,1,1,,,,,,,,,,
null,,confidence_buffer,606163,confidence_buffer,,null,,,,,,,,,,,,,,,,,,
null,,thebreak,606674,break,,null,,,,,,,,,,,,,,,,,,
7196,,realistic_rating,613872,Fairhaven,,53,Fairhaven,Fictional,5,,,,,,,,,,,,,,,
null,,confidence_buffer,613985,confidence_buffer,,null,,,,,,,,,,,,,,,,,,
1914,,probe_rating,615901,probe_rating,,49,,,,1,1,,,,,,,,,,,,,
null,,confidence_buffer,616005,confidence_buffer,,null,,,,,,,,,,,,,,,,,,
3305,,pt2_unique_rating,619311,Fairhaven,,49,,,1,,,,,,,,,,,,,,,
null,,confidence_buffer,619426,confidence_buffer,,null,,,,,,,,,,,,,,,,,,
3521,,pt2_memorable_rating,622948,Fairhaven,,50,,,2,,,,,,,,,,,,,,,
null,,confidence_buffer,623064,confidence_buffer,,null,,,,,,,,,,,,,,,,,,
3080,,recognition_phase,626145,Fairhaven,,49,,,,,,old,1,1,,,,,,,,,,
null,,confidence_buffer,626253,confidence_buffer,,null,,,,,,,,,,,,,,,,,,
null,,thebreak,626765,break,,null,,,,,,,,,,,,,,,,,,
4145,,realistic_rating,630912,Pine Hollow,,52,Pine Hollow,Fictional,4,,,,,,,,,,,,,,,
null,,confidence_buffer,631026,confidence_buffer,,null,,,,,,,,,,,,,,,,,,
2581,,pt2_unique_rating,633607,Pine Hollow,,52,,,4,,,,,,,,,,,,,,,
null,,confidence_buffer,633717,confidence_buffer,,null,,,,,,,,,,,,,,,,,,
1525,,pt2_memorable_rating,635243,Pine Hollow,,52,,,4,,,,,,,,,,,,,,,
null,,confidence_buffer,635348,confidence_buffer,,null,,,,,,,,,,,,,,,,,,
2852,,recognition_phase,638201,Pine Hollow,,49,,,,,,old,1,1,,,,,,,,,,
null,,confidence_buffer,638308,confidence_buffer,,null,,,,,,,,,,,,,,,,,,
null,,thebreak,638822,break,,null,,,,,,,,,,,,,,,,,,
3906,,realistic_rating,642729,Granton Ridge,,50,Granton Ridge,Fictional,2,,,,,,,,,,,,,,,
null,,confidence_buffer,642846,confidence_buffer,,null,,,,,,,,,,,,,,,,,,
1628,,pt2_unique_rating,644473,Granton Ridge,,49,,,1,,,,,,,,,,,,,,,
null,,confidence_buffer,644591,confidence_buffer,,null,,,,,,,,,,,,,,,,,,
1566,,pt2_memorable_rating,646158,Granton Ridge,,50,,,2,,,,,,,,,,,,,,,
null,,confidence_buffer,646273,confidence_buffer,,null,,,,,,,,,,,,,,,,,,
4100,,recognition_phase,650374,Granton Ridge,,52,,,,,,new,1,1,,,,,,,,,,
null,,confidence_buffer,650482,confidence_buffer,,null,,,,,,,,,,,,,,,,,,
null,,thebreak,650993,break,,null,,,,,,,,,,,,,,,,,,
5166,,realistic_rating,656161,Cape May,,53,Cape May,US,5,,,,,,,,,,,,,,,
null,,confidence_buffer,656264,confidence_buffer,,null,,,,,,,,,,,,,,,,,,
4303,,pt2_unique_rating,660566,Cape May,,52,,,4,,,,,,,,,,,,,,,
null,,confidence_buffer,660678,confidence_buffer,,null,,,,,,,,,,,,,,,,,,
4809,,pt2_memorable_rating,665487,Cape May,,53,,,5,,,,,,,,,,,,,,,
null,,confidence_buffer,665591,confidence_buffer,,null,,,,,,,,,,,,,,,,,,
2791,,recognition_phase,668384,Cape May,,52,,,,,,new,1,1,,,,,,,,,,
null,,confidence_buffer,668496,confidence_buffer,,null,,,,,,,,,,,,,,,,,,
null,,thebreak,669011,break,,null,,,,,,,,,,,,,,,,,,
6404,,realistic_rating,675415,Sammamish,,51,Sammamish,US,3,,,,,,,,,,,,,,,
null,,confidence_buffer,675526,confidence_buffer,,null,,,,,,,,,,,,,,,,,,
2931,,pt2_unique_rating,678459,Sammamish,,52,,,4,,,,,,,,,,,,,,,
null,,confidence_buffer,678572,confidence_buffer,,null,,,,,,,,,,,,,,,,,,
5305,,pt2_memorable_rating,683878,Sammamish,,52,,,4,,,,,,,,,,,,,,,
null,,confidence_buffer,683986,confidence_buffer,,null,,,,,,,,,,,,,,,,,,
3529,,recognition_phase,687516,Sammamish,,52,,,,,,new,1,1,,,,,,,,,,
null,,confidence_buffer,687626,confidence_buffer,,null,,,,,,,,,,,,,,,,,,
null,,thebreak,688137,break,,null,,,,,,,,,,,,,,,,,,
5002,,realistic_rating,693141,Peoria,,53,Peoria,US,5,,,,,,,,,,,,,,,
null,,confidence_buffer,693256,confidence_buffer,,null,,,,,,,,,,,,,,,,,,
2855,,pt2_unique_rating,696112,Peoria,,53,,,5,,,,,,,,,,,,,,,
null,,confidence_buffer,696229,confidence_buffer,,null,,,,,,,,,,,,,,,,,,
3020,,pt2_memorable_rating,699249,Peoria,,53,,,5,,,,,,,,,,,,,,,
null,,confidence_buffer,699353,confidence_buffer,,null,,,,,,,,,,,,,,,,,,
2750,,recognition_phase,702104,Peoria,,52,,,,,,new,1,1,,,,,,,,,,
null,,confidence_buffer,702206,confidence_buffer,,null,,,,,,,,,,,,,,,,,,
null,,thebreak,702717,break,,null,,,,,,,,,,,,,,,,,,
7857,,realistic_rating,710574,Tamarisk Hills,,50,Tamarisk Hills,Fictional,2,,,,,,,,,,,,,,,
null,,confidence_buffer,710679,confidence_buffer,,null,,,,,,,,,,,,,,,,,,
1341,,pt2_unique_rating,712020,Tamarisk Hills,,50,,,2,,,,,,,,,,,,,,,
null,,confidence_buffer,712133,confidence_buffer,,null,,,,,,,,,,,,,,,,,,
3387,,pt2_memorable_rating,715522,Tamarisk Hills,,50,,,2,,,,,,,,,,,,,,,
null,,confidence_buffer,715627,confidence_buffer,,null,,,,,,,,,,,,,,,,,,
3921,,recognition_phase,719549,Tamarisk Hills,,52,,,,,,new,1,1,,,,,,,,,,
null,,confidence_buffer,719655,confidence_buffer,,null,,,,,,,,,,,,,,,,,,
null,,thebreak,720167,break,,null,,,,,,,,,,,,,,,,,,
4858,,realistic_rating,725025,Racine,,53,Racine,US,5,,,,,,,,,,,,,,,
null,,confidence_buffer,725139,confidence_buffer,,null,,,,,,,,,,,,,,,,,,
2771,,pt2_unique_rating,727910,Racine,,53,,,5,,,,,,,,,,,,,,,
null,,confidence_buffer,728021,confidence_buffer,,null,,,,,,,,,,,,,,,,,,
2909,,pt2_memorable_rating,730930,Racine,,53,,,5,,,,,,,,,,,,,,,
null,,confidence_buffer,731043,confidence_buffer,,null,,,,,,,,,,,,,,,,,,
3621,,recognition_phase,734667,Racine,,49,,,,,,old,1,1,,,,,,,,,,
null,,confidence_buffer,734773,confidence_buffer,,null,,,,,,,,,,,,,,,,,,
null,,thebreak,735283,break,,null,,,,,,,,,,,,,,,,,,
11116,,realistic_rating,746400,Livingston,,53,Livingston,US,5,,,,,,,,,,,,,,,
null,,confidence_buffer,746505,confidence_buffer,,null,,,,,,,,,,,,,,,,,,
2564,,pt2_unique_rating,749070,Livingston,,51,,,3,,,,,,,,,,,,,,,
null,,confidence_buffer,749180,confidence_buffer,,null,,,,,,,,,,,,,,,,,,
2711,,pt2_memorable_rating,751892,Livingston,,51,,,3,,,,,,,,,,,,,,,
null,,confidence_buffer,751994,confidence_buffer,,null,,,,,,,,,,,,,,,,,,
2739,,recognition_phase,754735,Livingston,,52,,,,,,new,1,1,,,,,,,,,,
null,,confidence_buffer,754843,confidence_buffer,,null,,,,,,,,,,,,,,,,,,
null,,thebreak,755352,break,,null,,,,,,,,,,,,,,,,,,
4240,,realistic_rating,759594,Hollendale,,52,Hollendale,Fictional,4,,,,,,,,,,,,,,,
null,,confidence_buffer,759697,confidence_buffer,,null,,,,,,,,,,,,,,,,,,
3341,,pt2_unique_rating,763038,Hollendale,,52,,,4,,,,,,,,,,,,,,,
null,,confidence_buffer,763155,confidence_buffer,,null,,,,,,,,,,,,,,,,,,
3732,,pt2_memorable_rating,766887,Hollendale,,51,,,3,,,,,,,,,,,,,,,
null,,confidence_buffer,767000,confidence_buffer,,null,,,,,,,,,,,,,,,,,,
3221,,recognition_phase,770221,Hollendale,,52,,,,,,new,1,1,,,,,,,,,,
null,,confidence_buffer,770324,confidence_buffer,,null,,,,,,,,,,,,,,,,,,
null,,thebreak,770831,break,,null,,,,,,,,,,,,,,,,,,
8273,,realistic_rating,779104,Watkins Glen,,53,Watkins Glen,US,5,,,,,,,,,,,,,,,
null,,confidence_buffer,779212,confidence_buffer,,null,,,,,,,,,,,,,,,,,,
12120,,pt2_unique_rating,791333,Watkins Glen,,51,,,3,,,,,,,,,,,,,,,
null,,confidence_buffer,791441,confidence_buffer,,null,,,,,,,,,,,,,,,,,,
12130,,pt2_memorable_rating,803573,Watkins Glen,,51,,,3,,,,,,,,,,,,,,,
null,,confidence_buffer,803677,confidence_buffer,,null,,,,,,,,,,,,,,,,,,
2376,,probe_rating,806055,probe_rating,,50,,,,2,1,,,,,,,,,,,,,
null,,confidence_buffer,806159,confidence_buffer,,null,,,,,,,,,,,,,,,,,,
16263,,recognition_phase,822423,Watkins Glen,,51,,,,,,new,1,1,,,,,,,,,,
null,,confidence_buffer,822535,confidence_buffer,,null,,,,,,,,,,,,,,,,,,
null,,thebreak,823049,break,,null,,,,,,,,,,,,,,,,,,
16027,,realistic_rating,839077,Gloucester,,51,Gloucester,US,3,,,,,,,,,,,,,,,
null,,confidence_buffer,839191,confidence_buffer,,null,,,,,,,,,,,,,,,,,,
9016,,pt2_unique_rating,848208,Gloucester,,50,,,2,,,,,,,,,,,,,,,
null,,confidence_buffer,848321,confidence_buffer,,null,,,,,,,,,,,,,,,,,,
1785,,pt2_memorable_rating,850107,Gloucester,,50,,,2,,,,,,,,,,,,,,,
null,,confidence_buffer,850208,confidence_buffer,,null,,,,,,,,,,,,,,,,,,
16232,,recognition_phase,866441,Gloucester,,51,,,,,,new,0,0.9375,,,,,,,,,,
null,,confidence_buffer,866547,confidence_buffer,,null,,,,,,,,,,,,,,,,,,
null,,thebreak,867060,break,,null,,,,,,,,,,,,,,,,,,
16071,,realistic_rating,883133,Bowling Green,,53,Bowling Green,US,5,,,,,,,,,,,,,,,
null,,confidence_buffer,883248,confidence_buffer,,null,,,,,,,,,,,,,,,,,,
3462,,pt2_unique_rating,886711,Bowling Green,,53,,,5,,,,,,,,,,,,,,,
null,,confidence_buffer,886823,confidence_buffer,,null,,,,,,,,,,,,,,,,,,
1505,,pt2_memorable_rating,888328,Bowling Green,,53,,,5,,,,,,,,,,,,,,,
null,,confidence_buffer,888443,confidence_buffer,,null,,,,,,,,,,,,,,,,,,
2674,,probe_rating,891118,probe_rating,,50,,,,2,1,,,,,,,,,,,,,
null,,confidence_buffer,891232,confidence_buffer,,null,,,,,,,,,,,,,,,,,,
4938,,recognition_phase,896171,Bowling Green,,49,,,,,,old,1,0.9411764705882353,,,,,,,,,,
null,,confidence_buffer,896279,confidence_buffer,,null,,,,,,,,,,,,,,,,,,
null,,thebreak,896794,break,,null,,,,,,,,,,,,,,,,,,
6088,,realistic_rating,902882,Orchard Bend,,50,Orchard Bend,Fictional,2,,,,,,,,,,,,,,,
null,,confidence_buffer,902992,confidence_buffer,,null,,,,,,,,,,,,,,,,,,
24746,,pt2_unique_rating,927740,Orchard Bend,,51,,,3,,,,,,,,,,,,,,,
null,,confidence_buffer,927848,confidence_buffer,,null,,,,,,,,,,,,,,,,,,
2070,,pt2_memorable_rating,929920,Orchard Bend,,51,,,3,,,,,,,,,,,,,,,
null,,confidence_buffer,930031,confidence_buffer,,null,,,,,,,,,,,,,,,,,,
3452,,recognition_phase,933484,Orchard Bend,,49,,,,,,old,0,0.8888888888888888,,,,,,,,,,
null,,confidence_buffer,933593,confidence_buffer,,null,,,,,,,,,,,,,,,,,,
null,,thebreak,934106,break,,null,,,,,,,,,,,,,,,,,,
4449,,realistic_rating,938557,Clearbrook,,53,Clearbrook,Fictional,5,,,,,,,,,,,,,,,
null,,confidence_buffer,938661,confidence_buffer,,null,,,,,,,,,,,,,,,,,,
3023,,pt2_unique_rating,941685,Clearbrook,,49,,,1,,,,,,,,,,,,,,,
null,,confidence_buffer,941785,confidence_buffer,,null,,,,,,,,,,,,,,,,,,
2014,,pt2_memorable_rating,943800,Clearbrook,,49,,,1,,,,,,,,,,,,,,,
null,,confidence_buffer,943901,confidence_buffer,,null,,,,,,,,,,,,,,,,,,
17258,,recognition_phase,961161,Clearbrook,,49,,,,,,old,1,0.8947368421052632,,,,,,,,,,
null,,confidence_buffer,961269,confidence_buffer,,null,,,,,,,,,,,,,,,,,,
null,,thebreak,961780,break,,null,,,,,,,,,,,,,,,,,,
4627,,realistic_rating,966408,Hawthorne Bluffs,,51,Hawthorne Bluffs,Fictional,3,,,,,,,,,,,,,,,
null,,confidence_buffer,966522,confidence_buffer,,null,,,,,,,,,,,,,,,,,,
1732,,pt2_unique_rating,968256,Hawthorne Bluffs,,53,,,5,,,,,,,,,,,,,,,
null,,confidence_buffer,968362,confidence_buffer,,null,,,,,,,,,,,,,,,,,,
27584,,pt2_memorable_rating,995947,Hawthorne Bluffs,,53,,,5,,,,,,,,,,,,,,,
null,,confidence_buffer,996058,confidence_buffer,,null,,,,,,,,,,,,,,,,,,
2119,,recognition_phase,998179,Hawthorne Bluffs,,49,,,,,,old,1,0.9,,,,,,,,,,
null,,confidence_buffer,998285,confidence_buffer,,null,,,,,,,,,,,,,,,,,,
null,,thebreak,998796,break,,null,,,,,,,,,,,,,,,,,,
5215,,realistic_rating,1004012,Lake of the Ozarks,,51,Lake of the Ozarks,US,3,,,,,,,,,,,,,,,
null,,confidence_buffer,1004120,confidence_buffer,,null,,,,,,,,,,,,,,,,,,
2196,,pt2_unique_rating,1006318,Lake of the Ozarks,,52,,,4,,,,,,,,,,,,,,,
null,,confidence_buffer,1006426,confidence_buffer,,null,,,,,,,,,,,,,,,,,,
3181,,pt2_memorable_rating,1009607,Lake of the Ozarks,,52,,,4,,,,,,,,,,,,,,,
null,,confidence_buffer,1009720,confidence_buffer,,null,,,,,,,,,,,,,,,,,,
2049,,recognition_phase,1011771,Lake of the Ozarks,,49,,,,,,old,1,0.9047619047619048,,,,,,,,,,
null,,confidence_buffer,1011886,confidence_buffer,,null,,,,,,,,,,,,,,,,,,
null,,thebreak,1012397,break,,null,,,,,,,,,,,,,,,,,,
5718,,realistic_rating,1018116,Baymarsh,,50,Baymarsh,Fictional,2,,,,,,,,,,,,,,,
null,,confidence_buffer,1018223,confidence_buffer,,null,,,,,,,,,,,,,,,,,,
1090,,pt2_unique_rating,1019314,Baymarsh,,50,,,2,,,,,,,,,,,,,,,
null,,confidence_buffer,1019425,confidence_buffer,,null,,,,,,,,,,,,,,,,,,
1980,,pt2_memorable_rating,1021407,Baymarsh,,50,,,2,,,,,,,,,,,,,,,
null,,confidence_buffer,1021509,confidence_buffer,,null,,,,,,,,,,,,,,,,,,
2095,,recognition_phase,1023606,Baymarsh,,52,,,,,,new,1,0.9090909090909091,,,,,,,,,,
null,,confidence_buffer,1023709,confidence_buffer,,null,,,,,,,,,,,,,,,,,,
null,,thebreak,1024221,break,,null,,,,,,,,,,,,,,,,,,
3273,,realistic_rating,1027497,Cleveland,,53,Cleveland,US,5,,,,,,,,,,,,,,,
null,,confidence_buffer,1027601,confidence_buffer,,null,,,,,,,,,,,,,,,,,,
4078,,pt2_unique_rating,1031681,Cleveland,,51,,,3,,,,,,,,,,,,,,,
null,,confidence_buffer,1031797,confidence_buffer,,null,,,,,,,,,,,,,,,,,,
1522,,pt2_memorable_rating,1033321,Cleveland,,50,,,2,,,,,,,,,,,,,,,
null,,confidence_buffer,1033432,confidence_buffer,,null,,,,,,,,,,,,,,,,,,
2059,,probe_rating,1035492,probe_rating,,52,,,,4,1,,,,,,,,,,,,,
null,,confidence_buffer,1035597,confidence_buffer,,null,,,,,,,,,,,,,,,,,,
4095,,recognition_phase,1039692,Cleveland,,52,,,,,,new,1,0.9130434782608695,,,,,,,,,,
null,,confidence_buffer,1039804,confidence_buffer,,null,,,,,,,,,,,,,,,,,,
null,,thebreak,1040317,break,,null,,,,,,,,,,,,,,,,,,
3626,,realistic_rating,1043944,Juniper Creek,,51,Juniper Creek,Fictional,3,,,,,,,,,,,,,,,
null,,confidence_buffer,1044055,confidence_buffer,,null,,,,,,,,,,,,,,,,,,
3933,,pt2_unique_rating,1047989,Juniper Creek,,52,,,4,,,,,,,,,,,,,,,
null,,confidence_buffer,1048095,confidence_buffer,,null,,,,,,,,,,,,,,,,,,
1898,,pt2_memorable_rating,1049995,Juniper Creek,,52,,,4,,,,,,,,,,,,,,,
null,,confidence_buffer,1050101,confidence_buffer,,null,,,,,,,,,,,,,,,,,,
1619,,probe_rating,1051721,probe_rating,,50,,,,2,1,,,,,,,,,,,,,
null,,confidence_buffer,1051833,confidence_buffer,,null,,,,,,,,,,,,,,,,,,
4819,,recognition_phase,1056652,Juniper Creek,,49,,,,,,old,1,0.9166666666666666,,,,,,,,,,
null,,confidence_buffer,1056762,confidence_buffer,,null,,,,,,,,,,,,,,,,,,
null,,thebreak,1057276,break,,null,,,,,,,,,,,,,,,,,,
4493,,realistic_rating,1061770,Coralridge,,52,Coralridge,Fictional,4,,,,,,,,,,,,,,,
null,,confidence_buffer,1061874,confidence_buffer,,null,,,,,,,,,,,,,,,,,,
2012,,pt2_unique_rating,1063887,Coralridge,,51,,,3,,,,,,,,,,,,,,,
null,,confidence_buffer,1063991,confidence_buffer,,null,,,,,,,,,,,,,,,,,,
1834,,pt2_memorable_rating,1065826,Coralridge,,51,,,3,,,,,,,,,,,,,,,
null,,confidence_buffer,1065931,confidence_buffer,,null,,,,,,,,,,,,,,,,,,
3132,,recognition_phase,1069065,Coralridge,,49,,,,,,old,1,0.92,,,,,,,,,,
null,,confidence_buffer,1069183,confidence_buffer,,null,,,,,,,,,,,,,,,,,,
null,,thebreak,1069696,break,,null,,,,,,,,,,,,,,,,,,
2861,,realistic_rating,1072558,Park City,,50,Park City,US,2,,,,,,,,,,,,,,,
null,,confidence_buffer,1072661,confidence_buffer,,null,,,,,,,,,,,,,,,,,,
1525,,probe_rating,1074187,probe_rating,,49,,,,1,1,,,,,,,,,,,,,
null,,confidence_buffer,1074291,confidence_buffer,,null,,,,,,,,,,,,,,,,,,
2211,,pt2_unique_rating,1076503,Park City,,49,,,1,,,,,,,,,,,,,,,
null,,confidence_buffer,1076612,confidence_buffer,,null,,,,,,,,,,,,,,,,,,
1202,,pt2_memorable_rating,1077815,Park City,,49,,,1,,,,,,,,,,,,,,,
null,,confidence_buffer,1077920,confidence_buffer,,null,,,,,,,,,,,,,,,,,,
2359,,recognition_phase,1080281,Park City,,52,,,,,,new,1,0.9230769230769231,,,,,,,,,,
null,,confidence_buffer,1080383,confidence_buffer,,null,,,,,,,,,,,,,,,,,,
null,,thebreak,1080892,break,,null,,,,,,,,,,,,,,,,,,
2810,,realistic_rating,1083704,Silverpine,,51,Silverpine,Fictional,3,,,,,,,,,,,,,,,
null,,confidence_buffer,1083810,confidence_buffer,,null,,,,,,,,,,,,,,,,,,
1915,,pt2_unique_rating,1085725,Silverpine,,50,,,2,,,,,,,,,,,,,,,
null,,confidence_buffer,1085828,confidence_buffer,,null,,,,,,,,,,,,,,,,,,
2604,,pt2_memorable_rating,1088432,Silverpine,,50,,,2,,,,,,,,,,,,,,,
null,,confidence_buffer,1088534,confidence_buffer,,null,,,,,,,,,,,,,,,,,,
2274,,recognition_phase,1090808,Silverpine,,52,,,,,,new,1,0.9259259259259259,,,,,,,,,,
null,,confidence_buffer,1090920,confidence_buffer,,null,,,,,,,,,,,,,,,,,,
null,,thebreak,1091425,break,,null,,,,,,,,,,,,,,,,,,
6540,,realistic_rating,1097966,Meadowspire,,51,Meadowspire,Fictional,3,,,,,,,,,,,,,,,
null,,confidence_buffer,1098082,confidence_buffer,,null,,,,,,,,,,,,,,,,,,
2383,,pt2_unique_rating,1100467,Meadowspire,,50,,,2,,,,,,,,,,,,,,,
null,,confidence_buffer,1100575,confidence_buffer,,null,,,,,,,,,,,,,,,,,,
5247,,pt2_memorable_rating,1105823,Meadowspire,,52,,,4,,,,,,,,,,,,,,,
null,,confidence_buffer,1105929,confidence_buffer,,null,,,,,,,,,,,,,,,,,,
7162,,recognition_phase,1113093,Meadowspire,,52,,,,,,new,0,0.8928571428571429,,,,,,,,,,
null,,confidence_buffer,1113198,confidence_buffer,,null,,,,,,,,,,,,,,,,,,
null,,thebreak,1113707,break,,null,,,,,,,,,,,,,,,,,,
4699,,realistic_rating,1118408,Newport,,53,Newport,US,5,,,,,,,,,,,,,,,
null,,confidence_buffer,1118517,confidence_buffer,,null,,,,,,,,,,,,,,,,,,
3335,,pt2_unique_rating,1121852,Newport,,51,,,3,,,,,,,,,,,,,,,
null,,confidence_buffer,1121966,confidence_buffer,,null,,,,,,,,,,,,,,,,,,
3407,,pt2_memorable_rating,1125376,Newport,,52,,,4,,,,,,,,,,,,,,,
null,,confidence_buffer,1125491,confidence_buffer,,null,,,,,,,,,,,,,,,,,,
3220,,probe_rating,1128712,probe_rating,,50,,,,2,1,,,,,,,,,,,,,
null,,confidence_buffer,1128820,confidence_buffer,,null,,,,,,,,,,,,,,,,,,
4928,,recognition_phase,1133750,Newport,,52,,,,,,new,1,0.896551724137931,,,,,,,,,,
null,,confidence_buffer,1133855,confidence_buffer,,null,,,,,,,,,,,,,,,,,,
null,,thebreak,1134367,break,,null,,,,,,,,,,,,,,,,,,
4846,,realistic_rating,1139215,Linden Trace,,50,Linden Trace,Fictional,2,,,,,,,,,,,,,,,
null,,confidence_buffer,1139325,confidence_buffer,,null,,,,,,,,,,,,,,,,,,
1912,,pt2_unique_rating,1141238,Linden Trace,,50,,,2,,,,,,,,,,,,,,,
null,,confidence_buffer,1141345,confidence_buffer,,null,,,,,,,,,,,,,,,,,,
1201,,pt2_memorable_rating,1142546,Linden Trace,,49,,,1,,,,,,,,,,,,,,,
null,,confidence_buffer,1142651,confidence_buffer,,null,,,,,,,,,,,,,,,,,,
2202,,recognition_phase,1144854,Linden Trace,,52,,,,,,new,0,0.8666666666666667,,,,,,,,,,
null,,confidence_buffer,1144959,confidence_buffer,,null,,,,,,,,,,,,,,,,,,
null,,thebreak,1145470,break,,null,,,,,,,,,,,,,,,,,,
3536,,realistic_rating,1149009,Carmel,,53,Carmel,US,5,,,,,,,,,,,,,,,
null,,confidence_buffer,1149112,confidence_buffer,,null,,,,,,,,,,,,,,,,,,
2394,,pt2_unique_rating,1151507,Carmel,,52,,,4,,,,,,,,,,,,,,,
null,,confidence_buffer,1151611,confidence_buffer,,null,,,,,,,,,,,,,,,,,,
3854,,pt2_memorable_rating,1155467,Carmel,,53,,,5,,,,,,,,,,,,,,,
null,,confidence_buffer,1155579,confidence_buffer,,null,,,,,,,,,,,,,,,,,,
2030,,recognition_phase,1157610,Carmel,,52,,,,,,new,1,0.8709677419354839,,,,,,,,,,
null,,confidence_buffer,1157724,confidence_buffer,,null,,,,,,,,,,,,,,,,,,
null,,thebreak,1158234,break,,null,,,,,,,,,,,,,,,,,,
2678,,realistic_rating,1160913,Huntsville,,52,Huntsville,US,4,,,,,,,,,,,,,,,
null,,confidence_buffer,1161021,confidence_buffer,,null,,,,,,,,,,,,,,,,,,
1522,,probe_rating,1162544,probe_rating,,51,,,,3,1,,,,,,,,,,,,,
null,,confidence_buffer,1162658,confidence_buffer,,null,,,,,,,,,,,,,,,,,,
2705,,pt2_unique_rating,1165364,Huntsville,,50,,,2,,,,,,,,,,,,,,,
null,,confidence_buffer,1165480,confidence_buffer,,null,,,,,,,,,,,,,,,,,,
2533,,pt2_memorable_rating,1168015,Huntsville,,51,,,3,,,,,,,,,,,,,,,
null,,confidence_buffer,1168116,confidence_buffer,,null,,,,,,,,,,,,,,,,,,
2640,,recognition_phase,1170758,Huntsville,,52,,,,,,new,1,0.875,,,,,,,,,,
null,,confidence_buffer,1170869,confidence_buffer,,null,,,,,,,,,,,,,,,,,,
null,,thebreak,1171379,break,,null,,,,,,,,,,,,,,,,,,
16097,,realistic_rating,1187478,Barnard,,52,Barnard,US,4,,,,,,,,,,,,,,,
null,,confidence_buffer,1187579,confidence_buffer,,null,,,,,,,,,,,,,,,,,,
2495,,pt2_unique_rating,1190075,Barnard,,51,,,3,,,,,,,,,,,,,,,
null,,confidence_buffer,1190179,confidence_buffer,,null,,,,,,,,,,,,,,,,,,
5200,,pt2_memorable_rating,1195380,Barnard,,53,,,5,,,,,,,,,,,,,,,
null,,confidence_buffer,1195489,confidence_buffer,,null,,,,,,,,,,,,,,,,,,
3129,,recognition_phase,1198620,Barnard,,52,,,,,,new,1,0.8787878787878788,,,,,,,,,,
null,,confidence_buffer,1198736,confidence_buffer,,null,,,,,,,,,,,,,,,,,,
null,,thebreak,1199247,break,,null,,,,,,,,,,,,,,,,,,
8898,,realistic_rating,1208145,Ravenport,,51,Ravenport,Fictional,3,,,,,,,,,,,,,,,
null,,confidence_buffer,1208256,confidence_buffer,,null,,,,,,,,,,,,,,,,,,
1227,,probe_rating,1209483,probe_rating,,51,,,,3,1,,,,,,,,,,,,,
null,,confidence_buffer,1209594,confidence_buffer,,null,,,,,,,,,,,,,,,,,,
1816,,pt2_unique_rating,1211411,Ravenport,,52,,,4,,,,,,,,,,,,,,,
null,,confidence_buffer,1211517,confidence_buffer,,null,,,,,,,,,,,,,,,,,,
1242,,pt2_memorable_rating,1212759,Ravenport,,51,,,3,,,,,,,,,,,,,,,
null,,confidence_buffer,1212866,confidence_buffer,,null,,,,,,,,,,,,,,,,,,
2639,,recognition_phase,1215506,Ravenport,,52,,,,,,new,0,0.8529411764705882,,,,,,,,,,
null,,confidence_buffer,1215610,confidence_buffer,,null,,,,,,,,,,,,,,,,,,
null,,thebreak,1216123,break,,null,,,,,,,,,,,,,,,,,,
5387,,realistic_rating,1221511,Elmsbury,,50,Elmsbury,Fictional,2,,,,,,,,,,,,,,,
null,,confidence_buffer,1221628,confidence_buffer,,null,,,,,,,,,,,,,,,,,,
2955,,pt2_unique_rating,1224584,Elmsbury,,51,,,3,,,,,,,,,,,,,,,
null,,confidence_buffer,1224688,confidence_buffer,,null,,,,,,,,,,,,,,,,,,
4653,,pt2_memorable_rating,1229343,Elmsbury,,50,,,2,,,,,,,,,,,,,,,
null,,confidence_buffer,1229449,confidence_buffer,,null,,,,,,,,,,,,,,,,,,
19129,,recognition_phase,1248577,Elmsbury,,50,,,,,,old,1,0.8571428571428571,,,,,,,,,,
null,,confidence_buffer,1248680,confidence_buffer,,null,,,,,,,,,,,,,,,,,,
null,,thebreak,1249196,break,,null,,,,,,,,,,,,,,,,,,
3447,,realistic_rating,1252645,Hanover,,53,Hanover,US,5,,,,,,,,,,,,,,,
null,,confidence_buffer,1252757,confidence_buffer,,null,,,,,,,,,,,,,,,,,,
2148,,pt2_unique_rating,1254907,Hanover,,51,,,3,,,,,,,,,,,,,,,
null,,confidence_buffer,1255017,confidence_buffer,,null,,,,,,,,,,,,,,,,,,
2718,,pt2_memorable_rating,1257737,Hanover,,52,,,4,,,,,,,,,,,,,,,
null,,confidence_buffer,1257848,confidence_buffer,,null,,,,,,,,,,,,,,,,,,
3533,,recognition_phase,1261383,Hanover,,52,,,,,,new,0,0.8333333333333334,,,,,,,,,,
null,,confidence_buffer,1261484,confidence_buffer,,null,,,,,,,,,,,,,,,,,,
null,,thebreak,1261992,break,,null,,,,,,,,,,,,,,,,,,
9391,,realistic_rating,1271384,Maplehurst,,50,Maplehurst,Fictional,2,,,,,,,,,,,,,,,
null,,confidence_buffer,1271489,confidence_buffer,,null,,,,,,,,,,,,,,,,,,
3799,,pt2_unique_rating,1275289,Maplehurst,,51,,,3,,,,,,,,,,,,,,,
null,,confidence_buffer,1275400,confidence_buffer,,null,,,,,,,,,,,,,,,,,,
1396,,pt2_memorable_rating,1276797,Maplehurst,,51,,,3,,,,,,,,,,,,,,,
null,,confidence_buffer,1276906,confidence_buffer,,null,,,,,,,,,,,,,,,,,,
6745,,recognition_phase,1283652,Maplehurst,,49,,,,,,old,0,0.8108108108108109,,,,,,,,,,
null,,confidence_buffer,1283753,confidence_buffer,,null,,,,,,,,,,,,,,,,,,
null,,thebreak,1284267,break,,null,,,,,,,,,,,,,,,,,,
12588,,realistic_rating,1296855,Willowford,,49,Willowford,Fictional,1,,,,,,,,,,,,,,,
null,,confidence_buffer,1296968,confidence_buffer,,null,,,,,,,,,,,,,,,,,,
64313,,pt2_unique_rating,1361281,Willowford,,51,,,3,,,,,,,,,,,,,,,
null,,confidence_buffer,1361392,confidence_buffer,,null,,,,,,,,,,,,,,,,,,
1977,,pt2_memorable_rating,1363369,Willowford,,52,,,4,,,,,,,,,,,,,,,
null,,confidence_buffer,1363474,confidence_buffer,,null,,,,,,,,,,,,,,,,,,
3995,,recognition_phase,1367469,Willowford,,52,,,,,,new,1,0.8157894736842105,,,,,,,,,,
null,,confidence_buffer,1367574,confidence_buffer,,null,,,,,,,,,,,,,,,,,,
null,,thebreak,1368087,break,,null,,,,,,,,,,,,,,,,,,
3789,,realistic_rating,1371878,Brookmere,,51,Brookmere,Fictional,3,,,,,,,,,,,,,,,
null,,confidence_buffer,1371987,confidence_buffer,,null,,,,,,,,,,,,,,,,,,
4677,,pt2_unique_rating,1376665,Brookmere,,51,,,3,,,,,,,,,,,,,,,
null,,confidence_buffer,1376768,confidence_buffer,,null,,,,,,,,,,,,,,,,,,
13482,,pt2_memorable_rating,1390251,Brookmere,,51,,,3,,,,,,,,,,,,,,,
null,,confidence_buffer,1390365,confidence_buffer,,null,,,,,,,,,,,,,,,,,,
25398,,recognition_phase,1415765,Brookmere,,49,,,,,,old,0,0.7948717948717948,,,,,,,,,,
null,,confidence_buffer,1415867,confidence_buffer,,null,,,,,,,,,,,,,,,,,,
null,,thebreak,1416381,break,,null,,,,,,,,,,,,,,,,,,
3743,,realistic_rating,1420125,Hilo,,51,Hilo,US,3,,,,,,,,,,,,,,,
null,,confidence_buffer,1420236,confidence_buffer,,null,,,,,,,,,,,,,,,,,,
1783,,pt2_unique_rating,1422019,Hilo,,53,,,5,,,,,,,,,,,,,,,
null,,confidence_buffer,1422128,confidence_buffer,,null,,,,,,,,,,,,,,,,,,
2596,,pt2_memorable_rating,1424725,Hilo,,53,,,5,,,,,,,,,,,,,,,
null,,confidence_buffer,1424834,confidence_buffer,,null,,,,,,,,,,,,,,,,,,
5183,,recognition_phase,1430018,Hilo,,49,,,,,,old,1,0.8,,,,,,,,,,
null,,confidence_buffer,1430119,confidence_buffer,,null,,,,,,,,,,,,,,,,,,
null,,thebreak,1430629,break,,null,,,,,,,,,,,,,,,,,,
3592,,realistic_rating,1434222,Rosehollow,,51,Rosehollow,Fictional,3,,,,,,,,,,,,,,,
null,,confidence_buffer,1434329,confidence_buffer,,null,,,,,,,,,,,,,,,,,,
2509,,pt2_unique_rating,1436840,Rosehollow,,51,,,3,,,,,,,,,,,,,,,
null,,confidence_buffer,1436954,confidence_buffer,,null,,,,,,,,,,,,,,,,,,
31053,,pt2_memorable_rating,1468008,Rosehollow,,52,,,4,,,,,,,,,,,,,,,
null,,confidence_buffer,1468119,confidence_buffer,,null,,,,,,,,,,,,,,,,,,
4367,,recognition_phase,1472487,Rosehollow,,50,,,,,,old,0,0.7804878048780488,,,,,,,,,,
null,,confidence_buffer,1472592,confidence_buffer,,null,,,,,,,,,,,,,,,,,,
null,,thebreak,1473105,break,,null,,,,,,,,,,,,,,,,,,
2918,,realistic_rating,1476025,Gatlinburg,,52,Gatlinburg,US,4,,,,,,,,,,,,,,,
null,,confidence_buffer,1476135,confidence_buffer,,null,,,,,,,,,,,,,,,,,,
1863,,pt2_unique_rating,1477997,Gatlinburg,,52,,,4,,,,,,,,,,,,,,,
null,,confidence_buffer,1478100,confidence_buffer,,null,,,,,,,,,,,,,,,,,,
5523,,pt2_memorable_rating,1483623,Gatlinburg,,52,,,4,,,,,,,,,,,,,,,
null,,confidence_buffer,1483726,confidence_buffer,,null,,,,,,,,,,,,,,,,,,
9695,,recognition_phase,1493423,Gatlinburg,,51,,,,,,new,1,0.7857142857142857,,,,,,,,,,
null,,confidence_buffer,1493536,confidence_buffer,,null,,,,,,,,,,,,,,,,,,
null,,thebreak,1494051,break,,null,,,,,,,,,,,,,,,,,,
16518,,realistic_rating,1510570,Albuquerque,,49,Albuquerque,US,1,,,,,,,,,,,,,,,
null,,confidence_buffer,1510671,confidence_buffer,,null,,,,,,,,,,,,,,,,,,
4641,,pt2_unique_rating,1515314,Albuquerque,,53,,,5,,,,,,,,,,,,,,,
null,,confidence_buffer,1515430,confidence_buffer,,null,,,,,,,,,,,,,,,,,,
1887,,pt2_memorable_rating,1517318,Albuquerque,,53,,,5,,,,,,,,,,,,,,,
null,,confidence_buffer,1517433,confidence_buffer,,null,,,,,,,,,,,,,,,,,,
3105,,recognition_phase,1520540,Albuquerque,,49,,,,,,old,1,0.7906976744186046,,,,,,,,,,
null,,confidence_buffer,1520651,confidence_buffer,,null,,,,,,,,,,,,,,,,,,
null,,thebreak,1521163,break,,null,,,,,,,,,,,,,,,,,,
6008,,realistic_rating,1527172,North Arroya,,51,North Arroya,Fictional,3,,,,,,,,,,,,,,,
null,,confidence_buffer,1527275,confidence_buffer,,null,,,,,,,,,,,,,,,,,,
8922,,pt2_unique_rating,1536196,North Arroya,,53,,,5,,,,,,,,,,,,,,,
null,,confidence_buffer,1536303,confidence_buffer,,null,,,,,,,,,,,,,,,,,,
5258,,pt2_memorable_rating,1541563,North Arroya,,53,,,5,,,,,,,,,,,,,,,
null,,confidence_buffer,1541670,confidence_buffer,,null,,,,,,,,,,,,,,,,,,
59651,,recognition_phase,1601323,North Arroya,,49,,,,,,old,1,0.7954545454545454,,,,,,,,,,
null,,confidence_buffer,1601433,confidence_buffer,,null,,,,,,,,,,,,,,,,,,
null,,thebreak,1601947,break,,null,,,,,,,,,,,,,,,,,,
3081,,realistic_rating,1605028,Cedarwyn,,52,Cedarwyn,Fictional,4,,,,,,,,,,,,,,,
null,,confidence_buffer,1605138,confidence_buffer,,null,,,,,,,,,,,,,,,,,,
2250,,pt2_unique_rating,1607389,Cedarwyn,,50,,,2,,,,,,,,,,,,,,,
null,,confidence_buffer,1607496,confidence_buffer,,null,,,,,,,,,,,,,,,,,,
2511,,pt2_memorable_rating,1610009,Cedarwyn,,50,,,2,,,,,,,,,,,,,,,
null,,confidence_buffer,1610124,confidence_buffer,,null,,,,,,,,,,,,,,,,,,
9665,,recognition_phase,1619789,Cedarwyn,,52,,,,,,new,1,0.8,,,,,,,,,,
null,,confidence_buffer,1619899,confidence_buffer,,null,,,,,,,,,,,,,,,,,,
null,,thebreak,1620412,break,,null,,,,,,,,,,,,,,,,,,
6040,,realistic_rating,1626454,Assateague Island,,49,Assateague Island,US,1,,,,,,,,,,,,,,,
null,,confidence_buffer,1626561,confidence_buffer,,null,,,,,,,,,,,,,,,,,,
3335,,pt2_unique_rating,1629896,Assateague Island,,53,,,5,,,,,,,,,,,,,,,
null,,confidence_buffer,1630007,confidence_buffer,,null,,,,,,,,,,,,,,,,,,
1793,,probe_rating,1631800,probe_rating,,53,,,,5,1,,,,,,,,,,,,,
null,,confidence_buffer,1631907,confidence_buffer,,null,,,,,,,,,,,,,,,,,,
4664,,pt2_memorable_rating,1636572,Assateague Island,,53,,,5,,,,,,,,,,,,,,,
null,,confidence_buffer,1636675,confidence_buffer,,null,,,,,,,,,,,,,,,,,,
3525,,recognition_phase,1640200,Assateague Island,,49,,,,,,old,1,0.8043478260869565,,,,,,,,,,
null,,confidence_buffer,1640308,confidence_buffer,,null,,,,,,,,,,,,,,,,,,
null,,thebreak,1640818,break,,null,,,,,,,,,,,,,,,,,,
3608,,realistic_rating,1644428,Healdsburg,,50,Healdsburg,US,2,,,,,,,,,,,,,,,
null,,confidence_buffer,1644531,confidence_buffer,,null,,,,,,,,,,,,,,,,,,
1461,,pt2_unique_rating,1645994,Healdsburg,,50,,,2,,,,,,,,,,,,,,,
null,,confidence_buffer,1646100,confidence_buffer,,null,,,,,,,,,,,,,,,,,,
56292,,pt2_memorable_rating,1702393,Healdsburg,,50,,,2,,,,,,,,,,,,,,,
null,,confidence_buffer,1702497,confidence_buffer,,null,,,,,,,,,,,,,,,,,,
2899,,recognition_phase,1705396,Healdsburg,,52,,,,,,new,0,0.7872340425531915,,,,,,,,,,
null,,confidence_buffer,1705513,confidence_buffer,,null,,,,,,,,,,,,,,,,,,
null,,thebreak,1706025,break,,null,,,,,,,,,,,,,,,,,,
3817,,realistic_rating,1709843,Cornwall,,53,Cornwall,US,5,,,,,,,,,,,,,,,
null,,confidence_buffer,1709954,confidence_buffer,,null,,,,,,,,,,,,,,,,,,
2567,,pt2_unique_rating,1712521,Cornwall,,52,,,4,,,,,,,,,,,,,,,
null,,confidence_buffer,1712633,confidence_buffer,,null,,,,,,,,,,,,,,,,,,
1763,,pt2_memorable_rating,1714396,Cornwall,,52,,,4,,,,,,,,,,,,,,,
null,,confidence_buffer,1714510,confidence_buffer,,null,,,,,,,,,,,,,,,,,,
2823,,recognition_phase,1717335,Cornwall,,49,,,,,,old,1,0.7916666666666666,,,,,,,,,,
null,,confidence_buffer,1717440,confidence_buffer,,null,,,,,,,,,,,,,,,,,,
null,,thebreak,1717952,break,,null,,,,,,,,,,,,,,,,,,
24405,,realistic_rating,1742358,Yukon,,50,Yukon,US,2,,,,,,,,,,,,,,,
null,,confidence_buffer,1742466,confidence_buffer,,null,,,,,,,,,,,,,,,,,,
3095,,pt2_unique_rating,1745562,Yukon,,49,,,1,,,,,,,,,,,,,,,
null,,confidence_buffer,1745668,confidence_buffer,,null,,,,,,,,,,,,,,,,,,
21102,,pt2_memorable_rating,1766770,Yukon,,52,,,4,,,,,,,,,,,,,,,
null,,confidence_buffer,1766873,confidence_buffer,,null,,,,,,,,,,,,,,,,,,
3561,,recognition_phase,1770435,Yukon,,49,,,,,,old,1,0.7959183673469388,,,,,,,,,,
null,,confidence_buffer,1770537,confidence_buffer,,null,,,,,,,,,,,,,,,,,,
null,,thebreak,1771049,break,,null,,,,,,,,,,,,,,,,,,
4242,,realistic_rating,1775292,Abilene,,53,Abilene,US,5,,,,,,,,,,,,,,,
null,,confidence_buffer,1775393,confidence_buffer,,null,,,,,,,,,,,,,,,,,,
1553,,pt2_unique_rating,1776947,Abilene,,53,,,5,,,,,,,,,,,,,,,
null,,confidence_buffer,1777056,confidence_buffer,,null,,,,,,,,,,,,,,,,,,
1469,,probe_rating,1778524,probe_rating,,51,,,,3,1,,,,,,,,,,,,,
null,,confidence_buffer,1778638,confidence_buffer,,null,,,,,,,,,,,,,,,,,,
2156,,pt2_memorable_rating,1780794,Abilene,,53,,,5,,,,,,,,,,,,,,,
null,,confidence_buffer,1780902,confidence_buffer,,null,,,,,,,,,,,,,,,,,,
2791,,recognition_phase,1783695,Abilene,,49,,,,,,old,1,0.8,,,,,,,,,,
null,,confidence_buffer,1783807,confidence_buffer,,null,,,,,,,,,,,,,,,,,,
null,,thebreak,1784315,break,,null,,,,,,,,,,,,,,,,,,
5061,,realistic_rating,1789377,Montelake,,49,Montelake,Fictional,1,,,,,,,,,,,,,,,
null,,confidence_buffer,1789491,confidence_buffer,,null,,,,,,,,,,,,,,,,,,
2381,,pt2_unique_rating,1791872,Montelake,,50,,,2,,,,,,,,,,,,,,,
null,,confidence_buffer,1791979,confidence_buffer,,null,,,,,,,,,,,,,,,,,,
1667,,pt2_memorable_rating,1793648,Montelake,,50,,,2,,,,,,,,,,,,,,,
null,,confidence_buffer,1793750,confidence_buffer,,null,,,,,,,,,,,,,,,,,,
2142,,recognition_phase,1795894,Montelake,,52,,,,,,new,1,0.803921568627451,,,,,,,,,,
null,,confidence_buffer,1795995,confidence_buffer,,null,,,,,,,,,,,,,,,,,,
null,,thebreak,1796509,break,,null,,,,,,,,,,,,,,,,,,
5681,,realistic_rating,1802192,Berkeley Springs,,52,Berkeley Springs,US,4,,,,,,,,,,,,,,,
null,,confidence_buffer,1802295,confidence_buffer,,null,,,,,,,,,,,,,,,,,,
1737,,pt2_unique_rating,1804033,Berkeley Springs,,51,,,3,,,,,,,,,,,,,,,
null,,confidence_buffer,1804148,confidence_buffer,,null,,,,,,,,,,,,,,,,,,
1593,,pt2_memorable_rating,1805743,Berkeley Springs,,52,,,4,,,,,,,,,,,,,,,
null,,confidence_buffer,1805845,confidence_buffer,,null,,,,,,,,,,,,,,,,,,
2051,,recognition_phase,1807898,Berkeley Springs,,52,,,,,,new,0,0.7884615384615384,,,,,,,,,,
null,,confidence_buffer,1808003,confidence_buffer,,null,,,,,,,,,,,,,,,,,,
null,,thebreak,1808516,break,,null,,,,,,,,,,,,,,,,,,
4054,,realistic_rating,1812570,Medora,,49,Medora,US,1,,,,,,,,,,,,,,,
null,,confidence_buffer,1812683,confidence_buffer,,null,,,,,,,,,,,,,,,,,,
1209,,pt2_unique_rating,1813893,Medora,,49,,,1,,,,,,,,,,,,,,,
null,,confidence_buffer,1813994,confidence_buffer,,null,,,,,,,,,,,,,,,,,,
968,,pt2_memorable_rating,1814964,Medora,,49,,,1,,,,,,,,,,,,,,,
null,,confidence_buffer,1815069,confidence_buffer,,null,,,,,,,,,,,,,,,,,,
2014,,recognition_phase,1817083,Medora,,52,,,,,,new,1,0.7924528301886793,,,,,,,,,,
null,,confidence_buffer,1817197,confidence_buffer,,null,,,,,,,,,,,,,,,,,,
null,,thebreak,1817711,break,,null,,,,,,,,,,,,,,,,,,
3397,,realistic_rating,1821110,Millstone,,52,Millstone,Fictional,4,,,,,,,,,,,,,,,
null,,confidence_buffer,1821222,confidence_buffer,,null,,,,,,,,,,,,,,,,,,
2446,,pt2_unique_rating,1823671,Millstone,,51,,,3,,,,,,,,,,,,,,,
null,,confidence_buffer,1823781,confidence_buffer,,null,,,,,,,,,,,,,,,,,,
2185,,pt2_memorable_rating,1825966,Millstone,,51,,,3,,,,,,,,,,,,,,,
null,,confidence_buffer,1826077,confidence_buffer,,null,,,,,,,,,,,,,,,,,,
2246,,recognition_phase,1828324,Millstone,,52,,,,,,new,1,0.7962962962962963,,,,,,,,,,
null,,confidence_buffer,1828428,confidence_buffer,,null,,,,,,,,,,,,,,,,,,
null,,thebreak,1828940,break,,null,,,,,,,,,,,,,,,,,,
2992,,realistic_rating,1831933,Riverlyn,,50,Riverlyn,Fictional,2,,,,,,,,,,,,,,,
null,,confidence_buffer,1832034,confidence_buffer,,null,,,,,,,,,,,,,,,,,,
2445,,pt2_unique_rating,1834481,Riverlyn,,49,,,1,,,,,,,,,,,,,,,
null,,confidence_buffer,1834589,confidence_buffer,,null,,,,,,,,,,,,,,,,,,
1448,,pt2_memorable_rating,1836038,Riverlyn,,49,,,1,,,,,,,,,,,,,,,
null,,confidence_buffer,1836148,confidence_buffer,,null,,,,,,,,,,,,,,,,,,
2414,,recognition_phase,1838562,Riverlyn,,52,,,,,,new,0,0.7818181818181819,,,,,,,,,,
null,,confidence_buffer,1838671,confidence_buffer,,null,,,,,,,,,,,,,,,,,,
null,,thebreak,1839174,break,,null,,,,,,,,,,,,,,,,,,
3795,,realistic_rating,1842971,Folly Beach,,49,Folly Beach,US,1,,,,,,,,,,,,,,,
null,,confidence_buffer,1843085,confidence_buffer,,null,,,,,,,,,,,,,,,,,,
2377,,pt2_unique_rating,1845462,Folly Beach,,53,,,5,,,,,,,,,,,,,,,
null,,confidence_buffer,1845566,confidence_buffer,,null,,,,,,,,,,,,,,,,,,
1404,,pt2_memorable_rating,1846970,Folly Beach,,53,,,5,,,,,,,,,,,,,,,
null,,confidence_buffer,1847072,confidence_buffer,,null,,,,,,,,,,,,,,,,,,
2242,,recognition_phase,1849315,Folly Beach,,52,,,,,,new,1,0.7857142857142857,,,,,,,,,,
null,,confidence_buffer,1849431,confidence_buffer,,null,,,,,,,,,,,,,,,,,,
null,,thebreak,1849944,break,,null,,,,,,,,,,,,,,,,,,
4114,,realistic_rating,1854059,Bayshore Haven,,50,Bayshore Haven,Fictional,2,,,,,,,,,,,,,,,
null,,confidence_buffer,1854174,confidence_buffer,,null,,,,,,,,,,,,,,,,,,
1421,,pt2_unique_rating,1855594,Bayshore Haven,,50,,,2,,,,,,,,,,,,,,,
null,,confidence_buffer,1855708,confidence_buffer,,null,,,,,,,,,,,,,,,,,,
1573,,probe_rating,1857281,probe_rating,,50,,,,2,1,,,,,,,,,,,,,
null,,confidence_buffer,1857397,confidence_buffer,,null,,,,,,,,,,,,,,,,,,
7806,,pt2_memorable_rating,1865205,Bayshore Haven,,50,,,2,,,,,,,,,,,,,,,
null,,confidence_buffer,1865309,confidence_buffer,,null,,,,,,,,,,,,,,,,,,
2395,,recognition_phase,1867705,Bayshore Haven,,52,,,,,,new,0,0.7719298245614035,,,,,,,,,,
null,,confidence_buffer,1867818,confidence_buffer,,null,,,,,,,,,,,,,,,,,,
null,,thebreak,1868332,break,,null,,,,,,,,,,,,,,,,,,
3240,,realistic_rating,1871572,Briarfield,,50,Briarfield,Fictional,2,,,,,,,,,,,,,,,
null,,confidence_buffer,1871675,confidence_buffer,,null,,,,,,,,,,,,,,,,,,
1539,,probe_rating,1873216,probe_rating,,49,,,,1,1,,,,,,,,,,,,,
null,,confidence_buffer,1873318,confidence_buffer,,null,,,,,,,,,,,,,,,,,,
3181,,pt2_unique_rating,1876499,Briarfield,,51,,,3,,,,,,,,,,,,,,,
null,,confidence_buffer,1876602,confidence_buffer,,null,,,,,,,,,,,,,,,,,,
2718,,pt2_memorable_rating,1879320,Briarfield,,51,,,3,,,,,,,,,,,,,,,
null,,confidence_buffer,1879421,confidence_buffer,,null,,,,,,,,,,,,,,,,,,
2123,,recognition_phase,1881545,Briarfield,,52,,,,,,new,1,0.7758620689655172,,,,,,,,,,
null,,confidence_buffer,1881658,confidence_buffer,,null,,,,,,,,,,,,,,,,,,
null,,thebreak,1882166,break,,null,,,,,,,,,,,,,,,,,,
2126,,realistic_rating,1884293,Oakridge,,52,Oakridge,Fictional,4,,,,,,,,,,,,,,,
null,,confidence_buffer,1884399,confidence_buffer,,null,,,,,,,,,,,,,,,,,,
2329,,pt2_unique_rating,1886729,Oakridge,,49,,,1,,,,,,,,,,,,,,,
null,,confidence_buffer,1886829,confidence_buffer,,null,,,,,,,,,,,,,,,,,,
1889,,pt2_memorable_rating,1888721,Oakridge,,50,,,2,,,,,,,,,,,,,,,
null,,confidence_buffer,1888831,confidence_buffer,,null,,,,,,,,,,,,,,,,,,
3038,,recognition_phase,1891870,Oakridge,,52,,,,,,new,1,0.7796610169491526,,,,,,,,,,
null,,confidence_buffer,1891973,confidence_buffer,,null,,,,,,,,,,,,,,,,,,
null,,thebreak,1892486,break,,null,,,,,,,,,,,,,,,,,,
2912,,realistic_rating,1895398,Delaware City,,53,Delaware City,US,5,,,,,,,,,,,,,,,
null,,confidence_buffer,1895503,confidence_buffer,,null,,,,,,,,,,,,,,,,,,
1453,,pt2_unique_rating,1896956,Delaware City,,53,,,5,,,,,,,,,,,,,,,
null,,confidence_buffer,1897070,confidence_buffer,,null,,,,,,,,,,,,,,,,,,
1267,,pt2_memorable_rating,1898338,Delaware City,,53,,,5,,,,,,,,,,,,,,,
null,,confidence_buffer,1898441,confidence_buffer,,null,,,,,,,,,,,,,,,,,,
2607,,recognition_phase,1901050,Delaware City,,49,,,,,,old,1,0.7833333333333333,,,,,,,,,,
null,,confidence_buffer,1901153,confidence_buffer,,null,,,,,,,,,,,,,,,,,,
null,,thebreak,1901667,break,,null,,,,,,,,,,,,,,,,,,
,,survey,2016361,survey-questions,,,,,,,,,,,none,high,Nothing else,Knew most names after I heard them,Heard name in the past,Catchy,Odd,Credible,N/A,Enjoyed the survey!
