rt,responses,trial_type,time_elapsed,stimulus,button_pressed,key_press,name_trial,rating,probe,probe_accuracy,response,correct,accuracy,problems,smooth,distraction,strategies,familiar,memorable,unique,realistic,similar,comments
5151.599999964237,{worker_id:628f572a2d1304a34b9e1a37},id_enter,5155,,,,,,,,,,,,,,,,,,,,
9867.5,,fullscreen,15030,fullscreen,0,,,,,,,,,,,,,,,,,,
5850.400000035763,,intro_0,20889,instruct,,32,,,,,,,,,,,,,,,,,
8028.400000035763,,intro_1,28919,instruct,,32,,,,,,,,,,,,,,,,,
2265.7000000476837,,intro_2,31187,instruct,,32,,,,,,,,,,,,,,,,,
null,,instruct_dir_4,32690,instruct,,null,,,,,,,,,,,,,,,,,
null,,thebreak,33192,break,,null,,,,,,,,,,,,,,,,,
3213.300000011921,,familiar_rating,36408,Scottsdale,,53,Scottsdale,5,,,,,,,,,,,,,,,
null,,confidence_buffer,36512,confidence_buffer,,null,,,,,,,,,,,,,,,,,
4575.599999964237,,unique_rating,41091,Scottsdale,,52,,4,,,,,,,,,,,,,,,
null,,confidence_buffer,41197,confidence_buffer,,null,,,,,,,,,,,,,,,,,
2307.899999976158,,memorable_rating,43507,Scottsdale,,52,,4,,,,,,,,,,,,,,,
null,,confidence_buffer,43610,confidence_buffer,,null,,,,,,,,,,,,,,,,,
null,,thebreak,44126,break,,null,,,,,,,,,,,,,,,,,
2344.5,,familiar_rating,46474,Pasadena,,53,Pasadena,5,,,,,,,,,,,,,,,
null,,confidence_buffer,46585,confidence_buffer,,null,,,,,,,,,,,,,,,,,
1871,,unique_rating,48458,Pasadena,,53,,5,,,,,,,,,,,,,,,
null,,confidence_buffer,48561,confidence_buffer,,null,,,,,,,,,,,,,,,,,
1568.5,,memorable_rating,50131,Pasadena,,53,,5,,,,,,,,,,,,,,,
null,,confidence_buffer,50234,confidence_buffer,,null,,,,,,,,,,,,,,,,,
null,,thebreak,50737,break,,null,,,,,,,,,,,,,,,,,
3789.399999976158,,familiar_rating,54528,Rock Springs,,49,Rock Springs,1,,,,,,,,,,,,,,,
null,,confidence_buffer,54631,confidence_buffer,,null,,,,,,,,,,,,,,,,,
2383,,probe_rating,57017,probe_rating,,49,,,1,1,,,,,,,,,,,,,
null,,confidence_buffer,57120,confidence_buffer,,null,,,,,,,,,,,,,,,,,
3670.600000023842,,unique_rating,60793,Rock Springs,,50,,2,,,,,,,,,,,,,,,
null,,confidence_buffer,60896,confidence_buffer,,null,,,,,,,,,,,,,,,,,
1718.300000011921,,memorable_rating,62616,Rock Springs,,50,,2,,,,,,,,,,,,,,,
null,,confidence_buffer,62720,confidence_buffer,,null,,,,,,,,,,,,,,,,,
null,,thebreak,63223,break,,null,,,,,,,,,,,,,,,,,
2634.899999976158,,familiar_rating,65859,Reno,,53,Reno,5,,,,,,,,,,,,,,,
null,,confidence_buffer,65962,confidence_buffer,,null,,,,,,,,,,,,,,,,,
1598.800000011921,,unique_rating,67563,Reno,,53,,5,,,,,,,,,,,,,,,
null,,confidence_buffer,67665,confidence_buffer,,null,,,,,,,,,,,,,,,,,
1034.6000000238419,,memorable_rating,68702,Reno,,53,,5,,,,,,,,,,,,,,,
null,,confidence_buffer,68805,confidence_buffer,,null,,,,,,,,,,,,,,,,,
null,,thebreak,69307,break,,null,,,,,,,,,,,,,,,,,
5618.099999964237,,familiar_rating,74928,Stamford,,53,Stamford,5,,,,,,,,,,,,,,,
null,,confidence_buffer,75031,confidence_buffer,,null,,,,,,,,,,,,,,,,,
1484.4000000357628,,unique_rating,76517,Stamford,,53,,5,,,,,,,,,,,,,,,
null,,confidence_buffer,76620,confidence_buffer,,null,,,,,,,,,,,,,,,,,
1036.5,,memorable_rating,77659,Stamford,,53,,5,,,,,,,,,,,,,,,
null,,confidence_buffer,77761,confidence_buffer,,null,,,,,,,,,,,,,,,,,
null,,thebreak,78264,break,,null,,,,,,,,,,,,,,,,,
1077.300000011921,,familiar_rating,79342,Altoona,,53,Altoona,5,,,,,,,,,,,,,,,
null,,confidence_buffer,79444,confidence_buffer,,null,,,,,,,,,,,,,,,,,
1666,,unique_rating,81111,Altoona,,53,,5,,,,,,,,,,,,,,,
null,,confidence_buffer,81214,confidence_buffer,,null,,,,,,,,,,,,,,,,,
1051.800000011921,,memorable_rating,82266,Altoona,,53,,5,,,,,,,,,,,,,,,
null,,confidence_buffer,82369,confidence_buffer,,null,,,,,,,,,,,,,,,,,
null,,thebreak,82871,break,,null,,,,,,,,,,,,,,,,,
886.1000000238419,,familiar_rating,83758,New Haven,,53,New Haven,5,,,,,,,,,,,,,,,
null,,confidence_buffer,83869,confidence_buffer,,null,,,,,,,,,,,,,,,,,
3168.5,,unique_rating,87038,New Haven,,52,,4,,,,,,,,,,,,,,,
null,,confidence_buffer,87142,confidence_buffer,,null,,,,,,,,,,,,,,,,,
1312,,memorable_rating,88457,New Haven,,52,,4,,,,,,,,,,,,,,,
null,,confidence_buffer,88560,confidence_buffer,,null,,,,,,,,,,,,,,,,,
null,,thebreak,89061,break,,null,,,,,,,,,,,,,,,,,
1027.5,,familiar_rating,90091,Decatur,,53,Decatur,5,,,,,,,,,,,,,,,
null,,confidence_buffer,90195,confidence_buffer,,null,,,,,,,,,,,,,,,,,
1002.3000000119209,,unique_rating,91199,Decatur,,53,,5,,,,,,,,,,,,,,,
null,,confidence_buffer,91302,confidence_buffer,,null,,,,,,,,,,,,,,,,,
999.8999999761581,,memorable_rating,92304,Decatur,,53,,5,,,,,,,,,,,,,,,
null,,confidence_buffer,92414,confidence_buffer,,null,,,,,,,,,,,,,,,,,
null,,thebreak,92916,break,,null,,,,,,,,,,,,,,,,,
828.9000000357628,,familiar_rating,93747,Ithaca,,53,Ithaca,5,,,,,,,,,,,,,,,
null,,confidence_buffer,93850,confidence_buffer,,null,,,,,,,,,,,,,,,,,
554.5,,unique_rating,94407,Ithaca,,53,,5,,,,,,,,,,,,,,,
null,,confidence_buffer,94510,confidence_buffer,,null,,,,,,,,,,,,,,,,,
699.1000000238419,,memorable_rating,95211,Ithaca,,53,,5,,,,,,,,,,,,,,,
null,,confidence_buffer,95315,confidence_buffer,,null,,,,,,,,,,,,,,,,,
null,,thebreak,95817,break,,null,,,,,,,,,,,,,,,,,
846.0999999642372,,familiar_rating,96665,Dubuque,,53,Dubuque,5,,,,,,,,,,,,,,,
null,,confidence_buffer,96768,confidence_buffer,,null,,,,,,,,,,,,,,,,,
609.6000000238419,,unique_rating,97380,Dubuque,,53,,5,,,,,,,,,,,,,,,
null,,confidence_buffer,97483,confidence_buffer,,null,,,,,,,,,,,,,,,,,
544.1000000238419,,memorable_rating,98029,Dubuque,,53,,5,,,,,,,,,,,,,,,
null,,confidence_buffer,98132,confidence_buffer,,null,,,,,,,,,,,,,,,,,
null,,thebreak,98635,break,,null,,,,,,,,,,,,,,,,,
3678.400000035763,,familiar_rating,102315,Bozeman,,51,Bozeman,3,,,,,,,,,,,,,,,
null,,confidence_buffer,102418,confidence_buffer,,null,,,,,,,,,,,,,,,,,
3202.5,,unique_rating,105623,Bozeman,,53,,5,,,,,,,,,,,,,,,
null,,confidence_buffer,105739,confidence_buffer,,null,,,,,,,,,,,,,,,,,
514.5,,memorable_rating,106255,Bozeman,,53,,5,,,,,,,,,,,,,,,
null,,confidence_buffer,106360,confidence_buffer,,null,,,,,,,,,,,,,,,,,
null,,thebreak,106862,break,,null,,,,,,,,,,,,,,,,,
3895.7999999523163,,familiar_rating,110760,Dover,,51,Dover,3,,,,,,,,,,,,,,,
null,,confidence_buffer,110863,confidence_buffer,,null,,,,,,,,,,,,,,,,,
1372.4000000357628,,unique_rating,112238,Dover,,52,,4,,,,,,,,,,,,,,,
null,,confidence_buffer,112341,confidence_buffer,,null,,,,,,,,,,,,,,,,,
1083.7999999523163,,memorable_rating,113427,Dover,,52,,4,,,,,,,,,,,,,,,
null,,confidence_buffer,113530,confidence_buffer,,null,,,,,,,,,,,,,,,,,
null,,thebreak,114032,break,,null,,,,,,,,,,,,,,,,,
3360,,familiar_rating,117394,Bellingham,,51,Bellingham,3,,,,,,,,,,,,,,,
null,,confidence_buffer,117497,confidence_buffer,,null,,,,,,,,,,,,,,,,,
1868.1000000238419,,unique_rating,119367,Bellingham,,52,,4,,,,,,,,,,,,,,,
null,,confidence_buffer,119471,confidence_buffer,,null,,,,,,,,,,,,,,,,,
538.8999999761581,,memorable_rating,120012,Bellingham,,52,,4,,,,,,,,,,,,,,,
null,,confidence_buffer,120115,confidence_buffer,,null,,,,,,,,,,,,,,,,,
null,,thebreak,120618,break,,null,,,,,,,,,,,,,,,,,
2260,,familiar_rating,122880,Newport News,,49,Newport News,1,,,,,,,,,,,,,,,
null,,confidence_buffer,122982,confidence_buffer,,null,,,,,,,,,,,,,,,,,
2517.900000035763,,unique_rating,125502,Newport News,,53,,5,,,,,,,,,,,,,,,
null,,confidence_buffer,125606,confidence_buffer,,null,,,,,,,,,,,,,,,,,
693.8000000119209,,memorable_rating,126302,Newport News,,53,,5,,,,,,,,,,,,,,,
null,,confidence_buffer,126406,confidence_buffer,,null,,,,,,,,,,,,,,,,,
2152.5,,probe_rating,128560,probe_rating,,51,,,3,1,,,,,,,,,,,,,
null,,confidence_buffer,128663,confidence_buffer,,null,,,,,,,,,,,,,,,,,
null,,thebreak,129165,break,,null,,,,,,,,,,,,,,,,,
2020.5,,familiar_rating,131188,Fargo,,53,Fargo,5,,,,,,,,,,,,,,,
null,,confidence_buffer,131291,confidence_buffer,,null,,,,,,,,,,,,,,,,,
864.7000000476837,,unique_rating,132157,Fargo,,53,,5,,,,,,,,,,,,,,,
null,,confidence_buffer,132260,confidence_buffer,,null,,,,,,,,,,,,,,,,,
529.9000000357628,,memorable_rating,132792,Fargo,,53,,5,,,,,,,,,,,,,,,
null,,confidence_buffer,132896,confidence_buffer,,null,,,,,,,,,,,,,,,,,
null,,thebreak,133398,break,,null,,,,,,,,,,,,,,,,,
3552.399999976158,,familiar_rating,136952,Pueblo,,51,Pueblo,3,,,,,,,,,,,,,,,
null,,confidence_buffer,137055,confidence_buffer,,null,,,,,,,,,,,,,,,,,
2183.5,,unique_rating,139240,Pueblo,,52,,4,,,,,,,,,,,,,,,
null,,confidence_buffer,139343,confidence_buffer,,null,,,,,,,,,,,,,,,,,
485.4000000357628,,memorable_rating,139829,Pueblo,,52,,4,,,,,,,,,,,,,,,
null,,confidence_buffer,139931,confidence_buffer,,null,,,,,,,,,,,,,,,,,
null,,thebreak,140434,break,,null,,,,,,,,,,,,,,,,,
2421.900000035763,,familiar_rating,142857,Champaign,,51,Champaign,3,,,,,,,,,,,,,,,
null,,confidence_buffer,142960,confidence_buffer,,null,,,,,,,,,,,,,,,,,
2090.800000011921,,unique_rating,145051,Champaign,,53,,5,,,,,,,,,,,,,,,
null,,confidence_buffer,145153,confidence_buffer,,null,,,,,,,,,,,,,,,,,
932.6999999880791,,memorable_rating,146087,Champaign,,53,,5,,,,,,,,,,,,,,,
null,,confidence_buffer,146190,confidence_buffer,,null,,,,,,,,,,,,,,,,,
null,,thebreak,146692,break,,null,,,,,,,,,,,,,,,,,
1408.0999999642372,,familiar_rating,148102,Abilene,,53,Abilene,5,,,,,,,,,,,,,,,
null,,confidence_buffer,148204,confidence_buffer,,null,,,,,,,,,,,,,,,,,
875.2999999523163,,unique_rating,149081,Abilene,,53,,5,,,,,,,,,,,,,,,
null,,confidence_buffer,149184,confidence_buffer,,null,,,,,,,,,,,,,,,,,
797.1999999880791,,memorable_rating,149984,Abilene,,53,,5,,,,,,,,,,,,,,,
null,,confidence_buffer,150087,confidence_buffer,,null,,,,,,,,,,,,,,,,,
null,,thebreak,150589,break,,null,,,,,,,,,,,,,,,,,
686.6000000238419,,familiar_rating,151278,Syracuse,,53,Syracuse,5,,,,,,,,,,,,,,,
null,,confidence_buffer,151381,confidence_buffer,,null,,,,,,,,,,,,,,,,,
559.5999999642372,,unique_rating,151942,Syracuse,,53,,5,,,,,,,,,,,,,,,
null,,confidence_buffer,152048,confidence_buffer,,null,,,,,,,,,,,,,,,,,
496.5,,memorable_rating,152547,Syracuse,,53,,5,,,,,,,,,,,,,,,
null,,confidence_buffer,152652,confidence_buffer,,null,,,,,,,,,,,,,,,,,
null,,thebreak,153155,break,,null,,,,,,,,,,,,,,,,,
3321.699999988079,,familiar_rating,156478,Las Cruces,,53,Las Cruces,5,,,,,,,,,,,,,,,
null,,confidence_buffer,156582,confidence_buffer,,null,,,,,,,,,,,,,,,,,
529.1999999880791,,probe_rating,157113,probe_rating,,53,,,5,0,,,,,,,,,,,,,
null,,confidence_buffer,157222,confidence_buffer,,null,,,,,,,,,,,,,,,,,
1529.300000011921,,unique_rating,158753,Las Cruces,,49,,1,,,,,,,,,,,,,,,
null,,confidence_buffer,158855,confidence_buffer,,null,,,,,,,,,,,,,,,,,
11495.299999952316,,memorable_rating,170353,Las Cruces,,53,,5,,,,,,,,,,,,,,,
null,,confidence_buffer,170456,confidence_buffer,,null,,,,,,,,,,,,,,,,,
null,,thebreak,170958,break,,null,,,,,,,,,,,,,,,,,
1815,,familiar_rating,172776,Fort Wayne,,53,Fort Wayne,5,,,,,,,,,,,,,,,
null,,confidence_buffer,172892,confidence_buffer,,null,,,,,,,,,,,,,,,,,
1854.699999988079,,unique_rating,174748,Fort Wayne,,52,,4,,,,,,,,,,,,,,,
null,,confidence_buffer,174852,confidence_buffer,,null,,,,,,,,,,,,,,,,,
1022,,memorable_rating,175876,Fort Wayne,,52,,4,,,,,,,,,,,,,,,
null,,confidence_buffer,175978,confidence_buffer,,null,,,,,,,,,,,,,,,,,
null,,thebreak,176480,break,,null,,,,,,,,,,,,,,,,,
1551.300000011921,,familiar_rating,178033,Cambridge,,53,Cambridge,5,,,,,,,,,,,,,,,
null,,confidence_buffer,178136,confidence_buffer,,null,,,,,,,,,,,,,,,,,
1082.300000011921,,unique_rating,179220,Cambridge,,53,,5,,,,,,,,,,,,,,,
null,,confidence_buffer,179324,confidence_buffer,,null,,,,,,,,,,,,,,,,,
1143.6000000238419,,memorable_rating,180470,Cambridge,,52,,4,,,,,,,,,,,,,,,
null,,confidence_buffer,180574,confidence_buffer,,null,,,,,,,,,,,,,,,,,
null,,thebreak,181076,break,,null,,,,,,,,,,,,,,,,,
1858.199999988079,,familiar_rating,182937,Annapolis,,53,Annapolis,5,,,,,,,,,,,,,,,
null,,confidence_buffer,183041,confidence_buffer,,null,,,,,,,,,,,,,,,,,
952.5999999642372,,unique_rating,183996,Annapolis,,53,,5,,,,,,,,,,,,,,,
null,,confidence_buffer,184098,confidence_buffer,,null,,,,,,,,,,,,,,,,,
1469.300000011921,,memorable_rating,185568,Annapolis,,53,,5,,,,,,,,,,,,,,,
null,,confidence_buffer,185672,confidence_buffer,,null,,,,,,,,,,,,,,,,,
null,,thebreak,186174,break,,null,,,,,,,,,,,,,,,,,
1871.9000000357628,,familiar_rating,188047,Tallahassee,,53,Tallahassee,5,,,,,,,,,,,,,,,
null,,confidence_buffer,188150,confidence_buffer,,null,,,,,,,,,,,,,,,,,
724.6999999880791,,unique_rating,188876,Tallahassee,,53,,5,,,,,,,,,,,,,,,
null,,confidence_buffer,188979,confidence_buffer,,null,,,,,,,,,,,,,,,,,
1175.199999988079,,memorable_rating,190155,Tallahassee,,53,,5,,,,,,,,,,,,,,,
null,,confidence_buffer,190257,confidence_buffer,,null,,,,,,,,,,,,,,,,,
null,,thebreak,190758,break,,null,,,,,,,,,,,,,,,,,
1927.4000000357628,,familiar_rating,192687,Hagerstown,,49,Hagerstown,1,,,,,,,,,,,,,,,
null,,confidence_buffer,192790,confidence_buffer,,null,,,,,,,,,,,,,,,,,
2815.599999964237,,unique_rating,195608,Hagerstown,,52,,4,,,,,,,,,,,,,,,
null,,confidence_buffer,195711,confidence_buffer,,null,,,,,,,,,,,,,,,,,
1093.5999999642372,,memorable_rating,196807,Hagerstown,,52,,4,,,,,,,,,,,,,,,
null,,confidence_buffer,196910,confidence_buffer,,null,,,,,,,,,,,,,,,,,
null,,thebreak,197413,break,,null,,,,,,,,,,,,,,,,,
4096.5,,intro_0,201511,instruct,,32,,,,,,,,,,,,,,,,,
5337.100000023842,,intro_1,206849,instruct,,32,,,,,,,,,,,,,,,,,
11298.900000035763,,intro_2,218150,instruct,,32,,,,,,,,,,,,,,,,,
null,,instruct_dir_4,219655,instruct,,null,,,,,,,,,,,,,,,,,
8490.100000023842,,realistic_rating,228147,Toledo,,53,Toledo,5,,,,,,,,,,,,,,,
null,,confidence_buffer,228250,confidence_buffer,,null,,,,,,,,,,,,,,,,,
994.1000000238419,,pt2_unique_rating,229246,Toledo,,53,,5,,,,,,,,,,,,,,,
null,,confidence_buffer,229350,confidence_buffer,,null,,,,,,,,,,,,,,,,,
1497.199999988079,,pt2_memorable_rating,230850,Toledo,,53,,5,,,,,,,,,,,,,,,
null,,confidence_buffer,230954,confidence_buffer,,null,,,,,,,,,,,,,,,,,
4284.600000023842,,recognition_phase,235241,Toledo,,52,,,,,new,1,1,,,,,,,,,,
null,,confidence_buffer,235346,confidence_buffer,,null,,,,,,,,,,,,,,,,,
null,,thebreak,235850,break,,null,,,,,,,,,,,,,,,,,
3500,,realistic_rating,239352,Fort Collins,,53,Fort Collins,5,,,,,,,,,,,,,,,
null,,confidence_buffer,239456,confidence_buffer,,null,,,,,,,,,,,,,,,,,
1519.199999988079,,pt2_unique_rating,240977,Fort Collins,,53,,5,,,,,,,,,,,,,,,
null,,confidence_buffer,241081,confidence_buffer,,null,,,,,,,,,,,,,,,,,
1512.5999999642372,,pt2_memorable_rating,242595,Fort Collins,,53,,5,,,,,,,,,,,,,,,
null,,confidence_buffer,242699,confidence_buffer,,null,,,,,,,,,,,,,,,,,
2238.900000035763,,recognition_phase,244940,Fort Collins,,52,,,,,new,1,1,,,,,,,,,,
null,,confidence_buffer,245051,confidence_buffer,,null,,,,,,,,,,,,,,,,,
null,,thebreak,245553,break,,null,,,,,,,,,,,,,,,,,
3454.699999988079,,realistic_rating,249010,Annapolis,,53,Annapolis,5,,,,,,,,,,,,,,,
null,,confidence_buffer,249113,confidence_buffer,,null,,,,,,,,,,,,,,,,,
1149.5,,pt2_unique_rating,250265,Annapolis,,53,,5,,,,,,,,,,,,,,,
null,,confidence_buffer,250369,confidence_buffer,,null,,,,,,,,,,,,,,,,,
1351.300000011921,,pt2_memorable_rating,251723,Annapolis,,53,,5,,,,,,,,,,,,,,,
null,,confidence_buffer,251825,confidence_buffer,,null,,,,,,,,,,,,,,,,,
1838.5999999642372,,recognition_phase,253665,Annapolis,,49,,,,,old,1,1,,,,,,,,,,
null,,confidence_buffer,253768,confidence_buffer,,null,,,,,,,,,,,,,,,,,
null,,thebreak,254271,break,,null,,,,,,,,,,,,,,,,,
4348.400000035763,,realistic_rating,258621,Yakima,,51,Yakima,3,,,,,,,,,,,,,,,
null,,confidence_buffer,258725,confidence_buffer,,null,,,,,,,,,,,,,,,,,
1418,,pt2_unique_rating,260145,Yakima,,52,,4,,,,,,,,,,,,,,,
null,,confidence_buffer,260248,confidence_buffer,,null,,,,,,,,,,,,,,,,,
1098.300000011921,,pt2_memorable_rating,261348,Yakima,,52,,4,,,,,,,,,,,,,,,
null,,confidence_buffer,261449,confidence_buffer,,null,,,,,,,,,,,,,,,,,
1256.300000011921,,recognition_phase,262706,Yakima,,52,,,,,new,1,1,,,,,,,,,,
null,,confidence_buffer,262809,confidence_buffer,,null,,,,,,,,,,,,,,,,,
null,,thebreak,263310,break,,null,,,,,,,,,,,,,,,,,
3237.199999988079,,realistic_rating,266548,Norfolk,,53,Norfolk,5,,,,,,,,,,,,,,,
null,,confidence_buffer,266651,confidence_buffer,,null,,,,,,,,,,,,,,,,,
1307.199999988079,,pt2_unique_rating,267959,Norfolk,,53,,5,,,,,,,,,,,,,,,
null,,confidence_buffer,268063,confidence_buffer,,null,,,,,,,,,,,,,,,,,
892.5,,pt2_memorable_rating,268957,Norfolk,,53,,5,,,,,,,,,,,,,,,
null,,confidence_buffer,269059,confidence_buffer,,null,,,,,,,,,,,,,,,,,
1615.0999999642372,,recognition_phase,270675,Norfolk,,52,,,,,new,1,1,,,,,,,,,,
null,,confidence_buffer,270778,confidence_buffer,,null,,,,,,,,,,,,,,,,,
null,,thebreak,271280,break,,null,,,,,,,,,,,,,,,,,
2446.199999988079,,realistic_rating,273728,Stamford,,53,Stamford,5,,,,,,,,,,,,,,,
null,,confidence_buffer,273831,confidence_buffer,,null,,,,,,,,,,,,,,,,,
938,,pt2_unique_rating,274772,Stamford,,53,,5,,,,,,,,,,,,,,,
null,,confidence_buffer,274879,confidence_buffer,,null,,,,,,,,,,,,,,,,,
687.1000000238419,,pt2_memorable_rating,275568,Stamford,,53,,5,,,,,,,,,,,,,,,
null,,confidence_buffer,275670,confidence_buffer,,null,,,,,,,,,,,,,,,,,
2189.300000011921,,recognition_phase,277861,Stamford,,49,,,,,old,1,1,,,,,,,,,,
null,,confidence_buffer,277964,confidence_buffer,,null,,,,,,,,,,,,,,,,,
null,,thebreak,278466,break,,null,,,,,,,,,,,,,,,,,
1815.6000000238419,,realistic_rating,280284,Ithaca,,53,Ithaca,5,,,,,,,,,,,,,,,
null,,confidence_buffer,280390,confidence_buffer,,null,,,,,,,,,,,,,,,,,
916.6999999880791,,pt2_unique_rating,281308,Ithaca,,53,,5,,,,,,,,,,,,,,,
null,,confidence_buffer,281412,confidence_buffer,,null,,,,,,,,,,,,,,,,,
804.8000000119209,,pt2_memorable_rating,282218,Ithaca,,53,,5,,,,,,,,,,,,,,,
null,,confidence_buffer,282322,confidence_buffer,,null,,,,,,,,,,,,,,,,,
1186.699999988079,,recognition_phase,283511,Ithaca,,49,,,,,old,1,1,,,,,,,,,,
null,,confidence_buffer,283615,confidence_buffer,,null,,,,,,,,,,,,,,,,,
null,,thebreak,284117,break,,null,,,,,,,,,,,,,,,,,
2566.100000023842,,realistic_rating,286685,Terre Haute,,53,Terre Haute,5,,,,,,,,,,,,,,,
null,,confidence_buffer,286787,confidence_buffer,,null,,,,,,,,,,,,,,,,,
1922.8999999761581,,probe_rating,288713,probe_rating,,50,,,2,1,,,,,,,,,,,,,
null,,confidence_buffer,288816,confidence_buffer,,null,,,,,,,,,,,,,,,,,
3116.5,,pt2_unique_rating,291934,Terre Haute,,53,,5,,,,,,,,,,,,,,,
null,,confidence_buffer,292037,confidence_buffer,,null,,,,,,,,,,,,,,,,,
1105.699999988079,,pt2_memorable_rating,293145,Terre Haute,,53,,5,,,,,,,,,,,,,,,
null,,confidence_buffer,293248,confidence_buffer,,null,,,,,,,,,,,,,,,,,
2267.399999976158,,recognition_phase,295517,Terre Haute,,52,,,,,new,1,1,,,,,,,,,,
null,,confidence_buffer,295620,confidence_buffer,,null,,,,,,,,,,,,,,,,,
null,,thebreak,296122,break,,null,,,,,,,,,,,,,,,,,
1837.6000000238419,,realistic_rating,297962,Tallahassee,,53,Tallahassee,5,,,,,,,,,,,,,,,
null,,confidence_buffer,298064,confidence_buffer,,null,,,,,,,,,,,,,,,,,
843.9000000357628,,pt2_unique_rating,298910,Tallahassee,,53,,5,,,,,,,,,,,,,,,
null,,confidence_buffer,299013,confidence_buffer,,null,,,,,,,,,,,,,,,,,
1733.199999988079,,pt2_memorable_rating,300748,Tallahassee,,52,,4,,,,,,,,,,,,,,,
null,,confidence_buffer,300851,confidence_buffer,,null,,,,,,,,,,,,,,,,,
2017.5999999642372,,recognition_phase,302871,Tallahassee,,49,,,,,old,1,1,,,,,,,,,,
null,,confidence_buffer,302975,confidence_buffer,,null,,,,,,,,,,,,,,,,,
null,,thebreak,303477,break,,null,,,,,,,,,,,,,,,,,
2780.100000023842,,realistic_rating,306259,Frankfort,,51,Frankfort,3,,,,,,,,,,,,,,,
null,,confidence_buffer,306362,confidence_buffer,,null,,,,,,,,,,,,,,,,,
1624.5999999642372,,pt2_unique_rating,307989,Frankfort,,52,,4,,,,,,,,,,,,,,,
null,,confidence_buffer,308092,confidence_buffer,,null,,,,,,,,,,,,,,,,,
907.5999999642372,,pt2_memorable_rating,309001,Frankfort,,52,,4,,,,,,,,,,,,,,,
null,,confidence_buffer,309105,confidence_buffer,,null,,,,,,,,,,,,,,,,,
1322.9000000357628,,recognition_phase,310430,Frankfort,,52,,,,,new,1,1,,,,,,,,,,
null,,confidence_buffer,310533,confidence_buffer,,null,,,,,,,,,,,,,,,,,
null,,thebreak,311036,break,,null,,,,,,,,,,,,,,,,,
1245.6000000238419,,realistic_rating,312283,Abilene,,53,Abilene,5,,,,,,,,,,,,,,,
null,,confidence_buffer,312386,confidence_buffer,,null,,,,,,,,,,,,,,,,,
835.6999999880791,,probe_rating,313223,probe_rating,,53,,,5,0,,,,,,,,,,,,,
null,,confidence_buffer,313326,confidence_buffer,,null,,,,,,,,,,,,,,,,,
1464,,pt2_unique_rating,314792,Abilene,,51,,3,,,,,,,,,,,,,,,
null,,confidence_buffer,314896,confidence_buffer,,null,,,,,,,,,,,,,,,,,
338.5,,pt2_memorable_rating,315236,Abilene,,52,,4,,,,,,,,,,,,,,,
null,,confidence_buffer,315339,confidence_buffer,,null,,,,,,,,,,,,,,,,,
6410.700000047684,,recognition_phase,321752,Abilene,,49,,,,,old,1,1,,,,,,,,,,
null,,confidence_buffer,321856,confidence_buffer,,null,,,,,,,,,,,,,,,,,
null,,thebreak,322358,break,,null,,,,,,,,,,,,,,,,,
2622.100000023842,,realistic_rating,324982,Fargo,,53,Fargo,5,,,,,,,,,,,,,,,
null,,confidence_buffer,325085,confidence_buffer,,null,,,,,,,,,,,,,,,,,
2220.400000035763,,pt2_unique_rating,327306,Fargo,,53,,5,,,,,,,,,,,,,,,
null,,confidence_buffer,327409,confidence_buffer,,null,,,,,,,,,,,,,,,,,
1689.6000000238419,,pt2_memorable_rating,329100,Fargo,,53,,5,,,,,,,,,,,,,,,
null,,confidence_buffer,329203,confidence_buffer,,null,,,,,,,,,,,,,,,,,
4407.300000011921,,recognition_phase,333612,Fargo,,49,,,,,old,1,1,,,,,,,,,,
null,,confidence_buffer,333716,confidence_buffer,,null,,,,,,,,,,,,,,,,,
null,,thebreak,334218,break,,null,,,,,,,,,,,,,,,,,
1444.5,,realistic_rating,335665,Champaign,,53,Champaign,5,,,,,,,,,,,,,,,
null,,confidence_buffer,335768,confidence_buffer,,null,,,,,,,,,,,,,,,,,
1318.8999999761581,,pt2_unique_rating,337089,Champaign,,53,,5,,,,,,,,,,,,,,,
null,,confidence_buffer,337192,confidence_buffer,,null,,,,,,,,,,,,,,,,,
1903.699999988079,,probe_rating,339098,probe_rating,,52,,,4,1,,,,,,,,,,,,,
null,,confidence_buffer,339200,confidence_buffer,,null,,,,,,,,,,,,,,,,,
1883.5999999642372,,pt2_memorable_rating,341086,Champaign,,53,,5,,,,,,,,,,,,,,,
null,,confidence_buffer,341190,confidence_buffer,,null,,,,,,,,,,,,,,,,,
2307.699999988079,,recognition_phase,343499,Champaign,,49,,,,,old,1,1,,,,,,,,,,
null,,confidence_buffer,343601,confidence_buffer,,null,,,,,,,,,,,,,,,,,
null,,thebreak,344104,break,,null,,,,,,,,,,,,,,,,,
2086.600000023842,,realistic_rating,346192,Marquette,,53,Marquette,5,,,,,,,,,,,,,,,
null,,confidence_buffer,346295,confidence_buffer,,null,,,,,,,,,,,,,,,,,
1384,,pt2_unique_rating,347681,Marquette,,53,,5,,,,,,,,,,,,,,,
null,,confidence_buffer,347784,confidence_buffer,,null,,,,,,,,,,,,,,,,,
943.6000000238419,,pt2_memorable_rating,348729,Marquette,,53,,5,,,,,,,,,,,,,,,
null,,confidence_buffer,348833,confidence_buffer,,null,,,,,,,,,,,,,,,,,
1633.1000000238419,,recognition_phase,350468,Marquette,,52,,,,,new,1,1,,,,,,,,,,
null,,confidence_buffer,350571,confidence_buffer,,null,,,,,,,,,,,,,,,,,
null,,thebreak,351075,break,,null,,,,,,,,,,,,,,,,,
3513.099999964237,,realistic_rating,354590,Youngstown,,53,Youngstown,5,,,,,,,,,,,,,,,
null,,confidence_buffer,354692,confidence_buffer,,null,,,,,,,,,,,,,,,,,
735.3999999761581,,pt2_unique_rating,355429,Youngstown,,52,,4,,,,,,,,,,,,,,,
null,,confidence_buffer,355532,confidence_buffer,,null,,,,,,,,,,,,,,,,,
1866.5999999642372,,pt2_memorable_rating,357401,Youngstown,,52,,4,,,,,,,,,,,,,,,
null,,confidence_buffer,357505,confidence_buffer,,null,,,,,,,,,,,,,,,,,
1394,,recognition_phase,358901,Youngstown,,52,,,,,new,1,1,,,,,,,,,,
null,,confidence_buffer,359005,confidence_buffer,,null,,,,,,,,,,,,,,,,,
null,,thebreak,359506,break,,null,,,,,,,,,,,,,,,,,
3364.599999964237,,realistic_rating,362874,Athens,,53,Athens,5,,,,,,,,,,,,,,,
null,,confidence_buffer,362978,confidence_buffer,,null,,,,,,,,,,,,,,,,,
1437.4000000357628,,pt2_unique_rating,364416,Athens,,53,,5,,,,,,,,,,,,,,,
null,,confidence_buffer,364519,confidence_buffer,,null,,,,,,,,,,,,,,,,,
909.5,,pt2_memorable_rating,365431,Athens,,53,,5,,,,,,,,,,,,,,,
null,,confidence_buffer,365534,confidence_buffer,,null,,,,,,,,,,,,,,,,,
1547.699999988079,,recognition_phase,367084,Athens,,52,,,,,new,1,1,,,,,,,,,,
null,,confidence_buffer,367194,confidence_buffer,,null,,,,,,,,,,,,,,,,,
null,,thebreak,367697,break,,null,,,,,,,,,,,,,,,,,
1354.3999999761581,,realistic_rating,369053,Decatur,,53,Decatur,5,,,,,,,,,,,,,,,
null,,confidence_buffer,369161,confidence_buffer,,null,,,,,,,,,,,,,,,,,
1234,,pt2_unique_rating,370397,Decatur,,53,,5,,,,,,,,,,,,,,,
null,,confidence_buffer,370501,confidence_buffer,,null,,,,,,,,,,,,,,,,,
1492.0999999642372,,probe_rating,371995,probe_rating,,50,,,2,1,,,,,,,,,,,,,
null,,confidence_buffer,372098,confidence_buffer,,null,,,,,,,,,,,,,,,,,
3941.400000035763,,pt2_memorable_rating,376042,Decatur,,53,,5,,,,,,,,,,,,,,,
null,,confidence_buffer,376146,confidence_buffer,,null,,,,,,,,,,,,,,,,,
4514.600000023842,,recognition_phase,380663,Decatur,,52,,,,,new,0,0.9411764705882353,,,,,,,,,,
null,,confidence_buffer,380767,confidence_buffer,,null,,,,,,,,,,,,,,,,,
null,,thebreak,381269,break,,null,,,,,,,,,,,,,,,,,
1324.8999999761581,,realistic_rating,382596,Reno,,53,Reno,5,,,,,,,,,,,,,,,
null,,confidence_buffer,382700,confidence_buffer,,null,,,,,,,,,,,,,,,,,
728.5,,pt2_unique_rating,383431,Reno,,53,,5,,,,,,,,,,,,,,,
null,,confidence_buffer,383534,confidence_buffer,,null,,,,,,,,,,,,,,,,,
1367.1000000238419,,pt2_memorable_rating,384903,Reno,,53,,5,,,,,,,,,,,,,,,
null,,confidence_buffer,385005,confidence_buffer,,null,,,,,,,,,,,,,,,,,
2598.899999976158,,recognition_phase,387605,Reno,,49,,,,,old,1,0.9444444444444444,,,,,,,,,,
null,,confidence_buffer,387708,confidence_buffer,,null,,,,,,,,,,,,,,,,,
null,,thebreak,388209,break,,null,,,,,,,,,,,,,,,,,
3515.599999964237,,realistic_rating,391726,Topeka,,53,Topeka,5,,,,,,,,,,,,,,,
null,,confidence_buffer,391830,confidence_buffer,,null,,,,,,,,,,,,,,,,,
1265.5,,pt2_unique_rating,393097,Topeka,,53,,5,,,,,,,,,,,,,,,
null,,confidence_buffer,393200,confidence_buffer,,null,,,,,,,,,,,,,,,,,
943.6999999880791,,pt2_memorable_rating,394145,Topeka,,53,,5,,,,,,,,,,,,,,,
null,,confidence_buffer,394249,confidence_buffer,,null,,,,,,,,,,,,,,,,,
1379,,recognition_phase,395630,Topeka,,52,,,,,new,1,0.9473684210526315,,,,,,,,,,
null,,confidence_buffer,395733,confidence_buffer,,null,,,,,,,,,,,,,,,,,
null,,thebreak,396236,break,,null,,,,,,,,,,,,,,,,,
2154.699999988079,,realistic_rating,398393,Dover,,51,Dover,3,,,,,,,,,,,,,,,
null,,confidence_buffer,398496,confidence_buffer,,null,,,,,,,,,,,,,,,,,
1514.5,,pt2_unique_rating,400013,Dover,,52,,4,,,,,,,,,,,,,,,
null,,confidence_buffer,400116,confidence_buffer,,null,,,,,,,,,,,,,,,,,
1022.8999999761581,,pt2_memorable_rating,401140,Dover,,52,,4,,,,,,,,,,,,,,,
null,,confidence_buffer,401244,confidence_buffer,,null,,,,,,,,,,,,,,,,,
1677.6000000238419,,recognition_phase,402924,Dover,,49,,,,,old,1,0.95,,,,,,,,,,
null,,confidence_buffer,403029,confidence_buffer,,null,,,,,,,,,,,,,,,,,
null,,thebreak,403531,break,,null,,,,,,,,,,,,,,,,,
2803.100000023842,,realistic_rating,406336,Pueblo,,51,Pueblo,3,,,,,,,,,,,,,,,
null,,confidence_buffer,406439,confidence_buffer,,null,,,,,,,,,,,,,,,,,
722.1000000238419,,pt2_unique_rating,407163,Pueblo,,52,,4,,,,,,,,,,,,,,,
null,,confidence_buffer,407266,confidence_buffer,,null,,,,,,,,,,,,,,,,,
836.6999999880791,,pt2_memorable_rating,408105,Pueblo,,52,,4,,,,,,,,,,,,,,,
null,,confidence_buffer,408207,confidence_buffer,,null,,,,,,,,,,,,,,,,,
1038.8999999761581,,recognition_phase,409248,Pueblo,,49,,,,,old,1,0.9523809523809523,,,,,,,,,,
null,,confidence_buffer,409352,confidence_buffer,,null,,,,,,,,,,,,,,,,,
null,,thebreak,409855,break,,null,,,,,,,,,,,,,,,,,
2345.199999988079,,realistic_rating,412202,Cheyenne,,53,Cheyenne,5,,,,,,,,,,,,,,,
null,,confidence_buffer,412304,confidence_buffer,,null,,,,,,,,,,,,,,,,,
749.6999999880791,,pt2_unique_rating,413056,Cheyenne,,53,,5,,,,,,,,,,,,,,,
null,,confidence_buffer,413159,confidence_buffer,,null,,,,,,,,,,,,,,,,,
1258.5,,pt2_memorable_rating,414419,Cheyenne,,53,,5,,,,,,,,,,,,,,,
null,,confidence_buffer,414523,confidence_buffer,,null,,,,,,,,,,,,,,,,,
2087.399999976158,,recognition_phase,416613,Cheyenne,,52,,,,,new,1,0.9545454545454546,,,,,,,,,,
null,,confidence_buffer,416716,confidence_buffer,,null,,,,,,,,,,,,,,,,,
null,,thebreak,417218,break,,null,,,,,,,,,,,,,,,,,
2040.3999999761581,,realistic_rating,419260,Dubuque,,53,Dubuque,5,,,,,,,,,,,,,,,
null,,confidence_buffer,419363,confidence_buffer,,null,,,,,,,,,,,,,,,,,
868.6999999880791,,pt2_unique_rating,420234,Dubuque,,53,,5,,,,,,,,,,,,,,,
null,,confidence_buffer,420336,confidence_buffer,,null,,,,,,,,,,,,,,,,,
835.6999999880791,,pt2_memorable_rating,421173,Dubuque,,53,,5,,,,,,,,,,,,,,,
null,,confidence_buffer,421276,confidence_buffer,,null,,,,,,,,,,,,,,,,,
1333.3999999761581,,probe_rating,422612,probe_rating,,49,,,1,0,,,,,,,,,,,,,
null,,confidence_buffer,422715,confidence_buffer,,null,,,,,,,,,,,,,,,,,
13458.800000011921,,recognition_phase,436176,Dubuque,,52,,,,,new,0,0.9130434782608695,,,,,,,,,,
null,,confidence_buffer,436279,confidence_buffer,,null,,,,,,,,,,,,,,,,,
null,,thebreak,436782,break,,null,,,,,,,,,,,,,,,,,
1839.800000011921,,realistic_rating,438624,McKinney,,53,McKinney,5,,,,,,,,,,,,,,,
null,,confidence_buffer,438728,confidence_buffer,,null,,,,,,,,,,,,,,,,,
1087.800000011921,,pt2_unique_rating,439818,McKinney,,53,,5,,,,,,,,,,,,,,,
null,,confidence_buffer,439921,confidence_buffer,,null,,,,,,,,,,,,,,,,,
1643.1000000238419,,pt2_memorable_rating,441566,McKinney,,53,,5,,,,,,,,,,,,,,,
null,,confidence_buffer,441669,confidence_buffer,,null,,,,,,,,,,,,,,,,,
2106.5,,recognition_phase,443777,McKinney,,52,,,,,new,1,0.9166666666666666,,,,,,,,,,
null,,confidence_buffer,443880,confidence_buffer,,null,,,,,,,,,,,,,,,,,
null,,thebreak,444381,break,,null,,,,,,,,,,,,,,,,,
1793.199999988079,,realistic_rating,446176,Boulder,,53,Boulder,5,,,,,,,,,,,,,,,
null,,confidence_buffer,446279,confidence_buffer,,null,,,,,,,,,,,,,,,,,
1555.6000000238419,,pt2_unique_rating,447836,Boulder,,53,,5,,,,,,,,,,,,,,,
null,,confidence_buffer,447947,confidence_buffer,,null,,,,,,,,,,,,,,,,,
1040.699999988079,,pt2_memorable_rating,448988,Boulder,,53,,5,,,,,,,,,,,,,,,
null,,confidence_buffer,449091,confidence_buffer,,null,,,,,,,,,,,,,,,,,
2139.100000023842,,recognition_phase,451231,Boulder,,52,,,,,new,1,0.92,,,,,,,,,,
null,,confidence_buffer,451334,confidence_buffer,,null,,,,,,,,,,,,,,,,,
null,,thebreak,451836,break,,null,,,,,,,,,,,,,,,,,
1773.5,,realistic_rating,453611,Scottsdale,,53,Scottsdale,5,,,,,,,,,,,,,,,
null,,confidence_buffer,453717,confidence_buffer,,null,,,,,,,,,,,,,,,,,
1226.300000011921,,pt2_unique_rating,454945,Scottsdale,,53,,5,,,,,,,,,,,,,,,
null,,confidence_buffer,455049,confidence_buffer,,null,,,,,,,,,,,,,,,,,
1168.199999988079,,pt2_memorable_rating,456218,Scottsdale,,52,,4,,,,,,,,,,,,,,,
null,,confidence_buffer,456322,confidence_buffer,,null,,,,,,,,,,,,,,,,,
1618.6000000238419,,recognition_phase,457943,Scottsdale,,49,,,,,old,1,0.9230769230769231,,,,,,,,,,
null,,confidence_buffer,458047,confidence_buffer,,null,,,,,,,,,,,,,,,,,
null,,thebreak,458548,break,,null,,,,,,,,,,,,,,,,,
2349.5,,realistic_rating,460900,Boise,,53,Boise,5,,,,,,,,,,,,,,,
null,,confidence_buffer,461003,confidence_buffer,,null,,,,,,,,,,,,,,,,,
1338.199999988079,,pt2_unique_rating,462344,Boise,,53,,5,,,,,,,,,,,,,,,
null,,confidence_buffer,462447,confidence_buffer,,null,,,,,,,,,,,,,,,,,
1213.3999999761581,,pt2_memorable_rating,463662,Boise,,53,,5,,,,,,,,,,,,,,,
null,,confidence_buffer,463765,confidence_buffer,,null,,,,,,,,,,,,,,,,,
1508.4000000357628,,recognition_phase,465276,Boise,,52,,,,,new,1,0.9259259259259259,,,,,,,,,,
null,,confidence_buffer,465380,confidence_buffer,,null,,,,,,,,,,,,,,,,,
null,,thebreak,465883,break,,null,,,,,,,,,,,,,,,,,
1049.4000000357628,,realistic_rating,466934,Cambridge,,53,Cambridge,5,,,,,,,,,,,,,,,
null,,confidence_buffer,467038,confidence_buffer,,null,,,,,,,,,,,,,,,,,
892.8000000119209,,pt2_unique_rating,467932,Cambridge,,53,,5,,,,,,,,,,,,,,,
null,,confidence_buffer,468034,confidence_buffer,,null,,,,,,,,,,,,,,,,,
1477.8999999761581,,pt2_memorable_rating,469513,Cambridge,,53,,5,,,,,,,,,,,,,,,
null,,confidence_buffer,469615,confidence_buffer,,null,,,,,,,,,,,,,,,,,
1493,,recognition_phase,471109,Cambridge,,49,,,,,old,1,0.9285714285714286,,,,,,,,,,
null,,confidence_buffer,471211,confidence_buffer,,null,,,,,,,,,,,,,,,,,
null,,thebreak,471713,break,,null,,,,,,,,,,,,,,,,,
2678.100000023842,,realistic_rating,474392,Helena,,53,Helena,5,,,,,,,,,,,,,,,
null,,confidence_buffer,474494,confidence_buffer,,null,,,,,,,,,,,,,,,,,
1015.6999999880791,,pt2_unique_rating,475511,Helena,,53,,5,,,,,,,,,,,,,,,
null,,confidence_buffer,475614,confidence_buffer,,null,,,,,,,,,,,,,,,,,
1598.699999988079,,pt2_memorable_rating,477214,Helena,,53,,5,,,,,,,,,,,,,,,
null,,confidence_buffer,477316,confidence_buffer,,null,,,,,,,,,,,,,,,,,
1603.2000000476837,,recognition_phase,478922,Helena,,52,,,,,new,1,0.9310344827586207,,,,,,,,,,
null,,confidence_buffer,479025,confidence_buffer,,null,,,,,,,,,,,,,,,,,
null,,thebreak,479527,break,,null,,,,,,,,,,,,,,,,,
2062,,realistic_rating,481590,Altoona,,53,Altoona,5,,,,,,,,,,,,,,,
null,,confidence_buffer,481691,confidence_buffer,,null,,,,,,,,,,,,,,,,,
1555.8999999761581,,pt2_unique_rating,483248,Altoona,,53,,5,,,,,,,,,,,,,,,
null,,confidence_buffer,483351,confidence_buffer,,null,,,,,,,,,,,,,,,,,
3368.099999964237,,pt2_memorable_rating,486720,Altoona,,53,,5,,,,,,,,,,,,,,,
null,,confidence_buffer,486836,confidence_buffer,,null,,,,,,,,,,,,,,,,,
3723.800000011921,,recognition_phase,490561,Altoona,,49,,,,,old,1,0.9333333333333333,,,,,,,,,,
null,,confidence_buffer,490663,confidence_buffer,,null,,,,,,,,,,,,,,,,,
null,,thebreak,491165,break,,null,,,,,,,,,,,,,,,,,
1153.5,,realistic_rating,492319,Berkeley,,53,Berkeley,5,,,,,,,,,,,,,,,
null,,confidence_buffer,492422,confidence_buffer,,null,,,,,,,,,,,,,,,,,
834.6000000238419,,pt2_unique_rating,493258,Berkeley,,53,,5,,,,,,,,,,,,,,,
null,,confidence_buffer,493365,confidence_buffer,,null,,,,,,,,,,,,,,,,,
1266.5,,pt2_memorable_rating,494632,Berkeley,,53,,5,,,,,,,,,,,,,,,
null,,confidence_buffer,494734,confidence_buffer,,null,,,,,,,,,,,,,,,,,
1621.699999988079,,recognition_phase,496357,Berkeley,,52,,,,,new,1,0.9354838709677419,,,,,,,,,,
null,,confidence_buffer,496460,confidence_buffer,,null,,,,,,,,,,,,,,,,,
null,,thebreak,496963,break,,null,,,,,,,,,,,,,,,,,
1268.2999999523163,,realistic_rating,498233,Carson City,,53,Carson City,5,,,,,,,,,,,,,,,
null,,confidence_buffer,498336,confidence_buffer,,null,,,,,,,,,,,,,,,,,
975.8000000119209,,pt2_unique_rating,499312,Carson City,,53,,5,,,,,,,,,,,,,,,
null,,confidence_buffer,499415,confidence_buffer,,null,,,,,,,,,,,,,,,,,
1745.699999988079,,pt2_memorable_rating,501162,Carson City,,53,,5,,,,,,,,,,,,,,,
null,,confidence_buffer,501266,confidence_buffer,,null,,,,,,,,,,,,,,,,,
579.3000000119209,,recognition_phase,501848,Carson City,,52,,,,,new,1,0.9375,,,,,,,,,,
null,,confidence_buffer,501951,confidence_buffer,,null,,,,,,,,,,,,,,,,,
null,,thebreak,502452,break,,null,,,,,,,,,,,,,,,,,
8407.800000011921,,realistic_rating,510861,Rock Springs,,51,Rock Springs,3,,,,,,,,,,,,,,,
null,,confidence_buffer,510963,confidence_buffer,,null,,,,,,,,,,,,,,,,,
2184.600000023842,,pt2_unique_rating,513148,Rock Springs,,52,,4,,,,,,,,,,,,,,,
null,,confidence_buffer,513256,confidence_buffer,,null,,,,,,,,,,,,,,,,,
1055.5,,pt2_memorable_rating,514313,Rock Springs,,52,,4,,,,,,,,,,,,,,,
null,,confidence_buffer,514415,confidence_buffer,,null,,,,,,,,,,,,,,,,,
1568.3999999761581,,recognition_phase,515986,Rock Springs,,49,,,,,old,1,0.9393939393939394,,,,,,,,,,
null,,confidence_buffer,516089,confidence_buffer,,null,,,,,,,,,,,,,,,,,
null,,thebreak,516591,break,,null,,,,,,,,,,,,,,,,,
2989.100000023842,,realistic_rating,519583,Las Cruces,,53,Las Cruces,5,,,,,,,,,,,,,,,
null,,confidence_buffer,519686,confidence_buffer,,null,,,,,,,,,,,,,,,,,
1569.6000000238419,,pt2_unique_rating,521256,Las Cruces,,53,,5,,,,,,,,,,,,,,,
null,,confidence_buffer,521359,confidence_buffer,,null,,,,,,,,,,,,,,,,,
909.7000000476837,,pt2_memorable_rating,522270,Las Cruces,,53,,5,,,,,,,,,,,,,,,
null,,confidence_buffer,522373,confidence_buffer,,null,,,,,,,,,,,,,,,,,
2066.600000023842,,recognition_phase,524442,Las Cruces,,49,,,,,old,1,0.9411764705882353,,,,,,,,,,
null,,confidence_buffer,524546,confidence_buffer,,null,,,,,,,,,,,,,,,,,
null,,thebreak,525048,break,,null,,,,,,,,,,,,,,,,,
2199.2000000476837,,realistic_rating,527249,Olympia,,53,Olympia,5,,,,,,,,,,,,,,,
null,,confidence_buffer,527353,confidence_buffer,,null,,,,,,,,,,,,,,,,,
2092.5,,pt2_unique_rating,529447,Olympia,,52,,4,,,,,,,,,,,,,,,
null,,confidence_buffer,529551,confidence_buffer,,null,,,,,,,,,,,,,,,,,
1107.699999988079,,pt2_memorable_rating,530660,Olympia,,52,,4,,,,,,,,,,,,,,,
null,,confidence_buffer,530763,confidence_buffer,,null,,,,,,,,,,,,,,,,,
1648.800000011921,,recognition_phase,532414,Olympia,,52,,,,,new,1,0.9428571428571428,,,,,,,,,,
null,,confidence_buffer,532518,confidence_buffer,,null,,,,,,,,,,,,,,,,,
null,,thebreak,533031,break,,null,,,,,,,,,,,,,,,,,
1478.199999988079,,realistic_rating,534511,Pasadena,,53,Pasadena,5,,,,,,,,,,,,,,,
null,,confidence_buffer,534614,confidence_buffer,,null,,,,,,,,,,,,,,,,,
1234.6000000238419,,pt2_unique_rating,535851,Pasadena,,53,,5,,,,,,,,,,,,,,,
null,,confidence_buffer,535955,confidence_buffer,,null,,,,,,,,,,,,,,,,,
1021.8999999761581,,pt2_memorable_rating,536978,Pasadena,,53,,5,,,,,,,,,,,,,,,
null,,confidence_buffer,537081,confidence_buffer,,null,,,,,,,,,,,,,,,,,
2168,,probe_rating,539252,probe_rating,,52,,,4,1,,,,,,,,,,,,,
null,,confidence_buffer,539355,confidence_buffer,,null,,,,,,,,,,,,,,,,,
3566.5,,recognition_phase,542923,Pasadena,,49,,,,,old,1,0.9444444444444444,,,,,,,,,,
null,,confidence_buffer,543027,confidence_buffer,,null,,,,,,,,,,,,,,,,,
null,,thebreak,543529,break,,null,,,,,,,,,,,,,,,,,
2363.800000011921,,realistic_rating,545895,Bellingham,,53,Bellingham,5,,,,,,,,,,,,,,,
null,,confidence_buffer,545997,confidence_buffer,,null,,,,,,,,,,,,,,,,,
975.2000000476837,,pt2_unique_rating,546974,Bellingham,,53,,5,,,,,,,,,,,,,,,
null,,confidence_buffer,547077,confidence_buffer,,null,,,,,,,,,,,,,,,,,
1658.2999999523163,,pt2_memorable_rating,548738,Bellingham,,52,,4,,,,,,,,,,,,,,,
null,,confidence_buffer,548840,confidence_buffer,,null,,,,,,,,,,,,,,,,,
1477.5999999642372,,recognition_phase,550320,Bellingham,,49,,,,,old,1,0.9459459459459459,,,,,,,,,,
null,,confidence_buffer,550423,confidence_buffer,,null,,,,,,,,,,,,,,,,,
null,,thebreak,550925,break,,null,,,,,,,,,,,,,,,,,
1990.699999988079,,realistic_rating,552918,Montpelier,,53,Montpelier,5,,,,,,,,,,,,,,,
null,,confidence_buffer,553020,confidence_buffer,,null,,,,,,,,,,,,,,,,,
2398.600000023842,,pt2_unique_rating,555420,Montpelier,,53,,5,,,,,,,,,,,,,,,
null,,confidence_buffer,555534,confidence_buffer,,null,,,,,,,,,,,,,,,,,
793.5999999642372,,pt2_memorable_rating,556330,Montpelier,,53,,5,,,,,,,,,,,,,,,
null,,confidence_buffer,556433,confidence_buffer,,null,,,,,,,,,,,,,,,,,
1627.6000000238419,,recognition_phase,558062,Montpelier,,52,,,,,new,1,0.9473684210526315,,,,,,,,,,
null,,confidence_buffer,558166,confidence_buffer,,null,,,,,,,,,,,,,,,,,
null,,thebreak,558669,break,,null,,,,,,,,,,,,,,,,,
822.3000000119209,,realistic_rating,559493,Gainesville,,53,Gainesville,5,,,,,,,,,,,,,,,
null,,confidence_buffer,559597,confidence_buffer,,null,,,,,,,,,,,,,,,,,
965.8000000119209,,pt2_unique_rating,560565,Gainesville,,53,,5,,,,,,,,,,,,,,,
null,,confidence_buffer,560668,confidence_buffer,,null,,,,,,,,,,,,,,,,,
1522.3999999761581,,pt2_memorable_rating,562193,Gainesville,,53,,5,,,,,,,,,,,,,,,
null,,confidence_buffer,562307,confidence_buffer,,null,,,,,,,,,,,,,,,,,
1297.300000011921,,recognition_phase,563607,Gainesville,,52,,,,,new,1,0.9487179487179487,,,,,,,,,,
null,,confidence_buffer,563710,confidence_buffer,,null,,,,,,,,,,,,,,,,,
null,,thebreak,564212,break,,null,,,,,,,,,,,,,,,,,
1267.1000000238419,,realistic_rating,565481,New Haven,,53,New Haven,5,,,,,,,,,,,,,,,
null,,confidence_buffer,565583,confidence_buffer,,null,,,,,,,,,,,,,,,,,
1753.199999988079,,pt2_unique_rating,567338,New Haven,,52,,4,,,,,,,,,,,,,,,
null,,confidence_buffer,567441,confidence_buffer,,null,,,,,,,,,,,,,,,,,
1098.1000000238419,,pt2_memorable_rating,568540,New Haven,,52,,4,,,,,,,,,,,,,,,
null,,confidence_buffer,568643,confidence_buffer,,null,,,,,,,,,,,,,,,,,
1174.699999988079,,recognition_phase,569819,New Haven,,49,,,,,old,1,0.95,,,,,,,,,,
null,,confidence_buffer,569920,confidence_buffer,,null,,,,,,,,,,,,,,,,,
null,,thebreak,570422,break,,null,,,,,,,,,,,,,,,,,
2967.2000000476837,,realistic_rating,573390,Ann Arbor,,53,Ann Arbor,5,,,,,,,,,,,,,,,
null,,confidence_buffer,573493,confidence_buffer,,null,,,,,,,,,,,,,,,,,
974.5999999642372,,pt2_unique_rating,574469,Ann Arbor,,53,,5,,,,,,,,,,,,,,,
null,,confidence_buffer,574586,confidence_buffer,,null,,,,,,,,,,,,,,,,,
1367.6000000238419,,pt2_memorable_rating,575955,Ann Arbor,,53,,5,,,,,,,,,,,,,,,
null,,confidence_buffer,576058,confidence_buffer,,null,,,,,,,,,,,,,,,,,
1417.7999999523163,,recognition_phase,577478,Ann Arbor,,52,,,,,new,1,0.9512195121951219,,,,,,,,,,
null,,confidence_buffer,577580,confidence_buffer,,null,,,,,,,,,,,,,,,,,
null,,thebreak,578084,break,,null,,,,,,,,,,,,,,,,,
1069.6000000238419,,realistic_rating,579156,Peoria,,53,Peoria,5,,,,,,,,,,,,,,,
null,,confidence_buffer,579259,confidence_buffer,,null,,,,,,,,,,,,,,,,,
1635.4000000357628,,pt2_unique_rating,580897,Peoria,,53,,5,,,,,,,,,,,,,,,
null,,confidence_buffer,581001,confidence_buffer,,null,,,,,,,,,,,,,,,,,
1390.8999999761581,,pt2_memorable_rating,582394,Peoria,,53,,5,,,,,,,,,,,,,,,
null,,confidence_buffer,582499,confidence_buffer,,null,,,,,,,,,,,,,,,,,
1375.1000000238419,,recognition_phase,583876,Peoria,,52,,,,,new,1,0.9523809523809523,,,,,,,,,,
null,,confidence_buffer,583979,confidence_buffer,,null,,,,,,,,,,,,,,,,,
null,,thebreak,584481,break,,null,,,,,,,,,,,,,,,,,
1177.2999999523163,,realistic_rating,585661,Dothan,,53,Dothan,5,,,,,,,,,,,,,,,
null,,confidence_buffer,585765,confidence_buffer,,null,,,,,,,,,,,,,,,,,
5042.399999976158,,pt2_unique_rating,590809,Dothan,,49,,1,,,,,,,,,,,,,,,
null,,confidence_buffer,590912,confidence_buffer,,null,,,,,,,,,,,,,,,,,
3246.600000023842,,pt2_memorable_rating,594161,Dothan,,52,,4,,,,,,,,,,,,,,,
null,,confidence_buffer,594264,confidence_buffer,,null,,,,,,,,,,,,,,,,,
4649.399999976158,,recognition_phase,598915,Dothan,,52,,,,,new,1,0.9534883720930233,,,,,,,,,,
null,,confidence_buffer,599019,confidence_buffer,,null,,,,,,,,,,,,,,,,,
null,,thebreak,599521,break,,null,,,,,,,,,,,,,,,,,
2893.800000011921,,realistic_rating,602418,Bozeman,,51,Bozeman,3,,,,,,,,,,,,,,,
null,,confidence_buffer,602521,confidence_buffer,,null,,,,,,,,,,,,,,,,,
1232.5,,pt2_unique_rating,603755,Bozeman,,52,,4,,,,,,,,,,,,,,,
null,,confidence_buffer,603859,confidence_buffer,,null,,,,,,,,,,,,,,,,,
868.5,,pt2_memorable_rating,604729,Bozeman,,52,,4,,,,,,,,,,,,,,,
null,,confidence_buffer,604831,confidence_buffer,,null,,,,,,,,,,,,,,,,,
1639.8999999761581,,recognition_phase,606473,Bozeman,,49,,,,,old,1,0.9545454545454546,,,,,,,,,,
null,,confidence_buffer,606575,confidence_buffer,,null,,,,,,,,,,,,,,,,,
null,,thebreak,607077,break,,null,,,,,,,,,,,,,,,,,
2070.400000035763,,realistic_rating,609150,Syracuse,,53,Syracuse,5,,,,,,,,,,,,,,,
null,,confidence_buffer,609253,confidence_buffer,,null,,,,,,,,,,,,,,,,,
1073.800000011921,,pt2_unique_rating,610329,Syracuse,,53,,5,,,,,,,,,,,,,,,
null,,confidence_buffer,610432,confidence_buffer,,null,,,,,,,,,,,,,,,,,
929.3000000119209,,pt2_memorable_rating,611363,Syracuse,,53,,5,,,,,,,,,,,,,,,
null,,confidence_buffer,611468,confidence_buffer,,null,,,,,,,,,,,,,,,,,
1644.300000011921,,recognition_phase,613116,Syracuse,,49,,,,,old,1,0.9555555555555556,,,,,,,,,,
null,,confidence_buffer,613220,confidence_buffer,,null,,,,,,,,,,,,,,,,,
null,,thebreak,613724,break,,null,,,,,,,,,,,,,,,,,
1893,,realistic_rating,615619,Santa Monica,,53,Santa Monica,5,,,,,,,,,,,,,,,
null,,confidence_buffer,615724,confidence_buffer,,null,,,,,,,,,,,,,,,,,
860.8999999761581,,pt2_unique_rating,616587,Santa Monica,,53,,5,,,,,,,,,,,,,,,
null,,confidence_buffer,616691,confidence_buffer,,null,,,,,,,,,,,,,,,,,
2178,,pt2_memorable_rating,618872,Santa Monica,,53,,5,,,,,,,,,,,,,,,
null,,confidence_buffer,618978,confidence_buffer,,null,,,,,,,,,,,,,,,,,
1713.1000000238419,,recognition_phase,620694,Santa Monica,,52,,,,,new,1,0.9565217391304348,,,,,,,,,,
null,,confidence_buffer,620802,confidence_buffer,,null,,,,,,,,,,,,,,,,,
null,,thebreak,621305,break,,null,,,,,,,,,,,,,,,,,
1713.199999988079,,realistic_rating,623021,Fort Wayne,,53,Fort Wayne,5,,,,,,,,,,,,,,,
null,,confidence_buffer,623127,confidence_buffer,,null,,,,,,,,,,,,,,,,,
1865.4000000357628,,pt2_unique_rating,624995,Fort Wayne,,52,,4,,,,,,,,,,,,,,,
null,,confidence_buffer,625100,confidence_buffer,,null,,,,,,,,,,,,,,,,,
771.1999999880791,,pt2_memorable_rating,625874,Fort Wayne,,52,,4,,,,,,,,,,,,,,,
null,,confidence_buffer,625976,confidence_buffer,,null,,,,,,,,,,,,,,,,,
2282.900000035763,,recognition_phase,628261,Fort Wayne,,52,,,,,new,0,0.9361702127659575,,,,,,,,,,
null,,confidence_buffer,628365,confidence_buffer,,null,,,,,,,,,,,,,,,,,
null,,thebreak,628868,break,,null,,,,,,,,,,,,,,,,,
2930.600000023842,,realistic_rating,631801,Hagerstown,,53,Hagerstown,5,,,,,,,,,,,,,,,
null,,confidence_buffer,631903,confidence_buffer,,null,,,,,,,,,,,,,,,,,
1559.699999988079,,pt2_unique_rating,633464,Hagerstown,,53,,5,,,,,,,,,,,,,,,
null,,confidence_buffer,633567,confidence_buffer,,null,,,,,,,,,,,,,,,,,
900.0999999642372,,pt2_memorable_rating,634468,Hagerstown,,53,,5,,,,,,,,,,,,,,,
null,,confidence_buffer,634570,confidence_buffer,,null,,,,,,,,,,,,,,,,,
1410.5999999642372,,recognition_phase,635982,Hagerstown,,49,,,,,old,1,0.9375,,,,,,,,,,
null,,confidence_buffer,636084,confidence_buffer,,null,,,,,,,,,,,,,,,,,
null,,thebreak,636586,break,,null,,,,,,,,,,,,,,,,,
3271.599999964237,,realistic_rating,639859,Newport News,,49,Newport News,1,,,,,,,,,,,,,,,
null,,confidence_buffer,639963,confidence_buffer,,null,,,,,,,,,,,,,,,,,
2122,,pt2_unique_rating,642087,Newport News,,51,,3,,,,,,,,,,,,,,,
null,,confidence_buffer,642191,confidence_buffer,,null,,,,,,,,,,,,,,,,,
2012.2000000476837,,pt2_memorable_rating,644205,Newport News,,53,,5,,,,,,,,,,,,,,,
null,,confidence_buffer,644307,confidence_buffer,,null,,,,,,,,,,,,,,,,,
1575.4000000357628,,recognition_phase,645884,Newport News,,49,,,,,old,1,0.9387755102040817,,,,,,,,,,
null,,confidence_buffer,645989,confidence_buffer,,null,,,,,,,,,,,,,,,,,
null,,thebreak,646491,break,,null,,,,,,,,,,,,,,,,,
1658.6000000238419,,realistic_rating,648152,Salem,,53,Salem,5,,,,,,,,,,,,,,,
null,,confidence_buffer,648254,confidence_buffer,,null,,,,,,,,,,,,,,,,,
2353.699999988079,,pt2_unique_rating,650610,Salem,,52,,4,,,,,,,,,,,,,,,
null,,confidence_buffer,650713,confidence_buffer,,null,,,,,,,,,,,,,,,,,
909.5999999642372,,pt2_memorable_rating,651625,Salem,,52,,4,,,,,,,,,,,,,,,
null,,confidence_buffer,651729,confidence_buffer,,null,,,,,,,,,,,,,,,,,
1203.8999999761581,,recognition_phase,652935,Salem,,52,,,,,new,1,0.94,,,,,,,,,,
null,,confidence_buffer,653037,confidence_buffer,,null,,,,,,,,,,,,,,,,,
null,,thebreak,653539,break,,null,,,,,,,,,,,,,,,,,
,,survey,982607,survey-questions,,,,,,,,,,,high,no,I paid attention to the names; especially those I knew. it helped during the 2nd part. ,If I was clearly aware of a city;s name ; it was familiar.,If it sounded distinctive; it was memorable.,If it sounded like no other city name; it was unique.,If it was a city I was familiar with; it was realistic.,no,I realize I missed a few of the nimber checks in the 2nd part. i was concentrating on the cities and inadvertently clicked.
