rt,responses,trial_type,time_elapsed,stimulus,button_pressed,key_press,name_trial,rating,probe,probe_accuracy,response,correct,accuracy,problems,smooth,distraction,strategies,familiar,memorable,unique,realistic,similar,comments
6231.5999999940395,{worker_id:62926b2bba027005e0a84475},id_enter,6233,,,,,,,,,,,,,,,,,,,,
5457.199999988079,,fullscreen,11693,fullscreen,0,,,,,,,,,,,,,,,,,,
6309.299999982119,,intro_0,18010,instruct,,32,,,,,,,,,,,,,,,,,
2604.7000000178814,,intro_1,20616,instruct,,32,,,,,,,,,,,,,,,,,
6024.799999982119,,intro_2,26642,instruct,,32,,,,,,,,,,,,,,,,,
null,,instruct_dir_4,28150,instruct,,null,,,,,,,,,,,,,,,,,
null,,thebreak,28660,break,,null,,,,,,,,,,,,,,,,,
8396.90000000596,,familiar_rating,37059,McKinney,,50,McKinney,2,,,,,,,,,,,,,,,
null,,confidence_buffer,37161,confidence_buffer,,null,,,,,,,,,,,,,,,,,
3871.4000000059605,,unique_rating,41034,McKinney,,51,,3,,,,,,,,,,,,,,,
null,,confidence_buffer,41135,confidence_buffer,,null,,,,,,,,,,,,,,,,,
2281.800000011921,,memorable_rating,43418,McKinney,,51,,3,,,,,,,,,,,,,,,
null,,confidence_buffer,43520,confidence_buffer,,null,,,,,,,,,,,,,,,,,
null,,thebreak,44022,break,,null,,,,,,,,,,,,,,,,,
2474.7999999821186,,familiar_rating,46498,Dothan,,49,Dothan,1,,,,,,,,,,,,,,,
null,,confidence_buffer,46599,confidence_buffer,,null,,,,,,,,,,,,,,,,,
5418.800000011921,,unique_rating,52018,Dothan,,52,,4,,,,,,,,,,,,,,,
null,,confidence_buffer,52119,confidence_buffer,,null,,,,,,,,,,,,,,,,,
3065.0999999940395,,memorable_rating,55186,Dothan,,50,,2,,,,,,,,,,,,,,,
null,,confidence_buffer,55288,confidence_buffer,,null,,,,,,,,,,,,,,,,,
null,,thebreak,55790,break,,null,,,,,,,,,,,,,,,,,
4538.9000000059605,,familiar_rating,60330,Annapolis,,53,Annapolis,5,,,,,,,,,,,,,,,
null,,confidence_buffer,60432,confidence_buffer,,null,,,,,,,,,,,,,,,,,
4593.300000011921,,unique_rating,65026,Annapolis,,51,,3,,,,,,,,,,,,,,,
null,,confidence_buffer,65128,confidence_buffer,,null,,,,,,,,,,,,,,,,,
2744.5999999940395,,memorable_rating,67874,Annapolis,,52,,4,,,,,,,,,,,,,,,
null,,confidence_buffer,67975,confidence_buffer,,null,,,,,,,,,,,,,,,,,
null,,thebreak,68477,break,,null,,,,,,,,,,,,,,,,,
2427.199999988079,,familiar_rating,70906,Champaign,,53,Champaign,5,,,,,,,,,,,,,,,
null,,confidence_buffer,71007,confidence_buffer,,null,,,,,,,,,,,,,,,,,
2313.100000023842,,unique_rating,73321,Champaign,,51,,3,,,,,,,,,,,,,,,
null,,confidence_buffer,73423,confidence_buffer,,null,,,,,,,,,,,,,,,,,
1697.2000000178814,,memorable_rating,75122,Champaign,,52,,4,,,,,,,,,,,,,,,
null,,confidence_buffer,75224,confidence_buffer,,null,,,,,,,,,,,,,,,,,
null,,thebreak,75726,break,,null,,,,,,,,,,,,,,,,,
2394.2000000178814,,familiar_rating,78122,Pueblo,,53,Pueblo,5,,,,,,,,,,,,,,,
null,,confidence_buffer,78224,confidence_buffer,,null,,,,,,,,,,,,,,,,,
7447.700000017881,,probe_rating,85672,probe_rating,,52,,,4,1,,,,,,,,,,,,,
null,,confidence_buffer,85774,confidence_buffer,,null,,,,,,,,,,,,,,,,,
3098.9000000059605,,unique_rating,88874,Pueblo,,53,,5,,,,,,,,,,,,,,,
null,,confidence_buffer,88975,confidence_buffer,,null,,,,,,,,,,,,,,,,,
2464.2999999821186,,memorable_rating,91440,Pueblo,,53,,5,,,,,,,,,,,,,,,
null,,confidence_buffer,91543,confidence_buffer,,null,,,,,,,,,,,,,,,,,
null,,thebreak,92045,break,,null,,,,,,,,,,,,,,,,,
3596,,familiar_rating,95642,Tallahassee,,53,Tallahassee,5,,,,,,,,,,,,,,,
null,,confidence_buffer,95744,confidence_buffer,,null,,,,,,,,,,,,,,,,,
2465.199999988079,,unique_rating,98210,Tallahassee,,52,,4,,,,,,,,,,,,,,,
null,,confidence_buffer,98311,confidence_buffer,,null,,,,,,,,,,,,,,,,,
1137.800000011921,,memorable_rating,99450,Tallahassee,,53,,5,,,,,,,,,,,,,,,
null,,confidence_buffer,99552,confidence_buffer,,null,,,,,,,,,,,,,,,,,
null,,thebreak,100054,break,,null,,,,,,,,,,,,,,,,,
4329.5,,familiar_rating,104385,Marquette,,53,Marquette,5,,,,,,,,,,,,,,,
null,,confidence_buffer,104486,confidence_buffer,,null,,,,,,,,,,,,,,,,,
2394.7000000178814,,unique_rating,106882,Marquette,,53,,5,,,,,,,,,,,,,,,
null,,confidence_buffer,106983,confidence_buffer,,null,,,,,,,,,,,,,,,,,
2017.0999999940395,,memorable_rating,109002,Marquette,,52,,4,,,,,,,,,,,,,,,
null,,confidence_buffer,109104,confidence_buffer,,null,,,,,,,,,,,,,,,,,
null,,thebreak,109605,break,,null,,,,,,,,,,,,,,,,,
1060.0999999940395,,familiar_rating,110666,Burlington,,53,Burlington,5,,,,,,,,,,,,,,,
null,,confidence_buffer,110767,confidence_buffer,,null,,,,,,,,,,,,,,,,,
7032.9000000059605,,unique_rating,117801,Burlington,,51,,3,,,,,,,,,,,,,,,
null,,confidence_buffer,117903,confidence_buffer,,null,,,,,,,,,,,,,,,,,
1089.5999999940395,,memorable_rating,118994,Burlington,,51,,3,,,,,,,,,,,,,,,
null,,confidence_buffer,119095,confidence_buffer,,null,,,,,,,,,,,,,,,,,
null,,thebreak,119597,break,,null,,,,,,,,,,,,,,,,,
5676.300000011921,,familiar_rating,125274,Salem,,53,Salem,5,,,,,,,,,,,,,,,
null,,confidence_buffer,125376,confidence_buffer,,null,,,,,,,,,,,,,,,,,
2256.600000023842,,unique_rating,127634,Salem,,50,,2,,,,,,,,,,,,,,,
null,,confidence_buffer,127736,confidence_buffer,,null,,,,,,,,,,,,,,,,,
2664.399999976158,,memorable_rating,130401,Salem,,51,,3,,,,,,,,,,,,,,,
null,,confidence_buffer,130504,confidence_buffer,,null,,,,,,,,,,,,,,,,,
null,,thebreak,131006,break,,null,,,,,,,,,,,,,,,,,
1995,,familiar_rating,133002,Olympia,,53,Olympia,5,,,,,,,,,,,,,,,
null,,confidence_buffer,133104,confidence_buffer,,null,,,,,,,,,,,,,,,,,
3937,,unique_rating,137042,Olympia,,52,,4,,,,,,,,,,,,,,,
null,,confidence_buffer,137144,confidence_buffer,,null,,,,,,,,,,,,,,,,,
2304.9000000059605,,memorable_rating,139450,Olympia,,52,,4,,,,,,,,,,,,,,,
null,,confidence_buffer,139551,confidence_buffer,,null,,,,,,,,,,,,,,,,,
1953,,probe_rating,141506,probe_rating,,53,,,5,1,,,,,,,,,,,,,
null,,confidence_buffer,141608,confidence_buffer,,null,,,,,,,,,,,,,,,,,
null,,thebreak,142109,break,,null,,,,,,,,,,,,,,,,,
2907.7999999821186,,familiar_rating,145018,Bozeman,,53,Bozeman,5,,,,,,,,,,,,,,,
null,,confidence_buffer,145119,confidence_buffer,,null,,,,,,,,,,,,,,,,,
1929.199999988079,,probe_rating,147050,probe_rating,,51,,,3,1,,,,,,,,,,,,,
null,,confidence_buffer,147152,confidence_buffer,,null,,,,,,,,,,,,,,,,,
7113.5,,unique_rating,154266,Bozeman,,52,,4,,,,,,,,,,,,,,,
null,,confidence_buffer,154367,confidence_buffer,,null,,,,,,,,,,,,,,,,,
1593.199999988079,,memorable_rating,155962,Bozeman,,53,,5,,,,,,,,,,,,,,,
null,,confidence_buffer,156064,confidence_buffer,,null,,,,,,,,,,,,,,,,,
null,,thebreak,156565,break,,null,,,,,,,,,,,,,,,,,
3691.699999988079,,familiar_rating,160258,Topeka,,53,Topeka,5,,,,,,,,,,,,,,,
null,,confidence_buffer,160360,confidence_buffer,,null,,,,,,,,,,,,,,,,,
1936.5,,unique_rating,162298,Topeka,,51,,3,,,,,,,,,,,,,,,
null,,confidence_buffer,162399,confidence_buffer,,null,,,,,,,,,,,,,,,,,
1553.199999988079,,memorable_rating,163954,Topeka,,52,,4,,,,,,,,,,,,,,,
null,,confidence_buffer,164057,confidence_buffer,,null,,,,,,,,,,,,,,,,,
null,,thebreak,164558,break,,null,,,,,,,,,,,,,,,,,
1626.6000000238419,,familiar_rating,166186,Altoona,,53,Altoona,5,,,,,,,,,,,,,,,
null,,confidence_buffer,166288,confidence_buffer,,null,,,,,,,,,,,,,,,,,
3368.9000000059605,,unique_rating,169658,Altoona,,53,,5,,,,,,,,,,,,,,,
null,,confidence_buffer,169760,confidence_buffer,,null,,,,,,,,,,,,,,,,,
680,,memorable_rating,170440,Altoona,,53,,5,,,,,,,,,,,,,,,
null,,confidence_buffer,170541,confidence_buffer,,null,,,,,,,,,,,,,,,,,
null,,thebreak,171043,break,,null,,,,,,,,,,,,,,,,,
1565.1000000238419,,familiar_rating,172609,Rock Springs,,53,Rock Springs,5,,,,,,,,,,,,,,,
null,,confidence_buffer,172711,confidence_buffer,,null,,,,,,,,,,,,,,,,,
1626,,unique_rating,174338,Rock Springs,,50,,2,,,,,,,,,,,,,,,
null,,confidence_buffer,174440,confidence_buffer,,null,,,,,,,,,,,,,,,,,
904.4000000059605,,memorable_rating,175346,Rock Springs,,51,,3,,,,,,,,,,,,,,,
null,,confidence_buffer,175448,confidence_buffer,,null,,,,,,,,,,,,,,,,,
null,,thebreak,175949,break,,null,,,,,,,,,,,,,,,,,
3380.0999999940395,,familiar_rating,179330,Stamford,,51,Stamford,3,,,,,,,,,,,,,,,
null,,confidence_buffer,179431,confidence_buffer,,null,,,,,,,,,,,,,,,,,
2056.199999988079,,unique_rating,181489,Stamford,,52,,4,,,,,,,,,,,,,,,
null,,confidence_buffer,181591,confidence_buffer,,null,,,,,,,,,,,,,,,,,
817.5,,memorable_rating,182410,Stamford,,50,,2,,,,,,,,,,,,,,,
null,,confidence_buffer,182511,confidence_buffer,,null,,,,,,,,,,,,,,,,,
null,,thebreak,183027,break,,null,,,,,,,,,,,,,,,,,
1669.5999999940395,,familiar_rating,184698,New Haven,,53,New Haven,5,,,,,,,,,,,,,,,
null,,confidence_buffer,184800,confidence_buffer,,null,,,,,,,,,,,,,,,,,
2200.9000000059605,,unique_rating,187002,New Haven,,52,,4,,,,,,,,,,,,,,,
null,,confidence_buffer,187104,confidence_buffer,,null,,,,,,,,,,,,,,,,,
1513.1000000238419,,memorable_rating,188617,New Haven,,52,,4,,,,,,,,,,,,,,,
null,,confidence_buffer,188718,confidence_buffer,,null,,,,,,,,,,,,,,,,,
null,,thebreak,189221,break,,null,,,,,,,,,,,,,,,,,
1628.800000011921,,familiar_rating,190850,Gainesville,,53,Gainesville,5,,,,,,,,,,,,,,,
null,,confidence_buffer,190952,confidence_buffer,,null,,,,,,,,,,,,,,,,,
2208.5999999940395,,unique_rating,193162,Gainesville,,49,,1,,,,,,,,,,,,,,,
null,,confidence_buffer,193263,confidence_buffer,,null,,,,,,,,,,,,,,,,,
863.8000000119209,,memorable_rating,194128,Gainesville,,50,,2,,,,,,,,,,,,,,,
null,,confidence_buffer,194242,confidence_buffer,,null,,,,,,,,,,,,,,,,,
null,,thebreak,194744,break,,null,,,,,,,,,,,,,,,,,
4361.199999988079,,familiar_rating,199106,Fort Collins,,53,Fort Collins,5,,,,,,,,,,,,,,,
null,,confidence_buffer,199208,confidence_buffer,,null,,,,,,,,,,,,,,,,,
3217.300000011921,,unique_rating,202426,Fort Collins,,51,,3,,,,,,,,,,,,,,,
null,,confidence_buffer,202529,confidence_buffer,,null,,,,,,,,,,,,,,,,,
1263.8999999761581,,memorable_rating,203794,Fort Collins,,50,,2,,,,,,,,,,,,,,,
null,,confidence_buffer,203895,confidence_buffer,,null,,,,,,,,,,,,,,,,,
null,,thebreak,204397,break,,null,,,,,,,,,,,,,,,,,
1299.199999988079,,familiar_rating,205698,Boise,,53,Boise,5,,,,,,,,,,,,,,,
null,,confidence_buffer,205799,confidence_buffer,,null,,,,,,,,,,,,,,,,,
1800.7000000178814,,unique_rating,207601,Boise,,51,,3,,,,,,,,,,,,,,,
null,,confidence_buffer,207703,confidence_buffer,,null,,,,,,,,,,,,,,,,,
1146.0999999940395,,memorable_rating,208850,Boise,,51,,3,,,,,,,,,,,,,,,
null,,confidence_buffer,208952,confidence_buffer,,null,,,,,,,,,,,,,,,,,
null,,thebreak,209453,break,,null,,,,,,,,,,,,,,,,,
1315.800000011921,,familiar_rating,210769,Reno,,53,Reno,5,,,,,,,,,,,,,,,
null,,confidence_buffer,210871,confidence_buffer,,null,,,,,,,,,,,,,,,,,
1034.5999999940395,,unique_rating,211906,Reno,,52,,4,,,,,,,,,,,,,,,
null,,confidence_buffer,212023,confidence_buffer,,null,,,,,,,,,,,,,,,,,
1225.5999999940395,,memorable_rating,213250,Reno,,51,,3,,,,,,,,,,,,,,,
null,,confidence_buffer,213352,confidence_buffer,,null,,,,,,,,,,,,,,,,,
2000.699999988079,,probe_rating,215354,probe_rating,,49,,,1,1,,,,,,,,,,,,,
null,,confidence_buffer,215456,confidence_buffer,,null,,,,,,,,,,,,,,,,,
null,,thebreak,215957,break,,null,,,,,,,,,,,,,,,,,
2938.7999999821186,,familiar_rating,218897,Toledo,,53,Toledo,5,,,,,,,,,,,,,,,
null,,confidence_buffer,218998,confidence_buffer,,null,,,,,,,,,,,,,,,,,
2442.300000011921,,unique_rating,221441,Toledo,,50,,2,,,,,,,,,,,,,,,
null,,confidence_buffer,221543,confidence_buffer,,null,,,,,,,,,,,,,,,,,
1465.7999999821186,,probe_rating,223010,probe_rating,,53,,,5,1,,,,,,,,,,,,,
null,,confidence_buffer,223111,confidence_buffer,,null,,,,,,,,,,,,,,,,,
3472.5999999940395,,memorable_rating,226585,Toledo,,50,,2,,,,,,,,,,,,,,,
null,,confidence_buffer,226686,confidence_buffer,,null,,,,,,,,,,,,,,,,,
null,,thebreak,227188,break,,null,,,,,,,,,,,,,,,,,
1372.5999999940395,,familiar_rating,228562,Fargo,,53,Fargo,5,,,,,,,,,,,,,,,
null,,confidence_buffer,228664,confidence_buffer,,null,,,,,,,,,,,,,,,,,
1920,,unique_rating,230585,Fargo,,51,,3,,,,,,,,,,,,,,,
null,,confidence_buffer,230686,confidence_buffer,,null,,,,,,,,,,,,,,,,,
970.6999999880791,,memorable_rating,231658,Fargo,,52,,4,,,,,,,,,,,,,,,
null,,confidence_buffer,231760,confidence_buffer,,null,,,,,,,,,,,,,,,,,
null,,thebreak,232261,break,,null,,,,,,,,,,,,,,,,,
1931.5,,familiar_rating,234194,Terre Haute,,53,Terre Haute,5,,,,,,,,,,,,,,,
null,,confidence_buffer,234296,confidence_buffer,,null,,,,,,,,,,,,,,,,,
1257.2000000178814,,unique_rating,235554,Terre Haute,,53,,5,,,,,,,,,,,,,,,
null,,confidence_buffer,235655,confidence_buffer,,null,,,,,,,,,,,,,,,,,
1673.699999988079,,memorable_rating,237330,Terre Haute,,53,,5,,,,,,,,,,,,,,,
null,,confidence_buffer,237432,confidence_buffer,,null,,,,,,,,,,,,,,,,,
1304.5,,probe_rating,238737,probe_rating,,53,,,5,1,,,,,,,,,,,,,
null,,confidence_buffer,238839,confidence_buffer,,null,,,,,,,,,,,,,,,,,
null,,thebreak,239339,break,,null,,,,,,,,,,,,,,,,,
2467.9000000059605,,familiar_rating,241808,Palo Alto,,53,Palo Alto,5,,,,,,,,,,,,,,,
null,,confidence_buffer,241910,confidence_buffer,,null,,,,,,,,,,,,,,,,,
1274.5,,unique_rating,243186,Palo Alto,,50,,2,,,,,,,,,,,,,,,
null,,confidence_buffer,243288,confidence_buffer,,null,,,,,,,,,,,,,,,,,
1279.8999999761581,,memorable_rating,244569,Palo Alto,,49,,1,,,,,,,,,,,,,,,
null,,confidence_buffer,244670,confidence_buffer,,null,,,,,,,,,,,,,,,,,
null,,thebreak,245172,break,,null,,,,,,,,,,,,,,,,,
1436.4000000059605,,familiar_rating,246609,Norfolk,,53,Norfolk,5,,,,,,,,,,,,,,,
null,,confidence_buffer,246711,confidence_buffer,,null,,,,,,,,,,,,,,,,,
721.5999999940395,,unique_rating,247434,Norfolk,,52,,4,,,,,,,,,,,,,,,
null,,confidence_buffer,247536,confidence_buffer,,null,,,,,,,,,,,,,,,,,
1648.8999999761581,,probe_rating,249186,probe_rating,,53,,,5,1,,,,,,,,,,,,,
null,,confidence_buffer,249288,confidence_buffer,,null,,,,,,,,,,,,,,,,,
2408.899999976158,,memorable_rating,251698,Norfolk,,51,,3,,,,,,,,,,,,,,,
null,,confidence_buffer,251807,confidence_buffer,,null,,,,,,,,,,,,,,,,,
null,,thebreak,252309,break,,null,,,,,,,,,,,,,,,,,
4395.699999988079,,intro_0,256706,instruct,,32,,,,,,,,,,,,,,,,,
8839.40000000596,,intro_1,265546,instruct,,32,,,,,,,,,,,,,,,,,
58214.69999998808,,intro_2,323762,instruct,,32,,,,,,,,,,,,,,,,,
null,,instruct_dir_4,325263,instruct,,null,,,,,,,,,,,,,,,,,
11681.59999999404,,realistic_rating,336946,Scottsdale,,53,Scottsdale,5,,,,,,,,,,,,,,,
null,,confidence_buffer,337055,confidence_buffer,,null,,,,,,,,,,,,,,,,,
2673.9000000059605,,pt2_unique_rating,339730,Scottsdale,,50,,2,,,,,,,,,,,,,,,
null,,confidence_buffer,339832,confidence_buffer,,null,,,,,,,,,,,,,,,,,
2856.7999999821186,,pt2_memorable_rating,342690,Scottsdale,,53,,5,,,,,,,,,,,,,,,
null,,confidence_buffer,342792,confidence_buffer,,null,,,,,,,,,,,,,,,,,
2313.199999988079,,probe_rating,345106,probe_rating,,52,,,4,1,,,,,,,,,,,,,
null,,confidence_buffer,345208,confidence_buffer,,null,,,,,,,,,,,,,,,,,
6200.5,,recognition_phase,351410,Scottsdale,,52,,,,,new,1,1,,,,,,,,,,
null,,confidence_buffer,351512,confidence_buffer,,null,,,,,,,,,,,,,,,,,
null,,thebreak,352014,break,,null,,,,,,,,,,,,,,,,,
10395,,realistic_rating,362410,Dubuque,,53,Dubuque,5,,,,,,,,,,,,,,,
null,,confidence_buffer,362512,confidence_buffer,,null,,,,,,,,,,,,,,,,,
2392.600000023842,,pt2_unique_rating,364906,Dubuque,,50,,2,,,,,,,,,,,,,,,
null,,confidence_buffer,365007,confidence_buffer,,null,,,,,,,,,,,,,,,,,
1977,,pt2_memorable_rating,366985,Dubuque,,53,,5,,,,,,,,,,,,,,,
null,,confidence_buffer,367085,confidence_buffer,,null,,,,,,,,,,,,,,,,,
3155.0999999940395,,recognition_phase,370242,Dubuque,,49,,,,,old,0,0.5,,,,,,,,,,
null,,confidence_buffer,370345,confidence_buffer,,null,,,,,,,,,,,,,,,,,
null,,thebreak,370847,break,,null,,,,,,,,,,,,,,,,,
2593.800000011921,,realistic_rating,373442,Peoria,,53,Peoria,5,,,,,,,,,,,,,,,
null,,confidence_buffer,373543,confidence_buffer,,null,,,,,,,,,,,,,,,,,
3097,,pt2_unique_rating,376642,Peoria,,52,,4,,,,,,,,,,,,,,,
null,,confidence_buffer,376743,confidence_buffer,,null,,,,,,,,,,,,,,,,,
3040.7000000178814,,pt2_memorable_rating,379785,Peoria,,51,,3,,,,,,,,,,,,,,,
null,,confidence_buffer,379887,confidence_buffer,,null,,,,,,,,,,,,,,,,,
3826.199999988079,,recognition_phase,383714,Peoria,,51,,,,,new,1,0.6666666666666666,,,,,,,,,,
null,,confidence_buffer,383816,confidence_buffer,,null,,,,,,,,,,,,,,,,,
null,,thebreak,384317,break,,null,,,,,,,,,,,,,,,,,
2891.199999988079,,realistic_rating,387210,Norfolk,,53,Norfolk,5,,,,,,,,,,,,,,,
null,,confidence_buffer,387311,confidence_buffer,,null,,,,,,,,,,,,,,,,,
5674.5999999940395,,pt2_unique_rating,392987,Norfolk,,52,,4,,,,,,,,,,,,,,,
null,,confidence_buffer,393088,confidence_buffer,,null,,,,,,,,,,,,,,,,,
3393.199999988079,,pt2_memorable_rating,396482,Norfolk,,51,,3,,,,,,,,,,,,,,,
null,,confidence_buffer,396584,confidence_buffer,,null,,,,,,,,,,,,,,,,,
3928.0999999940395,,recognition_phase,400513,Norfolk,,49,,,,,old,1,0.75,,,,,,,,,,
null,,confidence_buffer,400614,confidence_buffer,,null,,,,,,,,,,,,,,,,,
null,,thebreak,401115,break,,null,,,,,,,,,,,,,,,,,
2582.5,,realistic_rating,403698,Fort Collins,,53,Fort Collins,5,,,,,,,,,,,,,,,
null,,confidence_buffer,403799,confidence_buffer,,null,,,,,,,,,,,,,,,,,
2017.300000011921,,probe_rating,405818,probe_rating,,53,,,5,1,,,,,,,,,,,,,
null,,confidence_buffer,405920,confidence_buffer,,null,,,,,,,,,,,,,,,,,
3249.300000011921,,pt2_unique_rating,409170,Fort Collins,,50,,2,,,,,,,,,,,,,,,
null,,confidence_buffer,409272,confidence_buffer,,null,,,,,,,,,,,,,,,,,
3081,,pt2_memorable_rating,412354,Fort Collins,,51,,3,,,,,,,,,,,,,,,
null,,confidence_buffer,412456,confidence_buffer,,null,,,,,,,,,,,,,,,,,
2104.5,,recognition_phase,414562,Fort Collins,,50,,,,,old,1,0.8,,,,,,,,,,
null,,confidence_buffer,414663,confidence_buffer,,null,,,,,,,,,,,,,,,,,
null,,thebreak,415165,break,,null,,,,,,,,,,,,,,,,,
4251.5999999940395,,realistic_rating,419417,Montpelier,,53,Montpelier,5,,,,,,,,,,,,,,,
null,,confidence_buffer,419518,confidence_buffer,,null,,,,,,,,,,,,,,,,,
3761.600000023842,,pt2_unique_rating,423281,Montpelier,,52,,4,,,,,,,,,,,,,,,
null,,confidence_buffer,423382,confidence_buffer,,null,,,,,,,,,,,,,,,,,
2154.5,,pt2_memorable_rating,425538,Montpelier,,51,,3,,,,,,,,,,,,,,,
null,,confidence_buffer,425641,confidence_buffer,,null,,,,,,,,,,,,,,,,,
1448,,probe_rating,427090,probe_rating,,50,,,2,1,,,,,,,,,,,,,
null,,confidence_buffer,427191,confidence_buffer,,null,,,,,,,,,,,,,,,,,
4937.5,,recognition_phase,432130,Montpelier,,52,,,,,new,1,0.8333333333333334,,,,,,,,,,
null,,confidence_buffer,432232,confidence_buffer,,null,,,,,,,,,,,,,,,,,
null,,thebreak,432742,break,,null,,,,,,,,,,,,,,,,,
3225.199999988079,,realistic_rating,435969,Boulder,,53,Boulder,5,,,,,,,,,,,,,,,
null,,confidence_buffer,436070,confidence_buffer,,null,,,,,,,,,,,,,,,,,
2186.800000011921,,pt2_unique_rating,438258,Boulder,,50,,2,,,,,,,,,,,,,,,
null,,confidence_buffer,438360,confidence_buffer,,null,,,,,,,,,,,,,,,,,
1231.300000011921,,pt2_memorable_rating,439593,Boulder,,49,,1,,,,,,,,,,,,,,,
null,,confidence_buffer,439694,confidence_buffer,,null,,,,,,,,,,,,,,,,,
1594.5,,recognition_phase,441290,Boulder,,51,,,,,new,1,0.8571428571428571,,,,,,,,,,
null,,confidence_buffer,441392,confidence_buffer,,null,,,,,,,,,,,,,,,,,
null,,thebreak,441894,break,,null,,,,,,,,,,,,,,,,,
5442.9000000059605,,realistic_rating,447338,Dothan,,49,Dothan,1,,,,,,,,,,,,,,,
null,,confidence_buffer,447441,confidence_buffer,,null,,,,,,,,,,,,,,,,,
2392.0999999940395,,pt2_unique_rating,449834,Dothan,,50,,2,,,,,,,,,,,,,,,
null,,confidence_buffer,449936,confidence_buffer,,null,,,,,,,,,,,,,,,,,
3559.800000011921,,pt2_memorable_rating,453497,Dothan,,51,,3,,,,,,,,,,,,,,,
null,,confidence_buffer,453598,confidence_buffer,,null,,,,,,,,,,,,,,,,,
3498.7999999821186,,recognition_phase,457098,Dothan,,49,,,,,old,1,0.875,,,,,,,,,,
null,,confidence_buffer,457201,confidence_buffer,,null,,,,,,,,,,,,,,,,,
null,,thebreak,457702,break,,null,,,,,,,,,,,,,,,,,
2267,,realistic_rating,459970,Pasadena,,53,Pasadena,5,,,,,,,,,,,,,,,
null,,confidence_buffer,460072,confidence_buffer,,null,,,,,,,,,,,,,,,,,
2247.800000011921,,pt2_unique_rating,462321,Pasadena,,52,,4,,,,,,,,,,,,,,,
null,,confidence_buffer,462422,confidence_buffer,,null,,,,,,,,,,,,,,,,,
1450.3999999761581,,pt2_memorable_rating,463874,Pasadena,,52,,4,,,,,,,,,,,,,,,
null,,confidence_buffer,463977,confidence_buffer,,null,,,,,,,,,,,,,,,,,
2406.800000011921,,recognition_phase,466385,Pasadena,,52,,,,,new,1,0.8888888888888888,,,,,,,,,,
null,,confidence_buffer,466486,confidence_buffer,,null,,,,,,,,,,,,,,,,,
null,,thebreak,466988,break,,null,,,,,,,,,,,,,,,,,
5155.0999999940395,,realistic_rating,472144,Bozeman,,53,Bozeman,5,,,,,,,,,,,,,,,
null,,confidence_buffer,472246,confidence_buffer,,null,,,,,,,,,,,,,,,,,
2578.9000000059605,,pt2_unique_rating,474826,Bozeman,,51,,3,,,,,,,,,,,,,,,
null,,confidence_buffer,474932,confidence_buffer,,null,,,,,,,,,,,,,,,,,
1908,,probe_rating,476841,probe_rating,,53,,,5,1,,,,,,,,,,,,,
null,,confidence_buffer,476942,confidence_buffer,,null,,,,,,,,,,,,,,,,,
2882.9000000059605,,pt2_memorable_rating,479826,Bozeman,,52,,4,,,,,,,,,,,,,,,
null,,confidence_buffer,479928,confidence_buffer,,null,,,,,,,,,,,,,,,,,
2121.0999999940395,,recognition_phase,482050,Bozeman,,49,,,,,old,1,0.9,,,,,,,,,,
null,,confidence_buffer,482152,confidence_buffer,,null,,,,,,,,,,,,,,,,,
null,,thebreak,482653,break,,null,,,,,,,,,,,,,,,,,
5707.4000000059605,,realistic_rating,488362,Toledo,,53,Toledo,5,,,,,,,,,,,,,,,
null,,confidence_buffer,488464,confidence_buffer,,null,,,,,,,,,,,,,,,,,
2919.2999999821186,,pt2_unique_rating,491385,Toledo,,51,,3,,,,,,,,,,,,,,,
null,,confidence_buffer,491486,confidence_buffer,,null,,,,,,,,,,,,,,,,,
1539.5,,pt2_memorable_rating,493026,Toledo,,52,,4,,,,,,,,,,,,,,,
null,,confidence_buffer,493127,confidence_buffer,,null,,,,,,,,,,,,,,,,,
3929.7000000178814,,recognition_phase,497058,Toledo,,52,,,,,new,0,0.8181818181818182,,,,,,,,,,
null,,confidence_buffer,497161,confidence_buffer,,null,,,,,,,,,,,,,,,,,
null,,thebreak,497662,break,,null,,,,,,,,,,,,,,,,,
3458.4000000059605,,realistic_rating,501122,Helena,,52,Helena,4,,,,,,,,,,,,,,,
null,,confidence_buffer,501224,confidence_buffer,,null,,,,,,,,,,,,,,,,,
3944,,pt2_unique_rating,505169,Helena,,51,,3,,,,,,,,,,,,,,,
null,,confidence_buffer,505270,confidence_buffer,,null,,,,,,,,,,,,,,,,,
1491.0999999940395,,pt2_memorable_rating,506762,Helena,,52,,4,,,,,,,,,,,,,,,
null,,confidence_buffer,506864,confidence_buffer,,null,,,,,,,,,,,,,,,,,
2785.5,,recognition_phase,509650,Helena,,52,,,,,new,1,0.8333333333333334,,,,,,,,,,
null,,confidence_buffer,509752,confidence_buffer,,null,,,,,,,,,,,,,,,,,
null,,thebreak,510253,break,,null,,,,,,,,,,,,,,,,,
3547.5,,realistic_rating,513802,Palo Alto,,53,Palo Alto,5,,,,,,,,,,,,,,,
null,,confidence_buffer,513904,confidence_buffer,,null,,,,,,,,,,,,,,,,,
2913.4000000059605,,pt2_unique_rating,516818,Palo Alto,,50,,2,,,,,,,,,,,,,,,
null,,confidence_buffer,516921,confidence_buffer,,null,,,,,,,,,,,,,,,,,
3072.100000023842,,pt2_memorable_rating,519994,Palo Alto,,51,,3,,,,,,,,,,,,,,,
null,,confidence_buffer,520096,confidence_buffer,,null,,,,,,,,,,,,,,,,,
3808.899999976158,,recognition_phase,523906,Palo Alto,,49,,,,,old,1,0.8461538461538461,,,,,,,,,,
null,,confidence_buffer,524014,confidence_buffer,,null,,,,,,,,,,,,,,,,,
null,,thebreak,524515,break,,null,,,,,,,,,,,,,,,,,
3013.2999999821186,,realistic_rating,527530,Concord,,52,Concord,4,,,,,,,,,,,,,,,
null,,confidence_buffer,527632,confidence_buffer,,null,,,,,,,,,,,,,,,,,
1264.6000000238419,,pt2_unique_rating,528898,Concord,,52,,4,,,,,,,,,,,,,,,
null,,confidence_buffer,528999,confidence_buffer,,null,,,,,,,,,,,,,,,,,
3385.4000000059605,,pt2_memorable_rating,532386,Concord,,51,,3,,,,,,,,,,,,,,,
null,,confidence_buffer,532490,confidence_buffer,,null,,,,,,,,,,,,,,,,,
6247,,recognition_phase,538738,Concord,,50,,,,,old,0,0.7857142857142857,,,,,,,,,,
null,,confidence_buffer,538839,confidence_buffer,,null,,,,,,,,,,,,,,,,,
null,,thebreak,539341,break,,null,,,,,,,,,,,,,,,,,
2412,,realistic_rating,541754,Topeka,,53,Topeka,5,,,,,,,,,,,,,,,
null,,confidence_buffer,541856,confidence_buffer,,null,,,,,,,,,,,,,,,,,
2864.5999999940395,,pt2_unique_rating,544722,Topeka,,51,,3,,,,,,,,,,,,,,,
null,,confidence_buffer,544823,confidence_buffer,,null,,,,,,,,,,,,,,,,,
2257.4000000059605,,pt2_memorable_rating,547082,Topeka,,50,,2,,,,,,,,,,,,,,,
null,,confidence_buffer,547184,confidence_buffer,,null,,,,,,,,,,,,,,,,,
1895.5,,recognition_phase,549081,Topeka,,49,,,,,old,1,0.8,,,,,,,,,,
null,,confidence_buffer,549182,confidence_buffer,,null,,,,,,,,,,,,,,,,,
null,,thebreak,549684,break,,null,,,,,,,,,,,,,,,,,
2700.9000000059605,,realistic_rating,552386,Ithaca,,53,Ithaca,5,,,,,,,,,,,,,,,
null,,confidence_buffer,552488,confidence_buffer,,null,,,,,,,,,,,,,,,,,
2056.199999988079,,pt2_unique_rating,554544,Ithaca,,53,,5,,,,,,,,,,,,,,,
null,,confidence_buffer,554646,confidence_buffer,,null,,,,,,,,,,,,,,,,,
1850.9000000059605,,pt2_memorable_rating,556498,Ithaca,,53,,5,,,,,,,,,,,,,,,
null,,confidence_buffer,556600,confidence_buffer,,null,,,,,,,,,,,,,,,,,
3064.9000000059605,,recognition_phase,559666,Ithaca,,52,,,,,new,1,0.8125,,,,,,,,,,
null,,confidence_buffer,559768,confidence_buffer,,null,,,,,,,,,,,,,,,,,
null,,thebreak,560270,break,,null,,,,,,,,,,,,,,,,,
3130.0999999940395,,realistic_rating,563402,New Haven,,53,New Haven,5,,,,,,,,,,,,,,,
null,,confidence_buffer,563503,confidence_buffer,,null,,,,,,,,,,,,,,,,,
2426,,pt2_unique_rating,565930,New Haven,,51,,3,,,,,,,,,,,,,,,
null,,confidence_buffer,566031,confidence_buffer,,null,,,,,,,,,,,,,,,,,
1873.300000011921,,pt2_memorable_rating,567906,New Haven,,52,,4,,,,,,,,,,,,,,,
null,,confidence_buffer,568008,confidence_buffer,,null,,,,,,,,,,,,,,,,,
2521.2000000178814,,recognition_phase,570531,New Haven,,49,,,,,old,1,0.8235294117647058,,,,,,,,,,
null,,confidence_buffer,570633,confidence_buffer,,null,,,,,,,,,,,,,,,,,
null,,thebreak,571141,break,,null,,,,,,,,,,,,,,,,,
2124.100000023842,,realistic_rating,573266,Syracuse,,53,Syracuse,5,,,,,,,,,,,,,,,
null,,confidence_buffer,573371,confidence_buffer,,null,,,,,,,,,,,,,,,,,
1893.6000000238419,,pt2_unique_rating,575266,Syracuse,,50,,2,,,,,,,,,,,,,,,
null,,confidence_buffer,575377,confidence_buffer,,null,,,,,,,,,,,,,,,,,
1040.7000000178814,,pt2_memorable_rating,576418,Syracuse,,49,,1,,,,,,,,,,,,,,,
null,,confidence_buffer,576520,confidence_buffer,,null,,,,,,,,,,,,,,,,,
3832.800000011921,,recognition_phase,580354,Syracuse,,52,,,,,new,1,0.8333333333333334,,,,,,,,,,
null,,confidence_buffer,580455,confidence_buffer,,null,,,,,,,,,,,,,,,,,
null,,thebreak,580957,break,,null,,,,,,,,,,,,,,,,,
2355.2000000178814,,realistic_rating,583313,Carson City,,53,Carson City,5,,,,,,,,,,,,,,,
null,,confidence_buffer,583414,confidence_buffer,,null,,,,,,,,,,,,,,,,,
5130.4000000059605,,probe_rating,588546,probe_rating,,52,,,4,1,,,,,,,,,,,,,
null,,confidence_buffer,588648,confidence_buffer,,null,,,,,,,,,,,,,,,,,
5216.800000011921,,pt2_unique_rating,593866,Carson City,,51,,3,,,,,,,,,,,,,,,
null,,confidence_buffer,593978,confidence_buffer,,null,,,,,,,,,,,,,,,,,
2302.4000000059605,,pt2_memorable_rating,596282,Carson City,,52,,4,,,,,,,,,,,,,,,
null,,confidence_buffer,596383,confidence_buffer,,null,,,,,,,,,,,,,,,,,
889.1000000238419,,recognition_phase,597274,Carson City,,52,,,,,new,1,0.8421052631578947,,,,,,,,,,
null,,confidence_buffer,597376,confidence_buffer,,null,,,,,,,,,,,,,,,,,
null,,thebreak,597877,break,,null,,,,,,,,,,,,,,,,,
3355.2999999821186,,realistic_rating,601234,Dover,,53,Dover,5,,,,,,,,,,,,,,,
null,,confidence_buffer,601336,confidence_buffer,,null,,,,,,,,,,,,,,,,,
2608.9000000059605,,pt2_unique_rating,603946,Dover,,51,,3,,,,,,,,,,,,,,,
null,,confidence_buffer,604048,confidence_buffer,,null,,,,,,,,,,,,,,,,,
1816.7000000178814,,pt2_memorable_rating,605866,Dover,,52,,4,,,,,,,,,,,,,,,
null,,confidence_buffer,605967,confidence_buffer,,null,,,,,,,,,,,,,,,,,
2216.9000000059605,,recognition_phase,608186,Dover,,49,,,,,old,0,0.8,,,,,,,,,,
null,,confidence_buffer,608287,confidence_buffer,,null,,,,,,,,,,,,,,,,,
null,,thebreak,608788,break,,null,,,,,,,,,,,,,,,,,
3219.5,,realistic_rating,612009,Decatur,,53,Decatur,5,,,,,,,,,,,,,,,
null,,confidence_buffer,612110,confidence_buffer,,null,,,,,,,,,,,,,,,,,
1914.4000000059605,,pt2_unique_rating,614026,Decatur,,50,,2,,,,,,,,,,,,,,,
null,,confidence_buffer,614133,confidence_buffer,,null,,,,,,,,,,,,,,,,,
1307.5999999940395,,pt2_memorable_rating,615442,Decatur,,50,,2,,,,,,,,,,,,,,,
null,,confidence_buffer,615543,confidence_buffer,,null,,,,,,,,,,,,,,,,,
2905.5999999940395,,recognition_phase,618450,Decatur,,52,,,,,new,1,0.8095238095238095,,,,,,,,,,
null,,confidence_buffer,618551,confidence_buffer,,null,,,,,,,,,,,,,,,,,
null,,thebreak,619053,break,,null,,,,,,,,,,,,,,,,,
4515.600000023842,,realistic_rating,623570,Pueblo,,53,Pueblo,5,,,,,,,,,,,,,,,
null,,confidence_buffer,623672,confidence_buffer,,null,,,,,,,,,,,,,,,,,
3080.199999988079,,probe_rating,626753,probe_rating,,50,,,2,1,,,,,,,,,,,,,
null,,confidence_buffer,626854,confidence_buffer,,null,,,,,,,,,,,,,,,,,
3905.9000000059605,,pt2_unique_rating,630761,Pueblo,,53,,5,,,,,,,,,,,,,,,
null,,confidence_buffer,630862,confidence_buffer,,null,,,,,,,,,,,,,,,,,
2514,,pt2_memorable_rating,633377,Pueblo,,52,,4,,,,,,,,,,,,,,,
null,,confidence_buffer,633484,confidence_buffer,,null,,,,,,,,,,,,,,,,,
2916.5,,recognition_phase,636402,Pueblo,,49,,,,,old,1,0.8181818181818182,,,,,,,,,,
null,,confidence_buffer,636504,confidence_buffer,,null,,,,,,,,,,,,,,,,,
null,,thebreak,637021,break,,null,,,,,,,,,,,,,,,,,
3915.7000000178814,,realistic_rating,640938,Ann Arbor,,53,Ann Arbor,5,,,,,,,,,,,,,,,
null,,confidence_buffer,641041,confidence_buffer,,null,,,,,,,,,,,,,,,,,
1887.6000000238419,,pt2_unique_rating,642930,Ann Arbor,,52,,4,,,,,,,,,,,,,,,
null,,confidence_buffer,643032,confidence_buffer,,null,,,,,,,,,,,,,,,,,
1753.6000000238419,,pt2_memorable_rating,644786,Ann Arbor,,53,,5,,,,,,,,,,,,,,,
null,,confidence_buffer,644889,confidence_buffer,,null,,,,,,,,,,,,,,,,,
2264.100000023842,,recognition_phase,647154,Ann Arbor,,52,,,,,new,1,0.8260869565217391,,,,,,,,,,
null,,confidence_buffer,647256,confidence_buffer,,null,,,,,,,,,,,,,,,,,
null,,thebreak,647757,break,,null,,,,,,,,,,,,,,,,,
6060.199999988079,,realistic_rating,653818,Rock Springs,,53,Rock Springs,5,,,,,,,,,,,,,,,
null,,confidence_buffer,653921,confidence_buffer,,null,,,,,,,,,,,,,,,,,
2951.699999988079,,pt2_unique_rating,656874,Rock Springs,,51,,3,,,,,,,,,,,,,,,
null,,confidence_buffer,656976,confidence_buffer,,null,,,,,,,,,,,,,,,,,
2200.800000011921,,pt2_memorable_rating,659178,Rock Springs,,52,,4,,,,,,,,,,,,,,,
null,,confidence_buffer,659281,confidence_buffer,,null,,,,,,,,,,,,,,,,,
3407.7000000178814,,recognition_phase,662690,Rock Springs,,50,,,,,old,1,0.8333333333333334,,,,,,,,,,
null,,confidence_buffer,662792,confidence_buffer,,null,,,,,,,,,,,,,,,,,
null,,thebreak,663294,break,,null,,,,,,,,,,,,,,,,,
3314.0999999940395,,realistic_rating,666609,Youngstown,,53,Youngstown,5,,,,,,,,,,,,,,,
null,,confidence_buffer,666711,confidence_buffer,,null,,,,,,,,,,,,,,,,,
2138.2999999821186,,pt2_unique_rating,668850,Youngstown,,53,,5,,,,,,,,,,,,,,,
null,,confidence_buffer,668952,confidence_buffer,,null,,,,,,,,,,,,,,,,,
1945.300000011921,,pt2_memorable_rating,670898,Youngstown,,51,,3,,,,,,,,,,,,,,,
null,,confidence_buffer,671000,confidence_buffer,,null,,,,,,,,,,,,,,,,,
2521.300000011921,,recognition_phase,673522,Youngstown,,52,,,,,new,1,0.84,,,,,,,,,,
null,,confidence_buffer,673623,confidence_buffer,,null,,,,,,,,,,,,,,,,,
null,,thebreak,674125,break,,null,,,,,,,,,,,,,,,,,
2475.0999999940395,,realistic_rating,676601,Annapolis,,53,Annapolis,5,,,,,,,,,,,,,,,
null,,confidence_buffer,676702,confidence_buffer,,null,,,,,,,,,,,,,,,,,
3362.300000011921,,probe_rating,680065,probe_rating,,53,,,5,1,,,,,,,,,,,,,
null,,confidence_buffer,680167,confidence_buffer,,null,,,,,,,,,,,,,,,,,
6618.100000023842,,pt2_unique_rating,686786,Annapolis,,52,,4,,,,,,,,,,,,,,,
null,,confidence_buffer,686888,confidence_buffer,,null,,,,,,,,,,,,,,,,,
1673,,pt2_memorable_rating,688562,Annapolis,,51,,3,,,,,,,,,,,,,,,
null,,confidence_buffer,688664,confidence_buffer,,null,,,,,,,,,,,,,,,,,
2577.100000023842,,recognition_phase,691242,Annapolis,,49,,,,,old,1,0.8461538461538461,,,,,,,,,,
null,,confidence_buffer,691344,confidence_buffer,,null,,,,,,,,,,,,,,,,,
null,,thebreak,691845,break,,null,,,,,,,,,,,,,,,,,
2123.5999999940395,,realistic_rating,693970,Gainesville,,53,Gainesville,5,,,,,,,,,,,,,,,
null,,confidence_buffer,694072,confidence_buffer,,null,,,,,,,,,,,,,,,,,
3055.699999988079,,probe_rating,697129,probe_rating,,53,,,5,1,,,,,,,,,,,,,
null,,confidence_buffer,697231,confidence_buffer,,null,,,,,,,,,,,,,,,,,
2458.100000023842,,pt2_unique_rating,699690,Gainesville,,50,,2,,,,,,,,,,,,,,,
null,,confidence_buffer,699792,confidence_buffer,,null,,,,,,,,,,,,,,,,,
1193.4000000059605,,pt2_memorable_rating,700986,Gainesville,,49,,1,,,,,,,,,,,,,,,
null,,confidence_buffer,701098,confidence_buffer,,null,,,,,,,,,,,,,,,,,
2247.199999988079,,recognition_phase,703346,Gainesville,,49,,,,,old,1,0.8518518518518519,,,,,,,,,,
null,,confidence_buffer,703454,confidence_buffer,,null,,,,,,,,,,,,,,,,,
null,,thebreak,703956,break,,null,,,,,,,,,,,,,,,,,
2076.9000000059605,,realistic_rating,706034,Tallahassee,,53,Tallahassee,5,,,,,,,,,,,,,,,
null,,confidence_buffer,706136,confidence_buffer,,null,,,,,,,,,,,,,,,,,
2456.100000023842,,pt2_unique_rating,708593,Tallahassee,,52,,4,,,,,,,,,,,,,,,
null,,confidence_buffer,708694,confidence_buffer,,null,,,,,,,,,,,,,,,,,
930,,pt2_memorable_rating,709625,Tallahassee,,52,,4,,,,,,,,,,,,,,,
null,,confidence_buffer,709726,confidence_buffer,,null,,,,,,,,,,,,,,,,,
2482.300000011921,,recognition_phase,712210,Tallahassee,,49,,,,,old,1,0.8571428571428571,,,,,,,,,,
null,,confidence_buffer,712311,confidence_buffer,,null,,,,,,,,,,,,,,,,,
null,,thebreak,712813,break,,null,,,,,,,,,,,,,,,,,
6148.5999999940395,,realistic_rating,718962,Hagerstown,,50,Hagerstown,2,,,,,,,,,,,,,,,
null,,confidence_buffer,719065,confidence_buffer,,null,,,,,,,,,,,,,,,,,
1952,,pt2_unique_rating,721018,Hagerstown,,51,,3,,,,,,,,,,,,,,,
null,,confidence_buffer,721120,confidence_buffer,,null,,,,,,,,,,,,,,,,,
2224.300000011921,,pt2_memorable_rating,723346,Hagerstown,,51,,3,,,,,,,,,,,,,,,
null,,confidence_buffer,723448,confidence_buffer,,null,,,,,,,,,,,,,,,,,
4201.300000011921,,recognition_phase,727650,Hagerstown,,52,,,,,new,1,0.8620689655172413,,,,,,,,,,
null,,confidence_buffer,727752,confidence_buffer,,null,,,,,,,,,,,,,,,,,
null,,thebreak,728253,break,,null,,,,,,,,,,,,,,,,,
3764.4000000059605,,realistic_rating,732018,Athens,,53,Athens,5,,,,,,,,,,,,,,,
null,,confidence_buffer,732121,confidence_buffer,,null,,,,,,,,,,,,,,,,,
2606.9000000059605,,pt2_unique_rating,734728,Athens,,51,,3,,,,,,,,,,,,,,,
null,,confidence_buffer,734836,confidence_buffer,,null,,,,,,,,,,,,,,,,,
1300.9000000059605,,pt2_memorable_rating,736138,Athens,,52,,4,,,,,,,,,,,,,,,
null,,confidence_buffer,736240,confidence_buffer,,null,,,,,,,,,,,,,,,,,
2088.5999999940395,,recognition_phase,738330,Athens,,49,,,,,old,0,0.8333333333333334,,,,,,,,,,
null,,confidence_buffer,738432,confidence_buffer,,null,,,,,,,,,,,,,,,,,
null,,thebreak,738934,break,,null,,,,,,,,,,,,,,,,,
2315.100000023842,,realistic_rating,741250,Abilene,,53,Abilene,5,,,,,,,,,,,,,,,
null,,confidence_buffer,741351,confidence_buffer,,null,,,,,,,,,,,,,,,,,
3050,,pt2_unique_rating,744402,Abilene,,52,,4,,,,,,,,,,,,,,,
null,,confidence_buffer,744504,confidence_buffer,,null,,,,,,,,,,,,,,,,,
1480.9000000059605,,pt2_memorable_rating,745986,Abilene,,52,,4,,,,,,,,,,,,,,,
null,,confidence_buffer,746088,confidence_buffer,,null,,,,,,,,,,,,,,,,,
3353.4000000059605,,recognition_phase,749442,Abilene,,52,,,,,new,1,0.8387096774193549,,,,,,,,,,
null,,confidence_buffer,749544,confidence_buffer,,null,,,,,,,,,,,,,,,,,
null,,thebreak,750046,break,,null,,,,,,,,,,,,,,,,,
4130.700000017881,,realistic_rating,754178,Cambridge,,53,Cambridge,5,,,,,,,,,,,,,,,
null,,confidence_buffer,754280,confidence_buffer,,null,,,,,,,,,,,,,,,,,
2721.5,,pt2_unique_rating,757003,Cambridge,,51,,3,,,,,,,,,,,,,,,
null,,confidence_buffer,757105,confidence_buffer,,null,,,,,,,,,,,,,,,,,
1455.699999988079,,pt2_memorable_rating,758562,Cambridge,,52,,4,,,,,,,,,,,,,,,
null,,confidence_buffer,758664,confidence_buffer,,null,,,,,,,,,,,,,,,,,
3265.5999999940395,,recognition_phase,761930,Cambridge,,52,,,,,new,1,0.84375,,,,,,,,,,
null,,confidence_buffer,762032,confidence_buffer,,null,,,,,,,,,,,,,,,,,
null,,thebreak,762534,break,,null,,,,,,,,,,,,,,,,,
2987.800000011921,,realistic_rating,765522,Boise,,53,Boise,5,,,,,,,,,,,,,,,
null,,confidence_buffer,765624,confidence_buffer,,null,,,,,,,,,,,,,,,,,
2417.0999999940395,,pt2_unique_rating,768042,Boise,,51,,3,,,,,,,,,,,,,,,
null,,confidence_buffer,768144,confidence_buffer,,null,,,,,,,,,,,,,,,,,
2016.4000000059605,,pt2_memorable_rating,770162,Boise,,52,,4,,,,,,,,,,,,,,,
null,,confidence_buffer,770264,confidence_buffer,,null,,,,,,,,,,,,,,,,,
1736.0999999940395,,recognition_phase,772002,Boise,,49,,,,,old,1,0.8484848484848485,,,,,,,,,,
null,,confidence_buffer,772105,confidence_buffer,,null,,,,,,,,,,,,,,,,,
null,,thebreak,772606,break,,null,,,,,,,,,,,,,,,,,
5515.5,,realistic_rating,778122,Muncie,,53,Muncie,5,,,,,,,,,,,,,,,
null,,confidence_buffer,778224,confidence_buffer,,null,,,,,,,,,,,,,,,,,
2335.9000000059605,,pt2_unique_rating,780561,Muncie,,49,,1,,,,,,,,,,,,,,,
null,,confidence_buffer,780663,confidence_buffer,,null,,,,,,,,,,,,,,,,,
937.2000000178814,,pt2_memorable_rating,781601,Muncie,,49,,1,,,,,,,,,,,,,,,
null,,confidence_buffer,781702,confidence_buffer,,null,,,,,,,,,,,,,,,,,
2817.5999999940395,,recognition_phase,784521,Muncie,,52,,,,,new,1,0.8529411764705882,,,,,,,,,,
null,,confidence_buffer,784622,confidence_buffer,,null,,,,,,,,,,,,,,,,,
null,,thebreak,785124,break,,null,,,,,,,,,,,,,,,,,
5332.299999982119,,realistic_rating,790457,McKinney,,51,McKinney,3,,,,,,,,,,,,,,,
null,,confidence_buffer,790559,confidence_buffer,,null,,,,,,,,,,,,,,,,,
2626.4000000059605,,pt2_unique_rating,793186,McKinney,,51,,3,,,,,,,,,,,,,,,
null,,confidence_buffer,793298,confidence_buffer,,null,,,,,,,,,,,,,,,,,
2005.5,,pt2_memorable_rating,795305,McKinney,,52,,4,,,,,,,,,,,,,,,
null,,confidence_buffer,795405,confidence_buffer,,null,,,,,,,,,,,,,,,,,
1842.5999999940395,,recognition_phase,797249,McKinney,,49,,,,,old,1,0.8571428571428571,,,,,,,,,,
null,,confidence_buffer,797351,confidence_buffer,,null,,,,,,,,,,,,,,,,,
null,,thebreak,797852,break,,null,,,,,,,,,,,,,,,,,
3517,,realistic_rating,801370,Frankfort,,53,Frankfort,5,,,,,,,,,,,,,,,
null,,confidence_buffer,801472,confidence_buffer,,null,,,,,,,,,,,,,,,,,
3560.5999999940395,,pt2_unique_rating,805034,Frankfort,,50,,2,,,,,,,,,,,,,,,
null,,confidence_buffer,805136,confidence_buffer,,null,,,,,,,,,,,,,,,,,
2617,,pt2_memorable_rating,807754,Frankfort,,51,,3,,,,,,,,,,,,,,,
null,,confidence_buffer,807856,confidence_buffer,,null,,,,,,,,,,,,,,,,,
3008.800000011921,,recognition_phase,810866,Frankfort,,52,,,,,new,1,0.8611111111111112,,,,,,,,,,
null,,confidence_buffer,810967,confidence_buffer,,null,,,,,,,,,,,,,,,,,
null,,thebreak,811468,break,,null,,,,,,,,,,,,,,,,,
1964.699999988079,,realistic_rating,813434,Champaign,,53,Champaign,5,,,,,,,,,,,,,,,
null,,confidence_buffer,813536,confidence_buffer,,null,,,,,,,,,,,,,,,,,
2721.199999988079,,pt2_unique_rating,816258,Champaign,,51,,3,,,,,,,,,,,,,,,
null,,confidence_buffer,816360,confidence_buffer,,null,,,,,,,,,,,,,,,,,
2768.600000023842,,pt2_memorable_rating,819130,Champaign,,51,,3,,,,,,,,,,,,,,,
null,,confidence_buffer,819232,confidence_buffer,,null,,,,,,,,,,,,,,,,,
1648.9000000059605,,recognition_phase,820882,Champaign,,49,,,,,old,1,0.8648648648648649,,,,,,,,,,
null,,confidence_buffer,820984,confidence_buffer,,null,,,,,,,,,,,,,,,,,
null,,thebreak,821486,break,,null,,,,,,,,,,,,,,,,,
1899.199999988079,,realistic_rating,823386,Fargo,,53,Fargo,5,,,,,,,,,,,,,,,
null,,confidence_buffer,823488,confidence_buffer,,null,,,,,,,,,,,,,,,,,
2697.600000023842,,pt2_unique_rating,826186,Fargo,,51,,3,,,,,,,,,,,,,,,
null,,confidence_buffer,826303,confidence_buffer,,null,,,,,,,,,,,,,,,,,
1409.6000000238419,,pt2_memorable_rating,827714,Fargo,,52,,4,,,,,,,,,,,,,,,
null,,confidence_buffer,827815,confidence_buffer,,null,,,,,,,,,,,,,,,,,
1721.800000011921,,recognition_phase,829538,Fargo,,49,,,,,old,1,0.868421052631579,,,,,,,,,,
null,,confidence_buffer,829639,confidence_buffer,,null,,,,,,,,,,,,,,,,,
null,,thebreak,830141,break,,null,,,,,,,,,,,,,,,,,
3666.9000000059605,,realistic_rating,833809,Stamford,,50,Stamford,2,,,,,,,,,,,,,,,
null,,confidence_buffer,833911,confidence_buffer,,null,,,,,,,,,,,,,,,,,
1737.5,,pt2_unique_rating,835650,Stamford,,50,,2,,,,,,,,,,,,,,,
null,,confidence_buffer,835752,confidence_buffer,,null,,,,,,,,,,,,,,,,,
1985.300000011921,,pt2_memorable_rating,837738,Stamford,,51,,3,,,,,,,,,,,,,,,
null,,confidence_buffer,837841,confidence_buffer,,null,,,,,,,,,,,,,,,,,
1680.1000000238419,,recognition_phase,839522,Stamford,,49,,,,,old,1,0.8717948717948718,,,,,,,,,,
null,,confidence_buffer,839624,confidence_buffer,,null,,,,,,,,,,,,,,,,,
null,,thebreak,840125,break,,null,,,,,,,,,,,,,,,,,
3219.800000011921,,realistic_rating,843346,Olympia,,53,Olympia,5,,,,,,,,,,,,,,,
null,,confidence_buffer,843448,confidence_buffer,,null,,,,,,,,,,,,,,,,,
1465,,pt2_unique_rating,844914,Olympia,,51,,3,,,,,,,,,,,,,,,
null,,confidence_buffer,845016,confidence_buffer,,null,,,,,,,,,,,,,,,,,
1648.6000000238419,,pt2_memorable_rating,846666,Olympia,,52,,4,,,,,,,,,,,,,,,
null,,confidence_buffer,846768,confidence_buffer,,null,,,,,,,,,,,,,,,,,
1673.2000000178814,,probe_rating,848442,probe_rating,,49,,,1,1,,,,,,,,,,,,,
null,,confidence_buffer,848545,confidence_buffer,,null,,,,,,,,,,,,,,,,,
3030.5,,recognition_phase,851577,Olympia,,49,,,,,old,1,0.875,,,,,,,,,,
null,,confidence_buffer,851683,confidence_buffer,,null,,,,,,,,,,,,,,,,,
null,,thebreak,852184,break,,null,,,,,,,,,,,,,,,,,
6105.0999999940395,,realistic_rating,858290,Terre Haute,,53,Terre Haute,5,,,,,,,,,,,,,,,
null,,confidence_buffer,858392,confidence_buffer,,null,,,,,,,,,,,,,,,,,
1416.9000000059605,,pt2_unique_rating,859810,Terre Haute,,53,,5,,,,,,,,,,,,,,,
null,,confidence_buffer,859912,confidence_buffer,,null,,,,,,,,,,,,,,,,,
1241.2000000178814,,pt2_memorable_rating,861154,Terre Haute,,53,,5,,,,,,,,,,,,,,,
null,,confidence_buffer,861256,confidence_buffer,,null,,,,,,,,,,,,,,,,,
2136.5,,recognition_phase,863394,Terre Haute,,49,,,,,old,1,0.8780487804878049,,,,,,,,,,
null,,confidence_buffer,863496,confidence_buffer,,null,,,,,,,,,,,,,,,,,
null,,thebreak,863998,break,,null,,,,,,,,,,,,,,,,,
2379.2000000178814,,realistic_rating,866378,Marquette,,53,Marquette,5,,,,,,,,,,,,,,,
null,,confidence_buffer,866482,confidence_buffer,,null,,,,,,,,,,,,,,,,,
2271.0999999940395,,pt2_unique_rating,868754,Marquette,,50,,2,,,,,,,,,,,,,,,
null,,confidence_buffer,868856,confidence_buffer,,null,,,,,,,,,,,,,,,,,
1016.3000000119209,,pt2_memorable_rating,869873,Marquette,,50,,2,,,,,,,,,,,,,,,
null,,confidence_buffer,869975,confidence_buffer,,null,,,,,,,,,,,,,,,,,
2378.199999988079,,recognition_phase,872354,Marquette,,49,,,,,old,1,0.8809523809523809,,,,,,,,,,
null,,confidence_buffer,872457,confidence_buffer,,null,,,,,,,,,,,,,,,,,
null,,thebreak,872959,break,,null,,,,,,,,,,,,,,,,,
3209.2999999821186,,realistic_rating,876169,Berkeley,,53,Berkeley,5,,,,,,,,,,,,,,,
null,,confidence_buffer,876271,confidence_buffer,,null,,,,,,,,,,,,,,,,,
1906.300000011921,,pt2_unique_rating,878178,Berkeley,,50,,2,,,,,,,,,,,,,,,
null,,confidence_buffer,878279,confidence_buffer,,null,,,,,,,,,,,,,,,,,
889.5999999940395,,pt2_memorable_rating,879170,Berkeley,,50,,2,,,,,,,,,,,,,,,
null,,confidence_buffer,879272,confidence_buffer,,null,,,,,,,,,,,,,,,,,
1761.199999988079,,probe_rating,881034,probe_rating,,53,,,5,1,,,,,,,,,,,,,
null,,confidence_buffer,881137,confidence_buffer,,null,,,,,,,,,,,,,,,,,
2592.199999988079,,recognition_phase,883730,Berkeley,,52,,,,,new,1,0.8837209302325582,,,,,,,,,,
null,,confidence_buffer,883832,confidence_buffer,,null,,,,,,,,,,,,,,,,,
null,,thebreak,884334,break,,null,,,,,,,,,,,,,,,,,
4739.0999999940395,,realistic_rating,889074,Las Cruces,,53,Las Cruces,5,,,,,,,,,,,,,,,
null,,confidence_buffer,889176,confidence_buffer,,null,,,,,,,,,,,,,,,,,
2857.300000011921,,pt2_unique_rating,892035,Las Cruces,,50,,2,,,,,,,,,,,,,,,
null,,confidence_buffer,892137,confidence_buffer,,null,,,,,,,,,,,,,,,,,
2280.600000023842,,pt2_memorable_rating,894418,Las Cruces,,51,,3,,,,,,,,,,,,,,,
null,,confidence_buffer,894521,confidence_buffer,,null,,,,,,,,,,,,,,,,,
2823.199999988079,,recognition_phase,897345,Las Cruces,,52,,,,,new,1,0.8863636363636364,,,,,,,,,,
null,,confidence_buffer,897447,confidence_buffer,,null,,,,,,,,,,,,,,,,,
null,,thebreak,897949,break,,null,,,,,,,,,,,,,,,,,
2892,,realistic_rating,900842,Newport News,,53,Newport News,5,,,,,,,,,,,,,,,
null,,confidence_buffer,900943,confidence_buffer,,null,,,,,,,,,,,,,,,,,
5929,,pt2_unique_rating,906873,Newport News,,53,,5,,,,,,,,,,,,,,,
null,,confidence_buffer,906975,confidence_buffer,,null,,,,,,,,,,,,,,,,,
3233.699999988079,,pt2_memorable_rating,910210,Newport News,,52,,4,,,,,,,,,,,,,,,
null,,confidence_buffer,910312,confidence_buffer,,null,,,,,,,,,,,,,,,,,
3409.199999988079,,recognition_phase,913722,Newport News,,52,,,,,new,1,0.8888888888888888,,,,,,,,,,
null,,confidence_buffer,913823,confidence_buffer,,null,,,,,,,,,,,,,,,,,
null,,thebreak,914325,break,,null,,,,,,,,,,,,,,,,,
4226.800000011921,,realistic_rating,918553,Salem,,53,Salem,5,,,,,,,,,,,,,,,
null,,confidence_buffer,918654,confidence_buffer,,null,,,,,,,,,,,,,,,,,
4395,,pt2_unique_rating,923050,Salem,,50,,2,,,,,,,,,,,,,,,
null,,confidence_buffer,923152,confidence_buffer,,null,,,,,,,,,,,,,,,,,
1600.699999988079,,pt2_memorable_rating,924754,Salem,,49,,1,,,,,,,,,,,,,,,
null,,confidence_buffer,924856,confidence_buffer,,null,,,,,,,,,,,,,,,,,
1488.7000000178814,,recognition_phase,926346,Salem,,49,,,,,old,1,0.8913043478260869,,,,,,,,,,
null,,confidence_buffer,926448,confidence_buffer,,null,,,,,,,,,,,,,,,,,
null,,thebreak,926950,break,,null,,,,,,,,,,,,,,,,,
1938.5,,realistic_rating,928890,Reno,,53,Reno,5,,,,,,,,,,,,,,,
null,,confidence_buffer,928991,confidence_buffer,,null,,,,,,,,,,,,,,,,,
2785.800000011921,,pt2_unique_rating,931778,Reno,,50,,2,,,,,,,,,,,,,,,
null,,confidence_buffer,931880,confidence_buffer,,null,,,,,,,,,,,,,,,,,
1528.5999999940395,,pt2_memorable_rating,933410,Reno,,51,,3,,,,,,,,,,,,,,,
null,,confidence_buffer,933512,confidence_buffer,,null,,,,,,,,,,,,,,,,,
1513.4000000059605,,recognition_phase,935026,Reno,,49,,,,,old,1,0.8936170212765957,,,,,,,,,,
null,,confidence_buffer,935136,confidence_buffer,,null,,,,,,,,,,,,,,,,,
null,,thebreak,935637,break,,null,,,,,,,,,,,,,,,,,
3163.5,,realistic_rating,938802,Cheyenne,,53,Cheyenne,5,,,,,,,,,,,,,,,
null,,confidence_buffer,938904,confidence_buffer,,null,,,,,,,,,,,,,,,,,
4632.699999988079,,pt2_unique_rating,943538,Cheyenne,,52,,4,,,,,,,,,,,,,,,
null,,confidence_buffer,943640,confidence_buffer,,null,,,,,,,,,,,,,,,,,
2440.5,,pt2_memorable_rating,946082,Cheyenne,,52,,4,,,,,,,,,,,,,,,
null,,confidence_buffer,946184,confidence_buffer,,null,,,,,,,,,,,,,,,,,
3704.800000011921,,recognition_phase,949890,Cheyenne,,49,,,,,old,0,0.875,,,,,,,,,,
null,,confidence_buffer,949993,confidence_buffer,,null,,,,,,,,,,,,,,,,,
null,,thebreak,950494,break,,null,,,,,,,,,,,,,,,,,
1922.699999988079,,realistic_rating,952418,Altoona,,53,Altoona,5,,,,,,,,,,,,,,,
null,,confidence_buffer,952520,confidence_buffer,,null,,,,,,,,,,,,,,,,,
1225.300000011921,,pt2_unique_rating,953746,Altoona,,52,,4,,,,,,,,,,,,,,,
null,,confidence_buffer,953848,confidence_buffer,,null,,,,,,,,,,,,,,,,,
5832.799999982119,,pt2_memorable_rating,959682,Altoona,,53,,5,,,,,,,,,,,,,,,
null,,confidence_buffer,959784,confidence_buffer,,null,,,,,,,,,,,,,,,,,
2745.0999999940395,,recognition_phase,962530,Altoona,,49,,,,,old,1,0.8775510204081632,,,,,,,,,,
null,,confidence_buffer,962632,confidence_buffer,,null,,,,,,,,,,,,,,,,,
null,,thebreak,963135,break,,null,,,,,,,,,,,,,,,,,
6690.300000011921,,realistic_rating,969826,Burlington,,53,Burlington,5,,,,,,,,,,,,,,,
null,,confidence_buffer,969928,confidence_buffer,,null,,,,,,,,,,,,,,,,,
2456.9000000059605,,pt2_unique_rating,972386,Burlington,,49,,1,,,,,,,,,,,,,,,
null,,confidence_buffer,972488,confidence_buffer,,null,,,,,,,,,,,,,,,,,
840.9000000059605,,pt2_memorable_rating,973330,Burlington,,50,,2,,,,,,,,,,,,,,,
null,,confidence_buffer,973432,confidence_buffer,,null,,,,,,,,,,,,,,,,,
1385,,recognition_phase,974818,Burlington,,49,,,,,old,1,0.88,,,,,,,,,,
null,,confidence_buffer,974921,confidence_buffer,,null,,,,,,,,,,,,,,,,,
null,,thebreak,975423,break,,null,,,,,,,,,,,,,,,,,
,,survey,1075871,survey-questions,,,,,,,,,,none,high,no,remembering places I have been before; friends from cities; and old stories. I've travelled a lot. ,I KNEW it was really a city,Had unique sound or spelling,often similar to memorable ,IF it were a real place,no,no
